sub_num,trial,block,task,is_practice,category,image,texture,duration,mask_dur,jitter,stim_time,time_of_resp,trial_response,mask_time,fix_time,jit_onset,trial_end,trial_accuracy,RT
121,1,0,typicality,1,bathroom,bathroom_practice2.tif,222,1.5,0,1.48333333333333,6898.90644775,6917.654418958,5,NaN,6917.676810416,6917.698330875,6919.175916458,NaN,NaN
121,2,0,typicality,1,bathroom,bathroom_practice4.tif,224,1.5,0,0.75,6919.209931041,6926.30260025,7,NaN,6926.311962541,6926.330774083,6927.074141166,NaN,NaN
121,3,0,typicality,1,bathroom,bathroom_practice1.tif,221,1.5,0,1.93333333333333,6927.07983475,6931.469972,5,NaN,6931.476317708,6931.494871958,6933.421632,NaN,NaN
121,4,0,typicality,1,bathroom,bathroom_practice5.tif,225,1.5,0,0.983333333333333,6933.447210708,6938.125607583,4,NaN,6938.132311125,6938.150674625,6939.127350625,NaN,NaN
121,5,0,typicality,1,bathroom,bathroom_practice3.tif,223,1.5,0,0.883333333333333,6939.133573333,6942.918180458,6,NaN,6942.926939375,6942.945242625,6943.821915958,NaN,NaN
121,1,1,typicality,0,bathroom,sun_aapitsgbtktqubfy.tif,122,1.5,0,0.866666666666667,6948.55541625,6952.205901875,5,NaN,6952.212042625,6952.230236458,6953.09024725,NaN,NaN
121,2,1,typicality,0,bathroom,sun_aleqenyvunhactkl.tif,142,1.5,0,1.03333333333333,6953.096314,6956.886457333,7,NaN,6956.892175541,6956.910589458,6957.937354708,NaN,NaN
121,3,1,typicality,0,bathroom,sun_ajlawzvmubibwbpy.tif,140,1.5,0,0.866666666666667,6957.94636175,6962.662035333,3,NaN,6962.668083708,6962.6865,6963.546510458,NaN,NaN
121,4,1,typicality,0,bathroom,sun_alkosphxlxwjwgjd.tif,144,1.5,0,1.61666666666667,6963.551031333,6967.918444458,3,NaN,6967.924233625,6967.942586916,6969.552644875,NaN,NaN
121,5,1,typicality,0,bathroom,sun_anhioqovhscjqqwb.tif,148,1.5,0,0.883333333333333,6969.571515291,6972.600836958,7,NaN,6972.625651416,6972.6479525,6973.524626875,NaN,NaN
121,6,1,typicality,0,bathroom,sun_alotolagknyrgtsk.tif,145,1.5,0,0.933333333333333,6973.529558375,6976.966086625,7,NaN,6976.9716895,6976.990119416,6977.916795416,NaN,NaN
121,7,1,typicality,0,bathroom,sun_aghyqhbptboemmoq.tif,133,1.5,0,1.5,6977.921324416,6982.454288875,7,NaN,6982.459911333,6982.478190125,6983.971586916,NaN,NaN
121,8,1,typicality,0,bathroom,sun_asfwthctfqerjvxr.tif,159,1.5,0,1.36666666666667,6983.985911583,6988.189732166,2,NaN,6988.195419541,6988.213622541,6989.573700166,NaN,NaN
121,9,1,typicality,0,bathroom,sun_agyqfjcfkdcydepw.tif,135,1.5,0,0.85,6989.592755416,6993.301595958,1,NaN,6993.307474916,6993.325837041,6994.169178791,NaN,NaN
121,10,1,typicality,0,bathroom,sun_apeeialkgkuxddgh.tif,152,1.5,0,1.81666666666667,6994.174134625,7001.5657725,7,NaN,7001.572144291,7001.59051225,7003.400588625,NaN,NaN
121,11,1,typicality,0,bathroom,sun_acegryoqftbzowsg.tif,127,1.5,0,1.28333333333333,7003.419446875,7008.214199541,7,NaN,7008.219864833,7008.238214291,7009.514970708,NaN,NaN
121,12,1,typicality,0,bathroom,sun_anryaplzeujmzfkd.tif,149,1.5,0,1.23333333333333,7009.531929,7014.485698333,6,NaN,7014.491298083,7014.509660041,7015.736385875,NaN,NaN
121,13,1,typicality,0,bathroom,sun_amzlamotzwfkwjco.tif,147,1.5,0,0.883333333333333,7015.754924541,7021.102010583,3,NaN,7021.107787583,7021.126237791,7022.002913625,NaN,NaN
121,14,1,typicality,0,bathroom,sun_afcoljnjfoxjtgja.tif,130,1.5,0,0.866666666666667,7022.007579583,7027.597877875,3,NaN,7027.603551083,7027.621849166,7028.481855375,NaN,NaN
121,15,1,typicality,0,bathroom,sun_aclfzgynxzxlbepz.tif,129,1.5,0,1.36666666666667,7028.486345958,7031.725427916,6,NaN,7031.731056125,7031.74939175,7033.10948575,NaN,NaN
121,16,1,typicality,0,bathroom,sun_acduarbnmmoglmiv.tif,126,1.5,0,1.05,7033.1205505,7036.325178791,5,NaN,7036.331192916,7036.349538708,7037.392953666,NaN,NaN
121,17,1,typicality,0,bathroom,sun_auzqhkafidnkrwmo.tif,164,1.5,0,1.21666666666667,7037.403244958,7041.485533916,5,NaN,7041.491163,7041.509354416,7042.71942175,NaN,NaN
121,18,1,typicality,0,bathroom,sun_aofnryafpsjimzsb.tif,150,1.5,0,0.816666666666667,7042.737243458,7046.470089958,5,NaN,7046.475760041,7046.494329541,7047.304335791,NaN,NaN
121,19,1,typicality,0,bathroom,sun_apmqjbnwghzuhhzh.tif,156,1.5,0,1,7047.308751,7050.933953791,3,NaN,7050.939615583,7050.958020166,7051.951359958,NaN,NaN
121,20,1,typicality,0,bathroom,sun_abjtwfukuwddzted.tif,125,1.5,0,1.21666666666667,7051.956027708,7055.238083833,2,NaN,7055.243731625,7055.262132458,7056.472199541,NaN,NaN
121,21,1,typicality,0,bathroom,sun_awnqiikzaispgmwo.tif,166,1.5,0,1.46666666666667,7056.487318916,7059.973364666,5,NaN,7059.979070166,7059.997364708,7061.457428041,NaN,NaN
121,22,1,typicality,0,bathroom,sun_aljolscmmzydegqp.tif,143,1.5,0,1.4,7061.475045333,7064.213722791,4,NaN,7064.219211708,7064.23745375,7065.630868375,NaN,NaN
121,23,1,typicality,0,bathroom,sun_abapwbhyhkfixyex.tif,124,1.5,0,0.783333333333333,7065.6463455,7070.12515325,3,NaN,7070.131113125,7070.149570583,7070.926247583,NaN,NaN
121,24,1,typicality,0,bathroom,labelme_sfxiulhjbhlyiyt.tif,121,1.5,0,1.21666666666667,7070.93052575,7076.597325791,3,NaN,7076.60309425,7076.621497791,7077.831576625,NaN,NaN
121,25,1,typicality,0,bathroom,sun_axldvoqbuvuggfmq.tif,167,1.5,0,1.35,7077.848780416,7081.485932541,6,NaN,7081.491616083,7081.510024916,7082.853433916,NaN,NaN
121,1,2,typicality,0,bathroom,sun_aoybiabnpadelefl.tif,151,1.5,0,1.65,7087.179493958,7091.613392166,2,NaN,7091.619103,7091.63749725,7093.280884083,NaN,NaN
121,2,2,typicality,0,bathroom,sun_apkruvsevgegsdwp.tif,154,1.5,0,1.01666666666667,7093.299350708,7096.384882708,4,NaN,7096.414097333,7096.437315083,7097.447394166,NaN,NaN
121,3,2,typicality,0,bathroom,sun_ahijqszoswveeyji.tif,138,1.5,0,1.58333333333333,7097.455783875,7101.108940041,4,NaN,7101.114850708,7101.133345583,7102.710091041,NaN,NaN
121,4,2,typicality,0,bathroom,sun_aunuadmjocsddsrl.tif,162,1.5,0,0.7,7102.731360375,7105.821790166,6,NaN,7105.827416041,7105.845667166,7106.539009833,NaN,NaN
121,5,2,typicality,0,bathroom,sun_apkxzenqapsujocq.tif,155,1.5,0,1.23333333333333,7106.543283666,7109.376144083,7,NaN,7109.399198958,7109.422121083,7110.648868041,NaN,NaN
121,6,2,typicality,0,bathroom,sun_akiytfaagpdsphgz.tif,141,1.5,0,0.816666666666667,7110.665654416,7114.11739875,6,NaN,7114.123057916,7114.141507333,7114.951514916,NaN,NaN
121,7,2,typicality,0,bathroom,sun_agrwbmhcpmfuwmsg.tif,134,1.5,0,0.733333333333333,7114.955878791,7117.81449125,7,NaN,7117.841489791,7117.863184416,7118.589858333,NaN,NaN
121,8,2,typicality,0,bathroom,sun_agguqiubmwhqqunb.tif,132,1.5,0,1.15,7118.595452708,7121.6629575,7,NaN,7121.6914095,7121.711828083,7122.855231208,NaN,NaN
121,9,2,typicality,0,bathroom,sun_axyrejkiiaqiurjk.tif,169,1.5,0,0.933333333333333,7122.863695166,7125.989660833,5,NaN,7125.995263625,7126.013364416,7126.940038458,NaN,NaN
121,10,2,typicality,0,bathroom,sun_aavhrsfjbserjtht.tif,123,1.5,0,0.916666666666667,7126.945597166,7130.077778708,4,NaN,7130.084097541,7130.102383916,7131.012391875,NaN,NaN
121,11,2,typicality,0,bathroom,sun_avhrdrntsqrjzccq.tif,165,1.5,0,1.26666666666667,7131.017057791,7134.58923775,4,NaN,7134.594823625,7134.613116166,7135.873220291,NaN,NaN
121,12,2,typicality,0,bathroom,sun_aqrpegblszgcoujh.tif,158,1.5,0,0.933333333333333,7135.888322666,7138.381047791,7,NaN,7138.38660675,7138.404915083,7139.331590708,NaN,NaN
121,13,2,typicality,0,bathroom,sun_ambriybtogmepttm.tif,146,1.5,0,1,7139.3362045,7143.32478575,6,NaN,7143.330729583,7143.349130208,7144.34247475,NaN,NaN
121,14,2,typicality,0,bathroom,sun_acgyywnybuveqsro.tif,128,1.5,0,1,7144.347041041,7147.373126791,5,NaN,7147.401071458,7147.4232115,7148.416555875,NaN,NaN
121,15,2,typicality,0,bathroom,sun_aggnnqpdorgxpvce.tif,131,1.5,0,1.21666666666667,7148.42116825,7151.118426708,4,NaN,7151.138561291,7151.162578541,7152.372653291,NaN,NaN
121,16,2,typicality,0,bathroom,sun_apjevzvycyhuqghb.tif,153,1.5,0,1.85,7152.389411666,7155.677160833,4,NaN,7155.68281325,7155.701178291,7157.544583333,NaN,NaN
121,17,2,typicality,0,bathroom,sun_aspsyogrekjtfozg.tif,160,1.5,0,0.766666666666667,7157.563951708,7161.101522791,3,NaN,7161.107056791,7161.125378,7161.885387458,NaN,NaN
121,18,2,typicality,0,bathroom,sun_axxbkopsgyouuebh.tif,168,1.5,0,0.966666666666667,7161.890113041,7164.997466625,4,NaN,7165.004552166,7165.022896291,7165.982904166,NaN,NaN
121,19,2,typicality,0,bathroom,sun_ahaulkltgpkeeemi.tif,136,1.5,0,1.4,7165.987423958,7169.93280425,1,NaN,7169.938539083,7169.957017041,7171.350415,NaN,NaN
121,20,2,typicality,0,bathroom,sun_apynckhmoftszqoq.tif,157,1.5,0,0.933333333333333,7171.365560833,7174.540628541,5,NaN,7174.546633916,7174.565023125,7175.491697791,NaN,NaN
121,21,2,typicality,0,bathroom,sun_ahqjwnzgolcaoidx.tif,139,1.5,0,1.7,7175.509998375,7179.924661875,3,NaN,7179.930698583,7179.949002541,7181.6424145,NaN,NaN
121,22,2,typicality,0,bathroom,sun_ahcvzmoyaycdoftf.tif,137,1.5,0,0.916666666666667,7181.662188291,7185.229673166,4,NaN,7185.23766475,7185.256096166,7186.166106291,NaN,NaN
121,23,2,typicality,0,bathroom,sun_ausgutylgojavyoq.tif,163,1.5,0,0.833333333333333,7186.170662458,7189.276615625,3,NaN,7189.283951416,7189.302252958,7190.128926541,NaN,NaN
121,24,2,typicality,0,bathroom,sun_azqyogdvyhahyram.tif,170,1.5,0,0.783333333333333,7190.133346833,7193.349383,3,NaN,7193.354835916,7193.373150291,7194.149823291,NaN,NaN
121,25,2,typicality,0,bathroom,sun_atstyziqcmkahyxk.tif,161,1.5,0,1.4,7194.154864833,7197.159817,5,NaN,7197.180072375,7197.203537458,7198.596968916,NaN,NaN
