sub_num,trial,block,task,is_practice,category,image,texture,duration,mask_dur,jitter,stim_time,time_of_resp,trial_response,mask_time,fix_time,jit_onset,trial_end,trial_accuracy,RT
102,1,0,familiarity,1,bathroom,bathroom_practice1.tif,221,1.5,0,0.916666666666667,18837.6082025,18841.457042541,7,NaN,18841.463022583,18841.481494625,18842.391499625,NaN,NaN
102,2,0,familiarity,1,bathroom,bathroom_practice2.tif,222,1.5,0,0.85,18842.408354791,18845.236455875,1,NaN,18845.26544675,18845.287870083,18846.1312085,NaN,NaN
102,3,0,familiarity,1,bathroom,bathroom_practice3.tif,223,1.5,0,0.883333333333333,18846.135903166,18849.289176916,7,NaN,18849.299022,18849.318048458,18850.194719208,NaN,NaN
102,4,0,familiarity,1,bathroom,bathroom_practice5.tif,225,1.5,0,1.43333333333333,18850.199445291,18854.576629708,6,NaN,18854.582540791,18854.600836416,18856.027541666,NaN,NaN
102,5,0,familiarity,1,bathroom,bathroom_practice4.tif,224,1.5,0,1.53333333333333,18856.044584041,18860.576777291,5,NaN,18860.582445208,18860.60080025,18862.127499083,NaN,NaN
102,1,1,familiarity,0,bathroom,sun_ahcvzmoyaycdoftf.tif,137,1.5,0,1.26666666666667,18867.061510625,18870.528669208,6,NaN,18870.535563916,18870.553966958,18871.814012125,NaN,NaN
102,2,1,familiarity,0,bathroom,sun_aggnnqpdorgxpvce.tif,131,1.5,0,1.76666666666667,18871.832007375,18877.800572958,2,NaN,18877.807805625,18877.82775175,18879.587801125,NaN,NaN
102,3,1,familiarity,0,bathroom,sun_aclfzgynxzxlbepz.tif,129,1.5,0,1.46666666666667,18879.6066385,18884.065279458,7,NaN,18884.07088775,18884.0892635,18885.549301,NaN,NaN
102,4,1,familiarity,0,bathroom,sun_apmqjbnwghzuhhzh.tif,156,1.5,0,1.28333333333333,18885.567778166,18889.264938666,3,NaN,18889.270479875,18889.288864541,18890.565584708,NaN,NaN
102,5,1,familiarity,0,bathroom,sun_acegryoqftbzowsg.tif,127,1.5,0,0.966666666666667,18890.582769541,18896.0883675,2,NaN,18896.094292708,18896.112552333,18897.072557916,NaN,NaN
102,6,1,familiarity,0,bathroom,sun_alkosphxlxwjwgjd.tif,144,1.5,0,0.783333333333333,18897.07712925,18902.569182291,3,NaN,18902.574954916,18902.593521875,18903.370193,NaN,NaN
102,7,1,familiarity,0,bathroom,sun_acgyywnybuveqsro.tif,128,1.5,0,1.21666666666667,18903.374725291,18907.600643375,3,NaN,18907.606472083,18907.625279041,18908.835327708,NaN,NaN
102,8,1,familiarity,0,bathroom,sun_anhioqovhscjqqwb.tif,148,1.5,0,1.4,18908.852450458,18916.192516625,5,NaN,18916.198285041,18916.216536708,18917.609906416,NaN,NaN
102,9,1,familiarity,0,bathroom,sun_aspsyogrekjtfozg.tif,160,1.5,0,1.3,18917.628400333,18921.1767955,2,NaN,18921.182295208,18921.200612958,18922.493989458,NaN,NaN
102,10,1,familiarity,0,bathroom,sun_ahqjwnzgolcaoidx.tif,139,1.5,0,0.95,18922.512451208,18925.63255575,6,NaN,18925.638431041,18925.656669458,18926.600008708,NaN,NaN
102,11,1,familiarity,0,bathroom,sun_ausgutylgojavyoq.tif,163,1.5,0,1.96666666666667,18926.6045705,18931.920657875,3,NaN,18931.926304083,18931.944588833,18933.904628291,NaN,NaN
102,12,1,familiarity,0,bathroom,sun_axyrejkiiaqiurjk.tif,169,1.5,0,1.13333333333333,18933.921022416,18937.264434916,1,NaN,18937.271034208,18937.289426,18938.416143833,NaN,NaN
102,13,1,familiarity,0,bathroom,sun_agrwbmhcpmfuwmsg.tif,134,1.5,0,0.933333333333333,18938.425017,18942.225001208,4,NaN,18942.230632833,18942.2489125,18943.175582875,NaN,NaN
102,14,1,familiarity,0,bathroom,sun_axxbkopsgyouuebh.tif,168,1.5,0,1.6,18943.180642875,18946.569058875,7,NaN,18946.575218875,18946.593384083,18948.186773041,NaN,NaN
102,15,1,familiarity,0,bathroom,sun_akiytfaagpdsphgz.tif,141,1.5,0,1.38333333333333,18948.20473825,18954.239990416,6,NaN,18954.246042666,18954.264495458,18955.641208625,NaN,NaN
102,16,1,familiarity,0,bathroom,sun_aavhrsfjbserjtht.tif,123,1.5,0,1.58333333333333,18955.663254916,18959.183985125,5,NaN,18959.189919416,18959.208334416,18960.785044166,NaN,NaN
102,17,1,familiarity,0,bathroom,sun_auzqhkafidnkrwmo.tif,164,1.5,0,0.966666666666667,18960.804835875,18964.479884708,3,NaN,18964.487745666,18964.506219166,18965.46622475,NaN,NaN
102,18,1,familiarity,0,bathroom,sun_amzlamotzwfkwjco.tif,147,1.5,0,0.983333333333333,18965.474466291,18969.376004458,1,NaN,18969.381843541,18969.400372208,18970.377044458,NaN,NaN
102,19,1,familiarity,0,bathroom,sun_asfwthctfqerjvxr.tif,159,1.5,0,0.8,18970.381702125,18973.952163958,2,NaN,18973.958297166,18973.976542625,18974.769880166,NaN,NaN
102,20,1,familiarity,0,bathroom,sun_apkxzenqapsujocq.tif,155,1.5,0,0.7,18974.7745675,18977.984763083,7,NaN,18977.991397833,18978.009691291,18978.703029458,NaN,NaN
102,21,1,familiarity,0,bathroom,sun_anryaplzeujmzfkd.tif,149,1.5,0,0.716666666666667,18978.707601291,18982.511996208,6,NaN,18982.517961416,18982.536173666,18983.246177416,NaN,NaN
102,22,1,familiarity,0,bathroom,sun_atstyziqcmkahyxk.tif,161,1.5,0,1.76666666666667,18983.25079,18985.84442025,7,NaN,18985.873965375,18985.897153375,18987.657187083,NaN,NaN
102,23,1,familiarity,0,bathroom,sun_ajlawzvmubibwbpy.tif,140,1.5,0,1.7,18987.672351125,18991.959770541,6,NaN,18991.965677166,18991.983916666,18993.677305458,NaN,NaN
102,24,1,familiarity,0,bathroom,sun_aljolscmmzydegqp.tif,143,1.5,0,1.38333333333333,18993.696799625,19000.016119916,1,NaN,19000.022152625,19000.040610166,19001.417325208,NaN,NaN
102,25,1,familiarity,0,bathroom,sun_afcoljnjfoxjtgja.tif,130,1.5,0,0.766666666666667,19001.430419708,19004.752513125,1,NaN,19004.757971416,19004.776157583,19005.536162,NaN,NaN
102,1,2,familiarity,0,bathroom,sun_azqyogdvyhahyram.tif,170,1.5,0,0.85,19010.037816666,19013.344556375,6,NaN,19013.351333791,19013.369740208,19014.213078,NaN,NaN
102,2,2,familiarity,0,bathroom,sun_agguqiubmwhqqunb.tif,132,1.5,0,1.53333333333333,19014.217813125,19018.384650666,6,NaN,19018.390151666,19018.40849625,19019.935213708,NaN,NaN
102,3,2,familiarity,0,bathroom,sun_avhrdrntsqrjzccq.tif,165,1.5,0,0.7,19019.952695083,19023.200610708,3,NaN,19023.206148208,19023.224718458,19023.918056958,NaN,NaN
102,4,2,familiarity,0,bathroom,sun_aunuadmjocsddsrl.tif,162,1.5,0,1.36666666666667,19023.922326,19028.696374583,5,NaN,19028.702208166,19028.720566,19030.080590041,NaN,NaN
102,5,2,familiarity,0,bathroom,sun_abapwbhyhkfixyex.tif,124,1.5,0,0.716666666666667,19030.090089875,19033.200085916,6,NaN,19033.205889416,19033.224703458,19033.934708125,NaN,NaN
102,6,2,familiarity,0,bathroom,sun_alotolagknyrgtsk.tif,145,1.5,0,1.38333333333333,19033.94038275,19037.191996958,1,NaN,19037.198924166,19037.217158625,19038.593883666,NaN,NaN
102,7,2,familiarity,0,bathroom,labelme_sfxiulhjbhlyiyt.tif,121,1.5,0,0.916666666666667,19038.612379291,19041.424599083,7,NaN,19041.430142583,19041.448434333,19042.358438375,NaN,NaN
102,8,2,familiarity,0,bathroom,sun_aqrpegblszgcoujh.tif,158,1.5,0,1.58333333333333,19042.374060791,19046.024305125,4,NaN,19046.029711166,19046.04819025,19047.624899166,NaN,NaN
102,9,2,familiarity,0,bathroom,sun_ahijqszoswveeyji.tif,138,1.5,0,1.25,19047.6444025,19051.087278708,6,NaN,19051.113507166,19051.1343855,19052.377766875,NaN,NaN
102,10,2,familiarity,0,bathroom,sun_axldvoqbuvuggfmq.tif,167,1.5,0,0.95,19052.397739291,19058.264237416,5,NaN,19058.269917833,19058.288265833,19059.2316035,NaN,NaN
102,11,2,familiarity,0,bathroom,sun_ahaulkltgpkeeemi.tif,136,1.5,0,1.4,19059.236296291,19062.424133958,6,NaN,19062.431218416,19062.449518208,19063.842897333,NaN,NaN
102,12,2,familiarity,0,bathroom,sun_aghyqhbptboemmoq.tif,133,1.5,0,0.766666666666667,19063.862885958,19066.527558125,7,NaN,19066.533522583,19066.551805125,19067.311810833,NaN,NaN
102,13,2,familiarity,0,bathroom,sun_apynckhmoftszqoq.tif,157,1.5,0,0.733333333333333,19067.3163925,19072.256306875,4,NaN,19072.261683833,19072.280092208,19073.006762541,NaN,NaN
102,14,2,familiarity,0,bathroom,sun_apeeialkgkuxddgh.tif,152,1.5,0,1.06666666666667,19073.010991708,19076.152906166,7,NaN,19076.161702333,19076.180808208,19077.240844875,NaN,NaN
102,15,2,familiarity,0,bathroom,sun_agyqfjcfkdcydepw.tif,135,1.5,0,1.33333333333333,19077.249813791,19079.839902583,1,NaN,19079.845749416,19079.864067208,19081.190777291,NaN,NaN
102,16,2,familiarity,0,bathroom,sun_aleqenyvunhactkl.tif,142,1.5,0,1.41666666666667,19081.214826333,19084.983647666,2,NaN,19084.989593,19085.008044458,19086.418087291,NaN,NaN
102,17,2,familiarity,0,bathroom,sun_aapitsgbtktqubfy.tif,122,1.5,0,1.95,19086.438088208,19089.800052791,6,NaN,19089.805604625,19089.824119875,19091.767496416,NaN,NaN
102,18,2,familiarity,0,bathroom,sun_ambriybtogmepttm.tif,146,1.5,0,0.866666666666667,19091.785682083,19094.927398041,1,NaN,19094.934979375,19094.953149958,19095.813154208,NaN,NaN
102,19,2,familiarity,0,bathroom,sun_apkruvsevgegsdwp.tif,154,1.5,0,0.983333333333333,19095.817687833,19098.741428916,3,NaN,19098.7677325,19098.788786,19099.765456833,NaN,NaN
102,20,2,familiarity,0,bathroom,sun_awnqiikzaispgmwo.tif,166,1.5,0,0.983333333333333,19099.770347125,19102.740341541,4,NaN,19102.766874291,19102.787641791,19103.764313375,NaN,NaN
102,21,2,familiarity,0,bathroom,sun_abjtwfukuwddzted.tif,125,1.5,0,0.766666666666667,19103.768953291,19107.607839458,3,NaN,19107.613544458,19107.632025208,19108.392029083,NaN,NaN
102,22,2,familiarity,0,bathroom,sun_acduarbnmmoglmiv.tif,126,1.5,0,0.833333333333333,19108.396249166,19113.064034625,4,NaN,19113.0695625,19113.087968791,19113.914639416,NaN,NaN
102,23,2,familiarity,0,bathroom,sun_apjevzvycyhuqghb.tif,153,1.5,0,0.833333333333333,19113.92368675,19116.966895291,6,NaN,19116.989022041,19117.009578583,19117.836249958,NaN,NaN
102,24,2,familiarity,0,bathroom,sun_aofnryafpsjimzsb.tif,150,1.5,0,0.716666666666667,19117.842091541,19123.103871875,4,NaN,19123.110089583,19123.128604041,19123.838609166,NaN,NaN
102,25,2,familiarity,0,bathroom,sun_aoybiabnpadelefl.tif,151,1.5,0,1.71666666666667,19123.843288333,19129.343960458,2,NaN,19129.349364375,19129.367774541,19131.077814583,NaN,NaN
