sub_num,trial,block,task,is_practice,category,image,texture,duration,mask_dur,jitter,stim_time,time_of_resp,trial_response,mask_time,fix_time,jit_onset,trial_end,trial_accuracy,RT
114,1,0,typicality,1,bathroom,bathroom_practice2.tif,222,1.5,0,1.48333333333333,1288.742330917,1297.420297042,1,NaN,1297.442860333,1297.463182917,1298.940167208,NaN,NaN
114,2,0,typicality,1,bathroom,bathroom_practice4.tif,224,1.5,0,0.75,1299.009995667,1307.355863917,6,NaN,1307.366194625,1307.38526075,1308.128617083,NaN,NaN
114,3,0,typicality,1,bathroom,bathroom_practice1.tif,221,1.5,0,1.93333333333333,1308.134488208,1315.49202375,7,NaN,1315.499487625,1315.518288333,1317.44512725,NaN,NaN
114,4,0,typicality,1,bathroom,bathroom_practice5.tif,225,1.5,0,0.983333333333333,1317.473537583,1322.796039042,4,NaN,1322.803627958,1322.822346333,1323.799032167,NaN,NaN
114,5,0,typicality,1,bathroom,bathroom_practice3.tif,223,1.5,0,0.883333333333333,1323.807379917,1330.140684708,5,NaN,1330.150814167,1330.170185875,1331.046918375,NaN,NaN
114,1,1,typicality,0,bathroom,sun_aapitsgbtktqubfy.tif,122,1.5,0,0.866666666666667,1338.371810583,1343.23696525,6,NaN,1343.243448333,1343.262043875,1344.122059333,NaN,NaN
114,2,1,typicality,0,bathroom,sun_aleqenyvunhactkl.tif,142,1.5,0,1.03333333333333,1344.126756792,1349.956054208,3,NaN,1349.962133375,1349.980546958,1351.007271958,NaN,NaN
114,3,1,typicality,0,bathroom,sun_ajlawzvmubibwbpy.tif,140,1.5,0,0.866666666666667,1351.015463458,1356.540314,4,NaN,1356.546081167,1356.564350542,1357.424355125,NaN,NaN
114,4,1,typicality,0,bathroom,sun_alkosphxlxwjwgjd.tif,144,1.5,0,1.61666666666667,1357.429013042,1363.324313583,2,NaN,1363.330753542,1363.349355542,1364.95941425,NaN,NaN
114,5,1,typicality,0,bathroom,sun_anhioqovhscjqqwb.tif,148,1.5,0,0.883333333333333,1364.978268958,1370.132564083,6,NaN,1370.138636542,1370.157079625,1371.033751625,NaN,NaN
114,6,1,typicality,0,bathroom,sun_alotolagknyrgtsk.tif,145,1.5,0,0.933333333333333,1371.038310875,1375.604141958,1,NaN,1375.609952958,1375.628255208,1376.554927,NaN,NaN
114,7,1,typicality,0,bathroom,sun_aghyqhbptboemmoq.tif,133,1.5,0,1.5,1376.559378875,1381.988438375,7,NaN,1381.994429667,1382.012835458,1383.506205292,NaN,NaN
114,8,1,typicality,0,bathroom,sun_asfwthctfqerjvxr.tif,159,1.5,0,1.36666666666667,1383.522015917,1393.027718792,1,NaN,1393.034531917,1393.053065208,1394.413115167,NaN,NaN
114,9,1,typicality,0,bathroom,sun_agyqfjcfkdcydepw.tif,135,1.5,0,0.85,1394.430890667,1397.860550917,1,NaN,1397.866133458,1397.884359083,1398.727696542,NaN,NaN
114,10,1,typicality,0,bathroom,sun_apeeialkgkuxddgh.tif,152,1.5,0,1.81666666666667,1398.732256292,1402.30765275,7,NaN,1402.313793708,1402.332576958,1404.142612583,NaN,NaN
114,11,1,typicality,0,bathroom,sun_acegryoqftbzowsg.tif,127,1.5,0,1.28333333333333,1404.16182275,1408.596198792,4,NaN,1408.604832708,1408.6232935,1409.900000458,NaN,NaN
114,12,1,typicality,0,bathroom,sun_anryaplzeujmzfkd.tif,149,1.5,0,1.23333333333333,1409.919263583,1414.675543583,3,NaN,1414.681643708,1414.699966958,1415.926688667,NaN,NaN
114,13,1,typicality,0,bathroom,sun_amzlamotzwfkwjco.tif,147,1.5,0,0.883333333333333,1415.942247333,1423.787590458,3,NaN,1423.793798292,1423.812138958,1424.68881025,NaN,NaN
114,14,1,typicality,0,bathroom,sun_afcoljnjfoxjtgja.tif,130,1.5,0,0.866666666666667,1424.693445542,1430.956530333,4,NaN,1430.962248042,1430.98067175,1431.840676083,NaN,NaN
114,15,1,typicality,0,bathroom,sun_aclfzgynxzxlbepz.tif,129,1.5,0,1.36666666666667,1431.845144708,1437.827801333,6,NaN,1437.833582042,1437.851813292,1439.211866708,NaN,NaN
114,16,1,typicality,0,bathroom,sun_acduarbnmmoglmiv.tif,126,1.5,0,1.05,1439.226127667,1444.684263458,5,NaN,1444.690692792,1444.709072,1445.752440083,NaN,NaN
114,17,1,typicality,0,bathroom,sun_auzqhkafidnkrwmo.tif,164,1.5,0,1.21666666666667,1445.760861667,1454.524080958,4,NaN,1454.530844208,1454.549190333,1455.759226125,NaN,NaN
114,18,1,typicality,0,bathroom,sun_aofnryafpsjimzsb.tif,150,1.5,0,0.816666666666667,1455.769663125,1459.980327292,2,NaN,1459.98602625,1460.004330708,1460.814335583,NaN,NaN
114,19,1,typicality,0,bathroom,sun_apmqjbnwghzuhhzh.tif,156,1.5,0,1,1460.818827167,1466.01219075,3,NaN,1466.017799583,1466.036067583,1467.029406542,NaN,NaN
114,20,1,typicality,0,bathroom,sun_abjtwfukuwddzted.tif,125,1.5,0,1.21666666666667,1467.034024667,1472.419644875,5,NaN,1472.425857833,1472.444313083,1473.65437125,NaN,NaN
114,21,1,typicality,0,bathroom,sun_awnqiikzaispgmwo.tif,166,1.5,0,1.46666666666667,1473.671305708,1478.547780792,7,NaN,1478.553521917,1478.571850583,1480.031901042,NaN,NaN
114,22,1,typicality,0,bathroom,sun_aljolscmmzydegqp.tif,143,1.5,0,1.4,1480.046796583,1486.25970525,4,NaN,1486.265556917,1486.283805,1487.677184875,NaN,NaN
114,23,1,typicality,0,bathroom,sun_abapwbhyhkfixyex.tif,124,1.5,0,0.783333333333333,1487.694250333,1493.307844833,4,NaN,1493.313624875,1493.332140458,1494.108813083,NaN,NaN
114,24,1,typicality,0,bathroom,labelme_sfxiulhjbhlyiyt.tif,121,1.5,0,1.21666666666667,1494.113366917,1497.715622333,7,NaN,1497.721438417,1497.739776667,1498.94983575,NaN,NaN
114,25,1,typicality,0,bathroom,sun_axldvoqbuvuggfmq.tif,167,1.5,0,1.35,1498.968483667,1502.467290667,6,NaN,1502.47337075,1502.491748125,1503.835120125,NaN,NaN
114,1,2,typicality,0,bathroom,sun_aoybiabnpadelefl.tif,151,1.5,0,1.65,1510.068173458,1518.243441083,3,NaN,1518.249475417,1518.267730667,1519.911120333,NaN,NaN
114,2,2,typicality,0,bathroom,sun_apkruvsevgegsdwp.tif,154,1.5,0,1.01666666666667,1519.928937458,1524.444164167,7,NaN,1524.450067208,1524.468314125,1525.47835075,NaN,NaN
114,3,2,typicality,0,bathroom,sun_ahijqszoswveeyji.tif,138,1.5,0,1.58333333333333,1525.485774917,1532.715739125,4,NaN,1532.721906333,1532.740202667,1534.316929417,NaN,NaN
114,4,2,typicality,0,bathroom,sun_aunuadmjocsddsrl.tif,162,1.5,0,0.7,1534.334915333,1539.779988917,5,NaN,1539.785632792,1539.803951417,1540.49729,NaN,NaN
114,5,2,typicality,0,bathroom,sun_apkxzenqapsujocq.tif,155,1.5,0,1.23333333333333,1540.514389417,1544.587252917,7,NaN,1544.593258958,1544.611647208,1545.838353625,NaN,NaN
114,6,2,typicality,0,bathroom,sun_akiytfaagpdsphgz.tif,141,1.5,0,0.816666666666667,1545.856011917,1551.051140833,4,NaN,1551.057218208,1551.075538833,1551.885542875,NaN,NaN
114,7,2,typicality,0,bathroom,sun_agrwbmhcpmfuwmsg.tif,134,1.5,0,0.733333333333333,1551.890193833,1557.140078167,5,NaN,1557.146310375,1557.165221708,1557.891894417,NaN,NaN
114,8,2,typicality,0,bathroom,sun_agguqiubmwhqqunb.tif,132,1.5,0,1.15,1557.897388458,1563.444004875,4,NaN,1563.44955975,1563.467850292,1564.611249583,NaN,NaN
114,9,2,typicality,0,bathroom,sun_axyrejkiiaqiurjk.tif,169,1.5,0,0.933333333333333,1564.61999675,1568.747265125,2,NaN,1568.753046875,1568.771429792,1569.698102375,NaN,NaN
114,10,2,typicality,0,bathroom,sun_aavhrsfjbserjtht.tif,123,1.5,0,0.916666666666667,1569.702609583,1575.091959917,4,NaN,1575.09777,1575.11602725,1576.026032167,NaN,NaN
114,11,2,typicality,0,bathroom,sun_avhrdrntsqrjzccq.tif,165,1.5,0,1.26666666666667,1576.030595917,1579.67595925,1,NaN,1579.681685167,1579.699797,1580.95985625,NaN,NaN
114,12,2,typicality,0,bathroom,sun_aqrpegblszgcoujh.tif,158,1.5,0,0.933333333333333,1580.977573583,1590.828184708,4,NaN,1590.834142125,1590.852490208,1591.779161417,NaN,NaN
114,13,2,typicality,0,bathroom,sun_ambriybtogmepttm.tif,146,1.5,0,1,1591.783897458,1595.507666958,2,NaN,1595.513403833,1595.531792625,1596.525130542,NaN,NaN
114,14,2,typicality,0,bathroom,sun_acgyywnybuveqsro.tif,128,1.5,0,1,1596.529771417,1600.219923292,5,NaN,1600.225490042,1600.243765083,1601.237102792,NaN,NaN
114,15,2,typicality,0,bathroom,sun_aggnnqpdorgxpvce.tif,131,1.5,0,1.21666666666667,1601.241696958,1606.723351458,2,NaN,1606.729126542,1606.747358958,1607.957403667,NaN,NaN
114,16,2,typicality,0,bathroom,sun_apjevzvycyhuqghb.tif,153,1.5,0,1.85,1607.9724805,1611.611654167,4,NaN,1611.617321792,1611.635688125,1613.479069292,NaN,NaN
114,17,2,typicality,0,bathroom,sun_aspsyogrekjtfozg.tif,160,1.5,0,0.766666666666667,1613.4985245,1617.907949042,1,NaN,1617.913776417,1617.932650875,1618.692655,NaN,NaN
114,18,2,typicality,0,bathroom,sun_axxbkopsgyouuebh.tif,168,1.5,0,0.966666666666667,1618.697190292,1623.546842792,5,NaN,1623.55293,1623.571254042,1624.531262042,NaN,NaN
114,19,2,typicality,0,bathroom,sun_ahaulkltgpkeeemi.tif,136,1.5,0,1.4,1624.536635583,1628.523774292,7,NaN,1628.529607375,1628.5478825,1629.941268042,NaN,NaN
114,20,2,typicality,0,bathroom,sun_apynckhmoftszqoq.tif,157,1.5,0,0.933333333333333,1629.958194917,1634.203879708,5,NaN,1634.2094595,1634.227835042,1635.154506708,NaN,NaN
114,21,2,typicality,0,bathroom,sun_ahqjwnzgolcaoidx.tif,139,1.5,0,1.7,1635.159140708,1639.443220333,7,NaN,1639.4491115,1639.467440125,1641.16082825,NaN,NaN
114,22,2,typicality,0,bathroom,sun_ahcvzmoyaycdoftf.tif,137,1.5,0,0.916666666666667,1641.179174,1644.963643792,6,NaN,1644.970007833,1644.988282625,1645.898288708,NaN,NaN
114,23,2,typicality,0,bathroom,sun_ausgutylgojavyoq.tif,163,1.5,0,0.833333333333333,1645.902840125,1650.843555708,3,NaN,1650.849184375,1650.867471667,1651.694143292,NaN,NaN
114,24,2,typicality,0,bathroom,sun_azqyogdvyhahyram.tif,170,1.5,0,0.783333333333333,1651.699180875,1657.451352708,7,NaN,1657.456954708,1657.475275708,1658.251948958,NaN,NaN
114,25,2,typicality,0,bathroom,sun_atstyziqcmkahyxk.tif,161,1.5,0,1.4,1658.256266917,1661.042610875,7,NaN,1661.067130333,1661.090039208,1662.483426125,NaN,NaN
