sub_num,trial,block,task,is_practice,category,image,texture,duration,mask_dur,jitter,stim_time,time_of_resp,trial_response,mask_time,fix_time,jit_onset,trial_end,trial_accuracy,RT
120,1,0,typicality,1,bathroom,bathroom_practice2.tif,222,1.5,0,1.48333333333333,1492568.0774543,1492569.8504285,50,NaN,1492569.5863669,1492569.8645737,1492571.3463856,NaN,NaN
120,2,0,typicality,1,bathroom,bathroom_practice4.tif,224,1.5,0,0.75,1492571.3613631,1492573.2527877,52,NaN,1492572.8675093,1492573.2624591,1492574.0107973,NaN,NaN
120,3,0,typicality,1,bathroom,bathroom_practice1.tif,221,1.5,0,1.93333333333333,1492574.021253,1492575.5317812,54,NaN,1492575.5314504,1492575.5574365,1492577.4891125,NaN,NaN
120,4,0,typicality,1,bathroom,bathroom_practice5.tif,225,1.5,0,0.983333333333333,1492577.4984831,1492579.4371633,52,NaN,1492579.0041934,1492579.4463595,1492580.4280346,NaN,NaN
120,5,0,typicality,1,bathroom,bathroom_practice3.tif,223,1.5,0,0.883333333333333,1492580.4390063,1492582.1850404,51,NaN,1492581.9435617,1492582.1943315,1492583.0760172,NaN,NaN
120,1,1,typicality,0,bathroom,sun_aapitsgbtktqubfy.tif,122,1.5,0,0.866666666666667,1492587.2453431,1492588.7703732,54,NaN,1492588.7502459,1492588.7794948,1492589.6445514,NaN,NaN
120,2,1,typicality,0,bathroom,sun_aleqenyvunhactkl.tif,142,1.5,0,1.03333333333333,1492589.653635,1492591.5842923,53,NaN,1492591.1588496,1492591.5928083,1492592.6244793,NaN,NaN
120,3,1,typicality,0,bathroom,sun_ajlawzvmubibwbpy.tif,140,1.5,0,0.866666666666667,1492592.6335221,1492594.683186,52,NaN,1492594.1385045,1492594.6917184,1492595.5567239,NaN,NaN
120,4,1,typicality,0,bathroom,sun_alkosphxlxwjwgjd.tif,144,1.5,0,1.61666666666667,1492595.5654798,1492597.4762554,53,NaN,1492597.0705448,1492597.4848451,1492599.0998519,NaN,NaN
120,5,1,typicality,0,bathroom,sun_anhioqovhscjqqwb.tif,148,1.5,0,0.883333333333333,1492599.1089413,1492601.3357216,50,NaN,1492600.6143378,1492601.344371,1492602.2260451,NaN,NaN
120,6,1,typicality,0,bathroom,sun_alotolagknyrgtsk.tif,145,1.5,0,0.933333333333333,1492602.2349929,1492604.093105,49,NaN,1492603.7403648,1492604.1014833,1492605.0331581,NaN,NaN
120,7,1,typicality,0,bathroom,sun_aghyqhbptboemmoq.tif,133,1.5,0,1.5,1492605.0418812,1492607.0765252,53,NaN,1492606.5469382,1492607.0851506,1492608.5834904,NaN,NaN
120,8,1,typicality,0,bathroom,sun_asfwthctfqerjvxr.tif,159,1.5,0,1.36666666666667,1492608.5923112,1492610.8574165,50,NaN,1492610.0971981,1492610.8659618,1492612.230968,NaN,NaN
120,9,1,typicality,0,bathroom,sun_agyqfjcfkdcydepw.tif,135,1.5,0,0.85,1492612.2400232,1492614.5623824,51,NaN,1492613.7450417,1492614.5706306,1492615.4189699,NaN,NaN
120,10,1,typicality,0,bathroom,sun_apeeialkgkuxddgh.tif,152,1.5,0,1.81666666666667,1492615.4281414,1492617.2434833,53,NaN,1492616.933191,1492617.2523753,1492619.0673838,NaN,NaN
120,11,1,typicality,0,bathroom,sun_acegryoqftbzowsg.tif,127,1.5,0,1.28333333333333,1492619.0762673,1492621.268323,53,NaN,1492620.5820097,1492621.2767112,1492622.5583834,NaN,NaN
120,12,1,typicality,0,bathroom,sun_anryaplzeujmzfkd.tif,149,1.5,0,1.23333333333333,1492622.5694966,1492624.454207,50,NaN,1492624.0750238,1492624.4625521,1492625.6942276,NaN,NaN
120,13,1,typicality,0,bathroom,sun_amzlamotzwfkwjco.tif,147,1.5,0,0.883333333333333,1492625.7030244,1492628.0090582,51,NaN,1492627.2075444,1492628.0177869,1492628.8994603,NaN,NaN
120,14,1,typicality,0,bathroom,sun_afcoljnjfoxjtgja.tif,130,1.5,0,0.866666666666667,1492628.908341,1492631.2288632,51,NaN,1492630.4127531,1492631.2371819,1492632.1021897,NaN,NaN
120,15,1,typicality,0,bathroom,sun_aclfzgynxzxlbepz.tif,129,1.5,0,1.36666666666667,1492632.1108755,1492633.8746957,53,NaN,1492633.6165413,1492633.8836128,1492635.24862,NaN,NaN
120,16,1,typicality,0,bathroom,sun_acduarbnmmoglmiv.tif,126,1.5,0,1.05,1492635.2574131,1492637.0553136,52,NaN,1492636.7623966,1492637.0634657,1492638.1118172,NaN,NaN
120,17,1,typicality,0,bathroom,sun_auzqhkafidnkrwmo.tif,164,1.5,0,1.21666666666667,1492638.121506,1492640.4382623,54,NaN,1492639.6265267,1492640.4468112,1492641.661816,NaN,NaN
120,18,1,typicality,0,bathroom,sun_aofnryafpsjimzsb.tif,150,1.5,0,0.816666666666667,1492641.6702909,1492643.4462197,53,NaN,1492643.1750439,1492643.4543943,1492644.2694131,NaN,NaN
120,19,1,typicality,0,bathroom,sun_apmqjbnwghzuhhzh.tif,156,1.5,0,1,1492644.2792384,1492646.0846635,54,NaN,1492645.7840977,1492646.0926914,1492647.0910294,NaN,NaN
120,20,1,typicality,0,bathroom,sun_abjtwfukuwddzted.tif,125,1.5,0,1.21666666666667,1492647.1001858,1492649.062874,53,NaN,1492648.604867,1492649.0712264,1492650.2862337,NaN,NaN
120,21,1,typicality,0,bathroom,sun_awnqiikzaispgmwo.tif,166,1.5,0,1.46666666666667,1492650.2950353,1492652.2238734,55,NaN,1492651.8002304,1492652.2324422,1492653.6974473,NaN,NaN
120,22,1,typicality,0,bathroom,sun_aljolscmmzydegqp.tif,143,1.5,0,1.4,1492653.7065301,1492655.7142027,52,NaN,1492655.2115329,1492655.7225659,1492657.1209041,NaN,NaN
120,23,1,typicality,0,bathroom,sun_abapwbhyhkfixyex.tif,124,1.5,0,0.783333333333333,1492657.1296584,1492658.7486282,53,NaN,1492658.6347666,1492658.7573464,1492659.5390202,NaN,NaN
120,24,1,typicality,0,bathroom,labelme_sfxiulhjbhlyiyt.tif,121,1.5,0,1.21666666666667,1492659.5480187,1492661.9487354,54,NaN,1492661.0539456,1492661.9570568,1492663.1720641,NaN,NaN
120,25,1,typicality,0,bathroom,sun_axldvoqbuvuggfmq.tif,167,1.5,0,1.35,1492663.1810175,1492665.3446506,54,NaN,1492664.6856064,1492665.3535843,1492666.701924,NaN,NaN
120,1,2,typicality,0,bathroom,sun_aoybiabnpadelefl.tif,151,1.5,0,1.65,1492670.6002412,1492673.7896086,51,NaN,1492672.1051128,1492673.7978382,1492675.44618,NaN,NaN
120,2,2,typicality,0,bathroom,sun_apkruvsevgegsdwp.tif,154,1.5,0,1.01666666666667,1492675.4549925,1492677.1497496,55,NaN,1492676.9591343,1492677.158388,1492678.1733934,NaN,NaN
120,3,2,typicality,0,bathroom,sun_ahijqszoswveeyji.tif,138,1.5,0,1.58333333333333,1492678.1821268,1492680.2747868,53,NaN,1492679.6875986,1492680.2832188,1492681.8648916,NaN,NaN
120,4,2,typicality,0,bathroom,sun_aunuadmjocsddsrl.tif,162,1.5,0,0.7,1492681.8733841,1492683.657731,52,NaN,1492683.3785177,1492683.6665232,1492684.3648645,NaN,NaN
120,5,2,typicality,0,bathroom,sun_apkxzenqapsujocq.tif,155,1.5,0,1.23333333333333,1492684.3739501,1492686.2462241,51,NaN,1492685.8793258,1492686.2544102,1492687.4861057,NaN,NaN
120,6,2,typicality,0,bathroom,sun_akiytfaagpdsphgz.tif,141,1.5,0,0.816666666666667,1492687.4952649,1492689.6585476,54,NaN,1492688.9996707,1492689.6669965,1492690.4820054,NaN,NaN
120,7,2,typicality,0,bathroom,sun_agrwbmhcpmfuwmsg.tif,134,1.5,0,0.733333333333333,1492690.4908305,1492692.8367741,53,NaN,1492691.9959148,1492692.8457794,1492693.5774523,NaN,NaN
120,8,2,typicality,0,bathroom,sun_agguqiubmwhqqunb.tif,132,1.5,0,1.15,1492693.586197,1492695.8763474,52,NaN,1492695.0911813,1492695.8852685,1492697.0336066,NaN,NaN
120,9,2,typicality,0,bathroom,sun_axyrejkiiaqiurjk.tif,169,1.5,0,0.933333333333333,1492697.0425117,1492699.6284541,51,NaN,1492698.54639,1492699.6384658,1492700.5701422,NaN,NaN
120,10,2,typicality,0,bathroom,sun_aavhrsfjbserjtht.tif,123,1.5,0,0.916666666666667,1492700.578796,1492702.6571319,52,NaN,1492702.0837875,1492702.6653812,1492703.5803867,NaN,NaN
120,11,2,typicality,0,bathroom,sun_avhrdrntsqrjzccq.tif,165,1.5,0,1.26666666666667,1492703.5894,1492705.5775407,50,NaN,1492705.0955761,1492705.5864856,1492706.8514904,NaN,NaN
120,12,2,typicality,0,bathroom,sun_aqrpegblszgcoujh.tif,158,1.5,0,0.933333333333333,1492706.8606764,1492709.6146851,52,NaN,1492708.365107,1492709.6229457,1492710.5546176,NaN,NaN
120,13,2,typicality,0,bathroom,sun_ambriybtogmepttm.tif,146,1.5,0,1,1492710.5636337,1492712.5099875,51,NaN,1492712.069718,1492712.5191364,1492713.5174779,NaN,NaN
120,14,2,typicality,0,bathroom,sun_acgyywnybuveqsro.tif,128,1.5,0,1,1492713.5259576,1492715.4963523,54,NaN,1492715.0309268,1492715.5045693,1492716.50291,NaN,NaN
120,15,2,typicality,0,bathroom,sun_aggnnqpdorgxpvce.tif,131,1.5,0,1.21666666666667,1492716.5114363,1492718.5962642,51,NaN,1492718.0173181,1492718.6053944,1492719.8203997,NaN,NaN
120,16,2,typicality,0,bathroom,sun_apjevzvycyhuqghb.tif,153,1.5,0,1.85,1492719.8292928,1492721.7041404,51,NaN,1492721.3338579,1492721.7119771,1492723.5603172,NaN,NaN
120,17,2,typicality,0,bathroom,sun_aspsyogrekjtfozg.tif,160,1.5,0,0.766666666666667,1492723.5692606,1492725.1694266,52,NaN,1492725.0742224,1492725.1776348,1492725.9426427,NaN,NaN
120,18,2,typicality,0,bathroom,sun_axxbkopsgyouuebh.tif,168,1.5,0,0.966666666666667,1492725.9518312,1492727.7056916,54,NaN,1492727.4571197,1492727.7143255,1492728.6793318,NaN,NaN
120,19,2,typicality,0,bathroom,sun_ahaulkltgpkeeemi.tif,136,1.5,0,1.4,1492728.6885662,1492730.5090749,54,NaN,1492730.1938503,1492730.5173773,1492731.9157386,NaN,NaN
120,20,2,typicality,0,bathroom,sun_apynckhmoftszqoq.tif,157,1.5,0,0.933333333333333,1492731.9265859,1492734.6349966,51,NaN,1492733.4321154,1492734.6431542,1492735.574826,NaN,NaN
120,21,2,typicality,0,bathroom,sun_ahqjwnzgolcaoidx.tif,139,1.5,0,1.7,1492735.5838194,1492737.5252359,53,NaN,1492737.0887244,1492737.5342618,1492739.232602,NaN,NaN
120,22,2,typicality,0,bathroom,sun_ahcvzmoyaycdoftf.tif,137,1.5,0,0.916666666666667,1492739.2422881,1492741.0440162,55,NaN,1492740.7471289,1492741.053173,1492741.9681806,NaN,NaN
120,23,2,typicality,0,bathroom,sun_ausgutylgojavyoq.tif,163,1.5,0,0.833333333333333,1492741.9770938,1492743.8191126,53,NaN,1492743.4826821,1492743.8273088,1492744.6589844,NaN,NaN
120,24,2,typicality,0,bathroom,sun_azqyogdvyhahyram.tif,170,1.5,0,0.783333333333333,1492744.6680554,1492746.4265514,53,NaN,1492746.1728956,1492746.4353697,1492747.2170414,NaN,NaN
120,25,2,typicality,0,bathroom,sun_atstyziqcmkahyxk.tif,161,1.5,0,1.4,1492747.2258224,1492749.0222236,52,NaN,1492748.730547,1492749.0310689,1492750.4294103,NaN,NaN
