sub_num,trial,block,task,is_practice,category,image,texture,duration,mask_dur,jitter,stim_time,time_of_resp,trial_response,mask_time,fix_time,jit_onset,trial_end,trial_accuracy,RT
120,6,0,typicality,1,kitchen,kitchen_practice2.tif,227,1.5,0,0.966666666666667,1490272.5610903,1490276.8038196,54,NaN,1490274.0684422,1490276.8154489,1490277.7806051,NaN,NaN
120,7,0,typicality,1,kitchen,kitchen_practice5.tif,230,1.5,0,1.58333333333333,1490277.792266,1490279.9790206,54,NaN,1490279.2968975,1490279.9864011,1490281.5680757,NaN,NaN
120,8,0,typicality,1,kitchen,kitchen_practice1.tif,226,1.5,0,1.03333333333333,1490281.5772749,1490283.3251202,51,NaN,1490283.0858384,1490283.3326655,1490284.3643408,NaN,NaN
120,9,0,typicality,1,kitchen,kitchen_practice4.tif,229,1.5,0,1.68333333333333,1490284.371971,1490286.707852,52,NaN,1490285.8755712,1490286.7146344,1490288.3963404,NaN,NaN
120,10,0,typicality,1,kitchen,kitchen_practice3.tif,228,1.5,0,1.45,1490288.405803,1490290.4126329,54,NaN,1490289.909558,1490290.4190525,1490291.8673911,NaN,NaN
120,1,1,typicality,0,kitchen,sun_agubuxuukhzyzpdp.tif,198,1.5,0,0.733333333333333,1490295.7551886,1490298.0727631,54,NaN,1490297.2585616,1490298.0793158,1490298.8110473,NaN,NaN
120,2,1,typicality,0,kitchen,sun_ahpczsiumwwocjkv.tif,202,1.5,0,1.18333333333333,1490298.8195351,1490300.6596471,52,NaN,1490300.3224374,1490300.6652451,1490301.8469173,NaN,NaN
120,3,1,typicality,0,kitchen,sun_aapllqyqlykszopd.tif,176,1.5,0,0.7,1490301.8535881,1490303.9845878,50,NaN,1490303.3568995,1490303.990955,1490304.6892942,NaN,NaN
120,4,1,typicality,0,kitchen,sun_aunzlwrbjumxhwdj.tif,212,1.5,0,1.2,1490304.6971448,1490306.6176184,49,NaN,1490306.2011784,1490306.6236041,1490307.8219453,NaN,NaN
120,5,1,typicality,0,kitchen,sun_adgqasybjyktddhj.tif,188,1.5,0,0.966666666666667,1490307.8279053,1490310.1858732,52,NaN,1490309.33113,1490310.19141,1490311.1564185,NaN,NaN
120,6,1,typicality,0,kitchen,sun_aaxxjlsuzvqlgylf.tif,178,1.5,0,1.3,1490311.1629259,1490313.3345277,52,NaN,1490312.666596,1490313.3401983,1490314.6385406,NaN,NaN
120,7,1,typicality,0,kitchen,labelme_kxvouciolcpqplr.tif,172,1.5,0,1.65,1490314.6448625,1490317.0326144,51,NaN,1490316.1477713,1490317.0380784,1490318.6864191,NaN,NaN
120,8,1,typicality,0,kitchen,sun_aqeaevwwwjoqhzvl.tif,210,1.5,0,1.63333333333333,1490318.6939235,1490321.2131385,53,NaN,1490320.1972378,1490321.219208,1490322.8508836,NaN,NaN
120,9,1,typicality,0,kitchen,sun_acfmftudsenhrfhy.tif,184,1.5,0,0.9,1490322.8571702,1490325.3422852,53,NaN,1490324.3602514,1490325.3477343,1490326.246077,NaN,NaN
120,10,1,typicality,0,kitchen,sun_ayqymgxqhxxiykiw.tif,219,1.5,0,0.95,1490326.2523084,1490328.383859,54,NaN,1490327.7549107,1490328.3902651,1490329.3386065,NaN,NaN
120,11,1,typicality,0,kitchen,sun_awcpdzzznmweyyhv.tif,215,1.5,0,0.816666666666667,1490329.3447716,1490331.6691933,53,NaN,1490330.8479463,1490331.6756234,1490332.4906315,NaN,NaN
120,12,1,typicality,0,kitchen,sun_aarfiyshqohlwkmo.tif,177,1.5,0,1.96666666666667,1490332.4969977,1490334.5230514,52,NaN,1490334.0002681,1490334.5299069,1490336.4949147,NaN,NaN
120,13,1,typicality,0,kitchen,sun_aeqdocilnnpuvuhx.tif,193,1.5,0,0.783333333333333,1490336.5028375,1490338.3155883,51,NaN,1490338.005656,1490338.3224289,1490339.1041039,NaN,NaN
120,14,1,typicality,0,kitchen,sun_ahdycvpopffkzzsu.tif,200,1.5,0,0.733333333333333,1490339.1106258,1490341.0577943,51,NaN,1490340.6140682,1490341.064431,1490341.7961042,NaN,NaN
120,15,1,typicality,0,kitchen,sun_acgtpgfybqjmzeyw.tif,185,1.5,0,1.9,1490341.8024559,1490344.1603671,54,NaN,1490343.3057051,1490344.1658028,1490346.0641424,NaN,NaN
120,16,1,typicality,0,kitchen,sun_auaiucuqpdausiva.tif,211,1.5,0,0.75,1490346.0702839,1490349.3316425,50,NaN,1490347.5732954,1490349.3373874,1490350.0857295,NaN,NaN
120,17,1,typicality,0,kitchen,sun_aenotlpyftoioydp.tif,192,1.5,0,0.916666666666667,1490350.0918802,1490352.0704936,52,NaN,1490351.5951389,1490352.0767564,1490352.9917815,NaN,NaN
120,18,1,typicality,0,kitchen,sun_akchetnepxlcxhsu.tif,207,1.5,0,0.733333333333333,1490352.998253,1490355.1512091,53,NaN,1490354.5015806,1490355.1566244,1490355.8882996,NaN,NaN
120,19,1,typicality,0,kitchen,sun_acxkpeoqbwcxfvip.tif,187,1.5,0,1.81666666666667,1490355.8941854,1490358.4268495,53,NaN,1490357.3976855,1490358.4327347,1490360.2477407,NaN,NaN
120,20,1,typicality,0,kitchen,labelme_rykdqxenmhulbdn.tif,173,1.5,0,1.16666666666667,1490360.254295,1490362.1358446,51,NaN,1490361.7573307,1490362.1411127,1490363.3061416,NaN,NaN
120,21,1,typicality,0,kitchen,sun_agorklincwxrdtga.tif,197,1.5,0,1.81666666666667,1490363.3138316,1490365.2687327,52,NaN,1490364.8165782,1490365.2745762,1490367.0895827,NaN,NaN
120,22,1,typicality,0,kitchen,sun_aexklacwqwezaorf.tif,194,1.5,0,1.35,1490367.0960565,1490369.5217107,52,NaN,1490368.5993745,1490369.5273982,1490370.8757615,NaN,NaN
120,23,1,typicality,0,kitchen,sun_ahywdevtimnqcsln.tif,204,1.5,0,1.25,1490370.8822648,1490372.8693385,52,NaN,1490372.3861418,1490372.8755504,1490374.1238914,NaN,NaN
120,24,1,typicality,0,kitchen,sun_aamedkxepzlwuxes.tif,175,1.5,0,1.05,1490374.1302158,1490376.0977508,50,NaN,1490375.6333469,1490376.1042623,1490377.1526017,NaN,NaN
120,25,1,typicality,0,kitchen,sun_ajkqhtgcbgpcwrwn.tif,206,1.5,0,0.916666666666667,1490377.1587872,1490378.8489074,54,NaN,1490378.6618313,1490378.854799,1490379.7698069,NaN,NaN
120,1,2,typicality,0,kitchen,sun_axyyrmzcupyhlivc.tif,216,1.5,0,1.56666666666667,1490386.8935041,1490388.9446144,51,NaN,1490388.3965871,1490388.950065,1490390.5150731,NaN,NaN
120,2,2,typicality,0,kitchen,sun_aegoxogugdkwpmpj.tif,190,1.5,0,0.883333333333333,1490390.5232155,1490392.0264905,52,NaN,1490392.0262823,1490392.0531773,1490392.9348486,NaN,NaN
120,3,2,typicality,0,kitchen,sun_ajcbwwvdlsvjyzje.tif,205,1.5,0,0.75,1490392.9407613,1490394.6393219,53,NaN,1490394.4440104,1490394.6454415,1490395.3937817,NaN,NaN
120,4,2,typicality,0,kitchen,sun_aehawpgmrlhlvcow.tif,191,1.5,0,1.23333333333333,1490395.4001703,1490397.6674172,50,NaN,1490396.9031589,1490397.673028,1490398.9047019,NaN,NaN
120,5,2,typicality,0,kitchen,sun_acwjdupvyjsugpay.tif,186,1.5,0,0.85,1490398.9108982,1490400.9466122,52,NaN,1490400.4139555,1490400.9520177,1490401.8003594,NaN,NaN
120,6,2,typicality,0,kitchen,labelme_brsyyvweiuaazfr.tif,171,1.5,0,0.916666666666667,1490401.806802,1490403.7189651,54,NaN,1490403.3097458,1490403.7244902,1490404.6394989,NaN,NaN
120,7,2,typicality,0,kitchen,sun_akcjzhbbjlbogpdi.tif,208,1.5,0,1.75,1490404.6455237,1490407.004265,52,NaN,1490406.1491124,1490407.0101499,1490408.758503,NaN,NaN
120,8,2,typicality,0,kitchen,sun_ahljzhgcdpomplvg.tif,201,1.5,0,1.43333333333333,1490408.765394,1490411.5082251,50,NaN,1490410.2683243,1490411.5136718,1490412.9453434,NaN,NaN
120,9,2,typicality,0,kitchen,sun_abpwyqmlzafvklqo.tif,182,1.5,0,0.783333333333333,1490412.952863,1490415.7791831,53,NaN,1490414.4563037,1490415.7854994,1490416.5671716,NaN,NaN
120,10,2,typicality,0,kitchen,sun_aymvwlarqodbwuoc.tif,217,1.5,0,1.76666666666667,1490416.5733643,1490418.9752754,53,NaN,1490418.0768201,1490418.9813953,1490420.7464026,NaN,NaN
120,11,2,typicality,0,kitchen,sun_avszsnwsbuqfgzbn.tif,214,1.5,0,1.78333333333333,1490420.752586,1490422.7124353,53,NaN,1490422.2561299,1490422.7179331,1490424.4996067,NaN,NaN
120,12,2,typicality,0,kitchen,sun_aypmqwcualkenuoe.tif,218,1.5,0,1.85,1490424.5056034,1490426.5616149,50,NaN,1490426.0086847,1490426.568073,1490428.4164125,NaN,NaN
120,13,2,typicality,0,kitchen,sun_ahspylgoovwmwvgk.tif,203,1.5,0,1.18333333333333,1490428.4227046,1490430.5402893,55,NaN,1490429.9252642,1490430.5465763,1490431.7282499,NaN,NaN
120,14,2,typicality,0,kitchen,sun_aggjlwcdjsjcaemh.tif,196,1.5,0,1.01666666666667,1490431.7345474,1490434.1506777,53,NaN,1490433.2376453,1490434.1560453,1490435.1710544,NaN,NaN
120,15,2,typicality,0,kitchen,sun_auticobqsbwgoppi.tif,213,1.5,0,1.65,1490435.1775364,1490436.9684554,52,NaN,1490436.6813685,1490436.9741645,1490438.6225285,NaN,NaN
120,16,2,typicality,0,kitchen,sun_abrcnpqqhmjwekyf.tif,183,1.5,0,1.83333333333333,1490438.6292596,1490440.5492824,54,NaN,1490440.1324032,1490440.5555026,1490442.3871746,NaN,NaN
120,17,2,typicality,0,kitchen,sun_agzzivivdpnawacl.tif,199,1.5,0,1.58333333333333,1490442.3952092,1490444.8332146,53,NaN,1490443.8991956,1490444.8391746,1490446.4208462,NaN,NaN
120,18,2,typicality,0,kitchen,sun_abftihopvusyfakt.tif,181,1.5,0,1.85,1490446.4271837,1490448.5663427,51,NaN,1490447.9304438,1490448.5718733,1490450.4202144,NaN,NaN
120,19,2,typicality,0,kitchen,sun_afuyedyxivkhecmu.tif,195,1.5,0,0.766666666666667,1490450.4262539,1490452.4955202,50,NaN,1490451.9293126,1490452.5008839,1490453.2658897,NaN,NaN
120,20,2,typicality,0,kitchen,sun_aadbddgrdsjugojn.tif,174,1.5,0,0.716666666666667,1490453.2731149,1490455.6472609,49,NaN,1490454.7760918,1490455.6526759,1490456.3676828,NaN,NaN
120,21,2,typicality,0,kitchen,sun_azmutvzbxypaceni.tif,220,1.5,0,1.38333333333333,1490456.3742691,1490458.5217123,54,NaN,1490457.8772026,1490458.5282265,1490459.9099097,NaN,NaN
120,22,2,typicality,0,kitchen,sun_abdxkyyxwfskuaqb.tif,180,1.5,0,0.866666666666667,1490459.9177332,1490462.1047055,50,NaN,1490461.421666,1490462.1113877,1490462.9763966,NaN,NaN
120,23,2,typicality,0,kitchen,sun_amjjdeyrggfqgmom.tif,209,1.5,0,1.4,1490462.9825186,1490465.0843361,51,NaN,1490464.4855176,1490465.089945,1490466.4882829,NaN,NaN
120,24,2,typicality,0,kitchen,sun_admlmbcdswaszruo.tif,189,1.5,0,1,1490466.495059,1490468.5576239,55,NaN,1490467.99898,1490468.5631712,1490469.5615134,NaN,NaN
120,25,2,typicality,0,kitchen,sun_abdenxonkemggwsq.tif,179,1.5,0,1.28333333333333,1490469.5692781,1490471.6837791,53,NaN,1490471.0723723,1490471.6893083,1490472.9709801,NaN,NaN
