sub_num,trial,block,task,is_practice,category,image,texture,duration,mask_dur,jitter,stim_time,time_of_resp,trial_response,mask_time,fix_time,jit_onset,trial_end,trial_accuracy,RT
119,6,0,complexity,1,kitchen,kitchen_practice5.tif,230,1.5,0,1.46666666666667,10232.98766825,10239.650321667,2,NaN,10239.655874917,10239.674490958,10241.134575542,NaN,NaN
119,7,0,complexity,1,kitchen,kitchen_practice2.tif,227,1.5,0,1.31666666666667,10241.150693583,10244.905344042,5,NaN,10244.911529375,10244.92992475,10246.240013458,NaN,NaN
119,8,0,complexity,1,kitchen,kitchen_practice4.tif,229,1.5,0,1.76666666666667,10246.255594458,10249.153631667,6,NaN,10249.159537208,10249.178017458,10250.938106833,NaN,NaN
119,9,0,complexity,1,kitchen,kitchen_practice1.tif,226,1.5,0,0.816666666666667,10250.955317417,10254.002628917,6,NaN,10254.026110042,10254.047174292,10254.857183458,NaN,NaN
119,10,0,complexity,1,kitchen,kitchen_practice3.tif,228,1.5,0,0.9,10254.862244625,10257.937196,5,NaN,10257.955195792,10257.97540825,10258.868749583,NaN,NaN
119,1,1,complexity,0,kitchen,sun_avszsnwsbuqfgzbn.tif,215,1.5,0,1.15,10263.021725,10266.593633042,7,NaN,10266.599564083,10266.61807125,10267.761490542,NaN,NaN
119,2,1,complexity,0,kitchen,sun_ahpczsiumwwocjkv.tif,202,1.5,0,1.33333333333333,10267.77027325,10270.178052958,5,NaN,10270.183886083,10270.20249725,10271.529247125,NaN,NaN
119,3,1,complexity,0,kitchen,sun_aeqdocilnnpuvuhx.tif,193,1.5,0,1.75,10271.543384583,10273.985818083,6,NaN,10273.991489083,10274.00979125,10275.753205667,NaN,NaN
119,4,1,complexity,0,kitchen,sun_ahywdevtimnqcsln.tif,204,1.5,0,1.2,10275.773704042,10279.099276667,6,NaN,10279.129121833,10279.1527795,10280.346153208,NaN,NaN
119,5,1,complexity,0,kitchen,sun_aqeaevwwwjoqhzvl.tif,211,1.5,0,1.46666666666667,10280.3564575,10282.690054708,7,NaN,10282.695843542,10282.714385292,10284.174490708,NaN,NaN
119,6,1,complexity,0,kitchen,sun_aehawpgmrlhlvcow.tif,191,1.5,0,1.01666666666667,10284.191607875,10290.809269583,4,NaN,10290.815408708,10290.834102583,10291.844201542,NaN,NaN
119,7,1,complexity,0,kitchen,sun_agorklincwxrdtga.tif,197,1.5,0,1.18333333333333,10291.853092167,10294.905632167,5,NaN,10294.911442958,10294.929997125,10296.106738792,NaN,NaN
119,8,1,complexity,0,kitchen,sun_agzzivivdpnawacl.tif,199,1.5,0,1.03333333333333,10296.116571667,10299.001248708,4,NaN,10299.007263542,10299.026253,10300.052981333,NaN,NaN
119,9,1,complexity,0,kitchen,sun_acfmftudsenhrfhy.tif,184,1.5,0,1.25,10300.061919208,10302.562018042,5,NaN,10302.567772,10302.586350458,10303.829754417,NaN,NaN
119,10,1,complexity,0,kitchen,sun_aarfiyshqohlwkmo.tif,177,1.5,0,0.733333333333333,10303.846384708,10306.62589375,4,NaN,10306.631571083,10306.649950083,10307.376626917,NaN,NaN
119,11,1,complexity,0,kitchen,labelme_rykdqxenmhulbdn.tif,173,1.5,0,1.01666666666667,10307.392634292,10309.862293625,4,NaN,10309.890645958,10309.9144615,10310.924560333,NaN,NaN
119,12,1,complexity,0,kitchen,sun_aexklacwqwezaorf.tif,194,1.5,0,1.53333333333333,10310.932936625,10314.8019355,5,NaN,10314.80749675,10314.826159708,10316.352921958,NaN,NaN
119,13,1,complexity,0,kitchen,sun_aunzlwrbjumxhwdj.tif,213,1.5,0,1.33333333333333,10316.371746708,10321.721736,4,NaN,10321.728070625,10321.746596167,10323.073397083,NaN,NaN
119,14,1,complexity,0,kitchen,sun_ahljzhgcdpomplvg.tif,201,1.5,0,1.53333333333333,10323.093947042,10325.713595958,5,NaN,10325.719580083,10325.738077625,10327.264833125,NaN,NaN
119,15,1,complexity,0,kitchen,labelme_kxvouciolcpqplr.tif,172,1.5,0,1.01666666666667,10327.28000975,10330.090042667,3,NaN,10330.095640375,10330.1142275,10331.124321667,NaN,NaN
119,16,1,complexity,0,kitchen,sun_awcpdzzznmweyyhv.tif,216,1.5,0,1.23333333333333,10331.143467833,10336.713957417,5,NaN,10336.720353458,10336.73908075,10337.96585375,NaN,NaN
119,17,1,complexity,0,kitchen,sun_aaxxjlsuzvqlgylf.tif,178,1.5,0,1.18333333333333,10337.979000667,10341.217606917,5,NaN,10341.223412875,10341.241940708,10342.418696417,NaN,NaN
119,18,1,complexity,0,kitchen,sun_aamedkxepzlwuxes.tif,175,1.5,0,0.783333333333333,10342.429002917,10345.337660917,6,NaN,10345.343472375,10345.361836583,10346.138512625,NaN,NaN
119,19,1,complexity,0,kitchen,sun_ajcbwwvdlsvjyzje.tif,206,1.5,0,1.73333333333333,10346.144440583,10349.465102292,6,NaN,10349.471399583,10349.489886542,10351.21665625,NaN,NaN
119,20,1,complexity,0,kitchen,sun_azmutvzbxypaceni.tif,220,1.5,0,1.21666666666667,10351.238159833,10353.926657333,5,NaN,10353.955836375,10353.980333042,10355.1904045,NaN,NaN
119,21,1,complexity,0,kitchen,sun_acxkpeoqbwcxfvip.tif,187,1.5,0,1.26666666666667,10355.208306125,10359.489109917,5,NaN,10359.494781458,10359.513247333,10360.77332825,NaN,NaN
119,22,1,complexity,0,kitchen,sun_aggjlwcdjsjcaemh.tif,196,1.5,0,0.783333333333333,10360.790699417,10364.825711625,4,NaN,10364.831943792,10364.850897625,10365.627574125,NaN,NaN
119,23,1,complexity,0,kitchen,sun_aadbddgrdsjugojn.tif,174,1.5,0,1.48333333333333,10365.632313375,10368.618256,5,NaN,10368.648066708,10368.670192042,10370.146925042,NaN,NaN
119,24,1,complexity,0,kitchen,sun_acwjdupvyjsugpay.tif,186,1.5,0,1.36666666666667,10370.165402583,10374.673893333,3,NaN,10374.679664667,10374.698363333,10376.058422958,NaN,NaN
119,25,1,complexity,0,kitchen,sun_auticobqsbwgoppi.tif,214,1.5,0,0.983333333333333,10376.076583792,10379.145550375,4,NaN,10379.151500792,10379.169965167,10380.146638125,NaN,NaN
119,1,2,complexity,0,kitchen,sun_aixorpehvfykdynp.tif,205,1.5,0,1.26666666666667,10383.931471083,10387.081281375,3,NaN,10387.087543,10387.106111958,10388.366182125,NaN,NaN
119,2,2,complexity,0,kitchen,sun_aypmqwcualkenuoe.tif,219,1.5,0,1.11666666666667,10388.379856833,10390.73731075,6,NaN,10390.743150958,10390.7615885,10391.871650417,NaN,NaN
119,3,2,complexity,0,kitchen,sun_aymvwlarqodbwuoc.tif,218,1.5,0,1.43333333333333,10391.880157333,10394.649675792,3,NaN,10394.65538425,10394.673967458,10396.100709667,NaN,NaN
119,4,2,complexity,0,kitchen,sun_amjjdeyrggfqgmom.tif,210,1.5,0,0.8,10396.114293542,10398.905797792,1,NaN,10398.911320042,10398.929677083,10399.723021625,NaN,NaN
119,5,2,complexity,0,kitchen,sun_akcjzhbbjlbogpdi.tif,209,1.5,0,0.733333333333333,10399.727637417,10402.770022833,3,NaN,10402.795389042,10402.815570792,10403.542246625,NaN,NaN
119,6,2,complexity,0,kitchen,sun_abdxkyyxwfskuaqb.tif,180,1.5,0,1.03333333333333,10403.546991292,10406.219173458,6,NaN,10406.244440208,10406.267181083,10407.293918333,NaN,NaN
119,7,2,complexity,0,kitchen,sun_acgtpgfybqjmzeyw.tif,185,1.5,0,1.56666666666667,10407.303708875,10409.833374042,2,NaN,10409.839178708,10409.857655792,10411.417759292,NaN,NaN
119,8,2,complexity,0,kitchen,sun_ahdycvpopffkzzsu.tif,200,1.5,0,0.866666666666667,10411.433830083,10414.23300625,3,NaN,10414.23901175,10414.257650792,10415.117657875,NaN,NaN
119,9,2,complexity,0,kitchen,sun_ajkqhtgcbgpcwrwn.tif,207,1.5,0,0.716666666666667,10415.122156333,10417.59320525,6,NaN,10417.620510625,10417.64419375,10418.354201083,NaN,NaN
119,10,2,complexity,0,kitchen,sun_agubuxuukhzyzpdp.tif,198,1.5,0,1.33333333333333,10418.360877417,10421.050651167,4,NaN,10421.079270542,10421.102540833,10422.429280833,NaN,NaN
119,11,2,complexity,0,kitchen,sun_aegoxogugdkwpmpj.tif,190,1.5,0,1.01666666666667,10422.442418,10425.50542375,5,NaN,10425.511168167,10425.529584292,10426.539648042,NaN,NaN
119,12,2,complexity,0,kitchen,sun_aenotlpyftoioydp.tif,192,1.5,0,0.733333333333333,10426.550073667,10429.05788525,3,NaN,10429.0635445,10429.08199225,10429.808667708,NaN,NaN
119,13,2,complexity,0,kitchen,sun_auaiucuqpdausiva.tif,212,1.5,0,1.38333333333333,10429.813119958,10433.04108625,4,NaN,10433.04691325,10433.065345792,10434.44212625,NaN,NaN
119,14,2,complexity,0,kitchen,sun_aapllqyqlykszopd.tif,176,1.5,0,1.06666666666667,10434.45483675,10437.024972125,4,NaN,10437.031052417,10437.049640042,10438.1097075,NaN,NaN
119,15,2,complexity,0,kitchen,sun_adgqasybjyktddhj.tif,188,1.5,0,0.85,10438.118355083,10441.289418167,4,NaN,10441.295111375,10441.313870417,10442.15721275,NaN,NaN
119,16,2,complexity,0,kitchen,labelme_brsyyvweiuaazfr.tif,171,1.5,0,0.9,10442.161581167,10444.909811167,5,NaN,10444.93845025,10444.962484875,10445.855828708,NaN,NaN
119,17,2,complexity,0,kitchen,sun_admlmbcdswaszruo.tif,189,1.5,0,1.55,10445.8608755,10450.088876708,5,NaN,10450.094921875,10450.113403667,10451.656898917,NaN,NaN
119,18,2,complexity,0,kitchen,sun_abrcnpqqhmjwekyf.tif,183,1.5,0,0.7,10451.674089208,10454.017299167,4,NaN,10454.02318725,10454.041609,10454.73495325,NaN,NaN
119,19,2,complexity,0,kitchen,sun_abdenxonkemggwsq.tif,179,1.5,0,0.716666666666667,10454.741904375,10457.360093083,6,NaN,10457.38894075,10457.413130583,10458.123140917,NaN,NaN
119,20,2,complexity,0,kitchen,sun_akchetnepxlcxhsu.tif,208,1.5,0,0.85,10458.1281225,10460.5606325,4,NaN,10460.589557125,10460.613600125,10461.456941333,NaN,NaN
119,21,2,complexity,0,kitchen,sun_axyyrmzcupyhlivc.tif,217,1.5,0,1.35,10461.46179975,10464.008466917,4,NaN,10464.031550333,10464.053095833,10465.396525542,NaN,NaN
119,22,2,complexity,0,kitchen,sun_abftihopvusyfakt.tif,181,1.5,0,1.96666666666667,10465.41184775,10469.16910225,3,NaN,10469.1749435,10469.193411958,10471.15347375,NaN,NaN
119,23,2,complexity,0,kitchen,sun_afuyedyxivkhecmu.tif,195,1.5,0,0.933333333333333,10471.167161542,10473.80481525,7,NaN,10473.831459542,10473.854811125,10474.781486125,NaN,NaN
119,24,2,complexity,0,kitchen,sun_ahspylgoovwmwvgk.tif,203,1.5,0,1.33333333333333,10474.786434458,10477.321306792,1,NaN,10477.34384275,10477.3666815,10478.693428,NaN,NaN
119,25,2,complexity,0,kitchen,sun_abpwyqmlzafvklqo.tif,182,1.5,0,1.16666666666667,10478.712715708,10481.1292465,2,NaN,10481.134825625,10481.15330975,10482.313366667,NaN,NaN
