sub_num,trial,block,task,is_practice,category,image,texture,duration,mask_dur,jitter,stim_time,time_of_resp,trial_response,mask_time,fix_time,jit_onset,trial_end,trial_accuracy,RT
117,1,0,complexity,1,bathroom,bathroom_practice3.tif,223,1.5,0,1.56666666666667,2156.055889625,2160.722394916,4,NaN,2160.728084125,2160.74648875,2162.306705625,NaN,NaN
117,2,0,complexity,1,bathroom,bathroom_practice5.tif,225,1.5,0,1.1,2162.325449833,2165.322030375,5,NaN,2165.32737,2165.345957833,2166.439326875,NaN,NaN
117,3,0,complexity,1,bathroom,bathroom_practice2.tif,222,1.5,0,1.51666666666667,2166.4481515,2169.002417541,7,NaN,2169.007649916,2169.026019208,2170.536059916,NaN,NaN
117,4,0,complexity,1,bathroom,bathroom_practice4.tif,224,1.5,0,1.15,2170.555537833,2173.39387775,3,NaN,2173.399345916,2173.417772666,2174.561150958,NaN,NaN
117,5,0,complexity,1,bathroom,bathroom_practice1.tif,221,1.5,0,1.26666666666667,2174.570084916,2179.050603,3,NaN,2179.055791375,2179.074221208,2180.334261416,NaN,NaN
117,1,1,complexity,0,bathroom,sun_abapwbhyhkfixyex.tif,124,1.5,0,0.75,2185.288575166,2188.442679458,5,NaN,2188.450920083,2188.469995916,2189.213334291,NaN,NaN
117,2,1,complexity,0,bathroom,sun_akiytfaagpdsphgz.tif,141,1.5,0,1.28333333333333,2189.228788041,2192.097482958,4,NaN,2192.122810083,2192.146708666,2193.423415125,NaN,NaN
117,3,1,complexity,0,bathroom,sun_axxbkopsgyouuebh.tif,168,1.5,0,1.76666666666667,2193.442601666,2196.2024955,5,NaN,2196.207876833,2196.226372083,2197.986407791,NaN,NaN
117,4,1,complexity,0,bathroom,sun_abjtwfukuwddzted.tif,125,1.5,0,1.28333333333333,2198.002340583,2200.730467208,2,NaN,2200.754506,2200.776852375,2202.053568666,NaN,NaN
117,5,1,complexity,0,bathroom,sun_amzlamotzwfkwjco.tif,147,1.5,0,1.8,2202.071573708,2205.706222916,2,NaN,2205.711508333,2205.730858,2207.524251291,NaN,NaN
117,6,1,complexity,0,bathroom,sun_aofnryafpsjimzsb.tif,150,1.5,0,0.716666666666667,2207.5424645,2212.721482,6,NaN,2212.727167666,2212.745796083,2213.455801583,NaN,NaN
117,7,1,complexity,0,bathroom,sun_asfwthctfqerjvxr.tif,159,1.5,0,1,2213.460100083,2217.113967291,6,NaN,2217.119202833,2217.137736291,2218.1310735,NaN,NaN
117,8,1,complexity,0,bathroom,sun_apjevzvycyhuqghb.tif,153,1.5,0,1.21666666666667,2218.135763083,2221.12559425,5,NaN,2221.153308791,2221.17657725,2222.386610416,NaN,NaN
117,9,1,complexity,0,bathroom,sun_aapitsgbtktqubfy.tif,122,1.5,0,1.55,2222.400911,2225.209533791,3,NaN,2225.215189083,2225.233432166,2226.776815083,NaN,NaN
117,10,1,complexity,0,bathroom,sun_aclfzgynxzxlbepz.tif,129,1.5,0,2,2226.795887541,2229.441351958,2,NaN,2229.465776041,2229.4889445,2231.482326875,NaN,NaN
117,11,1,complexity,0,bathroom,sun_aqrpegblszgcoujh.tif,158,1.5,0,0.716666666666667,2231.498692791,2235.226604666,3,NaN,2235.232025833,2235.250305625,2235.960310208,NaN,NaN
117,12,1,complexity,0,bathroom,sun_awnqiikzaispgmwo.tif,166,1.5,0,0.933333333333333,2235.978538041,2238.850641625,2,NaN,2238.87868225,2238.900925416,2239.827596541,NaN,NaN
117,13,1,complexity,0,bathroom,sun_axyrejkiiaqiurjk.tif,169,1.5,0,1.58333333333333,2239.832378041,2242.503079583,4,NaN,2242.531781041,2242.554768541,2244.131471458,NaN,NaN
117,14,1,complexity,0,bathroom,sun_aspsyogrekjtfozg.tif,160,1.5,0,0.9,2244.150427791,2247.046890625,6,NaN,2247.074364083,2247.097904666,2247.991242875,NaN,NaN
117,15,1,complexity,0,bathroom,sun_anryaplzeujmzfkd.tif,149,1.5,0,1.16666666666667,2247.997114208,2251.665667125,6,NaN,2251.671178583,2251.689461125,2252.849514291,NaN,NaN
117,16,1,complexity,0,bathroom,sun_ausgutylgojavyoq.tif,163,1.5,0,0.733333333333333,2252.85760525,2255.545456708,7,NaN,2255.5509615,2255.569361083,2256.296032791,NaN,NaN
117,17,1,complexity,0,bathroom,sun_ahijqszoswveeyji.tif,138,1.5,0,1.15,2256.300229208,2259.514036291,6,NaN,2259.519957125,2259.538440666,2260.681822833,NaN,NaN
117,18,1,complexity,0,bathroom,sun_acgyywnybuveqsro.tif,128,1.5,0,1.01666666666667,2260.69248125,2263.169759916,5,NaN,2263.174984666,2263.1933025,2264.203339,NaN,NaN
117,19,1,complexity,0,bathroom,sun_aggnnqpdorgxpvce.tif,131,1.5,0,0.883333333333333,2264.211931958,2269.385640333,5,NaN,2269.391082625,2269.409509625,2270.286181208,NaN,NaN
117,20,1,complexity,0,bathroom,sun_avhrdrntsqrjzccq.tif,165,1.5,0,1.65,2270.290504291,2273.061724666,6,NaN,2273.086115041,2273.109594625,2274.75298425,NaN,NaN
117,21,1,complexity,0,bathroom,sun_aghyqhbptboemmoq.tif,133,1.5,0,0.75,2274.77195,2277.753881916,3,NaN,2277.759177041,2277.777538958,2278.52087875,NaN,NaN
117,22,1,complexity,0,bathroom,sun_acegryoqftbzowsg.tif,127,1.5,0,1.28333333333333,2278.525106666,2281.273388875,2,NaN,2281.302893416,2281.3262625,2282.602964208,NaN,NaN
117,23,1,complexity,0,bathroom,sun_ambriybtogmepttm.tif,146,1.5,0,1.25,2282.620735291,2285.745333,2,NaN,2285.750621166,2285.76903175,2287.012416875,NaN,NaN
117,24,1,complexity,0,bathroom,sun_agrwbmhcpmfuwmsg.tif,134,1.5,0,0.833333333333333,2287.03177325,2289.937482791,4,NaN,2289.942939875,2289.961445208,2290.788117791,NaN,NaN
117,25,1,complexity,0,bathroom,sun_acduarbnmmoglmiv.tif,126,1.5,0,1.05,2290.7948455,2293.386996416,6,NaN,2293.413685625,2293.436720458,2294.480095625,NaN,NaN
117,1,2,complexity,0,bathroom,sun_apkxzenqapsujocq.tif,155,1.5,0,0.95,2298.634269416,2301.440819791,4,NaN,2301.467984291,2301.489415958,2302.432754458,NaN,NaN
117,2,2,complexity,0,bathroom,sun_afcoljnjfoxjtgja.tif,130,1.5,0,1.55,2302.4375215,2304.93482475,4,NaN,2304.962598625,2304.9847935,2306.528167333,NaN,NaN
117,3,2,complexity,0,bathroom,sun_agyqfjcfkdcydepw.tif,135,1.5,0,1.2,2306.548875375,2309.329706583,5,NaN,2309.335097416,2309.353356333,2310.546736666,NaN,NaN
117,4,2,complexity,0,bathroom,sun_apkruvsevgegsdwp.tif,154,1.5,0,1.86666666666667,2310.556808541,2313.426059708,5,NaN,2313.431214666,2313.449647458,2315.30968475,NaN,NaN
117,5,2,complexity,0,bathroom,sun_alotolagknyrgtsk.tif,145,1.5,0,1.66666666666667,2315.327956791,2318.009960291,6,NaN,2318.037031708,2318.05979675,2319.719842333,NaN,NaN
117,6,2,complexity,0,bathroom,sun_axldvoqbuvuggfmq.tif,167,1.5,0,1.35,2319.738275583,2323.585527458,6,NaN,2323.59097825,2323.609341083,2324.952718583,NaN,NaN
117,7,2,complexity,0,bathroom,sun_aoybiabnpadelefl.tif,151,1.5,0,1.11666666666667,2324.966945791,2327.881781208,2,NaN,2327.887013,2327.905324166,2329.015364291,NaN,NaN
117,8,2,complexity,0,bathroom,sun_apmqjbnwghzuhhzh.tif,156,1.5,0,0.95,2329.025707166,2331.49727475,3,NaN,2331.502954791,2331.521419916,2332.46475925,NaN,NaN
117,9,2,complexity,0,bathroom,sun_aleqenyvunhactkl.tif,142,1.5,0,1.03333333333333,2332.469101125,2335.264477833,4,NaN,2335.293633,2335.316320291,2336.343027791,NaN,NaN
117,10,2,complexity,0,bathroom,sun_aunuadmjocsddsrl.tif,162,1.5,0,1.01666666666667,2336.352109125,2339.050084166,6,NaN,2339.055308916,2339.073697208,2340.083730541,NaN,NaN
117,11,2,complexity,0,bathroom,sun_agguqiubmwhqqunb.tif,132,1.5,0,1.81666666666667,2340.091253625,2343.594085708,3,NaN,2343.599320625,2343.617684625,2345.427730208,NaN,NaN
117,12,2,complexity,0,bathroom,sun_alkosphxlxwjwgjd.tif,144,1.5,0,1.8,2345.442703625,2348.050914333,5,NaN,2348.078557166,2348.101598041,2349.894988041,NaN,NaN
117,13,2,complexity,0,bathroom,sun_atstyziqcmkahyxk.tif,161,1.5,0,1.26666666666667,2349.915615541,2353.061264583,4,NaN,2353.085045125,2353.10851325,2354.368554791,NaN,NaN
117,14,2,complexity,0,bathroom,sun_azqyogdvyhahyram.tif,170,1.5,0,1.66666666666667,2354.384170458,2357.417128541,3,NaN,2357.422761875,2357.441014041,2359.101052166,NaN,NaN
117,15,2,complexity,0,bathroom,sun_aljolscmmzydegqp.tif,143,1.5,0,1.93333333333333,2359.119845833,2361.808990416,6,NaN,2361.836688583,2361.859757125,2363.786463375,NaN,NaN
117,16,2,complexity,0,bathroom,sun_ahcvzmoyaycdoftf.tif,137,1.5,0,1.75,2363.806226583,2367.353748583,4,NaN,2367.359029291,2367.377535375,2369.120939791,NaN,NaN
117,17,2,complexity,0,bathroom,sun_aavhrsfjbserjtht.tif,123,1.5,0,0.766666666666667,2369.138783083,2371.461093458,5,NaN,2371.4850295,2371.50789025,2372.267932041,NaN,NaN
117,18,2,complexity,0,bathroom,sun_ajlawzvmubibwbpy.tif,140,1.5,0,1.43333333333333,2372.283747833,2375.148879583,4,NaN,2375.1685215,2375.191885041,2376.618609791,NaN,NaN
117,19,2,complexity,0,bathroom,sun_ahqjwnzgolcaoidx.tif,139,1.5,0,0.916666666666667,2376.633912125,2380.169485833,4,NaN,2380.174751125,2380.193096625,2381.103101625,NaN,NaN
117,20,2,complexity,0,bathroom,labelme_sfxiulhjbhlyiyt.tif,121,1.5,0,0.766666666666667,2381.107368666,2383.9169595,6,NaN,2383.944900375,2383.967735125,2384.727741791,NaN,NaN
117,21,2,complexity,0,bathroom,sun_apynckhmoftszqoq.tif,157,1.5,0,0.783333333333333,2384.744358791,2387.857545458,6,NaN,2387.864139916,2387.882757583,2388.659431083,NaN,NaN
117,22,2,complexity,0,bathroom,sun_anhioqovhscjqqwb.tif,148,1.5,0,1.31666666666667,2388.677693666,2391.689025666,2,NaN,2391.717042041,2391.740545541,2393.050597666,NaN,NaN
117,23,2,complexity,0,bathroom,sun_auzqhkafidnkrwmo.tif,164,1.5,0,1.1,2393.068518416,2396.137388916,4,NaN,2396.142996208,2396.1615395,2397.254923708,NaN,NaN
117,24,2,complexity,0,bathroom,sun_ahaulkltgpkeeemi.tif,136,1.5,0,1.26666666666667,2397.262775416,2401.12920325,2,NaN,2401.134607291,2401.152941125,2402.412995625,NaN,NaN
117,25,2,complexity,0,bathroom,sun_apeeialkgkuxddgh.tif,152,1.5,0,0.933333333333333,2402.430632166,2406.137636875,5,NaN,2406.142812333,2406.161140583,2407.087812083,NaN,NaN
