sub_num,trial,block,task,is_practice,category,image,texture,duration,mask_dur,jitter,stim_time,time_of_resp,trial_response,mask_time,fix_time,jit_onset,trial_end,trial_accuracy,RT
111,1,0,complexity,1,bathroom,bathroom_practice3.tif,223,1.5,0,1.56666666666667,1580.524673208,1583.879985958,5,NaN,1583.885614041,1583.9040045,1585.464177666,NaN,NaN
111,2,0,complexity,1,bathroom,bathroom_practice5.tif,225,1.5,0,1.1,1585.481247,1588.902881,6,NaN,1588.908386416,1588.926738583,1590.020125083,NaN,NaN
111,3,0,complexity,1,bathroom,bathroom_practice2.tif,222,1.5,0,1.51666666666667,1590.028244333,1592.390921833,7,NaN,1592.39680275,1592.41512525,1593.925167,NaN,NaN
111,4,0,complexity,1,bathroom,bathroom_practice4.tif,224,1.5,0,1.15,1593.940348583,1597.087866541,2,NaN,1597.093273041,1597.111596541,1598.254966625,NaN,NaN
111,5,0,complexity,1,bathroom,bathroom_practice1.tif,221,1.5,0,1.26666666666667,1598.2654545,1601.287243875,1,NaN,1601.292740666,1601.311110916,1602.57114825,NaN,NaN
111,1,1,complexity,0,bathroom,sun_abapwbhyhkfixyex.tif,124,1.5,0,0.75,1607.089654291,1610.027535541,4,NaN,1610.056110916,1610.077305083,1610.82064275,NaN,NaN
111,2,1,complexity,0,bathroom,sun_akiytfaagpdsphgz.tif,141,1.5,0,1.28333333333333,1610.825283208,1613.646555041,5,NaN,1613.67265275,1613.695523541,1614.972243958,NaN,NaN
111,3,1,complexity,0,bathroom,sun_axxbkopsgyouuebh.tif,168,1.5,0,1.76666666666667,1614.989458166,1617.735335791,3,NaN,1617.740716458,1617.759072916,1619.519119791,NaN,NaN
111,4,1,complexity,0,bathroom,sun_abjtwfukuwddzted.tif,125,1.5,0,1.28333333333333,1619.536354083,1622.706680375,4,NaN,1622.735438833,1622.758542916,1624.035244333,NaN,NaN
111,5,1,complexity,0,bathroom,sun_amzlamotzwfkwjco.tif,147,1.5,0,1.8,1624.05023,1627.743592291,4,NaN,1627.748969416,1627.767755666,1629.561122958,NaN,NaN
111,6,1,complexity,0,bathroom,sun_aofnryafpsjimzsb.tif,150,1.5,0,0.716666666666667,1629.578915541,1632.180289541,6,NaN,1632.204244041,1632.228127583,1632.938137666,NaN,NaN
111,7,1,complexity,0,bathroom,sun_asfwthctfqerjvxr.tif,159,1.5,0,1,1632.944014291,1635.519117875,5,NaN,1635.546831916,1635.570142541,1636.563479291,NaN,NaN
111,8,1,complexity,0,bathroom,sun_apjevzvycyhuqghb.tif,153,1.5,0,1.21666666666667,1636.567836708,1639.416128041,6,NaN,1639.44412175,1639.465983958,1640.676018458,NaN,NaN
111,9,1,complexity,0,bathroom,sun_aapitsgbtktqubfy.tif,122,1.5,0,1.55,1640.685790208,1643.255573166,3,NaN,1643.261004208,1643.279454833,1644.822834958,NaN,NaN
111,10,1,complexity,0,bathroom,sun_aclfzgynxzxlbepz.tif,129,1.5,0,2,1644.838301083,1647.886952,4,NaN,1647.89236675,1647.910692041,1649.904059708,NaN,NaN
111,11,1,complexity,0,bathroom,sun_aqrpegblszgcoujh.tif,158,1.5,0,0.716666666666667,1649.921275791,1652.60963675,4,NaN,1652.634120875,1652.655480791,1653.365483875,NaN,NaN
111,12,1,complexity,0,bathroom,sun_awnqiikzaispgmwo.tif,166,1.5,0,0.933333333333333,1653.38244275,1656.376767708,3,NaN,1656.4062825,1656.429558333,1657.356229708,NaN,NaN
111,13,1,complexity,0,bathroom,sun_axyrejkiiaqiurjk.tif,169,1.5,0,1.58333333333333,1657.360910958,1660.239996416,5,NaN,1660.268175458,1660.289945916,1661.866651041,NaN,NaN
111,14,1,complexity,0,bathroom,sun_aspsyogrekjtfozg.tif,160,1.5,0,0.9,1661.881377958,1664.847270333,6,NaN,1664.876105041,1664.898999583,1665.792337083,NaN,NaN
111,15,1,complexity,0,bathroom,sun_anryaplzeujmzfkd.tif,149,1.5,0,1.16666666666667,1665.797040791,1668.395192333,7,NaN,1668.422791541,1668.4458725,1669.605922541,NaN,NaN
111,16,1,complexity,0,bathroom,sun_ausgutylgojavyoq.tif,163,1.5,0,0.733333333333333,1669.615499583,1672.367740333,7,NaN,1672.373286,1672.391597541,1673.118268083,NaN,NaN
111,17,1,complexity,0,bathroom,sun_ahijqszoswveeyji.tif,138,1.5,0,1.15,1673.122415208,1675.620613958,6,NaN,1675.642555875,1675.666036458,1676.809414708,NaN,NaN
111,18,1,complexity,0,bathroom,sun_acgyywnybuveqsro.tif,128,1.5,0,1.01666666666667,1676.81770725,1680.047241041,3,NaN,1680.052751916,1680.071173708,1681.081205083,NaN,NaN
111,19,1,complexity,0,bathroom,sun_aggnnqpdorgxpvce.tif,131,1.5,0,0.883333333333333,1681.091001583,1683.8230065,5,NaN,1683.828500833,1683.846958791,1684.723630291,NaN,NaN
111,20,1,complexity,0,bathroom,sun_avhrdrntsqrjzccq.tif,165,1.5,0,1.65,1684.727895791,1688.4235495,3,NaN,1688.429050625,1688.447474458,1690.090853625,NaN,NaN
111,21,1,complexity,0,bathroom,sun_aghyqhbptboemmoq.tif,133,1.5,0,0.75,1690.108911708,1692.890802083,3,NaN,1692.919727291,1692.943417125,1693.686760333,NaN,NaN
111,22,1,complexity,0,bathroom,sun_acegryoqftbzowsg.tif,127,1.5,0,1.28333333333333,1693.692246791,1696.530612125,2,NaN,1696.561393958,1696.584732041,1697.861454166,NaN,NaN
111,23,1,complexity,0,bathroom,sun_ambriybtogmepttm.tif,146,1.5,0,1.25,1697.878308458,1700.918915875,5,NaN,1700.924457916,1700.942774333,1702.186141625,NaN,NaN
111,24,1,complexity,0,bathroom,sun_agrwbmhcpmfuwmsg.tif,134,1.5,0,0.833333333333333,1702.20379975,1705.262815208,5,NaN,1705.268359958,1705.286694083,1706.113365125,NaN,NaN
111,25,1,complexity,0,bathroom,sun_acduarbnmmoglmiv.tif,126,1.5,0,1.05,1706.118067875,1708.7943135,7,NaN,1708.822143541,1708.845494958,1709.8888795,NaN,NaN
111,1,2,complexity,0,bathroom,sun_apkxzenqapsujocq.tif,155,1.5,0,0.95,1717.018351541,1720.106427833,3,NaN,1720.130666625,1720.151301875,1721.094640833,NaN,NaN
111,2,2,complexity,0,bathroom,sun_afcoljnjfoxjtgja.tif,130,1.5,0,1.55,1721.100317083,1723.866506333,4,NaN,1723.895119583,1723.918405583,1725.461792458,NaN,NaN
111,3,2,complexity,0,bathroom,sun_agyqfjcfkdcydepw.tif,135,1.5,0,1.2,1725.478984958,1728.6154125,3,NaN,1728.6338,1728.654290833,1729.847678416,NaN,NaN
111,4,2,complexity,0,bathroom,sun_apkruvsevgegsdwp.tif,154,1.5,0,1.86666666666667,1729.863720333,1732.622685458,5,NaN,1732.628280333,1732.646616875,1734.506669583,NaN,NaN
111,5,2,complexity,0,bathroom,sun_alotolagknyrgtsk.tif,145,1.5,0,1.66666666666667,1734.525435,1737.122685125,6,NaN,1737.148294958,1737.1719195,1738.831969458,NaN,NaN
111,6,2,complexity,0,bathroom,sun_axldvoqbuvuggfmq.tif,167,1.5,0,1.35,1738.843771583,1742.010390916,5,NaN,1742.038921791,1742.061771458,1743.405159583,NaN,NaN
111,7,2,complexity,0,bathroom,sun_aoybiabnpadelefl.tif,151,1.5,0,1.11666666666667,1743.423177208,1745.966435791,1,NaN,1745.972205375,1745.990504833,1747.100552583,NaN,NaN
111,8,2,complexity,0,bathroom,sun_apmqjbnwghzuhhzh.tif,156,1.5,0,0.95,1747.110165708,1749.703101416,3,NaN,1749.70853,1749.726890333,1750.670228833,NaN,NaN
111,9,2,complexity,0,bathroom,sun_aleqenyvunhactkl.tif,142,1.5,0,1.03333333333333,1750.675220416,1756.3511305,6,NaN,1756.356673291,1756.375069541,1757.401789625,NaN,NaN
111,10,2,complexity,0,bathroom,sun_aunuadmjocsddsrl.tif,162,1.5,0,1.01666666666667,1757.416172166,1760.326468,7,NaN,1760.332250916,1760.350704333,1761.360752291,NaN,NaN
111,11,2,complexity,0,bathroom,sun_agguqiubmwhqqunb.tif,132,1.5,0,1.81666666666667,1761.367996166,1764.327283,5,NaN,1764.332700583,1764.350980291,1766.161017541,NaN,NaN
111,12,2,complexity,0,bathroom,sun_alkosphxlxwjwgjd.tif,144,1.5,0,1.8,1766.17826525,1769.638391208,6,NaN,1769.644796625,1769.663049791,1771.456437875,NaN,NaN
111,13,2,complexity,0,bathroom,sun_atstyziqcmkahyxk.tif,161,1.5,0,1.26666666666667,1771.474726,1774.825165375,3,NaN,1774.836642583,1774.855869125,1776.115915833,NaN,NaN
111,14,2,complexity,0,bathroom,sun_azqyogdvyhahyram.tif,170,1.5,0,1.66666666666667,1776.1330095,1778.89514775,3,NaN,1778.900591583,1778.918792708,1780.578827625,NaN,NaN
111,15,2,complexity,0,bathroom,sun_aljolscmmzydegqp.tif,143,1.5,0,1.93333333333333,1780.593346541,1783.368633625,6,NaN,1783.395251333,1783.418838,1785.345553791,NaN,NaN
111,16,2,complexity,0,bathroom,sun_ahcvzmoyaycdoftf.tif,137,1.5,0,1.75,1785.365112125,1788.083283458,5,NaN,1788.111491666,1788.134696583,1789.878067166,NaN,NaN
111,17,2,complexity,0,bathroom,sun_aavhrsfjbserjtht.tif,123,1.5,0,0.766666666666667,1789.896939583,1793.798545333,7,NaN,1793.804093458,1793.822488333,1794.582492458,NaN,NaN
111,18,2,complexity,0,bathroom,sun_ajlawzvmubibwbpy.tif,140,1.5,0,1.43333333333333,1794.586729833,1797.758144166,5,NaN,1797.765761041,1797.784246208,1799.21094975,NaN,NaN
111,19,2,complexity,0,bathroom,sun_ahqjwnzgolcaoidx.tif,139,1.5,0,0.916666666666667,1799.227706625,1801.863058375,6,NaN,1801.868385583,1801.886562416,1802.796568833,NaN,NaN
111,20,2,complexity,0,bathroom,labelme_sfxiulhjbhlyiyt.tif,121,1.5,0,0.766666666666667,1802.801304875,1805.504433833,5,NaN,1805.534706791,1805.558102125,1806.318106208,NaN,NaN
111,21,2,complexity,0,bathroom,sun_apynckhmoftszqoq.tif,157,1.5,0,0.783333333333333,1806.323305208,1808.94626725,4,NaN,1808.975081041,1808.998769583,1809.775441,NaN,NaN
111,22,2,complexity,0,bathroom,sun_anhioqovhscjqqwb.tif,148,1.5,0,1.31666666666667,1809.780249833,1812.378134958,4,NaN,1812.406504208,1812.429842791,1813.73988075,NaN,NaN
111,23,2,complexity,0,bathroom,sun_auzqhkafidnkrwmo.tif,164,1.5,0,1.1,1813.756699166,1816.5351965,6,NaN,1816.540650125,1816.558974916,1817.652363541,NaN,NaN
111,24,2,complexity,0,bathroom,sun_ahaulkltgpkeeemi.tif,136,1.5,0,1.26666666666667,1817.6608325,1820.646766291,6,NaN,1820.652149375,1820.670479666,1821.930513166,NaN,NaN
111,25,2,complexity,0,bathroom,sun_apeeialkgkuxddgh.tif,152,1.5,0,0.933333333333333,1821.941090416,1824.926674208,5,NaN,1824.932085958,1824.95024375,1825.876915791,NaN,NaN
