sub_num,trial,block,task,is_practice,category,image,texture,duration,mask_dur,jitter,stim_time,time_of_resp,trial_response,mask_time,fix_time,jit_onset,trial_end,trial_accuracy,RT
130,6,0,aesthetic,1,kitchen,kitchen_practice2.tif,227,1.5,0,1.08333333333333,2777.885387583,2781.607524958,5,NaN,2781.613249291,2781.63155875,2782.708291958,NaN,NaN
130,7,0,aesthetic,1,kitchen,kitchen_practice1.tif,226,1.5,0,1.06666666666667,2782.718027958,2785.958792291,3,NaN,2785.964898166,2785.983377916,2787.04345825,NaN,NaN
130,8,0,aesthetic,1,kitchen,kitchen_practice4.tif,229,1.5,0,1.11666666666667,2787.054532375,2790.199544583,5,NaN,2790.205308541,2790.223521125,2791.333598333,NaN,NaN
130,9,0,aesthetic,1,kitchen,kitchen_practice3.tif,228,1.5,0,0.95,2791.344048708,2794.510652333,4,NaN,2794.516992958,2794.535266708,2795.478607041,NaN,NaN
130,10,0,aesthetic,1,kitchen,kitchen_practice5.tif,230,1.5,0,0.9,2795.483164375,2798.7038425,6,NaN,2798.711161958,2798.72939325,2799.622734208,NaN,NaN
130,1,1,aesthetic,0,kitchen,sun_ahljzhgcdpomplvg.tif,201,1.5,0,1.48333333333333,2804.0421825,2807.783374291,3,NaN,2807.789172,2807.807501083,2809.284263416,NaN,NaN
130,2,1,aesthetic,0,kitchen,sun_afuyedyxivkhecmu.tif,195,1.5,0,1.46666666666667,2809.303110541,2812.591576083,4,NaN,2812.597269125,2812.615594416,2814.075669083,NaN,NaN
130,3,1,aesthetic,0,kitchen,sun_adgqasybjyktddhj.tif,188,1.5,0,0.766666666666667,2814.094222041,2817.111434916,4,NaN,2817.117215666,2817.135479291,2817.895487916,NaN,NaN
130,4,1,aesthetic,0,kitchen,sun_ahpczsiumwwocjkv.tif,202,1.5,0,1.16666666666667,2817.899808708,2821.207230375,6,NaN,2821.212864333,2821.231251916,2822.391349708,NaN,NaN
130,5,1,aesthetic,0,kitchen,sun_agorklincwxrdtga.tif,197,1.5,0,1.6,2822.401797041,2825.255582583,4,NaN,2825.261272083,2825.279442958,2826.872847208,NaN,NaN
130,6,1,aesthetic,0,kitchen,sun_auaiucuqpdausiva.tif,212,1.5,0,1.68333333333333,2826.892180708,2830.68770325,7,NaN,2830.693440625,2830.712601125,2832.389323916,NaN,NaN
130,7,1,aesthetic,0,kitchen,sun_aapllqyqlykszopd.tif,176,1.5,0,1.5,2832.408046541,2835.19930175,5,NaN,2835.226985375,2835.25029,2836.743707083,NaN,NaN
130,8,1,aesthetic,0,kitchen,sun_awcpdzzznmweyyhv.tif,216,1.5,0,0.833333333333333,2836.763767791,2839.806622166,4,NaN,2839.8127145,2839.831061833,2840.657736083,NaN,NaN
130,9,1,aesthetic,0,kitchen,sun_aadbddgrdsjugojn.tif,174,1.5,0,0.9,2840.662602125,2844.023535083,3,NaN,2844.029222375,2844.0474475,2844.940788458,NaN,NaN
130,10,1,aesthetic,0,kitchen,sun_aegoxogugdkwpmpj.tif,190,1.5,0,0.933333333333333,2844.946011125,2848.335071041,4,NaN,2848.340953291,2848.359304,2849.285978583,NaN,NaN
130,11,1,aesthetic,0,kitchen,sun_abrcnpqqhmjwekyf.tif,183,1.5,0,0.9,2849.290169666,2853.487289333,3,NaN,2853.493018291,2853.511336916,2854.404678333,NaN,NaN
130,12,1,aesthetic,0,kitchen,sun_avszsnwsbuqfgzbn.tif,215,1.5,0,0.85,2854.410312166,2857.702874666,2,NaN,2857.70973375,2857.728111958,2858.571454625,NaN,NaN
130,13,1,aesthetic,0,kitchen,labelme_kxvouciolcpqplr.tif,172,1.5,0,1.83333333333333,2858.576165041,2862.582995666,2,NaN,2862.588812791,2862.6072395,2864.433968708,NaN,NaN
130,14,1,aesthetic,0,kitchen,sun_agzzivivdpnawacl.tif,199,1.5,0,0.733333333333333,2864.454619125,2867.827187083,3,NaN,2867.850313583,2867.871030875,2868.597705291,NaN,NaN
130,15,1,aesthetic,0,kitchen,sun_aunzlwrbjumxhwdj.tif,213,1.5,0,1.63333333333333,2868.602279166,2871.999036,3,NaN,2872.004807208,2872.023221458,2873.649960916,NaN,NaN
130,16,1,aesthetic,0,kitchen,sun_aymvwlarqodbwuoc.tif,218,1.5,0,0.766666666666667,2873.666860958,2877.162606666,4,NaN,2877.190864916,2877.214593708,2877.974600333,NaN,NaN
130,17,1,aesthetic,0,kitchen,sun_abpwyqmlzafvklqo.tif,182,1.5,0,1.71666666666667,2877.9794185,2881.886921458,2,NaN,2881.892650208,2881.911122375,2883.621213125,NaN,NaN
130,18,1,aesthetic,0,kitchen,sun_abdxkyyxwfskuaqb.tif,180,1.5,0,1.51666666666667,2883.635777708,2886.866422083,3,NaN,2886.896355416,2886.920198666,2888.430288625,NaN,NaN
130,19,1,aesthetic,0,kitchen,sun_aaxxjlsuzvqlgylf.tif,178,1.5,0,1.25,2888.449724083,2891.518854541,5,NaN,2891.524721541,2891.543160916,2892.786587375,NaN,NaN
130,20,1,aesthetic,0,kitchen,sun_azmutvzbxypaceni.tif,220,1.5,0,1.41666666666667,2892.802578708,2895.686362333,4,NaN,2895.692527166,2895.711003625,2897.121102166,NaN,NaN
130,21,1,aesthetic,0,kitchen,sun_axyyrmzcupyhlivc.tif,217,1.5,0,1.1,2897.141657375,2900.887129208,6,NaN,2900.892878625,2900.911301291,2902.004719916,NaN,NaN
130,22,1,aesthetic,0,kitchen,sun_ajkqhtgcbgpcwrwn.tif,207,1.5,0,0.95,2902.016409458,2905.951113833,3,NaN,2905.956808333,2905.97515975,2906.918502208,NaN,NaN
130,23,1,aesthetic,0,kitchen,sun_aamedkxepzlwuxes.tif,175,1.5,0,1.45,2906.923183833,2910.239312,1,NaN,2910.245008375,2910.263104916,2911.706509083,NaN,NaN
130,24,1,aesthetic,0,kitchen,sun_akcjzhbbjlbogpdi.tif,209,1.5,0,0.883333333333333,2911.7258895,2914.670918083,1,NaN,2914.676775791,2914.695198,2915.571874,NaN,NaN
130,25,1,aesthetic,0,kitchen,sun_ahywdevtimnqcsln.tif,204,1.5,0,1.23333333333333,2915.576117,2918.512154333,3,NaN,2918.54153725,2918.565030625,2919.791771916,NaN,NaN
130,1,2,aesthetic,0,kitchen,sun_aeqdocilnnpuvuhx.tif,193,1.5,0,1.78333333333333,2924.013406583,2927.302625,5,NaN,2927.308845166,2927.327283708,2929.104016666,NaN,NaN
130,2,2,aesthetic,0,kitchen,sun_aggjlwcdjsjcaemh.tif,196,1.5,0,1.8,2929.123077333,2932.910355333,6,NaN,2932.9165565,2932.934941041,2934.7283405,NaN,NaN
130,3,2,aesthetic,0,kitchen,sun_aixorpehvfykdynp.tif,205,1.5,0,0.8,2934.748645291,2937.710873583,4,NaN,2937.740837083,2937.764654125,2938.557995625,NaN,NaN
130,4,2,aesthetic,0,kitchen,sun_acfmftudsenhrfhy.tif,184,1.5,0,1.01666666666667,2938.562781291,2942.039032583,4,NaN,2942.044803791,2942.063142625,2943.073234458,NaN,NaN
130,5,2,aesthetic,0,kitchen,sun_acxkpeoqbwcxfvip.tif,187,1.5,0,0.85,2943.084624791,2946.879146583,4,NaN,2946.885132375,2946.903471583,2947.746811875,NaN,NaN
130,6,2,aesthetic,0,kitchen,sun_admlmbcdswaszruo.tif,189,1.5,0,1.83333333333333,2947.751247541,2950.716179875,5,NaN,2950.74749625,2950.77159725,2952.598315958,NaN,NaN
130,7,2,aesthetic,0,kitchen,sun_aexklacwqwezaorf.tif,194,1.5,0,1.11666666666667,2952.618045458,2955.49912,6,NaN,2955.530902208,2955.554586916,2956.66466375,NaN,NaN
130,8,2,aesthetic,0,kitchen,sun_agubuxuukhzyzpdp.tif,198,1.5,0,1.88333333333333,2956.678231458,2960.318562166,5,NaN,2960.324640333,2960.343066916,2962.219808708,NaN,NaN
130,9,2,aesthetic,0,kitchen,sun_aypmqwcualkenuoe.tif,219,1.5,0,0.916666666666667,2962.229621041,2966.038509,3,NaN,2966.044410583,2966.062676333,2966.972684458,NaN,NaN
130,10,2,aesthetic,0,kitchen,labelme_rykdqxenmhulbdn.tif,173,1.5,0,1.05,2966.9781525,2969.957204583,4,NaN,2969.987214875,2970.010710208,2971.054094208,NaN,NaN
130,11,2,aesthetic,0,kitchen,sun_aqeaevwwwjoqhzvl.tif,211,1.5,0,1.35,2971.064042583,2976.102240416,4,NaN,2976.108968041,2976.127461208,2977.470891583,NaN,NaN
130,12,2,aesthetic,0,kitchen,sun_ahspylgoovwmwvgk.tif,203,1.5,0,1.01666666666667,2977.491188666,2980.246620833,3,NaN,2980.252370083,2980.2707875,2981.280854833,NaN,NaN
130,13,2,aesthetic,0,kitchen,sun_aehawpgmrlhlvcow.tif,191,1.5,0,2,2981.29151175,2984.510793291,4,NaN,2984.516606916,2984.5348775,2986.52830325,NaN,NaN
130,14,2,aesthetic,0,kitchen,sun_ahdycvpopffkzzsu.tif,200,1.5,0,0.9,2986.547202583,2989.750821291,2,NaN,2989.757849208,2989.776857625,2990.670196875,NaN,NaN
130,15,2,aesthetic,0,kitchen,sun_akchetnepxlcxhsu.tif,208,1.5,0,1.15,2990.67496875,2993.646360375,4,NaN,2993.673415833,2993.697538958,2994.840933125,NaN,NaN
130,16,2,aesthetic,0,kitchen,sun_abdenxonkemggwsq.tif,179,1.5,0,1.23333333333333,2994.850038208,2998.446414333,4,NaN,2998.452385791,2998.470703583,2999.697441958,NaN,NaN
130,17,2,aesthetic,0,kitchen,sun_ajcbwwvdlsvjyzje.tif,206,1.5,0,1.03333333333333,2999.714988041,3002.878759583,3,NaN,3002.884462291,3002.902773916,3003.92951225,NaN,NaN
130,18,2,aesthetic,0,kitchen,sun_acgtpgfybqjmzeyw.tif,185,1.5,0,0.783333333333333,3003.943956416,3008.663049416,4,NaN,3008.668714916,3008.687052416,3009.4637265,NaN,NaN
130,19,2,aesthetic,0,kitchen,sun_acwjdupvyjsugpay.tif,186,1.5,0,0.766666666666667,3009.476134,3012.328418291,2,NaN,3012.355521041,3012.379239625,3013.139249125,NaN,NaN
130,20,2,aesthetic,0,kitchen,sun_auticobqsbwgoppi.tif,214,1.5,0,1.18333333333333,3013.1445415,3016.067396416,3,NaN,3016.097619666,3016.121114125,3017.297856791,NaN,NaN
130,21,2,aesthetic,0,kitchen,sun_aenotlpyftoioydp.tif,192,1.5,0,0.7,3017.30888525,3020.9979985,5,NaN,3021.004185541,3021.022610375,3021.7159545,NaN,NaN
130,22,2,aesthetic,0,kitchen,labelme_brsyyvweiuaazfr.tif,171,1.5,0,0.7,3021.720387083,3024.83786825,5,NaN,3024.857717375,3024.877703666,3025.571045041,NaN,NaN
130,23,2,aesthetic,0,kitchen,sun_abftihopvusyfakt.tif,181,1.5,0,1.55,3025.575752583,3028.538819458,6,NaN,3028.565639666,3028.589673625,3030.133070083,NaN,NaN
130,24,2,aesthetic,0,kitchen,sun_aarfiyshqohlwkmo.tif,177,1.5,0,1.16666666666667,3030.151935916,3033.134187958,4,NaN,3033.140009041,3033.1584055,3034.318442083,NaN,NaN
130,25,2,aesthetic,0,kitchen,sun_amjjdeyrggfqgmom.tif,210,1.5,0,1.68333333333333,3034.328580291,3037.807058833,3,NaN,3037.81278525,3037.831119333,3039.50784425,NaN,NaN
