sub_num,trial,block,task,is_practice,category,image,texture,duration,mask_dur,jitter,stim_time,time_of_resp,trial_response,mask_time,fix_time,jit_onset,trial_end,trial_accuracy,RT
117,1,0,usability,1,bathroom,bathroom_practice3.tif,223,1.5,0,0.983333333333333,1874.340461583,1879.99535775,3,NaN,1880.00186725,1880.0207455,1880.997477416,NaN,NaN
117,2,0,usability,1,bathroom,bathroom_practice4.tif,224,1.5,0,1.78333333333333,1881.002537875,1885.554936958,5,NaN,1885.560532,1885.578908416,1887.355745125,NaN,NaN
117,3,0,usability,1,bathroom,bathroom_practice5.tif,225,1.5,0,1.78333333333333,1887.375648041,1891.322661125,3,NaN,1891.327827,1891.3462735,1893.122995125,NaN,NaN
117,4,0,usability,1,bathroom,bathroom_practice2.tif,222,1.5,0,1.26666666666667,1893.139687083,1895.67076475,1,NaN,1895.695495458,1895.718665916,1896.978791375,NaN,NaN
117,5,0,usability,1,bathroom,bathroom_practice1.tif,221,1.5,0,1.05,1896.990610708,1899.723320333,6,NaN,1899.728560625,1899.746970333,1900.790347375,NaN,NaN
117,1,1,usability,0,bathroom,sun_apynckhmoftszqoq.tif,157,1.5,0,1.01666666666667,1905.6189375,1909.099237208,3,NaN,1909.104543291,1909.122941875,1910.132990375,NaN,NaN
117,2,1,usability,0,bathroom,sun_avhrdrntsqrjzccq.tif,165,1.5,0,1.61666666666667,1910.140399291,1913.10660425,5,NaN,1913.111815875,1913.130455916,1914.740492083,NaN,NaN
117,3,1,usability,0,bathroom,sun_apkxzenqapsujocq.tif,155,1.5,0,1.16666666666667,1914.7583235,1918.3268765,3,NaN,1918.339644666,1918.358437541,1919.518492541,NaN,NaN
117,4,1,usability,0,bathroom,sun_aoybiabnpadelefl.tif,151,1.5,0,0.983333333333333,1919.530330875,1922.547370583,2,NaN,1922.55266875,1922.571033,1923.5477045,NaN,NaN
117,5,1,usability,0,bathroom,sun_aggnnqpdorgxpvce.tif,131,1.5,0,0.783333333333333,1923.552125333,1926.69918225,5,NaN,1926.704876541,1926.7232265,1927.499898333,NaN,NaN
117,6,1,usability,0,bathroom,sun_ambriybtogmepttm.tif,146,1.5,0,0.816666666666667,1927.513787166,1930.559578083,2,NaN,1930.584461833,1930.606544625,1931.416549791,NaN,NaN
117,7,1,usability,0,bathroom,sun_agrwbmhcpmfuwmsg.tif,134,1.5,0,1.1,1931.421182416,1934.43132925,6,NaN,1934.459128333,1934.482123833,1935.57550325,NaN,NaN
117,8,1,usability,0,bathroom,sun_amzlamotzwfkwjco.tif,147,1.5,0,1.65,1935.584658833,1938.338667833,2,NaN,1938.343795541,1938.362205041,1940.005589625,NaN,NaN
117,9,1,usability,0,bathroom,sun_afcoljnjfoxjtgja.tif,130,1.5,0,1.13333333333333,1940.023626666,1942.75806825,5,NaN,1942.7857715,1942.809185875,1943.93588775,NaN,NaN
117,10,1,usability,0,bathroom,sun_aofnryafpsjimzsb.tif,150,1.5,0,0.766666666666667,1943.944395875,1947.074362541,6,NaN,1947.079905458,1947.098648041,1947.858653375,NaN,NaN
117,11,1,usability,0,bathroom,sun_apeeialkgkuxddgh.tif,152,1.5,0,1.25,1947.863242666,1951.355342208,3,NaN,1951.360493916,1951.378841333,1952.622219416,NaN,NaN
117,12,1,usability,0,bathroom,sun_aavhrsfjbserjtht.tif,123,1.5,0,1.5,1952.639461958,1956.242939833,5,NaN,1956.248342375,1956.26660225,1957.759976541,NaN,NaN
117,13,1,usability,0,bathroom,labelme_sfxiulhjbhlyiyt.tif,121,1.5,0,1.56666666666667,1957.77842975,1960.898873666,3,NaN,1960.904022333,1960.922326541,1962.48238275,NaN,NaN
117,14,1,usability,0,bathroom,sun_alkosphxlxwjwgjd.tif,144,1.5,0,1.45,1962.500650125,1965.086713458,7,NaN,1965.113995375,1965.13695325,1966.580325916,NaN,NaN
117,15,1,usability,0,bathroom,sun_atstyziqcmkahyxk.tif,161,1.5,0,1.53333333333333,1966.596804,1969.211101458,5,NaN,1969.216346916,1969.234609125,1970.761329,NaN,NaN
117,16,1,usability,0,bathroom,sun_aleqenyvunhactkl.tif,142,1.5,0,0.8,1970.776064041,1974.205147708,1,NaN,1974.226935083,1974.25017475,1975.043511791,NaN,NaN
117,17,1,usability,0,bathroom,sun_ahaulkltgpkeeemi.tif,136,1.5,0,0.933333333333333,1975.048481666,1977.502586625,4,NaN,1977.525363666,1977.549255125,1978.475925458,NaN,NaN
117,18,1,usability,0,bathroom,sun_aljolscmmzydegqp.tif,143,1.5,0,1.75,1978.48203825,1981.602577333,4,NaN,1981.610128375,1981.628615541,1983.37199225,NaN,NaN
117,19,1,usability,0,bathroom,sun_ahijqszoswveeyji.tif,138,1.5,0,1.48333333333333,1983.391277375,1986.345764166,6,NaN,1986.373659583,1986.397538208,1987.874257166,NaN,NaN
117,20,1,usability,0,bathroom,sun_aclfzgynxzxlbepz.tif,129,1.5,0,1.03333333333333,1987.894305458,1991.178608708,4,NaN,1991.183956125,1991.202345375,1992.229058333,NaN,NaN
117,21,1,usability,0,bathroom,sun_alotolagknyrgtsk.tif,145,1.5,0,1.23333333333333,1992.247695458,1994.994364083,7,NaN,1995.00002175,1995.018297166,1996.245013791,NaN,NaN
117,22,1,usability,0,bathroom,sun_axxbkopsgyouuebh.tif,168,1.5,0,1.28333333333333,1996.260224916,1998.71448025,5,NaN,1998.719798125,1998.738462125,2000.015186916,NaN,NaN
117,23,1,usability,0,bathroom,sun_ahcvzmoyaycdoftf.tif,137,1.5,0,1.66666666666667,2000.034059875,2002.602565208,7,NaN,2002.607967958,2002.62645925,2004.286505625,NaN,NaN
117,24,1,usability,0,bathroom,sun_aghyqhbptboemmoq.tif,133,1.5,0,1.26666666666667,2004.30605825,2008.018390708,3,NaN,2008.0245215,2008.042926916,2009.302960833,NaN,NaN
117,25,1,usability,0,bathroom,sun_awnqiikzaispgmwo.tif,166,1.5,0,1.4,2009.320547958,2012.370459958,5,NaN,2012.37561775,2012.393858875,2013.787233125,NaN,NaN
117,1,2,usability,0,bathroom,sun_abjtwfukuwddzted.tif,125,1.5,0,1.66666666666667,2021.65632975,2026.538051625,3,NaN,2026.543490625,2026.561873708,2028.221926291,NaN,NaN
117,2,2,usability,0,bathroom,sun_aqrpegblszgcoujh.tif,158,1.5,0,1.85,2028.239443041,2031.535329083,5,NaN,2031.556495708,2031.578841791,2033.422231,NaN,NaN
117,3,2,usability,0,bathroom,sun_acgyywnybuveqsro.tif,128,1.5,0,1.65,2033.443482375,2036.474999333,5,NaN,2036.503325208,2036.527022333,2038.170409333,NaN,NaN
117,4,2,usability,0,bathroom,sun_azqyogdvyhahyram.tif,170,1.5,0,0.95,2038.185185458,2042.298412833,4,NaN,2042.30383425,2042.322451916,2043.265791791,NaN,NaN
117,5,2,usability,0,bathroom,sun_apmqjbnwghzuhhzh.tif,156,1.5,0,0.783333333333333,2043.270303041,2048.962020125,2,NaN,2048.967641125,2048.986061125,2049.762733333,NaN,NaN
117,6,2,usability,0,bathroom,sun_ajlawzvmubibwbpy.tif,140,1.5,0,1.13333333333333,2049.767035833,2053.042883958,6,NaN,2053.048085833,2053.066281333,2054.192979958,NaN,NaN
117,7,2,usability,0,bathroom,sun_akiytfaagpdsphgz.tif,141,1.5,0,1.63333333333333,2054.201369791,2057.178216625,7,NaN,2057.183662375,2057.201991291,2058.828712083,NaN,NaN
117,8,2,usability,0,bathroom,sun_acduarbnmmoglmiv.tif,126,1.5,0,1.2,2058.847198541,2063.658782458,2,NaN,2063.664403625,2063.682686541,2064.876069541,NaN,NaN
117,9,2,usability,0,bathroom,sun_ahqjwnzgolcaoidx.tif,139,1.5,0,1.71666666666667,2064.885540708,2068.554848375,4,NaN,2068.560036208,2068.578348291,2070.288388666,NaN,NaN
117,10,2,usability,0,bathroom,sun_asfwthctfqerjvxr.tif,159,1.5,0,0.9,2070.307079083,2075.194346333,6,NaN,2075.199981666,2075.218298833,2076.111637916,NaN,NaN
117,11,2,usability,0,bathroom,sun_apjevzvycyhuqghb.tif,153,1.5,0,0.9,2076.116005208,2079.442803041,6,NaN,2079.447983458,2079.466226791,2080.359564333,NaN,NaN
117,12,2,usability,0,bathroom,sun_agguqiubmwhqqunb.tif,132,1.5,0,0.766666666666667,2080.3645635,2083.091152875,7,NaN,2083.114981125,2083.137533875,2083.897538041,NaN,NaN
117,13,2,usability,0,bathroom,sun_acegryoqftbzowsg.tif,127,1.5,0,0.966666666666667,2083.9020015,2087.474644166,4,NaN,2087.479984208,2087.498382666,2088.458386583,NaN,NaN
117,14,2,usability,0,bathroom,sun_apkruvsevgegsdwp.tif,154,1.5,0,0.7,2088.462739083,2092.282910583,3,NaN,2092.288388791,2092.306885791,2093.000222791,NaN,NaN
117,15,2,usability,0,bathroom,sun_aunuadmjocsddsrl.tif,162,1.5,0,1.1,2093.004873708,2098.195972583,2,NaN,2098.201091791,2098.219408666,2099.312780125,NaN,NaN
117,16,2,usability,0,bathroom,sun_axyrejkiiaqiurjk.tif,169,1.5,0,1.33333333333333,2099.32065475,2102.114289791,1,NaN,2102.119693208,2102.137994875,2103.464717833,NaN,NaN
117,17,2,usability,0,bathroom,sun_ausgutylgojavyoq.tif,163,1.5,0,1.15,2103.483049,2106.802518041,1,NaN,2106.8077345,2106.826201625,2107.969568875,NaN,NaN
117,18,2,usability,0,bathroom,sun_aapitsgbtktqubfy.tif,122,1.5,0,1.28333333333333,2107.979510458,2111.930798458,4,NaN,2111.936192125,2111.954565958,2113.231288333,NaN,NaN
117,19,2,usability,0,bathroom,sun_agyqfjcfkdcydepw.tif,135,1.5,0,1.35,2113.249816041,2117.537742708,4,NaN,2117.543443,2117.561835166,2118.905203708,NaN,NaN
117,20,2,usability,0,bathroom,sun_abapwbhyhkfixyex.tif,124,1.5,0,1.43333333333333,2118.919716625,2122.025719291,6,NaN,2122.031557458,2122.05015025,2123.476863333,NaN,NaN
117,21,2,usability,0,bathroom,sun_auzqhkafidnkrwmo.tif,164,1.5,0,0.916666666666667,2123.493182708,2126.3944565,6,NaN,2126.399677791,2126.418096708,2127.328100916,NaN,NaN
117,22,2,usability,0,bathroom,sun_anryaplzeujmzfkd.tif,149,1.5,0,0.766666666666667,2127.33245725,2129.899877833,7,NaN,2129.926916875,2129.950499458,2130.710503208,NaN,NaN
117,23,2,usability,0,bathroom,sun_anhioqovhscjqqwb.tif,148,1.5,0,0.866666666666667,2130.715309375,2133.555367666,3,NaN,2133.580218208,2133.602995,2134.463,NaN,NaN
117,24,2,usability,0,bathroom,sun_axldvoqbuvuggfmq.tif,167,1.5,0,0.833333333333333,2134.479199375,2137.850435208,4,NaN,2137.855622083,2137.87395525,2138.700628041,NaN,NaN
117,25,2,usability,0,bathroom,sun_aspsyogrekjtfozg.tif,160,1.5,0,0.75,2138.704955583,2142.034542291,3,NaN,2142.03969525,2142.058107875,2142.801447125,NaN,NaN
