sub_num,trial,block,task,is_practice,category,image,texture,duration,mask_dur,jitter,stim_time,time_of_resp,trial_response,mask_time,fix_time,jit_onset,trial_end,trial_accuracy,RT
136,6,0,complexity,1,kitchen,kitchen_practice5.tif,230,1.5,0,1.46666666666667,3648.155803625,3651.366351041,4,NaN,3651.372772708,3651.391362875,3652.851434875,NaN,NaN
136,7,0,complexity,1,kitchen,kitchen_practice2.tif,227,1.5,0,1.31666666666667,3652.869575125,3657.223262541,6,NaN,3657.228871708,3657.247295,3658.55736725,NaN,NaN
136,8,0,complexity,1,kitchen,kitchen_practice4.tif,229,1.5,0,1.76666666666667,3658.573407166,3661.310625958,7,NaN,3661.316353875,3661.334739291,3663.094838,NaN,NaN
136,9,0,complexity,1,kitchen,kitchen_practice1.tif,226,1.5,0,0.816666666666667,3663.113224833,3666.37077025,6,NaN,3666.400839333,3666.424495,3667.2345015,NaN,NaN
136,10,0,complexity,1,kitchen,kitchen_practice3.tif,228,1.5,0,0.9,3667.239382333,3670.999308166,3,NaN,3671.004936458,3671.023346916,3671.916689625,NaN,NaN
136,1,1,complexity,0,kitchen,sun_avszsnwsbuqfgzbn.tif,215,1.5,0,1.15,3676.157590291,3678.986226791,6,NaN,3679.014976208,3679.038357333,3680.181770958,NaN,NaN
136,2,1,complexity,0,kitchen,sun_ahpczsiumwwocjkv.tif,202,1.5,0,1.33333333333333,3680.193116875,3683.286860791,4,NaN,3683.292486791,3683.310914375,3684.637666125,NaN,NaN
136,3,1,complexity,0,kitchen,sun_aeqdocilnnpuvuhx.tif,193,1.5,0,1.75,3684.658255416,3687.182265625,6,NaN,3687.188355166,3687.206826791,3688.950230416,NaN,NaN
136,4,1,complexity,0,kitchen,sun_ahywdevtimnqcsln.tif,204,1.5,0,1.2,3688.969798875,3692.423296458,4,NaN,3692.430861833,3692.450996833,3693.644428875,NaN,NaN
136,5,1,complexity,0,kitchen,sun_aqeaevwwwjoqhzvl.tif,211,1.5,0,1.46666666666667,3693.656579541,3697.30274325,7,NaN,3697.30853025,3697.327037291,3698.787112458,NaN,NaN
136,6,1,complexity,0,kitchen,sun_aehawpgmrlhlvcow.tif,191,1.5,0,1.01666666666667,3698.808287041,3703.222467375,5,NaN,3703.229026833,3703.247410458,3704.257487583,NaN,NaN
136,7,1,complexity,0,kitchen,sun_agorklincwxrdtga.tif,197,1.5,0,1.18333333333333,3704.267132041,3707.054135125,5,NaN,3707.060241875,3707.078605875,3708.255334708,NaN,NaN
136,8,1,complexity,0,kitchen,sun_agzzivivdpnawacl.tif,199,1.5,0,1.03333333333333,3708.266869291,3710.846687916,4,NaN,3710.852433375,3710.870903291,3711.89762775,NaN,NaN
136,9,1,complexity,0,kitchen,sun_acfmftudsenhrfhy.tif,184,1.5,0,1.25,3711.909813583,3714.958990125,4,NaN,3714.964670708,3714.982964458,3716.22635975,NaN,NaN
136,10,1,complexity,0,kitchen,sun_aarfiyshqohlwkmo.tif,177,1.5,0,0.733333333333333,3716.245712791,3718.958553791,4,NaN,3718.964236958,3718.982679916,3719.709358666,NaN,NaN
136,11,1,complexity,0,kitchen,labelme_rykdqxenmhulbdn.tif,173,1.5,0,1.01666666666667,3719.713832458,3724.271069416,3,NaN,3724.276703458,3724.294981375,3725.305055875,NaN,NaN
136,12,1,complexity,0,kitchen,sun_aexklacwqwezaorf.tif,194,1.5,0,1.53333333333333,3725.314323,3727.95078425,6,NaN,3727.95638175,3727.974886083,3729.501604875,NaN,NaN
136,13,1,complexity,0,kitchen,sun_aunzlwrbjumxhwdj.tif,213,1.5,0,1.33333333333333,3729.513382,3734.894088375,3,NaN,3734.900712375,3734.919302083,3736.246030125,NaN,NaN
136,14,1,complexity,0,kitchen,sun_ahljzhgcdpomplvg.tif,201,1.5,0,1.53333333333333,3736.265567875,3739.150555375,3,NaN,3739.156321166,3739.174610625,3740.701377583,NaN,NaN
136,15,1,complexity,0,kitchen,labelme_kxvouciolcpqplr.tif,172,1.5,0,1.01666666666667,3740.72039625,3743.822904,3,NaN,3743.828538458,3743.846986666,3744.8570695,NaN,NaN
136,16,1,complexity,0,kitchen,sun_awcpdzzznmweyyhv.tif,216,1.5,0,1.23333333333333,3744.867041916,3747.799016791,5,NaN,3747.804818666,3747.823137375,3749.049872708,NaN,NaN
136,17,1,complexity,0,kitchen,sun_aaxxjlsuzvqlgylf.tif,178,1.5,0,1.18333333333333,3749.068624875,3752.479007625,5,NaN,3752.484698875,3752.503008708,3753.679776833,NaN,NaN
136,18,1,complexity,0,kitchen,sun_aamedkxepzlwuxes.tif,175,1.5,0,0.783333333333333,3753.690301041,3756.974312333,6,NaN,3756.980202875,3756.998544208,3757.775219041,NaN,NaN
136,19,1,complexity,0,kitchen,sun_ajcbwwvdlsvjyzje.tif,206,1.5,0,1.73333333333333,3757.779684416,3761.15102375,4,NaN,3761.156500958,3761.174946666,3762.901678541,NaN,NaN
136,20,1,complexity,0,kitchen,sun_azmutvzbxypaceni.tif,220,1.5,0,1.21666666666667,3762.920189166,3765.537291166,2,NaN,3765.561453166,3765.585405875,3766.795477625,NaN,NaN
136,21,1,complexity,0,kitchen,sun_acxkpeoqbwcxfvip.tif,187,1.5,0,1.26666666666667,3766.814977333,3769.478187875,4,NaN,3769.48398925,3769.502184541,3770.762255291,NaN,NaN
136,22,1,complexity,0,kitchen,sun_aggjlwcdjsjcaemh.tif,196,1.5,0,0.783333333333333,3770.778140416,3774.118792041,3,NaN,3774.124779208,3774.14314275,3774.919818916,NaN,NaN
136,23,1,complexity,0,kitchen,sun_aadbddgrdsjugojn.tif,174,1.5,0,1.48333333333333,3774.9242625,3777.783024833,5,NaN,3777.803770541,3777.827433291,3779.304173958,NaN,NaN
136,24,1,complexity,0,kitchen,sun_acwjdupvyjsugpay.tif,186,1.5,0,1.36666666666667,3779.320892625,3782.174682625,1,NaN,3782.180420291,3782.199311666,3783.559377083,NaN,NaN
136,25,1,complexity,0,kitchen,sun_auticobqsbwgoppi.tif,214,1.5,0,0.983333333333333,3783.57819475,3787.142223458,3,NaN,3787.148007125,3787.166289625,3788.142966666,NaN,NaN
136,1,2,complexity,0,kitchen,sun_aixorpehvfykdynp.tif,205,1.5,0,1.26666666666667,3792.273801666,3795.057704166,3,NaN,3795.087141625,3795.110651291,3796.37074925,NaN,NaN
136,2,2,complexity,0,kitchen,sun_aypmqwcualkenuoe.tif,219,1.5,0,1.11666666666667,3796.390910583,3799.582169166,6,NaN,3799.587810916,3799.606197083,3800.716260333,NaN,NaN
136,3,2,complexity,0,kitchen,sun_aymvwlarqodbwuoc.tif,218,1.5,0,1.43333333333333,3800.729012541,3803.998859583,6,NaN,3804.004491416,3804.022812958,3805.449549875,NaN,NaN
136,4,2,complexity,0,kitchen,sun_amjjdeyrggfqgmom.tif,210,1.5,0,0.8,3805.469076375,3808.74988575,3,NaN,3808.7559625,3808.774395666,3809.5677375,NaN,NaN
136,5,2,complexity,0,kitchen,sun_akcjzhbbjlbogpdi.tif,209,1.5,0,0.733333333333333,3809.572017208,3813.5186625,3,NaN,3813.524290708,3813.542551625,3814.269225666,NaN,NaN
136,6,2,complexity,0,kitchen,sun_abdxkyyxwfskuaqb.tif,180,1.5,0,1.03333333333333,3814.273441375,3818.046750333,5,NaN,3818.052386833,3818.070774166,3819.097528416,NaN,NaN
136,7,2,complexity,0,kitchen,sun_acgtpgfybqjmzeyw.tif,185,1.5,0,1.56666666666667,3819.106914125,3821.670037333,2,NaN,3821.675838916,3821.694078958,3823.254167541,NaN,NaN
136,8,2,complexity,0,kitchen,sun_ahdycvpopffkzzsu.tif,200,1.5,0,0.866666666666667,3823.273623041,3825.950470541,3,NaN,3825.95602,3825.974378458,3826.834387291,NaN,NaN
136,9,2,complexity,0,kitchen,sun_ajkqhtgcbgpcwrwn.tif,207,1.5,0,0.716666666666667,3826.838961333,3830.054651583,4,NaN,3830.060354916,3830.078777625,3830.788786333,NaN,NaN
136,10,2,complexity,0,kitchen,sun_agubuxuukhzyzpdp.tif,198,1.5,0,1.33333333333333,3830.793306291,3833.809757208,5,NaN,3833.838009541,3833.861316541,3835.188040958,NaN,NaN
136,11,2,complexity,0,kitchen,sun_aegoxogugdkwpmpj.tif,190,1.5,0,1.01666666666667,3835.203260958,3838.214485708,6,NaN,3838.220242875,3838.238651291,3839.24874025,NaN,NaN
136,12,2,complexity,0,kitchen,sun_aenotlpyftoioydp.tif,192,1.5,0,0.733333333333333,3839.257471291,3842.422003583,2,NaN,3842.427872916,3842.446185541,3843.17286225,NaN,NaN
136,13,2,complexity,0,kitchen,sun_auaiucuqpdausiva.tif,212,1.5,0,1.38333333333333,3843.177072125,3846.078942166,5,NaN,3846.108659458,3846.132056,3847.508824583,NaN,NaN
136,14,2,complexity,0,kitchen,sun_aapllqyqlykszopd.tif,176,1.5,0,1.06666666666667,3847.521285208,3851.1583865,4,NaN,3851.164096541,3851.182502375,3852.242579291,NaN,NaN
136,15,2,complexity,0,kitchen,sun_adgqasybjyktddhj.tif,188,1.5,0,0.85,3852.253430625,3855.854299625,2,NaN,3855.860084416,3855.878494541,3856.721834541,NaN,NaN
136,16,2,complexity,0,kitchen,labelme_brsyyvweiuaazfr.tif,171,1.5,0,0.9,3856.726342416,3859.838864541,4,NaN,3859.84589675,3859.864558708,3860.757899583,NaN,NaN
136,17,2,complexity,0,kitchen,sun_admlmbcdswaszruo.tif,189,1.5,0,1.55,3860.762515208,3864.070090583,3,NaN,3864.075892083,3864.094382375,3865.637803541,NaN,NaN
136,18,2,complexity,0,kitchen,sun_abrcnpqqhmjwekyf.tif,183,1.5,0,0.7,3865.647321208,3868.830240083,3,NaN,3868.835875,3868.854285,3869.547627583,NaN,NaN
136,19,2,complexity,0,kitchen,sun_abdenxonkemggwsq.tif,179,1.5,0,0.716666666666667,3869.552023916,3872.417841583,5,NaN,3872.447999583,3872.471470541,3873.181481458,NaN,NaN
136,20,2,complexity,0,kitchen,sun_akchetnepxlcxhsu.tif,208,1.5,0,0.85,3873.186223833,3876.542592083,3,NaN,3876.548486208,3876.566796416,3877.410137708,NaN,NaN
136,21,2,complexity,0,kitchen,sun_axyyrmzcupyhlivc.tif,217,1.5,0,1.35,3877.415733,3880.885862791,3,NaN,3880.89178575,3880.910250958,3882.253642083,NaN,NaN
136,22,2,complexity,0,kitchen,sun_abftihopvusyfakt.tif,181,1.5,0,1.96666666666667,3882.272243625,3885.182442458,4,NaN,3885.187925791,3885.206269541,3887.166362583,NaN,NaN
136,23,2,complexity,0,kitchen,sun_afuyedyxivkhecmu.tif,195,1.5,0,0.933333333333333,3887.185464083,3889.98154225,6,NaN,3890.010469,3890.03432625,3890.961001875,NaN,NaN
136,24,2,complexity,0,kitchen,sun_ahspylgoovwmwvgk.tif,203,1.5,0,1.33333333333333,3890.965598791,3894.277939208,2,NaN,3894.28403675,3894.302510291,3895.629256166,NaN,NaN
136,25,2,complexity,0,kitchen,sun_abpwyqmlzafvklqo.tif,182,1.5,0,1.16666666666667,3895.6436785,3898.734391333,3,NaN,3898.739977958,3898.758347083,3899.918437291,NaN,NaN
