sub_num,trial,block,task,is_practice,category,image,texture,duration,mask_dur,jitter,stim_time,time_of_resp,trial_response,mask_time,fix_time,jit_onset,trial_end,trial_accuracy,RT
134,1,0,complexity,1,bathroom,bathroom_practice3.tif,223,1.5,0,1.56666666666667,17002.303320584,17005.114707875,3,NaN,17005.143322584,17005.166427209,17006.726465209,NaN,NaN
134,2,0,complexity,1,bathroom,bathroom_practice5.tif,225,1.5,0,1.1,17006.7482975,17013.77776825,6,NaN,17013.783345625,17013.801716542,17014.895104375,NaN,NaN
134,3,0,complexity,1,bathroom,bathroom_practice2.tif,222,1.5,0,1.51666666666667,17014.902949167,17017.304952709,7,NaN,17017.310888917,17017.329009417,17018.839062125,NaN,NaN
134,4,0,complexity,1,bathroom,bathroom_practice4.tif,224,1.5,0,1.15,17018.856926209,17022.185096042,2,NaN,17022.190915667,17022.209210959,17023.35258675,NaN,NaN
134,5,0,complexity,1,bathroom,bathroom_practice1.tif,221,1.5,0,1.26666666666667,17023.360853417,17026.177232167,1,NaN,17026.182728875,17026.201008792,17027.461046542,NaN,NaN
134,1,1,complexity,0,bathroom,sun_abapwbhyhkfixyex.tif,124,1.5,0,0.75,17031.459657667,17035.040882792,3,NaN,17035.046667417,17035.064916625,17035.808255625,NaN,NaN
134,2,1,complexity,0,bathroom,sun_akiytfaagpdsphgz.tif,141,1.5,0,1.28333333333333,17035.812634875,17038.653047042,3,NaN,17038.680213084,17038.703879209,17039.980577209,NaN,NaN
134,3,1,complexity,0,bathroom,sun_axxbkopsgyouuebh.tif,168,1.5,0,1.76666666666667,17039.999635959,17043.153405667,3,NaN,17043.15903275,17043.177341292,17044.937373667,NaN,NaN
134,4,1,complexity,0,bathroom,sun_abjtwfukuwddzted.tif,125,1.5,0,1.28333333333333,17044.956641292,17049.336890417,4,NaN,17049.342928875,17049.361200125,17050.637915875,NaN,NaN
134,5,1,complexity,0,bathroom,sun_amzlamotzwfkwjco.tif,147,1.5,0,1.8,17050.655417459,17053.865520667,2,NaN,17053.870963209,17053.889193167,17055.682576292,NaN,NaN
134,6,1,complexity,0,bathroom,sun_aofnryafpsjimzsb.tif,150,1.5,0,0.716666666666667,17055.701411167,17058.734701084,5,NaN,17058.762536959,17058.785921,17059.495926459,NaN,NaN
134,7,1,complexity,0,bathroom,sun_asfwthctfqerjvxr.tif,159,1.5,0,1,17059.500716042,17062.721917417,5,NaN,17062.728028792,17062.746317667,17063.739655834,NaN,NaN
134,8,1,complexity,0,bathroom,sun_apjevzvycyhuqghb.tif,153,1.5,0,1.21666666666667,17063.745370792,17066.632744292,7,NaN,17066.660018334,17066.683133917,17067.8931805,NaN,NaN
134,9,1,complexity,0,bathroom,sun_aapitsgbtktqubfy.tif,122,1.5,0,1.55,17067.914812084,17072.641430792,3,NaN,17072.646883,17072.665328625,17074.20870575,NaN,NaN
134,10,1,complexity,0,bathroom,sun_aclfzgynxzxlbepz.tif,129,1.5,0,2,17074.226543417,17077.1973765,2,NaN,17077.216515375,17077.237787542,17079.23115475,NaN,NaN
134,11,1,complexity,0,bathroom,sun_aqrpegblszgcoujh.tif,158,1.5,0,0.716666666666667,17079.24290675,17082.020687459,2,NaN,17082.049662167,17082.072788667,17082.782794,NaN,NaN
134,12,1,complexity,0,bathroom,sun_awnqiikzaispgmwo.tif,166,1.5,0,0.933333333333333,17082.78756675,17085.476745125,3,NaN,17085.505409167,17085.528752042,17086.455423917,NaN,NaN
134,13,1,complexity,0,bathroom,sun_axyrejkiiaqiurjk.tif,169,1.5,0,1.58333333333333,17086.460079125,17090.008813209,4,NaN,17090.014669709,17090.032993459,17091.609692125,NaN,NaN
134,14,1,complexity,0,bathroom,sun_aspsyogrekjtfozg.tif,160,1.5,0,0.9,17091.625583542,17095.088688875,5,NaN,17095.094534834,17095.112813625,17096.006151584,NaN,NaN
134,15,1,complexity,0,bathroom,sun_anryaplzeujmzfkd.tif,149,1.5,0,1.16666666666667,17096.011513,17100.320889375,5,NaN,17100.326523084,17100.344969167,17101.505015917,NaN,NaN
134,16,1,complexity,0,bathroom,sun_ausgutylgojavyoq.tif,163,1.5,0,0.733333333333333,17101.512947209,17104.152997459,7,NaN,17104.158465417,17104.17719425,17104.903866667,NaN,NaN
134,17,1,complexity,0,bathroom,sun_ahijqszoswveeyji.tif,138,1.5,0,1.15,17104.908106292,17108.328842959,7,NaN,17108.334286625,17108.352579167,17109.495946875,NaN,NaN
134,18,1,complexity,0,bathroom,sun_acgyywnybuveqsro.tif,128,1.5,0,1.01666666666667,17109.503719667,17113.568759042,5,NaN,17113.574614042,17113.593063209,17114.603104709,NaN,NaN
134,19,1,complexity,0,bathroom,sun_aggnnqpdorgxpvce.tif,131,1.5,0,0.883333333333333,17114.612726292,17119.816868917,4,NaN,17119.822402709,17119.840605417,17120.717275417,NaN,NaN
134,20,1,complexity,0,bathroom,sun_avhrdrntsqrjzccq.tif,165,1.5,0,1.65,17120.721668625,17124.857390959,3,NaN,17124.862780584,17124.881122417,17126.524500792,NaN,NaN
134,21,1,complexity,0,bathroom,sun_aghyqhbptboemmoq.tif,133,1.5,0,0.75,17126.542931042,17130.553060792,2,NaN,17130.559487417,17130.578734875,17131.322071834,NaN,NaN
134,22,1,complexity,0,bathroom,sun_acegryoqftbzowsg.tif,127,1.5,0,1.28333333333333,17131.326599959,17135.904951959,3,NaN,17135.911361584,17135.929627459,17137.206329959,NaN,NaN
134,23,1,complexity,0,bathroom,sun_ambriybtogmepttm.tif,146,1.5,0,1.25,17137.215932375,17141.560701792,3,NaN,17141.566401875,17141.584591042,17142.827972709,NaN,NaN
134,24,1,complexity,0,bathroom,sun_agrwbmhcpmfuwmsg.tif,134,1.5,0,0.833333333333333,17142.847146375,17146.072904709,5,NaN,17146.078493834,17146.096803792,17146.92347575,NaN,NaN
134,25,1,complexity,0,bathroom,sun_acduarbnmmoglmiv.tif,126,1.5,0,1.05,17146.92805425,17149.205006834,7,NaN,17149.221502334,17149.244976959,17150.28834375,NaN,NaN
134,1,2,complexity,0,bathroom,sun_apkxzenqapsujocq.tif,155,1.5,0,0.95,17160.651451375,17164.200784459,2,NaN,17164.206350625,17164.224674084,17165.168012959,NaN,NaN
134,2,2,complexity,0,bathroom,sun_afcoljnjfoxjtgja.tif,130,1.5,0,1.55,17165.172382125,17167.782779459,5,NaN,17167.83483975,17167.856574042,17169.399952125,NaN,NaN
134,3,2,complexity,0,bathroom,sun_agyqfjcfkdcydepw.tif,135,1.5,0,1.2,17169.412101209,17171.857146542,7,NaN,17171.862612792,17171.880903792,17173.07427,NaN,NaN
134,4,2,complexity,0,bathroom,sun_apkruvsevgegsdwp.tif,154,1.5,0,1.86666666666667,17173.089616542,17176.5123705,4,NaN,17176.518313667,17176.536731834,17178.396783709,NaN,NaN
134,5,2,complexity,0,bathroom,sun_alotolagknyrgtsk.tif,145,1.5,0,1.66666666666667,17178.415754417,17180.8105885,6,NaN,17180.835538084,17180.858948084,17182.518992209,NaN,NaN
134,6,2,complexity,0,bathroom,sun_axldvoqbuvuggfmq.tif,167,1.5,0,1.35,17182.53834325,17185.233542625,5,NaN,17185.254422875,17185.276486625,17186.619866,NaN,NaN
134,7,2,complexity,0,bathroom,sun_aoybiabnpadelefl.tif,151,1.5,0,1.11666666666667,17186.638910625,17188.984662042,1,NaN,17188.990295084,17189.008610625,17190.118648375,NaN,NaN
134,8,2,complexity,0,bathroom,sun_apmqjbnwghzuhhzh.tif,156,1.5,0,0.95,17190.128263459,17192.72122775,3,NaN,17192.726703584,17192.744762584,17193.688100667,NaN,NaN
134,9,2,complexity,0,bathroom,sun_aleqenyvunhactkl.tif,142,1.5,0,1.03333333333333,17193.70939075,17196.132452959,3,NaN,17196.159872042,17196.182612042,17197.209327292,NaN,NaN
134,10,2,complexity,0,bathroom,sun_aunuadmjocsddsrl.tif,162,1.5,0,1.01666666666667,17197.217317459,17199.585242084,5,NaN,17199.590569792,17199.608997917,17200.619025834,NaN,NaN
134,11,2,complexity,0,bathroom,sun_agguqiubmwhqqunb.tif,132,1.5,0,1.81666666666667,17200.626438042,17203.344268792,5,NaN,17203.35002325,17203.36824325,17205.178279667,NaN,NaN
134,12,2,complexity,0,bathroom,sun_alkosphxlxwjwgjd.tif,144,1.5,0,1.8,17205.196595042,17207.799812,4,NaN,17207.820239334,17207.844601125,17209.637984459,NaN,NaN
134,13,2,complexity,0,bathroom,sun_atstyziqcmkahyxk.tif,161,1.5,0,1.26666666666667,17209.654589084,17212.385595334,3,NaN,17212.436700125,17212.460055834,17213.72011225,NaN,NaN
134,14,2,complexity,0,bathroom,sun_azqyogdvyhahyram.tif,170,1.5,0,1.66666666666667,17213.737944167,17216.976710625,2,NaN,17216.982310417,17217.000638625,17218.660672625,NaN,NaN
134,15,2,complexity,0,bathroom,sun_aljolscmmzydegqp.tif,143,1.5,0,1.93333333333333,17218.679945959,17221.002334625,6,NaN,17221.028438,17221.051486584,17222.978185,NaN,NaN
134,16,2,complexity,0,bathroom,sun_ahcvzmoyaycdoftf.tif,137,1.5,0,1.75,17222.996653625,17225.640504959,5,NaN,17225.665173792,17225.6877265,17227.431101459,NaN,NaN
134,17,2,complexity,0,bathroom,sun_aavhrsfjbserjtht.tif,123,1.5,0,0.766666666666667,17227.443078542,17230.184069709,6,NaN,17230.214534375,17230.242410084,17231.002415542,NaN,NaN
134,18,2,complexity,0,bathroom,sun_ajlawzvmubibwbpy.tif,140,1.5,0,1.43333333333333,17231.00804075,17233.480299417,5,NaN,17233.508410209,17233.531388084,17234.95809275,NaN,NaN
134,19,2,complexity,0,bathroom,sun_ahqjwnzgolcaoidx.tif,139,1.5,0,0.916666666666667,17234.977099667,17237.345302292,5,NaN,17237.350890959,17237.369085625,17238.279089834,NaN,NaN
134,20,2,complexity,0,bathroom,labelme_sfxiulhjbhlyiyt.tif,121,1.5,0,0.766666666666667,17238.283385959,17240.821010792,5,NaN,17240.850253625,17240.873097459,17241.633100292,NaN,NaN
134,21,2,complexity,0,bathroom,sun_apynckhmoftszqoq.tif,157,1.5,0,0.783333333333333,17241.637828459,17245.080699792,3,NaN,17245.0861215,17245.104445459,17245.88111725,NaN,NaN
134,22,2,complexity,0,bathroom,sun_anhioqovhscjqqwb.tif,148,1.5,0,1.31666666666667,17245.885255375,17248.220349417,2,NaN,17248.247261542,17248.270596875,17249.580644792,NaN,NaN
134,23,2,complexity,0,bathroom,sun_auzqhkafidnkrwmo.tif,164,1.5,0,1.1,17249.598792625,17252.112383917,4,NaN,17252.117857959,17252.13616275,17253.229547667,NaN,NaN
134,24,2,complexity,0,bathroom,sun_ahaulkltgpkeeemi.tif,136,1.5,0,1.26666666666667,17253.237554125,17255.672017334,4,NaN,17255.67782475,17255.696128417,17256.956160709,NaN,NaN
134,25,2,complexity,0,bathroom,sun_apeeialkgkuxddgh.tif,152,1.5,0,0.933333333333333,17256.97449775,17259.47609525,4,NaN,17259.482047334,17259.500354334,17260.427025875,NaN,NaN
