sub_num,trial,block,task,is_practice,category,image,texture,duration,mask_dur,jitter,stim_time,time_of_resp,trial_response,mask_time,fix_time,jit_onset,trial_end,trial_accuracy,RT
102,6,0,complexity,1,kitchen,kitchen_practice5.tif,230,1.5,0,1.46666666666667,21372.541378625,21377.422419458,3,NaN,21377.428149375,21377.446688291,21378.906786,NaN,NaN
102,7,0,complexity,1,kitchen,kitchen_practice2.tif,227,1.5,0,1.31666666666667,21378.927419666,21382.918814583,7,NaN,21382.924433458,21382.942827541,21384.252901125,NaN,NaN
102,8,0,complexity,1,kitchen,kitchen_practice4.tif,229,1.5,0,1.76666666666667,21384.272347,21387.005944791,5,NaN,21387.011837375,21387.03026825,21388.790364125,NaN,NaN
102,9,0,complexity,1,kitchen,kitchen_practice1.tif,226,1.5,0,0.816666666666667,21388.809324583,21393.766941791,4,NaN,21393.772363125,21393.790674375,21394.600682708,NaN,NaN
102,10,0,complexity,1,kitchen,kitchen_practice3.tif,228,1.5,0,0.9,21394.605404625,21397.69006175,4,NaN,21397.710750875,21397.731086416,21398.624429416,NaN,NaN
102,1,1,complexity,0,kitchen,sun_avszsnwsbuqfgzbn.tif,215,1.5,0,1.15,21403.066192791,21409.286048,5,NaN,21409.292070333,21409.3104575,21410.45388325,NaN,NaN
102,2,1,complexity,0,kitchen,sun_ahpczsiumwwocjkv.tif,202,1.5,0,1.33333333333333,21410.465779625,21413.550102333,3,NaN,21413.555856875,21413.5742025,21414.900943625,NaN,NaN
102,3,1,complexity,0,kitchen,sun_aeqdocilnnpuvuhx.tif,193,1.5,0,1.75,21414.915993416,21417.958203833,2,NaN,21417.963860833,21417.982099,21419.725507583,NaN,NaN
102,4,1,complexity,0,kitchen,sun_ahywdevtimnqcsln.tif,204,1.5,0,1.2,21419.744002375,21423.222752708,1,NaN,21423.229968208,21423.2483335,21424.441773125,NaN,NaN
102,5,1,complexity,0,kitchen,sun_aqeaevwwwjoqhzvl.tif,211,1.5,0,1.46666666666667,21424.45540975,21427.149730666,7,NaN,21427.15585525,21427.174249125,21428.63432175,NaN,NaN
102,6,1,complexity,0,kitchen,sun_aehawpgmrlhlvcow.tif,191,1.5,0,1.01666666666667,21428.654268708,21431.350626541,4,NaN,21431.356176833,21431.374490541,21432.384581833,NaN,NaN
102,7,1,complexity,0,kitchen,sun_agorklincwxrdtga.tif,197,1.5,0,1.18333333333333,21432.393780083,21435.33462,3,NaN,21435.340178291,21435.358502291,21436.535210916,NaN,NaN
102,8,1,complexity,0,kitchen,sun_agzzivivdpnawacl.tif,199,1.5,0,1.03333333333333,21436.546050875,21439.142724708,2,NaN,21439.148188916,21439.166479791,21440.193246708,NaN,NaN
102,9,1,complexity,0,kitchen,sun_acfmftudsenhrfhy.tif,184,1.5,0,1.25,21440.203155041,21442.797695875,4,NaN,21442.803727458,21442.8220905,21444.065488208,NaN,NaN
102,10,1,complexity,0,kitchen,sun_aarfiyshqohlwkmo.tif,177,1.5,0,0.733333333333333,21444.084595,21447.173850541,6,NaN,21447.179656791,21447.197971833,21447.924648333,NaN,NaN
102,11,1,complexity,0,kitchen,labelme_rykdqxenmhulbdn.tif,173,1.5,0,1.01666666666667,21447.930903708,21451.150683291,1,NaN,21451.156310833,21451.174796666,21452.184893208,NaN,NaN
102,12,1,complexity,0,kitchen,sun_aexklacwqwezaorf.tif,194,1.5,0,1.53333333333333,21452.193394458,21454.750171541,5,NaN,21454.755728291,21454.773966583,21456.300699458,NaN,NaN
102,13,1,complexity,0,kitchen,sun_aunzlwrbjumxhwdj.tif,213,1.5,0,1.33333333333333,21456.313049875,21461.262197125,2,NaN,21461.26841375,21461.287037791,21462.613870083,NaN,NaN
102,14,1,complexity,0,kitchen,sun_ahljzhgcdpomplvg.tif,201,1.5,0,1.53333333333333,21462.629022625,21465.261902541,1,NaN,21465.267665666,21465.286023083,21466.812793416,NaN,NaN
102,15,1,complexity,0,kitchen,labelme_kxvouciolcpqplr.tif,172,1.5,0,1.01666666666667,21466.832564958,21469.397716458,1,NaN,21469.403476791,21469.421959458,21470.432060208,NaN,NaN
102,16,1,complexity,0,kitchen,sun_awcpdzzznmweyyhv.tif,216,1.5,0,1.23333333333333,21470.440298166,21474.005784333,4,NaN,21474.011842041,21474.03092625,21475.25765475,NaN,NaN
102,17,1,complexity,0,kitchen,sun_aaxxjlsuzvqlgylf.tif,178,1.5,0,1.18333333333333,21475.27471425,21478.02170225,5,NaN,21478.027561708,21478.046218916,21479.222965791,NaN,NaN
102,18,1,complexity,0,kitchen,sun_aamedkxepzlwuxes.tif,175,1.5,0,0.783333333333333,21479.233344541,21482.086021625,3,NaN,21482.091742125,21482.109917,21482.886590041,NaN,NaN
102,19,1,complexity,0,kitchen,sun_ajcbwwvdlsvjyzje.tif,206,1.5,0,1.73333333333333,21482.895565291,21487.222045333,2,NaN,21487.227957291,21487.246494,21488.973254375,NaN,NaN
102,20,1,complexity,0,kitchen,sun_azmutvzbxypaceni.tif,220,1.5,0,1.21666666666667,21488.996685833,21492.517486583,1,NaN,21492.524169666,21492.542523375,21493.752588541,NaN,NaN
102,21,1,complexity,0,kitchen,sun_acxkpeoqbwcxfvip.tif,187,1.5,0,1.26666666666667,21493.771002333,21498.958299583,3,NaN,21498.963938833,21498.982232958,21500.242309916,NaN,NaN
102,22,1,complexity,0,kitchen,sun_aggjlwcdjsjcaemh.tif,196,1.5,0,0.783333333333333,21500.256722875,21503.509814333,2,NaN,21503.515880708,21503.534212208,21504.310889166,NaN,NaN
102,23,1,complexity,0,kitchen,sun_aadbddgrdsjugojn.tif,174,1.5,0,1.48333333333333,21504.315582416,21507.286298708,1,NaN,21507.315862208,21507.338892916,21508.815615375,NaN,NaN
102,24,1,complexity,0,kitchen,sun_acwjdupvyjsugpay.tif,186,1.5,0,1.36666666666667,21508.831192,21511.398280708,1,NaN,21511.403897708,21511.422219375,21512.782317833,NaN,NaN
102,25,1,complexity,0,kitchen,sun_auticobqsbwgoppi.tif,214,1.5,0,0.983333333333333,21512.801697625,21515.446280291,1,NaN,21515.451714958,21515.470034958,21516.446710708,NaN,NaN
102,1,2,complexity,0,kitchen,sun_aixorpehvfykdynp.tif,205,1.5,0,1.26666666666667,21520.593840166,21523.893892208,3,NaN,21523.899507416,21523.917826625,21525.177890416,NaN,NaN
102,2,2,complexity,0,kitchen,sun_aypmqwcualkenuoe.tif,219,1.5,0,1.11666666666667,21525.196550041,21527.909400333,6,NaN,21527.915469833,21527.933912791,21529.043984583,NaN,NaN
102,3,2,complexity,0,kitchen,sun_aymvwlarqodbwuoc.tif,218,1.5,0,1.43333333333333,21529.055781916,21531.941706875,3,NaN,21531.947239333,21531.965603125,21533.392370625,NaN,NaN
102,4,2,complexity,0,kitchen,sun_amjjdeyrggfqgmom.tif,210,1.5,0,0.8,21533.412891166,21536.878368166,2,NaN,21536.88388625,21536.902200875,21537.69554175,NaN,NaN
102,5,2,complexity,0,kitchen,sun_akcjzhbbjlbogpdi.tif,209,1.5,0,0.733333333333333,21537.7119165,21540.376962916,1,NaN,21540.406319625,21540.430704125,21541.157381416,NaN,NaN
102,6,2,complexity,0,kitchen,sun_abdxkyyxwfskuaqb.tif,180,1.5,0,1.03333333333333,21541.162082208,21544.225308,2,NaN,21544.254491958,21544.274714291,21545.301466291,NaN,NaN
102,7,2,complexity,0,kitchen,sun_acgtpgfybqjmzeyw.tif,185,1.5,0,1.56666666666667,21545.312257583,21548.358279291,2,NaN,21548.36373975,21548.381999,21549.942098833,NaN,NaN
102,8,2,complexity,0,kitchen,sun_ahdycvpopffkzzsu.tif,200,1.5,0,0.866666666666667,21549.963037333,21552.478194833,1,NaN,21552.506997541,21552.530018083,21553.390087125,NaN,NaN
102,9,2,complexity,0,kitchen,sun_ajkqhtgcbgpcwrwn.tif,207,1.5,0,0.716666666666667,21553.4058065,21556.805858541,2,NaN,21556.811811916,21556.830907416,21557.540916333,NaN,NaN
102,10,2,complexity,0,kitchen,sun_agubuxuukhzyzpdp.tif,198,1.5,0,1.33333333333333,21557.547180041,21560.89344425,2,NaN,21560.899371958,21560.917813916,21562.244579833,NaN,NaN
102,11,2,complexity,0,kitchen,sun_aegoxogugdkwpmpj.tif,190,1.5,0,1.01666666666667,21562.268032875,21565.28567475,5,NaN,21565.291511208,21565.309892416,21566.319952958,NaN,NaN
102,12,2,complexity,0,kitchen,sun_aenotlpyftoioydp.tif,192,1.5,0,0.733333333333333,21566.331925291,21569.078223041,2,NaN,21569.083903583,21569.10223425,21569.828908875,NaN,NaN
102,13,2,complexity,0,kitchen,sun_auaiucuqpdausiva.tif,212,1.5,0,1.38333333333333,21569.844976458,21572.997243125,6,NaN,21573.004023791,21573.022274208,21574.399033416,NaN,NaN
102,14,2,complexity,0,kitchen,sun_aapllqyqlykszopd.tif,176,1.5,0,1.06666666666667,21574.417145375,21577.597942583,3,NaN,21577.603534166,21577.6219695,21578.6820285,NaN,NaN
102,15,2,complexity,0,kitchen,sun_adgqasybjyktddhj.tif,188,1.5,0,0.85,21578.696169875,21581.381382375,1,NaN,21581.387242083,21581.405611958,21582.248955375,NaN,NaN
102,16,2,complexity,0,kitchen,labelme_brsyyvweiuaazfr.tif,171,1.5,0,0.9,21582.253267833,21585.997392875,5,NaN,21586.003109875,21586.021411708,21586.914754333,NaN,NaN
102,17,2,complexity,0,kitchen,sun_admlmbcdswaszruo.tif,189,1.5,0,1.55,21586.9283085,21589.785087875,3,NaN,21589.814847166,21589.838337041,21591.381755208,NaN,NaN
102,18,2,complexity,0,kitchen,sun_abrcnpqqhmjwekyf.tif,183,1.5,0,0.7,21591.400830666,21594.160543416,2,NaN,21594.185506083,21594.209040416,21594.902459,NaN,NaN
102,19,2,complexity,0,kitchen,sun_abdenxonkemggwsq.tif,179,1.5,0,0.716666666666667,21594.917654583,21597.758750708,7,NaN,21597.788140458,21597.811914083,21598.521925416,NaN,NaN
102,20,2,complexity,0,kitchen,sun_akchetnepxlcxhsu.tif,208,1.5,0,0.85,21598.526781666,21601.669980416,4,NaN,21601.675926375,21601.694479833,21602.537824208,NaN,NaN
102,21,2,complexity,0,kitchen,sun_axyyrmzcupyhlivc.tif,217,1.5,0,1.35,21602.542441958,21606.18970575,5,NaN,21606.195299958,21606.21358325,21607.557039666,NaN,NaN
102,22,2,complexity,0,kitchen,sun_abftihopvusyfakt.tif,181,1.5,0,1.96666666666667,21607.57519775,21610.573191416,3,NaN,21610.579032041,21610.597327166,21612.557402875,NaN,NaN
102,23,2,complexity,0,kitchen,sun_afuyedyxivkhecmu.tif,195,1.5,0,0.933333333333333,21612.572442583,21618.3495565,6,NaN,21618.355182375,21618.373473541,21619.300150625,NaN,NaN
102,24,2,complexity,0,kitchen,sun_ahspylgoovwmwvgk.tif,203,1.5,0,1.33333333333333,21619.30473875,21622.525117583,1,NaN,21622.532107416,21622.550675791,21623.877435875,NaN,NaN
102,25,2,complexity,0,kitchen,sun_abpwyqmlzafvklqo.tif,182,1.5,0,1.16666666666667,21623.892800375,21626.653761958,1,NaN,21626.659380791,21626.677743458,21627.837826958,NaN,NaN
