sub_num,trial,block,task,is_practice,category,image,texture,duration,mask_dur,jitter,stim_time,time_of_resp,trial_response,mask_time,fix_time,jit_onset,trial_end,trial_accuracy,RT
112,6,0,familiarity,1,kitchen,kitchen_practice2.tif,227,1.5,0,0.733333333333333,2402.203685458,2406.770654375,1,NaN,2406.776773875,2406.795209208,2407.521886958,NaN,NaN
112,7,0,familiarity,1,kitchen,kitchen_practice3.tif,228,1.5,0,1.3,2407.526586583,2411.387299875,1,NaN,2411.393439958,2411.411916458,2412.705327833,NaN,NaN
112,8,0,familiarity,1,kitchen,kitchen_practice1.tif,226,1.5,0,2,2412.723391333,2415.275016416,1,NaN,2415.281157875,2415.299471208,2417.292877541,NaN,NaN
112,9,0,familiarity,1,kitchen,kitchen_practice5.tif,230,1.5,0,1.81666666666667,2417.310898625,2420.268759541,2,NaN,2420.297794875,2420.320909041,2422.130998083,NaN,NaN
112,10,0,familiarity,1,kitchen,kitchen_practice4.tif,229,1.5,0,0.75,2422.149403916,2424.911917125,1,NaN,2424.938840166,2424.962390333,2425.705733291,NaN,NaN
112,1,1,familiarity,0,kitchen,sun_acxkpeoqbwcxfvip.tif,187,1.5,0,0.866666666666667,2429.841860833,2432.777759375,1,NaN,2432.815105541,2432.842059791,2433.702149333,NaN,NaN
112,2,1,familiarity,0,kitchen,sun_aggjlwcdjsjcaemh.tif,196,1.5,0,1.01666666666667,2433.707386458,2437.154974625,2,NaN,2437.161109416,2437.179621916,2438.189832083,NaN,NaN
112,3,1,familiarity,0,kitchen,sun_agorklincwxrdtga.tif,197,1.5,0,1.78333333333333,2438.198161208,2442.467270208,1,NaN,2442.473230708,2442.4916735,2444.2684155,NaN,NaN
112,4,1,familiarity,0,kitchen,sun_aadbddgrdsjugojn.tif,174,1.5,0,1.85,2444.287012958,2448.123485916,1,NaN,2448.129700083,2448.147955833,2449.991349041,NaN,NaN
112,5,1,familiarity,0,kitchen,sun_ahdycvpopffkzzsu.tif,200,1.5,0,1.83333333333333,2450.010921,2452.987716416,4,NaN,2453.018558375,2453.041958041,2454.86872125,NaN,NaN
112,6,1,familiarity,0,kitchen,sun_ahljzhgcdpomplvg.tif,201,1.5,0,1.56666666666667,2454.88951075,2458.202796041,7,NaN,2458.228262541,2458.248626125,2459.808709208,NaN,NaN
112,7,1,familiarity,0,kitchen,sun_agzzivivdpnawacl.tif,199,1.5,0,1.31666666666667,2459.828594875,2462.994626166,4,NaN,2463.000601416,2463.018918583,2464.328986083,NaN,NaN
112,8,1,familiarity,0,kitchen,sun_ahspylgoovwmwvgk.tif,203,1.5,0,1.75,2464.346195541,2468.122240958,5,NaN,2468.128658791,2468.147000583,2469.890406416,NaN,NaN
112,9,1,familiarity,0,kitchen,sun_azmutvzbxypaceni.tif,220,1.5,0,1.9,2469.908930083,2472.928133,6,NaN,2472.959090833,2472.983003666,2474.876430708,NaN,NaN
112,10,1,familiarity,0,kitchen,sun_agubuxuukhzyzpdp.tif,198,1.5,0,1.76666666666667,2474.896482375,2478.25886375,6,NaN,2478.266903791,2478.285397416,2480.045477416,NaN,NaN
112,11,1,familiarity,0,kitchen,labelme_kxvouciolcpqplr.tif,172,1.5,0,1.05,2480.064266666,2484.69036875,3,NaN,2484.69668525,2484.714982125,2485.758399083,NaN,NaN
112,12,1,familiarity,0,kitchen,labelme_brsyyvweiuaazfr.tif,171,1.5,0,1.58333333333333,2485.76757375,2488.882149041,4,NaN,2488.888507333,2488.906806416,2490.483543416,NaN,NaN
112,13,1,familiarity,0,kitchen,sun_aegoxogugdkwpmpj.tif,190,1.5,0,0.983333333333333,2490.495021333,2493.59479575,2,NaN,2493.600701583,2493.619050958,2494.595725208,NaN,NaN
112,14,1,familiarity,0,kitchen,sun_adgqasybjyktddhj.tif,188,1.5,0,0.733333333333333,2494.600089208,2497.647433958,3,NaN,2497.677978666,2497.698881708,2498.425555125,NaN,NaN
112,15,1,familiarity,0,kitchen,sun_akchetnepxlcxhsu.tif,208,1.5,0,1.13333333333333,2498.430279875,2501.658082041,2,NaN,2501.664347416,2501.682712625,2502.809434833,NaN,NaN
112,16,1,familiarity,0,kitchen,sun_acgtpgfybqjmzeyw.tif,185,1.5,0,1.58333333333333,2502.820442208,2505.474631958,6,NaN,2505.480646916,2505.498986,2507.075736,NaN,NaN
112,17,1,familiarity,0,kitchen,sun_abrcnpqqhmjwekyf.tif,183,1.5,0,0.783333333333333,2507.094878583,2509.833482375,7,NaN,2509.86502,2509.888540791,2510.665236625,NaN,NaN
112,18,1,familiarity,0,kitchen,sun_aapllqyqlykszopd.tif,176,1.5,0,0.8,2510.671964875,2514.130935708,2,NaN,2514.136936125,2514.155318458,2514.948660958,NaN,NaN
112,19,1,familiarity,0,kitchen,sun_aymvwlarqodbwuoc.tif,218,1.5,0,1.7,2514.961763791,2519.8350115,2,NaN,2519.841170708,2519.859650833,2521.553039833,NaN,NaN
112,20,1,familiarity,0,kitchen,sun_abftihopvusyfakt.tif,181,1.5,0,1.48333333333333,2521.566906583,2525.298022041,5,NaN,2525.304815875,2525.323207958,2526.799934458,NaN,NaN
112,21,1,familiarity,0,kitchen,sun_acwjdupvyjsugpay.tif,186,1.5,0,0.966666666666667,2526.81892825,2530.866280916,6,NaN,2530.872385208,2530.890812958,2531.850819708,NaN,NaN
112,22,1,familiarity,0,kitchen,sun_aexklacwqwezaorf.tif,194,1.5,0,1.28333333333333,2531.855012458,2534.557454833,1,NaN,2534.573860083,2534.596241208,2535.872989458,NaN,NaN
112,23,1,familiarity,0,kitchen,sun_auaiucuqpdausiva.tif,212,1.5,0,0.783333333333333,2535.891909833,2540.938204208,3,NaN,2540.944387625,2540.963391375,2541.740068708,NaN,NaN
112,24,1,familiarity,0,kitchen,sun_aamedkxepzlwuxes.tif,175,1.5,0,1.36666666666667,2541.744386166,2544.666510166,2,NaN,2544.697720375,2544.721134833,2546.081218791,NaN,NaN
112,25,1,familiarity,0,kitchen,labelme_rykdqxenmhulbdn.tif,173,1.5,0,1.45,2546.099694208,2548.8908205,6,NaN,2548.896747708,2548.91497125,2550.358394791,NaN,NaN
112,1,2,familiarity,0,kitchen,sun_ajcbwwvdlsvjyzje.tif,206,1.5,0,1.81666666666667,2554.177877708,2557.5067295,4,NaN,2557.512609291,2557.530848,2559.341106416,NaN,NaN
112,2,2,familiarity,0,kitchen,sun_aypmqwcualkenuoe.tif,219,1.5,0,0.816666666666667,2559.360522875,2562.168157708,2,NaN,2562.198980541,2562.222536166,2563.032547208,NaN,NaN
112,3,2,familiarity,0,kitchen,sun_ahpczsiumwwocjkv.tif,202,1.5,0,0.9,2563.037277041,2568.785842083,5,NaN,2568.792084708,2568.810443458,2569.703785875,NaN,NaN
112,4,2,familiarity,0,kitchen,sun_acfmftudsenhrfhy.tif,184,1.5,0,0.933333333333333,2569.707953791,2572.81832175,3,NaN,2572.829600875,2572.848309625,2573.774984166,NaN,NaN
112,5,2,familiarity,0,kitchen,sun_afuyedyxivkhecmu.tif,195,1.5,0,1.48333333333333,2573.780186333,2576.851325666,1,NaN,2576.860338583,2576.878842708,2578.35558275,NaN,NaN
112,6,2,familiarity,0,kitchen,sun_axyyrmzcupyhlivc.tif,217,1.5,0,1.48333333333333,2578.371193833,2581.498416041,1,NaN,2581.5043955,2581.522754458,2582.999508875,NaN,NaN
112,7,2,familiarity,0,kitchen,sun_aenotlpyftoioydp.tif,192,1.5,0,1.43333333333333,2583.016618625,2585.474043583,1,NaN,2585.48008425,2585.498467916,2586.925222875,NaN,NaN
112,8,2,familiarity,0,kitchen,sun_avszsnwsbuqfgzbn.tif,215,1.5,0,0.733333333333333,2586.944422916,2589.506524416,1,NaN,2589.512406708,2589.530772583,2590.257449541,NaN,NaN
112,9,2,familiarity,0,kitchen,sun_abpwyqmlzafvklqo.tif,182,1.5,0,0.966666666666667,2590.263239916,2592.613199208,2,NaN,2592.636335791,2592.659484208,2593.619494,NaN,NaN
112,10,2,familiarity,0,kitchen,sun_aixorpehvfykdynp.tif,205,1.5,0,0.916666666666667,2593.624300541,2597.770467833,7,NaN,2597.776460083,2597.794923583,2598.7049315,NaN,NaN
112,11,2,familiarity,0,kitchen,sun_abdxkyyxwfskuaqb.tif,180,1.5,0,1.03333333333333,2598.709437958,2601.285828666,1,NaN,2601.311736041,2601.334623541,2602.361392625,NaN,NaN
112,12,2,familiarity,0,kitchen,sun_abdenxonkemggwsq.tif,179,1.5,0,0.733333333333333,2602.369830041,2605.978252625,1,NaN,2605.984124291,2606.002453416,2606.729128541,NaN,NaN
112,13,2,familiarity,0,kitchen,sun_aehawpgmrlhlvcow.tif,191,1.5,0,1.13333333333333,2606.733517125,2609.451087833,2,NaN,2609.478038708,2609.500889541,2610.627624375,NaN,NaN
112,14,2,familiarity,0,kitchen,sun_ajkqhtgcbgpcwrwn.tif,207,1.5,0,0.883333333333333,2610.636166208,2613.425629791,2,NaN,2613.431706958,2613.449996916,2614.326671208,NaN,NaN
112,15,2,familiarity,0,kitchen,sun_aarfiyshqohlwkmo.tif,177,1.5,0,1.85,2614.330994333,2617.102283875,1,NaN,2617.13067225,2617.154435791,2618.997834583,NaN,NaN
112,16,2,familiarity,0,kitchen,sun_aeqdocilnnpuvuhx.tif,193,1.5,0,0.733333333333333,2619.015083666,2622.091298833,1,NaN,2622.121981416,2622.145497791,2622.872172375,NaN,NaN
112,17,2,familiarity,0,kitchen,sun_aqeaevwwwjoqhzvl.tif,211,1.5,0,1.95,2622.876908708,2625.306935583,1,NaN,2625.336697958,2625.360262083,2627.303665583,NaN,NaN
112,18,2,familiarity,0,kitchen,sun_auticobqsbwgoppi.tif,214,1.5,0,1.1,2627.322358708,2630.11922375,4,NaN,2630.149797166,2630.173031166,2631.266455208,NaN,NaN
112,19,2,familiarity,0,kitchen,sun_aaxxjlsuzvqlgylf.tif,178,1.5,0,1.31666666666667,2631.274936041,2634.610491666,4,NaN,2634.616413625,2634.634835666,2635.944902791,NaN,NaN
112,20,2,familiarity,0,kitchen,sun_amjjdeyrggfqgmom.tif,210,1.5,0,1.78333333333333,2635.96304,2639.458277625,1,NaN,2639.464222916,2639.482471333,2641.259239791,NaN,NaN
112,21,2,familiarity,0,kitchen,sun_aunzlwrbjumxhwdj.tif,213,1.5,0,1.33333333333333,2641.273900166,2644.611811416,2,NaN,2644.632989208,2644.656152,2645.982881833,NaN,NaN
112,22,2,familiarity,0,kitchen,sun_awcpdzzznmweyyhv.tif,216,1.5,0,0.95,2646.000609541,2649.090635208,2,NaN,2649.096969791,2649.115270375,2650.058611125,NaN,NaN
112,23,2,familiarity,0,kitchen,sun_akcjzhbbjlbogpdi.tif,209,1.5,0,1.93333333333333,2650.062843416,2653.746256458,1,NaN,2653.752091916,2653.770450166,2655.697190833,NaN,NaN
112,24,2,familiarity,0,kitchen,sun_ahywdevtimnqcsln.tif,204,1.5,0,1.28333333333333,2655.715088875,2658.945525625,2,NaN,2658.960192708,2658.979569291,2660.256310166,NaN,NaN
112,25,2,familiarity,0,kitchen,sun_admlmbcdswaszruo.tif,189,1.5,0,1.43333333333333,2660.274577166,2664.098620916,4,NaN,2664.104688125,2664.122963875,2665.549729791,NaN,NaN
