slide,sub1,sub2,pairID,trialID,stim1,stim2,instructionsLoop.thisRepN,instructionsLoop.thisTrialN,instructionsLoop.thisN,instructionsLoop.thisIndex,practice.thisRepN,practice.thisTrialN,practice.thisN,practice.thisIndex,trials.thisRepN,trials.thisTrialN,trials.thisN,trials.thisIndex,thisRow.t,notes,preparation.started,preparation.stopped,instructions.started,startResponse.started,slide_img.started,instructions.stopped,startResponse.keys,startResponse.rt,startResponse.duration,trial.started,polygon.started,polygon_2.started,image1.started,image2.started,rating_1.started,question.started,rating_2.started,question_2.started,block_text.started,trial.stopped,stim1pos,stim2pos,block,rating_1.response,rating_1.rt,rating_2.response,rating_2.rt,ITI.started,text.started,text.stopped,ITI.stopped,practice_over.started,text_2.started,space_practice_over.started,practice_over.stopped,space_practice_over.keys,space_practice_over.rt,space_practice_over.duration,breakBlocks.started,breakBlocks.stopped,startBlock.keys,startBlock.started,startBlock.rt,startBlock.duration,end.started,message_end.started,key_resp.started,end.stopped,key_resp.keys,key_resp.rt,key_resp.duration,participant,session,session_number,date,expName,psychopyVersion,frameRate,expStart,
instructions/Slide2.jpg,,,,,,,0,0,0,0,,,,,,,,,0.02229291599996941,,0.0020146659999227268,0.0021208750004007015,0.0076644580003630836,0.02229291599996941,0.02229291599996941,5.287493124999855,space,5.264864374999888,None,,,,,,,,,,,,,,,,,,,,,,,,,,,,,,,,,,,,,,,,,,,201,kitchen,2,2024-03-18_13h09.11.124,image_similarity_rating,2023.2.3,None,2024-03-18 13h09.27.456878 +0100,
instructions/Slide3.jpg,,,,,,,0,1,1,1,,,,,,,,,5.317047000000457,,,,5.28880829100035,5.317047000000457,5.317047000000457,6.444936083000357,space,1.1276515829995333,None,,,,,,,,,,,,,,,,,,,,,,,,,,,,,,,,,,,,,,,,,,,201,kitchen,2,2024-03-18_13h09.11.124,image_similarity_rating,2023.2.3,None,2024-03-18 13h09.27.456878 +0100,
instructions/Slide4.jpg,,,,,,,0,2,2,2,,,,,,,,,6.465766916000575,,,,6.445575458000349,6.465766916000575,6.465766916000575,7.104257458000575,space,0.6381968750001761,None,,,,,,,,,,,,,,,,,,,,,,,,,,,,,,,,,,,,,,,,,,,201,kitchen,2,2024-03-18_13h09.11.124,image_similarity_rating,2023.2.3,None,2024-03-18 13h09.27.456878 +0100,
instructions/Slide5.jpg,,,,,,,0,3,3,3,,,,,,,,,7.128193041000486,,,,7.105047541000204,7.128193041000486,7.128193041000486,7.782721749999837,space,0.6541735829996469,None,,,,,,,,,,,,,,,,,,,,,,,,,,,,,,,,,,,,,,,,,,,201,kitchen,2,2024-03-18_13h09.11.124,image_similarity_rating,2023.2.3,None,2024-03-18 13h09.27.456878 +0100,
,107,133,practice,9,stimuli/own/kitchen/107_kit.jpg,stimuli/own/kitchen/133_kit.jpg,,,,,0,0,0,8,,,,,7.981587500000387,,,,,,,,,,,7.80145416600044,7.981587500000387,7.981587500000387,7.981587500000387,7.981587500000387,7.981587500000387,7.981587500000387,7.981587500000387,7.981587500000387,7.981587500000387,32.20091833300012,7,-7,0,4.0,23.00816016600038,6.0,8.499115125000571,32.20115395799985,32.21067216600022,32.66251783300049,32.49533470799997,,,,,,,,,,,,,,,,,,,,,201,kitchen,2,2024-03-18_13h09.11.124,image_similarity_rating,2023.2.3,None,2024-03-18 13h09.27.456878 +0100,
,108,133,practice,10,stimuli/own/kitchen/108_kit.jpg,stimuli/own/kitchen/133_kit.jpg,,,,,0,1,1,9,,,,,32.66251783300049,,,,,,,,,,,32.49578945800022,32.66251783300049,32.66251783300049,32.66251783300049,32.66251783300049,32.66251783300049,32.66251783300049,32.66251783300049,32.66251783300049,32.66251783300049,52.89280074999988,-7,7,0,3.0,16.05942637499993,4.0,8.757743709000351,52.89296741599992,52.89570908299993,53.34755683300045,53.182758124999964,,,,,,,,,,,,,,,,,,,,,201,kitchen,2,2024-03-18_13h09.11.124,image_similarity_rating,2023.2.3,None,2024-03-18 13h09.27.456878 +0100,
,128,108,practice,3,stimuli/own/kitchen/128_kit.jpg,stimuli/own/kitchen/108_kit.jpg,,,,,0,2,2,2,,,,,53.34755683300045,,,,,,,,,,,53.18309108300036,53.34755683300045,53.34755683300045,53.34755683300045,53.34755683300045,53.34755683300045,53.34755683300045,53.34755683300045,53.34755683300045,53.34755683300045,60.35934975000055,7,-7,0,3.0,3.1327872499996374,6.0,6.62524462500005,60.35950387499997,60.36244783300026,60.81435095800043,60.64933087500049,,,,,,,,,,,,,,,,,,,,,201,kitchen,2,2024-03-18_13h09.11.124,image_similarity_rating,2023.2.3,None,2024-03-18 13h09.27.456878 +0100,
,107,108,practice,5,stimuli/own/kitchen/107_kit.jpg,stimuli/own/kitchen/108_kit.jpg,,,,,0,3,3,4,,,,,60.81435095800043,,,,,,,,,,,60.64969487500002,60.81435095800043,60.81435095800043,60.81435095800043,60.81435095800043,60.81435095800043,60.81435095800043,60.81435095800043,60.81435095800043,60.81435095800043,72.98874383299972,-7,7,0,2.0,9.293910207999943,3.0,11.986013749999984,72.9888840829999,72.99365804100034,73.44135779099997,73.27811033299986,,,,,,,,,,,,,,,,,,,,,201,kitchen,2,2024-03-18_13h09.11.124,image_similarity_rating,2023.2.3,None,2024-03-18 13h09.27.456878 +0100,
,110,107,practice,4,stimuli/own/kitchen/110_kit.jpg,stimuli/own/kitchen/107_kit.jpg,,,,,0,4,4,3,,,,,73.44135779099997,,,,,,,,,,,73.27840979099983,73.44135779099997,73.44135779099997,73.44135779099997,73.44135779099997,73.44135779099997,73.44135779099997,73.44135779099997,73.44135779099997,73.44135779099997,84.20529483300015,-7,7,0,1.0,7.5708452499993655,5.0,2.725237124999694,84.20545262500036,84.2102820830005,84.6608947499999,84.49609425000017,,,,,,,,,,,,,,,,,,,,,201,kitchen,2,2024-03-18_13h09.11.124,image_similarity_rating,2023.2.3,None,2024-03-18 13h09.27.456878 +0100,
,108,110,practice,8,stimuli/own/kitchen/108_kit.jpg,stimuli/own/kitchen/110_kit.jpg,,,,,0,5,5,7,,,,,84.6608947499999,,,,,,,,,,,84.49660216600023,84.6608947499999,84.6608947499999,84.6608947499999,84.6608947499999,84.6608947499999,84.6608947499999,84.6608947499999,84.6608947499999,84.6608947499999,96.88408991600045,-7,7,0,2.0,9.052403916999538,6.0,12.076329499999702,96.88423291599975,96.89371054100047,97.34519154100053,97.17913200000021,,,,,,,,,,,,,,,,,,,,,201,kitchen,2,2024-03-18_13h09.11.124,image_similarity_rating,2023.2.3,None,2024-03-18 13h09.27.456878 +0100,
,110,133,practice,1,stimuli/own/kitchen/110_kit.jpg,stimuli/own/kitchen/133_kit.jpg,,,,,0,6,6,0,,,,,97.34519154100053,,,,,,,,,,,97.17957816600028,97.34519154100053,97.34519154100053,97.34519154100053,97.34519154100053,97.34519154100053,97.34519154100053,97.34519154100053,97.34519154100053,97.34519154100053,107.52160395800001,7,-7,0,2.0,9.475483874999554,4.0,2.199489125000582,107.52174487499997,107.52733950000038,107.97658537500047,107.81196833300055,,,,,,,,,,,,,,,,,,,,,201,kitchen,2,2024-03-18_13h09.11.124,image_similarity_rating,2023.2.3,None,2024-03-18 13h09.27.456878 +0100,
,110,128,practice,2,stimuli/own/kitchen/110_kit.jpg,stimuli/own/kitchen/128_kit.jpg,,,,,0,7,7,1,,,,,107.97658537500047,,,,,,,,,,,107.81234541600043,107.97658537500047,107.97658537500047,107.97658537500047,107.97658537500047,107.97658537500047,107.97658537500047,107.97658537500047,107.97658537500047,107.97658537500047,118.73791429100038,7,-7,0,2.0,6.3526575840005535,6.0,10.548703499999647,118.73805458300012,118.7434673329999,119.19511566599977,119.02865829100028,,,,,,,,,,,,,,,,,,,,,201,kitchen,2,2024-03-18_13h09.11.124,image_similarity_rating,2023.2.3,None,2024-03-18 13h09.27.456878 +0100,
,128,133,practice,6,stimuli/own/kitchen/128_kit.jpg,stimuli/own/kitchen/133_kit.jpg,,,,,0,8,8,5,,,,,119.19511566599977,,,,,,,,,,,119.02910316599991,119.19511566599977,119.19511566599977,119.19511566599977,119.19511566599977,119.19511566599977,119.19511566599977,119.19511566599977,119.19511566599977,119.19511566599977,125.70083599999998,-7,7,0,3.0,4.3157132919996,4.0,1.8352118330003577,125.70097925000027,125.71017804100029,126.1624554580003,125.99601091600016,,,,,,,,,,,,,,,,,,,,,201,kitchen,2,2024-03-18_13h09.11.124,image_similarity_rating,2023.2.3,None,2024-03-18 13h09.27.456878 +0100,
,107,128,practice,7,stimuli/own/kitchen/107_kit.jpg,stimuli/own/kitchen/128_kit.jpg,,,,,0,9,9,6,,,,,126.1624554580003,,,,,,,,,,,125.99646120800026,126.1624554580003,126.1624554580003,126.1624554580003,126.1624554580003,126.1624554580003,126.1624554580003,126.1624554580003,126.1624554580003,126.1624554580003,131.1331127909998,-7,7,0,2.0,2.978942540999924,5.0,4.822714208999969,131.1332497909998,131.14373245800016,131.43288429099994,131.42803749999985,,,,,,,,,,,,,,,,,,,,,201,kitchen,2,2024-03-18_13h09.11.124,image_similarity_rating,2023.2.3,None,2024-03-18 13h09.27.456878 +0100,
,,,,,,,,,,,,,,,,,,,,,,,,,,,,,,,,,,,,,,,,,,,,,,,,,,,,131.4281294580005,131.43288429099994,131.43288429099994,132.2012272080001,space,0.7680448329992942,None,,,,,,,,,,,,,,201,kitchen,2,2024-03-18_13h09.11.124,image_similarity_rating,2023.2.3,None,2024-03-18 13h09.27.456878 +0100,
,114,126,306,306,stimuli/own/kitchen/114_kit.jpg,stimuli/own/kitchen/126_kit.jpg,,,,,,,,,0,0,0,305,132.25192320800033,,,,,,,,,,,132.54563912499998,132.71923516600054,132.71923516600054,132.71923516600054,132.71923516600054,132.71923516600054,132.71923516600054,132.71923516600054,132.71923516600054,132.71923516600054,152.09230929099976,-7,7,1,4.0,17.096823959000176,6.0,9.930918416999702,132.24975379100033,132.25192320800033,132.71923516600054,132.54562229099975,,,,,,,,132.2356877080001,132.24945783299972,None,,,,,,,,,,,201,kitchen,2,2024-03-18_13h09.11.124,image_similarity_rating,2023.2.3,None,2024-03-18 13h09.27.456878 +0100,
,102,112,41,41,stimuli/own/kitchen/102_kit.jpg,stimuli/own/kitchen/112_kit.jpg,,,,,,,,,0,1,1,40,152.10078704100033,,,,,,,,,,,152.39470058300049,152.56515899999977,152.56515899999977,152.56515899999977,152.56515899999977,152.56515899999977,152.56515899999977,152.56515899999977,152.56515899999977,152.56515899999977,162.95436629100004,7,-7,1,3.0,4.686522875000264,5.0,8.416857707999952,152.09892583300007,152.10078704100033,152.56515899999977,152.39468374999979,,,,,,,,152.0929165409998,152.0988738750002,None,,,,,,,,,,,201,kitchen,2,2024-03-18_13h09.11.124,image_similarity_rating,2023.2.3,None,2024-03-18 13h09.27.456878 +0100,
,132,140,566,566,stimuli/own/kitchen/132_kit.jpg,stimuli/own/kitchen/140_kit.jpg,,,,,,,,,0,2,2,565,162.9599702080004,,,,,,,,,,,163.24561408299996,163.41035125000053,163.41035125000053,163.41035125000053,163.41035125000053,163.41035125000053,163.41035125000053,163.41035125000053,163.41035125000053,163.41035125000053,173.65476408300037,7,-7,1,2.0,10.130759833999946,4.0,5.49521170800017,162.9580994580001,162.9599702080004,163.41035125000053,163.24559987500015,,,,,,,,162.9545912499998,162.95805237500008,None,,,,,,,,,,,201,kitchen,2,2024-03-18_13h09.11.124,image_similarity_rating,2023.2.3,None,2024-03-18 13h09.27.456878 +0100,
,109,113,192,192,stimuli/own/kitchen/109_kit.jpg,stimuli/own/kitchen/113_kit.jpg,,,,,,,,,0,3,3,191,173.6769720000002,,,,,,,,,,,173.96075379100057,174.1265785000005,174.1265785000005,174.1265785000005,174.1265785000005,174.1265785000005,174.1265785000005,174.1265785000005,174.1265785000005,174.1265785000005,186.57156791600028,7,-7,1,1.0,8.31394420900051,3.0,12.269347667000147,173.65847912499976,173.6769720000002,,173.96073358300055,,,,,,,,173.65498566600036,173.65842933299973,None,,,,,,,,,,,201,kitchen,2,2024-03-18_13h09.11.124,image_similarity_rating,2023.2.3,None,2024-03-18 13h09.27.456878 +0100,
,132,141,567,567,stimuli/own/kitchen/132_kit.jpg,stimuli/own/kitchen/141_kit.jpg,,,,,,,,,0,4,4,566,186.5934738750002,,,,,,,,,,,186.87774450000052,187.0460311249999,187.0460311249999,187.0460311249999,187.0460311249999,187.0460311249999,187.0460311249999,187.0460311249999,187.0460311249999,187.0460311249999,202.39230108300035,-7,7,1,1.0,13.535362749999877,3.0,8.247973874999843,186.57527412499985,186.5934738750002,,186.87772124999992,,,,,,,,186.57178912500058,186.5752269579998,None,,,,,,,,,,,201,kitchen,2,2024-03-18_13h09.11.124,image_similarity_rating,2023.2.3,None,2024-03-18 13h09.27.456878 +0100,
,111,122,227,227,stimuli/own/kitchen/111_kit.jpg,stimuli/own/kitchen/122_kit.jpg,,,,,,,,,0,5,5,226,202.3979455409999,,,,,,,,,,,202.68250570800046,202.84516420799991,202.84516420799991,202.84516420799991,202.84516420799991,202.84516420799991,202.84516420799991,202.84516420799991,202.84516420799991,202.84516420799991,210.94227975000013,7,-7,1,3.0,8.086400875000436,3.0,3.9340066249997108,202.3961661250005,202.3979455409999,202.84516420799991,202.68249516600008,,,,,,,,202.39252487500016,202.39611904100002,None,,,,,,,,,,,201,kitchen,2,2024-03-18_13h09.11.124,image_similarity_rating,2023.2.3,None,2024-03-18 13h09.27.456878 +0100,
,126,141,517,517,stimuli/own/kitchen/126_kit.jpg,stimuli/own/kitchen/141_kit.jpg,,,,,,,,,0,6,6,516,210.94810208299987,,,,,,,,,,,211.23170329100049,211.39834479100045,211.39834479100045,211.39834479100045,211.39834479100045,211.39834479100045,211.39834479100045,211.39834479100045,211.39834479100045,211.39834479100045,232.36246270799984,7,-7,1,4.0,7.309896959000071,3.0,20.802756084000066,210.9460035410002,210.94810208299987,211.39834479100045,211.2316907909999,,,,,,,,210.94249954099996,210.9459555829999,None,,,,,,,,,,,201,kitchen,2,2024-03-18_13h09.11.124,image_similarity_rating,2023.2.3,None,2024-03-18 13h09.27.456878 +0100,
,125,140,503,503,stimuli/own/kitchen/125_kit.jpg,stimuli/own/kitchen/140_kit.jpg,,,,,,,,,0,7,7,502,232.36826720800036,,,,,,,,,,,232.6612493749999,232.82453820800038,232.82453820800038,232.82453820800038,232.82453820800038,232.82453820800038,232.82453820800038,232.82453820800038,232.82453820800038,232.82453820800038,245.18741070800024,-7,7,1,4.0,9.961154833000364,3.0,2.100126000000273,232.36619516600058,232.36826720800036,232.82453820800038,232.66123558300023,,,,,,,,232.36268695800027,232.36614770800043,None,,,,,,,,,,,201,kitchen,2,2024-03-18_13h09.11.124,image_similarity_rating,2023.2.3,None,2024-03-18 13h09.27.456878 +0100,
,114,140,318,318,stimuli/own/kitchen/114_kit.jpg,stimuli/own/kitchen/140_kit.jpg,,,,,,,,,0,8,8,317,245.19293820799976,,,,,,,,,,,245.47789987499982,245.64548845799982,245.64548845799982,245.64548845799982,245.64548845799982,245.64548845799982,245.64548845799982,245.64548845799982,245.64548845799982,245.64548845799982,255.74621645800016,7,-7,1,4.0,8.117481999999654,3.0,9.887564249999741,245.19112566600052,245.19293820799976,245.64548845799982,245.47788333300014,,,,,,,,245.18763541600038,245.19107766599973,None,,,,,,,,,,,201,kitchen,2,2024-03-18_13h09.11.124,image_similarity_rating,2023.2.3,None,2024-03-18 13h09.27.456878 +0100,
,119,141,405,405,stimuli/own/kitchen/119_kit.jpg,stimuli/own/kitchen/141_kit.jpg,,,,,,,,,0,9,9,404,255.75223641600041,,,,,,,,,,,256.0451315,256.2088953749999,256.2088953749999,256.2088953749999,256.2088953749999,256.2088953749999,256.2088953749999,256.2088953749999,256.2088953749999,256.2088953749999,270.95453262499996,-7,7,1,1.0,9.130557999999837,2.0,14.596837334000156,255.74993320800058,255.75223641600041,256.2088953749999,256.04511858299975,,,,,,,,255.74644466600057,255.74988575000043,None,,,,,,,,,,,201,kitchen,2,2024-03-18_13h09.11.124,image_similarity_rating,2023.2.3,None,2024-03-18 13h09.27.456878 +0100,
,102,109,39,39,stimuli/own/kitchen/102_kit.jpg,stimuli/own/kitchen/109_kit.jpg,,,,,,,,,0,10,10,38,270.96098604100007,,,,,,,,,,,271.24536437500046,271.41125699999975,271.41125699999975,271.41125699999975,271.41125699999975,271.41125699999975,271.41125699999975,271.41125699999975,271.41125699999975,271.41125699999975,289.39686662500026,7,-7,1,1.0,17.834782124999947,5.0,9.277048040999944,270.9582484580005,270.96098604100007,271.41125699999975,271.2453505829999,,,,,,,,270.95475325000007,270.95820037500016,None,,,,,,,,,,,201,kitchen,2,2024-03-18_13h09.11.124,image_similarity_rating,2023.2.3,None,2024-03-18 13h09.27.456878 +0100,
,116,130,332,332,stimuli/own/kitchen/116_kit.jpg,stimuli/own/kitchen/130_kit.jpg,,,,,,,,,0,11,11,331,289.4095506250005,,,,,,,,,,,289.69416041600016,289.85992504099977,289.85992504099977,289.85992504099977,289.85992504099977,289.85992504099977,289.85992504099977,289.85992504099977,289.85992504099977,289.85992504099977,308.3454130830005,7,-7,1,5.0,14.652227208000113,2.0,18.322553166000034,289.4006822500005,289.4095506250005,289.85992504099977,289.6941413330005,,,,,,,,289.39708866599995,289.4006347909999,None,,,,,,,,,,,201,kitchen,2,2024-03-18_13h09.11.124,image_similarity_rating,2023.2.3,None,2024-03-18 13h09.27.456878 +0100,
,124,129,479,479,stimuli/own/kitchen/124_kit.jpg,stimuli/own/kitchen/129_kit.jpg,,,,,,,,,0,12,12,478,308.3511555410005,,,,,,,,,,,308.6447118750002,308.8084453749998,308.8084453749998,308.8084453749998,308.8084453749998,308.8084453749998,308.8084453749998,308.8084453749998,308.8084453749998,308.8084453749998,331.5999916660003,-7,7,1,2.0,19.427772832999835,2.0,22.7051782919998,308.34912925000026,308.3511555410005,308.8084453749998,308.644699208,,,,,,,,308.34563587499997,308.34908141600044,None,,,,,,,,,,,201,kitchen,2,2024-03-18_13h09.11.124,image_similarity_rating,2023.2.3,None,2024-03-18 13h09.27.456878 +0100,
,106,131,180,180,stimuli/own/kitchen/106_kit.jpg,stimuli/own/kitchen/131_kit.jpg,,,,,,,,,0,13,13,179,331.6092367500005,,,,,,,,,,,331.89405575,332.05711583300035,332.05711583300035,332.05711583300035,332.05711583300035,332.05711583300035,332.05711583300035,332.05711583300035,332.05711583300035,332.05711583300035,350.1331921250003,7,-7,1,3.0,17.991341790999286,5.0,5.422032666000632,331.6037114999999,331.6092367500005,332.05711583300035,331.8940422080004,,,,,,,,331.60021745799986,331.60366433299987,None,,,,,,,,,,,201,kitchen,2,2024-03-18_13h09.11.124,image_similarity_rating,2023.2.3,None,2024-03-18 13h09.27.456878 +0100,
,103,141,99,99,stimuli/own/kitchen/103_kit.jpg,stimuli/own/kitchen/141_kit.jpg,,,,,,,,,0,14,14,98,350.1426212080005,,,,,,,,,,,350.4270624159999,350.5914534579997,350.5914534579997,350.5914534579997,350.5914534579997,350.5914534579997,350.5914534579997,350.5914534579997,350.5914534579997,350.5914534579997,361.81211412500033,7,-7,1,4.0,7.203646083000422,3.0,11.060074207999605,350.136932333,350.1426212080005,350.5914534579997,350.42704058300023,,,,,,,,350.1334170830005,350.13688516599996,None,,,,,,,,,,,201,kitchen,2,2024-03-18_13h09.11.124,image_similarity_rating,2023.2.3,None,2024-03-18 13h09.27.456878 +0100,
,140,141,595,595,stimuli/own/kitchen/140_kit.jpg,stimuli/own/kitchen/141_kit.jpg,,,,,,,,,0,15,15,594,361.81809970799986,,,,,,,,,,,362.1109742910003,362.27446425000016,362.27446425000016,362.27446425000016,362.27446425000016,362.27446425000016,362.27446425000016,362.27446425000016,362.27446425000016,362.27446425000016,374.34487604100013,7,-7,1,4.0,11.740967749999982,3.0,4.057539165999515,361.81619466600023,361.81809970799986,362.27446425000016,362.11096050000015,,,,,,,,361.81233883300047,361.8161423749998,None,,,,,,,,,,,201,kitchen,2,2024-03-18_13h09.11.124,image_similarity_rating,2023.2.3,None,2024-03-18 13h09.27.456878 +0100,
,131,139,557,557,stimuli/own/kitchen/131_kit.jpg,stimuli/own/kitchen/139_kit.jpg,,,,,,,,,0,16,16,556,374.3506944159999,,,,,,,,,,,374.6439879159998,374.80744587499976,374.80744587499976,374.80744587499976,374.80744587499976,374.80744587499976,374.80744587499976,374.80744587499976,374.80744587499976,374.80744587499976,382.68001241599995,7,-7,1,1.0,7.8107627909994335,3.0,3.2345270830001027,374.3486197909997,374.3506944159999,374.80744587499976,374.64397445800023,,,,,,,,374.3450997500004,374.3485726250001,None,,,,,,,,,,,201,kitchen,2,2024-03-18_13h09.11.124,image_similarity_rating,2023.2.3,None,2024-03-18 13h09.27.456878 +0100,
,117,119,344,344,stimuli/own/kitchen/117_kit.jpg,stimuli/own/kitchen/119_kit.jpg,,,,,,,,,0,17,17,343,382.6924402499999,,,,,,,,,,,382.9776745830004,383.1438947080005,383.1438947080005,383.1438947080005,383.1438947080005,383.1438947080005,383.1438947080005,383.1438947080005,383.1438947080005,383.1438947080005,395.1536661250002,-7,7,1,2.0,6.519081666000602,3.0,11.56111887499992,382.68377779100047,382.6924402499999,383.1438947080005,382.9776606659998,,,,,,,,382.6802363329998,382.6837305830004,None,,,,,,,,,,,201,kitchen,2,2024-03-18_13h09.11.124,image_similarity_rating,2023.2.3,None,2024-03-18 13h09.27.456878 +0100,
,132,136,562,562,stimuli/own/kitchen/132_kit.jpg,stimuli/own/kitchen/136_kit.jpg,,,,,,,,,0,18,18,561,395.17572166599984,,,,,,,,,,,395.4599207500005,395.62720549999995,395.62720549999995,395.62720549999995,395.62720549999995,395.62720549999995,395.62720549999995,395.62720549999995,395.62720549999995,395.62720549999995,405.1953972910005,-7,7,1,2.0,9.576225832999626,4.0,4.725040917000115,395.1573777909998,395.17572166599984,,395.459901833,,,,,,,,395.1538876659997,395.1573297499999,None,,,,,,,,,,,201,kitchen,2,2024-03-18_13h09.11.124,image_similarity_rating,2023.2.3,None,2024-03-18 13h09.27.456878 +0100,
,137,140,588,588,stimuli/own/kitchen/137_kit.jpg,stimuli/own/kitchen/140_kit.jpg,,,,,,,,,0,19,19,587,405.2090238330002,,,,,,,,,,,405.4944144159999,405.6587440410003,405.6587440410003,405.6587440410003,405.6587440410003,405.6587440410003,405.6587440410003,405.6587440410003,405.6587440410003,405.6587440410003,417.5320470830002,7,-7,1,1.0,2.9527505000005476,2.0,11.800071292000212,405.1995472910003,405.2090238330002,405.6587440410003,405.4944005409998,,,,,,,,405.19565133300057,405.19949825000003,None,,,,,,,,,,,201,kitchen,2,2024-03-18_13h09.11.124,image_similarity_rating,2023.2.3,None,2024-03-18 13h09.27.456878 +0100,
,138,140,591,591,stimuli/own/kitchen/138_kit.jpg,stimuli/own/kitchen/140_kit.jpg,,,,,,,,,0,20,20,590,417.54247991600005,,,,,,,,,,,417.82782629099984,417.9925832079998,417.9925832079998,417.9925832079998,417.9925832079998,417.9925832079998,417.9925832079998,417.9925832079998,417.9925832079998,417.9925832079998,439.1699827909997,-7,7,1,7.0,19.30757970800005,3.0,21.12990329100012,417.5357642079998,417.54247991600005,417.9925832079998,417.8278137080006,,,,,,,,417.53226979100054,417.5357174159999,None,,,,,,,,,,,201,kitchen,2,2024-03-18_13h09.11.124,image_similarity_rating,2023.2.3,None,2024-03-18 13h09.27.456878 +0100,
,102,114,43,43,stimuli/own/kitchen/102_kit.jpg,stimuli/own/kitchen/114_kit.jpg,,,,,,,,,0,21,21,42,439.1758453749999,,,,,,,,,,,439.4611085000006,439.6258035000001,439.6258035000001,439.6258035000001,439.6258035000001,439.6258035000001,439.6258035000001,439.6258035000001,439.6258035000001,439.6258035000001,449.38266445800036,7,-7,1,6.0,7.652346333999958,3.0,9.707301333999567,439.17369775000043,439.1758453749999,439.6258035000001,439.46109058300044,,,,,,,,439.17020491600033,439.1736510410001,None,,,,,,,,,,,201,kitchen,2,2024-03-18_13h09.11.124,image_similarity_rating,2023.2.3,None,2024-03-18 13h09.27.456878 +0100,
,103,140,98,98,stimuli/own/kitchen/103_kit.jpg,stimuli/own/kitchen/140_kit.jpg,,,,,,,,,0,22,22,97,449.39215175000027,,,,,,,,,,,449.6768715830003,449.84037579100004,449.84037579100004,449.84037579100004,449.84037579100004,449.84037579100004,449.84037579100004,449.84037579100004,449.84037579100004,449.84037579100004,457.1788994999997,-7,7,1,4.0,7.010888540999986,6.0,2.9939887499995166,449.38641587500024,449.39215175000027,449.84037579100004,449.67685725000047,,,,,,,,449.38289416600037,449.38636883300023,None,,,,,,,,,,,201,kitchen,2,2024-03-18_13h09.11.124,image_similarity_rating,2023.2.3,None,2024-03-18 13h09.27.456878 +0100,
,109,123,201,201,stimuli/own/kitchen/109_kit.jpg,stimuli/own/kitchen/123_kit.jpg,,,,,,,,,0,23,23,200,457.1846084580002,,,,,,,,,,,457.4768314160001,457.6437194580003,457.6437194580003,457.6437194580003,457.6437194580003,457.6437194580003,457.6437194580003,457.6437194580003,457.6437194580003,457.6437194580003,477.5578340410002,7,-7,1,2.0,13.578828624999915,5.0,19.86319787499997,457.1826791660005,457.1846084580002,457.6437194580003,457.4768140410006,,,,,,,,457.17912395799976,457.18263258299976,None,,,,,,,,,,,201,kitchen,2,2024-03-18_13h09.11.124,image_similarity_rating,2023.2.3,None,2024-03-18 13h09.27.456878 +0100,
,126,127,505,505,stimuli/own/kitchen/126_kit.jpg,stimuli/own/kitchen/127_kit.jpg,,,,,,,,,0,24,24,504,477.56385766600033,,,,,,,,,,,477.8473227909999,478.01207141600025,478.01207141600025,478.01207141600025,478.01207141600025,478.01207141600025,478.01207141600025,478.01207141600025,478.01207141600025,478.01207141600025,492.7111874580005,7,-7,1,4.0,10.88534745800007,6.0,5.9194419590003235,477.56157862500004,477.56385766600033,478.01207141600025,477.8473118330003,,,,,,,,477.55805583300025,477.56153112500033,None,,,,,,,,,,,201,kitchen,2,2024-03-18_13h09.11.124,image_similarity_rating,2023.2.3,None,2024-03-18 13h09.27.456878 +0100,
,116,124,327,327,stimuli/own/kitchen/116_kit.jpg,stimuli/own/kitchen/124_kit.jpg,,,,,,,,,0,25,25,326,492.7171760829997,,,,,,,,,,,493.0107594159999,493.1757462080004,493.1757462080004,493.1757462080004,493.1757462080004,493.1757462080004,493.1757462080004,493.1757462080004,493.1757462080004,493.1757462080004,501.20285500000045,7,-7,1,2.0,7.787511125000492,2.0,3.1113862909996897,492.7149356660002,492.7171760829997,493.1757462080004,493.01074612499997,,,,,,,,492.7114117500005,492.7148884999997,None,,,,,,,,,,,201,kitchen,2,2024-03-18_13h09.11.124,image_similarity_rating,2023.2.3,None,2024-03-18 13h09.27.456878 +0100,
,106,139,187,187,stimuli/own/kitchen/106_kit.jpg,stimuli/own/kitchen/139_kit.jpg,,,,,,,,,0,26,26,186,501.20850083300047,,,,,,,,,,,501.49380920800013,501.65841604100024,501.65841604100024,501.65841604100024,501.65841604100024,501.65841604100024,501.65841604100024,501.65841604100024,501.65841604100024,501.65841604100024,512.8781877500005,-7,7,1,1.0,7.361056708999968,6.0,10.993109166999602,501.2066693329998,501.20850083300047,501.65841604100024,501.4937961659998,,,,,,,,501.2030786659998,501.20662216599976,None,,,,,,,,,,,201,kitchen,2,2024-03-18_13h09.11.124,image_similarity_rating,2023.2.3,None,2024-03-18 13h09.27.456878 +0100,
,113,137,291,291,stimuli/own/kitchen/113_kit.jpg,stimuli/own/kitchen/137_kit.jpg,,,,,,,,,0,27,27,290,512.8919514580002,,,,,,,,,,,513.1771370409997,513.3435599160002,513.3435599160002,513.3435599160002,513.3435599160002,513.3435599160002,513.3435599160002,513.3435599160002,513.3435599160002,513.3435599160002,522.2324712079999,-7,7,1,1.0,8.736406082999565,5.0,2.515903917000287,512.882240166,512.8919514580002,513.3435599160002,513.1771185830003,,,,,,,,512.8784124160002,512.8821885830002,None,,,,,,,,,,,201,kitchen,2,2024-03-18_13h09.11.124,image_similarity_rating,2023.2.3,None,2024-03-18 13h09.27.456878 +0100,
,111,121,226,226,stimuli/own/kitchen/111_kit.jpg,stimuli/own/kitchen/121_kit.jpg,,,,,,,,,0,28,28,225,522.2418943749999,,,,,,,,,,,522.5272987500002,522.6923657910002,522.6923657910002,522.6923657910002,522.6923657910002,522.6923657910002,522.6923657910002,522.6923657910002,522.6923657910002,522.6923657910002,538.2200681250006,-7,7,1,4.0,11.530654832999971,4.0,15.429040250000071,522.2361951660005,522.2418943749999,522.6923657910002,522.5272862080001,,,,,,,,522.2326935000001,522.2361477080003,None,,,,,,,,,,,201,kitchen,2,2024-03-18_13h09.11.124,image_similarity_rating,2023.2.3,None,2024-03-18 13h09.27.456878 +0100,
,109,119,197,197,stimuli/own/kitchen/109_kit.jpg,stimuli/own/kitchen/119_kit.jpg,,,,,,,,,0,29,29,196,538.2265358330005,,,,,,,,,,,538.5098987910005,538.6765025000004,538.6765025000004,538.6765025000004,538.6765025000004,538.6765025000004,538.6765025000004,538.6765025000004,538.6765025000004,538.6765025000004,550.2276526659998,-7,7,1,2.0,11.4366561249999,6.0,2.477578541999719,538.223758958,538.2265358330005,538.6765025000004,538.5098845829998,,,,,,,,538.220287958,538.223711916,None,,,,,,,,,,,201,kitchen,2,2024-03-18_13h09.11.124,image_similarity_rating,2023.2.3,None,2024-03-18 13h09.27.456878 +0100,
,124,131,481,481,stimuli/own/kitchen/124_kit.jpg,stimuli/own/kitchen/131_kit.jpg,,,,,,,,,0,30,30,480,550.2333761250002,,,,,,,,,,,550.526989041,550.692290166,550.692290166,550.692290166,550.692290166,550.692290166,550.692290166,550.692290166,550.692290166,550.692290166,564.3478565000005,-7,7,1,3.0,13.578604209000332,7.0,7.353852207999807,550.2314577080006,550.2333761250002,550.692290166,550.5269710410003,,,,,,,,550.2278737910001,550.2314102500004,None,,,,,,,,,,,201,kitchen,2,2024-03-18_13h09.11.124,image_similarity_rating,2023.2.3,None,2024-03-18 13h09.27.456878 +0100,
,104,131,121,614,stimuli/own/kitchen/104_kit.jpg,stimuli/own/kitchen/131_kit.jpg,,,,,,,,,0,31,31,613,564.3583925829998,,,,,,,,,,,564.6436318750002,564.8083000409997,564.8083000409997,564.8083000409997,564.8083000409997,564.8083000409997,564.8083000409997,564.8083000409997,564.8083000409997,564.8083000409997,576.6739117500001,7,-7,1,2.0,11.026289790999726,6.0,4.883874000000105,564.3515544580005,564.3583925829998,564.8083000409997,564.6436174580003,,,,,,,,564.3480815410003,564.3515075410005,None,,,,,,,,,,,201,kitchen,2,2024-03-18_13h09.11.124,image_similarity_rating,2023.2.3,None,2024-03-18 13h09.27.456878 +0100,
,123,131,466,466,stimuli/own/kitchen/123_kit.jpg,stimuli/own/kitchen/131_kit.jpg,,,,,,,,,0,32,32,465,576.679445625,,,,,,,,,,,576.9641569579999,577.1286245000001,577.1286245000001,577.1286245000001,577.1286245000001,577.1286245000001,577.1286245000001,577.1286245000001,577.1286245000001,577.1286245000001,588.6406194580004,7,-7,1,4.0,7.266158874999746,3.0,11.428215834000184,576.6776747499998,576.679445625,577.1286245000001,576.9641406660003,,,,,,,,576.6741584580004,576.6776275000002,None,,,,,,,,,,,201,kitchen,2,2024-03-18_13h09.11.124,image_similarity_rating,2023.2.3,None,2024-03-18 13h09.27.456878 +0100,
,109,126,204,204,stimuli/own/kitchen/109_kit.jpg,stimuli/own/kitchen/126_kit.jpg,,,,,,,,,0,33,33,203,588.6464998749998,,,,,,,,,,,588.9299362080001,589.0931011660005,589.0931011660005,589.0931011660005,589.0931011660005,589.0931011660005,589.0931011660005,589.0931011660005,589.0931011660005,589.0931011660005,598.4998913750005,-7,7,1,2.0,9.321839000000182,4.0,3.099011541999971,588.6444096249998,588.6464998749998,589.0931011660005,588.9299256250006,,,,,,,,588.6408646660002,588.6443624160001,None,,,,,,,,,,,201,kitchen,2,2024-03-18_13h09.11.124,image_similarity_rating,2023.2.3,None,2024-03-18 13h09.27.456878 +0100,
,118,135,379,379,stimuli/own/kitchen/118_kit.jpg,stimuli/own/kitchen/135_kit.jpg,,,,,,,,,0,34,34,378,598.5082791249997,,,,,,,,,,,598.7939240830001,598.9592867500005,598.9592867500005,598.9592867500005,598.9592867500005,598.9592867500005,598.9592867500005,598.9592867500005,598.9592867500005,598.9592867500005,608.8075088329997,-7,7,1,6.0,4.5127620829998705,4.0,9.734533416999511,598.5037777079997,598.5082791249997,598.9592867500005,598.7939090830005,,,,,,,,598.500118041,598.5037297079998,None,,,,,,,,,,,201,kitchen,2,2024-03-18_13h09.11.124,image_similarity_rating,2023.2.3,None,2024-03-18 13h09.27.456878 +0100,
,139,141,594,594,stimuli/own/kitchen/139_kit.jpg,stimuli/own/kitchen/141_kit.jpg,,,,,,,,,0,35,35,593,608.8130269160001,,,,,,,,,,,609.0965430000006,609.2619195409998,609.2619195409998,609.2619195409998,609.2619195409998,609.2619195409998,609.2619195409998,609.2619195409998,609.2619195409998,609.2619195409998,621.4621750830001,-7,7,1,2.0,11.797632457999498,5.0,6.24796354099999,608.8112457910001,608.8130269160001,609.2619195409998,609.0965322080001,,,,,,,,608.8077337080003,608.811198333,None,,,,,,,,,,,201,kitchen,2,2024-03-18_13h09.11.124,image_similarity_rating,2023.2.3,None,2024-03-18 13h09.27.456878 +0100,
,130,134,543,543,stimuli/own/kitchen/130_kit.jpg,stimuli/own/kitchen/134_kit.jpg,,,,,,,,,0,36,36,542,621.4749391249998,,,,,,,,,,,621.7598963330001,621.9252690410003,621.9252690410003,621.9252690410003,621.9252690410003,621.9252690410003,621.9252690410003,621.9252690410003,621.9252690410003,621.9252690410003,632.8274598329999,7,-7,1,4.0,5.385802374999912,4.0,10.716024833999654,621.4660706249997,621.4749391249998,621.9252690410003,621.7598823750004,,,,,,,,621.4624013749999,621.466023291,None,,,,,,,,,,,201,kitchen,2,2024-03-18_13h09.11.124,image_similarity_rating,2023.2.3,None,2024-03-18 13h09.27.456878 +0100,
,119,137,401,401,stimuli/own/kitchen/119_kit.jpg,stimuli/own/kitchen/137_kit.jpg,,,,,,,,,0,37,37,400,632.8333762500006,,,,,,,,,,,633.126540833,633.2922918330005,633.2922918330005,633.2922918330005,633.2922918330005,633.2922918330005,633.2922918330005,633.2922918330005,633.2922918330005,633.2922918330005,641.87728625,7,-7,1,3.0,7.445076416999655,3.0,3.7611860420001904,632.8312651659999,632.8333762500006,633.2922918330005,633.1265275830001,,,,,,,,632.8276884160005,632.8312156660004,None,,,,,,,,,,,201,kitchen,2,2024-03-18_13h09.11.124,image_similarity_rating,2023.2.3,None,2024-03-18 13h09.27.456878 +0100,
,101,109,6,6,stimuli/own/kitchen/101_kit.jpg,stimuli/own/kitchen/109_kit.jpg,,,,,,,,,0,38,38,5,641.8827553749998,,,,,,,,,,,642.1759863750003,642.3415222499998,642.3415222499998,642.3415222499998,642.3415222499998,642.3415222499998,642.3415222499998,642.3415222499998,642.3415222499998,642.3415222499998,648.3278354579998,-7,7,1,2.0,3.6667354589999377,3.0,5.835562125000251,641.8809817910005,641.8827553749998,642.3415222499998,642.175964041,,,,,,,,641.8775077910004,641.8809352500002,None,,,,,,,,,,,201,kitchen,2,2024-03-18_13h09.11.124,image_similarity_rating,2023.2.3,None,2024-03-18 13h09.27.456878 +0100,
,134,141,574,574,stimuli/own/kitchen/134_kit.jpg,stimuli/own/kitchen/141_kit.jpg,,,,,,,,,0,39,39,573,648.3335649159999,,,,,,,,,,,648.6261455000003,648.7885960410003,648.7885960410003,648.7885960410003,648.7885960410003,648.7885960410003,648.7885960410003,648.7885960410003,648.7885960410003,648.7885960410003,661.1327250410004,7,-7,1,5.0,5.3707150410000395,3.0,12.331329833999916,648.3316217910005,648.3335649159999,648.7885960410003,648.6261318750003,,,,,,,,648.3280584579998,648.331574541,None,,,,,,,,,,,201,kitchen,2,2024-03-18_13h09.11.124,image_similarity_rating,2023.2.3,None,2024-03-18 13h09.27.456878 +0100,
,121,140,441,441,stimuli/own/kitchen/121_kit.jpg,stimuli/own/kitchen/140_kit.jpg,,,,,,,,,0,40,40,440,661.141426958,,,,,,,,,,,661.4264369160001,661.5914957080004,661.5914957080004,661.5914957080004,661.5914957080004,661.5914957080004,661.5914957080004,661.5914957080004,661.5914957080004,661.5914957080004,673.702106666,-7,7,1,2.0,11.631977541999731,5.0,1.9723992500003078,661.136571125,661.141426958,661.5914957080004,661.4264187079998,,,,,,,,661.132946791,661.1365242080001,None,,,,,,,,,,,201,kitchen,2,2024-03-18_13h09.11.124,image_similarity_rating,2023.2.3,None,2024-03-18 13h09.27.456878 +0100,
,131,132,551,551,stimuli/own/kitchen/131_kit.jpg,stimuli/own/kitchen/132_kit.jpg,,,,,,,,,0,41,41,550,673.7076928750002,,,,,,,,,,,673.9929553330003,674.1578639159998,674.1578639159998,674.1578639159998,674.1578639159998,674.1578639159998,674.1578639159998,674.1578639159998,674.1578639159998,674.1578639159998,686.8327605410004,-7,7,1,4.0,12.481135375000122,3.0,6.418884249999792,673.7058071660003,673.7076928750002,674.1578639159998,673.9929418749998,,,,,,,,673.7023278750003,673.7057597499997,None,,,,,,,,,,,201,kitchen,2,2024-03-18_13h09.11.124,image_similarity_rating,2023.2.3,None,2024-03-18 13h09.27.456878 +0100,
,127,135,523,523,stimuli/own/kitchen/127_kit.jpg,stimuli/own/kitchen/135_kit.jpg,,,,,,,,,0,42,42,522,686.8409722910001,,,,,,,,,,,687.1258807909999,687.2902583750001,687.2902583750001,687.2902583750001,687.2902583750001,687.2902583750001,687.2902583750001,687.2902583750001,687.2902583750001,687.2902583750001,698.8405439160006,-7,7,1,4.0,4.368050416999722,3.0,11.339166125000702,686.8364784579999,686.8409722910001,687.2902583750001,687.125870291,,,,,,,,686.8329840000006,686.836431875,None,,,,,,,,,,,201,kitchen,2,2024-03-18_13h09.11.124,image_similarity_rating,2023.2.3,None,2024-03-18 13h09.27.456878 +0100,
,111,119,224,224,stimuli/own/kitchen/111_kit.jpg,stimuli/own/kitchen/119_kit.jpg,,,,,,,,,0,43,43,223,698.8464936660002,,,,,,,,,,,699.1300572079999,699.2924054160003,699.2924054160003,699.2924054160003,699.2924054160003,699.2924054160003,699.2924054160003,699.2924054160003,699.2924054160003,699.2924054160003,708.535788833,-7,7,1,2.0,5.584319665999828,2.0,1.9179309169994667,698.844406708,698.8464936660002,699.2924054160003,699.1300465000004,,,,,,,,698.840765291,698.8443587500005,None,,,,,,,,,,,201,kitchen,2,2024-03-18_13h09.11.124,image_similarity_rating,2023.2.3,None,2024-03-18 13h09.27.456878 +0100,
,121,122,425,425,stimuli/own/kitchen/121_kit.jpg,stimuli/own/kitchen/122_kit.jpg,,,,,,,,,0,44,44,424,708.5581442080002,,,,,,,,,,,708.8420014160001,709.0059130830005,709.0059130830005,709.0059130830005,709.0059130830005,709.0059130830005,709.0059130830005,709.0059130830005,709.0059130830005,709.0059130830005,713.7735870000006,-7,7,1,2.0,3.2209341660000064,2.0,4.718770458000108,708.5395613749997,708.5581442080002,,708.841987541,,,,,,,,708.5360122910006,708.5395145829998,None,,,,,,,,,,,201,kitchen,2,2024-03-18_13h09.11.124,image_similarity_rating,2023.2.3,None,2024-03-18 13h09.27.456878 +0100,
,121,130,432,432,stimuli/own/kitchen/121_kit.jpg,stimuli/own/kitchen/130_kit.jpg,,,,,,,,,0,45,45,431,713.7795699160006,,,,,,,,,,,714.06412,714.2283969999999,714.2283969999999,714.2283969999999,714.2283969999999,714.2283969999999,714.2283969999999,714.2283969999999,714.2283969999999,714.2283969999999,724.0899685000004,-7,7,1,4.0,9.110370874999717,2.0,4.132735416999822,713.7772960000002,713.7795699160006,714.2283969999999,714.0641092080004,,,,,,,,713.7738072500006,713.7772485000005,None,,,,,,,,,,,201,kitchen,2,2024-03-18_13h09.11.124,image_similarity_rating,2023.2.3,None,2024-03-18 13h09.27.456878 +0100,
,112,127,258,258,stimuli/own/kitchen/112_kit.jpg,stimuli/own/kitchen/127_kit.jpg,,,,,,,,,0,46,46,257,724.0956529160003,,,,,,,,,,,724.3796811250004,724.5429088330002,724.5429088330002,724.5429088330002,724.5429088330002,724.5429088330002,724.5429088330002,724.5429088330002,724.5429088330002,724.5429088330002,733.0857000830001,-7,7,1,5.0,5.40285700000004,5.0,8.346055749999323,724.0936993330006,724.0956529160003,724.5429088330002,724.3796700410003,,,,,,,,724.0902205829998,724.0936522500006,None,,,,,,,,,,,201,kitchen,2,2024-03-18_13h09.11.124,image_similarity_rating,2023.2.3,None,2024-03-18 13h09.27.456878 +0100,
,129,130,530,530,stimuli/own/kitchen/129_kit.jpg,stimuli/own/kitchen/130_kit.jpg,,,,,,,,,0,47,47,529,733.1077740830005,,,,,,,,,,,733.391945458,733.5636883750003,733.5636883750003,733.5636883750003,733.5636883750003,733.5636883750003,733.5636883750003,733.5636883750003,733.5636883750003,733.5636883750003,749.040530583,-7,7,1,2.0,12.847455375000209,2.0,15.23973470799956,733.089392541,733.1077740830005,,733.3919258329997,,,,,,,,733.0859235830003,733.0893456660006,None,,,,,,,,,,,201,kitchen,2,2024-03-18_13h09.11.124,image_similarity_rating,2023.2.3,None,2024-03-18 13h09.27.456878 +0100,
,121,138,439,439,stimuli/own/kitchen/121_kit.jpg,stimuli/own/kitchen/138_kit.jpg,,,,,,,,,0,48,48,438,749.046310916,,,,,,,,,,,749.329529916,749.4924487910002,749.4924487910002,749.4924487910002,749.4924487910002,749.4924487910002,749.4924487910002,749.4924487910002,749.4924487910002,749.4924487910002,760.4230875410003,7,-7,1,3.0,8.587722291999853,2.0,2.2101246669999455,749.0442329160005,749.046310916,749.4924487910002,749.329519166,,,,,,,,749.0407534579999,749.0441858330005,None,,,,,,,,,,,201,kitchen,2,2024-03-18_13h09.11.124,image_similarity_rating,2023.2.3,None,2024-03-18 13h09.27.456878 +0100,
,127,137,525,525,stimuli/own/kitchen/127_kit.jpg,stimuli/own/kitchen/137_kit.jpg,,,,,,,,,0,49,49,524,760.4287622910006,,,,,,,,,,,760.7133875830004,760.8815850000001,760.8815850000001,760.8815850000001,760.8815850000001,760.8815850000001,760.8815850000001,760.8815850000001,760.8815850000001,760.8815850000001,777.3142591249998,-7,7,1,4.0,13.075016750000032,3.0,5.623174957999254,760.4268289580004,760.4287622910006,760.8815850000001,760.7133731250005,,,,,,,,760.4233227499999,760.426780791,None,,,,,,,,,,,201,kitchen,2,2024-03-18_13h09.11.124,image_similarity_rating,2023.2.3,None,2024-03-18 13h09.27.456878 +0100,
,122,126,446,446,stimuli/own/kitchen/122_kit.jpg,stimuli/own/kitchen/126_kit.jpg,,,,,,,,,0,50,50,445,777.3243219160004,,,,,,,,,,,777.6094400829998,777.7732808749997,777.7732808749997,777.7732808749997,777.7732808749997,777.7732808749997,777.7732808749997,777.7732808749997,777.7732808749997,777.7732808749997,791.9572598750001,-7,7,1,6.0,9.425702375000583,4.0,12.794343917000333,777.3179399159999,777.3243219160004,777.7732808749997,777.6094274160005,,,,,,,,777.3144856660001,777.3178909160006,None,,,,,,,,,,,201,kitchen,2,2024-03-18_13h09.11.124,image_similarity_rating,2023.2.3,None,2024-03-18 13h09.27.456878 +0100,
,105,120,141,141,stimuli/own/kitchen/105_kit.jpg,stimuli/own/kitchen/120_kit.jpg,,,,,,,,,0,51,51,140,791.9630224160001,,,,,,,,,,,792.2467266660005,792.41094875,792.41094875,792.41094875,792.41094875,792.41094875,792.41094875,792.41094875,792.41094875,792.41094875,810.8931800830005,-7,7,1,4.0,16.6304207080002,6.0,7.302256666000176,791.9610766659998,791.9630224160001,792.41094875,792.2467156250004,,,,,,,,791.9574837910004,791.9610297079998,None,,,,,,,,,,,201,kitchen,2,2024-03-18_13h09.11.124,image_similarity_rating,2023.2.3,None,2024-03-18 13h09.27.456878 +0100,
,101,138,31,31,stimuli/own/kitchen/101_kit.jpg,stimuli/own/kitchen/138_kit.jpg,,,,,,,,,0,52,52,30,810.8988921660002,,,,,,,,,,,811.1921125409999,811.3571838329999,811.3571838329999,811.3571838329999,811.3571838329999,811.3571838329999,811.3571838329999,811.3571838329999,811.3571838329999,811.3571838329999,817.4149236660005,7,-7,1,3.0,5.978592124999523,4.0,2.861029791999499,810.8969654580005,810.8988921660002,811.3571838329999,811.1920967080005,,,,,,,,810.8934004580005,810.8969185410006,None,,,,,,,,,,,201,kitchen,2,2024-03-18_13h09.11.124,image_similarity_rating,2023.2.3,None,2024-03-18 13h09.27.456878 +0100,
,102,139,65,605,stimuli/own/kitchen/102_kit.jpg,stimuli/own/kitchen/139_kit.jpg,,,,,,,,,0,53,53,604,817.4241054160002,,,,,,,,,,,817.7085656660001,817.8726105000005,817.8726105000005,817.8726105000005,817.8726105000005,817.8726105000005,817.8726105000005,817.8726105000005,817.8726105000005,817.8726105000005,830.7063626250001,-7,7,1,1.0,6.703626083999552,5.0,10.910690165999767,817.418711583,817.4241054160002,817.8726105000005,817.70855175,,,,,,,,817.4151564160002,817.4186637499997,None,,,,,,,,,,,201,kitchen,2,2024-03-18_13h09.11.124,image_similarity_rating,2023.2.3,None,2024-03-18 13h09.27.456878 +0100,
,104,120,111,111,stimuli/own/kitchen/104_kit.jpg,stimuli/own/kitchen/120_kit.jpg,,,,,,,,,0,54,54,110,830.712018958,,,,,,,,,,,830.9972823749995,831.1642719160009,831.1642719160009,831.1642719160009,831.1642719160009,831.1642719160009,831.1642719160009,831.1642719160009,831.1642719160009,831.1642719160009,840.9228857910002,7,-7,1,2.0,9.231009500001164,3.0,2.2599977079989912,830.7102052080008,830.712018958,831.1642719160009,830.9972693330001,,,,,,,,830.7066032500006,830.7101579999999,None,,,,,,,,,,,201,kitchen,2,2024-03-18_13h09.11.124,image_similarity_rating,2023.2.3,None,2024-03-18 13h09.27.456878 +0100,
,103,131,90,90,stimuli/own/kitchen/103_kit.jpg,stimuli/own/kitchen/131_kit.jpg,,,,,,,,,0,55,55,89,840.9283930000001,,,,,,,,,,,841.2136607909997,841.3769701250003,841.3769701250003,841.3769701250003,841.3769701250003,841.3769701250003,841.3769701250003,841.3769701250003,841.3769701250003,841.3769701250003,849.6559991249997,-7,7,1,2.0,6.353956541999651,2.0,8.266638499999317,840.9266339999995,840.9283930000001,841.3769701250003,841.2136500409997,,,,,,,,840.9231332500003,840.9265826249994,None,,,,,,,,,,,201,kitchen,2,2024-03-18_13h09.11.124,image_similarity_rating,2023.2.3,None,2024-03-18 13h09.27.456878 +0100,
,101,125,20,20,stimuli/own/kitchen/101_kit.jpg,stimuli/own/kitchen/125_kit.jpg,,,,,,,,,0,56,56,19,849.6619257910006,,,,,,,,,,,849.9463592499997,850.1108941250004,850.1108941250004,850.1108941250004,850.1108941250004,850.1108941250004,850.1108941250004,850.1108941250004,850.1108941250004,850.1108941250004,860.7065232910008,-7,7,1,2.0,10.541422291000345,4.0,3.7727195840016066,849.6598262909993,849.6619257910006,850.1108941250004,849.9463486660006,,,,,,,,849.6562279579994,849.6597786660004,None,,,,,,,,,,,201,kitchen,2,2024-03-18_13h09.11.124,image_similarity_rating,2023.2.3,None,2024-03-18 13h09.27.456878 +0100,
,104,116,107,107,stimuli/own/kitchen/104_kit.jpg,stimuli/own/kitchen/116_kit.jpg,,,,,,,,,0,57,57,106,860.712377666001,,,,,,,,,,,860.9958989160004,861.1579957499998,861.1579957499998,861.1579957499998,861.1579957499998,861.1579957499998,861.1579957499998,861.1579957499998,861.1579957499998,861.1579957499998,869.2392106660009,-7,7,1,2.0,4.472484500000064,3.0,8.068607125000199,860.7102703330002,860.712377666001,861.1579957499998,860.9958879999995,,,,,,,,860.7067432080003,860.7102168330002,None,,,,,,,,,,,201,kitchen,2,2024-03-18_13h09.11.124,image_similarity_rating,2023.2.3,None,2024-03-18 13h09.27.456878 +0100,
,105,135,154,154,stimuli/own/kitchen/105_kit.jpg,stimuli/own/kitchen/135_kit.jpg,,,,,,,,,0,58,58,153,869.2449462910008,,,,,,,,,,,869.5300504580009,869.6928570830005,869.6928570830005,869.6928570830005,869.6928570830005,869.6928570830005,869.6928570830005,869.6928570830005,869.6928570830005,869.6928570830005,878.6815614999996,-7,7,1,2.0,8.982891374998871,1.0,4.137215291999382,869.2430250409998,869.2449462910008,869.6928570830005,869.5300399999996,,,,,,,,869.2394301250006,869.242977666001,None,,,,,,,,,,,201,kitchen,2,2024-03-18_13h09.11.124,image_similarity_rating,2023.2.3,None,2024-03-18 13h09.27.456878 +0100,
,116,131,333,333,stimuli/own/kitchen/116_kit.jpg,stimuli/own/kitchen/131_kit.jpg,,,,,,,,,0,59,59,332,878.6904996249996,,,,,,,,,,,878.9759831659994,879.141402958001,879.141402958001,879.141402958001,879.141402958001,879.141402958001,879.141402958001,879.141402958001,879.141402958001,879.141402958001,886.2099829159997,7,-7,1,2.0,2.9907725829998526,1.0,6.958704290998867,878.6852455829994,878.6904996249996,879.141402958001,878.9759667079998,,,,,,,,878.6817873330001,878.6851985829999,None,,,,,,,,,,,201,kitchen,2,2024-03-18_13h09.11.124,image_similarity_rating,2023.2.3,None,2024-03-18 13h09.27.456878 +0100,
,104,131,121,615,stimuli/own/kitchen/104_kit.jpg,stimuli/own/kitchen/131_kit.jpg,,,,,,,,,0,60,60,614,886.2160891660005,,,,,,,,,,,886.5085586660007,886.6709713750006,886.6709713750006,886.6709713750006,886.6709713750006,886.6709713750006,886.6709713750006,886.6709713750006,886.6709713750006,886.6709713750006,895.9805267909996,7,-7,1,2.0,8.682067792000453,3.0,2.3473523749999003,886.2137958750009,886.2160891660005,886.6709713750006,886.5085476660006,,,,,,,,886.2102043329996,886.2137497500007,None,,,,,,,,,,,201,kitchen,2,2024-03-18_13h09.11.124,image_similarity_rating,2023.2.3,None,2024-03-18 13h09.27.456878 +0100,
,112,132,262,611,stimuli/own/kitchen/112_kit.jpg,stimuli/own/kitchen/132_kit.jpg,,,,,,,,,0,61,61,610,895.9904744159994,,,,,,,,,,,896.2756181250006,896.4408280829994,896.4408280829994,896.4408280829994,896.4408280829994,896.4408280829994,896.4408280829994,896.4408280829994,896.4408280829994,896.4408280829994,904.9602529999993,-7,7,1,3.0,5.913909958000659,3.0,8.520049665999977,895.9841957499993,895.9904744159994,896.4408280829994,896.2756054580004,,,,,,,,895.9807466250004,895.9841489579994,None,,,,,,,,,,,201,kitchen,2,2024-03-18_13h09.11.124,image_similarity_rating,2023.2.3,None,2024-03-18 13h09.27.456878 +0100,
,121,135,436,436,stimuli/own/kitchen/121_kit.jpg,stimuli/own/kitchen/135_kit.jpg,,,,,,,,,0,62,62,435,904.965863458001,,,,,,,,,,,905.258554,905.4232296659993,905.4232296659993,905.4232296659993,905.4232296659993,905.4232296659993,905.4232296659993,905.4232296659993,905.4232296659993,905.4232296659993,910.6138392079993,-7,7,1,3.0,4.752946291000626,4.0,2.38416983299976,904.9639378749998,904.965863458001,905.4232296659993,905.2585393749996,,,,,,,,904.9604739160004,904.9638915830001,None,,,,,,,,,,,201,kitchen,2,2024-03-18_13h09.11.124,image_similarity_rating,2023.2.3,None,2024-03-18 13h09.27.456878 +0100,
,111,125,230,230,stimuli/own/kitchen/111_kit.jpg,stimuli/own/kitchen/125_kit.jpg,,,,,,,,,0,63,63,229,910.6239130829999,,,,,,,,,,,914.8914247909997,915.056304916001,915.056304916001,915.056304916001,915.056304916001,915.056304916001,915.056304916001,915.056304916001,915.056304916001,915.056304916001,924.7310930000003,7,-7,2,2.0,9.521439250000185,2.0,2.9078348749990255,914.5964942499995,914.5998949999994,915.056304916001,914.8914112500006,,,,,,,,910.6140588750004,914.5950992910002,space,910.6239130829999,3.970930542000133,None,,,,,,,,201,kitchen,2,2024-03-18_13h09.11.124,image_similarity_rating,2023.2.3,None,2024-03-18 13h09.27.456878 +0100,
,112,121,252,252,stimuli/own/kitchen/112_kit.jpg,stimuli/own/kitchen/121_kit.jpg,,,,,,,,,0,64,64,251,924.740697833,,,,,,,,,,,925.0256030830005,925.1901179159995,925.1901179159995,925.1901179159995,925.1901179159995,925.1901179159995,925.1901179159995,925.1901179159995,925.1901179159995,925.1901179159995,930.6394896660004,-7,7,2,2.0,4.003255916999478,3.0,5.400855709000098,924.7353218330009,924.740697833,925.1901179159995,925.0255854580009,,,,,,,,924.7313173750008,924.735273833001,None,,,,,,,,,,,201,kitchen,2,2024-03-18_13h09.11.124,image_similarity_rating,2023.2.3,None,2024-03-18 13h09.27.456878 +0100,
,109,111,190,190,stimuli/own/kitchen/109_kit.jpg,stimuli/own/kitchen/111_kit.jpg,,,,,,,,,0,65,65,189,930.6453483330006,,,,,,,,,,,930.9297291250004,931.0926797909997,931.0926797909997,931.0926797909997,931.0926797909997,931.0926797909997,931.0926797909997,931.0926797909997,931.0926797909997,931.0926797909997,941.0013700830004,-7,7,2,1.0,6.260169540999414,3.0,7.630465833999551,930.6432805000004,930.6453483330006,931.0926797909997,930.9297187499997,,,,,,,,930.6397067910002,930.6432335829995,None,,,,,,,,,,,201,kitchen,2,2024-03-18_13h09.11.124,image_similarity_rating,2023.2.3,None,2024-03-18 13h09.27.456878 +0100,
,105,114,136,136,stimuli/own/kitchen/105_kit.jpg,stimuli/own/kitchen/114_kit.jpg,,,,,,,,,0,66,66,135,941.006860083,,,,,,,,,,,941.291768041001,941.4554927080007,941.4554927080007,941.4554927080007,941.4554927080007,941.4554927080007,941.4554927080007,941.4554927080007,941.4554927080007,941.4554927080007,949.7226846249996,7,-7,2,4.0,7.9626878750004835,5.0,4.026998249999451,941.0050663750008,941.006860083,941.4554927080007,941.2917543750009,,,,,,,,941.0016031659998,941.0050195830008,None,,,,,,,,,,,201,kitchen,2,2024-03-18_13h09.11.124,image_similarity_rating,2023.2.3,None,2024-03-18 13h09.27.456878 +0100,
,102,117,45,45,stimuli/own/kitchen/102_kit.jpg,stimuli/own/kitchen/117_kit.jpg,,,,,,,,,0,67,67,44,949.7286304579993,,,,,,,,,,,950.0122591250001,950.1770426250005,950.1770426250005,950.1770426250005,950.1770426250005,950.1770426250005,950.1770426250005,950.1770426250005,950.1770426250005,950.1770426250005,958.3892211660004,-7,7,2,2.0,5.454402458000914,2.0,8.000610291001067,949.7265236250005,949.7286304579993,950.1770426250005,950.0122437909995,,,,,,,,949.7229126660004,949.7264767910001,None,,,,,,,,,,,201,kitchen,2,2024-03-18_13h09.11.124,image_similarity_rating,2023.2.3,None,2024-03-18 13h09.27.456878 +0100,
,113,122,278,278,stimuli/own/kitchen/113_kit.jpg,stimuli/own/kitchen/122_kit.jpg,,,,,,,,,0,68,68,277,958.3948970830006,,,,,,,,,,,958.6788059579994,958.8421240000007,958.8421240000007,958.8421240000007,958.8421240000007,958.8421240000007,958.8421240000007,958.8421240000007,958.8421240000007,958.8421240000007,966.7268382500006,-7,7,2,3.0,7.856193957999494,2.0,3.9010587080010737,958.392951541,958.3948970830006,958.8421240000007,958.6787953330004,,,,,,,,958.3894622499993,958.3929043330008,None,,,,,,,,,,,201,kitchen,2,2024-03-18_13h09.11.124,image_similarity_rating,2023.2.3,None,2024-03-18 13h09.27.456878 +0100,
,102,111,40,40,stimuli/own/kitchen/102_kit.jpg,stimuli/own/kitchen/111_kit.jpg,,,,,,,,,0,69,69,39,966.7326077500002,,,,,,,,,,,967.0259123750002,967.1942209160006,967.1942209160006,967.1942209160006,967.1942209160006,967.1942209160006,967.1942209160006,967.1942209160006,967.1942209160006,967.1942209160006,980.7298894159994,7,-7,2,1.0,8.291846999998597,2.0,13.351882291000948,966.730503625,966.7326077500002,967.1942209160006,967.025897083,,,,,,,,966.7270574579998,966.7304568330001,None,,,,,,,,,,,201,kitchen,2,2024-03-18_13h09.11.124,image_similarity_rating,2023.2.3,None,2024-03-18 13h09.27.456878 +0100,
,129,134,533,533,stimuli/own/kitchen/129_kit.jpg,stimuli/own/kitchen/134_kit.jpg,,,,,,,,,0,70,70,532,980.7405809579996,,,,,,,,,,,981.0254194579993,981.1887566250007,981.1887566250007,981.1887566250007,981.1887566250007,981.1887566250007,981.1887566250007,981.1887566250007,981.1887566250007,981.1887566250007,996.8556820829999,7,-7,2,5.0,9.714906332999817,3.0,15.467013583000153,980.733567583,980.7405809579996,981.1887566250007,981.0254068329996,,,,,,,,980.7301084999999,980.7335210410001,None,,,,,,,,,,,201,kitchen,2,2024-03-18_13h09.11.124,image_similarity_rating,2023.2.3,None,2024-03-18 13h09.27.456878 +0100,
,123,137,471,471,stimuli/own/kitchen/123_kit.jpg,stimuli/own/kitchen/137_kit.jpg,,,,,,,,,0,71,71,470,996.8616111659994,,,,,,,,,,,997.1459239579999,997.3131317080006,997.3131317080006,997.3131317080006,997.3131317080006,997.3131317080006,997.3131317080006,997.3131317080006,997.3131317080006,997.3131317080006,1011.8257807080008,-7,7,2,2.0,14.537113792001037,4.0,6.782502707999811,996.8595662909993,996.8616111659994,997.3131317080006,997.1459081249996,,,,,,,,996.8559359160008,996.8595193750007,None,,,,,,,,,,,201,kitchen,2,2024-03-18_13h09.11.124,image_similarity_rating,2023.2.3,None,2024-03-18 13h09.27.456878 +0100,
,101,112,8,8,stimuli/own/kitchen/101_kit.jpg,stimuli/own/kitchen/112_kit.jpg,,,,,,,,,0,72,72,7,1011.8312138330002,,,,,,,,,,,1012.1247497500008,1012.2894720000004,1012.2894720000004,1012.2894720000004,1012.2894720000004,1012.2894720000004,1012.2894720000004,1012.2894720000004,1012.2894720000004,1012.2894720000004,1023.0760859580005,-7,7,2,5.0,9.107881374999124,4.0,10.748951500001567,1011.82944675,1011.8312138330002,1012.2894720000004,1012.1247356660006,,,,,,,,1011.8260037079999,1011.8294005829994,None,,,,,,,,,,,201,kitchen,2,2024-03-18_13h09.11.124,image_similarity_rating,2023.2.3,None,2024-03-18 13h09.27.456878 +0100,
,102,126,54,54,stimuli/own/kitchen/102_kit.jpg,stimuli/own/kitchen/126_kit.jpg,,,,,,,,,0,73,73,53,1023.0817983750003,,,,,,,,,,,1023.3752806659995,1023.5395017080009,1023.5395017080009,1023.5395017080009,1023.5395017080009,1023.5395017080009,1023.5395017080009,1023.5395017080009,1023.5395017080009,1023.5395017080009,1039.7773177079998,-7,7,2,4.0,11.063903833999575,4.0,16.21846366600039,1023.0797515409995,1023.0817983750003,1023.5395017080009,1023.3752620409996,,,,,,,,1023.0763035830005,1023.0797046250009,None,,,,,,,,,,,201,kitchen,2,2024-03-18_13h09.11.124,image_similarity_rating,2023.2.3,None,2024-03-18 13h09.27.456878 +0100,
,113,127,283,283,stimuli/own/kitchen/113_kit.jpg,stimuli/own/kitchen/127_kit.jpg,,,,,,,,,0,74,74,282,1039.7904158330002,,,,,,,,,,,1040.0750459579995,1040.2397963330004,1040.2397963330004,1040.2397963330004,1040.2397963330004,1040.2397963330004,1040.2397963330004,1040.2397963330004,1040.2397963330004,1040.2397963330004,1046.4942102500008,-7,7,2,3.0,5.892698249999739,4.0,1.7169787919992814,1039.7810660409996,1039.7904158330002,1040.2397963330004,1040.0750328329996,,,,,,,,1039.7775379159993,1039.7810200410004,None,,,,,,,,,,,201,kitchen,2,2024-03-18_13h09.11.124,image_similarity_rating,2023.2.3,None,2024-03-18 13h09.27.456878 +0100,
,125,141,504,504,stimuli/own/kitchen/125_kit.jpg,stimuli/own/kitchen/141_kit.jpg,,,,,,,,,0,75,75,503,1046.506490666001,,,,,,,,,,,1046.7910731659995,1046.9586773749998,1046.9586773749998,1046.9586773749998,1046.9586773749998,1046.9586773749998,1046.9586773749998,1046.9586773749998,1046.9586773749998,1046.9586773749998,1053.2177986250008,7,-7,2,2.0,6.169673583000986,3.0,2.879518874999121,1046.4980890410006,1046.506490666001,1046.9586773749998,1046.791058625,,,,,,,,1046.4944292910004,1046.4980425409994,None,,,,,,,,,,,201,kitchen,2,2024-03-18_13h09.11.124,image_similarity_rating,2023.2.3,None,2024-03-18 13h09.27.456878 +0100,
,117,136,359,359,stimuli/own/kitchen/117_kit.jpg,stimuli/own/kitchen/136_kit.jpg,,,,,,,,,0,76,76,358,1053.239862583001,,,,,,,,,,,1053.5244383749996,1053.6892724999998,1053.6892724999998,1053.6892724999998,1053.6892724999998,1053.6892724999998,1053.6892724999998,1053.6892724999998,1053.6892724999998,1053.6892724999998,1066.5727790830006,7,-7,2,3.0,8.378435042001001,3.0,12.632963291000124,1053.2217225000004,1053.239862583001,,1053.5244185409992,,,,,,,,1053.2180170409993,1053.2216726250008,None,,,,,,,,,,,201,kitchen,2,2024-03-18_13h09.11.124,image_similarity_rating,2023.2.3,None,2024-03-18 13h09.27.456878 +0100,
,106,126,176,176,stimuli/own/kitchen/106_kit.jpg,stimuli/own/kitchen/126_kit.jpg,,,,,,,,,0,77,77,175,1066.5789690410002,,,,,,,,,,,1066.8623643329993,1067.0260359999993,1067.0260359999993,1067.0260359999993,1067.0260359999993,1067.0260359999993,1067.0260359999993,1067.0260359999993,1067.0260359999993,1067.0260359999993,1076.8339393330007,7,-7,2,5.0,7.6682196669989935,1.0,2.084048124999754,1066.5768657499993,1066.5789690410002,1067.0260359999993,1066.8623535829993,,,,,,,,1066.5729988330004,1066.5768157910006,None,,,,,,,,,,,201,kitchen,2,2024-03-18_13h09.11.124,image_similarity_rating,2023.2.3,None,2024-03-18 13h09.27.456878 +0100,
,120,140,423,423,stimuli/own/kitchen/120_kit.jpg,stimuli/own/kitchen/140_kit.jpg,,,,,,,,,0,78,78,422,1076.8395167910003,,,,,,,,,,,1077.1244698329992,1077.2925277079994,1077.2925277079994,1077.2925277079994,1077.2925277079994,1077.2925277079994,1077.2925277079994,1077.2925277079994,1077.2925277079994,1077.2925277079994,1085.1799804580005,-7,7,2,4.0,7.922269874999984,3.0,1.7584752090006077,1076.837613916001,1076.8395167910003,1077.2925277079994,1077.1244528330008,,,,,,,,1076.8341599579999,1076.8375673329992,None,,,,,,,,,,,201,kitchen,2,2024-03-18_13h09.11.124,image_similarity_rating,2023.2.3,None,2024-03-18 13h09.27.456878 +0100,
,130,140,549,549,stimuli/own/kitchen/130_kit.jpg,stimuli/own/kitchen/140_kit.jpg,,,,,,,,,0,79,79,548,1085.1898316660008,,,,,,,,,,,1085.4751823330007,1085.6398169999993,1085.6398169999993,1085.6398169999993,1085.6398169999993,1085.6398169999993,1085.6398169999993,1085.6398169999993,1085.6398169999993,1085.6398169999993,1092.8383454579998,-7,7,2,4.0,4.624876791998759,4.0,6.823078542000076,1085.1836687079995,1085.1898316660008,1085.6398169999993,1085.4751686250002,,,,,,,,1085.1802002910008,1085.1836227500007,None,,,,,,,,,,,201,kitchen,2,2024-03-18_13h09.11.124,image_similarity_rating,2023.2.3,None,2024-03-18 13h09.27.456878 +0100,
,104,125,116,116,stimuli/own/kitchen/104_kit.jpg,stimuli/own/kitchen/125_kit.jpg,,,,,,,,,0,80,80,115,1092.843999916,,,,,,,,,,,1093.1286571660003,1093.2929461250005,1093.2929461250005,1093.2929461250005,1093.2929461250005,1093.2929461250005,1093.2929461250005,1093.2929461250005,1093.2929461250005,1093.2929461250005,1100.9977329579997,7,-7,2,3.0,5.404552750000221,3.0,7.58987949999937,1092.8420697910005,1092.843999916,1093.2929461250005,1093.1286432079996,,,,,,,,1092.8385650830005,1092.842022750001,None,,,,,,,,,,,201,kitchen,2,2024-03-18_13h09.11.124,image_similarity_rating,2023.2.3,None,2024-03-18 13h09.27.456878 +0100,
,125,129,493,493,stimuli/own/kitchen/125_kit.jpg,stimuli/own/kitchen/129_kit.jpg,,,,,,,,,0,81,81,492,1101.0064947909996,,,,,,,,,,,1101.2912765830006,1101.454449625,1101.454449625,1101.454449625,1101.454449625,1101.454449625,1101.454449625,1101.454449625,1101.454449625,1101.454449625,1109.1671220000007,7,-7,2,1.0,5.605656040999747,2.0,7.700589459000184,1101.0013946660001,1101.0064947909996,1101.454449625,1101.2912624159999,,,,,,,,1100.9979517909997,1101.0013482909999,None,,,,,,,,,,,201,kitchen,2,2024-03-18_13h09.11.124,image_similarity_rating,2023.2.3,None,2024-03-18 13h09.27.456878 +0100,
,102,123,51,51,stimuli/own/kitchen/102_kit.jpg,stimuli/own/kitchen/123_kit.jpg,,,,,,,,,0,82,82,50,1109.1727298330006,,,,,,,,,,,1109.457866625,1109.6219664580003,1109.6219664580003,1109.6219664580003,1109.6219664580003,1109.6219664580003,1109.6219664580003,1109.6219664580003,1109.6219664580003,1109.6219664580003,1120.5180195829998,-7,7,2,1.0,10.38445191700157,3.0,2.2352258329992765,1109.1707831250005,1109.1727298330006,1109.6219664580003,1109.457853,,,,,,,,1109.167341458,1109.1707371659995,None,,,,,,,,,,,201,kitchen,2,2024-03-18_13h09.11.124,image_similarity_rating,2023.2.3,None,2024-03-18 13h09.27.456878 +0100,
,104,111,103,103,stimuli/own/kitchen/104_kit.jpg,stimuli/own/kitchen/111_kit.jpg,,,,,,,,,0,83,83,102,1120.5246081250007,,,,,,,,,,,1120.8075937909998,1120.9718871250006,1120.9718871250006,1120.9718871250006,1120.9718871250006,1120.9718871250006,1120.9718871250006,1120.9718871250006,1120.9718871250006,1120.9718871250006,1129.0793327909996,-7,7,2,4.0,8.14390750000166,3.0,4.674052833001042,1120.5217504579996,1120.5246081250007,1120.9718871250006,1120.8075830830003,,,,,,,,1120.518240458001,1120.5217042910008,None,,,,,,,,,,,201,kitchen,2,2024-03-18_13h09.11.124,image_similarity_rating,2023.2.3,None,2024-03-18 13h09.27.456878 +0100,
,109,131,208,208,stimuli/own/kitchen/109_kit.jpg,stimuli/own/kitchen/131_kit.jpg,,,,,,,,,0,84,84,207,1129.0896313329995,,,,,,,,,,,1129.374416916,1129.5379521659997,1129.5379521659997,1129.5379521659997,1129.5379521659997,1129.5379521659997,1129.5379521659997,1129.5379521659997,1129.5379521659997,1129.5379521659997,1136.0793620000004,-7,7,2,1.0,2.9340968750002503,2.0,6.443947915999161,1129.0830285829998,1129.0896313329995,1129.5379521659997,1129.3744054159997,,,,,,,,1129.0795597079996,1129.0829821660009,None,,,,,,,,,,,201,kitchen,2,2024-03-18_13h09.11.124,image_similarity_rating,2023.2.3,None,2024-03-18 13h09.27.456878 +0100,
,104,121,112,112,stimuli/own/kitchen/104_kit.jpg,stimuli/own/kitchen/121_kit.jpg,,,,,,,,,0,85,85,111,1136.089548291,,,,,,,,,,,1136.3744433749998,1136.5380353330002,1136.5380353330002,1136.5380353330002,1136.5380353330002,1136.5380353330002,1136.5380353330002,1136.5380353330002,1136.5380353330002,1136.5380353330002,1141.9606589159994,-7,7,2,3.0,5.437589291999757,3.0,2.6519478330010315,1136.083064333001,1136.089548291,1136.5380353330002,1136.374429458001,,,,,,,,1136.0795827500006,1136.0830177909993,None,,,,,,,,,,,201,kitchen,2,2024-03-18_13h09.11.124,image_similarity_rating,2023.2.3,None,2024-03-18 13h09.27.456878 +0100,
,138,141,592,592,stimuli/own/kitchen/138_kit.jpg,stimuli/own/kitchen/141_kit.jpg,,,,,,,,,0,86,86,591,1141.9728430409996,,,,,,,,,,,1142.2583949159998,1142.42351925,1142.42351925,1142.42351925,1142.42351925,1142.42351925,1142.42351925,1142.42351925,1142.42351925,1142.42351925,1154.1585078749995,7,-7,2,2.0,5.916253417000917,3.0,11.674720959001206,1141.9645349580005,1141.9728430409996,1142.42351925,1142.258380958001,,,,,,,,1141.9608930409995,1141.964486375,None,,,,,,,,,,,201,kitchen,2,2024-03-18_13h09.11.124,image_similarity_rating,2023.2.3,None,2024-03-18 13h09.27.456878 +0100,
,117,126,351,351,stimuli/own/kitchen/117_kit.jpg,stimuli/own/kitchen/126_kit.jpg,,,,,,,,,0,87,87,350,1154.163946875,,,,,,,,,,,1154.4578442500006,1154.6241194579998,1154.6241194579998,1154.6241194579998,1154.6241194579998,1154.6241194579998,1154.6241194579998,1154.6241194579998,1154.6241194579998,1154.6241194579998,1169.0885578750003,-7,7,2,5.0,14.362266624999393,5.0,3.988026750001154,1154.1621919579993,1154.163946875,1154.6241194579998,1154.4578314579994,,,,,,,,1154.1587299580005,1154.1621451659994,None,,,,,,,,,,,201,kitchen,2,2024-03-18_13h09.11.124,image_similarity_rating,2023.2.3,None,2024-03-18 13h09.27.456878 +0100,
,122,137,455,455,stimuli/own/kitchen/122_kit.jpg,stimuli/own/kitchen/137_kit.jpg,,,,,,,,,0,88,88,454,1169.0945626249995,,,,,,,,,,,1169.3771838329994,1169.5393342080006,1169.5393342080006,1169.5393342080006,1169.5393342080006,1169.5393342080006,1169.5393342080006,1169.5393342080006,1169.5393342080006,1169.5393342080006,1177.1345203330002,7,-7,2,4.0,5.025995124999099,4.0,7.544971499999519,1169.09231525,1169.0945626249995,1169.5393342080006,1169.3771732080004,,,,,,,,1169.088801291,1169.092268333001,None,,,,,,,,,,,201,kitchen,2,2024-03-18_13h09.11.124,image_similarity_rating,2023.2.3,None,2024-03-18 13h09.27.456878 +0100,
,105,140,159,159,stimuli/own/kitchen/105_kit.jpg,stimuli/own/kitchen/140_kit.jpg,,,,,,,,,0,89,89,158,1177.1409293329998,,,,,,,,,,,1177.4246870829993,1177.591874791,1177.591874791,1177.591874791,1177.591874791,1177.591874791,1177.591874791,1177.591874791,1177.591874791,1177.591874791,1186.6387076249994,-7,7,2,4.0,6.882175624999945,3.0,9.05861083399941,1177.1381867500004,1177.1409293329998,1177.591874791,1177.4246719580005,,,,,,,,1177.1347417910001,1177.1381405829998,None,,,,,,,,,,,201,kitchen,2,2024-03-18_13h09.11.124,image_similarity_rating,2023.2.3,None,2024-03-18 13h09.27.456878 +0100,
,104,131,121,121,stimuli/own/kitchen/104_kit.jpg,stimuli/own/kitchen/131_kit.jpg,,,,,,,,,0,90,90,120,1186.6448247499993,,,,,,,,,,,1186.9286334579992,1187.0927085000003,1187.0927085000003,1187.0927085000003,1187.0927085000003,1187.0927085000003,1187.0927085000003,1187.0927085000003,1187.0927085000003,1187.0927085000003,1194.6805120829995,7,-7,2,4.0,7.510764125001515,4.0,3.3471226670008036,1186.642529666,1186.6448247499993,1187.0927085000003,1186.928619708,,,,,,,,1186.6389236659998,1186.6424834160007,None,,,,,,,,,,,201,kitchen,2,2024-03-18_13h09.11.124,image_similarity_rating,2023.2.3,None,2024-03-18 13h09.27.456878 +0100,
,105,117,138,596,stimuli/own/kitchen/105_kit.jpg,stimuli/own/kitchen/117_kit.jpg,,,,,,,,,0,91,91,595,1194.6893635830002,,,,,,,,,,,1194.97487525,1195.140156333,1195.140156333,1195.140156333,1195.140156333,1195.140156333,1195.140156333,1195.140156333,1195.140156333,1195.140156333,1201.900374791001,7,-7,2,5.0,2.249906583001575,5.0,5.985691707999649,1194.684256333001,1194.6893635830002,1195.140156333,1194.974862250001,,,,,,,,1194.68073,1194.6842097499994,None,,,,,,,,,,,201,kitchen,2,2024-03-18_13h09.11.124,image_similarity_rating,2023.2.3,None,2024-03-18 13h09.27.456878 +0100,
,111,135,238,238,stimuli/own/kitchen/111_kit.jpg,stimuli/own/kitchen/135_kit.jpg,,,,,,,,,0,92,92,237,1201.905866833,,,,,,,,,,,1202.1913691659993,1202.3569834579994,1202.3569834579994,1202.3569834579994,1202.3569834579994,1202.3569834579994,1202.3569834579994,1202.3569834579994,1202.3569834579994,1202.3569834579994,1210.733879458001,-7,7,2,4.0,7.811868458999015,4.0,2.9219109160003427,1201.9040579579996,1201.905866833,1202.3569834579994,1202.1913557080006,,,,,,,,1201.9006009160003,1201.904011875,None,,,,,,,,,,,201,kitchen,2,2024-03-18_13h09.11.124,image_similarity_rating,2023.2.3,None,2024-03-18 13h09.27.456878 +0100,
,103,139,97,97,stimuli/own/kitchen/103_kit.jpg,stimuli/own/kitchen/139_kit.jpg,,,,,,,,,0,93,93,96,1210.7560167499996,,,,,,,,,,,1211.040189708001,1211.2063103750006,1211.2063103750006,1211.2063103750006,1211.2063103750006,1211.2063103750006,1211.2063103750006,1211.2063103750006,1211.2063103750006,1211.2063103750006,1223.5887682499997,7,-7,2,2.0,7.405293417001303,4.0,12.298069832999317,1210.7375539580007,1210.7560167499996,,1211.0401614580005,,,,,,,,1210.7340984580005,1210.7375074579995,None,,,,,,,,,,,201,kitchen,2,2024-03-18_13h09.11.124,image_similarity_rating,2023.2.3,None,2024-03-18 13h09.27.456878 +0100,
,112,139,268,268,stimuli/own/kitchen/112_kit.jpg,stimuli/own/kitchen/139_kit.jpg,,,,,,,,,0,94,94,267,1223.5946543749997,,,,,,,,,,,1223.8788155000002,1224.0412517500008,1224.0412517500008,1224.0412517500008,1224.0412517500008,1224.0412517500008,1224.0412517500008,1224.0412517500008,1224.0412517500008,1224.0412517500008,1228.9133941250002,7,-7,2,2.0,4.781058209000548,3.0,2.0931867079998483,1223.592570666,1223.5946543749997,1224.0412517500008,1223.8788045410001,,,,,,,,1223.5889850000003,1223.592523958001,None,,,,,,,,,,,201,kitchen,2,2024-03-18_13h09.11.124,image_similarity_rating,2023.2.3,None,2024-03-18 13h09.27.456878 +0100,
,113,139,293,293,stimuli/own/kitchen/113_kit.jpg,stimuli/own/kitchen/139_kit.jpg,,,,,,,,,0,95,95,292,1228.922847666001,,,,,,,,,,,1229.2080377080001,1229.3729884160002,1229.3729884160002,1229.3729884160002,1229.3729884160002,1229.3729884160002,1229.3729884160002,1229.3729884160002,1229.3729884160002,1229.3729884160002,1239.921786166,7,-7,2,1.0,8.392898542000694,5.0,10.431303374998606,1228.9170681659998,1228.922847666001,1229.3729884160002,1229.2080243330001,,,,,,,,1228.9136133329994,1228.9170211250002,None,,,,,,,,,,,201,kitchen,2,2024-03-18_13h09.11.124,image_similarity_rating,2023.2.3,None,2024-03-18 13h09.27.456878 +0100,
,104,139,128,128,stimuli/own/kitchen/104_kit.jpg,stimuli/own/kitchen/139_kit.jpg,,,,,,,,,0,96,96,127,1239.9277327910004,,,,,,,,,,,1240.2129415,1240.3787619579998,1240.3787619579998,1240.3787619579998,1240.3787619579998,1240.3787619579998,1240.3787619579998,1240.3787619579998,1240.3787619579998,1240.3787619579998,1248.5838909579998,7,-7,2,1.0,8.265682084000218,5.0,2.475692166999579,1239.925493791001,1239.9277327910004,1240.3787619579998,1240.2129235829998,,,,,,,,1239.922007958001,1239.9254475830003,None,,,,,,,,,,,201,kitchen,2,2024-03-18_13h09.11.124,image_similarity_rating,2023.2.3,None,2024-03-18 13h09.27.456878 +0100,
,109,127,205,205,stimuli/own/kitchen/109_kit.jpg,stimuli/own/kitchen/127_kit.jpg,,,,,,,,,0,97,97,204,1248.605930916001,,,,,,,,,,,1248.8901002500006,1249.055217833,1249.055217833,1249.055217833,1249.055217833,1249.055217833,1249.055217833,1249.055217833,1249.055217833,1249.055217833,1259.2218813750005,7,-7,2,2.0,9.286517167000056,2.0,10.028942875000212,1248.5876615409998,1248.605930916001,,1248.890074541001,,,,,,,,1248.5841117910004,1248.5876152910005,None,,,,,,,,,,,201,kitchen,2,2024-03-18_13h09.11.124,image_similarity_rating,2023.2.3,None,2024-03-18 13h09.27.456878 +0100,
,105,141,160,160,stimuli/own/kitchen/105_kit.jpg,stimuli/own/kitchen/141_kit.jpg,,,,,,,,,0,98,98,159,1259.2276820000006,,,,,,,,,,,1259.5243948330008,1259.6897703329996,1259.6897703329996,1259.6897703329996,1259.6897703329996,1259.6897703329996,1259.6897703329996,1259.6897703329996,1259.6897703329996,1259.6897703329996,1267.3138163330004,7,-7,2,5.0,7.4094066669986205,3.0,2.2913454999998066,1259.2255973749998,1259.2276820000006,1259.6897703329996,1259.5243808750001,,,,,,,,1259.2220990000005,1259.2255512499996,None,,,,,,,,,,,201,kitchen,2,2024-03-18_13h09.11.124,image_similarity_rating,2023.2.3,None,2024-03-18 13h09.27.456878 +0100,
,118,124,370,370,stimuli/own/kitchen/118_kit.jpg,stimuli/own/kitchen/124_kit.jpg,,,,,,,,,0,99,99,369,1267.3223851250004,,,,,,,,,,,1267.6076910409993,1267.772466583001,1267.772466583001,1267.772466583001,1267.772466583001,1267.772466583001,1267.772466583001,1267.772466583001,1267.772466583001,1267.772466583001,1274.0296844160002,7,-7,2,5.0,4.680922458999703,3.0,6.209997333999127,1267.317488875,1267.3223851250004,1267.772466583001,1267.6076776659993,,,,,,,,1267.3140358330002,1267.3174428330003,None,,,,,,,,,,,201,kitchen,2,2024-03-18_13h09.11.124,image_similarity_rating,2023.2.3,None,2024-03-18 13h09.27.456878 +0100,
,117,127,352,352,stimuli/own/kitchen/117_kit.jpg,stimuli/own/kitchen/127_kit.jpg,,,,,,,,,0,100,100,351,1274.0391157909999,,,,,,,,,,,1274.3243806249993,1274.4892291249998,1274.4892291249998,1274.4892291249998,1274.4892291249998,1274.4892291249998,1274.4892291249998,1274.4892291249998,1274.4892291249998,1274.4892291249998,1282.0930452079992,7,-7,2,4.0,6.275310874998468,3.0,7.523362125000858,1274.0335003750006,1274.0391157909999,1274.4892291249998,1274.3243617499993,,,,,,,,1274.029913583001,1274.0334541659995,None,,,,,,,,,,,201,kitchen,2,2024-03-18_13h09.11.124,image_similarity_rating,2023.2.3,None,2024-03-18 13h09.27.456878 +0100,
,111,117,222,222,stimuli/own/kitchen/111_kit.jpg,stimuli/own/kitchen/117_kit.jpg,,,,,,,,,0,101,101,221,1282.105749458,,,,,,,,,,,1282.3899690409999,1282.5525978330006,1282.5525978330006,1282.5525978330006,1282.5525978330006,1282.5525978330006,1282.5525978330006,1282.5525978330006,1282.5525978330006,1282.5525978330006,1287.2415479579995,-7,7,2,5.0,4.711177625000346,3.0,1.7611025829992286,1282.0970180410004,1282.105749458,1282.5525978330006,1282.3899585,,,,,,,,1282.093266625001,1282.0969694159994,None,,,,,,,,,,,201,kitchen,2,2024-03-18_13h09.11.124,image_similarity_rating,2023.2.3,None,2024-03-18 13h09.27.456878 +0100,
,119,135,399,399,stimuli/own/kitchen/119_kit.jpg,stimuli/own/kitchen/135_kit.jpg,,,,,,,,,0,102,102,398,1287.2472562910007,,,,,,,,,,,1287.5406806659994,1287.7041738330008,1287.7041738330008,1287.7041738330008,1287.7041738330008,1287.7041738330008,1287.7041738330008,1287.7041738330008,1287.7041738330008,1287.7041738330008,1298.4711333329997,7,-7,2,2.0,9.409019041000647,3.0,10.188525083998684,1287.2453482910005,1287.2472562910007,1287.7041738330008,1287.5406669160002,,,,,,,,1287.241765916,1287.245301375,None,,,,,,,,,,,201,kitchen,2,2024-03-18_13h09.11.124,image_similarity_rating,2023.2.3,None,2024-03-18 13h09.27.456878 +0100,
,112,136,265,265,stimuli/own/kitchen/112_kit.jpg,stimuli/own/kitchen/136_kit.jpg,,,,,,,,,0,103,103,264,1298.4770014160003,,,,,,,,,,,1298.7620702080003,1298.926236333,1298.926236333,1298.926236333,1298.926236333,1298.926236333,1298.926236333,1298.926236333,1298.926236333,1298.926236333,1315.1664918749993,-7,7,2,3.0,11.80071987500014,6.0,16.11543804199937,1298.4748615410008,1298.4770014160003,1298.926236333,1298.7620564579993,,,,,,,,1298.4713830830005,1298.4748150409996,None,,,,,,,,,,,201,kitchen,2,2024-03-18_13h09.11.124,image_similarity_rating,2023.2.3,None,2024-03-18 13h09.27.456878 +0100,
,102,131,58,58,stimuli/own/kitchen/102_kit.jpg,stimuli/own/kitchen/131_kit.jpg,,,,,,,,,0,104,104,57,1315.17206325,,,,,,,,,,,1315.4576765000002,1315.621706666001,1315.621706666001,1315.621706666001,1315.621706666001,1315.621706666001,1315.621706666001,1315.621706666001,1315.621706666001,1315.621706666001,1324.9881717080007,-7,7,2,5.0,9.375970332999714,3.0,1.9737126659983915,1315.170165208001,1315.17206325,1315.621706666001,1315.4576629580006,,,,,,,,1315.1667156250005,1315.1701191659995,None,,,,,,,,,,,201,kitchen,2,2024-03-18_13h09.11.124,image_similarity_rating,2023.2.3,None,2024-03-18 13h09.27.456878 +0100,
,111,120,225,225,stimuli/own/kitchen/111_kit.jpg,stimuli/own/kitchen/120_kit.jpg,,,,,,,,,0,105,105,224,1324.9941549579999,,,,,,,,,,,1325.2781233749993,1325.4410850000004,1325.4410850000004,1325.4410850000004,1325.4410850000004,1325.4410850000004,1325.4410850000004,1325.4410850000004,1325.4410850000004,1325.4410850000004,1331.804582791001,7,-7,2,3.0,5.035743166999964,3.0,6.326841915999466,1324.9918859999998,1324.9941549579999,1325.4410850000004,1325.2781125830006,,,,,,,,1324.988390083001,1324.991839708,None,,,,,,,,,,,201,kitchen,2,2024-03-18_13h09.11.124,image_similarity_rating,2023.2.3,None,2024-03-18 13h09.27.456878 +0100,
,121,136,437,437,stimuli/own/kitchen/121_kit.jpg,stimuli/own/kitchen/136_kit.jpg,,,,,,,,,0,106,106,436,1331.8104147079994,,,,,,,,,,,1332.094542666,1332.256960916,1332.256960916,1332.256960916,1332.256960916,1332.256960916,1332.256960916,1332.256960916,1332.256960916,1332.256960916,1336.4965009999996,7,-7,2,2.0,4.272764082999856,2.0,2.6830183749989374,1331.8083024160005,1331.8104147079994,1332.256960916,1332.094532000001,,,,,,,,1331.8048269160008,1331.8082560830007,None,,,,,,,,,,,201,kitchen,2,2024-03-18_13h09.11.124,image_similarity_rating,2023.2.3,None,2024-03-18 13h09.27.456878 +0100,
,101,106,5,5,stimuli/own/kitchen/101_kit.jpg,stimuli/own/kitchen/106_kit.jpg,,,,,,,,,0,107,107,4,1336.5055878330004,,,,,,,,,,,1336.7913159159998,1336.9555185829995,1336.9555185829995,1336.9555185829995,1336.9555185829995,1336.9555185829995,1336.9555185829995,1336.9555185829995,1336.9555185829995,1336.9555185829995,1344.3290584160004,7,-7,2,4.0,4.136226500000703,4.0,7.399175833001209,1336.500150416001,1336.5055878330004,1336.9555185829995,1336.7912985410003,,,,,,,,1336.4967176659993,1336.5001040410007,None,,,,,,,,,,,201,kitchen,2,2024-03-18_13h09.11.124,image_similarity_rating,2023.2.3,None,2024-03-18 13h09.27.456878 +0100,
,120,137,420,420,stimuli/own/kitchen/120_kit.jpg,stimuli/own/kitchen/137_kit.jpg,,,,,,,,,0,108,108,419,1344.338812166001,,,,,,,,,,,1344.623948458,1344.7893300409996,1344.7893300409996,1344.7893300409996,1344.7893300409996,1344.7893300409996,1344.7893300409996,1344.7893300409996,1344.7893300409996,1344.7893300409996,1348.8844828750007,-7,7,2,3.0,3.898543667000922,5.0,1.9645997090010496,1344.332699083001,1344.338812166001,1344.7893300409996,1344.6239348750005,,,,,,,,1344.329277375,1344.3326528329999,None,,,,,,,,,,,201,kitchen,2,2024-03-18_13h09.11.124,image_similarity_rating,2023.2.3,None,2024-03-18 13h09.27.456878 +0100,
,101,113,9,9,stimuli/own/kitchen/101_kit.jpg,stimuli/own/kitchen/113_kit.jpg,,,,,,,,,0,109,109,8,1348.8905377909996,,,,,,,,,,,1349.173704416,1349.3372438330007,1349.3372438330007,1349.3372438330007,1349.3372438330007,1349.3372438330007,1349.3372438330007,1349.3372438330007,1349.3372438330007,1349.3372438330007,1354.5173451249993,7,-7,2,2.0,5.202947916999619,3.0,2.199169166999127,1348.8881746660009,1348.8905377909996,1349.3372438330007,1349.173691041,,,,,,,,1348.8847016660002,1348.8881284159997,None,,,,,,,,,,,201,kitchen,2,2024-03-18_13h09.11.124,image_similarity_rating,2023.2.3,None,2024-03-18 13h09.27.456878 +0100,
,106,140,188,188,stimuli/own/kitchen/106_kit.jpg,stimuli/own/kitchen/140_kit.jpg,,,,,,,,,0,110,110,187,1354.523660750001,,,,,,,,,,,1354.80757275,1354.9730884580003,1354.9730884580003,1354.9730884580003,1354.9730884580003,1354.9730884580003,1354.9730884580003,1354.9730884580003,1354.9730884580003,1354.9730884580003,1361.375439333,-7,7,2,6.0,3.9500609999995504,3.0,6.298441749999256,1354.5210112080003,1354.523660750001,1354.9730884580003,1354.8075603750003,,,,,,,,1354.5175673329995,1354.520959208001,None,,,,,,,,,,,201,kitchen,2,2024-03-18_13h09.11.124,image_similarity_rating,2023.2.3,None,2024-03-18 13h09.27.456878 +0100,
,117,123,348,348,stimuli/own/kitchen/117_kit.jpg,stimuli/own/kitchen/123_kit.jpg,,,,,,,,,0,111,111,347,1361.3888208330009,,,,,,,,,,,1361.674072916001,1361.8395180410007,1361.8395180410007,1361.8395180410007,1361.8395180410007,1361.8395180410007,1361.8395180410007,1361.8395180410007,1361.8395180410007,1361.8395180410007,1369.0499127500007,-7,7,2,3.0,4.727619417000824,4.0,7.197546958999737,1361.3796010000005,1361.3888208330009,1361.8395180410007,1361.6740546660003,,,,,,,,1361.3756795000008,1361.3795490409993,None,,,,,,,,,,,201,kitchen,2,2024-03-18_13h09.11.124,image_similarity_rating,2023.2.3,None,2024-03-18 13h09.27.456878 +0100,
,119,136,400,400,stimuli/own/kitchen/119_kit.jpg,stimuli/own/kitchen/136_kit.jpg,,,,,,,,,0,112,112,399,1369.0553514580006,,,,,,,,,,,1369.3410030409996,1369.5064723750002,1369.5064723750002,1369.5064723750002,1369.5064723750002,1369.5064723750002,1369.5064723750002,1369.5064723750002,1369.5064723750002,1369.5064723750002,1375.1498731249994,-7,7,2,2.0,5.402511874999618,3.0,1.8447669999986829,1369.0535599579998,1369.0553514580006,1369.5064723750002,1369.3409888330007,,,,,,,,1369.0501297909996,1369.053513625,None,,,,,,,,,,,201,kitchen,2,2024-03-18_13h09.11.124,image_similarity_rating,2023.2.3,None,2024-03-18 13h09.27.456878 +0100,
,104,138,127,127,stimuli/own/kitchen/104_kit.jpg,stimuli/own/kitchen/138_kit.jpg,,,,,,,,,0,113,113,126,1375.17209525,,,,,,,,,,,1375.456454958001,1375.6215317080005,1375.6215317080005,1375.6215317080005,1375.6215317080005,1375.6215317080005,1375.6215317080005,1375.6215317080005,1375.6215317080005,1375.6215317080005,1384.5124379999997,-7,7,2,4.0,3.0058741249995364,4.0,7.499089124999955,1375.1535627499998,1375.17209525,,1375.4564370000007,,,,,,,,1375.1501009160002,1375.153516458,None,,,,,,,,,,,201,kitchen,2,2024-03-18_13h09.11.124,image_similarity_rating,2023.2.3,None,2024-03-18 13h09.27.456878 +0100,
,123,132,467,467,stimuli/own/kitchen/123_kit.jpg,stimuli/own/kitchen/132_kit.jpg,,,,,,,,,0,114,114,466,1384.522564666,,,,,,,,,,,1384.80656275,1384.9729098749995,1384.9729098749995,1384.9729098749995,1384.9729098749995,1384.9729098749995,1384.9729098749995,1384.9729098749995,1384.9729098749995,1384.9729098749995,1390.7291442080004,-7,7,2,3.0,5.818993832999695,3.0,1.6799243750010646,1384.5160919999998,1384.522564666,1384.9729098749995,1384.8065475410003,,,,,,,,1384.5126589579995,1384.5160450830008,None,,,,,,,,,,,201,kitchen,2,2024-03-18_13h09.11.124,image_similarity_rating,2023.2.3,None,2024-03-18 13h09.27.456878 +0100,
,112,123,254,254,stimuli/own/kitchen/112_kit.jpg,stimuli/own/kitchen/123_kit.jpg,,,,,,,,,0,115,115,253,1390.738826416,,,,,,,,,,,1391.023738416001,1391.1881334999998,1391.1881334999998,1391.1881334999998,1391.1881334999998,1391.1881334999998,1391.1881334999998,1391.1881334999998,1391.1881334999998,1391.1881334999998,1398.962701458,7,-7,2,3.0,7.744428084000901,3.0,2.670232540998768,1390.7328149580007,1390.738826416,1391.1881334999998,1391.0237254580006,,,,,,,,1390.7293618330004,1390.7327682079995,None,,,,,,,,,,,201,kitchen,2,2024-03-18_13h09.11.124,image_similarity_rating,2023.2.3,None,2024-03-18 13h09.27.456878 +0100,
,106,125,175,175,stimuli/own/kitchen/106_kit.jpg,stimuli/own/kitchen/125_kit.jpg,,,,,,,,,0,116,116,174,1398.9719300830002,,,,,,,,,,,1399.256692250001,1399.4265315829998,1399.4265315829998,1399.4265315829998,1399.4265315829998,1399.4265315829998,1399.4265315829998,1399.4265315829998,1399.4265315829998,1399.4265315829998,1406.7615894579994,7,-7,2,1.0,5.881602125000427,2.0,2.5353030410005886,1398.9665033330002,1398.9719300830002,1399.4265315829998,1399.2566752910006,,,,,,,,1398.962926708,1398.9664561249992,None,,,,,,,,,,,201,kitchen,2,2024-03-18_13h09.11.124,image_similarity_rating,2023.2.3,None,2024-03-18 13h09.27.456878 +0100,
,131,134,552,552,stimuli/own/kitchen/131_kit.jpg,stimuli/own/kitchen/134_kit.jpg,,,,,,,,,0,117,117,551,1406.7718891250006,,,,,,,,,,,1407.0567108329997,1407.2235686660006,1407.2235686660006,1407.2235686660006,1407.2235686660006,1407.2235686660006,1407.2235686660006,1407.2235686660006,1407.2235686660006,1407.2235686660006,1418.3218282079997,-7,7,2,2.0,7.665595583999675,1.0,10.691344000000754,1406.7653585410008,1406.7718891250006,1407.2235686660006,1407.056694291001,,,,,,,,1406.761810416001,1406.7653119160004,None,,,,,,,,,,,201,kitchen,2,2024-03-18_13h09.11.124,image_similarity_rating,2023.2.3,None,2024-03-18 13h09.27.456878 +0100,
,101,102,1,1,stimuli/own/kitchen/101_kit.jpg,stimuli/own/kitchen/102_kit.jpg,,,,,,,,,0,118,118,0,1418.3280234159993,,,,,,,,,,,1418.6234697910004,1418.7892601660005,1418.7892601660005,1418.7892601660005,1418.7892601660005,1418.7892601660005,1418.7892601660005,1418.7892601660005,1418.7892601660005,1418.7892601660005,1430.245148,-7,7,2,3.0,7.627101791000314,2.0,11.417932166001265,1418.3257860409994,1418.3280234159993,1418.7892601660005,1418.6234567909996,,,,,,,,1418.3220477079994,1418.3257365829995,None,,,,,,,,,,,201,kitchen,2,2024-03-18_13h09.11.124,image_similarity_rating,2023.2.3,None,2024-03-18 13h09.27.456878 +0100,
,101,127,22,22,stimuli/own/kitchen/101_kit.jpg,stimuli/own/kitchen/127_kit.jpg,,,,,,,,,0,119,119,21,1430.255096125,,,,,,,,,,,1430.540577875001,1430.7051460830007,1430.7051460830007,1430.7051460830007,1430.7051460830007,1430.7051460830007,1430.7051460830007,1430.7051460830007,1430.7051460830007,1430.7051460830007,1437.9825988329994,-7,7,2,4.0,3.313924624999345,4.0,7.192884000000049,1430.2488391660008,1430.255096125,1430.7051460830007,1430.5405609999998,,,,,,,,1430.2453698749996,1430.2487918749994,None,,,,,,,,,,,201,kitchen,2,2024-03-18_13h09.11.124,image_similarity_rating,2023.2.3,None,2024-03-18 13h09.27.456878 +0100,
,114,138,316,316,stimuli/own/kitchen/114_kit.jpg,stimuli/own/kitchen/138_kit.jpg,,,,,,,,,0,120,120,315,1437.9883033330007,,,,,,,,,,,1438.2736294580009,1438.4379856659998,1438.4379856659998,1438.4379856659998,1438.4379856659998,1438.4379856659998,1438.4379856659998,1438.4379856659998,1438.4379856659998,1438.4379856659998,1444.553873666,-7,7,2,4.0,6.1500838749998366,4.0,1.6750867920000019,1437.986407458,1437.9883033330007,1438.4379856659998,1438.2736113329993,,,,,,,,1437.982819666,1437.9863611660003,None,,,,,,,,,,,201,kitchen,2,2024-03-18_13h09.11.124,image_similarity_rating,2023.2.3,None,2024-03-18 13h09.27.456878 +0100,
,102,120,48,48,stimuli/own/kitchen/102_kit.jpg,stimuli/own/kitchen/120_kit.jpg,,,,,,,,,0,121,121,47,1444.5595103750002,,,,,,,,,,,1444.844445791001,1445.0083565000004,1445.0083565000004,1445.0083565000004,1445.0083565000004,1445.0083565000004,1445.0083565000004,1445.0083565000004,1445.0083565000004,1445.0083565000004,1451.3418770829994,-7,7,2,1.0,6.217680416000803,3.0,1.7915741249998973,1444.557586625,1444.5595103750002,1445.0083565000004,1444.844435291001,,,,,,,,1444.5541025410002,1444.5575398750007,None,,,,,,,,,,,201,kitchen,2,2024-03-18_13h09.11.124,image_similarity_rating,2023.2.3,None,2024-03-18 13h09.27.456878 +0100,
,103,116,76,76,stimuli/own/kitchen/103_kit.jpg,stimuli/own/kitchen/116_kit.jpg,,,,,,,,,0,122,122,75,1451.3476503750007,,,,,,,,,,,1451.6403377080005,1451.8030497910004,1451.8030497910004,1451.8030497910004,1451.8030497910004,1451.8030497910004,1451.8030497910004,1451.8030497910004,1451.8030497910004,1451.8030497910004,1460.5161792079998,7,-7,2,5.0,8.69586983299996,3.0,1.9662597920014377,1451.3455617079999,1451.3476503750007,1451.8030497910004,1451.6403242079996,,,,,,,,1451.3420989580009,1451.345515166,None,,,,,,,,,,,201,kitchen,2,2024-03-18_13h09.11.124,image_similarity_rating,2023.2.3,None,2024-03-18 13h09.27.456878 +0100,
,119,138,402,402,stimuli/own/kitchen/119_kit.jpg,stimuli/own/kitchen/138_kit.jpg,,,,,,,,,0,123,123,401,1460.5384603330003,,,,,,,,,,,1460.8226249580002,1460.9863124580006,1460.9863124580006,1460.9863124580006,1460.9863124580006,1460.9863124580006,1460.9863124580006,1460.9863124580006,1460.9863124580006,1460.9863124580006,1468.6982107910007,-7,7,2,2.0,5.495807708000939,4.0,7.647844000000987,1460.5199508749993,1460.5384603330003,,1460.8226115409998,,,,,,,,1460.5163991659992,1460.5199045829995,None,,,,,,,,,,,201,kitchen,2,2024-03-18_13h09.11.124,image_similarity_rating,2023.2.3,None,2024-03-18 13h09.27.456878 +0100,
,129,138,537,537,stimuli/own/kitchen/129_kit.jpg,stimuli/own/kitchen/138_kit.jpg,,,,,,,,,0,124,124,536,1468.7047313750008,,,,,,,,,,,1468.9898282499998,1469.1568808749998,1469.1568808749998,1469.1568808749998,1469.1568808749998,1469.1568808749998,1469.1568808749998,1469.1568808749998,1469.1568808749998,1469.1568808749998,1478.125733666,-7,7,2,1.0,7.05914095800108,2.0,8.876630708000448,1468.7020504579996,1468.7047313750008,1469.1568808749998,1468.9898144159997,,,,,,,,1468.6984442909998,1468.7020030830008,None,,,,,,,,,,,201,kitchen,2,2024-03-18_13h09.11.124,image_similarity_rating,2023.2.3,None,2024-03-18 13h09.27.456878 +0100,
,101,130,24,24,stimuli/own/kitchen/101_kit.jpg,stimuli/own/kitchen/130_kit.jpg,,,,,,,,,0,125,125,23,1478.1383128750003,,,,,,,,,,,1478.4234567500007,1478.5893895000008,1478.5893895000008,1478.5893895000008,1478.5893895000008,1478.5893895000008,1478.5893895000008,1478.5893895000008,1478.5893895000008,1478.5893895000008,1486.6704912080004,-7,7,2,4.0,4.871622582999407,4.0,8.070717417000196,1478.129638458,1478.1383128750003,1478.5893895000008,1478.4234428750005,,,,,,,,1478.1259667499999,1478.1295890830006,None,,,,,,,,,,,201,kitchen,2,2024-03-18_13h09.11.124,image_similarity_rating,2023.2.3,None,2024-03-18 13h09.27.456878 +0100,
,102,132,59,59,stimuli/own/kitchen/102_kit.jpg,stimuli/own/kitchen/132_kit.jpg,,,,,,,,,0,126,126,58,1486.6764139160005,,,,,,,,,,,1491.3238659159997,1491.4902039579993,1491.4902039579993,1491.4902039579993,1491.4902039579993,1491.4902039579993,1491.4902039579993,1491.4902039579993,1491.4902039579993,1491.4902039579993,1495.908616791001,7,-7,3,2.0,4.436782582999513,3.0,1.9251180840001325,1491.0295814580004,1491.0389794580005,1491.4902039579993,1491.3238507080005,,,,,,,,1486.670740208001,1491.0292142079998,space,1486.6764139160005,4.3526267079996614,None,,,,,,,,201,kitchen,2,2024-03-18_13h09.11.124,image_similarity_rating,2023.2.3,None,2024-03-18 13h09.27.456878 +0100,
,122,124,444,444,stimuli/own/kitchen/122_kit.jpg,stimuli/own/kitchen/124_kit.jpg,,,,,,,,,0,127,127,443,1495.9215292499994,,,,,,,,,,,1496.2064105829995,1496.3700623330005,1496.3700623330005,1496.3700623330005,1496.3700623330005,1496.3700623330005,1496.3700623330005,1496.3700623330005,1496.3700623330005,1496.3700623330005,1501.8712116660008,7,-7,3,4.0,5.335278999998991,2.0,2.3970323749999807,1495.913013583,1495.9215292499994,1496.3700623330005,1496.2063967499998,,,,,,,,1495.9088470410006,1495.9129633329994,None,,,,,,,,,,,201,kitchen,2,2024-03-18_13h09.11.124,image_similarity_rating,2023.2.3,None,2024-03-18 13h09.27.456878 +0100,
,106,136,184,184,stimuli/own/kitchen/106_kit.jpg,stimuli/own/kitchen/136_kit.jpg,,,,,,,,,0,128,128,183,1501.8770517499997,,,,,,,,,,,1502.160599625,1502.3285130830009,1502.3285130830009,1502.3285130830009,1502.3285130830009,1502.3285130830009,1502.3285130830009,1502.3285130830009,1502.3285130830009,1502.3285130830009,1513.6791429160003,-7,7,3,3.0,8.256066207999538,3.0,11.199668041999757,1501.8749607080008,1501.8770517499997,1502.3285130830009,1502.160583750001,,,,,,,,1501.8714290410007,1501.8749145410002,None,,,,,,,,,,,201,kitchen,2,2024-03-18_13h09.11.124,image_similarity_rating,2023.2.3,None,2024-03-18 13h09.27.456878 +0100,
,106,121,171,171,stimuli/own/kitchen/106_kit.jpg,stimuli/own/kitchen/121_kit.jpg,,,,,,,,,0,129,129,170,1513.6882073750003,,,,,,,,,,,1513.9738070000003,1514.1387195829993,1514.1387195829993,1514.1387195829993,1514.1387195829993,1514.1387195829993,1514.1387195829993,1514.1387195829993,1514.1387195829993,1514.1387195829993,1520.7292206250004,-7,7,3,2.0,6.5737354590000905,3.0,3.306172415999754,1513.682838875,1513.6882073750003,1514.1387195829993,1513.9737933750002,,,,,,,,1513.6793605000003,1513.6827925830003,None,,,,,,,,,,,201,kitchen,2,2024-03-18_13h09.11.124,image_similarity_rating,2023.2.3,None,2024-03-18 13h09.27.456878 +0100,
,136,139,583,603,stimuli/own/kitchen/136_kit.jpg,stimuli/own/kitchen/139_kit.jpg,,,,,,,,,0,130,130,602,1520.7386027079992,,,,,,,,,,,1521.022787625001,1521.1874485000008,1521.1874485000008,1521.1874485000008,1521.1874485000008,1521.1874485000008,1521.1874485000008,1521.1874485000008,1521.1874485000008,1521.1874485000008,1526.0924967909996,-7,7,3,1.0,2.414180542000395,3.0,4.741187792000346,1520.7328924579997,1520.7386027079992,1521.1874485000008,1521.0227730410006,,,,,,,,1520.7294382910004,1520.7328456249998,None,,,,,,,,,,,201,kitchen,2,2024-03-18_13h09.11.124,image_similarity_rating,2023.2.3,None,2024-03-18 13h09.27.456878 +0100,
,105,138,157,157,stimuli/own/kitchen/105_kit.jpg,stimuli/own/kitchen/138_kit.jpg,,,,,,,,,0,131,131,156,1526.1048047080003,,,,,,,,,,,1526.3906437080004,1526.5560699159996,1526.5560699159996,1526.5560699159996,1526.5560699159996,1526.5560699159996,1526.5560699159996,1526.5560699159996,1526.5560699159996,1526.5560699159996,1533.495494416,7,-7,3,3.0,5.952267874999961,2.0,6.878139874999761,1526.0961982080007,1526.1048047080003,1526.5560699159996,1526.3906299160008,,,,,,,,1526.0927172499996,1526.0961522079997,None,,,,,,,,,,,201,kitchen,2,2024-03-18_13h09.11.124,image_similarity_rating,2023.2.3,None,2024-03-18 13h09.27.456878 +0100,
,135,139,578,578,stimuli/own/kitchen/135_kit.jpg,stimuli/own/kitchen/139_kit.jpg,,,,,,,,,0,132,132,577,1533.5047314580006,,,,,,,,,,,1533.7904201660003,1533.9550670000008,1533.9550670000008,1533.9550670000008,1533.9550670000008,1533.9550670000008,1533.9550670000008,1533.9550670000008,1533.9550670000008,1533.9550670000008,1543.2498964580009,7,-7,3,4.0,9.291647791000287,5.0,3.591835584000364,1533.499321958001,1533.5047314580006,1533.9550670000008,1533.7904013749994,,,,,,,,1533.4957209999993,1533.4992755830008,None,,,,,,,,,,,201,kitchen,2,2024-03-18_13h09.11.124,image_similarity_rating,2023.2.3,None,2024-03-18 13h09.27.456878 +0100,
,131,136,554,554,stimuli/own/kitchen/131_kit.jpg,stimuli/own/kitchen/136_kit.jpg,,,,,,,,,0,133,133,553,1543.2561993750005,,,,,,,,,,,1543.539440333001,1543.7019958750006,1543.7019958750006,1543.7019958750006,1543.7019958750006,1543.7019958750006,1543.7019958750006,1543.7019958750006,1543.7019958750006,1543.7019958750006,1550.6874754159999,-7,7,3,4.0,4.782330333000573,2.0,6.885530125000514,1543.2535758329996,1543.2561993750005,1543.7019958750006,1543.5394296659997,,,,,,,,1543.2501192910004,1543.2535250830006,None,,,,,,,,,,,201,kitchen,2,2024-03-18_13h09.11.124,image_similarity_rating,2023.2.3,None,2024-03-18 13h09.27.456878 +0100,
,122,131,450,450,stimuli/own/kitchen/122_kit.jpg,stimuli/own/kitchen/131_kit.jpg,,,,,,,,,0,134,134,449,1550.6932268330002,,,,,,,,,,,1550.9785150829994,1551.1451578750002,1551.1451578750002,1551.1451578750002,1551.1451578750002,1551.1451578750002,1551.1451578750002,1551.1451578750002,1551.1451578750002,1551.1451578750002,1558.199890291,-7,7,3,3.0,5.7305124169997725,2.0,6.941991209001571,1550.691277041,1550.6932268330002,1551.1451578750002,1550.978502166001,,,,,,,,1550.687694708,1550.6912315000009,None,,,,,,,,,,,201,kitchen,2,2024-03-18_13h09.11.124,image_similarity_rating,2023.2.3,None,2024-03-18 13h09.27.456878 +0100,
,116,132,334,334,stimuli/own/kitchen/116_kit.jpg,stimuli/own/kitchen/132_kit.jpg,,,,,,,,,0,135,135,333,1558.2060262079995,,,,,,,,,,,1558.4895945000007,1558.6530081250003,1558.6530081250003,1558.6530081250003,1558.6530081250003,1558.6530081250003,1558.6530081250003,1558.6530081250003,1558.6530081250003,1558.6530081250003,1568.8321156250004,7,-7,3,1.0,8.738591707999149,1.0,2.3074593330002244,1558.2036743749995,1558.2060262079995,1558.6530081250003,1558.4895814579995,,,,,,,,1558.2001077080004,1558.2036291250006,None,,,,,,,,,,,201,kitchen,2,2024-03-18_13h09.11.124,image_similarity_rating,2023.2.3,None,2024-03-18 13h09.27.456878 +0100,
,118,129,374,374,stimuli/own/kitchen/118_kit.jpg,stimuli/own/kitchen/129_kit.jpg,,,,,,,,,0,136,136,373,1568.8377816249995,,,,,,,,,,,1569.1227499159995,1569.2856876250007,1569.2856876250007,1569.2856876250007,1569.2856876250007,1569.2856876250007,1569.2856876250007,1569.2856876250007,1569.2856876250007,1569.2856876250007,1589.6122436660007,-7,7,3,6.0,18.711639458000718,1.0,19.80216724999991,1568.835875666,1568.8377816249995,1569.2856876250007,1569.1227392500004,,,,,,,,1568.8323352499992,1568.8358300830005,None,,,,,,,,,,,201,kitchen,2,2024-03-18_13h09.11.124,image_similarity_rating,2023.2.3,None,2024-03-18 13h09.27.456878 +0100,
,102,129,56,56,stimuli/own/kitchen/102_kit.jpg,stimuli/own/kitchen/129_kit.jpg,,,,,,,,,0,137,137,55,1589.6213360410002,,,,,,,,,,,1589.9063354999998,1590.0715877080002,1590.0715877080002,1590.0715877080002,1590.0715877080002,1590.0715877080002,1590.0715877080002,1590.0715877080002,1590.0715877080002,1590.0715877080002,1598.6407934580002,7,-7,3,2.0,8.423258625000017,2.0,2.2837511249999807,1589.6159631659993,1589.6213360410002,1590.0715877080002,1589.906321583001,,,,,,,,1589.612469791,1589.6159172909993,None,,,,,,,,,,,201,kitchen,2,2024-03-18_13h09.11.124,image_similarity_rating,2023.2.3,None,2024-03-18 13h09.27.456878 +0100,
,114,120,300,300,stimuli/own/kitchen/114_kit.jpg,stimuli/own/kitchen/120_kit.jpg,,,,,,,,,0,138,138,299,1598.6468609580006,,,,,,,,,,,1598.9402539580005,1599.1053974580009,1599.1053974580009,1599.1053974580009,1599.1053974580009,1599.1053974580009,1599.1053974580009,1599.1053974580009,1599.1053974580009,1599.1053974580009,1608.5376820410002,7,-7,3,3.0,9.316380041998855,5.0,4.661346124999909,1598.6445965830007,1598.6468609580006,1599.1053974580009,1598.9402402079995,,,,,,,,1598.6410149999992,1598.6445492910007,None,,,,,,,,,,,201,kitchen,2,2024-03-18_13h09.11.124,image_similarity_rating,2023.2.3,None,2024-03-18 13h09.27.456878 +0100,
,111,134,237,237,stimuli/own/kitchen/111_kit.jpg,stimuli/own/kitchen/134_kit.jpg,,,,,,,,,0,139,139,236,1608.543828541,,,,,,,,,,,1608.8274046250008,1608.9922957500003,1608.9922957500003,1608.9922957500003,1608.9922957500003,1608.9922957500003,1608.9922957500003,1608.9922957500003,1608.9922957500003,1608.9922957500003,1615.9786574160007,-7,7,3,4.0,1.9404498750009225,4.0,6.848714749999999,1608.5415360829993,1608.543828541,1608.9922957500003,1608.8273932499997,,,,,,,,1608.5378996660002,1608.5414837499993,None,,,,,,,,,,,201,kitchen,2,2024-03-18_13h09.11.124,image_similarity_rating,2023.2.3,None,2024-03-18 13h09.27.456878 +0100,
,124,139,488,488,stimuli/own/kitchen/124_kit.jpg,stimuli/own/kitchen/139_kit.jpg,,,,,,,,,0,140,140,487,1615.9879459160002,,,,,,,,,,,1616.2731634579995,1616.438041708001,1616.438041708001,1616.438041708001,1616.438041708001,1616.438041708001,1616.438041708001,1616.438041708001,1616.438041708001,1616.438041708001,1623.0451578329994,-7,7,3,2.0,2.727798541000084,2.0,6.522192415999598,1615.9823665410004,1615.9879459160002,1616.438041708001,1616.2731486249995,,,,,,,,1615.9788761660002,1615.9823211250005,None,,,,,,,,,,,201,kitchen,2,2024-03-18_13h09.11.124,image_similarity_rating,2023.2.3,None,2024-03-18 13h09.27.456878 +0100,
,118,136,380,380,stimuli/own/kitchen/118_kit.jpg,stimuli/own/kitchen/136_kit.jpg,,,,,,,,,0,141,141,379,1623.0545106249992,,,,,,,,,,,1623.3401160409994,1623.5047971250006,1623.5047971250006,1623.5047971250006,1623.5047971250006,1623.5047971250006,1623.5047971250006,1623.5047971250006,1623.5047971250006,1623.5047971250006,1633.8997065410003,-7,7,3,4.0,6.913246791998972,3.0,10.194825333001063,1623.0488669580009,1623.0545106249992,1623.5047971250006,1623.3400972500003,,,,,,,,1623.0453754999999,1623.0488208749994,None,,,,,,,,,,,201,kitchen,2,2024-03-18_13h09.11.124,image_similarity_rating,2023.2.3,None,2024-03-18 13h09.27.456878 +0100,
,112,126,257,257,stimuli/own/kitchen/112_kit.jpg,stimuli/own/kitchen/126_kit.jpg,,,,,,,,,0,142,142,256,1633.9059730000008,,,,,,,,,,,1634.1893300409993,1634.353898583,1634.353898583,1634.353898583,1634.353898583,1634.353898583,1634.353898583,1634.353898583,1634.353898583,1634.353898583,1645.9039301659996,7,-7,3,4.0,10.389870332999635,3.0,11.53913058299986,1633.903368708001,1633.9059730000008,1634.353898583,1634.1893165410002,,,,,,,,1633.899923541001,1633.903320708001,None,,,,,,,,,,,201,kitchen,2,2024-03-18_13h09.11.124,image_similarity_rating,2023.2.3,None,2024-03-18 13h09.27.456878 +0100,
,103,122,82,82,stimuli/own/kitchen/103_kit.jpg,stimuli/own/kitchen/122_kit.jpg,,,,,,,,,0,143,143,81,1645.9095454580001,,,,,,,,,,,1646.2065830409992,1646.3728624579999,1646.3728624579999,1646.3728624579999,1646.3728624579999,1646.3728624579999,1646.3728624579999,1646.3728624579999,1646.3728624579999,1646.3728624579999,1652.4866084580008,-7,7,3,5.0,5.143712916998993,3.0,6.091454791001524,1645.9076420830006,1645.9095454580001,1646.3728624579999,1646.2065695000001,,,,,,,,1645.9041456249997,1645.9075958329995,None,,,,,,,,,,,201,kitchen,2,2024-03-18_13h09.11.124,image_similarity_rating,2023.2.3,None,2024-03-18 13h09.27.456878 +0100,
,117,120,345,345,stimuli/own/kitchen/117_kit.jpg,stimuli/own/kitchen/120_kit.jpg,,,,,,,,,0,144,144,344,1652.4922194579995,,,,,,,,,,,1652.7754662080006,1652.9391755409997,1652.9391755409997,1652.9391755409997,1652.9391755409997,1652.9391755409997,1652.9391755409997,1652.9391755409997,1652.9391755409997,1652.9391755409997,1660.395291875,-7,7,3,2.0,7.465185875000316,5.0,3.174354041000697,1652.4903216660005,1652.4922194579995,1652.9391755409997,1652.7754555409992,,,,,,,,1652.4868410830004,1652.4902757500004,None,,,,,,,,,,,201,kitchen,2,2024-03-18_13h09.11.124,image_similarity_rating,2023.2.3,None,2024-03-18 13h09.27.456878 +0100,
,136,141,585,585,stimuli/own/kitchen/136_kit.jpg,stimuli/own/kitchen/141_kit.jpg,,,,,,,,,0,145,145,584,1660.4043842499996,,,,,,,,,,,1660.6899241249994,1660.8549564999994,1660.8549564999994,1660.8549564999994,1660.8549564999994,1660.8549564999994,1660.8549564999994,1660.8549564999994,1660.8549564999994,1660.8549564999994,1669.3754011660003,7,-7,3,4.0,3.870972167000218,4.0,8.392827082998338,1660.399101375,1660.4043842499996,1660.8549564999994,1660.6899049580006,,,,,,,,1660.3955358750009,1660.399055625001,None,,,,,,,,,,,201,kitchen,2,2024-03-18_13h09.11.124,image_similarity_rating,2023.2.3,None,2024-03-18 13h09.27.456878 +0100,
