slide,sub1,sub2,pairID,trialID,stim1,stim2,instructionsLoop.thisRepN,instructionsLoop.thisTrialN,instructionsLoop.thisN,instructionsLoop.thisIndex,practice.thisRepN,practice.thisTrialN,practice.thisN,practice.thisIndex,trials.thisRepN,trials.thisTrialN,trials.thisN,trials.thisIndex,thisRow.t,notes,preparation.started,preparation.stopped,instructions.started,startResponse.started,slide_img.started,instructions.stopped,startResponse.keys,startResponse.rt,startResponse.duration,trial.started,polygon.started,polygon_2.started,image1.started,image2.started,rating_1.started,question.started,rating_2.started,question_2.started,trial.stopped,stim1pos,stim2pos,block,rating_1.response,rating_1.rt,rating_2.response,rating_2.rt,ITI.started,text.started,text.stopped,ITI.stopped,practice_over.started,text_2.started,space_practice_over.started,practice_over.stopped,space_practice_over.keys,space_practice_over.rt,space_practice_over.duration,breakBlocks.started,breakBlocks.stopped,startBlock.keys,startBlock.started,startBlock.rt,startBlock.duration,end.started,participant,age,gender,session,date,expName,psychopyVersion,frameRate,expStart,
instructions/Slide1.jpg,,,,,,,0,0,0,0,,,,,,,,,0.043531875000041964,,0.0021329170000399245,0.002290417000040179,0.009398292000014408,0.043531875000041964,0.043531875000041964,141.64830879200002,space,141.60441737500003,None,,,,,,,,,,,,,,,,,,,,,,,,,,,,,,,,,,,,201,,female,kitchen,2024-03-08_10h20.03.051,image_similarity_rating,2023.2.3,None,2024-03-08 10h20.15.326189 +0100,
instructions/Slide3.jpg,,,,,,,0,1,1,1,,,,,,,,,141.671765042,,,,141.64959779200007,141.671765042,141.671765042,143.74948550000005,space,2.077325541999926,None,,,,,,,,,,,,,,,,,,,,,,,,,,,,,,,,,,,,201,,female,kitchen,2024-03-08_10h20.03.051,image_similarity_rating,2023.2.3,None,2024-03-08 10h20.15.326189 +0100,
instructions/Slide4.jpg,,,,,,,0,2,2,2,,,,,,,,,143.77282237499998,,,,143.75012758300005,143.77282237499998,143.77282237499998,144.48822541700002,space,0.7150669579999658,None,,,,,,,,,,,,,,,,,,,,,,,,,,,,,,,,,,,,201,,female,kitchen,2024-03-08_10h20.03.051,image_similarity_rating,2023.2.3,None,2024-03-08 10h20.15.326189 +0100,
instructions/Slide5.jpg,,,,,,,0,3,3,3,,,,,,,,,144.515343375,,,,144.48903437500002,144.515343375,144.515343375,145.16134862500002,space,0.6456455830000323,None,,,,,,,,,,,,,,,,,,,,,,,,,,,,,,,,,,,,201,,female,kitchen,2024-03-08_10h20.03.051,image_similarity_rating,2023.2.3,None,2024-03-08 10h20.15.326189 +0100,
,107,133,practice,9,stimuli/own/kitchen/107_kit.jpg,stimuli/own/kitchen/133_kit.jpg,,,,,0,0,0,8,,,,,145.38785545800005,,,,,,,,,,,145.18881683299998,145.38785545800005,145.38785545800005,145.38785545800005,145.38785545800005,145.38785545800005,145.38785545800005,145.38785545800005,145.38785545800005,228.68977945800003,-7,7,0,6.0,82.52033158400002,6.0,83.25408179199997,228.69000499999999,228.69194395799997,229.13741704199998,228.974563875,,,,,,,,,,,,,,,201,,female,kitchen,2024-03-08_10h20.03.051,image_similarity_rating,2023.2.3,None,2024-03-08 10h20.15.326189 +0100,
,108,133,practice,10,stimuli/own/kitchen/108_kit.jpg,stimuli/own/kitchen/133_kit.jpg,,,,,0,1,1,9,,,,,229.13741704199998,,,,,,,,,,,228.97486258300006,229.13741704199998,229.13741704199998,229.13741704199998,229.13741704199998,229.13741704199998,229.13741704199998,229.13741704199998,229.13741704199998,234.50641337500002,-7,7,0,5.0,4.196905124999944,6.0,5.305045417000088,234.506554667,234.50830608300004,234.95502425,234.7913765,,,,,,,,,,,,,,,201,,female,kitchen,2024-03-08_10h20.03.051,image_similarity_rating,2023.2.3,None,2024-03-08 10h20.15.326189 +0100,
,128,108,practice,3,stimuli/own/kitchen/128_kit.jpg,stimuli/own/kitchen/108_kit.jpg,,,,,0,2,2,2,,,,,234.95502425,,,,,,,,,,,234.79168187500005,234.95502425,234.95502425,234.95502425,234.95502425,234.95502425,234.95502425,234.95502425,234.95502425,240.20539083299997,-7,7,0,3.0,5.166768500000103,5.0,3.711837375000073,240.205533042,240.207472333,240.65846300000004,240.491558667,,,,,,,,,,,,,,,201,,female,kitchen,2024-03-08_10h20.03.051,image_similarity_rating,2023.2.3,None,2024-03-08 10h20.15.326189 +0100,
,107,108,practice,5,stimuli/own/kitchen/107_kit.jpg,stimuli/own/kitchen/108_kit.jpg,,,,,0,3,3,4,,,,,240.65846300000004,,,,,,,,,,,240.491952292,240.65846300000004,240.65846300000004,240.65846300000004,240.65846300000004,240.65846300000004,240.65846300000004,240.65846300000004,240.65846300000004,273.880124167,7,-7,0,4.0,32.65965620899999,6.0,3.66732166700001,273.880271458,273.88607329200005,274.33580816700004,274.1704845,,,,,,,,,,,,,,,201,,female,kitchen,2024-03-08_10h20.03.051,image_similarity_rating,2023.2.3,None,2024-03-08 10h20.15.326189 +0100,
,110,107,practice,4,stimuli/own/kitchen/110_kit.jpg,stimuli/own/kitchen/107_kit.jpg,,,,,0,4,4,3,,,,,274.33580816700004,,,,,,,,,,,274.17090579200004,274.33580816700004,274.33580816700004,274.33580816700004,274.33580816700004,274.33580816700004,274.33580816700004,274.33580816700004,274.33580816700004,280.818149042,-7,7,0,2.0,6.160749582999983,4.0,3.3018387920000123,280.81829154200005,280.821017875,281.26905841700005,281.104026167,,,,,,,,,,,,,,,201,,female,kitchen,2024-03-08_10h20.03.051,image_similarity_rating,2023.2.3,None,2024-03-08 10h20.15.326189 +0100,
,108,110,practice,8,stimuli/own/kitchen/108_kit.jpg,stimuli/own/kitchen/110_kit.jpg,,,,,0,5,5,7,,,,,281.26905841700005,,,,,,,,,,,281.10444479200004,281.26905841700005,281.26905841700005,281.26905841700005,281.26905841700005,281.26905841700005,281.26905841700005,281.26905841700005,281.26905841700005,288.171660542,-7,7,0,4.0,4.77130304100001,5.0,6.704462207999995,288.171802958,288.173775917,288.623432833,288.45934933300003,,,,,,,,,,,,,,,201,,female,kitchen,2024-03-08_10h20.03.051,image_similarity_rating,2023.2.3,None,2024-03-08 10h20.15.326189 +0100,
,110,133,practice,1,stimuli/own/kitchen/110_kit.jpg,stimuli/own/kitchen/133_kit.jpg,,,,,0,6,6,0,,,,,288.623432833,,,,,,,,,,,288.459740875,288.623432833,288.623432833,288.623432833,288.623432833,288.623432833,288.623432833,288.623432833,288.623432833,296.934586542,-7,7,0,5.0,8.00870287500004,3.0,5.851304708000043,296.934732625,296.937811417,297.38780416700007,297.224233333,,,,,,,,,,,,,,,201,,female,kitchen,2024-03-08_10h20.03.051,image_similarity_rating,2023.2.3,None,2024-03-08 10h20.15.326189 +0100,
,110,128,practice,2,stimuli/own/kitchen/110_kit.jpg,stimuli/own/kitchen/128_kit.jpg,,,,,0,7,7,1,,,,,297.38780416700007,,,,,,,,,,,297.22454920800004,297.38780416700007,297.38780416700007,297.38780416700007,297.38780416700007,297.38780416700007,297.38780416700007,297.38780416700007,297.38780416700007,302.82177504200007,-7,7,0,6.0,3.3245181249999405,4.0,5.248797792000005,302.821915292,302.82418,303.285625583,303.12091408300006,,,,,,,,,,,,,,,201,,female,kitchen,2024-03-08_10h20.03.051,image_similarity_rating,2023.2.3,None,2024-03-08 10h20.15.326189 +0100,
,128,133,practice,6,stimuli/own/kitchen/128_kit.jpg,stimuli/own/kitchen/133_kit.jpg,,,,,0,8,8,5,,,,,303.285625583,,,,,,,,,,,303.121387792,303.285625583,303.285625583,303.285625583,303.285625583,303.285625583,303.285625583,303.285625583,303.285625583,313.15539500000006,-7,7,0,5.0,5.768956374999902,3.0,9.695133499999997,313.15553779199996,313.15778204200006,313.605472667,313.44123091700004,,,,,,,,,,,,,,,201,,female,kitchen,2024-03-08_10h20.03.051,image_similarity_rating,2023.2.3,None,2024-03-08 10h20.15.326189 +0100,
,107,128,practice,7,stimuli/own/kitchen/107_kit.jpg,stimuli/own/kitchen/128_kit.jpg,,,,,0,9,9,6,,,,,313.605472667,,,,,,,,,,,313.44160937500004,313.605472667,313.605472667,313.605472667,313.605472667,313.605472667,313.605472667,313.605472667,313.605472667,320.538555833,-7,7,0,3.0,4.050422375000039,4.0,6.595279375000018,320.53869716700007,320.54050391699997,320.836623083,320.82511770800005,,,,,,,,,,,,,,,201,,female,kitchen,2024-03-08_10h20.03.051,image_similarity_rating,2023.2.3,None,2024-03-08 10h20.15.326189 +0100,
,,,,,,,,,,,,,,,,,,,,,,,,,,,,,,,,,,,,,,,,,,,,,,,,,,,320.82518245800003,320.836623083,320.836623083,321.42291174999997,space,0.5859577500000341,None,,,,,,,,201,,female,kitchen,2024-03-08_10h20.03.051,image_similarity_rating,2023.2.3,None,2024-03-08 10h20.15.326189 +0100,
,115,141,354,354,stimuli/own/kitchen/115_kit.jpg,stimuli/own/kitchen/141_kit.jpg,,,,,,,,,0,0,0,353,321.47466454199997,,,,,,,,,,,321.757966125,321.922721417,321.922721417,321.922721417,321.922721417,321.922721417,321.922721417,321.922721417,321.922721417,362.879691208,-7,7,1,2.0,39.38705933299991,1.0,40.46099562500001,321.47243429200006,321.47466454199997,321.922721417,321.757954417,,,,,,,,321.45953183299997,321.472093958,None,,,,,201,,female,kitchen,2024-03-08_10h20.03.051,image_similarity_rating,2023.2.3,None,2024-03-08 10h20.15.326189 +0100,
,129,138,572,572,stimuli/own/kitchen/129_kit.jpg,stimuli/own/kitchen/138_kit.jpg,,,,,,,,,0,1,1,571,362.90255054200003,,,,,,,,,,,363.186434917,363.35051208300007,363.35051208300007,363.35051208300007,363.35051208300007,363.35051208300007,363.35051208300007,363.35051208300007,363.35051208300007,371.60478537500006,-7,7,1,3.0,6.005757249999988,4.0,8.094388249999952,362.88401204200005,362.90255054200003,,363.186424292,,,,,,,,362.880294417,362.8839625,None,,,,,201,,female,kitchen,2024-03-08_10h20.03.051,image_similarity_rating,2023.2.3,None,2024-03-08 10h20.15.326189 +0100,
,102,106,39,39,stimuli/own/kitchen/102_kit.jpg,stimuli/own/kitchen/106_kit.jpg,,,,,,,,,0,2,2,38,371.61003783300004,,,,,,,,,,,371.903608667,372.06907900000004,372.06907900000004,372.06907900000004,372.06907900000004,372.06907900000004,372.06907900000004,372.06907900000004,372.06907900000004,378.45832583300006,7,-7,1,6.0,4.085425250000071,4.0,6.314199625000015,371.608113833,371.61003783300004,372.06907900000004,371.9035935,,,,,,,,371.605011875,371.60806525000004,None,,,,,201,,female,kitchen,2024-03-08_10h20.03.051,image_similarity_rating,2023.2.3,None,2024-03-08 10h20.15.326189 +0100,
,121,127,465,465,stimuli/own/kitchen/121_kit.jpg,stimuli/own/kitchen/127_kit.jpg,,,,,,,,,0,3,3,464,378.46885983300007,,,,,,,,,,,378.75353487499996,378.92423470800003,378.92423470800003,378.92423470800003,378.92423470800003,378.92423470800003,378.92423470800003,378.92423470800003,378.92423470800003,383.880318542,-7,7,1,3.0,3.4132892909999555,4.0,4.894373332999976,378.461562,378.46885983300007,378.92423470800003,378.753511833,,,,,,,,378.45855250000005,378.461512625,None,,,,,201,,female,kitchen,2024-03-08_10h20.03.051,image_similarity_rating,2023.2.3,None,2024-03-08 10h20.15.326189 +0100,
,118,127,408,408,stimuli/own/kitchen/118_kit.jpg,stimuli/own/kitchen/127_kit.jpg,,,,,,,,,0,4,4,407,383.885460917,,,,,,,,,,,384.170700833,384.33455629200006,384.33455629200006,384.33455629200006,384.33455629200006,384.33455629200006,384.33455629200006,384.33455629200006,384.33455629200006,391.03874070800003,7,-7,1,6.0,6.054680791999999,5.0,6.532086082999967,383.88368929200004,383.885460917,384.33455629200006,384.170686958,,,,,,,,383.880546542,383.883640833,None,,,,,201,,female,kitchen,2024-03-08_10h20.03.051,image_similarity_rating,2023.2.3,None,2024-03-08 10h20.15.326189 +0100,
,106,124,180,180,stimuli/own/kitchen/106_kit.jpg,stimuli/own/kitchen/124_kit.jpg,,,,,,,,,0,5,5,179,391.04408608299997,,,,,,,,,,,391.33717729200004,391.502993667,391.502993667,391.502993667,391.502993667,391.502993667,391.502993667,391.502993667,391.502993667,398.879969875,7,-7,1,5.0,4.629690291999964,5.0,7.28057487500007,391.041969208,391.04408608299997,391.502993667,391.33716458300006,,,,,,,,391.038966958,391.04192070799996,None,,,,,201,,female,kitchen,2024-03-08_10h20.03.051,image_similarity_rating,2023.2.3,None,2024-03-08 10h20.15.326189 +0100,
,109,139,222,222,stimuli/own/kitchen/109_kit.jpg,stimuli/own/kitchen/139_kit.jpg,,,,,,,,,0,6,6,221,398.885256458,,,,,,,,,,,399.17061162500005,399.33317200000005,399.33317200000005,399.33317200000005,399.33317200000005,399.33317200000005,399.33317200000005,399.33317200000005,399.33317200000005,405.713501917,-7,7,1,2.0,4.044836874999987,2.0,6.29482787500001,398.88320400000003,398.885256458,399.33317200000005,399.170601,,,,,,,,398.880196667,398.8831555,None,,,,,201,,female,kitchen,2024-03-08_10h20.03.051,image_similarity_rating,2023.2.3,None,2024-03-08 10h20.15.326189 +0100,
,131,139,592,592,stimuli/own/kitchen/131_kit.jpg,stimuli/own/kitchen/139_kit.jpg,,,,,,,,,0,7,7,591,405.71868283300006,,,,,,,,,,,406.003564167,406.172084083,406.172084083,406.172084083,406.172084083,406.172084083,406.172084083,406.172084083,406.172084083,410.325816708,7,-7,1,2.0,2.519973749999963,3.0,4.094331583000098,405.71673516699997,405.71868283300006,406.172084083,406.003546458,,,,,,,,405.71372741700003,405.716686958,None,,,,,201,,female,kitchen,2024-03-08_10h20.03.051,image_similarity_rating,2023.2.3,None,2024-03-08 10h20.15.326189 +0100,
,131,134,587,587,stimuli/own/kitchen/131_kit.jpg,stimuli/own/kitchen/134_kit.jpg,,,,,,,,,0,8,8,586,410.33533170800007,,,,,,,,,,,410.62024725,410.788798333,410.788798333,410.788798333,410.788798333,410.788798333,410.788798333,410.788798333,410.788798333,416.57995312500003,7,-7,1,2.0,4.51739320799993,3.0,5.6668719580000015,410.32905629199996,410.33533170800007,410.788798333,410.62022995800004,,,,,,,,410.32604091700006,410.329008042,None,,,,,201,,female,kitchen,2024-03-08_10h20.03.051,image_similarity_rating,2023.2.3,None,2024-03-08 10h20.15.326189 +0100,
,127,135,558,558,stimuli/own/kitchen/127_kit.jpg,stimuli/own/kitchen/135_kit.jpg,,,,,,,,,0,9,9,557,416.585307667,,,,,,,,,,,416.86986295800006,417.033558667,417.033558667,417.033558667,417.033558667,417.033558667,417.033558667,417.033558667,417.033558667,421.63415037500005,7,-7,1,3.0,2.2696590409999544,4.0,4.363780540999983,416.583191333,416.585307667,417.033558667,416.86984954200005,,,,,,,,416.58020400000004,416.583142708,None,,,,,201,,female,kitchen,2024-03-08_10h20.03.051,image_similarity_rating,2023.2.3,None,2024-03-08 10h20.15.326189 +0100,
,140,141,630,630,stimuli/own/kitchen/140_kit.jpg,stimuli/own/kitchen/141_kit.jpg,,,,,,,,,0,10,10,629,421.639606,,,,,,,,,,,421.924103,422.08890037500004,422.08890037500004,422.08890037500004,422.08890037500004,422.08890037500004,422.08890037500004,422.08890037500004,422.08890037500004,426.975912125,-7,7,1,3.0,4.896063958000013,2.0,2.627194624999902,421.637436583,421.639606,422.08890037500004,421.924091208,,,,,,,,421.634399417,421.637387833,None,,,,,201,,female,kitchen,2024-03-08_10h20.03.051,image_similarity_rating,2023.2.3,None,2024-03-08 10h20.15.326189 +0100,
,117,124,384,384,stimuli/own/kitchen/117_kit.jpg,stimuli/own/kitchen/124_kit.jpg,,,,,,,,,0,11,11,383,426.98565475000004,,,,,,,,,,,427.26995741700006,427.43876408299997,427.43876408299997,427.43876408299997,427.43876408299997,427.43876408299997,427.43876408299997,427.43876408299997,427.43876408299997,433.374629042,7,-7,1,5.0,4.085898333999921,5.0,4.74986100000001,426.97918466699997,426.98565475000004,427.43876408299997,427.26994033299997,,,,,,,,426.97616862499996,426.97913675,None,,,,,201,,female,kitchen,2024-03-08_10h20.03.051,image_similarity_rating,2023.2.3,None,2024-03-08 10h20.15.326189 +0100,
,105,115,141,141,stimuli/own/kitchen/105_kit.jpg,stimuli/own/kitchen/115_kit.jpg,,,,,,,,,0,12,12,140,433.38543029199997,,,,,,,,,,,433.66998262500005,433.83876950000007,433.83876950000007,433.83876950000007,433.83876950000007,433.83876950000007,433.83876950000007,433.83876950000007,433.83876950000007,443.22586170799997,-7,7,1,4.0,9.433725416999891,3.0,6.576740666999967,433.37798208300006,433.38543029199997,433.83876950000007,433.66996545800004,,,,,,,,433.374860417,433.377933167,None,,,,,201,,female,kitchen,2024-03-08_10h20.03.051,image_similarity_rating,2023.2.3,None,2024-03-08 10h20.15.326189 +0100,
,121,122,460,460,stimuli/own/kitchen/121_kit.jpg,stimuli/own/kitchen/122_kit.jpg,,,,,,,,,0,13,13,459,443.235235583,,,,,,,,,,,443.519904458,443.686206625,443.686206625,443.686206625,443.686206625,443.686206625,443.686206625,443.686206625,443.686206625,447.879732167,-7,7,1,2.0,3.035532208999939,3.0,4.088802375,443.229086042,443.235235583,443.686206625,443.51988895799997,,,,,,,,443.22609333300005,443.229037625,None,,,,,201,,female,kitchen,2024-03-08_10h20.03.051,image_similarity_rating,2023.2.3,None,2024-03-08 10h20.15.326189 +0100,
,112,122,262,262,stimuli/own/kitchen/112_kit.jpg,stimuli/own/kitchen/122_kit.jpg,,,,,,,,,0,14,14,261,447.885099292,,,,,,,,,,,448.170011417,448.334917042,448.334917042,448.334917042,448.334917042,448.334917042,448.334917042,448.334917042,448.334917042,454.829953958,7,-7,1,7.0,3.5380264579999903,4.0,6.451357457999961,447.883036583,447.885099292,448.334917042,448.169995292,,,,,,,,447.87996266700003,447.88298779200005,None,,,,,201,,female,kitchen,2024-03-08_10h20.03.051,image_similarity_rating,2023.2.3,None,2024-03-08 10h20.15.326189 +0100,
,116,118,356,356,stimuli/own/kitchen/116_kit.jpg,stimuli/own/kitchen/118_kit.jpg,,,,,,,,,0,15,15,355,454.83505758300004,,,,,,,,,,,455.12009741700007,455.28419987500007,455.28419987500007,455.28419987500007,455.28419987500007,455.28419987500007,455.28419987500007,455.28419987500007,455.28419987500007,461.95438637500007,7,-7,1,5.0,6.605933958000037,7.0,3.786664666999968,454.83317979200007,454.83505758300004,455.28419987500007,455.12008487500003,,,,,,,,454.83017791699996,454.83313175000006,None,,,,,201,,female,kitchen,2024-03-08_10h20.03.051,image_similarity_rating,2023.2.3,None,2024-03-08 10h20.15.326189 +0100,
,103,137,98,98,stimuli/own/kitchen/103_kit.jpg,stimuli/own/kitchen/137_kit.jpg,,,,,,,,,0,16,16,97,461.959539958,,,,,,,,,,,462.253855958,462.421319417,462.421319417,462.421319417,462.421319417,462.421319417,462.421319417,462.421319417,462.421319417,467.446287292,-7,7,1,3.0,3.224497499999984,5.0,4.9372574160000795,461.957606,461.959539958,462.421319417,462.25384116699996,,,,,,,,461.95461333300005,461.95755712500005,None,,,,,201,,female,kitchen,2024-03-08_10h20.03.051,image_similarity_rating,2023.2.3,None,2024-03-08 10h20.15.326189 +0100,
,119,123,424,424,stimuli/own/kitchen/119_kit.jpg,stimuli/own/kitchen/123_kit.jpg,,,,,,,,,0,17,17,423,467.45187470800005,,,,,,,,,,,467.73654575000006,467.903015625,467.903015625,467.903015625,467.903015625,467.903015625,467.903015625,467.903015625,467.903015625,475.250715542,-7,7,1,3.0,5.9588292920000185,6.0,7.134998625000094,467.449541667,467.45187470800005,467.903015625,467.73653075,,,,,,,,467.44651433300004,467.449479917,None,,,,,201,,female,kitchen,2024-03-08_10h20.03.051,image_similarity_rating,2023.2.3,None,2024-03-08 10h20.15.326189 +0100,
,114,138,327,327,stimuli/own/kitchen/114_kit.jpg,stimuli/own/kitchen/138_kit.jpg,,,,,,,,,0,18,18,326,475.256131875,,,,,,,,,,,475.554193292,475.71937825000003,475.71937825000003,475.71937825000003,475.71937825000003,475.71937825000003,475.71937825000003,475.71937825000003,475.71937825000003,480.81794420800003,-7,7,1,5.0,3.922817499999951,4.0,5.014736625000069,475.254036708,475.256131875,475.71937825000003,475.554173875,,,,,,,,475.25097116700005,475.25398554200007,None,,,,,201,,female,kitchen,2024-03-08_10h20.03.051,image_similarity_rating,2023.2.3,None,2024-03-08 10h20.15.326189 +0100,
,121,125,463,463,stimuli/own/kitchen/121_kit.jpg,stimuli/own/kitchen/125_kit.jpg,,,,,,,,,0,19,19,462,480.82349700000003,,,,,,,,,,,481.10716425000004,481.27187454200003,481.27187454200003,481.27187454200003,481.27187454200003,481.27187454200003,481.27187454200003,481.27187454200003,481.27187454200003,485.64645116700007,-7,7,1,2.0,4.39579916699995,5.0,2.1271141250000483,480.82123695800004,480.82349700000003,481.27187454200003,481.107151333,,,,,,,,480.8181675,480.821187875,None,,,,,201,,female,kitchen,2024-03-08_10h20.03.051,image_similarity_rating,2023.2.3,None,2024-03-08 10h20.15.326189 +0100,
,125,134,532,532,stimuli/own/kitchen/125_kit.jpg,stimuli/own/kitchen/134_kit.jpg,,,,,,,,,0,20,20,531,485.651696167,,,,,,,,,,,485.93645087500005,486.10102545800004,486.10102545800004,486.10102545800004,486.10102545800004,486.10102545800004,486.10102545800004,486.10102545800004,486.10102545800004,491.76696966700007,-7,7,1,6.0,4.65360479200001,5.0,5.635219333000009,485.649690333,485.651696167,486.10102545800004,485.936437667,,,,,,,,485.646677958,485.64964170800005,None,,,,,201,,female,kitchen,2024-03-08_10h20.03.051,image_similarity_rating,2023.2.3,None,2024-03-08 10h20.15.326189 +0100,
,116,139,375,375,stimuli/own/kitchen/116_kit.jpg,stimuli/own/kitchen/139_kit.jpg,,,,,,,,,0,21,21,374,491.772288875,,,,,,,,,,,492.05858700000005,492.22224925000006,492.22224925000006,492.22224925000006,492.22224925000006,492.22224925000006,492.22224925000006,492.22224925000006,492.22224925000006,497.53388816700004,7,-7,1,3.0,4.522631832999991,3.0,5.288396749999947,491.770340417,491.772288875,492.22224925000006,492.05857362500007,,,,,,,,491.76719633299996,491.770291125,None,,,,,201,,female,kitchen,2024-03-08_10h20.03.051,image_similarity_rating,2023.2.3,None,2024-03-08 10h20.15.326189 +0100,
,112,139,277,277,stimuli/own/kitchen/112_kit.jpg,stimuli/own/kitchen/139_kit.jpg,,,,,,,,,0,22,22,276,497.53935895800004,,,,,,,,,,,497.82380229200004,497.987653417,497.987653417,497.987653417,497.987653417,497.987653417,497.987653417,497.987653417,497.987653417,501.83830537500006,7,-7,1,2.0,3.8166427499999145,5.0,2.6855133340000066,497.537261292,497.53935895800004,497.987653417,497.82379229200006,,,,,,,,497.53412229200006,497.53721245800006,None,,,,,201,,female,kitchen,2024-03-08_10h20.03.051,image_similarity_rating,2023.2.3,None,2024-03-08 10h20.15.326189 +0100,
,118,130,410,410,stimuli/own/kitchen/118_kit.jpg,stimuli/own/kitchen/130_kit.jpg,,,,,,,,,0,23,23,409,501.84381654200007,,,,,,,,,,,502.13740779200003,502.30560733300007,502.30560733300007,502.30560733300007,502.30560733300007,502.30560733300007,502.30560733300007,502.30560733300007,502.30560733300007,507.820849958,7,-7,1,5.0,3.8395681249999143,3.0,5.3434867920000215,501.84152291699996,501.84381654200007,502.30560733300007,502.13739333300003,,,,,,,,501.83853008299997,501.841474375,None,,,,,201,,female,kitchen,2024-03-08_10h20.03.051,image_similarity_rating,2023.2.3,None,2024-03-08 10h20.15.326189 +0100,
,123,132,502,502,stimuli/own/kitchen/123_kit.jpg,stimuli/own/kitchen/132_kit.jpg,,,,,,,,,0,24,24,501,507.82594883300004,,,,,,,,,,,508.11969408300007,508.28561229200005,508.28561229200005,508.28561229200005,508.28561229200005,508.28561229200005,508.28561229200005,508.28561229200005,508.28561229200005,514.4252402500001,7,-7,1,6.0,5.290644415999964,2.0,6.102972042000033,507.82406287500004,507.82594883300004,508.28561229200005,508.11967866699996,,,,,,,,507.821075667,507.82401429199996,None,,,,,201,,female,kitchen,2024-03-08_10h20.03.051,image_similarity_rating,2023.2.3,None,2024-03-08 10h20.15.326189 +0100,
,119,137,436,436,stimuli/own/kitchen/119_kit.jpg,stimuli/own/kitchen/137_kit.jpg,,,,,,,,,0,25,25,435,514.4349447920001,,,,,,,,,,,514.7196417499999,514.8841379170001,514.8841379170001,514.8841379170001,514.8841379170001,514.8841379170001,514.8841379170001,514.8841379170001,514.8841379170001,523.154359833,-7,7,1,2.0,7.893140291999998,3.0,4.714827833999948,514.428472333,514.4349447920001,514.8841379170001,514.7196282919999,,,,,,,,514.4254652500001,514.4284245419999,None,,,,,201,,female,kitchen,2024-03-08_10h20.03.051,image_similarity_rating,2023.2.3,None,2024-03-08 10h20.15.326189 +0100,
,104,134,127,127,stimuli/own/kitchen/104_kit.jpg,stimuli/own/kitchen/134_kit.jpg,,,,,,,,,0,26,26,126,523.1595421249999,,,,,,,,,,,523.4528954580001,523.619257542,523.619257542,523.619257542,523.619257542,523.619257542,523.619257542,523.619257542,523.619257542,528.1540857079999,-7,7,1,4.0,3.2067852500000527,5.0,4.510283917000038,523.1575970000001,523.1595421249999,523.619257542,523.452879833,,,,,,,,523.1545880420001,523.1575485830001,None,,,,,201,,female,kitchen,2024-03-08_10h20.03.051,image_similarity_rating,2023.2.3,None,2024-03-08 10h20.15.326189 +0100,
,122,124,479,479,stimuli/own/kitchen/122_kit.jpg,stimuli/own/kitchen/124_kit.jpg,,,,,,,,,0,27,27,478,528.1592249580001,,,,,,,,,,,528.453058458,528.6208831250001,528.6208831250001,528.6208831250001,528.6208831250001,528.6208831250001,528.6208831250001,528.6208831250001,528.6208831250001,533.8745127080001,-7,7,1,6.0,4.306433250000055,4.0,5.145595957999944,528.1572952500001,528.1592249580001,528.6208831250001,528.4530392080001,,,,,,,,528.1543121249999,528.157247417,None,,,,,201,,female,kitchen,2024-03-08_10h20.03.051,image_similarity_rating,2023.2.3,None,2024-03-08 10h20.15.326189 +0100,
,102,111,41,41,stimuli/own/kitchen/102_kit.jpg,stimuli/own/kitchen/111_kit.jpg,,,,,,,,,0,28,28,40,533.88509675,,,,,,,,,,,534.1695709999999,534.337308292,534.337308292,534.337308292,534.337308292,534.337308292,534.337308292,534.337308292,534.337308292,539.9251261249999,-7,7,1,5.0,4.701481082999976,3.0,5.2632502500000555,533.8777360419999,533.88509675,534.337308292,534.169556333,,,,,,,,533.874740167,533.8776877079999,None,,,,,201,,female,kitchen,2024-03-08_10h20.03.051,image_similarity_rating,2023.2.3,None,2024-03-08 10h20.15.326189 +0100,
,114,124,315,315,stimuli/own/kitchen/114_kit.jpg,stimuli/own/kitchen/124_kit.jpg,,,,,,,,,0,29,29,314,539.935106917,,,,,,,,,,,540.2198715,540.3839204170001,540.3839204170001,540.3839204170001,540.3839204170001,540.3839204170001,540.3839204170001,540.3839204170001,540.3839204170001,545.1338586669999,-7,7,1,6.0,3.421585999999934,4.0,4.662250333000088,539.928468333,539.935106917,540.3839204170001,540.2198584170001,,,,,,,,539.9253510000001,539.9284199169999,None,,,,,201,,female,kitchen,2024-03-08_10h20.03.051,image_similarity_rating,2023.2.3,None,2024-03-08 10h20.15.326189 +0100,
,113,115,281,281,stimuli/own/kitchen/113_kit.jpg,stimuli/own/kitchen/115_kit.jpg,,,,,,,,,0,30,30,280,545.139242208,,,,,,,,,,,545.423719917,545.5883530420001,545.5883530420001,545.5883530420001,545.5883530420001,545.5883530420001,545.5883530420001,545.5883530420001,545.5883530420001,550.587340667,7,-7,1,2.0,3.483527249999952,2.0,4.424916625000037,545.1371482080001,545.139242208,545.5883530420001,545.423707875,,,,,,,,545.1341157500001,545.137099708,None,,,,,201,,female,kitchen,2024-03-08_10h20.03.051,image_similarity_rating,2023.2.3,None,2024-03-08 10h20.15.326189 +0100,
,115,117,332,332,stimuli/own/kitchen/115_kit.jpg,stimuli/own/kitchen/117_kit.jpg,,,,,,,,,0,31,31,331,550.5924828330001,,,,,,,,,,,550.8860949580001,551.052177042,551.052177042,551.052177042,551.052177042,551.052177042,551.052177042,551.052177042,551.052177042,555.8039542500001,-7,7,1,2.0,1.9964282500000081,2.0,3.864551709000011,550.590571708,550.5924828330001,551.052177042,550.8860763330001,,,,,,,,550.5875693329999,550.590523333,None,,,,,201,,female,kitchen,2024-03-08_10h20.03.051,image_similarity_rating,2023.2.3,None,2024-03-08 10h20.15.326189 +0100,
,115,134,347,347,stimuli/own/kitchen/115_kit.jpg,stimuli/own/kitchen/134_kit.jpg,,,,,,,,,0,32,32,346,555.809108958,,,,,,,,,,,556.1028905420001,556.2664072079999,556.2664072079999,556.2664072079999,556.2664072079999,556.2664072079999,556.2664072079999,556.2664072079999,556.2664072079999,559.8501866670001,7,-7,1,3.0,2.9243090409999013,2.0,3.3581481669999675,555.8071817919999,555.809108958,556.2664072079999,556.102880375,,,,,,,,555.80418175,555.8071337920001,None,,,,,201,,female,kitchen,2024-03-08_10h20.03.051,image_similarity_rating,2023.2.3,None,2024-03-08 10h20.15.326189 +0100,
,125,139,537,537,stimuli/own/kitchen/125_kit.jpg,stimuli/own/kitchen/139_kit.jpg,,,,,,,,,0,33,33,536,559.8555340830001,,,,,,,,,,,560.140162375,560.305334417,560.305334417,560.305334417,560.305334417,560.305334417,560.305334417,560.305334417,560.305334417,567.1048506669999,7,-7,1,4.0,6.510582167000052,3.0,4.873705958999949,559.853465875,559.8555340830001,560.305334417,560.1401510000001,,,,,,,,559.850415208,559.8534172080001,None,,,,,201,,female,kitchen,2024-03-08_10h20.03.051,image_similarity_rating,2023.2.3,None,2024-03-08 10h20.15.326189 +0100,
,122,126,481,481,stimuli/own/kitchen/122_kit.jpg,stimuli/own/kitchen/126_kit.jpg,,,,,,,,,0,34,34,480,567.1104041250001,,,,,,,,,,,567.402654708,567.5672090420001,567.5672090420001,567.5672090420001,567.5672090420001,567.5672090420001,567.5672090420001,567.5672090420001,567.5672090420001,570.4747185000001,7,-7,1,6.0,2.3087472500000104,5.0,2.7458074999999553,567.108113583,567.1104041250001,567.5672090420001,567.402640583,,,,,,,,567.1050787920001,567.1080649580001,None,,,,,201,,female,kitchen,2024-03-08_10h20.03.051,image_similarity_rating,2023.2.3,None,2024-03-08 10h20.15.326189 +0100,
,120,134,452,452,stimuli/own/kitchen/120_kit.jpg,stimuli/own/kitchen/134_kit.jpg,,,,,,,,,0,35,35,451,570.484910833,,,,,,,,,,,570.769374,570.9334825830001,570.9334825830001,570.9334825830001,570.9334825830001,570.9334825830001,570.9334825830001,570.9334825830001,570.9334825830001,576.241503208,7,-7,1,4.0,4.45381179200001,5.0,5.156946833999996,570.4779472499999,570.484910833,570.9334825830001,570.769360625,,,,,,,,570.474943708,570.4778987500001,None,,,,,201,,female,kitchen,2024-03-08_10h20.03.051,image_similarity_rating,2023.2.3,None,2024-03-08 10h20.15.326189 +0100,
,109,120,205,205,stimuli/own/kitchen/109_kit.jpg,stimuli/own/kitchen/120_kit.jpg,,,,,,,,,0,36,36,204,576.2514458329999,,,,,,,,,,,576.536187917,576.7080007500001,576.7080007500001,576.7080007500001,576.7080007500001,576.7080007500001,576.7080007500001,576.7080007500001,576.7080007500001,580.4959906249999,-7,7,1,2.0,2.4302645409999286,3.0,3.677223665999918,576.244847333,576.2514458329999,576.7080007500001,576.5361688329999,,,,,,,,576.2417282920001,576.2447990000001,None,,,,,201,,female,kitchen,2024-03-08_10h20.03.051,image_similarity_rating,2023.2.3,None,2024-03-08 10h20.15.326189 +0100,
,109,112,197,197,stimuli/own/kitchen/109_kit.jpg,stimuli/own/kitchen/112_kit.jpg,,,,,,,,,0,37,37,196,580.5014067499999,,,,,,,,,,,580.786177208,580.9505174169999,580.9505174169999,580.9505174169999,580.9505174169999,580.9505174169999,580.9505174169999,580.9505174169999,580.9505174169999,585.570673208,7,-7,1,3.0,3.260570874999985,2.0,4.570847208000032,580.499198042,580.5014067499999,580.9505174169999,580.786159542,,,,,,,,580.4962142499999,580.499148292,None,,,,,201,,female,kitchen,2024-03-08_10h20.03.051,image_similarity_rating,2023.2.3,None,2024-03-08 10h20.15.326189 +0100,
,103,127,90,90,stimuli/own/kitchen/103_kit.jpg,stimuli/own/kitchen/127_kit.jpg,,,,,,,,,0,38,38,89,585.5759423330001,,,,,,,,,,,585.8693768329999,586.03819625,586.03819625,586.03819625,586.03819625,586.03819625,586.03819625,586.03819625,586.03819625,590.591739833,7,-7,1,4.0,3.9697475840000607,5.0,4.480024749999984,585.57388425,585.5759423330001,586.03819625,585.869359,,,,,,,,585.5708950419998,585.5738368329999,None,,,,,201,,female,kitchen,2024-03-08_10h20.03.051,image_similarity_rating,2023.2.3,None,2024-03-08 10h20.15.326189 +0100,
,127,141,564,564,stimuli/own/kitchen/127_kit.jpg,stimuli/own/kitchen/141_kit.jpg,,,,,,,,,0,39,39,563,590.6013869999999,,,,,,,,,,,590.88605975,591.0562306669999,591.0562306669999,591.0562306669999,591.0562306669999,591.0562306669999,591.0562306669999,591.0562306669999,591.0562306669999,596.183861875,-7,7,1,4.0,4.213568749999922,5.0,4.9399166250000235,590.594964958,590.6013869999999,591.0562306669999,590.8860341249999,,,,,,,,590.591961583,590.594916583,None,,,,,201,,female,kitchen,2024-03-08_10h20.03.051,image_similarity_rating,2023.2.3,None,2024-03-08 10h20.15.326189 +0100,
,119,140,439,439,stimuli/own/kitchen/119_kit.jpg,stimuli/own/kitchen/140_kit.jpg,,,,,,,,,0,40,40,438,596.1893277080001,,,,,,,,,,,596.4732812499999,596.6378051669999,596.6378051669999,596.6378051669999,596.6378051669999,596.6378051669999,596.6378051669999,596.6378051669999,596.6378051669999,600.008101375,7,-7,1,2.0,2.298965208000027,3.0,3.247005040999966,596.1870926249999,596.1893277080001,596.6378051669999,596.473268708,,,,,,,,596.1840829170001,596.1870441670001,None,,,,,201,,female,kitchen,2024-03-08_10h20.03.051,image_similarity_rating,2023.2.3,None,2024-03-08 10h20.15.326189 +0100,
,104,126,121,121,stimuli/own/kitchen/104_kit.jpg,stimuli/own/kitchen/126_kit.jpg,,,,,,,,,0,41,41,120,600.0180283749999,,,,,,,,,,,600.3026903329999,600.4687369999999,600.4687369999999,600.4687369999999,600.4687369999999,600.4687369999999,600.4687369999999,600.4687369999999,600.4687369999999,605.8951871249999,-7,7,1,7.0,3.1520213339999827,5.0,5.1021466250001595,600.011434708,600.0180283749999,600.4687369999999,600.302669833,,,,,,,,600.0083272919999,600.011384333,None,,,,,201,,female,kitchen,2024-03-08_10h20.03.051,image_similarity_rating,2023.2.3,None,2024-03-08 10h20.15.326189 +0100,
,123,141,510,510,stimuli/own/kitchen/123_kit.jpg,stimuli/own/kitchen/141_kit.jpg,,,,,,,,,0,42,42,509,605.90097975,,,,,,,,,,,606.186208375,606.351297958,606.351297958,606.351297958,606.351297958,606.351297958,606.351297958,606.351297958,606.351297958,611.4705992080001,7,-7,1,3.0,3.3219550419998995,2.0,4.334916292000116,605.8984,605.90097975,606.351297958,606.1861900829999,,,,,,,,605.895409708,605.898352333,None,,,,,201,,female,kitchen,2024-03-08_10h20.03.051,image_similarity_rating,2023.2.3,None,2024-03-08 10h20.15.326189 +0100,
,101,109,6,6,stimuli/own/kitchen/101_kit.jpg,stimuli/own/kitchen/109_kit.jpg,,,,,,,,,0,43,43,5,611.4757026249999,,,,,,,,,,,611.7693792919999,611.9365842919999,611.9365842919999,611.9365842919999,611.9365842919999,611.9365842919999,611.9365842919999,611.9365842919999,611.9365842919999,617.8335943749998,7,-7,1,2.0,5.845127792000085,4.0,3.975536375000047,611.473938333,611.4757026249999,611.9365842919999,611.7693622919999,,,,,,,,611.4708309999999,611.473889917,None,,,,,201,,female,kitchen,2024-03-08_10h20.03.051,image_similarity_rating,2023.2.3,None,2024-03-08 10h20.15.326189 +0100,
,104,105,103,103,stimuli/own/kitchen/104_kit.jpg,stimuli/own/kitchen/105_kit.jpg,,,,,,,,,0,44,44,102,617.8389768749998,,,,,,,,,,,618.124008583,618.286936917,618.286936917,618.286936917,618.286936917,618.286936917,618.286936917,618.286936917,618.286936917,622.720421708,-7,7,1,5.0,4.268669999999929,5.0,2.8389716249998855,617.8368681669999,617.8389768749998,618.286936917,618.123998458,,,,,,,,617.8338496669999,617.836807167,None,,,,,201,,female,kitchen,2024-03-08_10h20.03.051,image_similarity_rating,2023.2.3,None,2024-03-08 10h20.15.326189 +0100,
,102,113,43,43,stimuli/own/kitchen/102_kit.jpg,stimuli/own/kitchen/113_kit.jpg,,,,,,,,,0,45,45,42,622.7256177079998,,,,,,,,,,,623.019154333,623.18694175,623.18694175,623.18694175,623.18694175,623.18694175,623.18694175,623.18694175,623.18694175,628.983350083,7,-7,1,6.0,5.832020790999877,3.0,3.2365074169999843,622.7237178749999,622.7256177079998,623.18694175,623.0191321249999,,,,,,,,622.7206458329999,622.7236692500001,None,,,,,201,,female,kitchen,2024-03-08_10h20.03.051,image_similarity_rating,2023.2.3,None,2024-03-08 10h20.15.326189 +0100,
,106,115,171,171,stimuli/own/kitchen/106_kit.jpg,stimuli/own/kitchen/115_kit.jpg,,,,,,,,,0,46,46,170,628.988542417,,,,,,,,,,,629.273002958,629.4364145,629.4364145,629.4364145,629.4364145,629.4364145,629.4364145,629.4364145,629.4364145,634.6703965419999,7,-7,1,2.0,3.55478379200008,2.0,4.88501866699994,628.9866098329999,628.988542417,629.4364145,629.2729899169999,,,,,,,,628.9835880420001,628.986561167,None,,,,,201,,female,kitchen,2024-03-08_10h20.03.051,image_similarity_rating,2023.2.3,None,2024-03-08 10h20.15.326189 +0100,
,106,120,176,176,stimuli/own/kitchen/106_kit.jpg,stimuli/own/kitchen/120_kit.jpg,,,,,,,,,0,47,47,175,634.6755351249999,,,,,,,,,,,634.9697382079999,635.133564208,635.133564208,635.133564208,635.133564208,635.133564208,635.133564208,635.133564208,635.133564208,641.1667958329999,-7,7,1,5.0,5.208334250000007,4.0,5.9710647920001065,634.673603792,634.6755351249999,635.133564208,634.9697243749999,,,,,,,,634.6706208329999,634.673556,None,,,,,201,,female,kitchen,2024-03-08_10h20.03.051,image_similarity_rating,2023.2.3,None,2024-03-08 10h20.15.326189 +0100,
,117,125,385,385,stimuli/own/kitchen/117_kit.jpg,stimuli/own/kitchen/125_kit.jpg,,,,,,,,,0,48,48,384,641.1721781669999,,,,,,,,,,,641.4692150419999,641.6385155829998,641.6385155829998,641.6385155829998,641.6385155829998,641.6385155829998,641.6385155829998,641.6385155829998,641.6385155829998,645.1453738329999,7,-7,1,5.0,3.5342256670001007,6.0,2.887199292000105,641.170083125,641.1721781669999,641.6385155829998,641.469198542,,,,,,,,641.1670454999999,641.1700351669999,None,,,,,201,,female,kitchen,2024-03-08_10h20.03.051,image_similarity_rating,2023.2.3,None,2024-03-08 10h20.15.326189 +0100,
,118,119,400,400,stimuli/own/kitchen/118_kit.jpg,stimuli/own/kitchen/119_kit.jpg,,,,,,,,,0,49,49,399,645.1511383749998,,,,,,,,,,,645.435806833,645.602248208,645.602248208,645.602248208,645.602248208,645.602248208,645.602248208,645.602248208,645.602248208,649.1748701249999,7,-7,1,3.0,3.5469722499999534,6.0,2.054546999999957,645.1485720000001,645.1511383749998,645.602248208,645.435791958,,,,,,,,645.145597875,645.148523417,None,,,,,201,,female,kitchen,2024-03-08_10h20.03.051,image_similarity_rating,2023.2.3,None,2024-03-08 10h20.15.326189 +0100,
,114,127,318,318,stimuli/own/kitchen/114_kit.jpg,stimuli/own/kitchen/127_kit.jpg,,,,,,,,,0,50,50,317,649.184363583,,,,,,,,,,,649.468996417,649.633473417,649.633473417,649.633473417,649.633473417,649.633473417,649.633473417,649.633473417,649.633473417,653.554484083,7,-7,1,6.0,3.4074944999999843,5.0,3.885640125000009,649.178164083,649.184363583,649.633473417,649.468981667,,,,,,,,649.175092875,649.1781154999999,None,,,,,201,,female,kitchen,2024-03-08_10h20.03.051,image_similarity_rating,2023.2.3,None,2024-03-08 10h20.15.326189 +0100,
,109,124,209,209,stimuli/own/kitchen/109_kit.jpg,stimuli/own/kitchen/124_kit.jpg,,,,,,,,,0,51,51,208,653.5677987919998,,,,,,,,,,,653.8524472919999,654.0183467919999,654.0183467919999,654.0183467919999,654.0183467919999,654.0183467919999,654.0183467919999,654.0183467919999,654.0183467919999,657.7124145,-7,7,1,3.0,3.7049175829999967,2.0,1.8751552090000132,653.557785208,653.5677987919998,654.0183467919999,653.8524327499999,,,,,,,,653.554716417,653.5577344169999,None,,,,,201,,female,kitchen,2024-03-08_10h20.03.051,image_similarity_rating,2023.2.3,None,2024-03-08 10h20.15.326189 +0100,
,104,116,111,111,stimuli/own/kitchen/104_kit.jpg,stimuli/own/kitchen/116_kit.jpg,,,,,,,,,0,52,52,110,657.717862917,,,,,,,,,,,658.002306333,658.16847775,658.16847775,658.16847775,658.16847775,658.16847775,658.16847775,658.16847775,658.16847775,662.2622161669999,-7,7,1,5.0,3.5579096249998656,6.0,4.055160957999988,657.7156796249999,657.717862917,658.16847775,658.0022918329998,,,,,,,,657.7126438329999,657.7156306669999,None,,,,,201,,female,kitchen,2024-03-08_10h20.03.051,image_similarity_rating,2023.2.3,None,2024-03-08 10h20.15.326189 +0100,
,131,132,586,586,stimuli/own/kitchen/131_kit.jpg,stimuli/own/kitchen/132_kit.jpg,,,,,,,,,0,53,53,585,662.2674669999999,,,,,,,,,,,662.5523410419999,662.716741833,662.716741833,662.716741833,662.716741833,662.716741833,662.716741833,662.716741833,662.716741833,668.174747083,-7,7,1,5.0,4.756515084000057,6.0,5.210563790999913,662.2654035,662.2674669999999,662.716741833,662.552327208,,,,,,,,662.262441292,662.2653558750001,None,,,,,201,,female,kitchen,2024-03-08_10h20.03.051,image_similarity_rating,2023.2.3,None,2024-03-08 10h20.15.326189 +0100,
,118,124,405,405,stimuli/own/kitchen/118_kit.jpg,stimuli/own/kitchen/124_kit.jpg,,,,,,,,,0,54,54,404,668.184421917,,,,,,,,,,,668.4689746669999,668.6349748749999,668.6349748749999,668.6349748749999,668.6349748749999,668.6349748749999,668.6349748749999,668.6349748749999,668.6349748749999,672.3833890829999,7,-7,1,6.0,2.671548957999903,4.0,3.6345580830000017,668.1779698749999,668.184421917,668.6349748749999,668.468958333,,,,,,,,668.1749837499999,668.1779220419999,None,,,,,201,,female,kitchen,2024-03-08_10h20.03.051,image_similarity_rating,2023.2.3,None,2024-03-08 10h20.15.326189 +0100,
,122,123,478,478,stimuli/own/kitchen/122_kit.jpg,stimuli/own/kitchen/123_kit.jpg,,,,,,,,,0,55,55,477,672.388801458,,,,,,,,,,,672.671527917,672.8346220829999,672.8346220829999,672.8346220829999,672.8346220829999,672.8346220829999,672.8346220829999,672.8346220829999,672.8346220829999,676.1832751249999,7,-7,1,3.0,3.268212917000028,6.0,2.175080624999964,672.3866025,672.388801458,672.8346220829999,672.6715173329999,,,,,,,,672.3836409169999,672.38655425,None,,,,,201,,female,kitchen,2024-03-08_10h20.03.051,image_similarity_rating,2023.2.3,None,2024-03-08 10h20.15.326189 +0100,
,102,118,48,48,stimuli/own/kitchen/102_kit.jpg,stimuli/own/kitchen/118_kit.jpg,,,,,,,,,0,56,56,47,676.1888800419999,,,,,,,,,,,676.4732212920001,676.6402115829999,676.6402115829999,676.6402115829999,676.6402115829999,676.6402115829999,676.6402115829999,676.6402115829999,676.6402115829999,681.138335917,7,-7,1,4.0,3.5305334590000257,3.0,4.441524541999797,676.1866043329999,676.1888800419999,676.6402115829999,676.47320825,,,,,,,,676.183530083,676.1865547499999,None,,,,,201,,female,kitchen,2024-03-08_10h20.03.051,image_similarity_rating,2023.2.3,None,2024-03-08 10h20.15.326189 +0100,
,104,135,128,128,stimuli/own/kitchen/104_kit.jpg,stimuli/own/kitchen/135_kit.jpg,,,,,,,,,0,57,57,127,681.1509564999999,,,,,,,,,,,681.4358447919999,681.601886333,681.601886333,681.601886333,681.601886333,681.601886333,681.601886333,681.601886333,681.601886333,686.6744894999999,7,-7,1,3.0,4.145807249999962,5.0,4.8982684590000645,681.1415253749999,681.1509564999999,681.601886333,681.4358271670001,,,,,,,,681.138561583,681.1414770829999,None,,,,,201,,female,kitchen,2024-03-08_10h20.03.051,image_similarity_rating,2023.2.3,None,2024-03-08 10h20.15.326189 +0100,
,130,138,582,582,stimuli/own/kitchen/130_kit.jpg,stimuli/own/kitchen/138_kit.jpg,,,,,,,,,0,58,58,581,686.6843793329999,,,,,,,,,,,686.9691317919999,687.136084208,687.136084208,687.136084208,687.136084208,687.136084208,687.136084208,687.136084208,687.136084208,691.699963708,7,-7,1,6.0,3.470146375000013,5.0,4.340819582999984,686.6777610419999,686.6843793329999,687.136084208,686.9691116249999,,,,,,,,686.6747143329999,686.6777132919999,None,,,,,201,,female,kitchen,2024-03-08_10h20.03.051,image_similarity_rating,2023.2.3,None,2024-03-08 10h20.15.326189 +0100,
,126,127,540,540,stimuli/own/kitchen/126_kit.jpg,stimuli/own/kitchen/127_kit.jpg,,,,,,,,,0,59,59,539,691.7054550830001,,,,,,,,,,,691.98975425,692.15408325,692.15408325,692.15408325,692.15408325,692.15408325,692.15408325,692.15408325,692.15408325,696.1454947919999,7,-7,1,5.0,2.420357458000126,6.0,3.885910707999983,691.7031665,691.7054550830001,692.15408325,691.989742208,,,,,,,,691.7002151669999,691.703118208,None,,,,,201,,female,kitchen,2024-03-08_10h20.03.051,image_similarity_rating,2023.2.3,None,2024-03-08 10h20.15.326189 +0100,
,101,124,20,20,stimuli/own/kitchen/101_kit.jpg,stimuli/own/kitchen/124_kit.jpg,,,,,,,,,0,60,60,19,696.151102542,,,,,,,,,,,696.4356373749999,696.601169042,696.601169042,696.601169042,696.601169042,696.601169042,696.601169042,696.601169042,696.601169042,701.8912291669999,-7,7,1,6.0,4.9500642499999685,4.0,2.3153112090001287,696.1487305420001,696.151102542,696.601169042,696.435621292,,,,,,,,696.1457189170001,696.1486821670001,None,,,,,201,,female,kitchen,2024-03-08_10h20.03.051,image_similarity_rating,2023.2.3,None,2024-03-08 10h20.15.326189 +0100,
,101,126,22,22,stimuli/own/kitchen/101_kit.jpg,stimuli/own/kitchen/126_kit.jpg,,,,,,,,,0,61,61,21,701.901070375,,,,,,,,,,,702.1855325419999,702.3575033330001,702.3575033330001,702.3575033330001,702.3575033330001,702.3575033330001,702.3575033330001,702.3575033330001,702.3575033330001,706.3498453329998,7,-7,1,7.0,3.0878966669999954,6.0,3.8916855420000047,701.894446042,701.901070375,702.3575033330001,702.185509292,,,,,,,,701.891453958,701.8943984999999,None,,,,,201,,female,kitchen,2024-03-08_10h20.03.051,image_similarity_rating,2023.2.3,None,2024-03-08 10h20.15.326189 +0100,
,127,132,556,556,stimuli/own/kitchen/127_kit.jpg,stimuli/own/kitchen/132_kit.jpg,,,,,,,,,0,62,62,555,706.355020042,,,,,,,,,,,706.6395097079999,706.806285458,706.806285458,706.806285458,706.806285458,706.806285458,706.806285458,706.806285458,706.806285458,710.807897083,-7,7,1,5.0,3.3759589590001724,4.0,3.804559249999784,706.3530956249999,706.355020042,706.806285458,706.639497917,,,,,,,,706.350096208,706.353048083,None,,,,,201,,female,kitchen,2024-03-08_10h20.03.051,image_similarity_rating,2023.2.3,None,2024-03-08 10h20.15.326189 +0100,
,125,140,538,538,stimuli/own/kitchen/125_kit.jpg,stimuli/own/kitchen/140_kit.jpg,,,,,,,,,0,63,63,537,710.817648875,,,,,,,,,,,711.1021766249999,711.2646488749999,711.2646488749999,711.2646488749999,711.2646488749999,711.2646488749999,711.2646488749999,711.2646488749999,711.2646488749999,715.3580239579999,7,-7,1,6.0,3.8909802919999947,3.0,1.8997298330000376,710.8111954999999,710.817648875,711.2646488749999,711.1021659579999,,,,,,,,710.8081195,710.8111476669999,None,,,,,201,,female,kitchen,2024-03-08_10h20.03.051,image_similarity_rating,2023.2.3,None,2024-03-08 10h20.15.326189 +0100,
,101,137,31,31,stimuli/own/kitchen/101_kit.jpg,stimuli/own/kitchen/137_kit.jpg,,,,,,,,,0,64,64,30,715.3675624999998,,,,,,,,,,,715.652242833,715.8213090419999,715.8213090419999,715.8213090419999,715.8213090419999,715.8213090419999,715.8213090419999,715.8213090419999,715.8213090419999,720.112242292,-7,7,1,2.0,3.431334624999863,3.0,4.105425292000064,715.361228833,715.3675624999998,715.8213090419999,715.652223667,,,,,,,,715.3582537499999,715.361181083,None,,,,,201,,female,kitchen,2024-03-08_10h20.03.051,image_similarity_rating,2023.2.3,None,2024-03-08 10h20.15.326189 +0100,
,113,136,300,300,stimuli/own/kitchen/113_kit.jpg,stimuli/own/kitchen/136_kit.jpg,,,,,,,,,0,65,65,299,720.1174052920001,,,,,,,,,,,720.4027606669999,720.567813458,720.567813458,720.567813458,720.567813458,720.567813458,720.567813458,720.567813458,720.567813458,724.18697,-7,7,1,5.0,2.8197811669999737,3.0,3.4446499589998893,720.1155369579999,720.1174052920001,720.567813458,720.402747417,,,,,,,,720.1124640829998,720.1154891250001,None,,,,,201,,female,kitchen,2024-03-08_10h20.03.051,image_similarity_rating,2023.2.3,None,2024-03-08 10h20.15.326189 +0100,
,120,139,457,457,stimuli/own/kitchen/120_kit.jpg,stimuli/own/kitchen/139_kit.jpg,,,,,,,,,0,66,66,456,724.192338375,,,,,,,,,,,724.485257375,724.6484304169999,724.6484304169999,724.6484304169999,724.6484304169999,724.6484304169999,724.6484304169999,724.6484304169999,724.6484304169999,729.299544,-7,7,1,5.0,3.7678800420001153,3.0,4.520090999999866,724.1902,724.192338375,724.6484304169999,724.485244083,,,,,,,,724.1871927499999,724.190151583,None,,,,,201,,female,kitchen,2024-03-08_10h20.03.051,image_similarity_rating,2023.2.3,None,2024-03-08 10h20.15.326189 +0100,
,111,113,226,226,stimuli/own/kitchen/111_kit.jpg,stimuli/own/kitchen/113_kit.jpg,,,,,,,,,0,67,67,225,729.3048812079999,,,,,,,,,,,729.5895122499999,729.7527903329999,729.7527903329999,729.7527903329999,729.7527903329999,729.7527903329999,729.7527903329999,729.7527903329999,729.7527903329999,735.562333958,-7,7,1,3.0,5.016825249999783,3.0,5.796397584000033,729.3028060419999,729.3048812079999,729.7527903329999,729.5895014579999,,,,,,,,729.299772417,729.3027588749999,None,,,,,201,,female,kitchen,2024-03-08_10h20.03.051,image_similarity_rating,2023.2.3,None,2024-03-08 10h20.15.326189 +0100,
,112,127,267,267,stimuli/own/kitchen/112_kit.jpg,stimuli/own/kitchen/127_kit.jpg,,,,,,,,,0,68,68,266,735.567411833,,,,,,,,,,,735.8529054169999,736.0171635419999,736.0171635419999,736.0171635419999,736.0171635419999,736.0171635419999,736.0171635419999,736.0171635419999,736.0171635419999,747.836596917,7,-7,1,3.0,10.786037457999782,5.0,11.734299041999975,735.5655354999999,735.567411833,736.0171635419999,735.852892875,,,,,,,,735.5625554999999,735.565488125,None,,,,,201,,female,kitchen,2024-03-08_10h20.03.051,image_similarity_rating,2023.2.3,None,2024-03-08 10h20.15.326189 +0100,
,116,136,372,372,stimuli/own/kitchen/116_kit.jpg,stimuli/own/kitchen/136_kit.jpg,,,,,,,,,0,69,69,371,747.8418085000001,,,,,,,,,,,748.1360629169999,748.2991066249999,748.2991066249999,748.2991066249999,748.2991066249999,748.2991066249999,748.2991066249999,748.2991066249999,748.2991066249999,751.928676167,-7,7,1,6.0,2.344596082999942,3.0,3.468755708999879,747.83981275,747.8418085000001,748.2991066249999,748.1360502079999,,,,,,,,747.8368217079999,747.8397648749999,None,,,,,201,,female,kitchen,2024-03-08_10h20.03.051,image_similarity_rating,2023.2.3,None,2024-03-08 10h20.15.326189 +0100,
,123,134,503,503,stimuli/own/kitchen/123_kit.jpg,stimuli/own/kitchen/134_kit.jpg,,,,,,,,,0,70,70,502,751.933819458,,,,,,,,,,,752.218794208,752.382891125,752.382891125,752.382891125,752.382891125,752.382891125,752.382891125,752.382891125,752.382891125,755.682897958,-7,7,1,3.0,2.33310579099998,4.0,3.1266890419999527,751.9319309580001,751.933819458,752.382891125,752.218776125,,,,,,,,751.928900417,751.931884458,None,,,,,201,,female,kitchen,2024-03-08_10h20.03.051,image_similarity_rating,2023.2.3,None,2024-03-08 10h20.15.326189 +0100,
,135,141,615,615,stimuli/own/kitchen/135_kit.jpg,stimuli/own/kitchen/141_kit.jpg,,,,,,,,,0,71,71,614,755.688196417,,,,,,,,,,,755.9735243749999,756.1361608749999,756.1361608749999,756.1361608749999,756.1361608749999,756.1361608749999,756.1361608749999,756.1361608749999,756.1361608749999,760.5031502079999,7,-7,1,3.0,2.818045624999968,3.0,3.9567346249998536,755.6861235829999,755.688196417,756.1361608749999,755.97351125,,,,,,,,755.683129625,755.686075542,None,,,,,201,,female,kitchen,2024-03-08_10h20.03.051,image_similarity_rating,2023.2.3,None,2024-03-08 10h20.15.326189 +0100,
,123,130,500,500,stimuli/own/kitchen/123_kit.jpg,stimuli/own/kitchen/130_kit.jpg,,,,,,,,,0,72,72,499,760.5081628329999,,,,,,,,,,,760.80215,760.9733610829999,760.9733610829999,760.9733610829999,760.9733610829999,760.9733610829999,760.9733610829999,760.9733610829999,760.9733610829999,766.2403879169999,-7,7,1,5.0,3.6634562919998643,4.0,4.99200124999993,760.506410833,760.5081628329999,760.9733610829999,760.802117792,,,,,,,,760.5033767919999,760.506363167,None,,,,,201,,female,kitchen,2024-03-08_10h20.03.051,image_similarity_rating,2023.2.3,None,2024-03-08 10h20.15.326189 +0100,
,102,115,45,45,stimuli/own/kitchen/102_kit.jpg,stimuli/own/kitchen/115_kit.jpg,,,,,,,,,0,73,73,44,766.250762417,,,,,,,,,,,766.535311333,766.7069778749999,766.7069778749999,766.7069778749999,766.7069778749999,766.7069778749999,766.7069778749999,766.7069778749999,766.7069778749999,773.4065976249999,7,-7,1,4.0,6.588774000000058,2.0,4.432955958000093,766.243567042,766.250762417,766.7069778749999,766.5352950419999,,,,,,,,766.2406114169999,766.2435191249999,None,,,,,201,,female,kitchen,2024-03-08_10h20.03.051,image_similarity_rating,2023.2.3,None,2024-03-08 10h20.15.326189 +0100,
,124,125,511,511,stimuli/own/kitchen/124_kit.jpg,stimuli/own/kitchen/125_kit.jpg,,,,,,,,,0,74,74,510,773.4173000000001,,,,,,,,,,,773.701935458,773.8705171669999,773.8705171669999,773.8705171669999,773.8705171669999,773.8705171669999,773.8705171669999,773.8705171669999,773.8705171669999,777.190670667,-7,7,1,6.0,2.4648380000001,5.0,3.1275490000000445,773.409882917,773.4173000000001,773.8705171669999,773.7019189170001,,,,,,,,773.40682425,773.409835125,None,,,,,201,,female,kitchen,2024-03-08_10h20.03.051,image_similarity_rating,2023.2.3,None,2024-03-08 10h20.15.326189 +0100,
,131,140,593,593,stimuli/own/kitchen/131_kit.jpg,stimuli/own/kitchen/140_kit.jpg,,,,,,,,,0,75,75,592,777.201016042,,,,,,,,,,,777.4852006669998,777.650809583,777.650809583,777.650809583,777.650809583,777.650809583,777.650809583,777.650809583,777.650809583,782.653050333,-7,7,1,5.0,3.654393999999911,3.0,4.716910374999998,777.1938619999999,777.201016042,777.650809583,777.4851855,,,,,,,,777.1908940829999,777.1938155,None,,,,,201,,female,kitchen,2024-03-08_10h20.03.051,image_similarity_rating,2023.2.3,None,2024-03-08 10h20.15.326189 +0100,
,102,109,40,40,stimuli/own/kitchen/102_kit.jpg,stimuli/own/kitchen/109_kit.jpg,,,,,,,,,0,76,76,39,782.65814275,,,,,,,,,,,782.9520018329999,783.123396208,783.123396208,783.123396208,783.123396208,783.123396208,783.123396208,783.123396208,783.123396208,788.0120078329999,-7,7,1,4.0,3.16351987500002,3.0,4.3484228340000755,782.656210417,782.65814275,783.123396208,782.9519843329999,,,,,,,,782.653271125,782.656163292,None,,,,,201,,female,kitchen,2024-03-08_10h20.03.051,image_similarity_rating,2023.2.3,None,2024-03-08 10h20.15.326189 +0100,
,134,135,603,603,stimuli/own/kitchen/134_kit.jpg,stimuli/own/kitchen/135_kit.jpg,,,,,,,,,0,77,77,602,788.017149542,,,,,,,,,,,788.301835833,788.468768208,788.468768208,788.468768208,788.468768208,788.468768208,788.468768208,788.468768208,788.468768208,794.773039833,7,-7,1,6.0,3.3600804999998672,5.0,6.268930833000013,788.0152351669999,788.017149542,788.468768208,788.3018173749999,,,,,,,,788.0122388749999,788.015184542,None,,,,,201,,female,kitchen,2024-03-08_10h20.03.051,image_similarity_rating,2023.2.3,None,2024-03-08 10h20.15.326189 +0100,
,122,138,491,491,stimuli/own/kitchen/122_kit.jpg,stimuli/own/kitchen/138_kit.jpg,,,,,,,,,0,78,78,490,794.783976042,,,,,,,,,,,795.0692362079999,795.2379041249999,795.2379041249999,795.2379041249999,795.2379041249999,795.2379041249999,795.2379041249999,795.2379041249999,795.2379041249999,799.245075,7,-7,1,3.0,3.286535334000064,4.0,3.8331969169998956,794.7765550419999,794.783976042,795.2379041249999,795.0692155419999,,,,,,,,794.7732637080001,794.7765044170001,None,,,,,201,,female,kitchen,2024-03-08_10h20.03.051,image_similarity_rating,2023.2.3,None,2024-03-08 10h20.15.326189 +0100,
,106,134,188,188,stimuli/own/kitchen/106_kit.jpg,stimuli/own/kitchen/134_kit.jpg,,,,,,,,,0,79,79,187,799.2507224999999,,,,,,,,,,,799.5353117079999,799.699154292,799.699154292,799.699154292,799.699154292,799.699154292,799.699154292,799.699154292,799.699154292,803.407383792,7,-7,1,4.0,2.6979448749998483,5.0,3.534517625000035,799.2483487919999,799.2507224999999,799.699154292,799.5352956249999,,,,,,,,799.245296,799.248300875,None,,,,,201,,female,kitchen,2024-03-08_10h20.03.051,image_similarity_rating,2023.2.3,None,2024-03-08 10h20.15.326189 +0100,
,101,112,8,8,stimuli/own/kitchen/101_kit.jpg,stimuli/own/kitchen/112_kit.jpg,,,,,,,,,0,80,80,7,803.417228083,,,,,,,,,,,803.7025087499999,803.8676102919999,803.8676102919999,803.8676102919999,803.8676102919999,803.8676102919999,803.8676102919999,803.8676102919999,803.8676102919999,810.0327468749999,7,-7,1,4.0,5.602942583999948,6.0,1.7867464169999039,803.4105951669999,803.417228083,803.8676102919999,803.702493625,,,,,,,,803.4076058329999,803.410536375,None,,,,,201,,female,kitchen,2024-03-08_10h20.03.051,image_similarity_rating,2023.2.3,None,2024-03-08 10h20.15.326189 +0100,
,102,124,54,54,stimuli/own/kitchen/102_kit.jpg,stimuli/own/kitchen/124_kit.jpg,,,,,,,,,0,81,81,53,810.038366042,,,,,,,,,,,810.3227930829999,810.489861625,810.489861625,810.489861625,810.489861625,810.489861625,810.489861625,810.489861625,810.489861625,818.3449848329999,7,-7,1,3.0,6.4973197920000985,5.0,7.6691211669999575,810.036300667,810.038366042,810.489861625,810.3227796669998,,,,,,,,810.032996375,810.03625025,None,,,,,201,,female,kitchen,2024-03-08_10h20.03.051,image_similarity_rating,2023.2.3,None,2024-03-08 10h20.15.326189 +0100,
,113,126,292,292,stimuli/own/kitchen/113_kit.jpg,stimuli/own/kitchen/126_kit.jpg,,,,,,,,,0,82,82,291,818.3502879579999,,,,,,,,,,,818.635200292,818.8008816249999,818.8008816249999,818.8008816249999,818.8008816249999,818.8008816249999,818.8008816249999,818.8008816249999,818.8008816249999,821.815985667,-7,7,1,5.0,2.419364124999902,3.0,2.9168237500000487,818.348242667,818.3502879579999,818.8008816249999,818.635184625,,,,,,,,818.3452106249999,818.3481947079999,None,,,,,201,,female,kitchen,2024-03-08_10h20.03.051,image_similarity_rating,2023.2.3,None,2024-03-08 10h20.15.326189 +0100,
,102,140,68,68,stimuli/own/kitchen/102_kit.jpg,stimuli/own/kitchen/140_kit.jpg,,,,,,,,,0,83,83,67,821.821394542,,,,,,,,,,,822.105396292,822.268160583,822.268160583,822.268160583,822.268160583,822.268160583,822.268160583,822.268160583,822.268160583,826.0453458750001,-7,7,1,6.0,2.6058376669998324,4.0,3.6769087919999492,821.819297542,821.821394542,822.268160583,822.1053824169999,,,,,,,,821.81623825,821.81924925,None,,,,,201,,female,kitchen,2024-03-08_10h20.03.051,image_similarity_rating,2023.2.3,None,2024-03-08 10h20.15.326189 +0100,
,112,119,259,259,stimuli/own/kitchen/112_kit.jpg,stimuli/own/kitchen/119_kit.jpg,,,,,,,,,0,84,84,258,826.067164417,,,,,,,,,,,826.351475958,826.515843208,826.515843208,826.515843208,826.515843208,826.515843208,826.515843208,826.515843208,826.515843208,829.6497193329999,7,-7,1,2.0,2.4224437919999673,3.0,3.0471745830000145,826.048602458,826.067164417,,826.351461875,,,,,,,,826.045566583,826.0485544169999,None,,,,,201,,female,kitchen,2024-03-08_10h20.03.051,image_similarity_rating,2023.2.3,None,2024-03-08 10h20.15.326189 +0100,
,105,136,160,160,stimuli/own/kitchen/105_kit.jpg,stimuli/own/kitchen/136_kit.jpg,,,,,,,,,0,85,85,159,829.6547195829999,,,,,,,,,,,829.9396502919999,830.104532583,830.104532583,830.104532583,830.104532583,830.104532583,830.104532583,830.104532583,830.104532583,834.266015208,7,-7,1,4.0,2.670516707999923,4.0,4.11291687500011,829.6529433329999,829.6547195829999,830.104532583,829.9396367499999,,,,,,,,829.649939125,829.6528956669999,None,,,,,201,,female,kitchen,2024-03-08_10h20.03.051,image_similarity_rating,2023.2.3,None,2024-03-08 10h20.15.326189 +0100,
,123,126,497,497,stimuli/own/kitchen/123_kit.jpg,stimuli/own/kitchen/126_kit.jpg,,,,,,,,,0,86,86,496,834.271297792,,,,,,,,,,,834.5551459169999,834.7187824579999,834.7187824579999,834.7187824579999,834.7187824579999,834.7187824579999,834.7187824579999,834.7187824579999,834.7187824579999,838.4409597920001,-7,7,1,5.0,3.133971875000043,3.0,3.634634541999958,834.2693507500001,834.271297792,834.7187824579999,834.5551323749999,,,,,,,,834.2662647079999,834.2693026669999,None,,,,,201,,female,kitchen,2024-03-08_10h20.03.051,image_similarity_rating,2023.2.3,None,2024-03-08 10h20.15.326189 +0100,
,103,138,99,99,stimuli/own/kitchen/103_kit.jpg,stimuli/own/kitchen/138_kit.jpg,,,,,,,,,0,87,87,98,838.450525917,,,,,,,,,,,838.73494525,838.899718417,838.899718417,838.899718417,838.899718417,838.899718417,838.899718417,838.899718417,838.899718417,841.2329400419999,7,-7,1,3.0,2.3062662079998972,5.0,1.650369167000008,838.4441718329999,838.450525917,838.899718417,838.734931083,,,,,,,,838.44118925,838.444123125,None,,,,,201,,female,kitchen,2024-03-08_10h20.03.051,image_similarity_rating,2023.2.3,None,2024-03-08 10h20.15.326189 +0100,
,119,124,425,425,stimuli/own/kitchen/119_kit.jpg,stimuli/own/kitchen/124_kit.jpg,,,,,,,,,0,88,88,424,841.2382372919999,,,,,,,,,,,841.5218897079999,841.6833959579999,841.6833959579999,841.6833959579999,841.6833959579999,841.6833959579999,841.6833959579999,841.6833959579999,841.6833959579999,846.840511208,7,-7,1,4.0,5.1770643750001,3.0,4.020868332999953,841.236165042,841.2382372919999,841.6833959579999,841.521879292,,,,,,,,841.233160667,841.2361169169999,None,,,,,201,,female,kitchen,2024-03-08_10h20.03.051,image_similarity_rating,2023.2.3,None,2024-03-08 10h20.15.326189 +0100,
,134,138,606,606,stimuli/own/kitchen/134_kit.jpg,stimuli/own/kitchen/138_kit.jpg,,,,,,,,,0,89,89,605,846.8504594579999,,,,,,,,,,,847.1348968329999,847.299667125,847.299667125,847.299667125,847.299667125,847.299667125,847.299667125,847.299667125,847.299667125,851.1209287919999,-7,7,1,4.0,2.03358312499995,5.0,3.8149924589999955,846.843731917,846.8504594579999,847.299667125,847.1348820000001,,,,,,,,846.8407339169999,846.8436837919999,None,,,,,201,,female,kitchen,2024-03-08_10h20.03.051,image_similarity_rating,2023.2.3,None,2024-03-08 10h20.15.326189 +0100,
,104,117,112,112,stimuli/own/kitchen/104_kit.jpg,stimuli/own/kitchen/117_kit.jpg,,,,,,,,,0,90,90,111,851.1262783329998,,,,,,,,,,,851.418473708,851.582923333,851.582923333,851.582923333,851.582923333,851.582923333,851.582923333,851.582923333,851.582923333,856.0157792499999,7,-7,1,3.0,3.7972491250000076,4.0,4.3345687919998,851.1241742079999,851.1262783329998,851.582923333,851.418459625,,,,,,,,851.1211504169999,851.12412675,None,,,,,201,,female,kitchen,2024-03-08_10h20.03.051,image_similarity_rating,2023.2.3,None,2024-03-08 10h20.15.326189 +0100,
,105,132,157,157,stimuli/own/kitchen/105_kit.jpg,stimuli/own/kitchen/132_kit.jpg,,,,,,,,,0,91,91,156,856.021035042,,,,,,,,,,,856.305910042,856.4761610420001,856.4761610420001,856.4761610420001,856.4761610420001,856.4761610420001,856.4761610420001,856.4761610420001,856.4761610420001,861.057502875,7,-7,1,3.0,4.468270791000123,3.0,2.1382881250001446,856.019041,856.021035042,856.4761610420001,856.305895833,,,,,,,,856.0160022499999,856.0189930419999,None,,,,,201,,female,kitchen,2024-03-08_10h20.03.051,image_similarity_rating,2023.2.3,None,2024-03-08 10h20.15.326189 +0100,
,137,140,623,623,stimuli/own/kitchen/137_kit.jpg,stimuli/own/kitchen/140_kit.jpg,,,,,,,,,0,92,92,622,861.067118042,,,,,,,,,,,861.3516790419999,861.517312,861.517312,861.517312,861.517312,861.517312,861.517312,861.517312,861.517312,866.0878311669999,-7,7,1,4.0,3.0065346249998584,3.0,4.514008166999929,861.060739458,861.067118042,861.517312,861.3516642919999,,,,,,,,861.05773525,861.060691833,None,,,,,201,,female,kitchen,2024-03-08_10h20.03.051,image_similarity_rating,2023.2.3,None,2024-03-08 10h20.15.326189 +0100,
,102,121,51,51,stimuli/own/kitchen/102_kit.jpg,stimuli/own/kitchen/121_kit.jpg,,,,,,,,,0,93,93,50,866.100352167,,,,,,,,,,,866.385036375,866.549224542,866.549224542,866.549224542,866.549224542,866.549224542,866.549224542,866.549224542,866.549224542,872.59424375,7,-7,1,4.0,3.1438364170001023,3.0,5.471226625000099,866.0911854169999,866.100352167,866.549224542,866.3850225419999,,,,,,,,866.0880669579999,866.0911383749999,None,,,,,201,,female,kitchen,2024-03-08_10h20.03.051,image_similarity_rating,2023.2.3,None,2024-03-08 10h20.15.326189 +0100,
,104,121,116,116,stimuli/own/kitchen/104_kit.jpg,stimuli/own/kitchen/121_kit.jpg,,,,,,,,,0,94,94,115,872.599978,,,,,,,,,,,872.8849995,873.053561917,873.053561917,873.053561917,873.053561917,873.053561917,873.053561917,873.053561917,873.053561917,877.095150208,-7,7,1,3.0,2.8363201659999504,5.0,3.9292985829999907,872.5975443749999,872.599978,873.053561917,872.8849822499999,,,,,,,,872.594466708,872.5974967499999,None,,,,,201,,female,kitchen,2024-03-08_10h20.03.051,image_similarity_rating,2023.2.3,None,2024-03-08 10h20.15.326189 +0100,
,103,136,97,97,stimuli/own/kitchen/103_kit.jpg,stimuli/own/kitchen/136_kit.jpg,,,,,,,,,0,95,95,96,877.117188042,,,,,,,,,,,877.4011364999999,877.564569292,877.564569292,877.564569292,877.564569292,877.564569292,877.564569292,877.564569292,877.564569292,882.136032417,7,-7,1,6.0,3.106556707999971,5.0,4.347055499999897,877.0983900419999,877.117188042,,877.401122833,,,,,,,,877.0953742080001,877.0983343329999,None,,,,,201,,female,kitchen,2024-03-08_10h20.03.051,image_similarity_rating,2023.2.3,None,2024-03-08 10h20.15.326189 +0100,
,111,138,249,249,stimuli/own/kitchen/111_kit.jpg,stimuli/own/kitchen/138_kit.jpg,,,,,,,,,0,96,96,248,882.1410788329999,,,,,,,,,,,882.435148542,882.598065125,882.598065125,882.598065125,882.598065125,882.598065125,882.598065125,882.598065125,882.598065125,886.8028777079999,7,-7,1,7.0,2.6057078750000073,5.0,3.905611791999945,882.1392261670001,882.1410788329999,882.598065125,882.4351354169999,,,,,,,,882.1362564169999,882.1391786249999,None,,,,,201,,female,kitchen,2024-03-08_10h20.03.051,image_similarity_rating,2023.2.3,None,2024-03-08 10h20.15.326189 +0100,
,121,135,471,471,stimuli/own/kitchen/121_kit.jpg,stimuli/own/kitchen/135_kit.jpg,,,,,,,,,0,97,97,470,886.808140458,,,,,,,,,,,887.1024304579998,887.2693165420001,887.2693165420001,887.2693165420001,887.2693165420001,887.2693165420001,887.2693165420001,887.2693165420001,887.2693165420001,891.5158128749999,7,-7,1,6.0,3.312321584000074,6.0,4.049165207999977,886.806084,886.808140458,887.2693165420001,887.102416292,,,,,,,,886.8030999999999,886.8060357079999,None,,,,,201,,female,kitchen,2024-03-08_10h20.03.051,image_similarity_rating,2023.2.3,None,2024-03-08 10h20.15.326189 +0100,
,116,123,361,361,stimuli/own/kitchen/116_kit.jpg,stimuli/own/kitchen/123_kit.jpg,,,,,,,,,0,98,98,360,891.5210246249999,,,,,,,,,,,891.8052310420001,891.9670925,891.9670925,891.9670925,891.9670925,891.9670925,891.9670925,891.9670925,891.9670925,895.811013542,7,-7,1,3.0,3.667386958000179,6.0,2.4878382080000847,891.5191601669999,891.5210246249999,891.9670925,891.8052205419999,,,,,,,,891.516061,891.519111542,None,,,,,201,,female,kitchen,2024-03-08_10h20.03.051,image_similarity_rating,2023.2.3,None,2024-03-08 10h20.15.326189 +0100,
,116,129,366,366,stimuli/own/kitchen/116_kit.jpg,stimuli/own/kitchen/129_kit.jpg,,,,,,,,,0,99,99,365,895.816835542,,,,,,,,,,,896.101714375,896.2679457499999,896.2679457499999,896.2679457499999,896.2679457499999,896.2679457499999,896.2679457499999,896.2679457499999,896.2679457499999,900.9991909169999,-7,7,1,2.0,4.168593500000043,2.0,2.587024833999976,895.81431825,895.816835542,896.2679457499999,896.1017006669999,,,,,,,,895.811237417,895.8142701249999,None,,,,,201,,female,kitchen,2024-03-08_10h20.03.051,image_similarity_rating,2023.2.3,None,2024-03-08 10h20.15.326189 +0100,
,123,138,507,507,stimuli/own/kitchen/123_kit.jpg,stimuli/own/kitchen/138_kit.jpg,,,,,,,,,0,100,100,506,901.004553708,,,,,,,,,,,906.7891406669999,906.9580693749999,906.9580693749999,906.9580693749999,906.9580693749999,906.9580693749999,906.9580693749999,906.9580693749999,906.9580693749999,912.805965458,-7,7,2,4.0,3.937368125000148,5.0,5.7931842499999675,906.5025841669999,906.505976833,906.9580693749999,906.78912425,,,,,,,,900.9994327919999,906.5012252500001,space,901.004553708,5.496511499999997,None,,201,,female,kitchen,2024-03-08_10h20.03.051,image_similarity_rating,2023.2.3,None,2024-03-08 10h20.15.326189 +0100,
,105,129,154,154,stimuli/own/kitchen/105_kit.jpg,stimuli/own/kitchen/129_kit.jpg,,,,,,,,,0,101,101,153,912.8168109579999,,,,,,,,,,,913.1014525420001,913.26586875,913.26586875,913.26586875,913.26586875,913.26586875,913.26586875,913.26586875,913.26586875,919.2607910419999,7,-7,2,3.0,5.931646958000101,4.0,5.150663415999816,912.8097151249999,912.8168109579999,913.26586875,913.1014337500001,,,,,,,,912.806189917,912.8096639579999,None,,,,,201,,female,kitchen,2024-03-08_10h20.03.051,image_similarity_rating,2023.2.3,None,2024-03-08 10h20.15.326189 +0100,
,115,136,349,349,stimuli/own/kitchen/115_kit.jpg,stimuli/own/kitchen/136_kit.jpg,,,,,,,,,0,102,102,348,919.2664601249999,,,,,,,,,,,919.551903667,919.717000375,919.717000375,919.717000375,919.717000375,919.717000375,919.717000375,919.717000375,919.717000375,923.9657931249999,7,-7,2,3.0,2.870551624999962,2.0,4.1011598340001,919.264032458,919.2664601249999,919.717000375,919.5518897919999,,,,,,,,919.2610172499999,919.2639819579999,None,,,,,201,,female,kitchen,2024-03-08_10h20.03.051,image_similarity_rating,2023.2.3,None,2024-03-08 10h20.15.326189 +0100,
,119,131,431,431,stimuli/own/kitchen/119_kit.jpg,stimuli/own/kitchen/131_kit.jpg,,,,,,,,,0,103,103,430,923.9711078329999,,,,,,,,,,,924.25548275,924.419895125,924.419895125,924.419895125,924.419895125,924.419895125,924.419895125,924.419895125,924.419895125,929.4613329169999,-7,7,2,2.0,4.813315957999976,3.0,3.568537249999963,923.9690498329999,923.9711078329999,924.419895125,924.2554668749999,,,,,,,,923.9660335419999,923.9690022499999,None,,,,,201,,female,kitchen,2024-03-08_10h20.03.051,image_similarity_rating,2023.2.3,None,2024-03-08 10h20.15.326189 +0100,
,114,125,316,316,stimuli/own/kitchen/114_kit.jpg,stimuli/own/kitchen/125_kit.jpg,,,,,,,,,0,104,104,315,929.466536375,,,,,,,,,,,929.7522275419999,929.9165352919999,929.9165352919999,929.9165352919999,929.9165352919999,929.9165352919999,929.9165352919999,929.9165352919999,929.9165352919999,934.766204083,7,-7,2,5.0,3.4605906249998952,7.0,4.575539791999972,929.464561625,929.466536375,929.9165352919999,929.752212917,,,,,,,,929.461559542,929.4645136249999,None,,,,,201,,female,kitchen,2024-03-08_10h20.03.051,image_similarity_rating,2023.2.3,None,2024-03-08 10h20.15.326189 +0100,
,105,109,136,136,stimuli/own/kitchen/105_kit.jpg,stimuli/own/kitchen/109_kit.jpg,,,,,,,,,0,105,105,135,934.7714712499999,,,,,,,,,,,935.057282625,935.2245991249999,935.2245991249999,935.2245991249999,935.2245991249999,935.2245991249999,935.2245991249999,935.2245991249999,935.2245991249999,939.6447007079998,-7,7,2,2.0,4.345863124999823,4.0,2.2900687080000353,934.769520333,934.7714712499999,935.2245991249999,935.0572688749999,,,,,,,,934.766428958,934.769472875,None,,,,,201,,female,kitchen,2024-03-08_10h20.03.051,image_similarity_rating,2023.2.3,None,2024-03-08 10h20.15.326189 +0100,
,106,138,192,192,stimuli/own/kitchen/106_kit.jpg,stimuli/own/kitchen/138_kit.jpg,,,,,,,,,0,106,106,191,939.650146667,,,,,,,,,,,939.934587,940.099830375,940.099830375,940.099830375,940.099830375,940.099830375,940.099830375,940.099830375,940.099830375,944.5858555,7,-7,2,5.0,2.5971305829998528,5.0,4.311821290999887,939.647909667,939.650146667,940.099830375,939.9345635,,,,,,,,939.6449224169999,939.6478621249998,None,,,,,201,,female,kitchen,2024-03-08_10h20.03.051,image_similarity_rating,2023.2.3,None,2024-03-08 10h20.15.326189 +0100,
,103,113,76,76,stimuli/own/kitchen/103_kit.jpg,stimuli/own/kitchen/113_kit.jpg,,,,,,,,,0,107,107,75,944.591130667,,,,,,,,,,,944.8845912499999,945.0512644169999,945.0512644169999,945.0512644169999,945.0512644169999,945.0512644169999,945.0512644169999,945.0512644169999,945.0512644169999,950.402634417,7,-7,2,5.0,4.841318499999943,5.0,5.241315875000055,944.589062125,944.591130667,945.0512644169999,944.8845695,,,,,,,,944.5860810419999,944.589014167,None,,,,,201,,female,kitchen,2024-03-08_10h20.03.051,image_similarity_rating,2023.2.3,None,2024-03-08 10h20.15.326189 +0100,
,111,124,237,237,stimuli/own/kitchen/111_kit.jpg,stimuli/own/kitchen/124_kit.jpg,,,,,,,,,0,108,108,236,950.4080980829999,,,,,,,,,,,950.701161,950.8668432919999,950.8668432919999,950.8668432919999,950.8668432919999,950.8668432919999,950.8668432919999,950.8668432919999,950.8668432919999,953.8724541249999,-7,7,2,3.0,2.9309253750000153,5.0,2.0610979589998806,950.405877333,950.4080980829999,950.8668432919999,950.701144833,,,,,,,,950.402860958,950.4058299579999,None,,,,,201,,female,kitchen,2024-03-08_10h20.03.051,image_similarity_rating,2023.2.3,None,2024-03-08 10h20.15.326189 +0100,
,104,112,107,107,stimuli/own/kitchen/104_kit.jpg,stimuli/own/kitchen/112_kit.jpg,,,,,,,,,0,109,109,106,953.883329167,,,,,,,,,,,954.167926292,954.3342135830001,954.3342135830001,954.3342135830001,954.3342135830001,954.3342135830001,954.3342135830001,954.3342135830001,954.3342135830001,959.077598292,-7,7,2,5.0,3.6570812909999404,4.0,4.605341624999937,953.875659042,953.883329167,954.3342135830001,954.1679125,,,,,,,,953.8726783749999,953.8756114579999,None,,,,,201,,female,kitchen,2024-03-08_10h20.03.051,image_similarity_rating,2023.2.3,None,2024-03-08 10h20.15.326189 +0100,
,115,135,348,348,stimuli/own/kitchen/115_kit.jpg,stimuli/own/kitchen/135_kit.jpg,,,,,,,,,0,110,110,347,959.083325667,,,,,,,,,,,959.367891417,959.5327110000001,959.5327110000001,959.5327110000001,959.5327110000001,959.5327110000001,959.5327110000001,959.5327110000001,959.5327110000001,965.6110724999999,-7,7,2,4.0,6.01413295899988,2.0,3.9328254170000037,959.0808765419999,959.083325667,959.5327110000001,959.367875417,,,,,,,,959.077820042,959.080828375,None,,,,,201,,female,kitchen,2024-03-08_10h20.03.051,image_similarity_rating,2023.2.3,None,2024-03-08 10h20.15.326189 +0100,
,121,134,470,470,stimuli/own/kitchen/121_kit.jpg,stimuli/own/kitchen/134_kit.jpg,,,,,,,,,0,111,111,469,965.6163081249999,,,,,,,,,,,965.901267708,966.0716890419999,966.0716890419999,966.0716890419999,966.0716890419999,966.0716890419999,966.0716890419999,966.0716890419999,966.0716890419999,970.515323958,-7,7,2,5.0,4.433614917000114,6.0,3.622743666999895,965.6142622919999,965.6163081249999,966.0716890419999,965.901251083,,,,,,,,965.6112961669999,965.61421475,None,,,,,201,,female,kitchen,2024-03-08_10h20.03.051,image_similarity_rating,2023.2.3,None,2024-03-08 10h20.15.326189 +0100,
,127,130,554,554,stimuli/own/kitchen/127_kit.jpg,stimuli/own/kitchen/130_kit.jpg,,,,,,,,,0,112,112,553,970.520530625,,,,,,,,,,,970.805664208,970.973526625,970.973526625,970.973526625,970.973526625,970.973526625,970.973526625,970.973526625,970.973526625,975.6057109579999,-7,7,2,5.0,3.7858939170000667,4.0,4.296602500000063,970.5186807079999,970.520530625,970.973526625,970.805650083,,,,,,,,970.5155481249999,970.5186323749999,None,,,,,201,,female,kitchen,2024-03-08_10h20.03.051,image_similarity_rating,2023.2.3,None,2024-03-08 10h20.15.326189 +0100,
,132,139,600,600,stimuli/own/kitchen/132_kit.jpg,stimuli/own/kitchen/139_kit.jpg,,,,,,,,,0,113,113,599,975.616534792,,,,,,,,,,,975.9011800829999,976.0690050000001,976.0690050000001,976.0690050000001,976.0690050000001,976.0690050000001,976.0690050000001,976.0690050000001,976.0690050000001,982.2891649579999,7,-7,2,3.0,6.134956666000107,5.0,4.837024874999997,975.608898875,975.616534792,976.0690050000001,975.90115175,,,,,,,,975.605930042,975.6088507499999,None,,,,,201,,female,kitchen,2024-03-08_10h20.03.051,image_similarity_rating,2023.2.3,None,2024-03-08 10h20.15.326189 +0100,
,106,132,187,187,stimuli/own/kitchen/106_kit.jpg,stimuli/own/kitchen/132_kit.jpg,,,,,,,,,0,114,114,186,982.3002402079999,,,,,,,,,,,982.584532375,982.7515597500001,982.7515597500001,982.7515597500001,982.7515597500001,982.7515597500001,982.7515597500001,982.7515597500001,982.7515597500001,989.66122025,-7,7,2,4.0,6.056505625,4.0,6.8096712920000755,982.2923659999999,982.3002402079999,982.7515597500001,982.584515125,,,,,,,,982.2893899579999,982.2923181250001,None,,,,,201,,female,kitchen,2024-03-08_10h20.03.051,image_similarity_rating,2023.2.3,None,2024-03-08 10h20.15.326189 +0100,
,132,136,597,597,stimuli/own/kitchen/132_kit.jpg,stimuli/own/kitchen/136_kit.jpg,,,,,,,,,0,115,115,596,989.6664412499999,,,,,,,,,,,989.951203375,990.1187084579999,990.1187084579999,990.1187084579999,990.1187084579999,990.1187084579999,990.1187084579999,990.1187084579999,990.1187084579999,993.948639292,-7,7,2,5.0,3.779776542000036,3.0,1.9974768750000749,989.66445125,989.6664412499999,990.1187084579999,989.951186667,,,,,,,,989.661443708,989.664403542,None,,,,,201,,female,kitchen,2024-03-08_10h20.03.051,image_similarity_rating,2023.2.3,None,2024-03-08 10h20.15.326189 +0100,
,101,129,24,24,stimuli/own/kitchen/101_kit.jpg,stimuli/own/kitchen/129_kit.jpg,,,,,,,,,0,116,116,23,993.953784667,,,,,,,,,,,994.239803292,994.4049345419999,994.4049345419999,994.4049345419999,994.4049345419999,994.4049345419999,994.4049345419999,994.4049345419999,994.4049345419999,998.2023784169999,7,-7,2,5.0,2.4227038750000247,4.0,3.648200708000104,993.9518787079999,993.953784667,994.4049345419999,994.239784375,,,,,,,,993.94887225,993.95183,None,,,,,201,,female,kitchen,2024-03-08_10h20.03.051,image_similarity_rating,2023.2.3,None,2024-03-08 10h20.15.326189 +0100,
,102,129,58,58,stimuli/own/kitchen/102_kit.jpg,stimuli/own/kitchen/129_kit.jpg,,,,,,,,,0,117,117,57,998.207532375,,,,,,,,,,,998.5018057919999,998.6671490829999,998.6671490829999,998.6671490829999,998.6671490829999,998.6671490829999,998.6671490829999,998.6671490829999,998.6671490829999,1004.415446833,7,-7,2,2.0,2.209922291999874,4.0,5.448000542000045,998.2055816669999,998.207532375,998.6671490829999,998.5017921669998,,,,,,,,998.202601875,998.2055339169999,None,,,,,201,,female,kitchen,2024-03-08_10h20.03.051,image_similarity_rating,2023.2.3,None,2024-03-08 10h20.15.326189 +0100,
,123,131,501,501,stimuli/own/kitchen/123_kit.jpg,stimuli/own/kitchen/131_kit.jpg,,,,,,,,,0,118,118,500,1004.420819042,,,,,,,,,,,1004.703797458,1004.865489583,1004.865489583,1004.865489583,1004.865489583,1004.865489583,1004.865489583,1004.865489583,1004.865489583,1008.6606979999999,-7,7,2,3.0,3.4049369169999864,3.0,2.5367195000001175,1004.4187776249998,1004.420819042,1004.865489583,1004.7037874170001,,,,,,,,1004.4156902919999,1004.41872975,None,,,,,201,,female,kitchen,2024-03-08_10h20.03.051,image_similarity_rating,2023.2.3,None,2024-03-08 10h20.15.326189 +0100,
,130,137,581,581,stimuli/own/kitchen/130_kit.jpg,stimuli/own/kitchen/137_kit.jpg,,,,,,,,,0,119,119,580,1008.666339875,,,,,,,,,,,1008.9511635419999,1009.1199562919999,1009.1199562919999,1009.1199562919999,1009.1199562919999,1009.1199562919999,1009.1199562919999,1009.1199562919999,1009.1199562919999,1014.910890917,7,-7,2,3.0,5.690389790999916,2.0,3.7544037499999376,1008.6639157499999,1008.666339875,1009.1199562919999,1008.9511467079999,,,,,,,,1008.6609209169999,1008.6638685,None,,,,,201,,female,kitchen,2024-03-08_10h20.03.051,image_similarity_rating,2023.2.3,None,2024-03-08 10h20.15.326189 +0100,
,101,106,5,5,stimuli/own/kitchen/101_kit.jpg,stimuli/own/kitchen/106_kit.jpg,,,,,,,,,0,120,120,4,1014.9162032080001,,,,,,,,,,,1015.2021012499999,1015.366068417,1015.366068417,1015.366068417,1015.366068417,1015.366068417,1015.366068417,1015.366068417,1015.366068417,1019.927267458,7,-7,2,3.0,2.8604060420000224,3.0,4.462049666999974,1014.9140829999999,1014.9162032080001,1015.366068417,1015.2020875419998,,,,,,,,1014.9111151249999,1014.914035625,None,,,,,201,,female,kitchen,2024-03-08_10h20.03.051,image_similarity_rating,2023.2.3,None,2024-03-08 10h20.15.326189 +0100,
,119,134,433,433,stimuli/own/kitchen/119_kit.jpg,stimuli/own/kitchen/134_kit.jpg,,,,,,,,,0,121,121,432,1019.9328862079999,,,,,,,,,,,1020.217796833,1020.3825314169999,1020.3825314169999,1020.3825314169999,1020.3825314169999,1020.3825314169999,1020.3825314169999,1020.3825314169999,1020.3825314169999,1024.461179333,-7,7,2,3.0,4.10276895800007,3.0,3.4214537079999445,1019.9305046669999,1019.9328862079999,1020.3825314169999,1020.2177818329999,,,,,,,,1019.927503917,1019.93045725,None,,,,,201,,female,kitchen,2024-03-08_10h20.03.051,image_similarity_rating,2023.2.3,None,2024-03-08 10h20.15.326189 +0100,
,101,113,9,9,stimuli/own/kitchen/101_kit.jpg,stimuli/own/kitchen/113_kit.jpg,,,,,,,,,0,122,122,8,1024.4663692499998,,,,,,,,,,,1024.7509277499998,1024.9172735,1024.9172735,1024.9172735,1024.9172735,1024.9172735,1024.9172735,1024.9172735,1024.9172735,1029.143989625,-7,7,2,5.0,2.4435988750001343,3.0,4.03947279099998,1024.4643939999999,1024.4663692499998,1024.9172735,1024.750912708,,,,,,,,1024.461413708,1024.464346625,None,,,,,201,,female,kitchen,2024-03-08_10h20.03.051,image_similarity_rating,2023.2.3,None,2024-03-08 10h20.15.326189 +0100,
,112,140,278,278,stimuli/own/kitchen/112_kit.jpg,stimuli/own/kitchen/140_kit.jpg,,,,,,,,,0,123,123,277,1029.149499083,,,,,,,,,,,1029.4342246669999,1029.598767708,1029.598767708,1029.598767708,1029.598767708,1029.598767708,1029.598767708,1029.598767708,1029.598767708,1036.081931542,-7,7,2,3.0,6.342802624999877,2.0,2.6005922920001012,1029.147323375,1029.149499083,1029.598767708,1029.434210333,,,,,,,,1029.1442164999999,1029.147274875,None,,,,,201,,female,kitchen,2024-03-08_10h20.03.051,image_similarity_rating,2023.2.3,None,2024-03-08 10h20.15.326189 +0100,
,135,136,610,610,stimuli/own/kitchen/135_kit.jpg,stimuli/own/kitchen/136_kit.jpg,,,,,,,,,0,124,124,609,1036.0872541249998,,,,,,,,,,,1036.37162775,1036.536860625,1036.536860625,1036.536860625,1036.536860625,1036.536860625,1036.536860625,1036.536860625,1036.536860625,1039.681813833,-7,7,2,4.0,2.023565250000047,3.0,3.0716419159998622,1036.085163542,1036.0872541249998,1036.536860625,1036.371615458,,,,,,,,1036.08217975,1036.0851157079999,None,,,,,201,,female,kitchen,2024-03-08_10h20.03.051,image_similarity_rating,2023.2.3,None,2024-03-08 10h20.15.326189 +0100,
,109,123,208,208,stimuli/own/kitchen/109_kit.jpg,stimuli/own/kitchen/123_kit.jpg,,,,,,,,,0,125,125,207,1039.687398333,,,,,,,,,,,1039.972175833,1040.135989958,1040.135989958,1040.135989958,1040.135989958,1040.135989958,1040.135989958,1040.135989958,1040.135989958,1044.706003625,7,-7,2,2.0,4.243961207999973,5.0,1.8019240829999035,1039.685139583,1039.687398333,1040.135989958,1039.972165458,,,,,,,,1039.68204875,1039.685091292,None,,,,,201,,female,kitchen,2024-03-08_10h20.03.051,image_similarity_rating,2023.2.3,None,2024-03-08 10h20.15.326189 +0100,
,112,117,257,257,stimuli/own/kitchen/112_kit.jpg,stimuli/own/kitchen/117_kit.jpg,,,,,,,,,0,126,126,256,1044.7165231669999,,,,,,,,,,,1045.00097625,1045.170873667,1045.170873667,1045.170873667,1045.170873667,1045.170873667,1045.170873667,1045.170873667,1045.170873667,1051.6775841669998,-7,7,2,7.0,4.708588458999884,5.0,6.368989749999855,1044.70919275,1044.7165231669999,1045.170873667,1045.00095025,,,,,,,,1044.706227958,1044.709145375,None,,,,,201,,female,kitchen,2024-03-08_10h20.03.051,image_similarity_rating,2023.2.3,None,2024-03-08 10h20.15.326189 +0100,
,109,116,201,201,stimuli/own/kitchen/109_kit.jpg,stimuli/own/kitchen/116_kit.jpg,,,,,,,,,0,127,127,200,1051.68299675,,,,,,,,,,,1051.967387208,1052.131925042,1052.131925042,1052.131925042,1052.131925042,1052.131925042,1052.131925042,1052.131925042,1052.131925042,1058.698632792,-7,7,2,5.0,4.331288500000028,5.0,6.31799883299982,1051.68089525,1051.68299675,1052.131925042,1051.9673747499999,,,,,,,,1051.677804292,1051.680847792,None,,,,,201,,female,kitchen,2024-03-08_10h20.03.051,image_similarity_rating,2023.2.3,None,2024-03-08 10h20.15.326189 +0100,
,123,136,505,505,stimuli/own/kitchen/123_kit.jpg,stimuli/own/kitchen/136_kit.jpg,,,,,,,,,0,128,128,504,1058.70396175,,,,,,,,,,,1058.987979125,1059.152069417,1059.152069417,1059.152069417,1059.152069417,1059.152069417,1059.152069417,1059.152069417,1059.152069417,1065.1893855419999,-7,7,2,5.0,4.563998916999935,3.0,5.714360749999969,1058.7018612079999,1058.70396175,1059.152069417,1058.9879664999999,,,,,,,,1058.698880708,1058.701813708,None,,,,,201,,female,kitchen,2024-03-08_10h20.03.051,image_similarity_rating,2023.2.3,None,2024-03-08 10h20.15.326189 +0100,
,115,119,334,334,stimuli/own/kitchen/115_kit.jpg,stimuli/own/kitchen/119_kit.jpg,,,,,,,,,0,129,129,333,1065.199666833,,,,,,,,,,,1065.484098333,1065.649164875,1065.649164875,1065.649164875,1065.649164875,1065.649164875,1065.649164875,1065.649164875,1065.649164875,1071.3019891249999,7,-7,2,1.0,5.489419834000046,3.0,2.7248419169998215,1065.192604542,1065.199666833,1065.649164875,1065.484081333,,,,,,,,1065.189612375,1065.1925564169999,None,,,,,201,,female,kitchen,2024-03-08_10h20.03.051,image_similarity_rating,2023.2.3,None,2024-03-08 10h20.15.326189 +0100,
,101,102,1,1,stimuli/own/kitchen/101_kit.jpg,stimuli/own/kitchen/102_kit.jpg,,,,,,,,,0,130,130,0,1071.307212042,,,,,,,,,,,1071.60060225,1071.763501042,1071.763501042,1071.763501042,1071.763501042,1071.763501042,1071.763501042,1071.763501042,1071.763501042,1077.2560711669998,-7,7,2,2.0,5.354094541999984,5.0,4.691437334000057,1071.3052922919999,1071.307212042,1071.763501042,1071.600592083,,,,,,,,1071.302212583,1071.3052445419999,None,,,,,201,,female,kitchen,2024-03-08_10h20.03.051,image_similarity_rating,2023.2.3,None,2024-03-08 10h20.15.326189 +0100,
,112,126,266,266,stimuli/own/kitchen/112_kit.jpg,stimuli/own/kitchen/126_kit.jpg,,,,,,,,,0,131,131,265,1077.2662384579999,,,,,,,,,,,1077.550924667,1077.716918375,1077.716918375,1077.716918375,1077.716918375,1077.716918375,1077.716918375,1077.716918375,1077.716918375,1082.931575542,7,-7,2,3.0,3.111119459000065,5.0,5.140656834000083,1077.25927,1077.2662384579999,1077.716918375,1077.550910167,,,,,,,,1077.2562934999999,1077.259221958,None,,,,,201,,female,kitchen,2024-03-08_10h20.03.051,image_similarity_rating,2023.2.3,None,2024-03-08 10h20.15.326189 +0100,
,126,141,552,552,stimuli/own/kitchen/126_kit.jpg,stimuli/own/kitchen/141_kit.jpg,,,,,,,,,0,132,132,551,1082.9368037499999,,,,,,,,,,,1083.220944,1083.382212792,1083.382212792,1083.382212792,1083.382212792,1083.382212792,1083.382212792,1083.382212792,1083.382212792,1087.676532917,7,-7,2,5.0,4.165634041999965,6.0,3.650121666999894,1082.934812167,1082.9368037499999,1083.382212792,1083.220933917,,,,,,,,1082.931797208,1082.9347639999999,None,,,,,201,,female,kitchen,2024-03-08_10h20.03.051,image_similarity_rating,2023.2.3,None,2024-03-08 10h20.15.326189 +0100,
,102,130,59,59,stimuli/own/kitchen/102_kit.jpg,stimuli/own/kitchen/130_kit.jpg,,,,,,,,,0,133,133,58,1087.6825852919999,,,,,,,,,,,1087.967539667,1088.1350117079999,1088.1350117079999,1088.1350117079999,1088.1350117079999,1088.1350117079999,1088.1350117079999,1088.1350117079999,1088.1350117079999,1093.177278542,-7,7,2,6.0,3.406241334000015,5.0,4.85622529200009,1087.67984,1087.6825852919999,1088.1350117079999,1087.967521792,,,,,,,,1087.676758417,1087.679792417,None,,,,,201,,female,kitchen,2024-03-08_10h20.03.051,image_similarity_rating,2023.2.3,None,2024-03-08 10h20.15.326189 +0100,
,105,135,159,159,stimuli/own/kitchen/105_kit.jpg,stimuli/own/kitchen/135_kit.jpg,,,,,,,,,0,134,134,158,1093.1827666249999,,,,,,,,,,,1093.4675372919999,1093.635443375,1093.635443375,1093.635443375,1093.635443375,1093.635443375,1093.635443375,1093.635443375,1093.635443375,1099.676997333,7,-7,2,5.0,5.102947458000017,4.0,5.906555541999978,1093.18046075,1093.1827666249999,1093.635443375,1093.467519625,,,,,,,,1093.177502083,1093.1804135,None,,,,,201,,female,kitchen,2024-03-08_10h20.03.051,image_similarity_rating,2023.2.3,None,2024-03-08 10h20.15.326189 +0100,
,116,140,376,376,stimuli/own/kitchen/116_kit.jpg,stimuli/own/kitchen/140_kit.jpg,,,,,,,,,0,135,135,375,1099.682571958,,,,,,,,,,,1099.967395125,1100.136920917,1100.136920917,1100.136920917,1100.136920917,1100.136920917,1100.136920917,1100.136920917,1100.136920917,1104.3271,-7,7,2,5.0,3.4345185839999886,3.0,3.994211707999966,1099.680296833,1099.682571958,1100.136920917,1099.967377083,,,,,,,,1099.67721925,1099.6802495,None,,,,,201,,female,kitchen,2024-03-08_10h20.03.051,image_similarity_rating,2023.2.3,None,2024-03-08 10h20.15.326189 +0100,
,136,139,618,618,stimuli/own/kitchen/136_kit.jpg,stimuli/own/kitchen/139_kit.jpg,,,,,,,,,0,136,136,617,1104.332554583,,,,,,,,,,,1104.61749525,1104.782263,1104.782263,1104.782263,1104.782263,1104.782263,1104.782263,1104.782263,1104.782263,1108.8553803329999,7,-7,2,3.0,4.084270667000055,3.0,2.662308791999976,1104.330265917,1104.332554583,1104.782263,1104.6174806669999,,,,,,,,1104.3273215,1104.330219625,None,,,,,201,,female,kitchen,2024-03-08_10h20.03.051,image_similarity_rating,2023.2.3,None,2024-03-08 10h20.15.326189 +0100,
,109,141,224,224,stimuli/own/kitchen/109_kit.jpg,stimuli/own/kitchen/141_kit.jpg,,,,,,,,,0,137,137,223,1108.866200667,,,,,,,,,,,1109.150684167,1109.322265583,1109.322265583,1109.322265583,1109.322265583,1109.322265583,1109.322265583,1109.322265583,1109.322265583,1115.814885458,-7,7,2,1.0,2.077145167000026,2.0,6.305380374999913,1108.858672875,1108.866200667,1109.322265583,1109.150664458,,,,,,,,1108.855599583,1108.858625542,None,,,,,201,,female,kitchen,2024-03-08_10h20.03.051,image_similarity_rating,2023.2.3,None,2024-03-08 10h20.15.326189 +0100,
,111,117,230,230,stimuli/own/kitchen/111_kit.jpg,stimuli/own/kitchen/117_kit.jpg,,,,,,,,,0,138,138,229,1115.820041083,,,,,,,,,,,1116.104618417,1116.2683877499999,1116.2683877499999,1116.2683877499999,1116.2683877499999,1116.2683877499999,1116.2683877499999,1116.2683877499999,1116.2683877499999,1122.0773135,7,-7,2,5.0,4.6942241670001295,3.0,5.484717250000131,1115.818132458,1115.820041083,1116.2683877499999,1116.104603042,,,,,,,,1115.815112583,1115.8180855,None,,,,,201,,female,kitchen,2024-03-08_10h20.03.051,image_similarity_rating,2023.2.3,None,2024-03-08 10h20.15.326189 +0100,
,124,129,514,514,stimuli/own/kitchen/124_kit.jpg,stimuli/own/kitchen/129_kit.jpg,,,,,,,,,0,139,139,513,1122.082474042,,,,,,,,,,,1122.367460542,1122.532134958,1122.532134958,1122.532134958,1122.532134958,1122.532134958,1122.532134958,1122.532134958,1122.532134958,1126.414864458,7,-7,2,2.0,2.643758415999855,3.0,3.806906541999979,1122.080495292,1122.082474042,1122.532134958,1122.367446458,,,,,,,,1122.0775355829999,1122.080447625,None,,,,,201,,female,kitchen,2024-03-08_10h20.03.051,image_similarity_rating,2023.2.3,None,2024-03-08 10h20.15.326189 +0100,
,121,129,466,466,stimuli/own/kitchen/121_kit.jpg,stimuli/own/kitchen/129_kit.jpg,,,,,,,,,0,140,140,465,1126.420201958,,,,,,,,,,,1126.7049185829999,1126.8705405,1126.8705405,1126.8705405,1126.8705405,1126.8705405,1126.8705405,1126.8705405,1126.8705405,1131.5436306249999,-7,7,2,3.0,4.545573333999982,3.0,2.160897875000046,1126.4182719169999,1126.420201958,1126.8705405,1126.704905417,,,,,,,,1126.415100625,1126.418224833,None,,,,,201,,female,kitchen,2024-03-08_10h20.03.051,image_similarity_rating,2023.2.3,None,2024-03-08 10h20.15.326189 +0100,
,115,130,344,344,stimuli/own/kitchen/115_kit.jpg,stimuli/own/kitchen/130_kit.jpg,,,,,,,,,0,141,141,343,1131.549091125,,,,,,,,,,,1131.834800167,1132.002372417,1132.002372417,1132.002372417,1132.002372417,1132.002372417,1132.002372417,1132.002372417,1132.002372417,1136.831422083,-7,7,2,3.0,4.764735124999788,1.0,2.8284914999999273,1131.546900333,1131.549091125,1132.002372417,1131.834781667,,,,,,,,1131.543853167,1131.546853458,None,,,,,201,,female,kitchen,2024-03-08_10h20.03.051,image_similarity_rating,2023.2.3,None,2024-03-08 10h20.15.326189 +0100,
,131,136,589,589,stimuli/own/kitchen/131_kit.jpg,stimuli/own/kitchen/136_kit.jpg,,,,,,,,,0,142,142,588,1136.836889917,,,,,,,,,,,1137.122682083,1137.287835917,1137.287835917,1137.287835917,1137.287835917,1137.287835917,1137.287835917,1137.287835917,1137.287835917,1142.685131833,7,-7,2,3.0,4.069689208,4.0,5.237835041999915,1136.834775083,1136.836889917,1137.287835917,1137.1226685,,,,,,,,1136.831667167,1136.834726708,None,,,,,201,,female,kitchen,2024-03-08_10h20.03.051,image_similarity_rating,2023.2.3,None,2024-03-08 10h20.15.326189 +0100,
,136,141,620,620,stimuli/own/kitchen/136_kit.jpg,stimuli/own/kitchen/141_kit.jpg,,,,,,,,,0,143,143,619,1142.690184292,,,,,,,,,,,1142.984676417,1143.149474,1143.149474,1143.149474,1143.149474,1143.149474,1143.149474,1143.149474,1143.149474,1148.648070542,7,-7,2,5.0,4.8279743330001565,6.0,5.3563630419998844,1142.6883190419999,1142.690184292,1143.149474,1142.984656833,,,,,,,,1142.685352792,1142.688271667,None,,,,,201,,female,kitchen,2024-03-08_10h20.03.051,image_similarity_rating,2023.2.3,None,2024-03-08 10h20.15.326189 +0100,
,102,126,56,56,stimuli/own/kitchen/102_kit.jpg,stimuli/own/kitchen/126_kit.jpg,,,,,,,,,0,144,144,55,1148.653269292,,,,,,,,,,,1148.938565083,1149.10278625,1149.10278625,1149.10278625,1149.10278625,1149.10278625,1149.10278625,1149.10278625,1149.10278625,1153.318605083,-7,7,2,4.0,3.4705185830000573,5.0,4.128892000000178,1148.6513155,1148.653269292,1149.10278625,1148.93855525,,,,,,,,1148.6483007919999,1148.651268375,None,,,,,201,,female,kitchen,2024-03-08_10h20.03.051,image_similarity_rating,2023.2.3,None,2024-03-08 10h20.15.326189 +0100,
,116,135,371,371,stimuli/own/kitchen/116_kit.jpg,stimuli/own/kitchen/135_kit.jpg,,,,,,,,,0,145,145,370,1153.3239247919998,,,,,,,,,,,1153.617339167,1153.779307042,1153.779307042,1153.779307042,1153.779307042,1153.779307042,1153.779307042,1153.779307042,1153.779307042,1158.151763542,7,-7,2,6.0,3.2760869579999508,3.0,4.304987875000052,1153.321957167,1153.3239247919998,1153.779307042,1153.617328,,,,,,,,1153.31882675,1153.321909625,None,,,,,201,,female,kitchen,2024-03-08_10h20.03.051,image_similarity_rating,2023.2.3,None,2024-03-08 10h20.15.326189 +0100,
,111,114,227,227,stimuli/own/kitchen/111_kit.jpg,stimuli/own/kitchen/114_kit.jpg,,,,,,,,,0,146,146,226,1158.156855875,,,,,,,,,,,1158.450536667,1158.616596125,1158.616596125,1158.616596125,1158.616596125,1158.616596125,1158.616596125,1158.616596125,1158.616596125,1162.9561322499999,7,-7,2,6.0,3.5940994580000734,3.0,4.191692208999939,1158.1549395,1158.156855875,1158.616596125,1158.4505132079998,,,,,,,,1158.1519847499999,1158.1548922079999,None,,,,,201,,female,kitchen,2024-03-08_10h20.03.051,image_similarity_rating,2023.2.3,None,2024-03-08 10h20.15.326189 +0100,
,132,137,598,598,stimuli/own/kitchen/132_kit.jpg,stimuli/own/kitchen/137_kit.jpg,,,,,,,,,0,147,147,597,1162.965904083,,,,,,,,,,,1163.251214042,1163.414544875,1163.414544875,1163.414544875,1163.414544875,1163.414544875,1163.414544875,1163.414544875,1163.414544875,1168.29356525,-7,7,2,5.0,4.207655208999995,4.0,4.741218834000165,1162.959451167,1162.965904083,1163.414544875,1163.2512004579999,,,,,,,,1162.95635425,1162.959397875,None,,,,,201,,female,kitchen,2024-03-08_10h20.03.051,image_similarity_rating,2023.2.3,None,2024-03-08 10h20.15.326189 +0100,
,114,131,321,321,stimuli/own/kitchen/114_kit.jpg,stimuli/own/kitchen/131_kit.jpg,,,,,,,,,0,148,148,320,1168.299071208,,,,,,,,,,,1168.584056375,1168.747734667,1168.747734667,1168.747734667,1168.747734667,1168.747734667,1168.747734667,1168.747734667,1168.747734667,1173.4153234999999,7,-7,2,4.0,2.497418542000105,3.0,4.636161291999997,1168.2967322079999,1168.299071208,1168.747734667,1168.58404325,,,,,,,,1168.2937864169999,1168.296686,None,,,,,201,,female,kitchen,2024-03-08_10h20.03.051,image_similarity_rating,2023.2.3,None,2024-03-08 10h20.15.326189 +0100,
,109,140,223,223,stimuli/own/kitchen/109_kit.jpg,stimuli/own/kitchen/140_kit.jpg,,,,,,,,,0,149,149,222,1173.420624458,,,,,,,,,,,1173.7172693329999,1173.881941958,1173.881941958,1173.881941958,1173.881941958,1173.881941958,1173.881941958,1173.881941958,1173.881941958,1178.877517042,7,-7,2,2.0,2.9000779170000897,2.0,4.845271749999938,1173.418536875,1173.420624458,1173.881941958,1173.717254417,,,,,,,,1173.4155429999998,1173.418489167,None,,,,,201,,female,kitchen,2024-03-08_10h20.03.051,image_similarity_rating,2023.2.3,None,2024-03-08 10h20.15.326189 +0100,
,103,119,82,82,stimuli/own/kitchen/103_kit.jpg,stimuli/own/kitchen/119_kit.jpg,,,,,,,,,0,150,150,81,1178.8994223749999,,,,,,,,,,,1179.183404875,1179.354630417,1179.354630417,1179.354630417,1179.354630417,1179.354630417,1179.354630417,1179.354630417,1179.354630417,1183.655087875,-7,7,2,3.0,3.0275482089998604,3.0,4.153853000000026,1178.8808327079998,1178.8994223749999,,1179.183382875,,,,,,,,1178.87774175,1178.880785042,None,,,,,201,,female,kitchen,2024-03-08_10h20.03.051,image_similarity_rating,2023.2.3,None,2024-03-08 10h20.15.326189 +0100,
,106,119,175,175,stimuli/own/kitchen/106_kit.jpg,stimuli/own/kitchen/119_kit.jpg,,,,,,,,,0,151,151,174,1183.665839167,,,,,,,,,,,1183.9510626669999,1184.114298667,1184.114298667,1184.114298667,1184.114298667,1184.114298667,1184.114298667,1184.114298667,1184.114298667,1187.669000875,7,-7,2,3.0,1.9206077910000658,3.0,3.494156334000081,1183.658250167,1183.665839167,1184.114298667,1183.951048458,,,,,,,,1183.655309542,1183.658203083,None,,,,,201,,female,kitchen,2024-03-08_10h20.03.051,image_similarity_rating,2023.2.3,None,2024-03-08 10h20.15.326189 +0100,
,116,134,370,370,stimuli/own/kitchen/116_kit.jpg,stimuli/own/kitchen/134_kit.jpg,,,,,,,,,0,152,152,369,1187.674360792,,,,,,,,,,,1187.96735375,1188.132336042,1188.132336042,1188.132336042,1188.132336042,1188.132336042,1188.132336042,1188.132336042,1188.132336042,1192.751527083,-7,7,2,5.0,2.921964958000217,3.0,4.556740833000049,1187.6724394579999,1187.674360792,1188.132336042,1187.9673385419999,,,,,,,,1187.6692283329999,1187.672389458,None,,,,,201,,female,kitchen,2024-03-08_10h20.03.051,image_similarity_rating,2023.2.3,None,2024-03-08 10h20.15.326189 +0100,
,113,125,291,291,stimuli/own/kitchen/113_kit.jpg,stimuli/own/kitchen/125_kit.jpg,,,,,,,,,0,153,153,290,1192.75665275,,,,,,,,,,,1193.050582583,1193.216171708,1193.216171708,1193.216171708,1193.216171708,1193.216171708,1193.216171708,1193.216171708,1193.216171708,1197.672576,7,-7,2,6.0,3.3105630830000337,3.0,4.333821292000039,1192.75471125,1192.75665275,1193.216171708,1193.0505692499999,,,,,,,,1192.751747542,1192.754664375,None,,,,,201,,female,kitchen,2024-03-08_10h20.03.051,image_similarity_rating,2023.2.3,None,2024-03-08 10h20.15.326189 +0100,
,125,135,533,533,stimuli/own/kitchen/125_kit.jpg,stimuli/own/kitchen/135_kit.jpg,,,,,,,,,0,154,154,532,1197.682459458,,,,,,,,,,,1197.966918875,1198.12994325,1198.12994325,1198.12994325,1198.12994325,1198.12994325,1198.12994325,1198.12994325,1198.12994325,1202.093060042,-7,7,2,4.0,2.641997833000005,3.0,3.8579445419998137,1197.675911375,1197.682459458,1198.12994325,1197.966905583,,,,,,,,1197.672796958,1197.675863917,None,,,,,201,,female,kitchen,2024-03-08_10h20.03.051,image_similarity_rating,2023.2.3,None,2024-03-08 10h20.15.326189 +0100,
,106,129,184,184,stimuli/own/kitchen/106_kit.jpg,stimuli/own/kitchen/129_kit.jpg,,,,,,,,,0,155,155,183,1202.0988506669999,,,,,,,,,,,1202.3837652079999,1202.550349417,1202.550349417,1202.550349417,1202.550349417,1202.550349417,1202.550349417,1202.550349417,1202.550349417,1206.839153667,-7,7,2,2.0,2.5498467500001425,3.0,4.0529882499999985,1202.096249208,1202.0988506669999,1202.550349417,1202.38374525,,,,,,,,1202.0932828749999,1202.096202125,None,,,,,201,,female,kitchen,2024-03-08_10h20.03.051,image_similarity_rating,2023.2.3,None,2024-03-08 10h20.15.326189 +0100,
,114,140,329,329,stimuli/own/kitchen/114_kit.jpg,stimuli/own/kitchen/140_kit.jpg,,,,,,,,,0,156,156,328,1206.849059042,,,,,,,,,,,1207.133725625,1207.3022664999999,1207.3022664999999,1207.3022664999999,1207.3022664999999,1207.3022664999999,1207.3022664999999,1207.3022664999999,1207.3022664999999,1211.11045975,-7,7,2,6.0,3.162710375000188,3.0,3.712550125000007,1206.842397458,1206.849059042,1207.3022664999999,1207.133710625,,,,,,,,1206.839387917,1206.842350125,None,,,,,201,,female,kitchen,2024-03-08_10h20.03.051,image_similarity_rating,2023.2.3,None,2024-03-08 10h20.15.326189 +0100,
,132,135,596,596,stimuli/own/kitchen/132_kit.jpg,stimuli/own/kitchen/135_kit.jpg,,,,,,,,,0,157,157,595,1211.115489542,,,,,,,,,,,1211.4004278749999,1211.564544917,1211.564544917,1211.564544917,1211.564544917,1211.564544917,1211.564544917,1211.564544917,1211.564544917,1214.9980335,-7,7,2,6.0,2.5217187089999697,5.0,3.35707658299998,1211.113638,1211.115489542,1211.564544917,1211.400413292,,,,,,,,1211.110679917,1211.1135911669999,None,,,,,201,,female,kitchen,2024-03-08_10h20.03.051,image_similarity_rating,2023.2.3,None,2024-03-08 10h20.15.326189 +0100,
,103,120,83,83,stimuli/own/kitchen/103_kit.jpg,stimuli/own/kitchen/120_kit.jpg,,,,,,,,,0,158,158,82,1215.003435833,,,,,,,,,,,1215.288826875,1215.451383458,1215.451383458,1215.451383458,1215.451383458,1215.451383458,1215.451383458,1215.451383458,1215.451383458,1218.797808792,-7,7,2,5.0,2.920215750000125,4.0,3.297074832999897,1215.0013120419999,1215.003435833,1215.451383458,1215.288816792,,,,,,,,1214.998273333,1215.0012635,None,,,,,201,,female,kitchen,2024-03-08_10h20.03.051,image_similarity_rating,2023.2.3,None,2024-03-08 10h20.15.326189 +0100,
,116,138,374,374,stimuli/own/kitchen/116_kit.jpg,stimuli/own/kitchen/138_kit.jpg,,,,,,,,,0,159,159,373,1218.803070333,,,,,,,,,,,1219.100499792,1219.264910167,1219.264910167,1219.264910167,1219.264910167,1219.264910167,1219.264910167,1219.264910167,1219.264910167,1224.971998833,7,-7,2,3.0,4.486238582999931,5.0,5.706691916999944,1218.8011085,1218.803070333,1219.264910167,1219.100485083,,,,,,,,1218.798040375,1218.801060625,None,,,,,201,,female,kitchen,2024-03-08_10h20.03.051,image_similarity_rating,2023.2.3,None,2024-03-08 10h20.15.326189 +0100,
,102,139,67,67,stimuli/own/kitchen/102_kit.jpg,stimuli/own/kitchen/139_kit.jpg,,,,,,,,,0,160,160,66,1224.982268792,,,,,,,,,,,1225.2670156249999,1225.432953042,1225.432953042,1225.432953042,1225.432953042,1225.432953042,1225.432953042,1225.432953042,1225.432953042,1228.5352169169998,-7,7,2,3.0,2.386665874999835,4.0,3.064333291999901,1224.975219833,1224.982268792,1225.432953042,1225.266999833,,,,,,,,1224.9722195,1224.9751731669999,None,,,,,201,,female,kitchen,2024-03-08_10h20.03.051,image_similarity_rating,2023.2.3,None,2024-03-08 10h20.15.326189 +0100,
,113,139,303,303,stimuli/own/kitchen/113_kit.jpg,stimuli/own/kitchen/139_kit.jpg,,,,,,,,,0,161,161,302,1228.540281208,,,,,,,,,,,1228.834512667,1228.999700875,1228.999700875,1228.999700875,1228.999700875,1228.999700875,1228.999700875,1228.999700875,1228.999700875,1233.951650125,-7,7,2,2.0,4.149380416999975,5.0,4.78826245900018,1228.538352625,1228.540281208,1228.999700875,1228.834495917,,,,,,,,1228.5354352079999,1228.53830525,None,,,,,201,,female,kitchen,2024-03-08_10h20.03.051,image_similarity_rating,2023.2.3,None,2024-03-08 10h20.15.326189 +0100,
