sub_num,trial,block,task,is_practice,category,image,texture,duration,mask_dur,jitter,stim_time,time_of_resp,trial_response,mask_time,fix_time,jit_onset,trial_end,trial_accuracy,RT
141,1,1,categorization,0,kitchen,SHINEd_sun_afuyedyxivkhecmu.tif,85,0.0666666666666667,0.0666666666666667,1.23333333333333,5966.430831125,5968.998787166,9,5966.492626333,5966.553903708,5969.006562791,5970.233263416,1,2.56795604099989
141,2,1,categorization,0,kitchen,SHINEd_sun_agubuxuukhzyzpdp.tif,88,0.0666666666666667,0.0666666666666667,0.783333333333333,5970.252101,5971.651299041,9,5970.31869925,5970.384877125,5971.677671083,5972.454341625,1,1.39919804100009
141,3,1,categorization,0,bathroom,SHINEd_sun_aggnnqpdorgxpvce.tif,21,0.0666666666666667,0.0666666666666667,0.75,5972.459400375,5973.367211,13,5972.52133325,5972.5822425,5973.384354166,5974.127692875,1,0.907810624999911
141,4,1,categorization,0,kitchen,SHINEd_sun_agzzivivdpnawacl.tif,89,0.0666666666666667,0.0666666666666667,1.23333333333333,5974.133728125,5974.887257416,13,5974.195599916,5974.256378291,5974.891563125,5976.1182795,0,0.753529290999722
141,5,1,categorization,0,bathroom,SHINEd_sun_aavhrsfjbserjtht.tif,13,0.0666666666666667,0.0666666666666667,1.13333333333333,5976.136405208,5977.975378541,9,5976.203091041,5976.269504375,5977.989112958,5979.115834166,0,1.83897333300047
141,6,1,categorization,0,bathroom,SHINEd_sun_akiytfaagpdsphgz.tif,31,0.0666666666666667,0.0666666666666667,0.95,5979.125379,5980.383661625,9,5979.190721541,5979.258908791,5980.399454833,5981.342792083,0,1.25828262499999
141,7,1,categorization,0,bathroom,SHINEd_sun_acegryoqftbzowsg.tif,17,0.0666666666666667,0.0666666666666667,0.733333333333333,5981.347992208,5982.623381291,9,5981.409813416,5981.470803291,5982.639764958,5983.366437166,0,1.27538908300085
141,8,1,categorization,0,bathroom,SHINEd_sun_anhioqovhscjqqwb.tif,38,0.0666666666666667,0.0666666666666667,1.31666666666667,5983.371231458,5984.2065145,13,5983.432930791,5983.494018958,5984.213219375,5985.523265958,1,0.835283041999901
141,9,1,categorization,0,kitchen,SHINEd_sun_auaiucuqpdausiva.tif,102,0.0666666666666667,0.0666666666666667,0.8,5985.541906708,5986.953700458,9,5985.609083166,5985.675478208,5986.98401525,5987.777352791,1,1.41179374999956
141,10,1,categorization,0,kitchen,SHINEd_sun_aypmqwcualkenuoe.tif,109,0.0666666666666667,0.0666666666666667,0.716666666666667,5987.784065375,5988.662371125,9,5987.8457485,5987.907080083,5988.675598958,5989.385603375,1,0.878305750000436
141,11,1,categorization,0,kitchen,SHINEd_sun_ahywdevtimnqcsln.tif,94,0.0666666666666667,0.0666666666666667,0.916666666666667,5989.390569416,5990.550844625,13,5989.452420041,5989.513384875,5990.565431625,5991.475436,0,1.16027520899934
141,12,1,categorization,0,bathroom,SHINEd_sun_aljolscmmzydegqp.tif,33,0.0666666666666667,0.0666666666666667,0.95,5991.480325166,5992.278442375,13,5991.542309208,5991.603121541,5992.288544666,5993.231882333,1,0.798117209000338
141,13,1,categorization,0,kitchen,SHINEd_sun_aggjlwcdjsjcaemh.tif,86,0.0666666666666667,0.0666666666666667,0.833333333333333,5993.236808958,5994.015112166,13,5993.298666166,5993.359634291,5994.028176125,5994.854847083,0,0.77830320799967
141,14,1,categorization,0,kitchen,SHINEd_sun_aunzlwrbjumxhwdj.tif,103,0.0666666666666667,0.0666666666666667,0.75,5994.859696958,5996.670801583,9,5994.921434333,5994.982409166,5996.684488,5997.427826791,1,1.81110462499964
141,15,1,categorization,0,kitchen,SHINEd_sun_akcjzhbbjlbogpdi.tif,99,0.0666666666666667,0.0666666666666667,1.53333333333333,5997.433640041,5998.310771125,9,5997.495373166,5997.556353416,5998.325540166,5999.852240791,1,0.877131084000212
141,16,1,categorization,0,kitchen,SHINEd_labelme_rykdqxenmhulbdn.tif,63,0.0666666666666667,0.0666666666666667,1.05,5999.870028583,6001.446766625,13,5999.937018625,6000.003245708,6001.455962375,6002.499331375,0,1.57673804200022
141,17,1,categorization,0,bathroom,SHINEd_sun_apkxzenqapsujocq.tif,45,0.0666666666666667,0.0666666666666667,0.9,6002.508966333,6003.3377515,13,6002.573370083,6002.640712083,6003.363954458,6004.257330833,1,0.828785167000206
141,18,1,categorization,0,kitchen,SHINEd_sun_ahpczsiumwwocjkv.tif,92,0.0666666666666667,0.0666666666666667,1.18333333333333,6004.273963958,6005.631283791,9,6004.340785458,6004.407600291,6005.643,6006.819702458,1,1.35731983299956
141,19,1,categorization,0,bathroom,SHINEd_sun_acduarbnmmoglmiv.tif,16,0.0666666666666667,0.0666666666666667,0.9,6006.829046166,6008.069243041,9,6006.893923541,6006.959739,6008.099932166,6008.993270166,0,1.24019687500004
141,20,1,categorization,0,bathroom,SHINEd_sun_afcoljnjfoxjtgja.tif,20,0.0666666666666667,0.0666666666666667,1.66666666666667,6009.000315458,6010.854701166,9,6009.062283583,6009.123132833,6010.858526041,6012.518586375,0,1.85438570800034
141,21,1,categorization,0,kitchen,SHINEd_sun_aamedkxepzlwuxes.tif,65,0.0666666666666667,0.0666666666666667,1.13333333333333,6012.536675333,6015.062120333,13,6012.603540875,6012.669909208,6015.072378,6016.199087541,0,2.52544500000022
141,22,1,categorization,0,bathroom,SHINEd_sun_amzlamotzwfkwjco.tif,37,0.0666666666666667,0.0666666666666667,1.3,6016.207890208,6017.912170208,13,6016.27297,6016.342008041,6017.933749416,6019.227126,1,1.70427999999993
141,23,1,categorization,0,bathroom,SHINEd_sun_apkruvsevgegsdwp.tif,44,0.0666666666666667,0.0666666666666667,1.93333333333333,6019.243514583,6020.128859916,13,6019.311836416,6019.376960875,6020.150495333,6022.077208166,1,0.88534533299935
141,24,1,categorization,0,bathroom,SHINEd_sun_agrwbmhcpmfuwmsg.tif,24,0.0666666666666667,0.0666666666666667,1,6022.096190791,6023.390361,9,6022.163242833,6022.229265041,6023.3986325,6024.391971125,0,1.29417020900019
141,25,1,categorization,0,kitchen,SHINEd_sun_amjjdeyrggfqgmom.tif,100,0.0666666666666667,0.0666666666666667,0.883333333333333,6024.39681625,6025.255237375,9,6024.458557166,6024.519616208,6025.271569208,6026.148241125,1,0.858421125000859
141,26,1,categorization,0,kitchen,SHINEd_sun_agorklincwxrdtga.tif,87,0.0666666666666667,0.0666666666666667,1.95,6026.153161291,6026.950377333,9,6026.214712458,6026.27599075,6026.961170625,6028.904541958,1,0.797216041999491
141,27,1,categorization,0,kitchen,SHINEd_sun_adgqasybjyktddhj.tif,78,0.0666666666666667,0.0666666666666667,1.25,6028.914741833,6029.832433916,9,6028.981677583,6029.048035416,6029.854816291,6031.098190708,1,0.917692082999565
141,28,1,categorization,0,bathroom,SHINEd_sun_ajlawzvmubibwbpy.tif,30,0.0666666666666667,0.0666666666666667,1.95,6031.119471458,6032.517341958,9,6031.186374958,6031.252931541,6032.545196166,6034.488567833,0,1.39787049999995
141,29,1,categorization,0,bathroom,SHINEd_sun_aqrpegblszgcoujh.tif,48,0.0666666666666667,0.0666666666666667,1.91666666666667,6034.502199083,6035.144807791,13,6034.569531,6034.635799083,6035.176207208,6037.086243916,1,0.642608707999898
141,30,1,categorization,0,kitchen,SHINEd_sun_abftihopvusyfakt.tif,71,0.0666666666666667,0.0666666666666667,1.41666666666667,6037.105256041,6038.201255708,13,6037.172247333,6037.23931225,6038.230172208,6039.640222916,0,1.09599966699989
141,31,1,categorization,0,kitchen,SHINEd_sun_admlmbcdswaszruo.tif,79,0.0666666666666667,0.0666666666666667,0.716666666666667,6039.658353333,6040.737636833,13,6039.725559083,6039.793109708,6040.765630791,6041.475634958,0,1.07928349999929
141,32,1,categorization,0,kitchen,SHINEd_sun_aexklacwqwezaorf.tif,84,0.0666666666666667,0.0666666666666667,1.28333333333333,6041.4809185,6042.399114,9,6041.542729708,6041.604017,6042.4060745,6043.682786833,1,0.918195499999456
141,33,1,categorization,0,kitchen,SHINEd_sun_acgtpgfybqjmzeyw.tif,75,0.0666666666666667,0.0666666666666667,0.9,6043.702760083,6044.632399083,9,6043.770023916,6043.836182208,6044.659799166,6045.553136458,1,0.929638999999952
141,34,1,categorization,0,kitchen,SHINEd_sun_aegoxogugdkwpmpj.tif,80,0.0666666666666667,0.0666666666666667,0.8,6045.558324958,6046.470679916,9,6045.620171833,6045.681164333,6046.483056791,6047.276394125,1,0.912354957999923
141,35,1,categorization,0,bathroom,SHINEd_sun_ausgutylgojavyoq.tif,53,0.0666666666666667,0.0666666666666667,1.01666666666667,6047.283436541,6048.542871208,9,6047.345279125,6047.406181875,6048.558901666,6049.568953791,0,1.25943466700028
141,36,1,categorization,0,kitchen,SHINEd_sun_abdxkyyxwfskuaqb.tif,70,0.0666666666666667,0.0666666666666667,0.85,6049.579619166,6051.101085375,9,6049.644279708,6049.711038791,6051.11980175,6051.963139291,1,1.52146620900021
141,37,1,categorization,0,bathroom,SHINEd_sun_apmqjbnwghzuhhzh.tif,46,0.0666666666666667,0.0666666666666667,1.51666666666667,6051.968231041,6052.830367875,13,6052.030042083,6052.09107475,6052.842820666,6054.352867291,1,0.862136834000012
141,38,1,categorization,0,bathroom,SHINEd_sun_ahaulkltgpkeeemi.tif,26,0.0666666666666667,0.0666666666666667,1.83333333333333,6054.370153791,6055.301623375,13,6054.437046708,6054.504082708,6055.327699541,6057.154407916,1,0.931469584000297
141,39,1,categorization,0,bathroom,SHINEd_sun_aspsyogrekjtfozg.tif,50,0.0666666666666667,0.0666666666666667,0.716666666666667,6057.173249291,6058.486309125,13,6057.239803875,6057.306534291,6058.492682166,6059.202688041,1,1.31305983400034
141,40,1,categorization,0,kitchen,SHINEd_sun_aqeaevwwwjoqhzvl.tif,101,0.0666666666666667,0.0666666666666667,0.9,6059.207504375,6060.102458708,9,6059.26930575,6059.330795625,6060.1160075,6061.009345666,1,0.894954332999987
141,41,1,categorization,0,kitchen,SHINEd_sun_ahspylgoovwmwvgk.tif,93,0.0666666666666667,0.0666666666666667,0.916666666666667,6061.016922625,6062.879055083,9,6061.078716375,6061.139750333,6062.891879583,6063.801883166,1,1.86213245799991
141,42,1,categorization,0,bathroom,SHINEd_sun_avhrdrntsqrjzccq.tif,55,0.0666666666666667,0.0666666666666667,0.816666666666667,6063.806643583,6065.0067535,9,6063.868322916,6063.92942525,6065.014928083,6065.824932833,0,1.20010991700019
141,43,1,categorization,0,kitchen,SHINEd_labelme_kxvouciolcpqplr.tif,62,0.0666666666666667,0.0666666666666667,1.88333333333333,6065.830213416,6067.013902666,13,6065.891934541,6065.952986375,6067.021654166,6068.898376833,0,1.18368924999959
141,44,1,categorization,0,bathroom,SHINEd_sun_abapwbhyhkfixyex.tif,14,0.0666666666666667,0.0666666666666667,0.9,6068.90751825,6069.776139041,13,6068.975639541,6069.040481791,6069.797149166,6070.690488416,1,0.868620790999557
141,45,1,categorization,0,kitchen,SHINEd_sun_abpwyqmlzafvklqo.tif,72,0.0666666666666667,0.0666666666666667,1,6070.695603666,6072.35019925,9,6070.7573285,6070.818504708,6072.354214166,6073.3475525,1,1.65459558399925
141,46,1,categorization,0,kitchen,SHINEd_labelme_brsyyvweiuaazfr.tif,61,0.0666666666666667,0.0666666666666667,0.733333333333333,6073.352479125,6074.4784575,9,6073.414347833,6073.475246333,6074.493759,6075.22043,1,1.12597837500016
141,47,1,categorization,0,kitchen,SHINEd_sun_aaxxjlsuzvqlgylf.tif,68,0.0666666666666667,0.0666666666666667,0.883333333333333,6075.225342791,6075.982009375,9,6075.287164625,6075.348127708,6075.999967833,6076.87663775,1,0.756666584000413
141,48,1,categorization,0,kitchen,SHINEd_sun_akchetnepxlcxhsu.tif,98,0.0666666666666667,0.0666666666666667,1.73333333333333,6076.883201833,6077.733871791,13,6076.9450375,6077.006026083,6077.741157916,6079.467863625,0,0.850669957999344
141,49,1,categorization,0,bathroom,SHINEd_sun_agyqfjcfkdcydepw.tif,25,0.0666666666666667,0.0666666666666667,1.91666666666667,6079.486385916,6081.014846708,9,6079.553434958,6079.619622958,6081.022006166,6082.932044125,0,1.52846079200026
141,50,1,categorization,0,bathroom,SHINEd_sun_awnqiikzaispgmwo.tif,56,0.0666666666666667,0.0666666666666667,1.35,6082.941604625,6084.15872925,13,6083.0100945,6083.075136458,6084.177186375,6085.520560333,1,1.217124625
