sub_num,trial,block,task,is_practice,category,image,texture,duration,mask_dur,jitter,stim_time,time_of_resp,trial_response,mask_time,fix_time,jit_onset,trial_end,trial_accuracy,RT
141,1,0,categorization,1,kitchen,SHINEd_kitchen_practice3.tif,118,0.0666666666666667,0.0666666666666667,1.21666666666667,5879.905598541,5884.94819275,13,5879.971452291,5880.0316995,5884.968963,5886.179181916,0,5.04259420900053
141,2,0,categorization,1,bathroom,SHINEd_bathroom_practice5.tif,115,0.0666666666666667,0.0666666666666667,1.36666666666667,5886.230989291,5888.399706875,13,5886.303161125,5886.365859541,5888.418787041,5889.778977583,1,2.16871758400066
141,3,0,categorization,1,bathroom,SHINEd_bathroom_practice3.tif,113,0.0666666666666667,0.0666666666666667,1.85,5889.831416958,5891.155551541,13,5889.905955,5889.967090708,5891.195795333,5893.039336958,1,1.32413458300016
141,4,0,categorization,1,kitchen,SHINEd_kitchen_practice1.tif,116,0.0666666666666667,0.0666666666666667,1.55,5893.069810916,5893.956719041,9,5893.139716041,5893.204530125,5893.981867666,5895.525406875,1,0.886908124999536
141,5,0,categorization,1,kitchen,SHINEd_kitchen_practice4.tif,119,0.0666666666666667,0.0666666666666667,1.48333333333333,5895.55614425,5898.781580791,9,5895.6294065,5895.691031666,5898.798141958,5900.275746125,1,3.22543654099991
141,6,0,categorization,1,kitchen,SHINEd_kitchen_practice5.tif,120,0.0666666666666667,0.0666666666666667,1.15,5900.299169583,5902.950688125,9,5900.368584166,5900.434634583,5902.970568875,5904.114076291,1,2.6515185420003
141,7,0,categorization,1,kitchen,SHINEd_kitchen_practice2.tif,117,0.0666666666666667,0.0666666666666667,0.733333333333333,5904.1243265,5905.3706245,13,5904.191829916,5904.258817,5905.399691291,5906.126362833,0,1.24629800000002
141,8,0,categorization,1,bathroom,SHINEd_bathroom_practice1.tif,111,0.0666666666666667,0.0666666666666667,1.6,5906.13165925,5906.982559208,13,5906.193335208,5906.254548916,5906.989809041,5908.583197291,1,0.8508999579999
141,9,0,categorization,1,bathroom,SHINEd_bathroom_practice2.tif,112,0.0666666666666667,0.0666666666666667,0.716666666666667,5908.601854333,5910.198618958,13,5908.6688,5908.735362583,5910.204927125,5910.91493175,1,1.59676462500011
141,10,0,categorization,1,bathroom,SHINEd_bathroom_practice4.tif,114,0.0666666666666667,0.0666666666666667,1.21666666666667,5910.91994275,5912.022720833,13,5910.981856875,5911.042721875,5912.0285765,5913.238628125,1,1.10277808299998
141,1,1,categorization,0,kitchen,SHINEd_sun_afuyedyxivkhecmu.tif,85,0.0666666666666667,0.0666666666666667,1.23333333333333,5966.430831125,5968.998787166,9,5966.492626333,5966.553903708,5969.006562791,5970.233263416,1,2.56795604099989
141,2,1,categorization,0,kitchen,SHINEd_sun_agubuxuukhzyzpdp.tif,88,0.0666666666666667,0.0666666666666667,0.783333333333333,5970.252101,5971.651299041,9,5970.31869925,5970.384877125,5971.677671083,5972.454341625,1,1.39919804100009
141,3,1,categorization,0,bathroom,SHINEd_sun_aggnnqpdorgxpvce.tif,21,0.0666666666666667,0.0666666666666667,0.75,5972.459400375,5973.367211,13,5972.52133325,5972.5822425,5973.384354166,5974.127692875,1,0.907810624999911
141,4,1,categorization,0,kitchen,SHINEd_sun_agzzivivdpnawacl.tif,89,0.0666666666666667,0.0666666666666667,1.23333333333333,5974.133728125,5974.887257416,13,5974.195599916,5974.256378291,5974.891563125,5976.1182795,0,0.753529290999722
141,5,1,categorization,0,bathroom,SHINEd_sun_aavhrsfjbserjtht.tif,13,0.0666666666666667,0.0666666666666667,1.13333333333333,5976.136405208,5977.975378541,9,5976.203091041,5976.269504375,5977.989112958,5979.115834166,0,1.83897333300047
141,6,1,categorization,0,bathroom,SHINEd_sun_akiytfaagpdsphgz.tif,31,0.0666666666666667,0.0666666666666667,0.95,5979.125379,5980.383661625,9,5979.190721541,5979.258908791,5980.399454833,5981.342792083,0,1.25828262499999
141,7,1,categorization,0,bathroom,SHINEd_sun_acegryoqftbzowsg.tif,17,0.0666666666666667,0.0666666666666667,0.733333333333333,5981.347992208,5982.623381291,9,5981.409813416,5981.470803291,5982.639764958,5983.366437166,0,1.27538908300085
141,8,1,categorization,0,bathroom,SHINEd_sun_anhioqovhscjqqwb.tif,38,0.0666666666666667,0.0666666666666667,1.31666666666667,5983.371231458,5984.2065145,13,5983.432930791,5983.494018958,5984.213219375,5985.523265958,1,0.835283041999901
141,9,1,categorization,0,kitchen,SHINEd_sun_auaiucuqpdausiva.tif,102,0.0666666666666667,0.0666666666666667,0.8,5985.541906708,5986.953700458,9,5985.609083166,5985.675478208,5986.98401525,5987.777352791,1,1.41179374999956
141,10,1,categorization,0,kitchen,SHINEd_sun_aypmqwcualkenuoe.tif,109,0.0666666666666667,0.0666666666666667,0.716666666666667,5987.784065375,5988.662371125,9,5987.8457485,5987.907080083,5988.675598958,5989.385603375,1,0.878305750000436
141,11,1,categorization,0,kitchen,SHINEd_sun_ahywdevtimnqcsln.tif,94,0.0666666666666667,0.0666666666666667,0.916666666666667,5989.390569416,5990.550844625,13,5989.452420041,5989.513384875,5990.565431625,5991.475436,0,1.16027520899934
141,12,1,categorization,0,bathroom,SHINEd_sun_aljolscmmzydegqp.tif,33,0.0666666666666667,0.0666666666666667,0.95,5991.480325166,5992.278442375,13,5991.542309208,5991.603121541,5992.288544666,5993.231882333,1,0.798117209000338
141,13,1,categorization,0,kitchen,SHINEd_sun_aggjlwcdjsjcaemh.tif,86,0.0666666666666667,0.0666666666666667,0.833333333333333,5993.236808958,5994.015112166,13,5993.298666166,5993.359634291,5994.028176125,5994.854847083,0,0.77830320799967
141,14,1,categorization,0,kitchen,SHINEd_sun_aunzlwrbjumxhwdj.tif,103,0.0666666666666667,0.0666666666666667,0.75,5994.859696958,5996.670801583,9,5994.921434333,5994.982409166,5996.684488,5997.427826791,1,1.81110462499964
141,15,1,categorization,0,kitchen,SHINEd_sun_akcjzhbbjlbogpdi.tif,99,0.0666666666666667,0.0666666666666667,1.53333333333333,5997.433640041,5998.310771125,9,5997.495373166,5997.556353416,5998.325540166,5999.852240791,1,0.877131084000212
141,16,1,categorization,0,kitchen,SHINEd_labelme_rykdqxenmhulbdn.tif,63,0.0666666666666667,0.0666666666666667,1.05,5999.870028583,6001.446766625,13,5999.937018625,6000.003245708,6001.455962375,6002.499331375,0,1.57673804200022
141,17,1,categorization,0,bathroom,SHINEd_sun_apkxzenqapsujocq.tif,45,0.0666666666666667,0.0666666666666667,0.9,6002.508966333,6003.3377515,13,6002.573370083,6002.640712083,6003.363954458,6004.257330833,1,0.828785167000206
141,18,1,categorization,0,kitchen,SHINEd_sun_ahpczsiumwwocjkv.tif,92,0.0666666666666667,0.0666666666666667,1.18333333333333,6004.273963958,6005.631283791,9,6004.340785458,6004.407600291,6005.643,6006.819702458,1,1.35731983299956
141,19,1,categorization,0,bathroom,SHINEd_sun_acduarbnmmoglmiv.tif,16,0.0666666666666667,0.0666666666666667,0.9,6006.829046166,6008.069243041,9,6006.893923541,6006.959739,6008.099932166,6008.993270166,0,1.24019687500004
141,20,1,categorization,0,bathroom,SHINEd_sun_afcoljnjfoxjtgja.tif,20,0.0666666666666667,0.0666666666666667,1.66666666666667,6009.000315458,6010.854701166,9,6009.062283583,6009.123132833,6010.858526041,6012.518586375,0,1.85438570800034
141,21,1,categorization,0,kitchen,SHINEd_sun_aamedkxepzlwuxes.tif,65,0.0666666666666667,0.0666666666666667,1.13333333333333,6012.536675333,6015.062120333,13,6012.603540875,6012.669909208,6015.072378,6016.199087541,0,2.52544500000022
141,22,1,categorization,0,bathroom,SHINEd_sun_amzlamotzwfkwjco.tif,37,0.0666666666666667,0.0666666666666667,1.3,6016.207890208,6017.912170208,13,6016.27297,6016.342008041,6017.933749416,6019.227126,1,1.70427999999993
141,23,1,categorization,0,bathroom,SHINEd_sun_apkruvsevgegsdwp.tif,44,0.0666666666666667,0.0666666666666667,1.93333333333333,6019.243514583,6020.128859916,13,6019.311836416,6019.376960875,6020.150495333,6022.077208166,1,0.88534533299935
141,24,1,categorization,0,bathroom,SHINEd_sun_agrwbmhcpmfuwmsg.tif,24,0.0666666666666667,0.0666666666666667,1,6022.096190791,6023.390361,9,6022.163242833,6022.229265041,6023.3986325,6024.391971125,0,1.29417020900019
141,25,1,categorization,0,kitchen,SHINEd_sun_amjjdeyrggfqgmom.tif,100,0.0666666666666667,0.0666666666666667,0.883333333333333,6024.39681625,6025.255237375,9,6024.458557166,6024.519616208,6025.271569208,6026.148241125,1,0.858421125000859
141,26,1,categorization,0,kitchen,SHINEd_sun_agorklincwxrdtga.tif,87,0.0666666666666667,0.0666666666666667,1.95,6026.153161291,6026.950377333,9,6026.214712458,6026.27599075,6026.961170625,6028.904541958,1,0.797216041999491
141,27,1,categorization,0,kitchen,SHINEd_sun_adgqasybjyktddhj.tif,78,0.0666666666666667,0.0666666666666667,1.25,6028.914741833,6029.832433916,9,6028.981677583,6029.048035416,6029.854816291,6031.098190708,1,0.917692082999565
141,28,1,categorization,0,bathroom,SHINEd_sun_ajlawzvmubibwbpy.tif,30,0.0666666666666667,0.0666666666666667,1.95,6031.119471458,6032.517341958,9,6031.186374958,6031.252931541,6032.545196166,6034.488567833,0,1.39787049999995
141,29,1,categorization,0,bathroom,SHINEd_sun_aqrpegblszgcoujh.tif,48,0.0666666666666667,0.0666666666666667,1.91666666666667,6034.502199083,6035.144807791,13,6034.569531,6034.635799083,6035.176207208,6037.086243916,1,0.642608707999898
141,30,1,categorization,0,kitchen,SHINEd_sun_abftihopvusyfakt.tif,71,0.0666666666666667,0.0666666666666667,1.41666666666667,6037.105256041,6038.201255708,13,6037.172247333,6037.23931225,6038.230172208,6039.640222916,0,1.09599966699989
141,31,1,categorization,0,kitchen,SHINEd_sun_admlmbcdswaszruo.tif,79,0.0666666666666667,0.0666666666666667,0.716666666666667,6039.658353333,6040.737636833,13,6039.725559083,6039.793109708,6040.765630791,6041.475634958,0,1.07928349999929
141,32,1,categorization,0,kitchen,SHINEd_sun_aexklacwqwezaorf.tif,84,0.0666666666666667,0.0666666666666667,1.28333333333333,6041.4809185,6042.399114,9,6041.542729708,6041.604017,6042.4060745,6043.682786833,1,0.918195499999456
141,33,1,categorization,0,kitchen,SHINEd_sun_acgtpgfybqjmzeyw.tif,75,0.0666666666666667,0.0666666666666667,0.9,6043.702760083,6044.632399083,9,6043.770023916,6043.836182208,6044.659799166,6045.553136458,1,0.929638999999952
141,34,1,categorization,0,kitchen,SHINEd_sun_aegoxogugdkwpmpj.tif,80,0.0666666666666667,0.0666666666666667,0.8,6045.558324958,6046.470679916,9,6045.620171833,6045.681164333,6046.483056791,6047.276394125,1,0.912354957999923
141,35,1,categorization,0,bathroom,SHINEd_sun_ausgutylgojavyoq.tif,53,0.0666666666666667,0.0666666666666667,1.01666666666667,6047.283436541,6048.542871208,9,6047.345279125,6047.406181875,6048.558901666,6049.568953791,0,1.25943466700028
141,36,1,categorization,0,kitchen,SHINEd_sun_abdxkyyxwfskuaqb.tif,70,0.0666666666666667,0.0666666666666667,0.85,6049.579619166,6051.101085375,9,6049.644279708,6049.711038791,6051.11980175,6051.963139291,1,1.52146620900021
141,37,1,categorization,0,bathroom,SHINEd_sun_apmqjbnwghzuhhzh.tif,46,0.0666666666666667,0.0666666666666667,1.51666666666667,6051.968231041,6052.830367875,13,6052.030042083,6052.09107475,6052.842820666,6054.352867291,1,0.862136834000012
141,38,1,categorization,0,bathroom,SHINEd_sun_ahaulkltgpkeeemi.tif,26,0.0666666666666667,0.0666666666666667,1.83333333333333,6054.370153791,6055.301623375,13,6054.437046708,6054.504082708,6055.327699541,6057.154407916,1,0.931469584000297
141,39,1,categorization,0,bathroom,SHINEd_sun_aspsyogrekjtfozg.tif,50,0.0666666666666667,0.0666666666666667,0.716666666666667,6057.173249291,6058.486309125,13,6057.239803875,6057.306534291,6058.492682166,6059.202688041,1,1.31305983400034
141,40,1,categorization,0,kitchen,SHINEd_sun_aqeaevwwwjoqhzvl.tif,101,0.0666666666666667,0.0666666666666667,0.9,6059.207504375,6060.102458708,9,6059.26930575,6059.330795625,6060.1160075,6061.009345666,1,0.894954332999987
141,41,1,categorization,0,kitchen,SHINEd_sun_ahspylgoovwmwvgk.tif,93,0.0666666666666667,0.0666666666666667,0.916666666666667,6061.016922625,6062.879055083,9,6061.078716375,6061.139750333,6062.891879583,6063.801883166,1,1.86213245799991
141,42,1,categorization,0,bathroom,SHINEd_sun_avhrdrntsqrjzccq.tif,55,0.0666666666666667,0.0666666666666667,0.816666666666667,6063.806643583,6065.0067535,9,6063.868322916,6063.92942525,6065.014928083,6065.824932833,0,1.20010991700019
141,43,1,categorization,0,kitchen,SHINEd_labelme_kxvouciolcpqplr.tif,62,0.0666666666666667,0.0666666666666667,1.88333333333333,6065.830213416,6067.013902666,13,6065.891934541,6065.952986375,6067.021654166,6068.898376833,0,1.18368924999959
141,44,1,categorization,0,bathroom,SHINEd_sun_abapwbhyhkfixyex.tif,14,0.0666666666666667,0.0666666666666667,0.9,6068.90751825,6069.776139041,13,6068.975639541,6069.040481791,6069.797149166,6070.690488416,1,0.868620790999557
141,45,1,categorization,0,kitchen,SHINEd_sun_abpwyqmlzafvklqo.tif,72,0.0666666666666667,0.0666666666666667,1,6070.695603666,6072.35019925,9,6070.7573285,6070.818504708,6072.354214166,6073.3475525,1,1.65459558399925
141,46,1,categorization,0,kitchen,SHINEd_labelme_brsyyvweiuaazfr.tif,61,0.0666666666666667,0.0666666666666667,0.733333333333333,6073.352479125,6074.4784575,9,6073.414347833,6073.475246333,6074.493759,6075.22043,1,1.12597837500016
141,47,1,categorization,0,kitchen,SHINEd_sun_aaxxjlsuzvqlgylf.tif,68,0.0666666666666667,0.0666666666666667,0.883333333333333,6075.225342791,6075.982009375,9,6075.287164625,6075.348127708,6075.999967833,6076.87663775,1,0.756666584000413
141,48,1,categorization,0,kitchen,SHINEd_sun_akchetnepxlcxhsu.tif,98,0.0666666666666667,0.0666666666666667,1.73333333333333,6076.883201833,6077.733871791,13,6076.9450375,6077.006026083,6077.741157916,6079.467863625,0,0.850669957999344
141,49,1,categorization,0,bathroom,SHINEd_sun_agyqfjcfkdcydepw.tif,25,0.0666666666666667,0.0666666666666667,1.91666666666667,6079.486385916,6081.014846708,9,6079.553434958,6079.619622958,6081.022006166,6082.932044125,0,1.52846079200026
141,50,1,categorization,0,bathroom,SHINEd_sun_awnqiikzaispgmwo.tif,56,0.0666666666666667,0.0666666666666667,1.35,6082.941604625,6084.15872925,13,6083.0100945,6083.075136458,6084.177186375,6085.520560333,1,1.217124625
141,1,2,categorization,0,bathroom,SHINEd_sun_ahijqszoswveeyji.tif,28,0.0666666666666667,0.0666666666666667,0.95,6114.521331083,6115.726281625,9,6114.583769541,6114.644211041,6115.746421125,6116.689758583,0,1.20495054200001
141,2,2,categorization,0,kitchen,SHINEd_sun_aixorpehvfykdynp.tif,95,0.0666666666666667,0.0666666666666667,0.75,6116.695383375,6117.837845875,9,6116.757141541,6116.818044166,6117.853681208,6118.597019375,1,1.14246249999997
141,3,2,categorization,0,bathroom,SHINEd_sun_auzqhkafidnkrwmo.tif,54,0.0666666666666667,0.0666666666666667,1.68333333333333,6118.601867625,6119.678527708,13,6118.66367975,6118.724651791,6119.693394791,6121.3700965,1,1.07666008300021
141,4,2,categorization,0,bathroom,SHINEd_sun_apynckhmoftszqoq.tif,47,0.0666666666666667,0.0666666666666667,0.816666666666667,6121.388241375,6122.135783458,13,6121.455353666,6121.521838208,6122.162160666,6122.972165125,1,0.747542083000553
141,5,2,categorization,0,bathroom,SHINEd_sun_azqyogdvyhahyram.tif,60,0.0666666666666667,0.0666666666666667,0.916666666666667,6122.977298625,6123.806247916,13,6123.038965333,6123.100132666,6123.818639041,6124.728644,1,0.828949290999844
141,6,2,categorization,0,bathroom,SHINEd_sun_aapitsgbtktqubfy.tif,12,0.0666666666666667,0.0666666666666667,1.21666666666667,6124.733477875,6125.406459,9,6124.795126083,6124.856206125,6125.424820541,6126.634867208,0,0.672981124999751
141,7,2,categorization,0,bathroom,SHINEd_sun_asfwthctfqerjvxr.tif,49,0.0666666666666667,0.0666666666666667,0.9,6126.651547583,6127.505182291,13,6126.717923208,6126.779973208,6127.51890125,6128.412285791,1,0.853634707999845
141,8,2,categorization,0,kitchen,SHINEd_sun_aeqdocilnnpuvuhx.tif,83,0.0666666666666667,0.0666666666666667,1.65,6128.42880625,6130.589850125,9,6128.491303666,6128.551793375,6130.604282208,6132.247673041,1,2.16104387500036
141,9,2,categorization,0,kitchen,SHINEd_sun_ahdycvpopffkzzsu.tif,90,0.0666666666666667,0.0666666666666667,1.15,6132.26941175,6134.117947666,9,6132.336855375,6132.40327875,6134.122697833,6135.266075125,1,1.8485359160004
141,10,2,categorization,0,bathroom,SHINEd_sun_ambriybtogmepttm.tif,36,0.0666666666666667,0.0666666666666667,1.13333333333333,6135.275727375,6136.748588375,13,6135.342990333,6135.410252875,6136.766687166,6137.893408,1,1.47286099999928
141,11,2,categorization,0,bathroom,SHINEd_sun_axyrejkiiaqiurjk.tif,59,0.0666666666666667,0.0666666666666667,1.76666666666667,6137.902684416,6139.267177375,13,6137.967979416,6138.036365958,6139.29503775,6141.055083333,1,1.36449295900002
141,12,2,categorization,0,kitchen,SHINEd_sun_axyyrmzcupyhlivc.tif,107,0.0666666666666667,0.0666666666666667,1.8,6141.07322925,6141.859475416,9,6141.141914333,6141.207517708,6141.880998333,6143.674382583,1,0.786246166000637
141,13,2,categorization,0,bathroom,SHINEd_sun_agguqiubmwhqqunb.tif,22,0.0666666666666667,0.0666666666666667,0.9,6143.693186708,6146.126705375,9,6143.759332333,6143.826777666,6146.14595475,6147.039291958,0,2.43351866699959
141,14,2,categorization,0,kitchen,SHINEd_sun_abrcnpqqhmjwekyf.tif,73,0.0666666666666667,0.0666666666666667,0.716666666666667,6147.044526083,6148.214370791,13,6147.106416208,6147.167417791,6148.220170458,6148.930175208,0,1.1698447079998
141,15,2,categorization,0,kitchen,SHINEd_sun_ajkqhtgcbgpcwrwn.tif,97,0.0666666666666667,0.0666666666666667,1.36666666666667,6148.935018833,6150.245615416,9,6148.99685,6149.057822166,6150.260295125,6151.620351291,1,1.31059658300001
141,16,2,categorization,0,bathroom,SHINEd_sun_axxbkopsgyouuebh.tif,58,0.0666666666666667,0.0666666666666667,0.916666666666667,6151.639633583,6152.738662875,13,6151.7065635,6151.773019583,6152.762796541,6153.672801208,1,1.09902929199961
141,17,2,categorization,0,bathroom,SHINEd_sun_ahcvzmoyaycdoftf.tif,27,0.0666666666666667,0.0666666666666667,0.716666666666667,6153.677739083,6154.646026208,9,6153.739654583,6153.800440125,6154.652246875,6155.362250666,0,0.968287124999733
141,18,2,categorization,0,kitchen,SHINEd_sun_awcpdzzznmweyyhv.tif,106,0.0666666666666667,0.0666666666666667,0.766666666666667,6155.367258875,6156.182132458,9,6155.428906791,6155.490452125,6156.192327875,6156.95233275,1,0.814873583000008
141,19,2,categorization,0,bathroom,SHINEd_sun_anryaplzeujmzfkd.tif,39,0.0666666666666667,0.0666666666666667,1.06666666666667,6156.957188791,6158.150232666,13,6157.018829083,6157.080431166,6158.166292041,6159.226342583,1,1.19304387500051
141,20,2,categorization,0,kitchen,SHINEd_sun_acfmftudsenhrfhy.tif,74,0.0666666666666667,0.0666666666666667,0.8,6159.236874333,6160.977881833,13,6159.301393541,6159.367828583,6160.990606416,6161.783945291,0,1.7410074999998
141,21,2,categorization,0,kitchen,SHINEd_sun_avszsnwsbuqfgzbn.tif,105,0.0666666666666667,0.0666666666666667,0.866666666666667,6161.789066541,6163.045779125,13,6161.85093875,6161.9118455,6163.063894958,6163.923900333,0,1.25671258400052
141,22,2,categorization,0,bathroom,SHINEd_sun_ahqjwnzgolcaoidx.tif,29,0.0666666666666667,0.0666666666666667,1.48333333333333,6163.929279041,6164.797968791,9,6163.991093666,6164.052042791,6164.803695208,6166.28040525,0,0.868689750000158
141,23,2,categorization,0,bathroom,SHINEd_sun_aoybiabnpadelefl.tif,41,0.0666666666666667,0.0666666666666667,1.1,6166.298852041,6167.463526208,13,6166.366061083,6166.432137958,6167.489076833,6168.582459166,1,1.16467416700016
141,24,2,categorization,0,kitchen,SHINEd_sun_aadbddgrdsjugojn.tif,64,0.0666666666666667,0.0666666666666667,0.783333333333333,6168.594258791,6169.977186916,13,6168.659178958,6168.727092166,6170.001232916,6170.777903041,0,1.38292812500003
141,25,2,categorization,0,kitchen,SHINEd_sun_ajcbwwvdlsvjyzje.tif,96,0.0666666666666667,0.0666666666666667,0.866666666666667,6170.782878,6171.76599725,13,6170.844605333,6170.905708166,6171.774943625,6172.634946708,0,0.983119249999618
141,26,2,categorization,0,bathroom,SHINEd_sun_acgyywnybuveqsro.tif,18,0.0666666666666667,0.0666666666666667,1.83333333333333,6172.63987375,6173.725957541,9,6172.701588958,6172.762707083,6173.731825666,6175.5585525,0,1.08608379099951
141,27,2,categorization,0,bathroom,SHINEd_sun_axldvoqbuvuggfmq.tif,57,0.0666666666666667,0.0666666666666667,0.7,6175.577912583,6176.753424041,13,6175.64606775,6175.711089,6176.783377916,6177.476715833,1,1.17551145799916
141,28,2,categorization,0,bathroom,SHINEd_sun_abjtwfukuwddzted.tif,15,0.0666666666666667,0.0666666666666667,1.33333333333333,6177.482756625,6178.549766708,13,6177.544513166,6177.605610666,6178.558136083,6179.884858791,1,1.06701008300024
141,29,2,categorization,0,bathroom,SHINEd_sun_alkosphxlxwjwgjd.tif,34,0.0666666666666667,0.0666666666666667,1.33333333333333,6179.903077458,6180.984791708,13,6179.969918833,6180.036620875,6181.010696333,6182.337405791,1,1.08171425
141,30,2,categorization,0,bathroom,SHINEd_sun_alotolagknyrgtsk.tif,35,0.0666666666666667,0.0666666666666667,1.38333333333333,6182.356642583,6183.141405583,9,6182.423986791,6182.489676041,6183.163331708,6184.54004925,0,0.784762999999657
141,31,2,categorization,0,bathroom,SHINEd_sun_aghyqhbptboemmoq.tif,23,0.0666666666666667,0.0666666666666667,1.25,6184.558965916,6185.598872083,9,6184.6259125,6184.693683958,6185.617116375,6186.860485,0,1.03990616700048
141,32,2,categorization,0,kitchen,SHINEd_sun_aymvwlarqodbwuoc.tif,108,0.0666666666666667,0.0666666666666667,1.55,6186.870423708,6187.602977,13,6186.935690583,6187.00388775,6187.627596791,6189.170986458,0,0.732553291999466
141,33,2,categorization,0,kitchen,SHINEd_sun_aehawpgmrlhlvcow.tif,81,0.0666666666666667,0.0666666666666667,1.61666666666667,6189.188858083,6191.942519416,13,6189.255944083,6189.322323791,6191.958347916,6193.56838425,0,2.75366133300031
141,34,2,categorization,0,kitchen,SHINEd_sun_aarfiyshqohlwkmo.tif,67,0.0666666666666667,0.0666666666666667,1.33333333333333,6193.581225041,6194.785039041,9,6193.648103541,6193.71637425,6194.804798833,6196.131518666,1,1.20381400000042
141,35,2,categorization,0,kitchen,SHINEd_sun_aenotlpyftoioydp.tif,82,0.0666666666666667,0.0666666666666667,0.833333333333333,6196.148675416,6196.72694675,9,6196.217743541,6196.282260083,6196.755776708,6197.582490416,1,0.578271334000419
141,36,2,categorization,0,bathroom,SHINEd_sun_apjevzvycyhuqghb.tif,43,0.0666666666666667,0.0666666666666667,1.45,6197.600809583,6198.382122583,9,6197.667455,6197.734789291,6198.387528375,6199.830917791,0,0.7813129999995
141,37,2,categorization,0,kitchen,SHINEd_sun_ahljzhgcdpomplvg.tif,91,0.0666666666666667,0.0666666666666667,0.933333333333333,6199.8480495,6201.054933041,13,6199.915614708,6199.982978166,6201.071669083,6201.998339166,0,1.20688354100002
141,38,2,categorization,0,bathroom,SHINEd_sun_aclfzgynxzxlbepz.tif,19,0.0666666666666667,0.0666666666666667,1.65,6202.003458083,6202.813355083,13,6202.065192208,6202.126327875,6202.82827825,6204.471672208,1,0.809897000000092
141,39,2,categorization,0,kitchen,SHINEd_sun_acxkpeoqbwcxfvip.tif,77,0.0666666666666667,0.0666666666666667,1.23333333333333,6204.488947,6205.456219291,9,6204.557612166,6204.622413375,6205.47953975,6206.706253625,1,0.967272290999972
141,40,2,categorization,0,bathroom,SHINEd_sun_aleqenyvunhactkl.tif,32,0.0666666666666667,0.0666666666666667,0.766666666666667,6206.724558041,6207.602697833,13,6206.789791958,6206.85642175,6207.6300395,6208.390076791,1,0.878139792000184
141,41,2,categorization,0,kitchen,SHINEd_sun_auticobqsbwgoppi.tif,104,0.0666666666666667,0.0666666666666667,1.78333333333333,6208.406625291,6209.669528,9,6208.473615708,6208.538659041,6209.674113083,6211.45082,1,1.26290270900063
141,42,2,categorization,0,kitchen,SHINEd_sun_abdenxonkemggwsq.tif,69,0.0666666666666667,0.0666666666666667,1.11666666666667,6211.468775666,6212.325325208,9,6211.536429875,6211.602123791,6212.340355291,6213.450405458,1,0.856549542000721
141,43,2,categorization,0,bathroom,SHINEd_labelme_sfxiulhjbhlyiyt.tif,11,0.0666666666666667,0.0666666666666667,1.85,6213.4601125,6214.213538708,13,6213.525904666,6213.595249833,6214.234111458,6216.077510875,1,0.753426207999837
141,44,2,categorization,0,kitchen,SHINEd_sun_azmutvzbxypaceni.tif,110,0.0666666666666667,0.0666666666666667,0.733333333333333,6216.095397333,6217.098960416,13,6216.162812708,6216.228326583,6217.117494791,6217.844166875,0,1.0035630830007
141,45,2,categorization,0,bathroom,SHINEd_sun_aunuadmjocsddsrl.tif,52,0.0666666666666667,0.0666666666666667,0.783333333333333,6217.849488291,6218.981959291,13,6217.911311708,6217.972330458,6218.990935041,6219.767606125,1,1.1324709999999
141,46,2,categorization,0,bathroom,SHINEd_sun_apeeialkgkuxddgh.tif,42,0.0666666666666667,0.0666666666666667,1.5,6219.772565625,6220.709746625,13,6219.834187541,6219.895450291,6220.714476125,6222.207848958,1,0.937180999999327
141,47,2,categorization,0,bathroom,SHINEd_sun_aofnryafpsjimzsb.tif,40,0.0666666666666667,0.0666666666666667,0.733333333333333,6222.225198458,6223.40803775,13,6222.292378,6222.359079875,6223.432832666,6224.159504,1,1.18283929200061
141,48,2,categorization,0,bathroom,SHINEd_sun_atstyziqcmkahyxk.tif,51,0.0666666666666667,0.0666666666666667,1.1,6224.165689916,6224.861889041,9,6224.227807666,6224.288496958,6224.873439916,6225.966820666,0,0.696199125000021
141,49,2,categorization,0,kitchen,SHINEd_sun_aapllqyqlykszopd.tif,66,0.0666666666666667,0.0666666666666667,1.6,6225.976174,6226.562110083,9,6226.0418685,6226.11098625,6226.584301666,6228.177670541,1,0.585936082999979
141,50,2,categorization,0,kitchen,SHINEd_sun_acwjdupvyjsugpay.tif,76,0.0666666666666667,0.0666666666666667,1.06666666666667,6228.1953425,6228.864185625,9,6228.262037458,6228.328528291,6228.884030166,6229.944084708,1,0.668843124999512
141,1,3,categorization,0,bathroom,SHINEd_sun_afcoljnjfoxjtgja.tif,20,0.0666666666666667,0.0666666666666667,0.85,6235.955871291,6236.605390208,9,6236.018327708,6236.078701375,6236.614008708,6237.457347291,0,0.649518917000023
141,2,3,categorization,0,kitchen,SHINEd_sun_axyyrmzcupyhlivc.tif,107,0.0666666666666667,0.0666666666666667,1.65,6237.462177958,6238.150338208,9,6237.523950125,6237.58495425,6238.170724291,6239.81409975,1,0.688160249999783
141,3,3,categorization,0,bathroom,SHINEd_sun_asfwthctfqerjvxr.tif,49,0.0666666666666667,0.0666666666666667,0.783333333333333,6239.831722166,6240.617236083,13,6239.897732416,6239.9654335,6240.638619125,6241.415291458,1,0.785513916999662
141,4,3,categorization,0,kitchen,SHINEd_sun_ahdycvpopffkzzsu.tif,90,0.0666666666666667,0.0666666666666667,0.933333333333333,6241.421342416,6242.18979275,13,6241.483033625,6241.544088875,6242.195957625,6243.1226285,0,0.76845033400059
141,5,3,categorization,0,kitchen,SHINEd_sun_ahljzhgcdpomplvg.tif,91,0.0666666666666667,0.0666666666666667,0.866666666666667,6243.127599791,6244.469574708,13,6243.189264958,6243.25043325,6244.486162875,6245.346166666,0,1.3419749170007
141,6,3,categorization,0,kitchen,SHINEd_sun_acxkpeoqbwcxfvip.tif,77,0.0666666666666667,0.0666666666666667,1.11666666666667,6245.3511495,6245.990127666,9,6245.413219083,6245.473917125,6246.009147333,6247.119181416,1,0.638978166000015
141,7,3,categorization,0,kitchen,SHINEd_sun_auticobqsbwgoppi.tif,104,0.0666666666666667,0.0666666666666667,0.966666666666667,6247.129110541,6247.741107208,9,6247.194162958,6247.262928416,6247.769775,6248.729814291,1,0.611996667000312
141,8,3,categorization,0,kitchen,SHINEd_sun_akchetnepxlcxhsu.tif,98,0.0666666666666667,0.0666666666666667,1.78333333333333,6248.746747583,6249.685989625,9,6248.811713458,6248.877914458,6249.696839708,6251.47354875,1,0.939242041999933
141,9,3,categorization,0,bathroom,SHINEd_sun_alkosphxlxwjwgjd.tif,34,0.0666666666666667,0.0666666666666667,1.55,6251.490896583,6252.415790083,13,6251.558139416,6251.624184416,6252.430190291,6253.973567208,1,0.924893499999598
141,10,3,categorization,0,bathroom,SHINEd_sun_acegryoqftbzowsg.tif,17,0.0666666666666667,0.0666666666666667,1.41666666666667,6253.9922945,6255.073186916,9,6254.059642458,6254.1261,6255.099778708,6256.509812375,0,1.0808924160001
141,11,3,categorization,0,bathroom,SHINEd_sun_apeeialkgkuxddgh.tif,42,0.0666666666666667,0.0666666666666667,0.8,6256.528509083,6257.192137208,13,6256.595995583,6256.661750833,6257.218936208,6258.012322375,1,0.663628124999377
141,12,3,categorization,0,bathroom,SHINEd_sun_alotolagknyrgtsk.tif,35,0.0666666666666667,0.0666666666666667,1.28333333333333,6258.028860291,6259.285249125,13,6258.095971875,6258.159757375,6259.295595791,6260.572299708,1,1.25638883400006
141,13,3,categorization,0,kitchen,SHINEd_sun_akcjzhbbjlbogpdi.tif,99,0.0666666666666667,0.0666666666666667,1.66666666666667,6260.589573875,6261.384779375,9,6260.6564555,6260.722561916,6261.412569583,6263.072617875,1,0.79520550000052
141,14,3,categorization,0,bathroom,SHINEd_sun_apynckhmoftszqoq.tif,47,0.0666666666666667,0.0666666666666667,1.81666666666667,6263.090146625,6264.426554166,13,6263.15746125,6263.22325675,6264.447579083,6266.2576265,1,1.33640754099997
141,15,3,categorization,0,kitchen,SHINEd_sun_aypmqwcualkenuoe.tif,109,0.0666666666666667,0.0666666666666667,1.35,6266.268453208,6267.129700041,9,6266.335961625,6266.402073875,6267.159560458,6268.502944291,1,0.861246833000223
141,16,3,categorization,0,kitchen,SHINEd_sun_aegoxogugdkwpmpj.tif,80,0.0666666666666667,0.0666666666666667,0.916666666666667,6268.521515958,6269.272224833,9,6268.588632041,6268.655574125,6269.296305458,6270.206325166,1,0.750708874999873
141,17,3,categorization,0,bathroom,SHINEd_sun_aljolscmmzydegqp.tif,33,0.0666666666666667,0.0666666666666667,0.916666666666667,6270.219026791,6271.045494625,13,6270.282317916,6270.342154208,6271.060720833,6271.970726666,1,0.826467834000141
141,18,3,categorization,0,kitchen,SHINEd_sun_afuyedyxivkhecmu.tif,85,0.0666666666666667,0.0666666666666667,1.31666666666667,6271.976648416,6273.005719833,9,6272.038302416,6272.0994,6273.018313041,6274.328363916,1,1.02907141699961
141,19,3,categorization,0,kitchen,SHINEd_sun_aeqdocilnnpuvuhx.tif,83,0.0666666666666667,0.0666666666666667,1.45,6274.3469885,6275.1022085,9,6274.413649333,6274.480323458,6275.120125708,6276.563503,1,0.755220000000008
141,20,3,categorization,0,kitchen,SHINEd_sun_aapllqyqlykszopd.tif,66,0.0666666666666667,0.0666666666666667,0.95,6276.581424166,6277.802212541,9,6276.648583125,6276.714641875,6277.821313083,6278.764650458,1,1.22078837499976
141,21,3,categorization,0,kitchen,SHINEd_sun_abdxkyyxwfskuaqb.tif,70,0.0666666666666667,0.0666666666666667,1.38333333333333,6278.7696185,6279.917621333,9,6278.831268375,6278.892385625,6279.927439125,6281.304147916,1,1.14800283299974
141,22,3,categorization,0,kitchen,SHINEd_sun_ahywdevtimnqcsln.tif,94,0.0666666666666667,0.0666666666666667,1.16666666666667,6281.32032225,6282.139277833,9,6281.387357041,6281.4536745,6282.160673708,6283.320709375,1,0.818955583000388
141,23,3,categorization,0,kitchen,SHINEd_sun_avszsnwsbuqfgzbn.tif,105,0.0666666666666667,0.0666666666666667,1.61666666666667,6283.332580166,6284.042116375,9,6283.399466833,6283.466103041,6284.0555905,6285.665621041,1,0.709536208999452
141,24,3,categorization,0,kitchen,SHINEd_sun_auaiucuqpdausiva.tif,102,0.0666666666666667,0.0666666666666667,1.38333333333333,6285.686000208,6286.4744685,9,6285.753059208,6285.819682958,6286.49330925,6287.870030208,1,0.788468291999379
141,25,3,categorization,0,bathroom,SHINEd_sun_auzqhkafidnkrwmo.tif,54,0.0666666666666667,0.0666666666666667,1.78333333333333,6287.8889515,6288.545054375,13,6287.956222583,6288.023265833,6288.56346325,6290.340183333,1,0.656102875000215
141,26,3,categorization,0,kitchen,SHINEd_sun_aarfiyshqohlwkmo.tif,67,0.0666666666666667,0.0666666666666667,0.783333333333333,6290.358844291,6291.24149425,9,6290.427811125,6290.491996208,6291.26572775,6292.042398416,1,0.882649958999536
141,27,3,categorization,0,kitchen,SHINEd_sun_ajcbwwvdlsvjyzje.tif,96,0.0666666666666667,0.0666666666666667,1.65,6292.048474458,6292.82982475,13,6292.110323833,6292.171266583,6292.839622375,6294.483014333,0,0.781350291999843
141,28,3,categorization,0,kitchen,SHINEd_labelme_rykdqxenmhulbdn.tif,63,0.0666666666666667,0.0666666666666667,1.86666666666667,6294.501789708,6295.831977083,13,6294.568918166,6294.635114916,6295.861315958,6297.721367166,0,1.33018737500061
141,29,3,categorization,0,kitchen,SHINEd_sun_aqeaevwwwjoqhzvl.tif,101,0.0666666666666667,0.0666666666666667,1.23333333333333,6297.739741166,6298.515789375,9,6297.808654166,6297.873074208,6298.546620166,6299.773345916,1,0.776048208999782
141,30,3,categorization,0,kitchen,SHINEd_sun_aexklacwqwezaorf.tif,84,0.0666666666666667,0.0666666666666667,0.7,6299.79181,6300.642792666,9,6299.86063475,6299.925202,6300.665885,6301.359277166,1,0.850982666000164
141,31,3,categorization,0,bathroom,SHINEd_sun_abapwbhyhkfixyex.tif,14,0.0666666666666667,0.0666666666666667,0.716666666666667,6301.371076333,6302.03764575,9,6301.438718958,6301.504562458,6302.0570585,6302.767063416,0,0.666569416999664
141,32,3,categorization,0,kitchen,SHINEd_labelme_kxvouciolcpqplr.tif,62,0.0666666666666667,0.0666666666666667,1.05,6302.7717625,6303.44582725,9,6302.833473958,6302.894694916,6303.463151916,6304.506524291,1,0.67406475000007
141,33,3,categorization,0,bathroom,SHINEd_sun_aavhrsfjbserjtht.tif,13,0.0666666666666667,0.0666666666666667,1.1,6304.516630875,6305.903981791,9,6304.581583166,6304.648170541,6305.923445416,6307.016820291,0,1.38735091599938
141,34,3,categorization,0,kitchen,SHINEd_sun_acfmftudsenhrfhy.tif,74,0.0666666666666667,0.0666666666666667,1.13333333333333,6307.027299375,6307.8412955,13,6307.092288958,6307.160260083,6307.86723825,6308.993964541,0,0.813996124999903
141,35,3,categorization,0,bathroom,SHINEd_sun_apmqjbnwghzuhhzh.tif,46,0.0666666666666667,0.0666666666666667,1.38333333333333,6309.006560541,6309.741972416,13,6309.06925725,6309.129607041,6309.748065333,6311.124780458,1,0.735411874999954
141,36,3,categorization,0,bathroom,SHINEd_sun_azqyogdvyhahyram.tif,60,0.0666666666666667,0.0666666666666667,1.5,6311.143404375,6311.880511208,13,6311.210712375,6311.277449125,6311.901415,6313.394789458,1,0.737106833000325
141,37,3,categorization,0,bathroom,SHINEd_sun_aspsyogrekjtfozg.tif,50,0.0666666666666667,0.0666666666666667,1.61666666666667,6313.4142065,6314.190042333,9,6313.481835875,6313.54777425,6314.221750583,6315.831789166,0,0.775835833000201
141,38,3,categorization,0,bathroom,SHINEd_sun_axyrejkiiaqiurjk.tif,59,0.0666666666666667,0.0666666666666667,0.983333333333333,6315.851525583,6316.959860125,13,6315.919223333,6315.985151,6316.975439833,6317.952111791,1,1.10833454200019
141,39,3,categorization,0,kitchen,SHINEd_sun_abdenxonkemggwsq.tif,69,0.0666666666666667,0.0666666666666667,1.3,6317.957432083,6318.597867958,9,6318.01917125,6318.080257583,6318.615497916,6319.9088875,1,0.640435875000549
141,40,3,categorization,0,bathroom,SHINEd_sun_amzlamotzwfkwjco.tif,37,0.0666666666666667,0.0666666666666667,1.03333333333333,6319.925292208,6320.745231958,13,6319.992202,6320.058995875,6320.764786291,6321.79149825,1,0.819939749999321
141,41,3,categorization,0,kitchen,SHINEd_sun_adgqasybjyktddhj.tif,78,0.0666666666666667,0.0666666666666667,1.45,6321.804378875,6322.777587208,9,6321.870027625,6321.936539916,6322.791176166,6324.234555666,1,0.973208333000002
141,42,3,categorization,0,kitchen,SHINEd_sun_agzzivivdpnawacl.tif,89,0.0666666666666667,0.0666666666666667,1.23333333333333,6324.253594416,6325.495064541,9,6324.320879541,6324.387158708,6325.510641083,6326.737351375,1,1.24147012499998
141,43,3,categorization,0,bathroom,SHINEd_sun_agyqfjcfkdcydepw.tif,25,0.0666666666666667,0.0666666666666667,1.26666666666667,6326.755674583,6327.851836166,13,6326.822086541,6326.888949875,6327.879399916,6329.139453166,1,1.09616158300014
141,44,3,categorization,0,kitchen,SHINEd_sun_admlmbcdswaszruo.tif,79,0.0666666666666667,0.0666666666666667,1.03333333333333,6329.157572875,6329.926569708,9,6329.225195333,6329.2914545,6329.9482995,6330.975023166,1,0.768996832999619
141,45,3,categorization,0,kitchen,SHINEd_sun_aenotlpyftoioydp.tif,82,0.0666666666666667,0.0666666666666667,1.31666666666667,6330.9860345,6331.689339,9,6331.051691583,6331.119864916,6331.710702958,6333.020745833,1,0.703304499999831
141,46,3,categorization,0,bathroom,SHINEd_sun_atstyziqcmkahyxk.tif,51,0.0666666666666667,0.0666666666666667,1.7,6333.036030541,6333.965361666,13,6333.098978,6333.158856458,6333.977920875,6335.67129375,1,0.929331124999408
141,47,3,categorization,0,kitchen,SHINEd_sun_aggjlwcdjsjcaemh.tif,86,0.0666666666666667,0.0666666666666667,1.35,6335.689429666,6336.448317375,9,6335.757181041,6335.823741,6336.463444666,6337.8068385,1,0.758887709000192
141,48,3,categorization,0,kitchen,SHINEd_sun_aunzlwrbjumxhwdj.tif,103,0.0666666666666667,0.0666666666666667,0.8,6337.825206541,6338.74559025,13,6337.894184083,6337.958987458,6338.766092416,6339.559477208,0,0.920383708999907
141,49,3,categorization,0,bathroom,SHINEd_sun_aggnnqpdorgxpvce.tif,21,0.0666666666666667,0.0666666666666667,0.766666666666667,6339.577470583,6340.253060041,9,6339.640412916,6339.70034025,6340.269144208,6341.029150875,0,0.675589458000104
141,50,3,categorization,0,bathroom,SHINEd_sun_acgyywnybuveqsro.tif,18,0.0666666666666667,0.0666666666666667,1.38333333333333,6341.034025083,6341.749103291,13,6341.095716625,6341.156813833,6341.759019166,6343.135734041,1,0.715078207999795
141,1,4,categorization,0,kitchen,SHINEd_labelme_brsyyvweiuaazfr.tif,61,0.0666666666666667,0.0666666666666667,1,6352.483427833,6353.509400541,13,6352.545521625,6352.606397958,6353.52505125,6354.518388541,0,1.02597270800015
141,2,4,categorization,0,kitchen,SHINEd_sun_aehawpgmrlhlvcow.tif,81,0.0666666666666667,0.0666666666666667,0.966666666666667,6354.523275666,6355.069925,9,6354.584957375,6354.646073458,6355.081265875,6356.041270875,1,0.546649333999994
141,3,4,categorization,0,bathroom,SHINEd_sun_anryaplzeujmzfkd.tif,39,0.0666666666666667,0.0666666666666667,1.75,6356.0462175,6356.940871833,13,6356.108017458,6356.168989375,6356.954283541,6358.697668916,1,0.89465433299938
141,4,4,categorization,0,kitchen,SHINEd_sun_ahspylgoovwmwvgk.tif,93,0.0666666666666667,0.0666666666666667,1.68333333333333,6358.718439375,6359.696371625,9,6358.783533125,6358.850046375,6359.721761541,6361.39847275,1,0.977932249999867
141,5,4,categorization,0,bathroom,SHINEd_sun_ahqjwnzgolcaoidx.tif,29,0.0666666666666667,0.0666666666666667,1.58333333333333,6361.418779791,6362.2247625,13,6361.485920208,6361.552173375,6362.241600458,6363.81831025,1,0.805982709000091
141,6,4,categorization,0,kitchen,SHINEd_sun_ahpczsiumwwocjkv.tif,92,0.0666666666666667,0.0666666666666667,1,6363.835633416,6364.532941666,9,6363.902778416,6363.969281791,6364.560028375,6365.553364791,1,0.697308249999878
141,7,4,categorization,0,bathroom,SHINEd_sun_ajlawzvmubibwbpy.tif,30,0.0666666666666667,0.0666666666666667,1.33333333333333,6365.558552083,6366.317572833,13,6365.6204065,6365.68144525,6366.33337675,6367.660092083,1,0.759020749999763
141,8,4,categorization,0,kitchen,SHINEd_sun_abrcnpqqhmjwekyf.tif,73,0.0666666666666667,0.0666666666666667,1.26666666666667,6367.679259083,6368.221295375,9,6367.746105958,6367.81246025,6368.252366625,6369.512415041,1,0.542036292000375
141,9,4,categorization,0,bathroom,SHINEd_sun_aoybiabnpadelefl.tif,41,0.0666666666666667,0.0666666666666667,0.883333333333333,6369.531216625,6370.109940291,9,6369.598349625,6369.664788416,6370.138682083,6371.015400083,0,0.578723666000769
141,10,4,categorization,0,bathroom,SHINEd_sun_awnqiikzaispgmwo.tif,56,0.0666666666666667,0.0666666666666667,1.26666666666667,6371.033071541,6371.7335635,13,6371.100246708,6371.167086208,6371.752891583,6373.012933291,1,0.700491958999919
141,11,4,categorization,0,bathroom,SHINEd_sun_avhrdrntsqrjzccq.tif,55,0.0666666666666667,0.0666666666666667,2,6373.026664958,6373.934333416,13,6373.093922791,6373.161784833,6373.951223375,6375.944601541,1,0.907668458000444
141,12,4,categorization,0,bathroom,SHINEd_sun_ahijqszoswveeyji.tif,28,0.0666666666666667,0.0666666666666667,0.733333333333333,6375.961879,6376.754487166,13,6376.029087375,6376.09499975,6376.766277875,6377.492948958,1,0.792608165999809
141,13,4,categorization,0,bathroom,SHINEd_sun_acduarbnmmoglmiv.tif,16,0.0666666666666667,0.0666666666666667,0.883333333333333,6377.498018208,6378.069878375,9,6377.559840166,6377.620860333,6378.089479875,6378.966151666,0,0.571860167000523
141,14,4,categorization,0,bathroom,SHINEd_sun_aunuadmjocsddsrl.tif,52,0.0666666666666667,0.0666666666666667,0.983333333333333,6378.971162,6379.949685791,13,6379.032811166,6379.093983041,6379.962585916,6380.939257291,1,0.978523791000043
141,15,4,categorization,0,bathroom,SHINEd_sun_ahaulkltgpkeeemi.tif,26,0.0666666666666667,0.0666666666666667,1.56666666666667,6380.94416225,6381.468810625,9,6381.005861458,6381.066913375,6381.485226833,6383.045263125,0,0.524648374999742
141,16,4,categorization,0,kitchen,SHINEd_sun_ajkqhtgcbgpcwrwn.tif,97,0.0666666666666667,0.0666666666666667,1.08333333333333,6383.064161625,6384.090377583,9,6383.130629333,6383.197488041,6384.12040375,6385.19711325,1,1.02621595799974
141,17,4,categorization,0,bathroom,SHINEd_sun_apkxzenqapsujocq.tif,45,0.0666666666666667,0.0666666666666667,0.75,6385.209178791,6385.900850791,13,6385.274121666,6385.340534333,6385.930385875,6386.673772041,1,0.691671999999926
141,18,4,categorization,0,bathroom,SHINEd_sun_axxbkopsgyouuebh.tif,58,0.0666666666666667,0.0666666666666667,0.966666666666667,6386.691362458,6387.309192333,13,6386.758489958,6386.824334208,6387.32642475,6388.286430458,1,0.617829875000098
141,19,4,categorization,0,kitchen,SHINEd_sun_amjjdeyrggfqgmom.tif,100,0.0666666666666667,0.0666666666666667,1.63333333333333,6388.2912515,6388.949165125,9,6388.352917083,6388.414058708,6388.965823791,6390.592536833,1,0.657913625000219
141,20,4,categorization,0,bathroom,SHINEd_sun_axldvoqbuvuggfmq.tif,57,0.0666666666666667,0.0666666666666667,1.46666666666667,6390.610806,6391.450851416,13,6390.677518708,6390.744055458,6391.464786666,6392.924842416,1,0.840045416000066
141,21,4,categorization,0,kitchen,SHINEd_sun_agorklincwxrdtga.tif,87,0.0666666666666667,0.0666666666666667,0.933333333333333,6392.935455291,6393.621107125,9,6393.00259175,6393.069200666,6393.642442916,6394.569115833,1,0.685651834000055
141,22,4,categorization,0,bathroom,SHINEd_sun_anhioqovhscjqqwb.tif,38,0.0666666666666667,0.0666666666666667,1.45,6394.575004583,6395.244600208,13,6394.6367975,6394.697849625,6395.249878666,6396.693271791,1,0.669595624999602
141,23,4,categorization,0,kitchen,SHINEd_sun_abftihopvusyfakt.tif,71,0.0666666666666667,0.0666666666666667,0.966666666666667,6396.7103185,6397.454156583,9,6396.775058208,6396.838071,6397.476381875,6398.43638525,1,0.74383808300081
141,24,4,categorization,0,kitchen,SHINEd_sun_acwjdupvyjsugpay.tif,76,0.0666666666666667,0.0666666666666667,0.816666666666667,6398.441642125,6399.173077458,9,6398.503386541,6398.564423625,6399.183133375,6399.993138291,1,0.731435333000263
141,25,4,categorization,0,bathroom,SHINEd_sun_agrwbmhcpmfuwmsg.tif,24,0.0666666666666667,0.0666666666666667,1.96666666666667,6399.997783916,6400.685638041,9,6400.059607208,6400.120547958,6400.689137125,6402.649170583,0,0.687854124999831
141,26,4,categorization,0,kitchen,SHINEd_sun_aadbddgrdsjugojn.tif,64,0.0666666666666667,0.0666666666666667,0.916666666666667,6402.667822666,6403.333141416,13,6402.73469775,6402.798635083,6403.355882875,6404.265887458,0,0.665318750000552
141,27,4,categorization,0,bathroom,SHINEd_sun_akiytfaagpdsphgz.tif,31,0.0666666666666667,0.0666666666666667,1.28333333333333,6404.270990958,6406.253561708,13,6404.332773,6404.393775208,6406.262957083,6407.539661375,1,1.98257075000038
141,28,4,categorization,0,bathroom,SHINEd_sun_aclfzgynxzxlbepz.tif,19,0.0666666666666667,0.0666666666666667,1.8,6407.558012458,6408.368340041,13,6407.6251785,6407.691491541,6408.398521625,6410.191890541,1,0.810327582999889
141,29,4,categorization,0,kitchen,SHINEd_sun_aixorpehvfykdynp.tif,95,0.0666666666666667,0.0666666666666667,1.33333333333333,6410.210174125,6410.885103208,9,6410.277626291,6410.343251333,6410.89797175,6412.224694041,1,0.674929083000279
141,30,4,categorization,0,kitchen,SHINEd_sun_azmutvzbxypaceni.tif,110,0.0666666666666667,0.0666666666666667,1.06666666666667,6412.243173083,6413.229602833,9,6412.310274291,6412.377055208,6413.250675083,6414.310711458,1,0.986429749999843
141,31,4,categorization,0,bathroom,SHINEd_sun_aapitsgbtktqubfy.tif,12,0.0666666666666667,0.0666666666666667,1.03333333333333,6414.321634583,6415.38553525,13,6414.386496833,6414.45225125,6415.409429083,6416.436129041,1,1.06390066700078
141,32,4,categorization,0,bathroom,SHINEd_sun_apjevzvycyhuqghb.tif,43,0.0666666666666667,0.0666666666666667,0.733333333333333,6416.449549708,6417.376466666,13,6416.513892833,6416.581828791,6417.40581175,6418.132536916,1,0.92691695800022
141,33,4,categorization,0,bathroom,SHINEd_labelme_sfxiulhjbhlyiyt.tif,11,0.0666666666666667,0.0666666666666667,0.766666666666667,6418.149519916,6419.037006458,13,6418.216667,6418.282901333,6419.051773166,6419.811778333,1,0.887486542000261
141,34,4,categorization,0,bathroom,SHINEd_sun_aqrpegblszgcoujh.tif,48,0.0666666666666667,0.0666666666666667,1.1,6419.81677725,6420.917679541,13,6419.878569208,6419.939562916,6420.924677625,6422.01804925,1,1.10090229100024
141,35,4,categorization,0,bathroom,SHINEd_sun_aghyqhbptboemmoq.tif,23,0.0666666666666667,0.0666666666666667,1.81666666666667,6422.027522875,6422.668262958,9,6422.093154291,6422.160624625,6422.681573458,6424.491631333,0,0.64074008300031
141,36,4,categorization,0,kitchen,SHINEd_sun_aymvwlarqodbwuoc.tif,108,0.0666666666666667,0.0666666666666667,0.883333333333333,6424.507976125,6425.179031583,9,6424.57488775,6424.641593083,6425.198552041,6426.075269541,1,0.67105545800041
141,37,4,categorization,0,bathroom,SHINEd_sun_ausgutylgojavyoq.tif,53,0.0666666666666667,0.0666666666666667,1.7,6426.091169958,6426.876879666,13,6426.153971333,6426.214166291,6426.882602875,6428.575974333,1,0.785709707999558
141,38,4,categorization,0,kitchen,SHINEd_sun_agubuxuukhzyzpdp.tif,88,0.0666666666666667,0.0666666666666667,1.58333333333333,6428.593158916,6429.723867708,13,6428.661396125,6428.726587291,6429.74959525,6431.326315875,0,1.13070879200041
141,39,4,categorization,0,bathroom,SHINEd_sun_ahcvzmoyaycdoftf.tif,27,0.0666666666666667,0.0666666666666667,0.833333333333333,6431.3450635,6432.145898541,13,6431.413592416,6431.478752125,6432.169214291,6432.995886333,1,0.800835041000028
141,40,4,categorization,0,bathroom,SHINEd_sun_aleqenyvunhactkl.tif,32,0.0666666666666667,0.0666666666666667,0.95,6433.001058458,6433.94961075,9,6433.062783125,6433.124171583,6433.959748583,6434.9030865,0,0.948552291999476
141,41,4,categorization,0,bathroom,SHINEd_sun_aofnryafpsjimzsb.tif,40,0.0666666666666667,0.0666666666666667,1.06666666666667,6434.908050083,6437.341072291,13,6434.969740666,6435.030891125,6437.349979208,6438.410026916,1,2.43302220800069
141,42,4,categorization,0,bathroom,SHINEd_sun_abjtwfukuwddzted.tif,15,0.0666666666666667,0.0666666666666667,1.68333333333333,6438.42110075,6439.101792083,13,6438.485573375,6438.551944583,6439.125504583,6440.802201833,1,0.680691333000141
141,43,4,categorization,0,kitchen,SHINEd_sun_aaxxjlsuzvqlgylf.tif,68,0.0666666666666667,0.0666666666666667,1.31666666666667,6440.811682083,6441.477445833,9,6440.87700575,6440.941821416,6441.498102916,6442.808156666,1,0.665763750000224
141,44,4,categorization,0,kitchen,SHINEd_sun_abpwyqmlzafvklqo.tif,72,0.0666666666666667,0.0666666666666667,1.61666666666667,6442.818414458,6443.415166083,9,6442.88330175,6442.94948825,6443.439773333,6445.049819125,1,0.596751625000252
141,45,4,categorization,0,kitchen,SHINEd_sun_awcpdzzznmweyyhv.tif,106,0.0666666666666667,0.0666666666666667,1.15,6445.07015775,6445.976255458,9,6445.137013625,6445.203538625,6445.992915541,6447.136303166,1,0.906097707999834
141,46,4,categorization,0,bathroom,SHINEd_sun_ambriybtogmepttm.tif,36,0.0666666666666667,0.0666666666666667,1.25,6447.145732416,6448.014746916,13,6447.210890041,6447.279334625,6448.036108333,6449.279498791,1,0.869014500000048
141,47,4,categorization,0,kitchen,SHINEd_sun_acgtpgfybqjmzeyw.tif,75,0.0666666666666667,0.0666666666666667,1.1,6449.301045125,6450.313789333,9,6449.368439666,6449.434544958,6450.341695,6451.435071791,1,1.01274420800019
141,48,4,categorization,0,kitchen,SHINEd_sun_aamedkxepzlwuxes.tif,65,0.0666666666666667,0.0666666666666667,0.9,6451.445874666,6452.039727958,9,6451.510993291,6451.579872833,6452.070428916,6452.963805,1,0.593853291999949
141,49,4,categorization,0,bathroom,SHINEd_sun_agguqiubmwhqqunb.tif,22,0.0666666666666667,0.0666666666666667,1.3,6452.982849375,6453.884850833,9,6453.049753375,6453.117612833,6453.903488458,6455.196860416,0,0.902001458000086
141,50,4,categorization,0,bathroom,SHINEd_sun_apkruvsevgegsdwp.tif,44,0.0666666666666667,0.0666666666666667,1.25,6455.21839275,6455.940195375,13,6455.286182375,6455.353308166,6455.959975375,6457.20335925,1,0.721802625000237
141,1,5,categorization,0,bathroom,SHINEd_sun_aggnnqpdorgxpvce.tif,21,0.0666666666666667,0.0666666666666667,1.7,6463.322812916,6465.109332958,13,6463.384639208,6463.445732791,6465.114736458,6466.808128,1,1.78652004200012
141,2,5,categorization,0,kitchen,SHINEd_sun_amjjdeyrggfqgmom.tif,100,0.0666666666666667,0.0666666666666667,1.81666666666667,6466.818150625,6467.475004958,9,6466.883368583,6466.948010791,6467.504212875,6469.314269458,1,0.656854332999501
141,3,5,categorization,0,bathroom,SHINEd_sun_anhioqovhscjqqwb.tif,38,0.0666666666666667,0.0666666666666667,1.23333333333333,6469.333802166,6470.212408708,13,6469.400635375,6469.467479875,6470.239409458,6471.46612975,1,0.878606541999943
141,4,5,categorization,0,kitchen,SHINEd_sun_agzzivivdpnawacl.tif,89,0.0666666666666667,0.0666666666666667,1.4,6471.485613666,6472.535174958,9,6471.552678208,6471.619257125,6472.559298875,6473.952686375,1,1.04956129200036
141,5,5,categorization,0,kitchen,SHINEd_sun_aeqdocilnnpuvuhx.tif,83,0.0666666666666667,0.0666666666666667,1.03333333333333,6473.971723416,6474.72862625,9,6474.039118541,6474.105528791,6474.745008041,6475.771717125,1,0.756902834000357
141,6,5,categorization,0,bathroom,SHINEd_sun_axldvoqbuvuggfmq.tif,57,0.0666666666666667,0.0666666666666667,1.38333333333333,6475.783996875,6476.597565833,13,6475.848771458,6475.916021625,6476.622791458,6477.999508333,1,0.813568957999451
141,7,5,categorization,0,bathroom,SHINEd_sun_agyqfjcfkdcydepw.tif,25,0.0666666666666667,0.0666666666666667,2,6478.018343666,6478.797717083,9,6478.085849708,6478.151720375,6478.823718083,6480.817100166,0,0.779373416999988
141,8,5,categorization,0,kitchen,SHINEd_sun_agorklincwxrdtga.tif,87,0.0666666666666667,0.0666666666666667,1.85,6480.828432583,6481.430414625,9,6480.893519833,6480.961039708,6481.4505915,6483.293961833,1,0.60198204199969
141,9,5,categorization,0,kitchen,SHINEd_sun_aaxxjlsuzvqlgylf.tif,68,0.0666666666666667,0.0666666666666667,0.816666666666667,6483.313125375,6483.8647425,9,6483.381639375,6483.446991666,6483.887620958,6484.697624708,1,0.551617125000121
141,10,5,categorization,0,kitchen,SHINEd_sun_abrcnpqqhmjwekyf.tif,73,0.0666666666666667,0.0666666666666667,1.85,6484.702921875,6485.373355083,9,6484.764576916,6484.82568975,6485.377580708,6487.220950291,1,0.670433207999849
141,11,5,categorization,0,bathroom,SHINEd_sun_agguqiubmwhqqunb.tif,22,0.0666666666666667,0.0666666666666667,0.733333333333333,6487.238931916,6488.074262083,13,6487.307830291,6487.373033333,6488.096516291,6488.82318775,1,0.835330166999483
141,12,5,categorization,0,kitchen,SHINEd_sun_akcjzhbbjlbogpdi.tif,99,0.0666666666666667,0.0666666666666667,0.716666666666667,6488.828185,6489.956612083,13,6488.889882958,6488.951079083,6489.969436916,6490.679441708,0,1.12842708300013
141,13,5,categorization,0,bathroom,SHINEd_sun_ahijqszoswveeyji.tif,28,0.0666666666666667,0.0666666666666667,0.833333333333333,6490.684164375,6491.868455291,13,6490.745929375,6490.807142125,6491.87620375,6492.702875375,1,1.18429091599955
141,14,5,categorization,0,bathroom,SHINEd_sun_abapwbhyhkfixyex.tif,14,0.0666666666666667,0.0666666666666667,0.95,6492.707662583,6493.396355791,9,6492.769462416,6492.830433416,6493.415687333,6494.359025958,0,0.688693208000586
141,15,5,categorization,0,bathroom,SHINEd_sun_avhrdrntsqrjzccq.tif,55,0.0666666666666667,0.0666666666666667,1.96666666666667,6494.3644955,6494.997005458,9,6494.426129291,6494.487289958,6495.005686666,6496.965730916,0,0.632509957999901
141,16,5,categorization,0,kitchen,SHINEd_sun_aggjlwcdjsjcaemh.tif,86,0.0666666666666667,0.0666666666666667,1.86666666666667,6496.984366166,6497.66151525,9,6497.0513345,6497.11780225,6497.691386958,6499.551433,1,0.677149084000121
141,17,5,categorization,0,kitchen,SHINEd_sun_aqeaevwwwjoqhzvl.tif,101,0.0666666666666667,0.0666666666666667,1.51666666666667,6499.569268333,6500.11727325,9,6499.636350541,6499.70298225,6500.143103416,6501.65314175,1,0.548004917000071
141,18,5,categorization,0,kitchen,SHINEd_sun_ajkqhtgcbgpcwrwn.tif,97,0.0666666666666667,0.0666666666666667,1.3,6501.672395125,6502.30667575,9,6501.739607666,6501.805895583,6502.329315583,6503.622694833,1,0.634280625000429
141,19,5,categorization,0,kitchen,SHINEd_sun_auticobqsbwgoppi.tif,104,0.0666666666666667,0.0666666666666667,1.91666666666667,6503.635331958,6504.397814666,9,6503.703398583,6503.769421291,6504.426757083,6506.336813166,1,0.762482707999879
141,20,5,categorization,0,kitchen,SHINEd_sun_auaiucuqpdausiva.tif,102,0.0666666666666667,0.0666666666666667,1.23333333333333,6506.3543435,6507.0415245,9,6506.422948666,6506.488100958,6507.062104958,6508.288821875,1,0.687181000000237
141,21,5,categorization,0,kitchen,SHINEd_sun_aenotlpyftoioydp.tif,82,0.0666666666666667,0.0666666666666667,0.866666666666667,6508.308135708,6509.296129583,9,6508.375844666,6508.441585791,6509.315003541,6510.175015791,1,0.987993875000029
141,22,5,categorization,0,kitchen,SHINEd_sun_acwjdupvyjsugpay.tif,76,0.0666666666666667,0.0666666666666667,0.8,6510.181662625,6510.885193083,9,6510.243455208,6510.304643083,6510.88972375,6511.683060791,1,0.703530457999477
141,23,5,categorization,0,kitchen,SHINEd_sun_adgqasybjyktddhj.tif,78,0.0666666666666667,0.0666666666666667,1.51666666666667,6511.687990916,6512.300948375,9,6511.749638666,6511.810779791,6512.312841958,6513.822885625,1,0.612957459000427
141,24,5,categorization,0,bathroom,SHINEd_sun_aljolscmmzydegqp.tif,33,0.0666666666666667,0.0666666666666667,1.18333333333333,6513.841495666,6514.462345583,13,6513.908765083,6513.975432666,6514.481817875,6515.658541541,1,0.620849916999759
141,25,5,categorization,0,kitchen,SHINEd_sun_ahpczsiumwwocjkv.tif,92,0.0666666666666667,0.0666666666666667,1.6,6515.66897275,6516.305287125,9,6515.7365025,6515.802933666,6516.32638,6517.91977025,1,0.636314375000438
141,26,5,categorization,0,kitchen,SHINEd_labelme_rykdqxenmhulbdn.tif,63,0.0666666666666667,0.0666666666666667,1.56666666666667,6517.939292333,6519.066938166,9,6518.006901791,6518.073258708,6519.097020125,6520.65707275,1,1.12764583300032
141,27,5,categorization,0,kitchen,SHINEd_sun_agubuxuukhzyzpdp.tif,88,0.0666666666666667,0.0666666666666667,1.36666666666667,6520.674464083,6521.43265075,9,6520.741234583,6520.804246583,6521.461037333,6522.8210685,1,0.758186666999791
141,28,5,categorization,0,bathroom,SHINEd_sun_aoybiabnpadelefl.tif,41,0.0666666666666667,0.0666666666666667,1.53333333333333,6522.833648083,6523.694671833,13,6522.899182,6522.96706325,6523.724672375,6525.251403083,1,0.861023749999731
141,29,5,categorization,0,bathroom,SHINEd_sun_asfwthctfqerjvxr.tif,49,0.0666666666666667,0.0666666666666667,1.4,6525.268528541,6526.037065708,13,6525.335728041,6525.4020415,6526.059181125,6527.452551583,1,0.768537167000432
141,30,5,categorization,0,bathroom,SHINEd_sun_acgyywnybuveqsro.tif,18,0.0666666666666667,0.0666666666666667,1.06666666666667,6527.470236125,6528.219875833,13,6527.537366083,6527.603823083,6528.24445,6529.304488875,1,0.749639707999449
141,31,5,categorization,0,bathroom,SHINEd_sun_ahqjwnzgolcaoidx.tif,29,0.0666666666666667,0.0666666666666667,1.63333333333333,6529.314832208,6529.903448958,13,6529.379845625,6529.445015875,6529.916798541,6531.543522708,1,0.588616750000256
141,32,5,categorization,0,kitchen,SHINEd_sun_ahdycvpopffkzzsu.tif,90,0.0666666666666667,0.0666666666666667,1.8,6531.560982875,6532.297099458,9,6531.629701125,6531.694969958,6532.318592041,6534.111962875,1,0.736116582999784
141,33,5,categorization,0,bathroom,SHINEd_sun_agrwbmhcpmfuwmsg.tif,24,0.0666666666666667,0.0666666666666667,1.53333333333333,6534.130848708,6535.117856125,13,6534.199517,6534.264675958,6535.138193375,6536.664911833,1,0.987007417000314
141,34,5,categorization,0,bathroom,SHINEd_sun_aofnryafpsjimzsb.tif,40,0.0666666666666667,0.0666666666666667,0.766666666666667,6536.685727375,6537.327661875,13,6536.753226083,6536.816746583,6537.337665625,6538.097700958,1,0.641934499999479
141,35,5,categorization,0,bathroom,SHINEd_sun_afcoljnjfoxjtgja.tif,20,0.0666666666666667,0.0666666666666667,1.86666666666667,6538.115940166,6538.92401375,13,6538.183576916,6538.241284375,6538.943141083,6540.803167708,1,0.80807358400034
141,36,5,categorization,0,kitchen,SHINEd_sun_aegoxogugdkwpmpj.tif,80,0.0666666666666667,0.0666666666666667,1.13333333333333,6540.812193708,6541.666947375,13,6540.877024291,6540.942703375,6541.681527291,6542.808246208,0,0.854753666999386
141,37,5,categorization,0,kitchen,SHINEd_sun_abdenxonkemggwsq.tif,69,0.0666666666666667,0.0666666666666667,1.73333333333333,6542.817854125,6543.42622125,9,6542.883296,6542.94997475,6543.456541583,6545.183255791,1,0.608367124999859
141,38,5,categorization,0,bathroom,SHINEd_sun_apkxzenqapsujocq.tif,45,0.0666666666666667,0.0666666666666667,0.766666666666667,6545.200345291,6546.0693025,13,6545.267438,6545.333735041,6546.090140083,6546.850196791,1,0.868957208999745
141,39,5,categorization,0,bathroom,SHINEd_sun_abjtwfukuwddzted.tif,15,0.0666666666666667,0.0666666666666667,1.85,6546.8593865,6547.596680208,13,6546.922199208,6546.98232425,6547.601006625,6549.444375125,1,0.737293707999925
141,40,5,categorization,0,kitchen,SHINEd_sun_ahljzhgcdpomplvg.tif,91,0.0666666666666667,0.0666666666666667,0.966666666666667,6549.4612685,6550.21740175,9,6549.529051291,6549.594670291,6550.234083708,6551.194089291,1,0.756133249999948
141,41,5,categorization,0,kitchen,SHINEd_labelme_kxvouciolcpqplr.tif,62,0.0666666666666667,0.0666666666666667,1.06666666666667,6551.199241083,6551.829086208,9,6551.2609395,6551.32216325,6551.841111458,6552.90115275,1,0.629845125000429
141,42,5,categorization,0,kitchen,SHINEd_sun_abpwyqmlzafvklqo.tif,72,0.0666666666666667,0.0666666666666667,1.38333333333333,6552.911182791,6553.555918375,9,6552.976112291,6553.043311333,6553.583327833,6554.960034791,1,0.644735584000045
141,43,5,categorization,0,bathroom,SHINEd_sun_aclfzgynxzxlbepz.tif,19,0.0666666666666667,0.0666666666666667,0.766666666666667,6554.967968708,6555.940309083,13,6555.030030333,6555.090737333,6555.959864833,6556.719868041,1,0.972340375000385
141,44,5,categorization,0,kitchen,SHINEd_sun_awcpdzzznmweyyhv.tif,106,0.0666666666666667,0.0666666666666667,0.866666666666667,6556.72473075,6557.332028666,13,6556.786378833,6556.847559333,6557.3494285,6558.2094325,0,0.607297915999879
141,45,5,categorization,0,bathroom,SHINEd_sun_axxbkopsgyouuebh.tif,58,0.0666666666666667,0.0666666666666667,1.25,6558.214256458,6558.907938041,13,6558.276013541,6558.337055458,6558.922137041,6560.165506791,1,0.693681583000398
141,46,5,categorization,0,bathroom,SHINEd_sun_apmqjbnwghzuhhzh.tif,46,0.0666666666666667,0.0666666666666667,1.03333333333333,6560.184727291,6561.12270875,9,6560.251331291,6560.317823125,6561.140942875,6562.167647541,0,0.937981459000184
141,47,5,categorization,0,bathroom,SHINEd_sun_apeeialkgkuxddgh.tif,42,0.0666666666666667,0.0666666666666667,0.783333333333333,6562.178464291,6563.02202825,13,6562.242687541,6562.311367083,6563.05213075,6563.828848833,1,0.843563959000676
141,48,5,categorization,0,bathroom,SHINEd_sun_alkosphxlxwjwgjd.tif,34,0.0666666666666667,0.0666666666666667,0.7,6563.845552958,6564.524490041,13,6563.912150208,6563.978612541,6564.530512166,6565.223849583,1,0.678937083000164
141,49,5,categorization,0,bathroom,SHINEd_sun_atstyziqcmkahyxk.tif,51,0.0666666666666667,0.0666666666666667,1.75,6565.230920583,6565.996871041,13,6565.292715166,6565.353762833,6566.005892041,6567.749263083,1,0.765950458000589
141,50,5,categorization,0,kitchen,SHINEd_sun_ajcbwwvdlsvjyzje.tif,96,0.0666666666666667,0.0666666666666667,1.36666666666667,6567.767560916,6568.991485041,13,6567.834511833,6567.900582916,6569.006609583,6570.366656416,0,1.22392412499994
141,1,6,categorization,0,bathroom,SHINEd_sun_akiytfaagpdsphgz.tif,31,0.0666666666666667,0.0666666666666667,0.966666666666667,6596.283793166,6597.580357166,13,6596.346337333,6596.406655333,6597.592462875,6598.5524675,1,1.29656400000022
141,2,6,categorization,0,kitchen,SHINEd_sun_akchetnepxlcxhsu.tif,98,0.0666666666666667,0.0666666666666667,1.73333333333333,6598.557335083,6600.076591,13,6598.619162333,6598.68009425,6600.082254208,6601.808958958,0,1.51925591700001
141,3,6,categorization,0,kitchen,SHINEd_sun_acgtpgfybqjmzeyw.tif,75,0.0666666666666667,0.0666666666666667,1.91666666666667,6601.828158666,6602.469919208,9,6601.894599458,6601.961729416,6602.48426375,6604.394298958,1,0.641760542000156
141,4,6,categorization,0,bathroom,SHINEd_labelme_sfxiulhjbhlyiyt.tif,11,0.0666666666666667,0.0666666666666667,0.766666666666667,6604.41815325,6605.186290166,13,6604.484861458,6604.551644208,6605.208861041,6605.968864916,1,0.768136916000003
141,5,6,categorization,0,bathroom,SHINEd_sun_apjevzvycyhuqghb.tif,43,0.0666666666666667,0.0666666666666667,0.916666666666667,6605.9740555,6606.700162791,9,6606.035859916,6606.0969085,6606.71588425,6607.625889833,0,0.726107291000517
141,6,6,categorization,0,bathroom,SHINEd_sun_apynckhmoftszqoq.tif,47,0.0666666666666667,0.0666666666666667,1.18333333333333,6607.63103,6608.436780958,13,6607.692758791,6607.75375075,6608.455724958,6609.632442583,1,0.805750958000317
141,7,6,categorization,0,kitchen,SHINEd_sun_ahywdevtimnqcsln.tif,94,0.0666666666666667,0.0666666666666667,1.8,6609.643074083,6610.351013666,9,6609.711996708,6609.776365916,6610.363866458,6612.15724225,1,0.707939582999643
141,8,6,categorization,0,kitchen,SHINEd_sun_acxkpeoqbwcxfvip.tif,77,0.0666666666666667,0.0666666666666667,0.883333333333333,6612.174501458,6613.255013333,9,6612.241410625,6612.307909,6613.282111416,6614.158783416,1,1.0805118749995
141,9,6,categorization,0,bathroom,SHINEd_sun_axyrejkiiaqiurjk.tif,59,0.0666666666666667,0.0666666666666667,1.83333333333333,6614.163947333,6615.099818083,9,6614.225798666,6614.286777208,6615.105408041,6616.93211875,0,0.935870750000504
141,10,6,categorization,0,kitchen,SHINEd_labelme_brsyyvweiuaazfr.tif,61,0.0666666666666667,0.0666666666666667,1.76666666666667,6616.942181166,6617.763438708,13,6617.009356125,6617.07565225,6617.781804625,6619.541848708,0,0.82125754199933
141,11,6,categorization,0,kitchen,SHINEd_sun_aamedkxepzlwuxes.tif,65,0.0666666666666667,0.0666666666666667,0.983333333333333,6619.560812041,6620.181150625,9,6619.627526583,6619.694185666,6620.200976375,6621.177647291,1,0.62033858399991
141,12,6,categorization,0,kitchen,SHINEd_sun_acfmftudsenhrfhy.tif,74,0.0666666666666667,0.0666666666666667,0.883333333333333,6621.182618791,6621.987942583,9,6621.244289541,6621.305398166,6622.007322666,6622.883993833,1,0.805323792000308
141,13,6,categorization,0,kitchen,SHINEd_sun_aehawpgmrlhlvcow.tif,81,0.0666666666666667,0.0666666666666667,0.85,6622.888980208,6623.484214,9,6622.95072275,6623.011790458,6623.497017833,6624.340356833,1,0.595233791999817
141,14,6,categorization,0,kitchen,SHINEd_sun_aymvwlarqodbwuoc.tif,108,0.0666666666666667,0.0666666666666667,0.733333333333333,6624.34734025,6625.196258208,9,6624.409084458,6624.470164708,6625.205449708,6625.932120875,1,0.84891795799922
141,15,6,categorization,0,bathroom,SHINEd_sun_acduarbnmmoglmiv.tif,16,0.0666666666666667,0.0666666666666667,1.88333333333333,6625.937040166,6626.627792541,13,6625.99866175,6626.059727958,6626.645143458,6628.521855916,1,0.690752375000557
141,16,6,categorization,0,kitchen,SHINEd_sun_axyyrmzcupyhlivc.tif,107,0.0666666666666667,0.0666666666666667,0.816666666666667,6628.5382295,6629.50588325,13,6628.605600458,6628.671796291,6629.528711625,6630.338715208,0,0.967653749999954
141,17,6,categorization,0,bathroom,SHINEd_sun_aqrpegblszgcoujh.tif,48,0.0666666666666667,0.0666666666666667,1.9,6630.343880041,6631.291980583,13,6630.405667333,6630.46668575,6631.302424666,6633.195790791,1,0.948100541999338
141,18,6,categorization,0,kitchen,SHINEd_sun_aunzlwrbjumxhwdj.tif,103,0.0666666666666667,0.0666666666666667,0.983333333333333,6633.216830375,6634.143393333,9,6633.283255291,6633.35034425,6634.173721666,6635.150393458,1,0.926562957999522
141,19,6,categorization,0,bathroom,SHINEd_sun_ausgutylgojavyoq.tif,53,0.0666666666666667,0.0666666666666667,0.75,6635.155389583,6635.884583,13,6635.21721375,6635.278635166,6635.897620041,6636.640956208,1,0.729193416999806
141,20,6,categorization,0,bathroom,SHINEd_sun_aapitsgbtktqubfy.tif,12,0.0666666666666667,0.0666666666666667,1.6,6636.64631875,6637.444118166,13,6636.707975458,6636.769111916,6637.4542315,6639.047597166,1,0.797799416000089
141,21,6,categorization,0,kitchen,SHINEd_sun_aapllqyqlykszopd.tif,66,0.0666666666666667,0.0666666666666667,1.58333333333333,6639.066415333,6639.830831333,9,6639.133291916,6639.199734708,6639.856453708,6641.433161,1,0.764415999999983
141,22,6,categorization,0,bathroom,SHINEd_sun_apkruvsevgegsdwp.tif,44,0.0666666666666667,0.0666666666666667,1.11666666666667,6641.452339,6642.035887958,13,6641.519243833,6641.585587875,6642.059042791,6643.169089333,1,0.583548957999483
141,23,6,categorization,0,bathroom,SHINEd_sun_aavhrsfjbserjtht.tif,13,0.0666666666666667,0.0666666666666667,1.53333333333333,6643.178230041,6644.033704875,13,6643.243754708,6643.312330291,6644.052005541,6645.578728291,1,0.855474834000233
141,24,6,categorization,0,bathroom,SHINEd_sun_ambriybtogmepttm.tif,36,0.0666666666666667,0.0666666666666667,1.48333333333333,6645.600060208,6646.304975166,9,6645.667618041,6645.733692083,6646.323540333,6647.800253166,0,0.70491495799979
141,25,6,categorization,0,kitchen,SHINEd_sun_admlmbcdswaszruo.tif,79,0.0666666666666667,0.0666666666666667,1.1,6647.818447333,6648.4820605,9,6647.885541,6647.952385916,6648.508893125,6649.602279375,1,0.663613167000221
141,26,6,categorization,0,bathroom,SHINEd_sun_aspsyogrekjtfozg.tif,50,0.0666666666666667,0.0666666666666667,0.933333333333333,6649.616120416,6650.435352458,13,6649.681445625,6649.750807458,6650.457722083,6651.384438791,1,0.819232042000294
141,27,6,categorization,0,bathroom,SHINEd_sun_amzlamotzwfkwjco.tif,37,0.0666666666666667,0.0666666666666667,0.816666666666667,6651.401070083,6652.188463291,13,6651.468184916,6651.534477541,6652.203456333,6653.013460083,1,0.78739320799923
141,28,6,categorization,0,bathroom,SHINEd_sun_aghyqhbptboemmoq.tif,23,0.0666666666666667,0.0666666666666667,1.78333333333333,6653.018531041,6653.72391125,13,6653.080206583,6653.141418125,6653.743755916,6655.520473458,1,0.705380209000396
141,29,6,categorization,0,bathroom,SHINEd_sun_ajlawzvmubibwbpy.tif,30,0.0666666666666667,0.0666666666666667,0.766666666666667,6655.537875625,6656.675472791,13,6655.606647791,6655.671210333,6656.694371958,6657.454377791,1,1.13759716599998
141,30,6,categorization,0,bathroom,SHINEd_sun_anryaplzeujmzfkd.tif,39,0.0666666666666667,0.0666666666666667,1.45,6657.4593335,6658.34002125,13,6657.521145916,6657.582204541,6658.350938458,6659.794306625,1,0.880687750000106
141,31,6,categorization,0,bathroom,SHINEd_sun_auzqhkafidnkrwmo.tif,54,0.0666666666666667,0.0666666666666667,0.75,6659.811528458,6660.639220791,9,6659.879713916,6659.944916208,6660.668608958,6661.41194725,0,0.827692333000414
141,32,6,categorization,0,bathroom,SHINEd_sun_azqyogdvyhahyram.tif,60,0.0666666666666667,0.0666666666666667,1.36666666666667,6661.4178265,6662.820609083,13,6661.479563375,6661.540701666,6662.826186625,6664.186231125,1,1.40278258299986
141,33,6,categorization,0,kitchen,SHINEd_sun_ahspylgoovwmwvgk.tif,93,0.0666666666666667,0.0666666666666667,0.75,6664.204213166,6664.835656,9,6664.272522416,6664.337605333,6664.859423583,6665.602807833,1,0.631442834000154
141,34,6,categorization,0,kitchen,SHINEd_sun_afuyedyxivkhecmu.tif,85,0.0666666666666667,0.0666666666666667,0.783333333333333,6665.618841458,6666.212208708,9,6665.68601325,6665.75207125,6666.221233791,6666.997904166,1,0.593367249999574
141,35,6,categorization,0,kitchen,SHINEd_sun_aarfiyshqohlwkmo.tif,67,0.0666666666666667,0.0666666666666667,1.11666666666667,6667.002965125,6667.652722583,9,6667.064653,6667.125779041,6667.661123208,6668.771164833,1,0.64975745799984
141,36,6,categorization,0,bathroom,SHINEd_sun_aleqenyvunhactkl.tif,32,0.0666666666666667,0.0666666666666667,0.766666666666667,6668.780864,6669.649630125,13,6668.845366666,6668.912390458,6669.668636166,6670.428669416,1,0.868766124999638
141,37,6,categorization,0,kitchen,SHINEd_sun_aypmqwcualkenuoe.tif,109,0.0666666666666667,0.0666666666666667,0.716666666666667,6670.445272208,6671.227820333,9,6670.511661916,6670.578537958,6671.247470875,6671.9574755,1,0.782548125000176
141,38,6,categorization,0,bathroom,SHINEd_sun_awnqiikzaispgmwo.tif,56,0.0666666666666667,0.0666666666666667,1.33333333333333,6671.963614583,6672.620195625,13,6672.025480166,6672.08639225,6672.638641916,6673.965358458,1,0.656581041999743
141,39,6,categorization,0,bathroom,SHINEd_sun_acegryoqftbzowsg.tif,17,0.0666666666666667,0.0666666666666667,1.75,6673.98361,6674.844135083,13,6674.050614791,6674.116833166,6674.854586708,6676.597978625,1,0.860525082999629
141,40,6,categorization,0,kitchen,SHINEd_sun_aixorpehvfykdynp.tif,95,0.0666666666666667,0.0666666666666667,1.13333333333333,6676.617308625,6677.560237166,9,6676.684364958,6676.750487208,6677.590621791,6678.717324666,1,0.942928540999674
141,41,6,categorization,0,bathroom,SHINEd_sun_ahcvzmoyaycdoftf.tif,27,0.0666666666666667,0.0666666666666667,1.63333333333333,6678.7261435,6679.387941541,13,6678.791328375,6678.858224458,6679.414872375,6681.041597041,1,0.661798041000111
141,42,6,categorization,0,kitchen,SHINEd_sun_aadbddgrdsjugojn.tif,64,0.0666666666666667,0.0666666666666667,1.43333333333333,6681.059758958,6681.886001583,9,6681.128240791,6681.193088833,6681.916402625,6683.34310325,1,0.826242624999395
141,43,6,categorization,0,kitchen,SHINEd_sun_aexklacwqwezaorf.tif,84,0.0666666666666667,0.0666666666666667,1.83333333333333,6683.360909041,6684.326514666,9,6683.428866208,6683.495321208,6684.35285025,6686.179550458,1,0.965605624999625
141,44,6,categorization,0,kitchen,SHINEd_sun_abftihopvusyfakt.tif,71,0.0666666666666667,0.0666666666666667,1.93333333333333,6686.199574,6686.876530333,9,6686.267064708,6686.333131291,6686.905250166,6688.831935,1,0.676956332999907
141,45,6,categorization,0,bathroom,SHINEd_sun_ahaulkltgpkeeemi.tif,26,0.0666666666666667,0.0666666666666667,1.26666666666667,6688.841634291,6690.155505125,13,6688.907333083,6688.974759375,6690.160796958,6691.420834541,1,1.31387083399932
141,46,6,categorization,0,bathroom,SHINEd_sun_alotolagknyrgtsk.tif,35,0.0666666666666667,0.0666666666666667,1.86666666666667,6691.437587625,6692.080080583,9,6691.506425458,6691.570941125,6692.110940666,6693.970986041,0,0.64249295800073
141,47,6,categorization,0,kitchen,SHINEd_sun_abdxkyyxwfskuaqb.tif,70,0.0666666666666667,0.0666666666666667,1.41666666666667,6693.989026416,6694.523239958,9,6694.058303916,6694.122673458,6694.546103,6695.956158208,1,0.534213541999634
141,48,6,categorization,0,kitchen,SHINEd_sun_avszsnwsbuqfgzbn.tif,105,0.0666666666666667,0.0666666666666667,1.11666666666667,6695.973730791,6696.481688041,9,6696.042228291,6696.107504458,6696.497042416,6697.607053916,1,0.50795724999989
141,49,6,categorization,0,bathroom,SHINEd_sun_aunuadmjocsddsrl.tif,52,0.0666666666666667,0.0666666666666667,1.8,6697.613701291,6698.187646625,9,6697.675465583,6697.73659,6698.204990708,6699.998375041,0,0.573945333999291
141,50,6,categorization,0,kitchen,SHINEd_sun_azmutvzbxypaceni.tif,110,0.0666666666666667,0.0666666666666667,1.25,6700.017605791,6700.58126025,9,6700.084735041,6700.151369125,6700.608332666,6701.851708708,1,0.563654458999736
141,1,7,categorization,0,bathroom,SHINEd_sun_amzlamotzwfkwjco.tif,37,0.0666666666666667,0.0666666666666667,0.883333333333333,6707.342789458,6708.012178125,9,6707.405349708,6707.465560625,6708.017569375,6708.894240583,0,0.669388667000021
141,2,7,categorization,0,bathroom,SHINEd_sun_apjevzvycyhuqghb.tif,43,0.0666666666666667,0.0666666666666667,1.03333333333333,6708.899176375,6709.507607416,9,6708.961034666,6709.021983583,6709.523711541,6710.550416416,0,0.608431040999676
141,3,7,categorization,0,kitchen,SHINEd_sun_aegoxogugdkwpmpj.tif,80,0.0666666666666667,0.0666666666666667,1.06666666666667,6710.560582125,6711.131740791,9,6710.625498416,6710.692196833,6711.148155375,6712.208207625,1,0.571158665999974
141,4,7,categorization,0,kitchen,SHINEd_labelme_kxvouciolcpqplr.tif,62,0.0666666666666667,0.0666666666666667,0.833333333333333,6712.2219145,6713.028207166,9,6712.288838291,6712.3550775,6713.040322875,6713.866993291,1,0.806292666000445
141,5,7,categorization,0,bathroom,SHINEd_sun_asfwthctfqerjvxr.tif,49,0.0666666666666667,0.0666666666666667,0.716666666666667,6713.871919541,6714.923930791,13,6713.933672875,6713.994782583,6714.930088666,6715.640092958,1,1.05201124999985
141,6,7,categorization,0,bathroom,SHINEd_sun_aleqenyvunhactkl.tif,32,0.0666666666666667,0.0666666666666667,0.733333333333333,6715.646588083,6716.531978208,13,6715.708302166,6715.769375416,6716.538515208,6717.265186833,1,0.885390124999503
141,7,7,categorization,0,bathroom,SHINEd_sun_agrwbmhcpmfuwmsg.tif,24,0.0666666666666667,0.0666666666666667,1.38333333333333,6717.270173333,6717.89230875,9,6717.332170833,6717.393069125,6717.911729041,6719.288453625,0,0.622135417000209
141,8,7,categorization,0,kitchen,SHINEd_sun_akchetnepxlcxhsu.tif,98,0.0666666666666667,0.0666666666666667,0.9,6719.305680916,6719.9256385,9,6719.37393525,6719.439104125,6719.945800041,6720.839154458,1,0.619957584000076
141,9,7,categorization,0,bathroom,SHINEd_sun_alotolagknyrgtsk.tif,35,0.0666666666666667,0.0666666666666667,0.816666666666667,6720.849042333,6721.491698375,9,6720.914306416,6720.973366333,6721.508679958,6722.318684458,0,0.642656041999544
141,10,7,categorization,0,bathroom,SHINEd_sun_aavhrsfjbserjtht.tif,13,0.0666666666666667,0.0666666666666667,0.85,6722.323660666,6722.931569333,9,6722.3852605,6722.446492125,6722.948328125,6723.791664458,0,0.60790866699972
141,11,7,categorization,0,kitchen,SHINEd_sun_acwjdupvyjsugpay.tif,76,0.0666666666666667,0.0666666666666667,1.6,6723.796742708,6724.860369041,13,6723.858429833,6723.919602666,6724.871148791,6726.4645385,0,1.06362633299977
141,12,7,categorization,0,kitchen,SHINEd_sun_aymvwlarqodbwuoc.tif,108,0.0666666666666667,0.0666666666666667,1.75,6726.484560166,6727.256550458,9,6726.551282166,6726.617860708,6727.273888791,6729.017270833,1,0.771990291999828
141,13,7,categorization,0,kitchen,SHINEd_sun_aunzlwrbjumxhwdj.tif,103,0.0666666666666667,0.0666666666666667,1.1,6729.03601375,6729.648679541,9,6729.103747208,6729.169468791,6729.6766615,6730.770038958,1,0.612665790999927
141,14,7,categorization,0,bathroom,SHINEd_sun_aapitsgbtktqubfy.tif,12,0.0666666666666667,0.0666666666666667,1.46666666666667,6730.782096333,6731.610986916,13,6730.846869041,6730.914290083,6731.637770708,6733.097813708,1,0.82889058300043
141,15,7,categorization,0,bathroom,SHINEd_sun_agguqiubmwhqqunb.tif,22,0.0666666666666667,0.0666666666666667,1.25,6733.116616375,6734.006079,13,6733.183980666,6733.249875625,6734.02296925,6735.266353875,1,0.889462624999396
141,16,7,categorization,0,bathroom,SHINEd_sun_apkruvsevgegsdwp.tif,44,0.0666666666666667,0.0666666666666667,1.13333333333333,6735.283810458,6735.994072208,13,6735.350545541,6735.417475666,6736.024785375,6737.151490958,1,0.710261750000427
141,17,7,categorization,0,bathroom,SHINEd_sun_apkxzenqapsujocq.tif,45,0.0666666666666667,0.0666666666666667,1.33333333333333,6737.170297791,6737.92720175,13,6737.237539083,6737.305165375,6737.945255291,6739.271976875,1,0.756903958999828
141,18,7,categorization,0,kitchen,SHINEd_sun_abftihopvusyfakt.tif,71,0.0666666666666667,0.0666666666666667,1.86666666666667,6739.290104291,6739.864415833,9,6739.358785875,6739.423505625,6739.879601833,6741.739656416,1,0.574311542000032
141,19,7,categorization,0,bathroom,SHINEd_sun_avhrdrntsqrjzccq.tif,55,0.0666666666666667,0.0666666666666667,1.58333333333333,6741.757267458,6742.878991958,9,6741.82441225,6741.890864083,6742.896005083,6744.472709125,0,1.12172450000071
141,20,7,categorization,0,kitchen,SHINEd_sun_aqeaevwwwjoqhzvl.tif,101,0.0666666666666667,0.0666666666666667,1.05,6744.489935583,6745.145116041,9,6744.557332875,6744.623895083,6745.164496833,6746.207885708,1,0.65518045799945
141,21,7,categorization,0,bathroom,SHINEd_sun_atstyziqcmkahyxk.tif,51,0.0666666666666667,0.0666666666666667,0.9,6746.220308625,6747.022203416,13,6746.286150333,6746.352370875,6747.041745291,6747.935112125,1,0.80189479099954
141,22,7,categorization,0,bathroom,SHINEd_sun_ausgutylgojavyoq.tif,53,0.0666666666666667,0.0666666666666667,0.7,6747.94682825,6748.620275916,13,6748.011382625,6748.080549,6748.633264708,6749.326602583,1,0.673447665999447
141,23,7,categorization,0,kitchen,SHINEd_sun_aamedkxepzlwuxes.tif,65,0.0666666666666667,0.0666666666666667,0.933333333333333,6749.331632125,6749.955650125,9,6749.393395041,6749.454520166,6749.973341791,6750.900011833,1,0.624017999999523
141,24,7,categorization,0,kitchen,SHINEd_sun_ahpczsiumwwocjkv.tif,92,0.0666666666666667,0.0666666666666667,1.95,6750.904957333,6751.460143708,9,6750.966691791,6751.027823916,6751.47988075,6753.42327525,1,0.555186374999721
141,25,7,categorization,0,kitchen,SHINEd_sun_aapllqyqlykszopd.tif,66,0.0666666666666667,0.0666666666666667,1.06666666666667,6753.440759541,6754.149839208,9,6753.507836458,6753.574173791,6754.163085333,6755.22312475,1,0.709079666999969
141,26,7,categorization,0,bathroom,SHINEd_sun_anhioqovhscjqqwb.tif,38,0.0666666666666667,0.0666666666666667,1.2,6755.233660541,6755.819620791,9,6755.29874125,6755.365800666,6755.838924583,6757.032310625,0,0.585960249999516
141,27,7,categorization,0,bathroom,SHINEd_sun_abapwbhyhkfixyex.tif,14,0.0666666666666667,0.0666666666666667,0.75,6757.050738708,6757.659564833,9,6757.117868166,6757.181962291,6757.667692958,6758.41103025,0,0.608826125000633
141,28,7,categorization,0,kitchen,SHINEd_sun_axyyrmzcupyhlivc.tif,107,0.0666666666666667,0.0666666666666667,0.816666666666667,6758.415950291,6759.171251916,13,6758.477789041,6758.538777333,6759.190949458,6760.000954875,0,0.755301625000357
141,29,7,categorization,0,kitchen,SHINEd_sun_ahljzhgcdpomplvg.tif,91,0.0666666666666667,0.0666666666666667,1.96666666666667,6760.006031541,6760.955616083,9,6760.067701041,6760.128789416,6760.964078625,6762.924133333,1,0.949584541999684
141,30,7,categorization,0,bathroom,SHINEd_sun_aggnnqpdorgxpvce.tif,21,0.0666666666666667,0.0666666666666667,1.2,6762.93376175,6763.73236325,13,6763.000645625,6763.067153875,6763.757147666,6764.950530708,1,0.798601500000586
141,31,7,categorization,0,kitchen,SHINEd_sun_afuyedyxivkhecmu.tif,85,0.0666666666666667,0.0666666666666667,0.883333333333333,6764.961777083,6765.694474791,9,6765.027295375,6765.095439041,6765.71758425,6766.594298875,1,0.73269770800016
141,32,7,categorization,0,kitchen,SHINEd_sun_ajcbwwvdlsvjyzje.tif,96,0.0666666666666667,0.0666666666666667,1.33333333333333,6766.610910166,6767.667434875,13,6766.677254875,6766.744225166,6767.679999875,6769.006707,0,1.05652470899986
141,33,7,categorization,0,bathroom,SHINEd_sun_aqrpegblszgcoujh.tif,48,0.0666666666666667,0.0666666666666667,1.45,6769.023331041,6769.856716291,13,6769.090233166,6769.157037708,6769.880440375,6771.323813875,1,0.833385249999992
141,34,7,categorization,0,kitchen,SHINEd_sun_aadbddgrdsjugojn.tif,64,0.0666666666666667,0.0666666666666667,1.15,6771.340888208,6771.918173458,9,6771.408063625,6771.474363291,6771.947827333,6773.091218166,1,0.577285249999477
141,35,7,categorization,0,kitchen,SHINEd_sun_aarfiyshqohlwkmo.tif,67,0.0666666666666667,0.0666666666666667,0.966666666666667,6773.102359125,6773.680604333,9,6773.171467875,6773.235703708,6773.710147083,6774.670200833,1,0.578245208000226
141,36,7,categorization,0,kitchen,SHINEd_sun_aixorpehvfykdynp.tif,95,0.0666666666666667,0.0666666666666667,1.45,6774.687347375,6775.227983666,9,6774.755354916,6774.819429791,6775.238886916,6776.682265333,1,0.540636290999828
141,37,7,categorization,0,kitchen,SHINEd_sun_acfmftudsenhrfhy.tif,74,0.0666666666666667,0.0666666666666667,0.8,6776.700895375,6777.617723625,13,6776.766901083,6776.832259291,6777.639108833,6778.432450791,0,0.916828249999526
141,38,7,categorization,0,kitchen,SHINEd_labelme_rykdqxenmhulbdn.tif,63,0.0666666666666667,0.0666666666666667,1.45,6778.437546125,6779.443744958,9,6778.499354125,6778.5604045,6779.462902583,6780.906284333,1,1.00619883299987
141,39,7,categorization,0,kitchen,SHINEd_sun_agzzivivdpnawacl.tif,89,0.0666666666666667,0.0666666666666667,1.1,6780.916067208,6781.692264541,13,6780.983143,6781.049358458,6781.722319916,6782.815716291,0,0.776197333000709
141,40,7,categorization,0,kitchen,SHINEd_sun_acgtpgfybqjmzeyw.tif,75,0.0666666666666667,0.0666666666666667,1.16666666666667,6782.824655291,6783.531697208,9,6782.889740041,6782.956377708,6783.545395666,6784.705456916,1,0.707041916999515
141,41,7,categorization,0,kitchen,SHINEd_sun_aypmqwcualkenuoe.tif,109,0.0666666666666667,0.0666666666666667,1.31666666666667,6784.723422125,6785.228238541,9,6784.785831625,6784.84626175,6785.231342458,6786.541377625,1,0.504816415999812
141,42,7,categorization,0,kitchen,SHINEd_sun_aexklacwqwezaorf.tif,84,0.0666666666666667,0.0666666666666667,1.68333333333333,6786.55822325,6787.192747125,13,6786.624754666,6786.6913855,6787.214763166,6788.891482291,0,0.634523875000014
141,43,7,categorization,0,kitchen,SHINEd_sun_adgqasybjyktddhj.tif,78,0.0666666666666667,0.0666666666666667,0.966666666666667,6788.901288083,6789.548746916,9,6788.967379166,6789.034841416,6789.575219,6790.535222291,1,0.647458833000201
141,44,7,categorization,0,bathroom,SHINEd_sun_apynckhmoftszqoq.tif,47,0.0666666666666667,0.0666666666666667,1.4,6790.540355583,6791.2595605,13,6790.601967125,6790.663168041,6791.265079625,6792.658447833,1,0.719204916999843
141,45,7,categorization,0,bathroom,SHINEd_sun_afcoljnjfoxjtgja.tif,20,0.0666666666666667,0.0666666666666667,0.783333333333333,6792.675646333,6793.303754541,9,6792.740210666,6792.804143166,6793.327389166,6794.104095166,0,0.628108207999503
141,46,7,categorization,0,bathroom,SHINEd_sun_aclfzgynxzxlbepz.tif,19,0.0666666666666667,0.0666666666666667,1.08333333333333,6794.117405375,6794.819375458,13,6794.184187833,6794.250489208,6794.835625291,6795.912332875,1,0.701970082999651
141,47,7,categorization,0,bathroom,SHINEd_sun_agyqfjcfkdcydepw.tif,25,0.0666666666666667,0.0666666666666667,1.43333333333333,6795.923552291,6796.837493666,13,6795.988550333,6796.056098166,6796.861624916,6798.288352583,1,0.913941374999922
141,48,7,categorization,0,kitchen,SHINEd_sun_aenotlpyftoioydp.tif,82,0.0666666666666667,0.0666666666666667,1.75,6798.305630583,6799.155947083,9,6798.37410125,6798.438835666,6799.178954083,6800.922322916,1,0.85031650000019
141,49,7,categorization,0,bathroom,SHINEd_sun_akiytfaagpdsphgz.tif,31,0.0666666666666667,0.0666666666666667,1.21666666666667,6800.931799166,6801.749474833,13,6800.99982075,6801.065222541,6801.772292125,6802.982349416,1,0.817675667000003
141,50,7,categorization,0,kitchen,SHINEd_sun_amjjdeyrggfqgmom.tif,100,0.0666666666666667,0.0666666666666667,1.31666666666667,6802.992521541,6803.606613416,9,6803.0609635,6803.126335791,6803.633291458,6804.943349208,1,0.614091874999758
141,1,8,categorization,0,bathroom,SHINEd_sun_ajlawzvmubibwbpy.tif,30,0.0666666666666667,0.0666666666666667,1.18333333333333,6813.315127791,6813.979859291,9,6813.37734575,6813.437914875,6813.989902458,6815.166623,0,0.664731500000016
141,2,8,categorization,0,bathroom,SHINEd_sun_ahqjwnzgolcaoidx.tif,29,0.0666666666666667,0.0666666666666667,0.983333333333333,6815.175907375,6816.003496916,13,6815.244496916,6815.309922916,6816.033113,6817.009817916,1,0.827589540999725
141,3,8,categorization,0,kitchen,SHINEd_sun_aeqdocilnnpuvuhx.tif,83,0.0666666666666667,0.0666666666666667,1.65,6817.018861416,6817.691530208,9,6817.080612208,6817.141692416,6817.710295375,6819.353663208,1,0.672668791999968
141,4,8,categorization,0,bathroom,SHINEd_sun_apmqjbnwghzuhhzh.tif,46,0.0666666666666667,0.0666666666666667,1.23333333333333,6819.371873125,6820.0227705,13,6819.440476166,6819.505168666,6820.045248208,6821.271956333,1,0.650897374999658
141,5,8,categorization,0,bathroom,SHINEd_sun_acduarbnmmoglmiv.tif,16,0.0666666666666667,0.0666666666666667,0.916666666666667,6821.289877875,6821.940708625,13,6821.358417583,6821.423684208,6821.963650166,6822.873690125,1,0.65083075000075
141,6,8,categorization,0,bathroom,SHINEd_sun_aghyqhbptboemmoq.tif,23,0.0666666666666667,0.0666666666666667,1.56666666666667,6822.883884208,6823.611349083,13,6822.949189333,6823.01749275,6823.619757666,6825.179810208,1,0.727464874999896
141,7,8,categorization,0,kitchen,SHINEd_sun_abdenxonkemggwsq.tif,69,0.0666666666666667,0.0666666666666667,1.63333333333333,6825.193920375,6826.041687666,13,6825.262399125,6825.327136666,6826.067191541,6827.693913958,0,0.847767291000309
141,8,8,categorization,0,kitchen,SHINEd_sun_auaiucuqpdausiva.tif,102,0.0666666666666667,0.0666666666666667,1.1,6827.716854416,6828.851374916,13,6827.784037291,6827.850620166,6828.872441333,6829.965831041,0,1.13452049999978
141,9,8,categorization,0,kitchen,SHINEd_sun_ajkqhtgcbgpcwrwn.tif,97,0.0666666666666667,0.0666666666666667,1.38333333333333,6829.97427125,6830.5630705,9,6830.0395175,6830.107774625,6830.580012833,6831.956740333,1,0.588799250000193
141,10,8,categorization,0,kitchen,SHINEd_sun_aaxxjlsuzvqlgylf.tif,68,0.0666666666666667,0.0666666666666667,0.766666666666667,6831.974115416,6832.779718166,13,6832.036558791,6832.096904083,6832.798793958,6833.5587995,0,0.805602749999707
141,11,8,categorization,0,bathroom,SHINEd_sun_aoybiabnpadelefl.tif,41,0.0666666666666667,0.0666666666666667,1.45,6833.563785666,6834.243302791,13,6833.625428625,6833.686543583,6834.255282916,6835.698675916,1,0.67951712500053
141,12,8,categorization,0,bathroom,SHINEd_sun_auzqhkafidnkrwmo.tif,54,0.0666666666666667,0.0666666666666667,0.983333333333333,6835.71386125,6836.441354375,13,6835.781255833,6835.847360458,6836.471342416,6837.448014291,1,0.727493124999455
141,13,8,categorization,0,bathroom,SHINEd_sun_aofnryafpsjimzsb.tif,40,0.0666666666666667,0.0666666666666667,0.716666666666667,6837.453350375,6838.1155645,13,6837.515098666,6837.576174333,6838.128153875,6838.838157791,1,0.662214124999991
141,14,8,categorization,0,bathroom,SHINEd_sun_axyrejkiiaqiurjk.tif,59,0.0666666666666667,0.0666666666666667,1.41666666666667,6838.842943,6839.443109583,9,6838.904690916,6838.96594,6839.451358083,6840.861408041,0,0.600166582999918
141,15,8,categorization,0,bathroom,SHINEd_labelme_sfxiulhjbhlyiyt.tif,11,0.0666666666666667,0.0666666666666667,1.21666666666667,6840.87025,6841.654180041,13,6840.935944666,6841.003629833,6841.677018666,6842.88706775,1,0.783930040999621
141,16,8,categorization,0,bathroom,SHINEd_sun_azqyogdvyhahyram.tif,60,0.0666666666666667,0.0666666666666667,1.61666666666667,6842.896705916,6843.474786125,13,6842.961847125,6843.029811875,6843.503466583,6845.113504625,1,0.578080208999381
141,17,8,categorization,0,kitchen,SHINEd_sun_azmutvzbxypaceni.tif,110,0.0666666666666667,0.0666666666666667,0.783333333333333,6845.132402,6845.687470791,13,6845.198870666,6845.265528625,6845.705222833,6846.481938375,0,0.55506879099994
141,18,8,categorization,0,bathroom,SHINEd_sun_aspsyogrekjtfozg.tif,50,0.0666666666666667,0.0666666666666667,1.98333333333333,6846.497903625,6847.227504083,13,6846.564757416,6846.630872,6847.233182,6849.209889166,1,0.729600458000277
141,19,8,categorization,0,kitchen,SHINEd_sun_aehawpgmrlhlvcow.tif,81,0.0666666666666667,0.0666666666666667,0.983333333333333,6849.223870041,6849.918855333,9,6849.291212458,6849.358828625,6849.949234333,6850.9259065,1,0.694985291999728
141,20,8,categorization,0,bathroom,SHINEd_sun_apeeialkgkuxddgh.tif,42,0.0666666666666667,0.0666666666666667,0.8,6850.931183041,6851.555664916,13,6850.993167333,6851.054010416,6851.572645,6852.36598275,1,0.624481875000129
141,21,8,categorization,0,kitchen,SHINEd_sun_aggjlwcdjsjcaemh.tif,86,0.0666666666666667,0.0666666666666667,0.733333333333333,6852.370922416,6853.763769333,13,6852.432568833,6852.493870916,6853.779889958,6854.506561916,0,1.39284691699959
141,22,8,categorization,0,kitchen,SHINEd_sun_akcjzhbbjlbogpdi.tif,99,0.0666666666666667,0.0666666666666667,0.966666666666667,6854.512845333,6855.643365375,9,6854.574612041,6854.635693208,6855.654758416,6856.614762083,1,1.13052004200017
141,23,8,categorization,0,bathroom,SHINEd_sun_anryaplzeujmzfkd.tif,39,0.0666666666666667,0.0666666666666667,0.866666666666667,6856.619731,6857.499823708,13,6856.681465916,6856.742599958,6857.511613916,6858.371618583,1,0.88009270800012
141,24,8,categorization,0,kitchen,SHINEd_sun_agorklincwxrdtga.tif,87,0.0666666666666667,0.0666666666666667,1.23333333333333,6858.376456958,6859.059331083,9,6858.438199166,6858.499223291,6859.067862458,6860.294566916,1,0.682874125000126
141,25,8,categorization,0,kitchen,SHINEd_sun_ahspylgoovwmwvgk.tif,93,0.0666666666666667,0.0666666666666667,1.9,6860.311148041,6861.151219166,9,6860.378734666,6860.444526166,6861.167041333,6863.060432916,1,0.840071125000577
141,26,8,categorization,0,bathroom,SHINEd_sun_axxbkopsgyouuebh.tif,58,0.0666666666666667,0.0666666666666667,0.866666666666667,6863.075577458,6863.703144416,13,6863.142493541,6863.208750541,6863.731968541,6864.59197175,1,0.627566957999989
141,27,8,categorization,0,bathroom,SHINEd_sun_aljolscmmzydegqp.tif,33,0.0666666666666667,0.0666666666666667,0.966666666666667,6864.597189666,6865.5070445,13,6864.658927291,6864.719980666,6865.521803666,6866.481808708,1,0.909854833999816
141,28,8,categorization,0,kitchen,SHINEd_sun_abpwyqmlzafvklqo.tif,72,0.0666666666666667,0.0666666666666667,0.916666666666667,6866.48673225,6867.091529833,9,6866.548501916,6866.609377208,6867.111325333,6868.021329416,1,0.604797582999709
141,29,8,categorization,0,kitchen,SHINEd_labelme_brsyyvweiuaazfr.tif,61,0.0666666666666667,0.0666666666666667,0.916666666666667,6868.026254,6868.851710791,13,6868.088040958,6868.149174916,6868.867480333,6869.777484583,0,0.825456790999851
141,30,8,categorization,0,kitchen,SHINEd_sun_abrcnpqqhmjwekyf.tif,73,0.0666666666666667,0.0666666666666667,1.4,6869.782355208,6870.506940375,9,6869.843999958,6869.905040375,6870.52366825,6871.917041708,1,0.724585167000441
141,31,8,categorization,0,bathroom,SHINEd_sun_alkosphxlxwjwgjd.tif,34,0.0666666666666667,0.0666666666666667,1.75,6871.930491458,6872.743720416,13,6871.997144416,6872.063884625,6872.768664166,6874.512033208,1,0.813228957999854
141,32,8,categorization,0,kitchen,SHINEd_sun_ahdycvpopffkzzsu.tif,90,0.0666666666666667,0.0666666666666667,1.25,6874.527322666,6875.310171708,9,6874.595339458,6874.662430375,6875.336804708,6876.580184458,1,0.782849041999725
141,33,8,categorization,0,kitchen,SHINEd_sun_awcpdzzznmweyyhv.tif,106,0.0666666666666667,0.0666666666666667,1.05,6876.597275125,6877.3750565,9,6876.66452775,6876.731046,6877.405698791,6878.449040166,1,0.777781374999904
141,34,8,categorization,0,bathroom,SHINEd_sun_aunuadmjocsddsrl.tif,52,0.0666666666666667,0.0666666666666667,1.06666666666667,6878.4596355,6879.159521291,13,6878.524971458,6878.59090525,6879.181899375,6880.2419565,1,0.69988579099936
141,35,8,categorization,0,bathroom,SHINEd_sun_ahijqszoswveeyji.tif,28,0.0666666666666667,0.0666666666666667,1.21666666666667,6880.261107666,6881.475229208,9,6880.327473083,6880.395041166,6881.481115416,6882.691172416,0,1.21412154200061
141,36,8,categorization,0,kitchen,SHINEd_sun_acxkpeoqbwcxfvip.tif,77,0.0666666666666667,0.0666666666666667,0.95,6882.707819083,6883.450464208,9,6882.77223475,6882.835586083,6883.4759475,6884.419340208,1,0.742645125000308
141,37,8,categorization,0,kitchen,SHINEd_sun_admlmbcdswaszruo.tif,79,0.0666666666666667,0.0666666666666667,0.9,6884.43551,6885.058746416,9,6884.502350791,6884.568790875,6885.070798333,6885.964135458,1,0.6232364159996
141,38,8,categorization,0,bathroom,SHINEd_sun_acgyywnybuveqsro.tif,18,0.0666666666666667,0.0666666666666667,1.78333333333333,6885.969048166,6886.7308215,13,6886.030746833,6886.092120583,6886.74475075,6888.521480666,1,0.761773334000281
141,39,8,categorization,0,kitchen,SHINEd_sun_abdxkyyxwfskuaqb.tif,70,0.0666666666666667,0.0666666666666667,1.16666666666667,6888.539782583,6889.168639666,9,6888.6072125,6888.673230458,6889.197224375,6890.357267208,1,0.628857083000185
141,40,8,categorization,0,bathroom,SHINEd_sun_ambriybtogmepttm.tif,36,0.0666666666666667,0.0666666666666667,0.783333333333333,6890.369196458,6891.166247791,9,6890.436772166,6890.502542083,6891.193025708,6891.969731375,0,0.797051333000127
141,41,8,categorization,0,bathroom,SHINEd_sun_awnqiikzaispgmwo.tif,56,0.0666666666666667,0.0666666666666667,1.23333333333333,6891.987070375,6892.755262625,13,6892.054282708,6892.120567208,6892.772850083,6893.999577125,1,0.768192249999629
141,42,8,categorization,0,bathroom,SHINEd_sun_abjtwfukuwddzted.tif,15,0.0666666666666667,0.0666666666666667,0.9,6894.0144695,6895.010839916,13,6894.081612583,6894.147513958,6895.038015625,6895.931354,1,0.996370415999991
141,43,8,categorization,0,bathroom,SHINEd_sun_ahaulkltgpkeeemi.tif,26,0.0666666666666667,0.0666666666666667,0.7,6895.936463833,6896.53133325,9,6895.9982975,6896.059279416,6896.544566916,6897.23790575,0,0.594869417000154
141,44,8,categorization,0,bathroom,SHINEd_sun_axldvoqbuvuggfmq.tif,57,0.0666666666666667,0.0666666666666667,1.23333333333333,6897.242769625,6897.979674666,13,6897.304444208,6897.365536291,6897.984281666,6899.210997,1,0.736905041000682
141,45,8,categorization,0,kitchen,SHINEd_sun_avszsnwsbuqfgzbn.tif,105,0.0666666666666667,0.0666666666666667,1,6899.227900583,6899.793403708,9,6899.294979958,6899.361639625,6899.818389166,6900.811756583,1,0.56550312500076
141,46,8,categorization,0,bathroom,SHINEd_sun_ahcvzmoyaycdoftf.tif,27,0.0666666666666667,0.0666666666666667,1.38333333333333,6900.821017666,6901.515658041,13,6900.8862275,6900.949572541,6901.535194291,6902.911915166,1,0.694640374999835
141,47,8,categorization,0,bathroom,SHINEd_sun_acegryoqftbzowsg.tif,17,0.0666666666666667,0.0666666666666667,1.3,6902.921876791,6903.693781833,13,6902.988931041,6903.054951166,6903.711146333,6905.00453025,1,0.771905042000071
141,48,8,categorization,0,kitchen,SHINEd_sun_agubuxuukhzyzpdp.tif,88,0.0666666666666667,0.0666666666666667,0.833333333333333,6905.022311791,6905.939681416,9,6905.089286375,6905.156051083,6905.96284525,6906.789523208,1,0.917369624999992
141,49,8,categorization,0,kitchen,SHINEd_sun_auticobqsbwgoppi.tif,104,0.0666666666666667,0.0666666666666667,0.95,6906.795742708,6907.587161166,9,6906.857407916,6906.918579541,6907.604527791,6908.547865416,1,0.791418458000408
141,50,8,categorization,0,kitchen,SHINEd_sun_ahywdevtimnqcsln.tif,94,0.0666666666666667,0.0666666666666667,1.43333333333333,6908.552794958,6909.195003875,9,6908.614483333,6908.67555175,6909.210930458,6910.637652458,1,0.642208917000062
141,1,9,categorization,0,bathroom,SHINEd_sun_axyrejkiiaqiurjk.tif,59,0.0666666666666667,0.0666666666666667,1.08333333333333,6917.359887,6918.163180541,9,6917.422471458,6917.4826705,6918.168135666,6919.244845458,0,0.80329354100013
141,2,9,categorization,0,kitchen,SHINEd_sun_ajcbwwvdlsvjyzje.tif,96,0.0666666666666667,0.0666666666666667,0.8,6919.256281625,6919.944158,13,6919.321471375,6919.389551708,6919.962418875,6920.755789833,0,0.687876375000087
141,3,9,categorization,0,kitchen,SHINEd_sun_adgqasybjyktddhj.tif,78,0.0666666666666667,0.0666666666666667,0.833333333333333,6920.768057291,6921.395562833,9,6920.834408125,6920.899740416,6921.402354583,6922.229025625,1,0.627505542000108
141,4,9,categorization,0,kitchen,SHINEd_sun_azmutvzbxypaceni.tif,110,0.0666666666666667,0.0666666666666667,1.45,6922.233958375,6922.979735166,9,6922.295628166,6922.356705708,6922.992009083,6924.435378333,1,0.745776791000026
141,5,9,categorization,0,kitchen,SHINEd_sun_aymvwlarqodbwuoc.tif,108,0.0666666666666667,0.0666666666666667,1.3,6924.452301208,6925.247859666,9,6924.519175833,6924.585462583,6925.275411791,6926.5687955,1,0.795558458000414
141,6,9,categorization,0,kitchen,SHINEd_sun_ahdycvpopffkzzsu.tif,90,0.0666666666666667,0.0666666666666667,1.21666666666667,6926.584057666,6927.303237208,9,6926.652978333,6926.717151666,6927.32359075,6928.533631958,1,0.719179541999438
141,7,9,categorization,0,kitchen,SHINEd_sun_aeqdocilnnpuvuhx.tif,83,0.0666666666666667,0.0666666666666667,0.733333333333333,6928.551210375,6929.234759333,9,6928.617981291,6928.684355666,6929.2577285,6929.984453333,1,0.683548957999847
141,8,9,categorization,0,bathroom,SHINEd_sun_aoybiabnpadelefl.tif,41,0.0666666666666667,0.0666666666666667,1.03333333333333,6930.000505333,6930.707302916,9,6930.067141958,6930.133846375,6930.71981325,6931.746523041,0,0.70679758300048
141,9,9,categorization,0,bathroom,SHINEd_sun_agguqiubmwhqqunb.tif,22,0.0666666666666667,0.0666666666666667,1.1,6931.757806541,6932.401145458,9,6931.822249833,6931.889544166,6932.429219375,6933.522596375,0,0.643338917000619
141,10,9,categorization,0,kitchen,SHINEd_labelme_brsyyvweiuaazfr.tif,61,0.0666666666666667,0.0666666666666667,1.25,6933.538511083,6934.219020791,9,6933.605738041,6933.672006291,6934.224043583,6935.467433166,1,0.68050970799959
141,11,9,categorization,0,bathroom,SHINEd_sun_agyqfjcfkdcydepw.tif,25,0.0666666666666667,0.0666666666666667,1.4,6935.483869166,6936.09723825,9,6935.551085833,6935.61750225,6936.124143375,6937.517517666,0,0.613369084000624
141,12,9,categorization,0,bathroom,SHINEd_sun_aunuadmjocsddsrl.tif,52,0.0666666666666667,0.0666666666666667,1.43333333333333,6937.5302635,6938.275031541,13,6937.597407416,6937.663365666,6938.303494333,6939.730197416,1,0.744768041000498
141,13,9,categorization,0,kitchen,SHINEd_sun_acwjdupvyjsugpay.tif,76,0.0666666666666667,0.0666666666666667,1.26666666666667,6939.748748541,6940.413438666,9,6939.815920458,6939.882074083,6940.439206125,6941.6992565,1,0.664690124999652
141,14,9,categorization,0,kitchen,SHINEd_labelme_kxvouciolcpqplr.tif,62,0.0666666666666667,0.0666666666666667,0.916666666666667,6941.717599,6942.358707083,9,6941.78493475,6941.851698041,6942.37478125,6943.284835875,1,0.64110808300029
141,15,9,categorization,0,kitchen,SHINEd_sun_aarfiyshqohlwkmo.tif,67,0.0666666666666667,0.0666666666666667,1.05,6943.302730708,6944.314761916,13,6943.370025916,6943.436490208,6944.322526416,6945.365916416,0,1.01203120799983
141,16,9,categorization,0,bathroom,SHINEd_sun_aclfzgynxzxlbepz.tif,19,0.0666666666666667,0.0666666666666667,1.53333333333333,6945.377224041,6946.100138708,13,6945.442052125,6945.508941541,6946.114578416,6947.641297375,1,0.722914666999714
141,17,9,categorization,0,bathroom,SHINEd_sun_auzqhkafidnkrwmo.tif,54,0.0666666666666667,0.0666666666666667,1.11666666666667,6947.658886666,6948.366738541,13,6947.727058875,6947.792470375,6948.381462125,6949.4915035,1,0.707851874999506
141,18,9,categorization,0,bathroom,SHINEd_sun_ahaulkltgpkeeemi.tif,26,0.0666666666666667,0.0666666666666667,1.05,6949.501320416,6950.221807833,13,6949.566930375,6949.634631625,6950.241147833,6951.284526708,1,0.720487416999276
141,19,9,categorization,0,bathroom,SHINEd_sun_aofnryafpsjimzsb.tif,40,0.0666666666666667,0.0666666666666667,1.66666666666667,6951.302617208,6952.075015833,13,6951.370184541,6951.436577666,6952.0892475,6953.749292208,1,0.772398625000278
141,20,9,categorization,0,bathroom,SHINEd_sun_abapwbhyhkfixyex.tif,14,0.0666666666666667,0.0666666666666667,1.98333333333333,6953.76669375,6954.38267375,9,6953.833529166,6953.900161583,6954.407378625,6956.384101833,0,0.615980000000491
141,21,9,categorization,0,kitchen,SHINEd_sun_abftihopvusyfakt.tif,71,0.0666666666666667,0.0666666666666667,1.06666666666667,6956.399964375,6956.996082041,9,6956.466827916,6956.533612291,6957.023969375,6958.084012,1,0.596117665999373
141,22,9,categorization,0,bathroom,SHINEd_sun_apeeialkgkuxddgh.tif,42,0.0666666666666667,0.0666666666666667,1.31666666666667,6958.096442,6958.691723666,13,6958.161201541,6958.228332208,6958.718978583,6960.029016375,1,0.595281666000119
