sub_num,trial,block,task,is_practice,category,image,texture,duration,mask_dur,jitter,stim_time,time_of_resp,trial_response,mask_time,fix_time,jit_onset,trial_end,trial_accuracy,RT
141,1,4,categorization,0,kitchen,SHINEd_labelme_brsyyvweiuaazfr.tif,61,0.0666666666666667,0.0666666666666667,1,6352.483427833,6353.509400541,13,6352.545521625,6352.606397958,6353.52505125,6354.518388541,0,1.02597270800015
141,2,4,categorization,0,kitchen,SHINEd_sun_aehawpgmrlhlvcow.tif,81,0.0666666666666667,0.0666666666666667,0.966666666666667,6354.523275666,6355.069925,9,6354.584957375,6354.646073458,6355.081265875,6356.041270875,1,0.546649333999994
141,3,4,categorization,0,bathroom,SHINEd_sun_anryaplzeujmzfkd.tif,39,0.0666666666666667,0.0666666666666667,1.75,6356.0462175,6356.940871833,13,6356.108017458,6356.168989375,6356.954283541,6358.697668916,1,0.89465433299938
141,4,4,categorization,0,kitchen,SHINEd_sun_ahspylgoovwmwvgk.tif,93,0.0666666666666667,0.0666666666666667,1.68333333333333,6358.718439375,6359.696371625,9,6358.783533125,6358.850046375,6359.721761541,6361.39847275,1,0.977932249999867
141,5,4,categorization,0,bathroom,SHINEd_sun_ahqjwnzgolcaoidx.tif,29,0.0666666666666667,0.0666666666666667,1.58333333333333,6361.418779791,6362.2247625,13,6361.485920208,6361.552173375,6362.241600458,6363.81831025,1,0.805982709000091
141,6,4,categorization,0,kitchen,SHINEd_sun_ahpczsiumwwocjkv.tif,92,0.0666666666666667,0.0666666666666667,1,6363.835633416,6364.532941666,9,6363.902778416,6363.969281791,6364.560028375,6365.553364791,1,0.697308249999878
141,7,4,categorization,0,bathroom,SHINEd_sun_ajlawzvmubibwbpy.tif,30,0.0666666666666667,0.0666666666666667,1.33333333333333,6365.558552083,6366.317572833,13,6365.6204065,6365.68144525,6366.33337675,6367.660092083,1,0.759020749999763
141,8,4,categorization,0,kitchen,SHINEd_sun_abrcnpqqhmjwekyf.tif,73,0.0666666666666667,0.0666666666666667,1.26666666666667,6367.679259083,6368.221295375,9,6367.746105958,6367.81246025,6368.252366625,6369.512415041,1,0.542036292000375
141,9,4,categorization,0,bathroom,SHINEd_sun_aoybiabnpadelefl.tif,41,0.0666666666666667,0.0666666666666667,0.883333333333333,6369.531216625,6370.109940291,9,6369.598349625,6369.664788416,6370.138682083,6371.015400083,0,0.578723666000769
141,10,4,categorization,0,bathroom,SHINEd_sun_awnqiikzaispgmwo.tif,56,0.0666666666666667,0.0666666666666667,1.26666666666667,6371.033071541,6371.7335635,13,6371.100246708,6371.167086208,6371.752891583,6373.012933291,1,0.700491958999919
141,11,4,categorization,0,bathroom,SHINEd_sun_avhrdrntsqrjzccq.tif,55,0.0666666666666667,0.0666666666666667,2,6373.026664958,6373.934333416,13,6373.093922791,6373.161784833,6373.951223375,6375.944601541,1,0.907668458000444
141,12,4,categorization,0,bathroom,SHINEd_sun_ahijqszoswveeyji.tif,28,0.0666666666666667,0.0666666666666667,0.733333333333333,6375.961879,6376.754487166,13,6376.029087375,6376.09499975,6376.766277875,6377.492948958,1,0.792608165999809
141,13,4,categorization,0,bathroom,SHINEd_sun_acduarbnmmoglmiv.tif,16,0.0666666666666667,0.0666666666666667,0.883333333333333,6377.498018208,6378.069878375,9,6377.559840166,6377.620860333,6378.089479875,6378.966151666,0,0.571860167000523
141,14,4,categorization,0,bathroom,SHINEd_sun_aunuadmjocsddsrl.tif,52,0.0666666666666667,0.0666666666666667,0.983333333333333,6378.971162,6379.949685791,13,6379.032811166,6379.093983041,6379.962585916,6380.939257291,1,0.978523791000043
141,15,4,categorization,0,bathroom,SHINEd_sun_ahaulkltgpkeeemi.tif,26,0.0666666666666667,0.0666666666666667,1.56666666666667,6380.94416225,6381.468810625,9,6381.005861458,6381.066913375,6381.485226833,6383.045263125,0,0.524648374999742
141,16,4,categorization,0,kitchen,SHINEd_sun_ajkqhtgcbgpcwrwn.tif,97,0.0666666666666667,0.0666666666666667,1.08333333333333,6383.064161625,6384.090377583,9,6383.130629333,6383.197488041,6384.12040375,6385.19711325,1,1.02621595799974
141,17,4,categorization,0,bathroom,SHINEd_sun_apkxzenqapsujocq.tif,45,0.0666666666666667,0.0666666666666667,0.75,6385.209178791,6385.900850791,13,6385.274121666,6385.340534333,6385.930385875,6386.673772041,1,0.691671999999926
141,18,4,categorization,0,bathroom,SHINEd_sun_axxbkopsgyouuebh.tif,58,0.0666666666666667,0.0666666666666667,0.966666666666667,6386.691362458,6387.309192333,13,6386.758489958,6386.824334208,6387.32642475,6388.286430458,1,0.617829875000098
141,19,4,categorization,0,kitchen,SHINEd_sun_amjjdeyrggfqgmom.tif,100,0.0666666666666667,0.0666666666666667,1.63333333333333,6388.2912515,6388.949165125,9,6388.352917083,6388.414058708,6388.965823791,6390.592536833,1,0.657913625000219
141,20,4,categorization,0,bathroom,SHINEd_sun_axldvoqbuvuggfmq.tif,57,0.0666666666666667,0.0666666666666667,1.46666666666667,6390.610806,6391.450851416,13,6390.677518708,6390.744055458,6391.464786666,6392.924842416,1,0.840045416000066
141,21,4,categorization,0,kitchen,SHINEd_sun_agorklincwxrdtga.tif,87,0.0666666666666667,0.0666666666666667,0.933333333333333,6392.935455291,6393.621107125,9,6393.00259175,6393.069200666,6393.642442916,6394.569115833,1,0.685651834000055
141,22,4,categorization,0,bathroom,SHINEd_sun_anhioqovhscjqqwb.tif,38,0.0666666666666667,0.0666666666666667,1.45,6394.575004583,6395.244600208,13,6394.6367975,6394.697849625,6395.249878666,6396.693271791,1,0.669595624999602
141,23,4,categorization,0,kitchen,SHINEd_sun_abftihopvusyfakt.tif,71,0.0666666666666667,0.0666666666666667,0.966666666666667,6396.7103185,6397.454156583,9,6396.775058208,6396.838071,6397.476381875,6398.43638525,1,0.74383808300081
141,24,4,categorization,0,kitchen,SHINEd_sun_acwjdupvyjsugpay.tif,76,0.0666666666666667,0.0666666666666667,0.816666666666667,6398.441642125,6399.173077458,9,6398.503386541,6398.564423625,6399.183133375,6399.993138291,1,0.731435333000263
141,25,4,categorization,0,bathroom,SHINEd_sun_agrwbmhcpmfuwmsg.tif,24,0.0666666666666667,0.0666666666666667,1.96666666666667,6399.997783916,6400.685638041,9,6400.059607208,6400.120547958,6400.689137125,6402.649170583,0,0.687854124999831
141,26,4,categorization,0,kitchen,SHINEd_sun_aadbddgrdsjugojn.tif,64,0.0666666666666667,0.0666666666666667,0.916666666666667,6402.667822666,6403.333141416,13,6402.73469775,6402.798635083,6403.355882875,6404.265887458,0,0.665318750000552
141,27,4,categorization,0,bathroom,SHINEd_sun_akiytfaagpdsphgz.tif,31,0.0666666666666667,0.0666666666666667,1.28333333333333,6404.270990958,6406.253561708,13,6404.332773,6404.393775208,6406.262957083,6407.539661375,1,1.98257075000038
141,28,4,categorization,0,bathroom,SHINEd_sun_aclfzgynxzxlbepz.tif,19,0.0666666666666667,0.0666666666666667,1.8,6407.558012458,6408.368340041,13,6407.6251785,6407.691491541,6408.398521625,6410.191890541,1,0.810327582999889
141,29,4,categorization,0,kitchen,SHINEd_sun_aixorpehvfykdynp.tif,95,0.0666666666666667,0.0666666666666667,1.33333333333333,6410.210174125,6410.885103208,9,6410.277626291,6410.343251333,6410.89797175,6412.224694041,1,0.674929083000279
141,30,4,categorization,0,kitchen,SHINEd_sun_azmutvzbxypaceni.tif,110,0.0666666666666667,0.0666666666666667,1.06666666666667,6412.243173083,6413.229602833,9,6412.310274291,6412.377055208,6413.250675083,6414.310711458,1,0.986429749999843
141,31,4,categorization,0,bathroom,SHINEd_sun_aapitsgbtktqubfy.tif,12,0.0666666666666667,0.0666666666666667,1.03333333333333,6414.321634583,6415.38553525,13,6414.386496833,6414.45225125,6415.409429083,6416.436129041,1,1.06390066700078
141,32,4,categorization,0,bathroom,SHINEd_sun_apjevzvycyhuqghb.tif,43,0.0666666666666667,0.0666666666666667,0.733333333333333,6416.449549708,6417.376466666,13,6416.513892833,6416.581828791,6417.40581175,6418.132536916,1,0.92691695800022
141,33,4,categorization,0,bathroom,SHINEd_labelme_sfxiulhjbhlyiyt.tif,11,0.0666666666666667,0.0666666666666667,0.766666666666667,6418.149519916,6419.037006458,13,6418.216667,6418.282901333,6419.051773166,6419.811778333,1,0.887486542000261
141,34,4,categorization,0,bathroom,SHINEd_sun_aqrpegblszgcoujh.tif,48,0.0666666666666667,0.0666666666666667,1.1,6419.81677725,6420.917679541,13,6419.878569208,6419.939562916,6420.924677625,6422.01804925,1,1.10090229100024
141,35,4,categorization,0,bathroom,SHINEd_sun_aghyqhbptboemmoq.tif,23,0.0666666666666667,0.0666666666666667,1.81666666666667,6422.027522875,6422.668262958,9,6422.093154291,6422.160624625,6422.681573458,6424.491631333,0,0.64074008300031
141,36,4,categorization,0,kitchen,SHINEd_sun_aymvwlarqodbwuoc.tif,108,0.0666666666666667,0.0666666666666667,0.883333333333333,6424.507976125,6425.179031583,9,6424.57488775,6424.641593083,6425.198552041,6426.075269541,1,0.67105545800041
141,37,4,categorization,0,bathroom,SHINEd_sun_ausgutylgojavyoq.tif,53,0.0666666666666667,0.0666666666666667,1.7,6426.091169958,6426.876879666,13,6426.153971333,6426.214166291,6426.882602875,6428.575974333,1,0.785709707999558
141,38,4,categorization,0,kitchen,SHINEd_sun_agubuxuukhzyzpdp.tif,88,0.0666666666666667,0.0666666666666667,1.58333333333333,6428.593158916,6429.723867708,13,6428.661396125,6428.726587291,6429.74959525,6431.326315875,0,1.13070879200041
141,39,4,categorization,0,bathroom,SHINEd_sun_ahcvzmoyaycdoftf.tif,27,0.0666666666666667,0.0666666666666667,0.833333333333333,6431.3450635,6432.145898541,13,6431.413592416,6431.478752125,6432.169214291,6432.995886333,1,0.800835041000028
141,40,4,categorization,0,bathroom,SHINEd_sun_aleqenyvunhactkl.tif,32,0.0666666666666667,0.0666666666666667,0.95,6433.001058458,6433.94961075,9,6433.062783125,6433.124171583,6433.959748583,6434.9030865,0,0.948552291999476
141,41,4,categorization,0,bathroom,SHINEd_sun_aofnryafpsjimzsb.tif,40,0.0666666666666667,0.0666666666666667,1.06666666666667,6434.908050083,6437.341072291,13,6434.969740666,6435.030891125,6437.349979208,6438.410026916,1,2.43302220800069
141,42,4,categorization,0,bathroom,SHINEd_sun_abjtwfukuwddzted.tif,15,0.0666666666666667,0.0666666666666667,1.68333333333333,6438.42110075,6439.101792083,13,6438.485573375,6438.551944583,6439.125504583,6440.802201833,1,0.680691333000141
141,43,4,categorization,0,kitchen,SHINEd_sun_aaxxjlsuzvqlgylf.tif,68,0.0666666666666667,0.0666666666666667,1.31666666666667,6440.811682083,6441.477445833,9,6440.87700575,6440.941821416,6441.498102916,6442.808156666,1,0.665763750000224
141,44,4,categorization,0,kitchen,SHINEd_sun_abpwyqmlzafvklqo.tif,72,0.0666666666666667,0.0666666666666667,1.61666666666667,6442.818414458,6443.415166083,9,6442.88330175,6442.94948825,6443.439773333,6445.049819125,1,0.596751625000252
141,45,4,categorization,0,kitchen,SHINEd_sun_awcpdzzznmweyyhv.tif,106,0.0666666666666667,0.0666666666666667,1.15,6445.07015775,6445.976255458,9,6445.137013625,6445.203538625,6445.992915541,6447.136303166,1,0.906097707999834
141,46,4,categorization,0,bathroom,SHINEd_sun_ambriybtogmepttm.tif,36,0.0666666666666667,0.0666666666666667,1.25,6447.145732416,6448.014746916,13,6447.210890041,6447.279334625,6448.036108333,6449.279498791,1,0.869014500000048
141,47,4,categorization,0,kitchen,SHINEd_sun_acgtpgfybqjmzeyw.tif,75,0.0666666666666667,0.0666666666666667,1.1,6449.301045125,6450.313789333,9,6449.368439666,6449.434544958,6450.341695,6451.435071791,1,1.01274420800019
141,48,4,categorization,0,kitchen,SHINEd_sun_aamedkxepzlwuxes.tif,65,0.0666666666666667,0.0666666666666667,0.9,6451.445874666,6452.039727958,9,6451.510993291,6451.579872833,6452.070428916,6452.963805,1,0.593853291999949
141,49,4,categorization,0,bathroom,SHINEd_sun_agguqiubmwhqqunb.tif,22,0.0666666666666667,0.0666666666666667,1.3,6452.982849375,6453.884850833,9,6453.049753375,6453.117612833,6453.903488458,6455.196860416,0,0.902001458000086
141,50,4,categorization,0,bathroom,SHINEd_sun_apkruvsevgegsdwp.tif,44,0.0666666666666667,0.0666666666666667,1.25,6455.21839275,6455.940195375,13,6455.286182375,6455.353308166,6455.959975375,6457.20335925,1,0.721802625000237
