sub_num,trial,block,task,is_practice,category,image,texture,duration,mask_dur,jitter,stim_time,time_of_resp,trial_response,mask_time,fix_time,jit_onset,trial_end,trial_accuracy,RT
141,1,11,categorization,0,bathroom,SHINEd_sun_apmqjbnwghzuhhzh.tif,46,0.0666666666666667,0.0666666666666667,0.8,7159.356509833,7160.961829125,13,7159.418732,7159.479615375,7160.981955875,7161.775293916,1,1.60531929199988
141,2,11,categorization,0,bathroom,SHINEd_sun_aleqenyvunhactkl.tif,32,0.0666666666666667,0.0666666666666667,1.13333333333333,7161.780481916,7162.834412541,13,7161.842331583,7161.903202416,7162.838315666,7163.965016666,1,1.05393062500025
141,3,11,categorization,0,kitchen,SHINEd_sun_aeqdocilnnpuvuhx.tif,83,0.0666666666666667,0.0666666666666667,1.05,7163.974114,7164.690131708,13,7164.040092333,7164.1062015,7164.712438166,7165.755828083,0,0.716017708000436
141,4,11,categorization,0,kitchen,SHINEd_sun_aenotlpyftoioydp.tif,82,0.0666666666666667,0.0666666666666667,1.05,7165.773311,7166.602771583,9,7165.840155375,7165.899087166,7166.618012291,7167.661389708,1,0.829460582999673
141,5,11,categorization,0,bathroom,SHINEd_sun_alkosphxlxwjwgjd.tif,34,0.0666666666666667,0.0666666666666667,1.63333333333333,7167.670736833,7168.382294125,13,7167.735511541,7167.802334916,7168.409238041,7170.0359565,1,0.71155729200018
141,6,11,categorization,0,bathroom,SHINEd_sun_anryaplzeujmzfkd.tif,39,0.0666666666666667,0.0666666666666667,0.85,7170.055172875,7170.652009541,13,7170.123206291,7170.188662833,7170.679363541,7171.52275275,1,0.596836665999945
141,7,11,categorization,0,kitchen,SHINEd_sun_aapllqyqlykszopd.tif,66,0.0666666666666667,0.0666666666666667,1.5,7171.541572125,7172.289633875,13,7171.608367208,7171.674899541,7172.294335666,7173.787703,0,0.748061749999579
141,8,11,categorization,0,kitchen,SHINEd_sun_admlmbcdswaszruo.tif,79,0.0666666666666667,0.0666666666666667,1.46666666666667,7173.8043345,7174.519295958,9,7173.870887708,7173.937729583,7174.544508541,7176.004550875,1,0.714961458000289
141,9,11,categorization,0,bathroom,SHINEd_sun_acegryoqftbzowsg.tif,17,0.0666666666666667,0.0666666666666667,1.06666666666667,7176.023127666,7177.16784225,13,7176.09072825,7176.156457541,7177.197483333,7178.257527125,1,1.14471458400021
141,10,11,categorization,0,bathroom,SHINEd_sun_apjevzvycyhuqghb.tif,43,0.0666666666666667,0.0666666666666667,0.8,7178.267593333,7179.748974791,9,7178.333436916,7178.399874416,7179.775401833,7180.568738958,0,1.48138145800021
141,11,11,categorization,0,bathroom,SHINEd_sun_ausgutylgojavyoq.tif,53,0.0666666666666667,0.0666666666666667,1.41666666666667,7180.574115458,7181.185943791,13,7180.635995125,7180.696923,7181.199056916,7182.609095125,1,0.611828332999721
141,12,11,categorization,0,kitchen,SHINEd_sun_agzzivivdpnawacl.tif,89,0.0666666666666667,0.0666666666666667,1.71666666666667,7182.626131125,7183.40582875,9,7182.693672291,7182.759473208,7183.432881958,7185.142929875,1,0.779697625000153
141,13,11,categorization,0,bathroom,SHINEd_sun_acduarbnmmoglmiv.tif,16,0.0666666666666667,0.0666666666666667,0.833333333333333,7185.163674208,7185.840025041,13,7185.230324375,7185.297065791,7185.870298541,7186.696968958,1,0.67635083300047
141,14,11,categorization,0,kitchen,SHINEd_sun_aegoxogugdkwpmpj.tif,80,0.0666666666666667,0.0666666666666667,0.783333333333333,7186.70194425,7187.394570791,13,7186.763720291,7186.824737458,7187.410249,7188.186919291,0,0.692626540999299
141,15,11,categorization,0,bathroom,SHINEd_labelme_sfxiulhjbhlyiyt.tif,11,0.0666666666666667,0.0666666666666667,0.866666666666667,7188.191720291,7188.769982416,13,7188.253516291,7188.31451675,7188.782773791,7189.642778375,1,0.578262125000037
141,16,11,categorization,0,bathroom,SHINEd_sun_akiytfaagpdsphgz.tif,31,0.0666666666666667,0.0666666666666667,1.08333333333333,7189.647636833,7190.425575583,13,7189.709769583,7189.770445916,7190.439280875,7191.515994333,1,0.777938749999521
141,17,11,categorization,0,kitchen,SHINEd_sun_abpwyqmlzafvklqo.tif,72,0.0666666666666667,0.0666666666666667,1.1,7191.528312291,7192.142042333,9,7191.593157708,7191.658648333,7192.165911125,7193.259279958,1,0.613730042000498
141,18,11,categorization,0,bathroom,SHINEd_sun_apkruvsevgegsdwp.tif,44,0.0666666666666667,0.0666666666666667,1.5,7193.281380666,7193.906105291,13,7193.348643541,7193.414534625,7193.917278541,7195.410663541,1,0.624724625000454
141,19,11,categorization,0,kitchen,SHINEd_sun_akchetnepxlcxhsu.tif,98,0.0666666666666667,0.0666666666666667,0.833333333333333,7195.42788575,7196.083055791,13,7195.495116166,7195.561156208,7196.100927,7196.927639458,0,0.655170041000019
141,20,11,categorization,0,bathroom,SHINEd_sun_aapitsgbtktqubfy.tif,12,0.0666666666666667,0.0666666666666667,1.76666666666667,7196.937836666,7197.506095791,13,7197.000488666,7197.060752583,7197.512978083,7199.273020375,1,0.568259124999713
141,21,11,categorization,0,kitchen,SHINEd_sun_axyyrmzcupyhlivc.tif,107,0.0666666666666667,0.0666666666666667,1.18333333333333,7199.290624541,7199.884011375,13,7199.359306208,7199.42389875,7199.913581458,7201.090289791,0,0.59338683399983
141,22,11,categorization,0,kitchen,SHINEd_sun_ahdycvpopffkzzsu.tif,90,0.0666666666666667,0.0666666666666667,0.933333333333333,7201.100259416,7201.660887125,9,7201.16757575,7201.233620416,7201.690558625,7202.617268541,1,0.560627709000073
141,23,11,categorization,0,kitchen,SHINEd_sun_ajkqhtgcbgpcwrwn.tif,97,0.0666666666666667,0.0666666666666667,0.716666666666667,7202.63526075,7203.32229325,9,7202.702337625,7202.76518675,7203.333991833,7204.043997291,1,0.687032499999987
141,24,11,categorization,0,bathroom,SHINEd_sun_aoybiabnpadelefl.tif,41,0.0666666666666667,0.0666666666666667,1.25,7204.0488405,7204.682416916,9,7204.1105925,7204.171610708,7204.690485416,7205.933860625,0,0.633576416000324
141,25,11,categorization,0,kitchen,SHINEd_sun_aexklacwqwezaorf.tif,84,0.0666666666666667,0.0666666666666667,0.866666666666667,7205.951182291,7206.679612625,9,7206.020340375,7206.084808541,7206.708445041,7207.568495083,1,0.728430334000223
141,26,11,categorization,0,bathroom,SHINEd_sun_ahijqszoswveeyji.tif,28,0.0666666666666667,0.0666666666666667,1.08333333333333,7207.585721916,7208.289604125,13,7207.653068166,7207.71889025,7208.30485725,7209.381558583,1,0.703882208999858
141,27,11,categorization,0,bathroom,SHINEd_sun_ambriybtogmepttm.tif,36,0.0666666666666667,0.0666666666666667,1.9,7209.390847291,7210.090736791,13,7209.455477041,7209.523455,7210.113735958,7212.007125916,1,0.699889500000609
141,28,11,categorization,0,bathroom,SHINEd_sun_asfwthctfqerjvxr.tif,49,0.0666666666666667,0.0666666666666667,0.866666666666667,7212.025880083,7212.718652208,13,7212.094339791,7212.159306041,7212.749254625,7213.609259,1,0.692772125000374
141,29,11,categorization,0,bathroom,SHINEd_sun_aspsyogrekjtfozg.tif,50,0.0666666666666667,0.0666666666666667,1.05,7213.614350666,7214.281923541,13,7213.676060375,7213.73725625,7214.289213375,7215.332590125,1,0.667572874999678
141,30,11,categorization,0,kitchen,SHINEd_sun_ahpczsiumwwocjkv.tif,92,0.0666666666666667,0.0666666666666667,1.65,7215.345730666,7216.046659666,9,7215.410738833,7215.477804416,7216.067683833,7217.711073791,1,0.700928999999633
141,31,11,categorization,0,bathroom,SHINEd_sun_alotolagknyrgtsk.tif,35,0.0666666666666667,0.0666666666666667,0.716666666666667,7217.730775291,7218.245253416,9,7217.797876791,7217.865032375,7218.27203475,7218.982080166,0,0.514478125000096
141,32,11,categorization,0,kitchen,SHINEd_labelme_kxvouciolcpqplr.tif,62,0.0666666666666667,0.0666666666666667,1.36666666666667,7218.999164583,7219.818029,9,7219.06622425,7219.132917875,7219.835738875,7221.195788625,1,0.818864417000441
141,33,11,categorization,0,kitchen,SHINEd_sun_ahljzhgcdpomplvg.tif,91,0.0666666666666667,0.0666666666666667,1.11666666666667,7221.213176583,7222.027422958,9,7221.280688375,7221.34722475,7222.054613291,7223.16465825,1,0.814246375000039
141,34,11,categorization,0,kitchen,SHINEd_sun_afuyedyxivkhecmu.tif,85,0.0666666666666667,0.0666666666666667,0.983333333333333,7223.174295,7223.862161375,9,7223.239698916,7223.307783166,7223.88097225,7224.857676833,1,0.68786637500034
141,35,11,categorization,0,kitchen,SHINEd_labelme_rykdqxenmhulbdn.tif,63,0.0666666666666667,0.0666666666666667,1.15,7224.86730025,7225.394463541,9,7224.932532,7225.000607625,7225.402626916,7226.546012583,1,0.527163290999852
141,36,11,categorization,0,bathroom,SHINEd_sun_ahqjwnzgolcaoidx.tif,29,0.0666666666666667,0.0666666666666667,1.08333333333333,7226.555852833,7227.281781,13,7226.624644416,7226.688670291,7227.312062041,7228.388764583,1,0.725928166999438
141,37,11,categorization,0,kitchen,SHINEd_sun_agubuxuukhzyzpdp.tif,88,0.0666666666666667,0.0666666666666667,1.21666666666667,7228.406269708,7229.233353333,9,7228.468957916,7228.52912775,7229.247763625,7230.457807625,1,0.827083625000341
141,38,11,categorization,0,kitchen,SHINEd_sun_avszsnwsbuqfgzbn.tif,105,0.0666666666666667,0.0666666666666667,0.783333333333333,7230.475163875,7230.997543208,9,7230.541918083,7230.60833375,7231.014362166,7231.791086958,1,0.522379332999662
141,39,11,categorization,0,kitchen,SHINEd_sun_abftihopvusyfakt.tif,71,0.0666666666666667,0.0666666666666667,1,7231.808058125,7232.306861083,9,7231.874583208,7231.941032666,7232.331022791,7233.324360166,1,0.498802957999942
141,40,11,categorization,0,kitchen,SHINEd_sun_akcjzhbbjlbogpdi.tif,99,0.0666666666666667,0.0666666666666667,1.83333333333333,7233.329322166,7233.889915166,9,7233.3912055,7233.452175458,7233.904054791,7235.730767916,1,0.560593000000154
141,41,11,categorization,0,bathroom,SHINEd_sun_agguqiubmwhqqunb.tif,22,0.0666666666666667,0.0666666666666667,1.15,7235.748412791,7236.404577625,9,7235.815333291,7235.881777291,7236.421150166,7237.564535,0,0.656164833999355
141,42,11,categorization,0,kitchen,SHINEd_sun_azmutvzbxypaceni.tif,110,0.0666666666666667,0.0666666666666667,1.33333333333333,7237.573862583,7238.2102245,13,7237.640818666,7237.708214083,7238.231043,7239.557766291,0,0.636361916999704
141,43,11,categorization,0,bathroom,SHINEd_sun_avhrdrntsqrjzccq.tif,55,0.0666666666666667,0.0666666666666667,1.11666666666667,7239.567405541,7240.420706041,13,7239.632760541,7239.700965833,7240.439657708,7241.549701416,1,0.853300499999932
141,44,11,categorization,0,kitchen,SHINEd_sun_adgqasybjyktddhj.tif,78,0.0666666666666667,0.0666666666666667,1.91666666666667,7241.567032416,7242.161898,9,7241.634103208,7241.691039125,7242.17656925,7244.086617375,1,0.594865584000217
141,45,11,categorization,0,bathroom,SHINEd_sun_axldvoqbuvuggfmq.tif,57,0.0666666666666667,0.0666666666666667,0.783333333333333,7244.103600416,7244.820040083,13,7244.170737708,7244.238527083,7244.843369916,7245.620040125,1,0.716439667000486
141,46,11,categorization,0,kitchen,SHINEd_sun_aaxxjlsuzvqlgylf.tif,68,0.0666666666666667,0.0666666666666667,1,7245.625126375,7246.242086,9,7245.686776708,7245.747963333,7246.249975416,7247.243313375,1,0.616959625000163
141,47,11,categorization,0,bathroom,SHINEd_sun_aghyqhbptboemmoq.tif,23,0.0666666666666667,0.0666666666666667,1.38333333333333,7247.248362916,7248.001979833,13,7247.310007958,7247.371242208,7248.006743458,7249.383466666,1,0.753616917000727
141,48,11,categorization,0,bathroom,SHINEd_sun_apeeialkgkuxddgh.tif,42,0.0666666666666667,0.0666666666666667,1.55,7249.401246375,7250.242138208,13,7249.468142458,7249.534165791,7250.256615541,7251.799996291,1,0.840891833000569
141,49,11,categorization,0,bathroom,SHINEd_sun_aljolscmmzydegqp.tif,33,0.0666666666666667,0.0666666666666667,1.03333333333333,7251.81735625,7252.588748625,13,7251.884648875,7251.950744958,7252.607005041,7253.633729916,1,0.771392375000687
141,50,11,categorization,0,bathroom,SHINEd_sun_ahaulkltgpkeeemi.tif,26,0.0666666666666667,0.0666666666666667,1.46666666666667,7253.644754,7254.297401458,13,7253.710384958,7253.776749458,7254.315723125,7255.775766625,1,0.652647458000502
