sub_num,trial,block,task,is_practice,category,image,texture,duration,mask_dur,jitter,stim_time,time_of_resp,trial_response,mask_time,fix_time,jit_onset,trial_end,trial_accuracy,RT
134,6,0,aesthetic,1,kitchen,kitchen_practice2.tif,227,1.5,0,1.08333333333333,17929.087182375,17932.694023584,5,NaN,17932.699894959,17932.718263292,17933.79499275,NaN,NaN
134,7,0,aesthetic,1,kitchen,kitchen_practice1.tif,226,1.5,0,1.06666666666667,17933.807125334,17936.73381425,3,NaN,17936.739576542,17936.757753417,17937.817835584,NaN,NaN
134,8,0,aesthetic,1,kitchen,kitchen_practice4.tif,229,1.5,0,1.11666666666667,17937.825475542,17940.253877584,6,NaN,17940.259364042,17940.277628542,17941.387690375,NaN,NaN
134,9,0,aesthetic,1,kitchen,kitchen_practice3.tif,228,1.5,0,0.95,17941.397395667,17944.34933,5,NaN,17944.355342792,17944.374106625,17945.317446542,NaN,NaN
134,10,0,aesthetic,1,kitchen,kitchen_practice5.tif,230,1.5,0,0.9,17945.32176075,17947.7355665,3,NaN,17947.760824,17947.783914459,17948.677258292,NaN,NaN
134,1,1,aesthetic,0,kitchen,sun_ahljzhgcdpomplvg.tif,201,1.5,0,1.48333333333333,17953.137406375,17956.581952959,2,NaN,17956.587424625,17956.605868917,17958.08263025,NaN,NaN
134,2,1,aesthetic,0,kitchen,sun_afuyedyxivkhecmu.tif,195,1.5,0,1.46666666666667,17958.101547625,17960.917389875,5,NaN,17960.9234245,17960.941694,17962.401771584,NaN,NaN
134,3,1,aesthetic,0,kitchen,sun_adgqasybjyktddhj.tif,188,1.5,0,0.766666666666667,17962.419657209,17964.822051875,4,NaN,17964.827482834,17964.845813709,17965.605826167,NaN,NaN
134,4,1,aesthetic,0,kitchen,sun_ahpczsiumwwocjkv.tif,202,1.5,0,1.16666666666667,17965.622495875,17968.249561375,2,NaN,17968.275815292,17968.298813917,17969.458907875,NaN,NaN
134,5,1,aesthetic,0,kitchen,sun_agorklincwxrdtga.tif,197,1.5,0,1.6,17969.468642709,17973.238275292,7,NaN,17973.2439225,17973.262221917,17974.8556295,NaN,NaN
134,6,1,aesthetic,0,kitchen,sun_auaiucuqpdausiva.tif,212,1.5,0,1.68333333333333,17974.876745209,17977.774065459,7,NaN,17977.779621209,17977.798015167,17979.474765584,NaN,NaN
134,7,1,aesthetic,0,kitchen,sun_aapllqyqlykszopd.tif,176,1.5,0,1.5,17979.49311975,17984.053611375,3,NaN,17984.059255167,17984.077795334,17985.57119375,NaN,NaN
134,8,1,aesthetic,0,kitchen,sun_awcpdzzznmweyyhv.tif,216,1.5,0,0.833333333333333,17985.592498,17988.9019965,6,NaN,17988.907573417,17988.925891042,17989.752564417,NaN,NaN
134,9,1,aesthetic,0,kitchen,sun_aadbddgrdsjugojn.tif,174,1.5,0,0.9,17989.757467209,17992.633280417,5,NaN,17992.662724125,17992.68620925,17993.57955325,NaN,NaN
134,10,1,aesthetic,0,kitchen,sun_aegoxogugdkwpmpj.tif,190,1.5,0,0.933333333333333,17993.584394959,17997.493571334,5,NaN,17997.499284167,17997.517670709,17998.444346125,NaN,NaN
134,11,1,aesthetic,0,kitchen,sun_abrcnpqqhmjwekyf.tif,183,1.5,0,0.9,17998.448706709,18001.0268405,3,NaN,18001.055329542,18001.079789334,18001.973132709,NaN,NaN
134,12,1,aesthetic,0,kitchen,sun_avszsnwsbuqfgzbn.tif,215,1.5,0,0.85,18001.988898125,18004.890608709,4,NaN,18004.91934175,18004.943374,18005.7867155,NaN,NaN
134,13,1,aesthetic,0,kitchen,labelme_kxvouciolcpqplr.tif,172,1.5,0,1.83333333333333,18005.791495167,18008.798017,1,NaN,18008.813220125,18008.832362167,18010.659123,NaN,NaN
134,14,1,aesthetic,0,kitchen,sun_agzzivivdpnawacl.tif,199,1.5,0,0.733333333333333,18010.678383292,18013.789244125,3,NaN,18013.813264875,18013.836430417,18014.563108375,NaN,NaN
134,15,1,aesthetic,0,kitchen,sun_aunzlwrbjumxhwdj.tif,213,1.5,0,1.63333333333333,18014.568041459,18018.549779875,4,NaN,18018.555395667,18018.574485834,18020.201209667,NaN,NaN
134,16,1,aesthetic,0,kitchen,sun_aymvwlarqodbwuoc.tif,218,1.5,0,0.766666666666667,18020.220682375,18026.236972667,4,NaN,18026.242938334,18026.261247584,18027.02125375,NaN,NaN
134,17,1,aesthetic,0,kitchen,sun_abpwyqmlzafvklqo.tif,182,1.5,0,1.71666666666667,18027.025796459,18029.896928,3,NaN,18029.925981042,18029.949420375,18031.65950425,NaN,NaN
134,18,1,aesthetic,0,kitchen,sun_abdxkyyxwfskuaqb.tif,180,1.5,0,1.51666666666667,18031.675512334,18034.557754209,2,NaN,18034.578942834,18034.600067375,18036.110158417,NaN,NaN
134,19,1,aesthetic,0,kitchen,sun_aaxxjlsuzvqlgylf.tif,178,1.5,0,1.25,18036.128604042,18038.965078084,3,NaN,18038.970852084,18038.989373292,18040.232802375,NaN,NaN
134,20,1,aesthetic,0,kitchen,sun_azmutvzbxypaceni.tif,220,1.5,0,1.41666666666667,18040.251411875,18043.797145,4,NaN,18043.80300625,18043.821444917,18045.2315065,NaN,NaN
134,21,1,aesthetic,0,kitchen,sun_axyyrmzcupyhlivc.tif,217,1.5,0,1.1,18045.241504167,18049.029521792,5,NaN,18049.034977542,18049.053396875,18050.146785542,NaN,NaN
134,22,1,aesthetic,0,kitchen,sun_ajkqhtgcbgpcwrwn.tif,207,1.5,0,0.95,18050.156119834,18053.300878875,3,NaN,18053.306754417,18053.324996,18054.268335625,NaN,NaN
134,23,1,aesthetic,0,kitchen,sun_aamedkxepzlwuxes.tif,175,1.5,0,1.45,18054.273917917,18057.4386955,2,NaN,18057.445635209,18057.464067042,18058.907460292,NaN,NaN
134,24,1,aesthetic,0,kitchen,sun_akcjzhbbjlbogpdi.tif,209,1.5,0,0.883333333333333,18058.921692625,18062.9496225,3,NaN,18062.955554084,18062.974194459,18063.85086725,NaN,NaN
134,25,1,aesthetic,0,kitchen,sun_ahywdevtimnqcsln.tif,204,1.5,0,1.23333333333333,18063.855514667,18068.261795667,4,NaN,18068.268064292,18068.286349709,18069.513103084,NaN,NaN
134,1,2,aesthetic,0,kitchen,sun_aeqdocilnnpuvuhx.tif,193,1.5,0,1.78333333333333,18078.336497459,18082.309828334,2,NaN,18082.315885417,18082.33445775,18084.111195625,NaN,NaN
134,2,2,aesthetic,0,kitchen,sun_aggjlwcdjsjcaemh.tif,196,1.5,0,1.8,18084.130354,18087.805706292,3,NaN,18087.811143417,18087.829509209,18089.6229425,NaN,NaN
134,3,2,aesthetic,0,kitchen,sun_aixorpehvfykdynp.tif,205,1.5,0,0.8,18089.641751334,18092.578448209,5,NaN,18092.608146125,18092.631626917,18093.424967,NaN,NaN
134,4,2,aesthetic,0,kitchen,sun_acfmftudsenhrfhy.tif,184,1.5,0,1.01666666666667,18093.42974,18096.749483625,4,NaN,18096.755093917,18096.773367584,18097.783448792,NaN,NaN
134,5,2,aesthetic,0,kitchen,sun_acxkpeoqbwcxfvip.tif,187,1.5,0,0.85,18097.791762917,18100.509372875,3,NaN,18100.514869417,18100.533243625,18101.376584417,NaN,NaN
134,6,2,aesthetic,0,kitchen,sun_admlmbcdswaszruo.tif,189,1.5,0,1.83333333333333,18101.381011375,18104.73351375,3,NaN,18104.738932625,18104.757245834,18106.5839925,NaN,NaN
134,7,2,aesthetic,0,kitchen,sun_aexklacwqwezaorf.tif,194,1.5,0,1.11666666666667,18106.602786875,18111.148943375,4,NaN,18111.154680042,18111.17331225,18112.283381375,NaN,NaN
134,8,2,aesthetic,0,kitchen,sun_agubuxuukhzyzpdp.tif,198,1.5,0,1.88333333333333,18112.293059042,18115.525425084,2,NaN,18115.531133167,18115.549473792,18117.426228709,NaN,NaN
134,9,2,aesthetic,0,kitchen,sun_aypmqwcualkenuoe.tif,219,1.5,0,0.916666666666667,18117.436743209,18120.062811709,5,NaN,18120.091107709,18120.1143435,18121.024354875,NaN,NaN
134,10,2,aesthetic,0,kitchen,labelme_rykdqxenmhulbdn.tif,173,1.5,0,1.05,18121.029030167,18124.133226375,4,NaN,18124.144674542,18124.163903875,18125.207292709,NaN,NaN
134,11,2,aesthetic,0,kitchen,sun_aqeaevwwwjoqhzvl.tif,211,1.5,0,1.35,18125.215103125,18128.077197209,1,NaN,18128.082664084,18128.100933792,18129.444339292,NaN,NaN
134,12,2,aesthetic,0,kitchen,sun_ahspylgoovwmwvgk.tif,203,1.5,0,1.01666666666667,18129.457167042,18132.396791,3,NaN,18132.402592875,18132.420971292,18133.431040834,NaN,NaN
134,13,2,aesthetic,0,kitchen,sun_aehawpgmrlhlvcow.tif,191,1.5,0,2,18133.438758584,18136.045362209,2,NaN,18136.050854542,18136.069288834,18138.0627065,NaN,NaN
134,14,2,aesthetic,0,kitchen,sun_ahdycvpopffkzzsu.tif,200,1.5,0,0.9,18138.080686584,18143.085461417,4,NaN,18143.090920584,18143.1091345,18144.002479375,NaN,NaN
134,15,2,aesthetic,0,kitchen,sun_akchetnepxlcxhsu.tif,208,1.5,0,1.15,18144.00700075,18146.728568375,5,NaN,18146.757971125,18146.780518709,18147.923915459,NaN,NaN
134,16,2,aesthetic,0,kitchen,sun_abdenxonkemggwsq.tif,179,1.5,0,1.23333333333333,18147.933203375,18153.469069125,6,NaN,18153.474817292,18153.49323275,18154.720002959,NaN,NaN
134,17,2,aesthetic,0,kitchen,sun_ajcbwwvdlsvjyzje.tif,206,1.5,0,1.03333333333333,18154.735273125,18157.573248709,5,NaN,18157.578667875,18157.596999625,18158.623761875,NaN,NaN
134,18,2,aesthetic,0,kitchen,sun_acgtpgfybqjmzeyw.tif,185,1.5,0,0.783333333333333,18158.63205675,18161.892983959,3,NaN,18161.8984955,18161.91688475,18162.693560959,NaN,NaN
134,19,2,aesthetic,0,kitchen,sun_acwjdupvyjsugpay.tif,186,1.5,0,0.766666666666667,18162.704903875,18165.610076042,4,NaN,18165.639196709,18165.661693667,18166.421703042,NaN,NaN
134,20,2,aesthetic,0,kitchen,sun_auticobqsbwgoppi.tif,214,1.5,0,1.18333333333333,18166.426437959,18168.804917167,2,NaN,18168.825831834,18168.848798625,18170.0255455,NaN,NaN
134,21,2,aesthetic,0,kitchen,sun_aenotlpyftoioydp.tif,192,1.5,0,0.7,18170.0364945,18173.253080209,2,NaN,18173.258669042,18173.277098959,18173.970442834,NaN,NaN
134,22,2,aesthetic,0,kitchen,labelme_brsyyvweiuaazfr.tif,171,1.5,0,0.7,18173.974612875,18178.213457125,3,NaN,18178.218950542,18178.237379292,18178.930722375,NaN,NaN
134,23,2,aesthetic,0,kitchen,sun_abftihopvusyfakt.tif,181,1.5,0,1.55,18178.935296917,18182.276977292,3,NaN,18182.2827775,18182.301203209,18183.844626084,NaN,NaN
134,24,2,aesthetic,0,kitchen,sun_aarfiyshqohlwkmo.tif,177,1.5,0,1.16666666666667,18183.862747625,18188.565126292,5,NaN,18188.570848417,18188.589051584,18189.749147125,NaN,NaN
134,25,2,aesthetic,0,kitchen,sun_amjjdeyrggfqgmom.tif,210,1.5,0,1.68333333333333,18189.761405292,18192.396351667,1,NaN,18192.40231225,18192.420749,18194.097496375,NaN,NaN
