sub_num,trial,block,task,is_practice,category,image,texture,duration,mask_dur,jitter,stim_time,time_of_resp,trial_response,mask_time,fix_time,jit_onset,trial_end,trial_accuracy,RT
123,1,23,categorization,0,bathroom,SHINEd_sun_acegryoqftbzowsg.tif,17,0.0666666666666667,0.0666666666666667,0.916666666666667,3361.343751166,3362.4699775,13,3361.405891375,3361.466447625,3362.484960625,3363.394964416,1,1.12622633399997
123,2,23,categorization,0,bathroom,SHINEd_sun_apkruvsevgegsdwp.tif,44,0.0666666666666667,0.0666666666666667,1.61666666666667,3363.399463291,3363.96578475,13,3363.461255541,3363.522307833,3363.97423175,3365.584271791,1,0.566321458999937
123,3,23,categorization,0,kitchen,SHINEd_sun_aunzlwrbjumxhwdj.tif,103,0.0666666666666667,0.0666666666666667,1.05,3365.601641916,3366.309953708,9,3365.667737333,3365.733690708,3366.340075916,3367.383445083,1,0.708311792000131
123,4,23,categorization,0,kitchen,SHINEd_sun_aegoxogugdkwpmpj.tif,80,0.0666666666666667,0.0666666666666667,1.76666666666667,3367.394658416,3368.011240666,13,3367.459707666,3367.525823166,3368.032304541,3369.792354625,0,0.616582250000192
123,5,23,categorization,0,kitchen,SHINEd_sun_amjjdeyrggfqgmom.tif,100,0.0666666666666667,0.0666666666666667,0.816666666666667,3369.810852916,3370.537356083,9,3369.875163416,3369.938989416,3370.561973291,3371.372012291,1,0.726503166999919
123,6,23,categorization,0,bathroom,SHINEd_sun_axxbkopsgyouuebh.tif,58,0.0666666666666667,0.0666666666666667,1.65,3371.388923916,3371.997271791,13,3371.455600791,3371.521726458,3372.006852583,3373.650236166,1,0.608347875000163
123,7,23,categorization,0,bathroom,SHINEd_sun_aavhrsfjbserjtht.tif,13,0.0666666666666667,0.0666666666666667,1.65,3373.66751625,3374.2754405,13,3373.734249916,3373.800049833,3374.288533708,3375.931907416,1,0.607924249999996
123,8,23,categorization,0,bathroom,SHINEd_sun_aghyqhbptboemmoq.tif,23,0.0666666666666667,0.0666666666666667,1.21666666666667,3375.943015875,3376.573444875,9,3376.009497458,3376.075502625,3376.598672875,3377.808717416,0,0.630428999999822
123,9,23,categorization,0,kitchen,SHINEd_labelme_brsyyvweiuaazfr.tif,61,0.0666666666666667,0.0666666666666667,0.933333333333333,3377.820776166,3378.346803166,13,3377.885290833,3377.9506445,3378.373571791,3379.300287583,0,0.526026999999885
123,10,23,categorization,0,kitchen,SHINEd_sun_ahdycvpopffkzzsu.tif,90,0.0666666666666667,0.0666666666666667,0.933333333333333,3379.315928208,3379.973560958,13,3379.382440916,3379.448606333,3379.984067458,3380.910739458,0,0.657632749999721
123,11,23,categorization,0,bathroom,SHINEd_sun_aunuadmjocsddsrl.tif,52,0.0666666666666667,0.0666666666666667,0.983333333333333,3380.915750625,3381.469264,9,3380.97748425,3381.038484666,3381.4735395,3382.45020975,0,0.553513374999966
123,12,23,categorization,0,kitchen,SHINEd_sun_aymvwlarqodbwuoc.tif,108,0.0666666666666667,0.0666666666666667,1.03333333333333,3382.455198708,3382.98158475,9,3382.516791666,3382.577982541,3382.996580375,3384.023287416,1,0.526386042000013
123,13,23,categorization,0,kitchen,SHINEd_sun_axyyrmzcupyhlivc.tif,107,0.0666666666666667,0.0666666666666667,1.35,3384.034731666,3384.695864083,9,3384.098795708,3384.166152375,3384.722500875,3386.065846458,1,0.661132416999862
123,14,23,categorization,0,bathroom,SHINEd_sun_apkxzenqapsujocq.tif,45,0.0666666666666667,0.0666666666666667,0.95,3386.071808875,3386.788971,13,3386.133441291,3386.194566791,3386.796225583,3387.739563791,1,0.717162124999959
123,15,23,categorization,0,bathroom,SHINEd_sun_akiytfaagpdsphgz.tif,31,0.0666666666666667,0.0666666666666667,1.58333333333333,3387.744384791,3388.325209833,13,3387.806106791,3387.867248541,3388.3356935,3389.912415291,1,0.580825042000015
123,16,23,categorization,0,kitchen,SHINEd_sun_aaxxjlsuzvqlgylf.tif,68,0.0666666666666667,0.0666666666666667,0.766666666666667,3389.9231555,3390.608734,9,3389.989763041,3390.056387625,3390.629179916,3391.389183875,1,0.685578499999792
123,17,23,categorization,0,kitchen,SHINEd_sun_afuyedyxivkhecmu.tif,85,0.0666666666666667,0.0666666666666667,1.8,3391.394512625,3391.957491458,9,3391.456218625,3391.517152708,3391.96916075,3393.762532083,1,0.562978832999761
123,18,23,categorization,0,bathroom,SHINEd_sun_aljolscmmzydegqp.tif,33,0.0666666666666667,0.0666666666666667,0.95,3393.773407708,3394.33649275,9,3393.838416625,3393.901371916,3394.35789125,3395.301228416,0,0.563085042000239
123,19,23,categorization,0,kitchen,SHINEd_sun_agubuxuukhzyzpdp.tif,88,0.0666666666666667,0.0666666666666667,1.45,3395.306189625,3395.909104958,9,3395.367797125,3395.428796333,3395.914083291,3397.357470833,1,0.602915333000055
123,20,23,categorization,0,bathroom,SHINEd_sun_aggnnqpdorgxpvce.tif,21,0.0666666666666667,0.0666666666666667,1.15,3397.374648,3397.994494833,9,3397.441152833,3397.507758958,3398.01422725,3399.157597666,0,0.619846832999883
123,21,23,categorization,0,bathroom,SHINEd_sun_apeeialkgkuxddgh.tif,42,0.0666666666666667,0.0666666666666667,0.733333333333333,3399.168797083,3399.675084041,13,3399.235325416,3399.301385541,3399.690444666,3400.417160291,1,0.506286958000146
123,22,23,categorization,0,bathroom,SHINEd_sun_axldvoqbuvuggfmq.tif,57,0.0666666666666667,0.0666666666666667,0.933333333333333,3400.433263708,3400.946055166,13,3400.499396958,3400.562976875,3400.969723583,3401.896395083,1,0.512791457999811
123,23,23,categorization,0,bathroom,SHINEd_sun_agyqfjcfkdcydepw.tif,25,0.0666666666666667,0.0666666666666667,1.33333333333333,3401.9011605,3402.477762291,9,3401.962986708,3402.023906083,3402.492461583,3403.819172125,0,0.57660179100003
123,24,23,categorization,0,kitchen,SHINEd_sun_aenotlpyftoioydp.tif,82,0.0666666666666667,0.0666666666666667,1.91666666666667,3403.829825625,3404.554010208,9,3403.894654708,3403.959657208,3404.58285725,3406.492920958,1,0.724184582999897
123,25,23,categorization,0,kitchen,SHINEd_sun_aehawpgmrlhlvcow.tif,81,0.0666666666666667,0.0666666666666667,1.6,3406.50993025,3407.227527625,9,3406.576261791,3406.642545666,3407.24910125,3408.842481583,1,0.717597375000423
123,26,23,categorization,0,kitchen,SHINEd_sun_abftihopvusyfakt.tif,71,0.0666666666666667,0.0666666666666667,2,3408.859695541,3409.577333333,9,3408.926175583,3408.99246675,3409.5990595,3411.592449041,1,0.717637792000005
123,27,23,categorization,0,kitchen,SHINEd_sun_abdenxonkemggwsq.tif,69,0.0666666666666667,0.0666666666666667,1.06666666666667,3411.61109375,3412.353765375,9,3411.677699958,3411.743988125,3412.383952916,3413.443984375,1,0.742671625000185
123,28,23,categorization,0,kitchen,SHINEd_sun_abrcnpqqhmjwekyf.tif,73,0.0666666666666667,0.0666666666666667,1.28333333333333,3413.453799666,3415.629209,9,3413.518784416,3413.584317,3415.637300625,3416.914016,1,2.17540933400005
123,29,23,categorization,0,kitchen,SHINEd_sun_auaiucuqpdausiva.tif,102,0.0666666666666667,0.0666666666666667,0.95,3416.931158791,3417.886154166,9,3416.997997875,3417.064982583,3417.903445375,3418.84678275,1,0.954995374999726
123,30,23,categorization,0,bathroom,SHINEd_sun_ahaulkltgpkeeemi.tif,26,0.0666666666666667,0.0666666666666667,0.9,3418.854159583,3419.533507791,13,3418.916064208,3418.976904541,3419.545434125,3420.438771958,1,0.679348207999737
123,31,23,categorization,0,kitchen,SHINEd_sun_abdxkyyxwfskuaqb.tif,70,0.0666666666666667,0.0666666666666667,0.716666666666667,3420.443592833,3421.117551125,13,3420.505323041,3420.566311208,3421.135239,3421.84524325,0,0.673958291999952
123,32,23,categorization,0,kitchen,SHINEd_sun_ahljzhgcdpomplvg.tif,91,0.0666666666666667,0.0666666666666667,0.866666666666667,3421.849932458,3424.053172083,9,3421.911668833,3421.972681041,3424.058226,3424.918231583,1,2.20323962500015
123,33,23,categorization,0,bathroom,SHINEd_sun_agrwbmhcpmfuwmsg.tif,24,0.0666666666666667,0.0666666666666667,1.11666666666667,3424.923597166,3425.733548875,9,3424.98527925,3425.04622325,3425.748592083,3426.858647375,0,0.809951708999961
123,34,23,categorization,0,bathroom,SHINEd_sun_auzqhkafidnkrwmo.tif,54,0.0666666666666667,0.0666666666666667,0.866666666666667,3426.870241708,3427.5885255,13,3426.935001791,3427.003149833,3427.609524916,3428.4695745,1,0.718283791999966
123,35,23,categorization,0,bathroom,SHINEd_sun_ambriybtogmepttm.tif,36,0.0666666666666667,0.0666666666666667,1.83333333333333,3428.486059916,3429.2376535,13,3428.551356416,3428.618886791,3429.254786708,3431.081495333,1,0.751593583999693
123,36,23,categorization,0,bathroom,SHINEd_sun_afcoljnjfoxjtgja.tif,20,0.0666666666666667,0.0666666666666667,0.85,3431.098973791,3431.25635875,13,3431.165670791,3431.232247625,3431.27118675,3432.114551208,1,0.157384958999955
123,37,23,categorization,0,bathroom,SHINEd_sun_acduarbnmmoglmiv.tif,16,0.0666666666666667,0.0666666666666667,1.76666666666667,3432.128050166,3433.509263791,9,3432.194591041,3432.2604065,3433.529781458,3435.289816875,0,1.38121362500033
123,38,23,categorization,0,bathroom,SHINEd_sun_ahcvzmoyaycdoftf.tif,27,0.0666666666666667,0.0666666666666667,1.9,3435.308489583,3436.008573125,13,3435.375390375,3435.441165583,3436.031357166,3437.92474425,1,0.700083541999902
123,39,23,categorization,0,kitchen,SHINEd_sun_aapllqyqlykszopd.tif,66,0.0666666666666667,0.0666666666666667,1.61666666666667,3437.935223291,3438.628845916,13,3438.002077708,3438.0682065,3438.658185541,3440.268241333,0,0.693622624999989
123,40,23,categorization,0,kitchen,SHINEd_sun_auticobqsbwgoppi.tif,104,0.0666666666666667,0.0666666666666667,1.21666666666667,3440.286133041,3441.215307916,9,3440.353027041,3440.418981541,3441.242141208,3442.452193375,1,0.929174874999717
123,41,23,categorization,0,kitchen,SHINEd_sun_abpwyqmlzafvklqo.tif,72,0.0666666666666667,0.0666666666666667,1.2,3442.472230375,3443.106478291,13,3442.539121416,3442.605072041,3443.128623625,3444.322005791,0,0.634247915999822
123,42,23,categorization,0,bathroom,SHINEd_sun_aleqenyvunhactkl.tif,32,0.0666666666666667,0.0666666666666667,1.05,3444.33737325,3445.021630375,13,3444.400190666,3444.460113541,3445.0288165,3446.072190416,1,0.684257124999931
123,43,23,categorization,0,bathroom,SHINEd_sun_axyrejkiiaqiurjk.tif,59,0.0666666666666667,0.0666666666666667,1.01666666666667,3446.083132083,3446.754533041,13,3446.147845875,3446.214088416,3446.769894083,3447.779950833,1,0.671400958000049
123,44,23,categorization,0,bathroom,SHINEd_sun_ajlawzvmubibwbpy.tif,30,0.0666666666666667,0.0666666666666667,1.43333333333333,3447.7903215,3449.085615916,13,3447.854957375,3447.922318583,3449.091694125,3450.518408208,1,1.29529441599971
123,45,23,categorization,0,bathroom,SHINEd_sun_alotolagknyrgtsk.tif,35,0.0666666666666667,0.0666666666666667,1.5,3450.536595708,3451.293028,9,3450.603784333,3450.669233875,3451.308416333,3452.801796083,0,0.756432292000227
123,46,23,categorization,0,bathroom,SHINEd_sun_acgyywnybuveqsro.tif,18,0.0666666666666667,0.0666666666666667,1.21666666666667,3452.816859541,3454.157028,13,3452.883734875,3452.949454958,3454.174914958,3455.384972,1,1.34016845899987
123,47,23,categorization,0,bathroom,SHINEd_sun_alkosphxlxwjwgjd.tif,34,0.0666666666666667,0.0666666666666667,0.916666666666667,3455.402798791,3456.633386125,13,3455.469592875,3455.535693041,3456.660497125,3457.570500541,1,1.23058733400012
123,48,23,categorization,0,kitchen,SHINEd_sun_agorklincwxrdtga.tif,87,0.0666666666666667,0.0666666666666667,0.716666666666667,3457.575134666,3458.173565791,9,3457.63695675,3457.697922291,3458.183094666,3458.893100375,1,0.598431124999934
123,49,23,categorization,0,kitchen,SHINEd_sun_avszsnwsbuqfgzbn.tif,105,0.0666666666666667,0.0666666666666667,1.18333333333333,3458.8976895,3459.653539666,9,3458.959405708,3459.020381791,3459.672587833,3460.849294416,1,0.755850166000073
123,50,23,categorization,0,kitchen,SHINEd_sun_aqeaevwwwjoqhzvl.tif,101,0.0666666666666667,0.0666666666666667,0.766666666666667,3460.8583015,3461.627405791,9,3460.925046166,3460.991234666,3461.647705333,3462.407752916,1,0.769104291000076
