sub_num,trial,block,task,is_practice,category,image,texture,duration,mask_dur,jitter,stim_time,time_of_resp,trial_response,mask_time,fix_time,jit_onset,trial_end,trial_accuracy,RT
123,1,0,categorization,1,kitchen,SHINEd_kitchen_practice1.tif,116,0.0666666666666667,0.0666666666666667,1.21666666666667,575.920709,577.729341833,9,575.98641275,576.047460625,577.751562166,578.961761291,1,1.80863283300005
123,2,0,categorization,1,kitchen,SHINEd_kitchen_practice3.tif,118,0.0666666666666667,0.0666666666666667,1.36666666666667,579.013262875,580.012221083,13,579.086360875,579.148621208,580.058583666,581.418808541,0,0.998958207999976
123,3,0,categorization,1,bathroom,SHINEd_bathroom_practice2.tif,112,0.0666666666666667,0.0666666666666667,1.85,581.471163041,582.127339,13,581.545647625,581.605359375,582.165798708,584.0093635,1,0.656175959000052
123,4,0,categorization,1,bathroom,SHINEd_bathroom_practice5.tif,115,0.0666666666666667,0.0666666666666667,1.55,584.036137666,584.690743083,9,584.106120041,584.169655291,584.710518333,586.25409075,0,0.654605417000084
123,5,0,categorization,1,bathroom,SHINEd_bathroom_practice4.tif,114,0.0666666666666667,0.0666666666666667,1.48333333333333,586.28681,587.2221675,9,586.361206083,586.42089325,587.267464708,588.745253541,0,0.935357500000009
123,6,0,categorization,1,kitchen,SHINEd_kitchen_practice2.tif,117,0.0666666666666667,0.0666666666666667,1.15,588.774011541,589.690422916,13,588.8426985,588.907982708,589.716852125,590.860366208,0,0.916411374999939
123,7,0,categorization,1,bathroom,SHINEd_bathroom_practice1.tif,111,0.0666666666666667,0.0666666666666667,0.733333333333333,590.872758875,592.293228375,13,590.94083725,591.006891583,592.314904208,593.041574541,1,1.42046949999997
123,8,0,categorization,1,kitchen,SHINEd_kitchen_practice4.tif,119,0.0666666666666667,0.0666666666666667,1.6,593.04657575,593.721432291,9,593.108393208,593.1692755,593.73806425,595.3314335,1,0.674856541000054
123,9,0,categorization,1,bathroom,SHINEd_bathroom_practice3.tif,113,0.0666666666666667,0.0666666666666667,0.716666666666667,595.352511416,596.195780333,13,595.419065333,595.48542825,596.211633083,596.921637166,1,0.843268917000046
123,10,0,categorization,1,kitchen,SHINEd_kitchen_practice5.tif,120,0.0666666666666667,0.0666666666666667,1.21666666666667,596.926856958,597.632769875,9,596.988596125,597.049594375,597.65135775,598.8613975,1,0.705912916999978
123,1,1,categorization,0,kitchen,SHINEd_sun_afuyedyxivkhecmu.tif,85,0.0666666666666667,0.0666666666666667,1.23333333333333,633.506626458,635.368874541,9,633.569140958,633.629575375,635.382327541,636.609047125,1,1.86224808299994
123,2,1,categorization,0,kitchen,SHINEd_sun_akchetnepxlcxhsu.tif,98,0.0666666666666667,0.0666666666666667,0.783333333333333,636.625879791,637.668766541,9,636.693042833,636.758865958,637.681093708,638.457807125,1,1.04288674999998
123,3,1,categorization,0,bathroom,SHINEd_sun_agrwbmhcpmfuwmsg.tif,24,0.0666666666666667,0.0666666666666667,0.75,638.473940291,639.21681675,13,638.536587375,638.5967505,639.232019583,639.975356916,1,0.742876459000058
123,4,1,categorization,0,kitchen,SHINEd_sun_acwjdupvyjsugpay.tif,76,0.0666666666666667,0.0666666666666667,1.23333333333333,639.980010125,640.66497625,9,640.04174575,640.102954833,640.67147925,641.898168708,1,0.68496612499996
123,5,1,categorization,0,bathroom,SHINEd_sun_aoybiabnpadelefl.tif,41,0.0666666666666667,0.0666666666666667,1.13333333333333,641.9071905,642.982597625,13,641.97413275,642.040149125,643.014537625,644.141257791,1,1.07540712500008
123,6,1,categorization,0,kitchen,SHINEd_sun_aehawpgmrlhlvcow.tif,81,0.0666666666666667,0.0666666666666667,0.95,644.151249,644.982491458,9,644.216130416,644.284537958,645.008463875,645.951851166,1,0.83124245800002
123,7,1,categorization,0,bathroom,SHINEd_sun_aunuadmjocsddsrl.tif,52,0.0666666666666667,0.0666666666666667,0.733333333333333,645.969421083,646.753408791,9,646.036646791,646.093904125,646.762365083,647.489035916,0,0.783987707999927
123,8,1,categorization,0,kitchen,SHINEd_labelme_brsyyvweiuaazfr.tif,61,0.0666666666666667,0.0666666666666667,1.31666666666667,647.493820041,648.561297,9,647.555482958,647.616574041,648.568694875,649.878728166,1,1.06747695899992
123,9,1,categorization,0,kitchen,SHINEd_sun_axyyrmzcupyhlivc.tif,107,0.0666666666666667,0.0666666666666667,0.8,649.890248708,650.930955,13,649.958891708,650.023892833,650.945556875,651.738896208,0,1.0407062920001
123,10,1,categorization,0,kitchen,SHINEd_sun_agzzivivdpnawacl.tif,89,0.0666666666666667,0.0666666666666667,0.716666666666667,651.743946083,652.792563458,13,651.805742708,651.866787791,652.80192275,653.511926333,0,1.04861737500005
123,11,1,categorization,0,kitchen,SHINEd_sun_agubuxuukhzyzpdp.tif,88,0.0666666666666667,0.0666666666666667,0.916666666666667,653.5178415,654.433096416,9,653.579656166,653.640545125,654.4423125,655.352317916,1,0.915254915999981
123,12,1,categorization,0,bathroom,SHINEd_sun_ahijqszoswveeyji.tif,28,0.0666666666666667,0.0666666666666667,0.95,655.35701725,656.112951458,9,655.418825625,655.479743416,656.131489208,657.074826041,0,0.755934207999985
123,13,1,categorization,0,bathroom,SHINEd_sun_ahcvzmoyaycdoftf.tif,27,0.0666666666666667,0.0666666666666667,0.833333333333333,657.079851708,658.584909083,9,657.14155025,657.202603291,658.604677125,659.431348833,0,1.50505737499998
123,14,1,categorization,0,kitchen,SHINEd_sun_admlmbcdswaszruo.tif,79,0.0666666666666667,0.0666666666666667,0.75,659.436905125,660.297124458,13,659.498695333,659.559583708,660.3115365,661.0548735,0,0.860219333000032
123,15,1,categorization,0,bathroom,SHINEd_sun_aavhrsfjbserjtht.tif,13,0.0666666666666667,0.0666666666666667,1.53333333333333,661.059591916,661.94488,9,661.12136725,661.182787625,661.951422666,663.478124875,0,0.885288083999967
123,16,1,categorization,0,bathroom,SHINEd_sun_anhioqovhscjqqwb.tif,38,0.0666666666666667,0.0666666666666667,1.05,663.494872958,664.354821958,13,663.561522166,663.627924083,664.365557416,665.408919916,1,0.859949000000029
123,17,1,categorization,0,kitchen,SHINEd_sun_aypmqwcualkenuoe.tif,109,0.0666666666666667,0.0666666666666667,0.9,665.417899,666.120088375,9,665.482449083,665.549016333,666.138243708,667.031621291,1,0.702189374999989
123,18,1,categorization,0,kitchen,SHINEd_sun_adgqasybjyktddhj.tif,78,0.0666666666666667,0.0666666666666667,1.18333333333333,667.047997958,667.800444958,9,667.114505375,667.180450833,667.815673791,668.992385083,1,0.752446999999961
123,19,1,categorization,0,bathroom,SHINEd_sun_awnqiikzaispgmwo.tif,56,0.0666666666666667,0.0666666666666667,0.9,669.002002125,669.802365791,13,669.068788375,669.134580166,669.823117833,670.716496125,1,0.800363666000067
123,20,1,categorization,0,bathroom,SHINEd_sun_aapitsgbtktqubfy.tif,12,0.0666666666666667,0.0666666666666667,1.66666666666667,670.733048583,671.497029791,13,670.798970375,670.858346583,671.510649583,673.17070225,1,0.763981208000018
123,21,1,categorization,0,bathroom,SHINEd_sun_anryaplzeujmzfkd.tif,39,0.0666666666666667,0.0666666666666667,1.13333333333333,673.184695666,673.990491416,9,673.251347833,673.317758625,674.006992125,675.13370575,0,0.805795750000016
123,22,1,categorization,0,kitchen,SHINEd_sun_aapllqyqlykszopd.tif,66,0.0666666666666667,0.0666666666666667,1.3,675.143923666,676.071082791,9,675.208627208,675.276642958,676.100080708,677.393456375,1,0.927159125000003
123,23,1,categorization,0,kitchen,SHINEd_sun_akcjzhbbjlbogpdi.tif,99,0.0666666666666667,0.0666666666666667,1.93333333333333,677.411078916,678.598797166,13,677.47894275,677.543804708,678.616631041,680.54333175,0,1.1877182500001
123,24,1,categorization,0,bathroom,SHINEd_sun_apmqjbnwghzuhhzh.tif,46,0.0666666666666667,0.0666666666666667,1,680.561505208,681.412546333,13,680.628790625,680.694515083,681.434631916,682.427971291,1,0.851041125000052
123,25,1,categorization,0,bathroom,SHINEd_sun_ausgutylgojavyoq.tif,53,0.0666666666666667,0.0666666666666667,0.883333333333333,682.434122708,683.272564708,13,682.496024208,682.556880625,683.292033208,684.168704666,1,0.838441999999986
123,26,1,categorization,0,kitchen,SHINEd_sun_ahljzhgcdpomplvg.tif,91,0.0666666666666667,0.0666666666666667,1.95,684.173546791,684.824732958,9,684.235227541,684.29627275,684.831574125,686.774950916,1,0.651186166999992
123,27,1,categorization,0,bathroom,SHINEd_sun_ambriybtogmepttm.tif,36,0.0666666666666667,0.0666666666666667,1.25,686.79295825,687.483474083,9,686.859773791,686.925896083,687.498714833,688.742089666,0,0.690515833000063
123,28,1,categorization,0,kitchen,SHINEd_sun_aamedkxepzlwuxes.tif,65,0.0666666666666667,0.0666666666666667,1.95,688.7596965,689.5505045,9,688.826302125,688.892538916,689.566823375,691.510208708,1,0.79080799999997
123,29,1,categorization,0,bathroom,SHINEd_sun_aggnnqpdorgxpvce.tif,21,0.0666666666666667,0.0666666666666667,1.91666666666667,691.521834041,692.411236208,9,691.588522958,691.654710958,692.427345625,694.337401583,0,0.889402166999957
123,30,1,categorization,0,kitchen,SHINEd_sun_azmutvzbxypaceni.tif,110,0.0666666666666667,0.0666666666666667,1.41666666666667,694.354151625,695.208925416,13,694.4210105,694.485758291,695.224975375,696.635013333,0,0.854773791000071
123,31,1,categorization,0,kitchen,SHINEd_sun_aunzlwrbjumxhwdj.tif,103,0.0666666666666667,0.0666666666666667,0.716666666666667,696.652682875,697.643371625,9,696.719525625,696.78551425,697.658175416,698.368180416,1,0.990688750000004
123,32,1,categorization,0,kitchen,SHINEd_sun_ajkqhtgcbgpcwrwn.tif,97,0.0666666666666667,0.0666666666666667,1.28333333333333,698.373273666,699.256227625,9,698.435093833,698.496038458,699.264579375,700.541283583,1,0.882953958999906
123,33,1,categorization,0,bathroom,SHINEd_sun_amzlamotzwfkwjco.tif,37,0.0666666666666667,0.0666666666666667,0.9,700.558805958,701.286768208,13,700.625549,700.691525916,701.314931041,702.208309958,1,0.727962250000019
123,34,1,categorization,0,kitchen,SHINEd_sun_ahywdevtimnqcsln.tif,94,0.0666666666666667,0.0666666666666667,0.8,702.224616875,702.936927541,9,702.291578791,702.348899583,702.950666541,703.74400525,1,0.712310666000008
123,35,1,categorization,0,bathroom,SHINEd_sun_afcoljnjfoxjtgja.tif,20,0.0666666666666667,0.0666666666666667,1.01666666666667,703.750767583,704.576977416,9,703.81251475,703.873562166,704.592204541,705.602254041,0,0.826209833000007
123,36,1,categorization,0,bathroom,SHINEd_sun_agyqfjcfkdcydepw.tif,25,0.0666666666666667,0.0666666666666667,0.85,705.611185875,706.645764208,13,705.675650458,705.741802875,706.665103458,707.50848625,1,1.0345783329999
123,37,1,categorization,0,kitchen,SHINEd_sun_amjjdeyrggfqgmom.tif,100,0.0666666666666667,0.0666666666666667,1.51666666666667,707.524498375,708.216864666,9,707.591022875,707.648629541,708.233791666,709.7438375,1,0.692366290999985
123,38,1,categorization,0,kitchen,SHINEd_sun_aymvwlarqodbwuoc.tif,108,0.0666666666666667,0.0666666666666667,1.83333333333333,709.754828666,710.418102083,9,709.81953075,709.884056625,710.440467958,712.267186333,1,0.663273417000028
123,39,1,categorization,0,bathroom,SHINEd_sun_auzqhkafidnkrwmo.tif,54,0.0666666666666667,0.0666666666666667,0.716666666666667,712.285439125,713.280806708,13,712.352685875,712.418769916,713.309024458,714.019028333,1,0.995367582999961
123,40,1,categorization,0,kitchen,SHINEd_sun_aarfiyshqohlwkmo.tif,67,0.0666666666666667,0.0666666666666667,0.9,714.02385675,714.745170875,9,714.085757916,714.146608291,714.748396958,715.641735875,1,0.721314124999935
123,41,1,categorization,0,bathroom,SHINEd_sun_acduarbnmmoglmiv.tif,16,0.0666666666666667,0.0666666666666667,0.916666666666667,715.646579833,716.536539,13,715.708346583,715.769341916,716.554591708,717.464595791,1,0.889959166999915
123,42,1,categorization,0,bathroom,SHINEd_sun_apkxzenqapsujocq.tif,45,0.0666666666666667,0.0666666666666667,0.816666666666667,717.469361958,718.280362458,13,717.530996666,717.591998541,718.29375,719.103754375,1,0.811000499999977
123,43,1,categorization,0,bathroom,SHINEd_sun_apynckhmoftszqoq.tif,47,0.0666666666666667,0.0666666666666667,1.88333333333333,719.108542291,719.752848875,9,719.170273458,719.231304083,719.766765458,721.643477958,0,0.644306583999992
123,44,1,categorization,0,bathroom,SHINEd_sun_apjevzvycyhuqghb.tif,43,0.0666666666666667,0.0666666666666667,0.9,721.66021775,722.403884916,9,721.726939458,721.792885916,722.43297875,723.326316583,0,0.743667166000023
123,45,1,categorization,0,bathroom,SHINEd_sun_apeeialkgkuxddgh.tif,42,0.0666666666666667,0.0666666666666667,1,723.331226125,724.03301625,13,723.392886666,723.453916041,724.038964875,725.032303125,1,0.701790125000002
123,46,1,categorization,0,bathroom,SHINEd_sun_aghyqhbptboemmoq.tif,23,0.0666666666666667,0.0666666666666667,0.733333333333333,725.03690825,725.816019333,9,725.098784875,725.159633541,725.828067,726.554739208,0,0.779111082999975
123,47,1,categorization,0,bathroom,SHINEd_sun_aclfzgynxzxlbepz.tif,19,0.0666666666666667,0.0666666666666667,0.883333333333333,726.559477125,727.200609041,13,726.62103625,726.682180625,727.217283291,728.093953458,1,0.641131916000063
123,48,1,categorization,0,bathroom,SHINEd_sun_axldvoqbuvuggfmq.tif,57,0.0666666666666667,0.0666666666666667,1.73333333333333,728.100524,728.832659833,13,728.162310166,728.223306583,728.841964583,730.568673708,1,0.732135833000029
123,49,1,categorization,0,bathroom,SHINEd_sun_apkruvsevgegsdwp.tif,44,0.0666666666666667,0.0666666666666667,1.91666666666667,730.586056791,731.37044675,13,730.65282275,730.7191845,731.391270416,733.301324166,1,0.784389959000009
123,50,1,categorization,0,bathroom,SHINEd_sun_aspsyogrekjtfozg.tif,50,0.0666666666666667,0.0666666666666667,1.35,733.319106666,734.167809833,9,733.385831666,733.453759291,734.1941,735.5374665,0,0.84870316699994
123,1,2,categorization,0,kitchen,SHINEd_sun_abdxkyyxwfskuaqb.tif,70,0.0666666666666667,0.0666666666666667,0.95,746.902159208,747.888886791,9,746.964169333,747.024923083,747.893265541,748.836604375,1,0.986727583000061
123,2,2,categorization,0,bathroom,SHINEd_sun_axyrejkiiaqiurjk.tif,59,0.0666666666666667,0.0666666666666667,0.75,748.841363166,749.591968458,9,748.903183333,748.964132125,749.599595833,750.342934583,0,0.750605292000046
123,3,2,categorization,0,bathroom,SHINEd_sun_ahqjwnzgolcaoidx.tif,29,0.0666666666666667,0.0666666666666667,1.68333333333333,750.348279125,750.984729125,13,750.410074041,750.471033916,750.989481083,752.666185625,1,0.636449999999968
123,4,2,categorization,0,bathroom,SHINEd_sun_ajlawzvmubibwbpy.tif,30,0.0666666666666667,0.0666666666666667,0.816666666666667,752.685263541,753.498663,13,752.751583291,752.816161833,753.5221,754.332105083,1,0.813399458999925
123,5,2,categorization,0,kitchen,SHINEd_sun_aadbddgrdsjugojn.tif,64,0.0666666666666667,0.0666666666666667,0.916666666666667,754.337091083,755.024704,9,754.398734708,754.45971725,755.0283545,755.938357541,1,0.687612917000024
123,6,2,categorization,0,bathroom,SHINEd_sun_abapwbhyhkfixyex.tif,14,0.0666666666666667,0.0666666666666667,1.21666666666667,755.943195375,756.928297333,9,756.004937958,756.065976083,756.934578291,758.144610666,0,0.985101958000087
123,7,2,categorization,0,kitchen,SHINEd_sun_ahspylgoovwmwvgk.tif,93,0.0666666666666667,0.0666666666666667,0.9,758.16323625,759.609195625,13,758.23109075,758.295672875,759.638560458,760.531897625,0,1.44595937500003
123,8,2,categorization,0,kitchen,SHINEd_sun_agorklincwxrdtga.tif,87,0.0666666666666667,0.0666666666666667,1.65,760.536900125,761.216006458,9,760.598765,760.659647208,761.228057416,762.871444583,1,0.67910633300005
123,9,2,categorization,0,kitchen,SHINEd_sun_aegoxogugdkwpmpj.tif,80,0.0666666666666667,0.0666666666666667,1.15,762.883965666,763.941531958,9,762.950892416,763.016755125,763.955215125,765.098597208,1,1.05756629200005
123,10,2,categorization,0,kitchen,SHINEd_sun_abpwyqmlzafvklqo.tif,72,0.0666666666666667,0.0666666666666667,1.13333333333333,765.10719525,765.842260666,9,765.173702833,765.241108666,765.862953416,766.989665875,1,0.735065415999998
123,11,2,categorization,0,kitchen,SHINEd_sun_avszsnwsbuqfgzbn.tif,105,0.0666666666666667,0.0666666666666667,1.76666666666667,767.006688916,767.736684541,9,767.069651541,767.129833375,767.748309,769.508344791,1,0.729995625000015
123,12,2,categorization,0,kitchen,SHINEd_sun_aggjlwcdjsjcaemh.tif,86,0.0666666666666667,0.0666666666666667,1.8,769.52615475,770.600478708,13,769.593061291,769.659141833,770.615064666,772.408436666,0,1.07432395799992
123,13,2,categorization,0,kitchen,SHINEd_labelme_rykdqxenmhulbdn.tif,63,0.0666666666666667,0.0666666666666667,0.9,772.422170875,772.643990333,9,772.489381125,772.555111875,772.660608458,773.553987708,1,0.221819458000027
123,14,2,categorization,0,bathroom,SHINEd_sun_alkosphxlxwjwgjd.tif,34,0.0666666666666667,0.0666666666666667,0.716666666666667,773.566887416,774.416579166,9,773.633098,773.699724541,774.435220625,775.145224708,0,0.849691750000034
123,15,2,categorization,0,bathroom,SHINEd_sun_azqyogdvyhahyram.tif,60,0.0666666666666667,0.0666666666666667,1.36666666666667,775.14978625,775.951773708,13,775.211451416,775.27260075,775.957752583,777.317808958,1,0.801987457999985
123,16,2,categorization,0,bathroom,SHINEd_sun_atstyziqcmkahyxk.tif,51,0.0666666666666667,0.0666666666666667,0.916666666666667,777.335114958,778.1874115,13,777.401694375,777.467949833,778.207456416,779.117460875,1,0.85229654200009
123,17,2,categorization,0,kitchen,SHINEd_sun_abrcnpqqhmjwekyf.tif,73,0.0666666666666667,0.0666666666666667,0.716666666666667,779.122834625,779.784327416,9,779.184413958,779.245613458,779.797592833,780.507598291,1,0.661492791000001
123,18,2,categorization,0,kitchen,SHINEd_sun_aeqdocilnnpuvuhx.tif,83,0.0666666666666667,0.0666666666666667,0.766666666666667,780.512302583,781.264714375,9,780.573949708,780.635052833,781.270194916,782.030199708,1,0.752411792000089
123,19,2,categorization,0,bathroom,SHINEd_sun_aofnryafpsjimzsb.tif,40,0.0666666666666667,0.0666666666666667,1.06666666666667,782.034969375,783.855885791,9,782.096536958,782.157710166,783.859653041,784.919684375,0,1.82091641600005
123,20,2,categorization,0,bathroom,SHINEd_sun_akiytfaagpdsphgz.tif,31,0.0666666666666667,0.0666666666666667,0.8,784.929270458,785.587348125,13,784.99370625,785.060652916,785.616868708,786.410251625,1,0.65807766699993
123,21,2,categorization,0,kitchen,SHINEd_sun_abftihopvusyfakt.tif,71,0.0666666666666667,0.0666666666666667,0.866666666666667,786.423581333,787.112703666,9,786.490107916,786.55630125,787.125574083,787.985579541,1,0.689122333
123,22,2,categorization,0,kitchen,SHINEd_sun_acfmftudsenhrfhy.tif,74,0.0666666666666667,0.0666666666666667,1.48333333333333,787.9903945,788.696765791,9,788.052161458,788.113158208,788.714991333,790.191716375,1,0.706371290999982
123,23,2,categorization,0,kitchen,SHINEd_sun_aaxxjlsuzvqlgylf.tif,68,0.0666666666666667,0.0666666666666667,1.1,790.210126708,790.853229083,9,790.27703175,790.342836541,790.882821625,791.976204,1,0.643102375000012
123,24,2,categorization,0,bathroom,SHINEd_sun_acgyywnybuveqsro.tif,18,0.0666666666666667,0.0666666666666667,0.783333333333333,791.987282166,792.57202375,13,792.051772083,792.119974666,792.593189791,793.369912083,1,0.584741583999971
123,25,2,categorization,0,kitchen,SHINEd_sun_awcpdzzznmweyyhv.tif,106,0.0666666666666667,0.0666666666666667,0.866666666666667,793.38415875,794.032154375,9,793.451060791,793.516877791,794.052894666,794.912899291,1,0.647995625000021
123,26,2,categorization,0,kitchen,SHINEd_sun_ahpczsiumwwocjkv.tif,92,0.0666666666666667,0.0666666666666667,1.83333333333333,794.917779583,795.608717333,9,794.979568125,795.040540708,795.625548458,797.452273375,1,0.690937749999989
123,27,2,categorization,0,kitchen,SHINEd_sun_ahdycvpopffkzzsu.tif,90,0.0666666666666667,0.0666666666666667,0.7,797.470046333,798.446061791,13,797.536878333,797.602737791,798.476094875,799.169432125,0,0.976015458000006
123,28,2,categorization,0,bathroom,SHINEd_labelme_sfxiulhjbhlyiyt.tif,11,0.0666666666666667,0.0666666666666667,1.33333333333333,799.174407958,799.984153625,13,799.236225083,799.297213416,799.998912,801.325622208,1,0.809745667000016
123,29,2,categorization,0,kitchen,SHINEd_sun_aqeaevwwwjoqhzvl.tif,101,0.0666666666666667,0.0666666666666667,1.33333333333333,801.34289025,801.959734,9,801.409396125,801.475518,801.979996875,803.306714291,1,0.616843750000044
123,30,2,categorization,0,bathroom,SHINEd_sun_abjtwfukuwddzted.tif,15,0.0666666666666667,0.0666666666666667,1.38333333333333,803.324107041,804.057735458,13,803.39091175,803.456992625,804.080767375,805.457478833,1,0.733628416999977
123,31,2,categorization,0,bathroom,SHINEd_sun_alotolagknyrgtsk.tif,35,0.0666666666666667,0.0666666666666667,1.25,805.475803,806.116986958,9,805.542882291,805.6086065,806.130834541,807.374225416,0,0.641183957999942
123,32,2,categorization,0,kitchen,SHINEd_sun_aexklacwqwezaorf.tif,84,0.0666666666666667,0.0666666666666667,1.55,807.384713291,808.105485916,9,807.451470208,807.517609958,808.124157583,809.667548916,1,0.720772624999995
123,33,2,categorization,0,bathroom,SHINEd_sun_aljolscmmzydegqp.tif,33,0.0666666666666667,0.0666666666666667,1.61666666666667,809.6853195,810.564271916,13,809.750150833,809.816597916,810.590193041,812.200236166,1,0.878952416000061
123,34,2,categorization,0,bathroom,SHINEd_sun_agguqiubmwhqqunb.tif,22,0.0666666666666667,0.0666666666666667,1.33333333333333,812.217709375,813.042346875,9,812.285654083,812.350470375,813.056675625,814.383381166,0,0.824637499999994
123,35,2,categorization,0,bathroom,SHINEd_sun_ahaulkltgpkeeemi.tif,26,0.0666666666666667,0.0666666666666667,0.833333333333333,814.401589416,815.204348916,13,814.46840825,814.535306333,815.225420125,816.052122166,1,0.802759499999979
123,36,2,categorization,0,kitchen,SHINEd_sun_auticobqsbwgoppi.tif,104,0.0666666666666667,0.0666666666666667,1.45,816.068694541,816.872725875,9,816.1337115,816.192613458,816.877835083,818.321220833,1,0.804031334000001
123,37,2,categorization,0,kitchen,SHINEd_sun_acxkpeoqbwcxfvip.tif,77,0.0666666666666667,0.0666666666666667,0.933333333333333,818.336520166,819.075526416,9,818.403830125,818.469812833,819.092290916,820.018962958,1,0.739006249999989
123,38,2,categorization,0,kitchen,SHINEd_labelme_kxvouciolcpqplr.tif,62,0.0666666666666667,0.0666666666666667,1.65,820.024251541,820.856140166,13,820.085958208,820.146975291,820.86546225,822.508827333,0,0.831888625000033
123,39,2,categorization,0,kitchen,SHINEd_sun_ajcbwwvdlsvjyzje.tif,96,0.0666666666666667,0.0666666666666667,1.23333333333333,822.526486,823.305207833,13,822.593579833,822.659186791,823.332648875,824.559367,0,0.778721833000077
123,40,2,categorization,0,kitchen,SHINEd_sun_acgtpgfybqjmzeyw.tif,75,0.0666666666666667,0.0666666666666667,0.766666666666667,824.577056541,825.19987475,9,824.643789583,824.709699833,825.215361916,825.975397333,1,0.622818209000002
123,41,2,categorization,0,bathroom,SHINEd_sun_aleqenyvunhactkl.tif,32,0.0666666666666667,0.0666666666666667,1.78333333333333,825.99240675,826.696087208,9,826.059298416,826.125059458,826.710102041,828.486821375,0,0.703680458000008
123,42,2,categorization,0,bathroom,SHINEd_sun_avhrdrntsqrjzccq.tif,55,0.0666666666666667,0.0666666666666667,1.11666666666667,828.5043835,829.309733,13,828.571325166,828.637026166,829.326216875,830.436255291,1,0.805349500000034
123,43,2,categorization,0,kitchen,SHINEd_sun_abdenxonkemggwsq.tif,69,0.0666666666666667,0.0666666666666667,1.85,830.446389708,831.068278,9,830.510986083,830.57945825,831.085476708,832.928865708,1,0.621888291999994
123,44,2,categorization,0,kitchen,SHINEd_sun_aenotlpyftoioydp.tif,82,0.0666666666666667,0.0666666666666667,0.733333333333333,832.944149083,833.538790583,9,833.00943675,833.080445291,833.551809625,834.2785125,1,0.59464150000008
123,45,2,categorization,0,bathroom,SHINEd_sun_aqrpegblszgcoujh.tif,48,0.0666666666666667,0.0666666666666667,0.783333333333333,834.2949795,835.08067525,13,834.3621435,834.427209958,835.096086625,835.872757916,1,0.785695750000059
123,46,2,categorization,0,kitchen,SHINEd_sun_aixorpehvfykdynp.tif,95,0.0666666666666667,0.0666666666666667,1.5,835.877543791,836.991569458,9,835.939252708,836.000739375,837.002673375,838.496066583,1,1.11402566699996
123,47,2,categorization,0,bathroom,SHINEd_sun_asfwthctfqerjvxr.tif,49,0.0666666666666667,0.0666666666666667,0.733333333333333,838.512840208,839.408516875,13,838.581067166,838.645743041,839.435390166,840.162062625,1,0.895676667000089
123,48,2,categorization,0,bathroom,SHINEd_sun_acegryoqftbzowsg.tif,17,0.0666666666666667,0.0666666666666667,1.1,840.1672005,840.904294916,9,840.22885975,840.290014416,840.908736291,842.002118208,0,0.737094415999991
123,49,2,categorization,0,bathroom,SHINEd_sun_axxbkopsgyouuebh.tif,58,0.0666666666666667,0.0666666666666667,1.6,842.012474291,842.828246875,13,842.077384583,842.145289583,842.850445041,844.443817916,1,0.815772584000001
123,50,2,categorization,0,kitchen,SHINEd_sun_auaiucuqpdausiva.tif,102,0.0666666666666667,0.0666666666666667,1.06666666666667,844.461447458,845.364317375,9,844.52861175,844.59483375,845.3849745,846.445026791,1,0.902869917000089
123,1,3,categorization,0,bathroom,SHINEd_sun_awnqiikzaispgmwo.tif,56,0.0666666666666667,0.0666666666666667,0.85,862.951899208,863.7122665,13,863.014391916,863.074646083,863.726508625,864.56984575,1,0.760367292000069
123,2,3,categorization,0,kitchen,SHINEd_sun_acxkpeoqbwcxfvip.tif,77,0.0666666666666667,0.0666666666666667,1.65,864.574764,865.176546541,9,864.636504208,864.697677875,865.1829295,866.826310333,1,0.601782541000034
123,3,3,categorization,0,bathroom,SHINEd_sun_aqrpegblszgcoujh.tif,48,0.0666666666666667,0.0666666666666667,0.783333333333333,866.844812625,867.641385416,13,866.911669208,866.977604833,867.668050041,868.444721,1,0.796572791000017
123,4,3,categorization,0,bathroom,SHINEd_sun_asfwthctfqerjvxr.tif,49,0.0666666666666667,0.0666666666666667,0.933333333333333,868.449961583,869.199780958,13,868.511697291,868.572763708,869.207910916,870.134581291,1,0.749819375000015
123,5,3,categorization,0,bathroom,SHINEd_sun_axldvoqbuvuggfmq.tif,57,0.0666666666666667,0.0666666666666667,0.866666666666667,870.139833708,870.94389575,9,870.201614916,870.262683875,870.947820833,871.807823916,0,0.804062042000055
123,6,3,categorization,0,kitchen,SHINEd_sun_acfmftudsenhrfhy.tif,74,0.0666666666666667,0.0666666666666667,1.11666666666667,871.812579166,872.615898291,9,871.874332708,871.935349,872.620671125,873.730704916,1,0.80331912500003
123,7,3,categorization,0,bathroom,SHINEd_sun_agyqfjcfkdcydepw.tif,25,0.0666666666666667,0.0666666666666667,0.966666666666667,873.738833083,874.493757875,9,873.803526083,873.867961541,874.506819666,875.4668535,0,0.754924791999997
123,8,3,categorization,0,kitchen,SHINEd_sun_ahdycvpopffkzzsu.tif,90,0.0666666666666667,0.0666666666666667,1.78333333333333,875.484692083,876.127882583,13,875.55107625,875.61774075,876.1365265,877.913231166,0,0.643190499999946
123,9,3,categorization,0,bathroom,SHINEd_sun_alkosphxlxwjwgjd.tif,34,0.0666666666666667,0.0666666666666667,1.55,877.930536,878.7017425,13,877.997186041,878.06296125,878.718778291,880.262158125,1,0.771206500000062
123,10,3,categorization,0,bathroom,SHINEd_sun_acduarbnmmoglmiv.tif,16,0.0666666666666667,0.0666666666666667,1.41666666666667,880.280791291,881.080792541,13,880.347375,880.413887708,881.103916916,882.513961208,1,0.800001250000037
123,11,3,categorization,0,bathroom,SHINEd_sun_agrwbmhcpmfuwmsg.tif,24,0.0666666666666667,0.0666666666666667,0.8,882.527804916,883.122682541,9,882.596339666,882.6605475,883.150290458,883.943652625,0,0.594877624999981
123,12,3,categorization,0,bathroom,SHINEd_sun_abapwbhyhkfixyex.tif,14,0.0666666666666667,0.0666666666666667,1.28333333333333,883.958804458,884.664128875,9,884.025469875,884.091580583,884.677583458,885.954286541,0,0.705324416999929
123,13,3,categorization,0,kitchen,SHINEd_sun_auaiucuqpdausiva.tif,102,0.0666666666666667,0.0666666666666667,1.66666666666667,885.971241041,887.076037666,9,886.038080166,886.104490125,887.094090833,888.75413475,1,1.10479662500006
123,14,3,categorization,0,kitchen,SHINEd_sun_aexklacwqwezaorf.tif,84,0.0666666666666667,0.0666666666666667,1.81666666666667,888.771812041,889.668268583,13,888.838537416,888.904668041,889.694066,891.5041075,0,0.89645654200001
123,15,3,categorization,0,kitchen,SHINEd_sun_ahpczsiumwwocjkv.tif,92,0.0666666666666667,0.0666666666666667,1.35,891.521585458,892.3532795,13,891.588415708,891.654524791,892.378517208,893.721893041,0,0.831694041999981
123,16,3,categorization,0,kitchen,SHINEd_sun_acwjdupvyjsugpay.tif,76,0.0666666666666667,0.0666666666666667,0.916666666666667,893.734823333,894.612029833,9,893.801555625,893.865165958,894.638507416,895.548512,1,0.877206499999943
123,17,3,categorization,0,bathroom,SHINEd_labelme_sfxiulhjbhlyiyt.tif,11,0.0666666666666667,0.0666666666666667,0.916666666666667,895.554173,896.575701333,13,895.615789625,895.67692825,896.595448,897.505452458,1,1.02152833299999
123,18,3,categorization,0,kitchen,SHINEd_sun_ajkqhtgcbgpcwrwn.tif,97,0.0666666666666667,0.0666666666666667,1.31666666666667,897.51021225,898.240099666,9,897.572061291,897.632807625,898.251223041,899.56125775,1,0.729887415999997
123,19,3,categorization,0,kitchen,SHINEd_sun_abdxkyyxwfskuaqb.tif,70,0.0666666666666667,0.0666666666666667,1.45,899.578772291,900.303018958,13,899.645350375,899.708990875,900.332113458,901.775485708,0,0.724246667000102
123,20,3,categorization,0,bathroom,SHINEd_sun_ahcvzmoyaycdoftf.tif,27,0.0666666666666667,0.0666666666666667,0.95,901.7931545,902.705597666,13,901.861207083,901.926149166,902.732597458,903.675935291,1,0.912443166000003
123,21,3,categorization,0,bathroom,SHINEd_sun_aljolscmmzydegqp.tif,33,0.0666666666666667,0.0666666666666667,1.38333333333333,903.680940083,905.432227125,9,903.742735166,903.803585958,905.439303833,906.816006958,0,1.75128704200006
123,22,3,categorization,0,kitchen,SHINEd_sun_aymvwlarqodbwuoc.tif,108,0.0666666666666667,0.0666666666666667,1.16666666666667,906.836569291,908.05846,9,906.9034435,906.969561375,908.077507,909.237565666,1,1.22189070899992
123,23,3,categorization,0,bathroom,SHINEd_sun_aleqenyvunhactkl.tif,32,0.0666666666666667,0.0666666666666667,1.61666666666667,909.247039041,909.932368916,13,909.313825958,909.381084083,909.952934791,911.562988791,1,0.685329874999979
123,24,3,categorization,0,kitchen,SHINEd_sun_aapllqyqlykszopd.tif,66,0.0666666666666667,0.0666666666666667,1.38333333333333,911.576039416,912.328011083,13,911.642713541,911.708709916,912.348169333,913.724886041,0,0.751971667000021
123,25,3,categorization,0,bathroom,SHINEd_sun_ambriybtogmepttm.tif,36,0.0666666666666667,0.0666666666666667,1.78333333333333,913.740363666,914.832367708,9,913.805360458,913.867428291,914.858537458,916.635256875,0,1.09200404199999
123,26,3,categorization,0,bathroom,SHINEd_sun_ahqjwnzgolcaoidx.tif,29,0.0666666666666667,0.0666666666666667,0.783333333333333,916.646540875,917.628511708,13,916.714551291,916.778081875,917.650771208,918.42744175,1,0.981970832999991
123,27,3,categorization,0,kitchen,SHINEd_sun_akcjzhbbjlbogpdi.tif,99,0.0666666666666667,0.0666666666666667,1.65,918.433176458,919.295883958,13,918.495062958,918.555977416,919.3085075,920.951888458,0,0.862707499999942
123,28,3,categorization,0,bathroom,SHINEd_sun_apkxzenqapsujocq.tif,45,0.0666666666666667,0.0666666666666667,1.86666666666667,920.9688525,922.027845625,9,921.035796791,921.102378916,922.0416135,923.901640416,0,1.05899312500003
123,29,3,categorization,0,bathroom,SHINEd_sun_ajlawzvmubibwbpy.tif,30,0.0666666666666667,0.0666666666666667,1.23333333333333,923.911943958,924.696947625,9,923.98011475,924.044333833,924.717345166,925.944049916,0,0.785003666999955
123,30,3,categorization,0,kitchen,SHINEd_sun_agubuxuukhzyzpdp.tif,88,0.0666666666666667,0.0666666666666667,0.7,925.954921541,926.891768125,9,926.021612541,926.087661625,926.910063458,927.603434666,1,0.936846584000023
123,31,3,categorization,0,bathroom,SHINEd_sun_aoybiabnpadelefl.tif,41,0.0666666666666667,0.0666666666666667,0.716666666666667,927.619317375,928.599857541,13,927.685938666,927.752352708,928.6043785,929.314383,1,0.980540165999969
123,32,3,categorization,0,kitchen,SHINEd_sun_abrcnpqqhmjwekyf.tif,73,0.0666666666666667,0.0666666666666667,1.05,929.319171125,930.159890583,9,929.381078375,929.441927666,930.177067,931.220447333,1,0.840719457999967
123,33,3,categorization,0,bathroom,SHINEd_sun_aavhrsfjbserjtht.tif,13,0.0666666666666667,0.0666666666666667,1.1,931.233512333,931.874899083,9,931.298006958,931.36293775,931.883503916,932.976891541,0,0.641386749999924
123,34,3,categorization,0,bathroom,SHINEd_sun_ahijqszoswveeyji.tif,28,0.0666666666666667,0.0666666666666667,1.13333333333333,932.994585041,934.311253666,13,933.061136333,933.127608291,934.329846125,935.456548541,1,1.31666862499992
123,35,3,categorization,0,kitchen,SHINEd_sun_abdenxonkemggwsq.tif,69,0.0666666666666667,0.0666666666666667,1.38333333333333,935.467667333,936.378838958,9,935.532471,935.600511791,936.406693625,937.783386666,1,0.911171624999952
123,36,3,categorization,0,kitchen,SHINEd_sun_agzzivivdpnawacl.tif,89,0.0666666666666667,0.0666666666666667,1.5,937.797398541,938.519484666,13,937.862633375,937.930067666,938.535891833,940.0292665,0,0.722086125000033
123,37,3,categorization,0,kitchen,SHINEd_sun_azmutvzbxypaceni.tif,110,0.0666666666666667,0.0666666666666667,1.61666666666667,940.048532458,940.786493458,13,940.115119625,940.181441958,940.804838541,942.414855416,0,0.737961000000041
123,38,3,categorization,0,kitchen,SHINEd_sun_aqeaevwwwjoqhzvl.tif,101,0.0666666666666667,0.0666666666666667,0.983333333333333,942.433853041,943.15952925,9,942.499549166,942.566161708,943.190471666,944.167142583,1,0.725676208999971
123,39,3,categorization,0,bathroom,SHINEd_sun_abjtwfukuwddzted.tif,15,0.0666666666666667,0.0666666666666667,1.3,944.172075291,945.07915775,13,944.233726125,944.294820541,945.096874875,946.390251833,1,0.90708245899998
123,40,3,categorization,0,kitchen,SHINEd_sun_amjjdeyrggfqgmom.tif,100,0.0666666666666667,0.0666666666666667,1.03333333333333,946.407992583,947.149023708,9,946.476229416,946.540850583,947.163089833,948.189807666,1,0.741031124999949
123,41,3,categorization,0,kitchen,SHINEd_sun_avszsnwsbuqfgzbn.tif,105,0.0666666666666667,0.0666666666666667,1.45,948.206738958,948.935439166,9,948.269358,948.3294545,948.948026458,950.391409375,1,0.728700208000078
123,42,3,categorization,0,kitchen,SHINEd_sun_abpwyqmlzafvklqo.tif,72,0.0666666666666667,0.0666666666666667,1.23333333333333,950.410483208,951.418396125,9,950.478537791,950.543284583,951.431231791,952.65794575,1,1.007912917
123,43,3,categorization,0,bathroom,SHINEd_sun_auzqhkafidnkrwmo.tif,54,0.0666666666666667,0.0666666666666667,1.26666666666667,952.676157875,953.290405666,13,952.744404958,952.808841708,953.315624083,954.575660875,1,0.614247791000025
123,44,3,categorization,0,bathroom,SHINEd_sun_apeeialkgkuxddgh.tif,42,0.0666666666666667,0.0666666666666667,1.03333333333333,954.592689333,955.2553015,13,954.659404041,954.725633291,955.282367875,956.309078166,1,0.66261216700002
123,45,3,categorization,0,bathroom,SHINEd_sun_ahaulkltgpkeeemi.tif,26,0.0666666666666667,0.0666666666666667,1.31666666666667,956.325806375,956.959556875,13,956.392781125,956.458690541,956.977324041,958.287378666,1,0.633750500000019
123,46,3,categorization,0,bathroom,SHINEd_sun_axxbkopsgyouuebh.tif,58,0.0666666666666667,0.0666666666666667,1.7,958.306196375,959.263961083,9,958.373496041,958.439357166,959.279063875,960.972450958,0,0.957764708000013
123,47,3,categorization,0,kitchen,SHINEd_sun_afuyedyxivkhecmu.tif,85,0.0666666666666667,0.0666666666666667,1.35,960.990875458,961.724374333,9,961.058157416,961.123811291,961.748003875,963.091391458,1,0.733498875000009
123,48,3,categorization,0,bathroom,SHINEd_sun_apmqjbnwghzuhhzh.tif,46,0.0666666666666667,0.0666666666666667,0.8,963.111176041,963.730242833,13,963.17821525,963.24394825,963.749034583,964.542402916,1,0.619066792000012
123,49,3,categorization,0,kitchen,SHINEd_sun_adgqasybjyktddhj.tif,78,0.0666666666666667,0.0666666666666667,0.766666666666667,964.559047958,965.367112625,9,964.626475875,964.691773875,965.377334875,966.137340375,1,0.808064667000053
123,50,3,categorization,0,kitchen,SHINEd_sun_aarfiyshqohlwkmo.tif,67,0.0666666666666667,0.0666666666666667,1.38333333333333,966.142174791,967.015247333,13,966.203888791,966.265367125,967.033981083,968.410681416,0,0.873072542000045
123,1,4,categorization,0,kitchen,SHINEd_labelme_kxvouciolcpqplr.tif,62,0.0666666666666667,0.0666666666666667,1,974.108957916,974.991715708,13,974.171154625,974.231634291,975.000082083,975.993419375,0,0.882757792000007
123,2,4,categorization,0,bathroom,SHINEd_sun_anhioqovhscjqqwb.tif,38,0.0666666666666667,0.0666666666666667,0.966666666666667,975.999367416,976.711231083,13,976.061060625,976.122055708,976.723782791,977.683786,1,0.711863666999989
123,3,4,categorization,0,kitchen,SHINEd_labelme_brsyyvweiuaazfr.tif,61,0.0666666666666667,0.0666666666666667,1.75,977.688548833,978.29571175,9,977.750156666,977.811201875,978.313057041,980.056430166,1,0.607162916999982
123,4,4,categorization,0,bathroom,SHINEd_sun_alotolagknyrgtsk.tif,35,0.0666666666666667,0.0666666666666667,1.68333333333333,980.073345458,980.749031625,13,980.140126958,980.206373666,980.761742625,982.438456041,1,0.675686167000094
123,5,4,categorization,0,kitchen,SHINEd_sun_aamedkxepzlwuxes.tif,65,0.0666666666666667,0.0666666666666667,1.58333333333333,982.456227416,982.576670708,13,982.523146208,982.589788916,982.612339541,984.189060541,0,0.120443292000004
123,6,4,categorization,0,kitchen,SHINEd_labelme_rykdqxenmhulbdn.tif,63,0.0666666666666667,0.0666666666666667,1,984.206728416,985.108512166,13,984.273407875,984.339489625,985.12919475,986.122532416,0,0.901783749999936
123,7,4,categorization,0,bathroom,SHINEd_sun_apjevzvycyhuqghb.tif,43,0.0666666666666667,0.0666666666666667,1.33333333333333,986.127501666,986.743771625,9,986.189167416,986.250345916,986.752194541,988.07891,0,0.616269959000078
123,8,4,categorization,0,bathroom,SHINEd_sun_akiytfaagpdsphgz.tif,31,0.0666666666666667,0.0666666666666667,1.26666666666667,988.096216166,988.756040208,13,988.16262075,988.228508125,988.784976333,990.045010208,1,0.659824041999968
123,9,4,categorization,0,kitchen,SHINEd_sun_aypmqwcualkenuoe.tif,109,0.0666666666666667,0.0666666666666667,0.883333333333333,990.059128041,990.801318791,13,990.125832458,990.19153075,990.831348833,991.708048166,0,0.742190749999963
123,10,4,categorization,0,kitchen,SHINEd_sun_acgtpgfybqjmzeyw.tif,75,0.0666666666666667,0.0666666666666667,1.26666666666667,991.725181583,992.391388958,9,991.792008,991.858071791,992.410045208,993.670093916,1,0.666207374999999
123,11,4,categorization,0,bathroom,SHINEd_sun_azqyogdvyhahyram.tif,60,0.0666666666666667,0.0666666666666667,2,993.687937375,994.376101458,13,993.754166708,993.818987666,994.3913825,996.384747958,1,0.688164082999947
123,12,4,categorization,0,bathroom,SHINEd_sun_amzlamotzwfkwjco.tif,37,0.0666666666666667,0.0666666666666667,0.733333333333333,996.40121075,997.138589208,9,996.467968375,996.533912875,997.156476791,997.883147458,0,0.737378457999966
123,13,4,categorization,0,kitchen,SHINEd_sun_aixorpehvfykdynp.tif,95,0.0666666666666667,0.0666666666666667,0.883333333333333,997.88794575,998.607102166,13,997.949528083,998.010784916,998.612650791,999.489322416,0,0.719156416000033
123,14,4,categorization,0,kitchen,SHINEd_sun_aehawpgmrlhlvcow.tif,81,0.0666666666666667,0.0666666666666667,0.983333333333333,999.493935375,1000.047558458,9,999.555655833,999.616769416,1000.051792125,1001.028464208,1,0.553623083000048
123,15,4,categorization,0,kitchen,SHINEd_sun_ahspylgoovwmwvgk.tif,93,0.0666666666666667,0.0666666666666667,1.56666666666667,1001.033932833,1001.671056625,9,1001.095668125,1001.156675791,1001.67507325,1003.235108333,1,0.637123792000011
123,16,4,categorization,0,kitchen,SHINEd_sun_aadbddgrdsjugojn.tif,64,0.0666666666666667,0.0666666666666667,1.08333333333333,1003.252702541,1003.896054583,9,1003.31935075,1003.385989458,1003.906785875,1004.983502625,1,0.64335204200006
123,17,4,categorization,0,kitchen,SHINEd_sun_akchetnepxlcxhsu.tif,98,0.0666666666666667,0.0666666666666667,0.75,1004.995002166,1005.788130333,13,1005.059974416,1005.126581958,1005.797369125,1006.540751916,0,0.793128167000077
123,18,4,categorization,0,kitchen,SHINEd_sun_aenotlpyftoioydp.tif,82,0.0666666666666667,0.0666666666666667,0.966666666666667,1006.557124541,1007.575169083,13,1006.623720125,1006.689656708,1007.591884125,1008.551889208,0,1.01804454199998
123,19,4,categorization,0,kitchen,SHINEd_sun_aegoxogugdkwpmpj.tif,80,0.0666666666666667,0.0666666666666667,1.63333333333333,1008.556638125,1009.191419291,9,1008.618569791,1008.679455166,1009.197745375,1010.824453833,1,0.634781166000039
123,20,4,categorization,0,bathroom,SHINEd_sun_apkruvsevgegsdwp.tif,44,0.0666666666666667,0.0666666666666667,1.46666666666667,1010.842208416,1011.649043208,9,1010.909238083,1010.974786458,1011.664430125,1013.124473791,0,0.806834792000018
123,21,4,categorization,0,bathroom,SHINEd_sun_avhrdrntsqrjzccq.tif,55,0.0666666666666667,0.0666666666666667,0.933333333333333,1013.143469583,1013.915718791,13,1013.210371,1013.276109,1013.932101833,1014.858772833,1,0.772249208000062
123,22,4,categorization,0,kitchen,SHINEd_sun_aunzlwrbjumxhwdj.tif,103,0.0666666666666667,0.0666666666666667,1.45,1014.865972583,1015.566924583,9,1014.927685666,1014.98874575,1015.573948458,1017.017327333,1,0.700951999999916
123,23,4,categorization,0,bathroom,SHINEd_sun_aclfzgynxzxlbepz.tif,19,0.0666666666666667,0.0666666666666667,0.966666666666667,1017.034408666,1017.639119041,13,1017.101202875,1017.167657416,1017.657175833,1018.617216375,1,0.604710374999968
123,24,4,categorization,0,bathroom,SHINEd_sun_acegryoqftbzowsg.tif,17,0.0666666666666667,0.0666666666666667,0.816666666666667,1018.633859958,1019.271063708,9,1018.700213583,1018.757619583,1019.276162833,1020.086167375,0,0.637203750000026
123,25,4,categorization,0,bathroom,SHINEd_sun_aofnryafpsjimzsb.tif,40,0.0666666666666667,0.0666666666666667,1.96666666666667,1020.090942875,1020.887724666,9,1020.15275875,1020.213709791,1020.898717416,1022.85874825,0,0.796781791000058
123,26,4,categorization,0,kitchen,SHINEd_sun_abftihopvusyfakt.tif,71,0.0666666666666667,0.0666666666666667,0.916666666666667,1022.876849458,1023.490782916,9,1022.943423458,1023.009678625,1023.516183958,1024.426188958,1,0.613933457999906
123,27,4,categorization,0,bathroom,SHINEd_sun_aghyqhbptboemmoq.tif,23,0.0666666666666667,0.0666666666666667,1.28333333333333,1024.432447125,1025.135738166,13,1024.494196041,1024.555181291,1025.140489916,1026.4171965,1,0.703291041000057
123,28,4,categorization,0,kitchen,SHINEd_sun_aggjlwcdjsjcaemh.tif,86,0.0666666666666667,0.0666666666666667,1.8,1026.430152583,1027.225097208,13,1026.496667666,1026.563064625,1027.253117583,1029.046497458,0,0.794944624999971
123,29,4,categorization,0,bathroom,SHINEd_sun_axyrejkiiaqiurjk.tif,59,0.0666666666666667,0.0666666666666667,1.33333333333333,1029.067365416,1029.823625041,9,1029.134572208,1029.200397041,1029.839818291,1031.166517125,0,0.756259624999984
123,30,4,categorization,0,bathroom,SHINEd_sun_aggnnqpdorgxpvce.tif,21,0.0666666666666667,0.0666666666666667,1.06666666666667,1031.182867541,1032.162966166,9,1031.250061875,1031.31561025,1032.189549208,1033.24959875,0,0.980098624999982
123,31,4,categorization,0,kitchen,SHINEd_sun_auticobqsbwgoppi.tif,104,0.0666666666666667,0.0666666666666667,1.03333333333333,1033.259567291,1033.858192,13,1033.324214125,1033.389978416,1033.878837333,1034.905548541,0,0.598624708999978
123,32,4,categorization,0,bathroom,SHINEd_sun_agguqiubmwhqqunb.tif,22,0.0666666666666667,0.0666666666666667,0.733333333333333,1034.922983958,1035.879742,13,1034.989960875,1035.05589675,1035.891095916,1036.617768083,1,0.956758042000047
123,33,4,categorization,0,bathroom,SHINEd_sun_atstyziqcmkahyxk.tif,51,0.0666666666666667,0.0666666666666667,0.766666666666667,1036.622554208,1037.351124583,13,1036.684388583,1036.745269791,1037.363908333,1038.123911958,1,0.72857037499989
123,34,4,categorization,0,bathroom,SHINEd_sun_acgyywnybuveqsro.tif,18,0.0666666666666667,0.0666666666666667,1.1,1038.128789916,1057.680449375,9,1038.190582375,1038.251516875,1057.704066041,1058.797438708,0,19.5516594590001
123,35,4,categorization,0,kitchen,SHINEd_sun_admlmbcdswaszruo.tif,79,0.0666666666666667,0.0666666666666667,1.81666666666667,1058.807682333,1063.713831541,13,1058.872725291,1058.940386333,1063.730439,1065.540489458,0,4.90614920799999
123,36,4,categorization,0,bathroom,SHINEd_sun_aspsyogrekjtfozg.tif,50,0.0666666666666667,0.0666666666666667,0.883333333333333,1065.560325625,1066.335045,13,1065.627203333,1065.6929635,1066.348203166,1067.224875541,1,0.774719375000132
123,37,4,categorization,0,bathroom,SHINEd_sun_aunuadmjocsddsrl.tif,52,0.0666666666666667,0.0666666666666667,1.7,1067.229824041,1067.959640416,9,1067.291583916,1067.35260775,1067.971182666,1069.6645625,0,0.729816374999928
123,38,4,categorization,0,kitchen,SHINEd_sun_axyyrmzcupyhlivc.tif,107,0.0666666666666667,0.0666666666666667,1.58333333333333,1069.683677041,1070.322153666,13,1069.748755708,1069.81557325,1070.338075625,1071.914787166,0,0.638476625000067
123,39,4,categorization,0,kitchen,SHINEd_sun_aaxxjlsuzvqlgylf.tif,68,0.0666666666666667,0.0666666666666667,0.833333333333333,1071.926616416,1072.697899458,13,1071.99313875,1072.059184541,1072.715173958,1073.541846458,0,0.77128304200005
123,40,4,categorization,0,kitchen,SHINEd_sun_ahywdevtimnqcsln.tif,94,0.0666666666666667,0.0666666666666667,0.95,1073.549049,1074.174696333,13,1073.610832041,1073.672278083,1074.190775958,1075.134113666,0,0.625647332999961
123,41,4,categorization,0,kitchen,SHINEd_sun_agorklincwxrdtga.tif,87,0.0666666666666667,0.0666666666666667,1.06666666666667,1075.138807458,1075.719285041,9,1075.200515416,1075.262044041,1075.730650875,1076.790697166,1,0.580477582999947
123,42,4,categorization,0,bathroom,SHINEd_sun_ausgutylgojavyoq.tif,53,0.0666666666666667,0.0666666666666667,1.68333333333333,1076.799286916,1077.412528125,13,1076.863561291,1076.930462333,1077.436739958,1079.113461541,1,0.61324120900008
123,43,4,categorization,0,bathroom,SHINEd_sun_anryaplzeujmzfkd.tif,39,0.0666666666666667,0.0666666666666667,1.31666666666667,1079.133923458,1079.855377208,13,1079.200552166,1079.266577041,1079.871460416,1081.18151325,1,0.72145374999991
123,44,4,categorization,0,kitchen,SHINEd_sun_awcpdzzznmweyyhv.tif,106,0.0666666666666667,0.0666666666666667,1.61666666666667,1081.200161916,1081.928299041,9,1081.266809041,1081.33289075,1081.954820458,1083.564868833,1,0.728137124999876
123,45,4,categorization,0,kitchen,SHINEd_sun_aeqdocilnnpuvuhx.tif,83,0.0666666666666667,0.0666666666666667,1.15,1083.580045958,1084.276640875,9,1083.646166666,1083.712773666,1084.302908291,1085.446293916,1,0.696594917000084
123,46,4,categorization,0,bathroom,SHINEd_sun_apynckhmoftszqoq.tif,47,0.0666666666666667,0.0666666666666667,1.25,1085.456740041,1086.069038625,13,1085.5225215,1085.589318375,1086.09593275,1087.3393,1,0.612298583999973
123,47,4,categorization,0,kitchen,SHINEd_sun_ajcbwwvdlsvjyzje.tif,96,0.0666666666666667,0.0666666666666667,1.1,1087.357002291,1087.88657075,13,1087.419472625,1087.479822375,1087.89834125,1088.99170975,0,0.529568458999847
123,48,4,categorization,0,bathroom,SHINEd_sun_afcoljnjfoxjtgja.tif,20,0.0666666666666667,0.0666666666666667,0.9,1089.002355375,1089.539441666,13,1089.06731975,1089.134636708,1089.55731675,1090.450703958,1,0.537086290999923
123,49,4,categorization,0,kitchen,SHINEd_sun_ahljzhgcdpomplvg.tif,91,0.0666666666666667,0.0666666666666667,1.3,1090.467278208,1091.19146575,13,1090.53410725,1090.600121166,1091.202655208,1092.496028208,0,0.724187541999981
123,50,4,categorization,0,bathroom,SHINEd_sun_aapitsgbtktqubfy.tif,12,0.0666666666666667,0.0666666666666667,1.25,1092.510610291,1093.011127458,13,1092.577528125,1092.643090208,1093.032987541,1094.276365375,1,0.500517166999998
123,1,5,categorization,0,kitchen,SHINEd_sun_avszsnwsbuqfgzbn.tif,105,0.0666666666666667,0.0666666666666667,1.7,1099.158373375,1099.966578708,9,1099.220657166,1099.281158416,1099.983055666,1101.676424541,1,0.808205332999933
123,2,5,categorization,0,bathroom,SHINEd_sun_aclfzgynxzxlbepz.tif,19,0.0666666666666667,0.0666666666666667,1.81666666666667,1101.695148083,1102.655712708,9,1101.76158175,1101.822756125,1102.679386291,1104.489423916,0,0.960564624999961
123,3,5,categorization,0,bathroom,SHINEd_sun_agguqiubmwhqqunb.tif,22,0.0666666666666667,0.0666666666666667,1.23333333333333,1104.50835175,1105.153256875,13,1104.574868375,1104.641012458,1105.180541041,1106.407249083,1,0.644905124999923
123,4,5,categorization,0,kitchen,SHINEd_sun_aypmqwcualkenuoe.tif,109,0.0666666666666667,0.0666666666666667,1.4,1106.424785291,1107.262142875,9,1106.491497083,1106.557413958,1107.280025458,1108.673407333,1,0.837357584000074
123,5,5,categorization,0,bathroom,SHINEd_sun_aggnnqpdorgxpvce.tif,21,0.0666666666666667,0.0666666666666667,1.03333333333333,1108.691883166,1109.495007375,13,1108.758638291,1108.822489166,1109.511882458,1110.538588291,1,0.803124208999861
123,6,5,categorization,0,kitchen,SHINEd_sun_agzzivivdpnawacl.tif,89,0.0666666666666667,0.0666666666666667,1.38333333333333,1110.5498225,1111.183513833,9,1110.615182083,1110.68117025,1111.204338708,1112.581040291,1,0.633691333000115
123,7,5,categorization,0,kitchen,SHINEd_sun_admlmbcdswaszruo.tif,79,0.0666666666666667,0.0666666666666667,2,1112.593545875,1113.367006541,9,1112.655323333,1112.716255583,1113.384975625,1115.378361375,1,0.773460665999892
123,8,5,categorization,0,kitchen,SHINEd_sun_agubuxuukhzyzpdp.tif,88,0.0666666666666667,0.0666666666666667,1.85,1115.396470875,1116.114442583,9,1115.462783583,1115.529303375,1116.136018375,1117.979403583,1,0.71797170800005
123,9,5,categorization,0,bathroom,SHINEd_sun_acduarbnmmoglmiv.tif,16,0.0666666666666667,0.0666666666666667,0.816666666666667,1118.001080125,1118.751302583,13,1118.067887041,1118.134041833,1118.773956291,1119.58396175,1,0.750222458000053
123,10,5,categorization,0,kitchen,SHINEd_sun_acxkpeoqbwcxfvip.tif,77,0.0666666666666667,0.0666666666666667,1.85,1119.588997916,1120.359237375,9,1119.650599458,1119.711863625,1120.363829625,1122.207220791,1,0.770239459000095
123,11,5,categorization,0,bathroom,SHINEd_sun_amzlamotzwfkwjco.tif,37,0.0666666666666667,0.0666666666666667,0.733333333333333,1122.224236791,1123.170675916,9,1122.290880708,1122.356997875,1123.196744083,1123.923414333,0,0.94643912499987
123,12,5,categorization,0,bathroom,SHINEd_sun_ahqjwnzgolcaoidx.tif,29,0.0666666666666667,0.0666666666666667,0.716666666666667,1123.928206666,1124.646879458,13,1123.990023791,1124.050979375,1124.652975458,1125.362978708,1,0.718672792000007
123,13,5,categorization,0,kitchen,SHINEd_sun_abrcnpqqhmjwekyf.tif,73,0.0666666666666667,0.0666666666666667,0.833333333333333,1125.367778166,1126.006616541,9,1125.429579541,1125.490641125,1126.025738208,1126.852409,1,0.638838374999978
123,14,5,categorization,0,bathroom,SHINEd_sun_ahaulkltgpkeeemi.tif,26,0.0666666666666667,0.0666666666666667,0.95,1126.857189916,1128.126640625,9,1126.918904083,1126.979919875,1128.132196916,1129.075535708,0,1.26945070900001
123,15,5,categorization,0,bathroom,SHINEd_sun_agyqfjcfkdcydepw.tif,25,0.0666666666666667,0.0666666666666667,1.96666666666667,1129.081847583,1130.199137625,13,1129.143642625,1129.204365666,1130.206187333,1132.16623825,1,1.11729004200015
123,16,5,categorization,0,kitchen,SHINEd_sun_akchetnepxlcxhsu.tif,98,0.0666666666666667,0.0666666666666667,1.86666666666667,1132.185182333,1132.936714875,13,1132.251944333,1132.317819375,1132.957517,1134.8175725,0,0.75153254199995
123,17,5,categorization,0,kitchen,SHINEd_sun_ahljzhgcdpomplvg.tif,91,0.0666666666666667,0.0666666666666667,1.51666666666667,1134.83531275,1135.528052916,9,1134.902113041,1134.968096208,1135.558138666,1137.06819225,1,0.692740166000021
123,18,5,categorization,0,bathroom,SHINEd_sun_atstyziqcmkahyxk.tif,51,0.0666666666666667,0.0666666666666667,1.3,1137.082753791,1137.931111375,13,1137.149029458,1137.215801416,1137.955761958,1139.249140041,1,0.848357584000041
123,19,5,categorization,0,kitchen,SHINEd_sun_aeqdocilnnpuvuhx.tif,83,0.0666666666666667,0.0666666666666667,1.91666666666667,1139.267432083,1139.913511416,9,1139.333874625,1139.400372541,1139.940319416,1141.850370041,1,0.646079332999989
123,20,5,categorization,0,kitchen,SHINEd_sun_abftihopvusyfakt.tif,71,0.0666666666666667,0.0666666666666667,1.23333333333333,1141.862572416,1142.60706125,9,1141.929160375,1141.995454708,1142.635499708,1143.862191583,1,0.744488834000094
123,21,5,categorization,0,bathroom,SHINEd_labelme_sfxiulhjbhlyiyt.tif,11,0.0666666666666667,0.0666666666666667,0.866666666666667,1143.873147208,1144.569707875,13,1143.9383745,1144.005824541,1144.595621916,1145.455670125,1,0.696560666999858
123,22,5,categorization,0,bathroom,SHINEd_sun_ahcvzmoyaycdoftf.tif,27,0.0666666666666667,0.0666666666666667,0.8,1145.471945958,1146.11039425,13,1145.538808958,1145.604605791,1146.123195625,1146.916534416,1,0.638448291999794
123,23,5,categorization,0,kitchen,SHINEd_sun_aamedkxepzlwuxes.tif,65,0.0666666666666667,0.0666666666666667,1.51666666666667,1146.921300208,1147.566684791,9,1146.983056083,1147.04400525,1147.579171541,1149.089203458,1,0.645384582999895
123,24,5,categorization,0,kitchen,SHINEd_labelme_kxvouciolcpqplr.tif,62,0.0666666666666667,0.0666666666666667,1.18333333333333,1149.106826791,1149.791845125,13,1149.173354458,1149.239309666,1149.812744916,1150.989445958,0,0.685018334000006
123,25,5,categorization,0,kitchen,SHINEd_sun_aadbddgrdsjugojn.tif,64,0.0666666666666667,0.0666666666666667,1.6,1150.998883791,1151.745209708,9,1151.065820583,1151.13264025,1151.773020541,1153.366406083,1,0.746325916999922
123,26,5,categorization,0,kitchen,SHINEd_sun_aenotlpyftoioydp.tif,82,0.0666666666666667,0.0666666666666667,1.56666666666667,1153.382352833,1154.030088916,9,1153.449659291,1153.515146791,1154.055866583,1155.615903166,1,0.647736083000154
123,27,5,categorization,0,kitchen,SHINEd_sun_aehawpgmrlhlvcow.tif,81,0.0666666666666667,0.0666666666666667,1.36666666666667,1155.634007333,1156.326685458,9,1155.7008485,1155.766604125,1156.356894958,1157.716926833,1,0.692678124999929
123,28,5,categorization,0,bathroom,SHINEd_sun_aleqenyvunhactkl.tif,32,0.0666666666666667,0.0666666666666667,1.53333333333333,1157.73434675,1158.552535666,9,1157.8014345,1157.86401075,1158.569530958,1160.096248791,0,0.818188916000054
123,29,5,categorization,0,bathroom,SHINEd_sun_aavhrsfjbserjtht.tif,13,0.0666666666666667,0.0666666666666667,1.4,1160.114183708,1161.096058958,13,1160.181590708,1160.2472095,1161.120814875,1162.514182291,1,0.98187525000003
123,30,5,categorization,0,bathroom,SHINEd_sun_aoybiabnpadelefl.tif,41,0.0666666666666667,0.0666666666666667,1.06666666666667,1162.53481525,1163.268679791,9,1162.602158125,1162.667471125,1163.290922375,1164.350961708,0,0.733864541000003
123,31,5,categorization,0,kitchen,SHINEd_sun_acgtpgfybqjmzeyw.tif,75,0.0666666666666667,0.0666666666666667,1.63333333333333,1164.361149375,1164.942363125,9,1164.426317458,1164.492595708,1164.966230833,1166.592943375,1,0.581213749999961
123,32,5,categorization,0,bathroom,SHINEd_sun_avhrdrntsqrjzccq.tif,55,0.0666666666666667,0.0666666666666667,1.8,1166.606377333,1167.338208208,9,1166.67334025,1166.739526458,1167.3627825,1169.1561525,0,0.731830875000014
123,33,5,categorization,0,kitchen,SHINEd_sun_aggjlwcdjsjcaemh.tif,86,0.0666666666666667,0.0666666666666667,1.53333333333333,1169.173743458,1170.039992958,13,1169.240837333,1169.306776,1170.064403,1171.591105291,0,0.866249500000094
123,34,5,categorization,0,kitchen,SHINEd_sun_aegoxogugdkwpmpj.tif,80,0.0666666666666667,0.0666666666666667,0.766666666666667,1171.608101541,1172.230538666,9,1171.674916125,1171.738906666,1172.244773541,1173.004826833,1,0.622437125000033
123,35,5,categorization,0,kitchen,SHINEd_sun_azmutvzbxypaceni.tif,110,0.0666666666666667,0.0666666666666667,1.86666666666667,1173.021808166,1173.934630333,9,1173.088888541,1173.146651875,1173.948492083,1175.808534541,1,0.912822167000058
123,36,5,categorization,0,bathroom,SHINEd_sun_ajlawzvmubibwbpy.tif,30,0.0666666666666667,0.0666666666666667,1.13333333333333,1175.820018083,1176.559482458,13,1175.884262916,1175.951676875,1176.573567791,1177.7002745,1,0.739464375000125
123,37,5,categorization,0,kitchen,SHINEd_sun_ajkqhtgcbgpcwrwn.tif,97,0.0666666666666667,0.0666666666666667,1.73333333333333,1177.70875825,1178.36219825,9,1177.773316958,1177.840213416,1178.378990708,1180.105711416,1,0.653439999999819
123,38,5,categorization,0,bathroom,SHINEd_sun_apmqjbnwghzuhhzh.tif,46,0.0666666666666667,0.0666666666666667,0.766666666666667,1180.123520416,1180.881363791,13,1180.190161791,1180.256504625,1180.895422625,1181.655470458,1,0.757843374999993
123,39,5,categorization,0,bathroom,SHINEd_sun_anryaplzeujmzfkd.tif,39,0.0666666666666667,0.0666666666666667,1.85,1181.671065791,1182.422627166,9,1181.735712416,1181.802662166,1182.438223708,1184.2815995,0,0.751561374999937
123,40,5,categorization,0,kitchen,SHINEd_sun_aunzlwrbjumxhwdj.tif,103,0.0666666666666667,0.0666666666666667,0.966666666666667,1184.299936291,1185.035929958,9,1184.366449625,1184.432629875,1185.055383416,1186.015387583,1,0.735993667000002
123,41,5,categorization,0,bathroom,SHINEd_sun_acegryoqftbzowsg.tif,17,0.0666666666666667,0.0666666666666667,1.06666666666667,1186.020235333,1187.19913275,13,1186.082044708,1186.142915958,1187.211448916,1188.271495416,1,1.17889741699992
123,42,5,categorization,0,kitchen,SHINEd_sun_ahspylgoovwmwvgk.tif,93,0.0666666666666667,0.0666666666666667,1.38333333333333,1188.282538333,1188.977641208,9,1188.34816,1188.413855458,1189.002390041,1190.379093916,1,0.695102874999975
123,43,5,categorization,0,bathroom,SHINEd_sun_apeeialkgkuxddgh.tif,42,0.0666666666666667,0.0666666666666667,0.766666666666667,1190.396279166,1191.069743916,13,1190.46276725,1190.528968833,1191.084764,1191.844819333,1,0.673464749999994
123,44,5,categorization,0,bathroom,SHINEd_sun_alotolagknyrgtsk.tif,35,0.0666666666666667,0.0666666666666667,0.866666666666667,1191.858237458,1193.350322333,13,1191.925139208,1191.990719166,1193.359673833,1194.219679125,1,1.49208487499982
123,45,5,categorization,0,kitchen,SHINEd_sun_ahpczsiumwwocjkv.tif,92,0.0666666666666667,0.0666666666666667,1.25,1194.224458375,1195.134655083,9,1194.2862375,1194.347151291,1195.149562541,1196.392946791,1,0.910196708000058
123,46,5,categorization,0,bathroom,SHINEd_sun_aljolscmmzydegqp.tif,33,0.0666666666666667,0.0666666666666667,1.03333333333333,1196.408065541,1197.252168125,13,1196.476106625,1196.540867208,1197.280613666,1198.307317,1,0.844102583999984
123,47,5,categorization,0,kitchen,SHINEd_sun_auaiucuqpdausiva.tif,102,0.0666666666666667,0.0666666666666667,0.783333333333333,1198.317090125,1198.875917041,9,1198.382063666,1198.4485695,1198.905248875,1199.68196,1,0.558826916000044
123,48,5,categorization,0,kitchen,SHINEd_sun_agorklincwxrdtga.tif,87,0.0666666666666667,0.0666666666666667,0.7,1199.699840625,1200.510807,9,1199.764592208,1199.827747041,1200.530309416,1201.223646916,1,0.810966375000135
123,49,5,categorization,0,bathroom,SHINEd_sun_anhioqovhscjqqwb.tif,38,0.0666666666666667,0.0666666666666667,1.75,1201.228371125,1201.926380791,13,1201.290182541,1201.351057625,1201.936320791,1203.679695625,1,0.698009665999962
123,50,5,categorization,0,bathroom,SHINEd_sun_axxbkopsgyouuebh.tif,58,0.0666666666666667,0.0666666666666667,1.36666666666667,1203.697241166,1204.4683235,13,1203.764047791,1203.8286935,1204.484317041,1205.844355958,1,0.771082334000084
123,1,6,categorization,0,kitchen,SHINEd_sun_akcjzhbbjlbogpdi.tif,99,0.0666666666666667,0.0666666666666667,0.966666666666667,1210.945001541,1212.062313541,13,1211.007358958,1211.067774291,1212.069569,1213.029573291,0,1.11731200000008
123,2,6,categorization,0,kitchen,SHINEd_sun_acwjdupvyjsugpay.tif,76,0.0666666666666667,0.0666666666666667,1.73333333333333,1213.034288916,1213.982839666,9,1213.096081458,1213.157196625,1213.992455125,1215.71916225,1,0.948550750000095
123,3,6,categorization,0,kitchen,SHINEd_sun_abpwyqmlzafvklqo.tif,72,0.0666666666666667,0.0666666666666667,1.91666666666667,1215.733119291,1216.560580541,9,1215.799728125,1215.86307625,1216.586481916,1218.496522416,1,0.827461249999942
123,4,6,categorization,0,bathroom,SHINEd_sun_azqyogdvyhahyram.tif,60,0.0666666666666667,0.0666666666666667,0.766666666666667,1218.513461083,1219.227120666,13,1218.580210708,1218.646324458,1219.252599458,1220.012604416,1,0.713659582999981
123,5,6,categorization,0,bathroom,SHINEd_sun_apkxzenqapsujocq.tif,45,0.0666666666666667,0.0666666666666667,0.916666666666667,1220.017508041,1220.661983583,13,1220.079268583,1220.140328833,1220.675727041,1221.58573075,1,0.644475542000009
123,6,6,categorization,0,bathroom,SHINEd_sun_abapwbhyhkfixyex.tif,14,0.0666666666666667,0.0666666666666667,1.18333333333333,1221.590525333,1222.309967208,9,1221.652080708,1221.713247666,1222.3151665,1223.491864958,0,0.71944187500003
123,7,6,categorization,0,bathroom,SHINEd_sun_aofnryafpsjimzsb.tif,40,0.0666666666666667,0.0666666666666667,1.8,1223.501443875,1224.385858,13,1223.567879083,1223.634055708,1224.407411416,1226.200779916,1,0.884414125000148
123,8,6,categorization,0,bathroom,SHINEd_sun_abjtwfukuwddzted.tif,15,0.0666666666666667,0.0666666666666667,0.883333333333333,1226.217282458,1227.266886958,13,1226.283796666,1226.350068083,1227.290430666,1228.167102875,1,1.04960449999999
123,9,6,categorization,0,bathroom,SHINEd_sun_awnqiikzaispgmwo.tif,56,0.0666666666666667,0.0666666666666667,1.83333333333333,1228.172063291,1228.854482916,13,1228.23390575,1228.294855041,1228.863453208,1230.690150083,1,0.682419624999966
123,10,6,categorization,0,kitchen,SHINEd_sun_acfmftudsenhrfhy.tif,74,0.0666666666666667,0.0666666666666667,1.76666666666667,1230.70766125,1231.480518791,9,1230.774233541,1230.84042425,1231.496356916,1233.256410583,1,0.772857540999894
123,11,6,categorization,0,bathroom,SHINEd_sun_aapitsgbtktqubfy.tif,12,0.0666666666666667,0.0666666666666667,0.983333333333333,1233.274760625,1233.925586708,13,1233.340938666,1233.407685583,1233.946545083,1234.923216625,1,0.650826083000084
123,12,6,categorization,0,bathroom,SHINEd_sun_aghyqhbptboemmoq.tif,23,0.0666666666666667,0.0666666666666667,0.883333333333333,1234.92838825,1235.566792833,13,1234.990245708,1235.051126458,1235.5863245,1236.462995333,1,0.63840458300001
123,13,6,categorization,0,kitchen,SHINEd_sun_amjjdeyrggfqgmom.tif,100,0.0666666666666667,0.0666666666666667,0.85,1236.467814791,1237.230855791,9,1236.529399958,1236.590507458,1237.242612083,1238.085948916,1,0.763041000000158
123,14,6,categorization,0,bathroom,SHINEd_sun_axyrejkiiaqiurjk.tif,59,0.0666666666666667,0.0666666666666667,0.733333333333333,1238.09067075,1238.734561666,9,1238.152361125,1238.21340625,1238.748653166,1239.4753225,0,0.643890915999918
123,15,6,categorization,0,bathroom,SHINEd_sun_apkruvsevgegsdwp.tif,44,0.0666666666666667,0.0666666666666667,1.88333333333333,1239.480995083,1240.110516458,13,1239.542737291,1239.603616416,1240.122157291,1241.998855125,1,0.629521374999968
123,16,6,categorization,0,bathroom,SHINEd_sun_apjevzvycyhuqghb.tif,43,0.0666666666666667,0.0666666666666667,0.816666666666667,1242.01619025,1242.879036958,13,1242.082887791,1242.148756166,1242.905380458,1243.715385833,1,0.862846708000006
123,17,6,categorization,0,bathroom,SHINEd_sun_aqrpegblszgcoujh.tif,48,0.0666666666666667,0.0666666666666667,1.9,1243.720223583,1244.253864791,9,1243.781842791,1243.843043416,1244.261737833,1246.155105291,0,0.533641208000063
123,18,6,categorization,0,bathroom,SHINEd_sun_alkosphxlxwjwgjd.tif,34,0.0666666666666667,0.0666666666666667,0.983333333333333,1246.17512125,1246.785377708,13,1246.241933791,1246.307831916,1246.814610666,1247.791282458,1,0.610256457999867
123,19,6,categorization,0,kitchen,SHINEd_sun_ahdycvpopffkzzsu.tif,90,0.0666666666666667,0.0666666666666667,0.75,1247.797778958,1248.3986115,9,1247.8595445,1247.920469833,1248.406110791,1249.149447875,1,0.600832542000035
123,20,6,categorization,0,kitchen,SHINEd_sun_aaxxjlsuzvqlgylf.tif,68,0.0666666666666667,0.0666666666666667,1.6,1249.154052458,1249.918749583,9,1249.215620041,1249.27692975,1249.928672708,1251.522045416,1,0.764697124999884
123,21,6,categorization,0,bathroom,SHINEd_sun_aspsyogrekjtfozg.tif,50,0.0666666666666667,0.0666666666666667,1.58333333333333,1251.539840583,1252.151485708,13,1251.606249875,1251.672697375,1252.179080875,1253.755791083,1,0.611645125000223
123,22,6,categorization,0,kitchen,SHINEd_labelme_brsyyvweiuaazfr.tif,61,0.0666666666666667,0.0666666666666667,1.11666666666667,1253.770152041,1254.320153125,9,1253.835137125,1253.900574791,1254.340172375,1255.450210125,1,0.550001083999859
123,23,6,categorization,0,bathroom,SHINEd_sun_axldvoqbuvuggfmq.tif,57,0.0666666666666667,0.0666666666666667,1.53333333333333,1255.461692458,1256.169956833,9,1255.52650325,1255.5942545,1256.182600375,1257.709301666,0,0.708264374999999
123,24,6,categorization,0,bathroom,SHINEd_sun_acgyywnybuveqsro.tif,18,0.0666666666666667,0.0666666666666667,1.48333333333333,1257.726532125,1258.326112166,13,1257.793496,1257.856717166,1258.346613208,1259.823304708,1,0.599580041000081
123,25,6,categorization,0,kitchen,SHINEd_sun_aexklacwqwezaorf.tif,84,0.0666666666666667,0.0666666666666667,1.1,1259.832770083,1260.631063,13,1259.8984145,1259.9655995,1260.655272833,1261.748661291,0,0.798292917000026
123,26,6,categorization,0,bathroom,SHINEd_sun_agrwbmhcpmfuwmsg.tif,24,0.0666666666666667,0.0666666666666667,0.933333333333333,1261.75992825,1262.44027075,13,1261.824496625,1261.886708708,1262.458890041,1263.38561425,1,0.680342500000052
123,27,6,categorization,0,kitchen,SHINEd_sun_aarfiyshqohlwkmo.tif,67,0.0666666666666667,0.0666666666666667,0.816666666666667,1263.401257208,1264.102693041,9,1263.467926583,1263.533897125,1264.119169208,1264.929173208,1,0.701435833000005
123,28,6,categorization,0,kitchen,SHINEd_sun_adgqasybjyktddhj.tif,78,0.0666666666666667,0.0666666666666667,1.78333333333333,1264.933961291,1265.48680825,9,1264.995752833,1265.056689041,1265.491853958,1267.268575791,1,0.552846958999908
123,29,6,categorization,0,bathroom,SHINEd_sun_ahijqszoswveeyji.tif,28,0.0666666666666667,0.0666666666666667,0.766666666666667,1267.288736291,1267.958496958,13,1267.355597708,1267.421932625,1267.978588375,1268.738594375,1,0.669760666999991
123,30,6,categorization,0,kitchen,SHINEd_sun_ajcbwwvdlsvjyzje.tif,96,0.0666666666666667,0.0666666666666667,1.45,1268.74410425,1269.534516125,13,1268.805941,1268.866823333,1269.552653666,1270.996038125,0,0.790411875000018
123,31,6,categorization,0,kitchen,SHINEd_sun_abdxkyyxwfskuaqb.tif,70,0.0666666666666667,0.0666666666666667,0.75,1271.016465875,1271.903859958,13,1271.08263225,1271.14936975,1271.922418541,1272.665759208,0,0.887394083000117
123,32,6,categorization,0,bathroom,SHINEd_sun_afcoljnjfoxjtgja.tif,20,0.0666666666666667,0.0666666666666667,1.36666666666667,1272.671361333,1274.181922625,9,1272.733073,1272.794613583,1274.196820708,1275.55685875,0,1.51056129199992
123,33,6,categorization,0,bathroom,SHINEd_sun_akiytfaagpdsphgz.tif,31,0.0666666666666667,0.0666666666666667,0.75,1275.573594583,1276.345819833,9,1275.64094275,1275.706323333,1276.362057166,1277.105441125,0,0.77222525000002
123,34,6,categorization,0,kitchen,SHINEd_sun_axyyrmzcupyhlivc.tif,107,0.0666666666666667,0.0666666666666667,0.783333333333333,1277.118785791,1281.179385375,13,1277.185285625,1277.251417916,1281.196024833,1281.972696416,0,4.0605995840001
123,35,6,categorization,0,bathroom,SHINEd_sun_ausgutylgojavyoq.tif,53,0.0666666666666667,0.0666666666666667,1.11666666666667,1281.977213166,1282.63858825,13,1282.039007083,1282.099912291,1282.651749,1283.761802333,1,0.661375084000156
123,36,6,categorization,0,kitchen,SHINEd_sun_auticobqsbwgoppi.tif,104,0.0666666666666667,0.0666666666666667,0.766666666666667,1283.770263875,1284.6970115,9,1283.8349065,1283.897120541,1284.720068041,1285.480120583,1,0.926747624999962
123,37,6,categorization,0,kitchen,SHINEd_sun_abdenxonkemggwsq.tif,69,0.0666666666666667,0.0666666666666667,0.716666666666667,1285.496342375,1286.214021666,9,1285.562471958,1285.629031375,1286.230978291,1286.94098425,1,0.717679290999968
123,38,6,categorization,0,kitchen,SHINEd_sun_aapllqyqlykszopd.tif,66,0.0666666666666667,0.0666666666666667,1.33333333333333,1286.94773825,1289.7421625,13,1287.009533166,1287.070459041,1289.75616775,1291.082870791,0,2.79442425000002
123,39,6,categorization,0,bathroom,SHINEd_sun_ambriybtogmepttm.tif,36,0.0666666666666667,0.0666666666666667,1.75,1291.100882458,1291.793968875,13,1291.167725208,1291.233486291,1291.82138175,1293.564765625,1,0.693086417000131
123,40,6,categorization,0,kitchen,SHINEd_sun_awcpdzzznmweyyhv.tif,106,0.0666666666666667,0.0666666666666667,1.13333333333333,1293.582783958,1294.243574,13,1293.649641125,1293.7157755,1294.272825708,1295.399532125,0,0.660790042000144
123,41,6,categorization,0,bathroom,SHINEd_sun_apynckhmoftszqoq.tif,47,0.0666666666666667,0.0666666666666667,1.63333333333333,1295.41035925,1299.5290715,9,1295.474900208,1295.5430225,1299.546752708,1301.173460208,0,4.11871225000004
123,42,6,categorization,0,kitchen,SHINEd_sun_ahywdevtimnqcsln.tif,94,0.0666666666666667,0.0666666666666667,1.43333333333333,1301.191477791,1301.728803041,9,1301.257756166,1301.324616458,1301.7472275,1303.173947916,1,0.537325250000094
123,43,6,categorization,0,kitchen,SHINEd_sun_afuyedyxivkhecmu.tif,85,0.0666666666666667,0.0666666666666667,1.83333333333333,1303.189979458,1303.744365458,9,1303.256716958,1303.322908833,1303.760997208,1305.587702708,1,0.554386000000022
123,44,6,categorization,0,kitchen,SHINEd_labelme_rykdqxenmhulbdn.tif,63,0.0666666666666667,0.0666666666666667,1.93333333333333,1305.606466416,1306.178925541,9,1305.673327791,1305.738967666,1306.195089625,1308.121805958,1,0.572459124999796
123,45,6,categorization,0,bathroom,SHINEd_sun_aunuadmjocsddsrl.tif,52,0.0666666666666667,0.0666666666666667,1.26666666666667,1308.139819625,1308.828099125,13,1308.206422583,1308.272546208,1308.845125375,1310.105165166,1,0.688279500000135
123,46,6,categorization,0,kitchen,SHINEd_sun_aqeaevwwwjoqhzvl.tif,101,0.0666666666666667,0.0666666666666667,1.86666666666667,1310.1205265,1310.899263375,9,1310.187507416,1310.25326275,1310.927083541,1312.787118125,1,0.778736874999822
123,47,6,categorization,0,bathroom,SHINEd_sun_auzqhkafidnkrwmo.tif,54,0.0666666666666667,0.0666666666666667,1.41666666666667,1312.805865333,1313.524169958,13,1312.8726725,1312.938442916,1313.545315375,1314.955373208,1,0.718304624999973
123,48,6,categorization,0,kitchen,SHINEd_sun_aymvwlarqodbwuoc.tif,108,0.0666666666666667,0.0666666666666667,1.11666666666667,1314.973001291,1315.655838,9,1315.039864166,1315.105821833,1315.679049208,1316.789085875,1,0.682836708999957
123,49,6,categorization,0,kitchen,SHINEd_sun_aixorpehvfykdynp.tif,95,0.0666666666666667,0.0666666666666667,1.8,1316.798558333,1317.4249415,9,1316.86525375,1316.931501791,1317.454914708,1319.248296416,1,0.626383166999858
123,50,6,categorization,0,bathroom,SHINEd_sun_asfwthctfqerjvxr.tif,49,0.0666666666666667,0.0666666666666667,1.25,1319.264262208,1319.851899,9,1319.331504375,1319.397045,1319.8683865,1321.111766458,0,0.587636792000012
123,1,7,categorization,0,bathroom,SHINEd_labelme_sfxiulhjbhlyiyt.tif,11,0.0666666666666667,0.0666666666666667,0.883333333333333,1352.440415458,1353.253327375,13,1352.502964416,1352.563176875,1353.265413791,1354.1420845,1,0.812911917000065
123,2,7,categorization,0,kitchen,SHINEd_sun_awcpdzzznmweyyhv.tif,106,0.0666666666666667,0.0666666666666667,1.03333333333333,1354.147485208,1354.790167041,9,1354.209315291,1354.2702585,1354.805351458,1355.8320605,1,0.64268183299987
123,3,7,categorization,0,bathroom,SHINEd_sun_agguqiubmwhqqunb.tif,22,0.0666666666666667,0.0666666666666667,1.06666666666667,1355.839802791,1356.675096666,13,1355.904341083,1355.971805458,1356.695301416,1357.755340958,1,0.835293874999934
123,4,7,categorization,0,kitchen,SHINEd_sun_avszsnwsbuqfgzbn.tif,105,0.0666666666666667,0.0666666666666667,0.833333333333333,1357.770510166,1358.52621625,9,1357.835509416,1357.9003625,1358.536239,1359.362910875,1,0.755706084000167
123,5,7,categorization,0,bathroom,SHINEd_sun_aavhrsfjbserjtht.tif,13,0.0666666666666667,0.0666666666666667,0.716666666666667,1359.36768975,1360.141951,13,1359.429398958,1359.490340833,1360.158956666,1360.868961625,1,0.774261250000109
123,6,7,categorization,0,kitchen,SHINEd_sun_aadbddgrdsjugojn.tif,64,0.0666666666666667,0.0666666666666667,0.733333333333333,1360.874571083,1361.582395375,9,1360.936246041,1360.997304916,1361.599006291,1362.325676958,1,0.707824291999941
123,7,7,categorization,0,kitchen,SHINEd_sun_aypmqwcualkenuoe.tif,109,0.0666666666666667,0.0666666666666667,1.38333333333333,1362.330391791,1362.910392958,9,1362.392145708,1362.453040958,1362.921667291,1364.298384083,1,0.580001167000091
123,8,7,categorization,0,bathroom,SHINEd_sun_apynckhmoftszqoq.tif,47,0.0666666666666667,0.0666666666666667,0.9,1364.315847916,1365.081354916,13,1364.38265,1364.449094375,1365.1051945,1365.998535375,1,0.765507000000071
123,9,7,categorization,0,bathroom,SHINEd_sun_abjtwfukuwddzted.tif,15,0.0666666666666667,0.0666666666666667,0.816666666666667,1366.004405791,1366.878351,9,1366.066034833,1366.12721575,1366.896374625,1367.706378458,0,0.873945209000112
123,10,7,categorization,0,bathroom,SHINEd_sun_apkxzenqapsujocq.tif,45,0.0666666666666667,0.0666666666666667,0.85,1367.711048,1368.405295166,13,1367.772833166,1367.833776458,1368.419183333,1369.262521208,1,0.694247166000196
123,11,7,categorization,0,bathroom,SHINEd_sun_aofnryafpsjimzsb.tif,40,0.0666666666666667,0.0666666666666667,1.6,1369.267278625,1369.942345666,9,1369.328948541,1369.38998,1369.958500458,1371.551885625,0,0.67506704099992
123,12,7,categorization,0,bathroom,SHINEd_sun_aghyqhbptboemmoq.tif,23,0.0666666666666667,0.0666666666666667,1.75,1371.569909916,1372.2642935,13,1371.636236125,1371.702551333,1372.292487333,1374.035873333,1,0.694383583999979
123,13,7,categorization,0,kitchen,SHINEd_labelme_kxvouciolcpqplr.tif,62,0.0666666666666667,0.0666666666666667,1.1,1374.054034291,1375.286980166,9,1374.120391291,1374.187034583,1375.313079958,1376.406454875,1,1.23294587499981
123,14,7,categorization,0,bathroom,SHINEd_sun_agrwbmhcpmfuwmsg.tif,24,0.0666666666666667,0.0666666666666667,1.46666666666667,1376.414645166,1377.191173583,13,1376.480141791,1376.547268375,1377.220440833,1378.680473333,1,0.776528417000009
123,15,7,categorization,0,kitchen,SHINEd_sun_auticobqsbwgoppi.tif,104,0.0666666666666667,0.0666666666666667,1.25,1378.69873725,1379.370493458,9,1378.765466791,1378.83165375,1379.387792791,1380.63117075,1,0.671756208000033
123,16,7,categorization,0,bathroom,SHINEd_sun_aljolscmmzydegqp.tif,33,0.0666666666666667,0.0666666666666667,1.13333333333333,1380.64180275,1381.384214666,13,1380.706466208,1380.774448708,1381.414375166,1382.541087125,1,0.742411916000037
123,17,7,categorization,0,bathroom,SHINEd_sun_auzqhkafidnkrwmo.tif,54,0.0666666666666667,0.0666666666666667,1.33333333333333,1382.558733583,1383.334296291,13,1382.625496958,1382.691296,1383.343663208,1384.6703865,1,0.775562708000052
123,18,7,categorization,0,bathroom,SHINEd_sun_axyrejkiiaqiurjk.tif,59,0.0666666666666667,0.0666666666666667,1.86666666666667,1384.688249166,1385.3301815,9,1384.754827375,1384.820966875,1385.343307458,1387.203362458,0,0.641932333999875
123,19,7,categorization,0,kitchen,SHINEd_sun_aixorpehvfykdynp.tif,95,0.0666666666666667,0.0666666666666667,1.58333333333333,1387.221420291,1387.859508041,9,1387.288455958,1387.353991583,1387.876026583,1389.452742958,1,0.638087750000068
123,20,7,categorization,0,kitchen,SHINEd_sun_acxkpeoqbwcxfvip.tif,77,0.0666666666666667,0.0666666666666667,1.05,1389.47073325,1390.203661375,9,1389.537507041,1389.603239625,1390.226751541,1391.27012525,1,0.732928124999944
123,21,7,categorization,0,bathroom,SHINEd_sun_aggnnqpdorgxpvce.tif,21,0.0666666666666667,0.0666666666666667,0.9,1391.280675958,1392.675142416,13,1391.3452855,1391.411833916,1392.7034175,1393.596754166,1,1.3944664579999
123,22,7,categorization,0,bathroom,SHINEd_sun_axldvoqbuvuggfmq.tif,57,0.0666666666666667,0.0666666666666667,0.7,1393.601958083,1394.245642,9,1393.663806958,1393.724758291,1394.26047325,1394.953812416,0,0.643683917000089
123,23,7,categorization,0,kitchen,SHINEd_sun_ajcbwwvdlsvjyzje.tif,96,0.0666666666666667,0.0666666666666667,0.933333333333333,1394.9585475,1395.790235875,13,1395.020326208,1395.081262416,1395.799741291,1396.726411375,0,0.831688375000113
123,24,7,categorization,0,kitchen,SHINEd_sun_aunzlwrbjumxhwdj.tif,103,0.0666666666666667,0.0666666666666667,1.95,1396.731204875,1397.325570416,9,1396.792903916,1396.853911166,1397.339348416,1399.28272425,1,0.594365540999888
123,25,7,categorization,0,bathroom,SHINEd_sun_azqyogdvyhahyram.tif,60,0.0666666666666667,0.0666666666666667,1.06666666666667,1399.300164,1399.42063625,9,1399.366333875,1399.433512208,1399.456721791,1400.5167745,0,0.120472249999921
123,26,7,categorization,0,bathroom,SHINEd_sun_aunuadmjocsddsrl.tif,52,0.0666666666666667,0.0666666666666667,1.2,1400.525795291,1402.606331833,13,1400.592467791,1400.658084875,1402.627752458,1403.821106625,1,2.08053654200012
123,27,7,categorization,0,kitchen,SHINEd_sun_ahpczsiumwwocjkv.tif,92,0.0666666666666667,0.0666666666666667,0.75,1403.831942875,1404.493102791,9,1403.896545458,1403.961827333,1404.516731041,1405.260102833,1,0.66115991599986
123,28,7,categorization,0,bathroom,SHINEd_sun_apkruvsevgegsdwp.tif,44,0.0666666666666667,0.0666666666666667,0.816666666666667,1405.27672225,1406.341405166,13,1405.343250791,1405.409453333,1406.344591458,1407.154595958,1,1.06468291600004
123,29,7,categorization,0,kitchen,SHINEd_sun_abrcnpqqhmjwekyf.tif,73,0.0666666666666667,0.0666666666666667,1.96666666666667,1407.159440041,1407.782126458,9,1407.221220208,1407.282184541,1407.801068916,1409.761093666,1,0.622686417000068
123,30,7,categorization,0,bathroom,SHINEd_sun_abapwbhyhkfixyex.tif,14,0.0666666666666667,0.0666666666666667,1.2,1409.7757435,1410.574795666,13,1409.840805,1409.903382958,1410.592446125,1411.785819375,1,0.79905216599991
123,31,7,categorization,0,kitchen,SHINEd_sun_agorklincwxrdtga.tif,87,0.0666666666666667,0.0666666666666667,0.883333333333333,1411.797168791,1412.447477875,9,1411.864095041,1411.930621416,1412.47108175,1413.347782791,1,0.6503090839999
123,32,7,categorization,0,kitchen,SHINEd_sun_abdxkyyxwfskuaqb.tif,70,0.0666666666666667,0.0666666666666667,1.33333333333333,1413.365402958,1415.053664875,13,1413.432009083,1413.497961375,1415.067047916,1416.393755375,0,1.68826191700009
123,33,7,categorization,0,bathroom,SHINEd_sun_alkosphxlxwjwgjd.tif,34,0.0666666666666667,0.0666666666666667,1.45,1416.411322416,1417.362057375,9,1416.479052125,1416.544156041,1417.384230875,1418.82761725,0,0.950734958999874
123,34,7,categorization,0,kitchen,SHINEd_sun_azmutvzbxypaceni.tif,110,0.0666666666666667,0.0666666666666667,1.15,1418.845680333,1420.353107125,13,1418.912560666,1418.978451583,1420.37087375,1421.514242375,0,1.50742679199993
123,35,7,categorization,0,kitchen,SHINEd_sun_auaiucuqpdausiva.tif,102,0.0666666666666667,0.0666666666666667,0.966666666666667,1421.52280675,1424.217313666,9,1421.5902495,1421.6554275,1424.248738125,1425.208782875,1,2.69450691600014
123,36,7,categorization,0,kitchen,SHINEd_sun_ahywdevtimnqcsln.tif,94,0.0666666666666667,0.0666666666666667,1.45,1425.225330375,1426.078051041,9,1425.291926666,1425.357934708,1426.093170416,1427.536543958,1,0.852720665999868
123,37,7,categorization,0,bathroom,SHINEd_sun_apeeialkgkuxddgh.tif,42,0.0666666666666667,0.0666666666666667,0.8,1427.554203666,1428.229082375,13,1427.621102416,1427.687183166,1428.242739833,1429.036111791,1,0.674878709000041
123,38,7,categorization,0,bathroom,SHINEd_sun_ajlawzvmubibwbpy.tif,30,0.0666666666666667,0.0666666666666667,1.45,1429.052627,1429.685480166,9,1429.119369041,1429.176479041,1429.69541425,1431.1387935,0,0.632853165999904
123,39,7,categorization,0,kitchen,SHINEd_sun_aqeaevwwwjoqhzvl.tif,101,0.0666666666666667,0.0666666666666667,1.1,1431.157300875,1431.910710791,9,1431.224456166,1431.290209708,1431.930210208,1433.023574916,1,0.75340991600001
123,40,7,categorization,0,kitchen,SHINEd_sun_admlmbcdswaszruo.tif,79,0.0666666666666667,0.0666666666666667,1.16666666666667,1433.034703291,1435.125465833,9,1433.09951675,1433.167829041,1435.137273541,1436.29730675,1,2.09076254199999
123,41,7,categorization,0,kitchen,SHINEd_sun_acfmftudsenhrfhy.tif,74,0.0666666666666667,0.0666666666666667,1.31666666666667,1436.308046208,1437.078247291,9,1436.375033166,1436.440603125,1437.096327083,1438.406375708,1,0.770201083000075
123,42,7,categorization,0,bathroom,SHINEd_sun_anryaplzeujmzfkd.tif,39,0.0666666666666667,0.0666666666666667,1.68333333333333,1438.423935125,1439.568347541,13,1438.490950875,1438.556776083,1439.596733208,1441.273441875,1,1.14441241600002
123,43,7,categorization,0,kitchen,SHINEd_sun_aehawpgmrlhlvcow.tif,81,0.0666666666666667,0.0666666666666667,0.966666666666667,1441.289476041,1442.381805208,9,1441.356102875,1441.422324,1442.412375166,1443.372379208,1,1.09232916700012
123,44,7,categorization,0,kitchen,SHINEd_sun_ajkqhtgcbgpcwrwn.tif,97,0.0666666666666667,0.0666666666666667,1.4,1443.377040791,1444.42907,9,1443.439018791,1443.499779958,1444.434989041,1445.828365,1,1.05202920900001
123,45,7,categorization,0,kitchen,SHINEd_sun_aenotlpyftoioydp.tif,82,0.0666666666666667,0.0666666666666667,0.783333333333333,1445.838674708,1446.460071458,9,1445.904186708,1445.971562208,1446.478875166,1447.255590833,1,0.621396749999803
123,46,7,categorization,0,bathroom,SHINEd_sun_ahaulkltgpkeeemi.tif,26,0.0666666666666667,0.0666666666666667,1.08333333333333,1447.27272175,1448.574036833,13,1447.339686041,1447.405297833,1448.590687833,1449.667395541,1,1.30131508299996
123,47,7,categorization,0,kitchen,SHINEd_sun_aymvwlarqodbwuoc.tif,108,0.0666666666666667,0.0666666666666667,1.43333333333333,1449.681339958,1450.298173541,9,1449.74563475,1449.81347225,1450.319950041,1451.746672833,1,0.616833583000016
123,48,7,categorization,0,kitchen,SHINEd_sun_abpwyqmlzafvklqo.tif,72,0.0666666666666667,0.0666666666666667,1.75,1451.758058,1452.409256375,9,1451.822379375,1451.888097791,1452.427550458,1454.170935291,1,0.651198375000149
123,49,7,categorization,0,bathroom,SHINEd_sun_agyqfjcfkdcydepw.tif,25,0.0666666666666667,0.0666666666666667,1.21666666666667,1454.188663875,1454.797978166,9,1454.255334666,1454.321277041,1454.827782458,1456.037836791,0,0.609314290999919
123,50,7,categorization,0,kitchen,SHINEd_sun_adgqasybjyktddhj.tif,78,0.0666666666666667,0.0666666666666667,1.31666666666667,1456.050220958,1456.859016666,9,1456.116747708,1456.182963791,1456.889262083,1458.199298791,1,0.808795707999934
123,1,8,categorization,0,kitchen,SHINEd_sun_abdenxonkemggwsq.tif,69,0.0666666666666667,0.0666666666666667,1.18333333333333,1467.298925875,1467.91689625,9,1467.36173225,1467.421662,1467.9234615,1469.100167666,1,0.617970375000141
123,2,8,categorization,0,bathroom,SHINEd_sun_ahcvzmoyaycdoftf.tif,27,0.0666666666666667,0.0666666666666667,0.983333333333333,1469.110219583,1469.721014,13,1469.176624375,1469.242819291,1469.748790625,1470.725506,1,0.610794417000079
123,3,8,categorization,0,kitchen,SHINEd_labelme_rykdqxenmhulbdn.tif,63,0.0666666666666667,0.0666666666666667,1.65,1470.741289625,1471.277696125,9,1470.807847625,1470.8739975,1471.293180791,1472.936558666,1,0.536406499999885
123,4,8,categorization,0,kitchen,SHINEd_sun_abftihopvusyfakt.tif,71,0.0666666666666667,0.0666666666666667,1.23333333333333,1472.951264166,1473.680621125,9,1473.018257208,1473.083729916,1473.706964291,1474.933683916,1,0.729356958999915
123,5,8,categorization,0,kitchen,SHINEd_sun_agubuxuukhzyzpdp.tif,88,0.0666666666666667,0.0666666666666667,0.916666666666667,1474.949996125,1475.51161275,9,1475.016646041,1475.082117875,1475.538735041,1476.448774416,1,0.561616624999942
123,6,8,categorization,0,kitchen,SHINEd_sun_ahdycvpopffkzzsu.tif,90,0.0666666666666667,0.0666666666666667,1.56666666666667,1476.465156375,1477.165462583,13,1476.531797125,1476.597815916,1477.18368675,1478.743743125,0,0.700306207999802
123,7,8,categorization,0,kitchen,SHINEd_sun_aeqdocilnnpuvuhx.tif,83,0.0666666666666667,0.0666666666666667,1.63333333333333,1478.758541041,1479.503569166,9,1478.82527025,1478.891170791,1479.530922041,1481.157626916,1,0.74502812500009
123,8,8,categorization,0,bathroom,SHINEd_sun_aqrpegblszgcoujh.tif,48,0.0666666666666667,0.0666666666666667,1.1,1481.175509583,1482.007928791,13,1481.242310666,1481.308231958,1482.031798166,1483.125187041,1,0.832419208000147
123,9,8,categorization,0,bathroom,SHINEd_sun_aapitsgbtktqubfy.tif,12,0.0666666666666667,0.0666666666666667,1.38333333333333,1483.13619425,1483.976942125,13,1483.201214708,1483.269048041,1483.99153225,1485.368247791,1,0.840747875000034
123,10,8,categorization,0,bathroom,SHINEd_sun_acduarbnmmoglmiv.tif,16,0.0666666666666667,0.0666666666666667,0.766666666666667,1485.386156708,1486.08104025,9,1485.453096375,1485.519622958,1486.109706291,1486.869742875,0,0.694883541999843
123,11,8,categorization,0,bathroom,SHINEd_sun_amzlamotzwfkwjco.tif,37,0.0666666666666667,0.0666666666666667,1.45,1486.885058125,1487.82918025,9,1486.9519435,1487.017787625,1487.836467958,1489.279841541,0,0.944122125000149
123,12,8,categorization,0,kitchen,SHINEd_labelme_brsyyvweiuaazfr.tif,61,0.0666666666666667,0.0666666666666667,0.983333333333333,1489.298207583,1489.974166291,9,1489.36481,1489.4311075,1489.985696791,1490.962367166,1,0.675958708000053
123,13,8,categorization,0,kitchen,SHINEd_sun_ahljzhgcdpomplvg.tif,91,0.0666666666666667,0.0666666666666667,0.716666666666667,1490.967095791,1491.932926166,9,1491.028889208,1491.089797,1491.941701416,1492.651707958,1,0.965830374999996
123,14,8,categorization,0,bathroom,SHINEd_sun_awnqiikzaispgmwo.tif,56,0.0666666666666667,0.0666666666666667,1.41666666666667,1492.657322875,1493.70110125,13,1492.719092333,1492.780039208,1493.715256541,1495.125308875,1,1.04377837499987
123,15,8,categorization,0,kitchen,SHINEd_sun_aggjlwcdjsjcaemh.tif,86,0.0666666666666667,0.0666666666666667,1.21666666666667,1495.142459625,1495.999334375,13,1495.208510375,1495.274758416,1496.013872916,1497.223920083,0,0.856874750000088
123,16,8,categorization,0,bathroom,SHINEd_sun_alotolagknyrgtsk.tif,35,0.0666666666666667,0.0666666666666667,1.61666666666667,1497.241904,1497.838481208,9,1497.308848,1497.37444725,1497.862828458,1499.47286825,0,0.596577208000099
123,17,8,categorization,0,bathroom,SHINEd_sun_akiytfaagpdsphgz.tif,31,0.0666666666666667,0.0666666666666667,0.783333333333333,1499.49111875,1500.294050791,13,1499.557930583,1499.624379416,1500.314238416,1501.090949875,1,0.802932041000076
123,18,8,categorization,0,bathroom,SHINEd_sun_ahqjwnzgolcaoidx.tif,29,0.0666666666666667,0.0666666666666667,1.98333333333333,1501.107615875,1501.956970791,13,1501.174315708,1501.240089708,1501.975241333,1503.951952666,1,0.849354916000038
123,19,8,categorization,0,bathroom,SHINEd_sun_ambriybtogmepttm.tif,36,0.0666666666666667,0.0666666666666667,0.983333333333333,1503.963676708,1504.608783791,9,1504.030163625,1504.096470125,1504.636395416,1505.61306775,0,0.645107082999857
123,20,8,categorization,0,kitchen,SHINEd_sun_amjjdeyrggfqgmom.tif,100,0.0666666666666667,0.0666666666666667,0.8,1505.61801025,1506.57365875,13,1505.679620583,1505.740691416,1506.592756625,1507.386095416,0,0.955648500000052
123,21,8,categorization,0,kitchen,SHINEd_sun_acgtpgfybqjmzeyw.tif,75,0.0666666666666667,0.0666666666666667,0.733333333333333,1507.391821333,1507.54123075,9,1507.453784,1507.514526708,1507.549649208,1508.27632,1,0.149409417000015
123,22,8,categorization,0,bathroom,SHINEd_sun_ausgutylgojavyoq.tif,53,0.0666666666666667,0.0666666666666667,0.966666666666667,1508.280921083,1509.812895958,9,1508.342708583,1508.403681541,1509.822258041,1510.782263416,0,1.53197487499983
123,23,8,categorization,0,kitchen,SHINEd_sun_aaxxjlsuzvqlgylf.tif,68,0.0666666666666667,0.0666666666666667,0.866666666666667,1510.787119708,1512.381634125,9,1510.84886925,1510.909780125,1512.395433375,1513.25543675,1,1.5945144169998
123,24,8,categorization,0,kitchen,SHINEd_sun_akcjzhbbjlbogpdi.tif,99,0.0666666666666667,0.0666666666666667,1.23333333333333,1513.260187583,1514.373541875,13,1513.321791791,1513.38287075,1514.384671,1515.611388208,0,1.11335429199994
123,25,8,categorization,0,bathroom,SHINEd_sun_aclfzgynxzxlbepz.tif,19,0.0666666666666667,0.0666666666666667,1.9,1515.629352083,1516.479657416,13,1515.696315916,1515.761607458,1516.501027666,1518.394414416,1,0.850305333000051
123,26,8,categorization,0,bathroom,SHINEd_sun_apjevzvycyhuqghb.tif,43,0.0666666666666667,0.0666666666666667,0.866666666666667,1518.414631125,1518.535026708,13,1518.481320916,1518.548557208,1518.571288708,1519.43133175,1,0.120395583000118
123,27,8,categorization,0,bathroom,SHINEd_sun_acgyywnybuveqsro.tif,18,0.0666666666666667,0.0666666666666667,0.966666666666667,1519.447482916,1520.43760925,9,1519.514138125,1519.572833708,1520.44142825,1521.401434791,0,0.990126334000024
123,28,8,categorization,0,bathroom,SHINEd_sun_apmqjbnwghzuhhzh.tif,46,0.0666666666666667,0.0666666666666667,0.916666666666667,1521.407037875,1522.069493333,13,1521.468745166,1521.529688666,1522.081663833,1522.991667125,1,0.662455458000068
123,29,8,categorization,0,kitchen,SHINEd_sun_axyyrmzcupyhlivc.tif,107,0.0666666666666667,0.0666666666666667,0.916666666666667,1522.996628083,1523.653042333,9,1523.058444333,1523.119279708,1523.67151375,1524.581517083,1,0.656414250000125
123,30,8,categorization,0,kitchen,SHINEd_sun_aexklacwqwezaorf.tif,84,0.0666666666666667,0.0666666666666667,1.4,1524.586353583,1525.341663125,9,1524.647942916,1524.709191666,1525.361162875,1526.754541208,1,0.755309542000077
123,31,8,categorization,0,bathroom,SHINEd_sun_ahijqszoswveeyji.tif,28,0.0666666666666667,0.0666666666666667,1.75,1526.770730291,1527.474581,13,1526.837119916,1526.90364225,1527.492981583,1529.236355166,1,0.70385070899988
123,32,8,categorization,0,kitchen,SHINEd_sun_aapllqyqlykszopd.tif,66,0.0666666666666667,0.0666666666666667,1.25,1529.254094333,1529.951113625,9,1529.32060725,1529.386704208,1529.976759708,1531.220147791,1,0.69701929200005
123,33,8,categorization,0,kitchen,SHINEd_sun_aegoxogugdkwpmpj.tif,80,0.0666666666666667,0.0666666666666667,1.05,1531.237875625,1532.023897416,9,1531.304456,1531.370554041,1532.043074083,1533.086450791,1,0.786021790999939
123,34,8,categorization,0,kitchen,SHINEd_sun_aarfiyshqohlwkmo.tif,67,0.0666666666666667,0.0666666666666667,1.06666666666667,1533.098184916,1533.602463833,9,1533.162879833,1533.229570208,1533.618535375,1534.678587875,1,0.504278916999965
123,35,8,categorization,0,bathroom,SHINEd_sun_axxbkopsgyouuebh.tif,58,0.0666666666666667,0.0666666666666667,1.21666666666667,1534.695132,1535.55725225,13,1534.761249958,1534.827616958,1535.563353041,1536.773405833,1,0.862120249999862
123,36,8,categorization,0,bathroom,SHINEd_sun_asfwthctfqerjvxr.tif,49,0.0666666666666667,0.0666666666666667,0.95,1536.789944958,1537.406921583,9,1536.856463,1536.923012375,1537.430177416,1538.373548458,0,0.616976625000007
123,37,8,categorization,0,bathroom,SHINEd_sun_aleqenyvunhactkl.tif,32,0.0666666666666667,0.0666666666666667,0.9,1538.389547458,1539.260738291,13,1538.455917875,1538.522259833,1539.2743785,1540.16771525,1,0.871190833000128
123,38,8,categorization,0,kitchen,SHINEd_sun_agzzivivdpnawacl.tif,89,0.0666666666666667,0.0666666666666667,1.78333333333333,1540.172433583,1541.133608208,13,1540.23416025,1540.295100708,1541.147543166,1542.924241,0,0.961174625000012
123,39,8,categorization,0,bathroom,SHINEd_sun_anhioqovhscjqqwb.tif,38,0.0666666666666667,0.0666666666666667,1.16666666666667,1542.9419505,1543.8291495,9,1543.008671458,1543.074713541,1543.847089666,1545.007142708,0,0.88719900000001
123,40,8,categorization,0,bathroom,SHINEd_sun_avhrdrntsqrjzccq.tif,55,0.0666666666666667,0.0666666666666667,0.783333333333333,1545.018328541,1547.237466541,13,1545.084658416,1545.150748583,1547.254144833,1548.030816625,1,2.21913799999993
123,41,8,categorization,0,kitchen,SHINEd_sun_ahspylgoovwmwvgk.tif,93,0.0666666666666667,0.0666666666666667,1.23333333333333,1548.035606916,1548.869448666,9,1548.09727225,1548.1583975,1548.876891541,1550.103612875,1,0.83384174999992
123,42,8,categorization,0,bathroom,SHINEd_sun_aspsyogrekjtfozg.tif,50,0.0666666666666667,0.0666666666666667,0.9,1550.121493333,1550.769234708,13,1550.18774425,1550.254505125,1550.794316083,1551.687706083,1,0.647741375000123
123,43,8,categorization,0,bathroom,SHINEd_sun_aoybiabnpadelefl.tif,41,0.0666666666666667,0.0666666666666667,0.7,1551.704122333,1552.357268958,9,1551.771075166,1551.835418708,1552.370987291,1553.06432625,0,0.65314662500009
123,44,8,categorization,0,kitchen,SHINEd_sun_aamedkxepzlwuxes.tif,65,0.0666666666666667,0.0666666666666667,1.23333333333333,1553.069944083,1554.645085,13,1553.131563041,1553.192603416,1554.661577125,1555.888265875,0,1.575140917
123,45,8,categorization,0,kitchen,SHINEd_sun_akchetnepxlcxhsu.tif,98,0.0666666666666667,0.0666666666666667,1,1555.897980125,1557.214413208,9,1555.964419125,1556.031075041,1557.240715333,1558.234054625,1,1.31643308299999
123,46,8,categorization,0,bathroom,SHINEd_sun_acegryoqftbzowsg.tif,17,0.0666666666666667,0.0666666666666667,1.38333333333333,1558.23879825,1559.869031125,13,1558.300481541,1558.361696458,1559.880719916,1561.257429291,1,1.63023287500005
123,47,8,categorization,0,kitchen,SHINEd_sun_afuyedyxivkhecmu.tif,85,0.0666666666666667,0.0666666666666667,1.3,1561.275315916,1561.933743625,9,1561.342290333,1561.408012333,1561.947325416,1563.240689666,1,0.65842770900008
123,48,8,categorization,0,bathroom,SHINEd_sun_atstyziqcmkahyxk.tif,51,0.0666666666666667,0.0666666666666667,0.833333333333333,1563.258863833,1563.860800125,13,1563.32532775,1563.391650833,1563.879828291,1564.706531916,1,0.601936291999891
123,49,8,categorization,0,bathroom,SHINEd_sun_afcoljnjfoxjtgja.tif,20,0.0666666666666667,0.0666666666666667,0.95,1564.722396708,1565.365310541,13,1564.788779541,1564.85519225,1565.3744325,1566.31777,1,0.642913833000193
123,50,8,categorization,0,kitchen,SHINEd_sun_acwjdupvyjsugpay.tif,76,0.0666666666666667,0.0666666666666667,1.43333333333333,1566.322657166,1566.956788333,9,1566.384271333,1566.445393958,1566.963731583,1568.390442125,1,0.634131167000078
123,1,9,categorization,0,kitchen,SHINEd_sun_akchetnepxlcxhsu.tif,98,0.0666666666666667,0.0666666666666667,1.08333333333333,1613.009611416,1613.861268833,13,1613.072101125,1613.132648875,1613.8676505,1614.944371833,0,0.851657416999842
123,2,9,categorization,0,kitchen,SHINEd_sun_aeqdocilnnpuvuhx.tif,83,0.0666666666666667,0.0666666666666667,0.8,1614.953694666,1615.626800833,9,1615.018231458,1615.081966,1615.655053958,1616.448435541,1,0.673106167000014
123,3,9,categorization,0,kitchen,SHINEd_sun_aenotlpyftoioydp.tif,82,0.0666666666666667,0.0666666666666667,0.833333333333333,1616.464389875,1617.028220333,9,1616.529899916,1616.594988,1617.047618791,1617.874289375,1,0.563830457999984
123,4,9,categorization,0,bathroom,SHINEd_sun_aqrpegblszgcoujh.tif,48,0.0666666666666667,0.0666666666666667,1.45,1617.879046041,1618.40528025,13,1617.940730375,1618.00173775,1618.420141416,1619.863522583,1,0.526234208999995
123,5,9,categorization,0,bathroom,SHINEd_sun_apkxzenqapsujocq.tif,45,0.0666666666666667,0.0666666666666667,1.3,1619.873328833,1620.4582475,13,1619.937623791,1620.004986875,1620.477807416,1621.771193416,1,0.584918667000011
123,6,9,categorization,0,bathroom,SHINEd_sun_apmqjbnwghzuhhzh.tif,46,0.0666666666666667,0.0666666666666667,1.21666666666667,1621.783322125,1622.309568,9,1621.847616416,1621.913265083,1622.33653675,1623.546570166,0,0.526245874999859
123,7,9,categorization,0,bathroom,SHINEd_sun_apjevzvycyhuqghb.tif,43,0.0666666666666667,0.0666666666666667,0.733333333333333,1623.564419083,1624.268542375,9,1623.626957291,1623.687056166,1624.27205425,1624.998726708,0,0.704123291999849
123,8,9,categorization,0,bathroom,SHINEd_sun_aofnryafpsjimzsb.tif,40,0.0666666666666667,0.0666666666666667,1.03333333333333,1625.004075833,1625.677215375,9,1625.065982708,1625.126801458,1625.695574458,1626.722282791,0,0.673139542000172
123,9,9,categorization,0,kitchen,SHINEd_sun_aadbddgrdsjugojn.tif,64,0.0666666666666667,0.0666666666666667,1.1,1626.733351833,1627.557910875,9,1626.798139125,1626.8649275,1627.588225833,1628.681607875,1,0.824559042000146
123,10,9,categorization,0,bathroom,SHINEd_sun_axxbkopsgyouuebh.tif,58,0.0666666666666667,0.0666666666666667,1.25,1628.697905208,1629.301018791,13,1628.760808125,1628.820848791,1629.306172833,1630.549551125,1,0.603113582999868
123,11,9,categorization,0,kitchen,SHINEd_sun_abdxkyyxwfskuaqb.tif,70,0.0666666666666667,0.0666666666666667,1.4,1630.566144166,1631.189498708,9,1630.63225,1630.699009,1631.204693125,1632.598063958,1,0.623354542000015
123,12,9,categorization,0,bathroom,SHINEd_sun_ahijqszoswveeyji.tif,28,0.0666666666666667,0.0666666666666667,1.43333333333333,1632.615985625,1633.273960791,13,1632.682602708,1632.748784416,1633.287834708,1634.714558333,1,0.657975166000142
123,13,9,categorization,0,kitchen,SHINEd_sun_abdenxonkemggwsq.tif,69,0.0666666666666667,0.0666666666666667,1.26666666666667,1634.731503083,1635.605663041,9,1634.798207041,1634.864171958,1635.619702166,1636.879735458,1,0.874159958000064
123,14,9,categorization,0,bathroom,SHINEd_sun_ajlawzvmubibwbpy.tif,30,0.0666666666666667,0.0666666666666667,0.916666666666667,1636.897287041,1637.731998416,13,1636.964078916,1637.030382166,1637.752077416,1638.66211775,1,0.83471137499987
123,15,9,categorization,0,kitchen,SHINEd_sun_adgqasybjyktddhj.tif,78,0.0666666666666667,0.0666666666666667,1.05,1638.675541708,1639.292272958,9,1638.742565416,1638.806454833,1639.308257208,1640.351621625,1,0.61673124999993
123,16,9,categorization,0,bathroom,SHINEd_sun_avhrdrntsqrjzccq.tif,55,0.0666666666666667,0.0666666666666667,1.53333333333333,1640.3623375,1641.138032833,9,1640.427244583,1640.493733291,1641.166810833,1642.693524291,0,0.775695332999931
123,17,9,categorization,0,bathroom,SHINEd_sun_ahqjwnzgolcaoidx.tif,29,0.0666666666666667,0.0666666666666667,1.11666666666667,1642.710968708,1643.324552833,13,1642.777392333,1642.843897375,1643.350520541,1644.460558791,1,0.613584124999988
123,18,9,categorization,0,bathroom,SHINEd_sun_axyrejkiiaqiurjk.tif,59,0.0666666666666667,0.0666666666666667,1.05,1644.476118958,1645.148613875,9,1644.538757458,1644.59880625,1645.167458666,1646.210836625,0,0.672494916999995
123,19,9,categorization,0,bathroom,SHINEd_sun_ambriybtogmepttm.tif,36,0.0666666666666667,0.0666666666666667,1.66666666666667,1646.222100083,1646.932523958,13,1646.287067083,1646.35309925,1646.959446958,1648.619493625,1,0.71042387500006
123,20,9,categorization,0,kitchen,SHINEd_sun_ahywdevtimnqcsln.tif,94,0.0666666666666667,0.0666666666666667,1.98333333333333,1648.637620208,1649.261260125,9,1648.70445125,1648.770099375,1649.275558416,1651.252267708,1,0.623639916999991
123,21,9,categorization,0,bathroom,SHINEd_sun_auzqhkafidnkrwmo.tif,54,0.0666666666666667,0.0666666666666667,1.06666666666667,1651.270149083,1651.92489375,13,1651.336783875,1651.403075416,1651.941163833,1653.001205541,1,0.654744666999932
123,22,9,categorization,0,kitchen,SHINEd_sun_aamedkxepzlwuxes.tif,65,0.0666666666666667,0.0666666666666667,1.31666666666667,1653.010828666,1653.877019291,13,1653.075264416,1653.142036625,1653.897133708,1655.207171416,0,0.866190624999945
123,23,9,categorization,0,kitchen,SHINEd_sun_aexklacwqwezaorf.tif,84,0.0666666666666667,0.0666666666666667,1.78333333333333,1655.221716416,1655.9356925,9,1655.289434625,1655.3547255,1655.961629583,1657.738334708,1,0.713976084000024
123,24,9,categorization,0,bathroom,SHINEd_sun_alotolagknyrgtsk.tif,35,0.0666666666666667,0.0666666666666667,0.816666666666667,1657.755270416,1658.6346015,9,1657.820542333,1657.883769916,1658.657173291,1659.467178291,0,0.879331083999887
123,25,9,categorization,0,kitchen,SHINEd_sun_acgtpgfybqjmzeyw.tif,75,0.0666666666666667,0.0666666666666667,0.933333333333333,1659.47224625,1660.2447345,9,1659.53388125,1659.594943416,1660.263768541,1661.190439875,1,0.772488250000151
123,26,9,categorization,0,kitchen,SHINEd_sun_ahdycvpopffkzzsu.tif,90,0.0666666666666667,0.0666666666666667,1.33333333333333,1661.195957625,1661.860871541,13,1661.257682833,1661.318722291,1661.870362333,1663.197078291,0,0.66491391600016
123,27,9,categorization,0,kitchen,SHINEd_sun_agorklincwxrdtga.tif,87,0.0666666666666667,0.0666666666666667,0.833333333333333,1663.214219875,1663.934489541,9,1663.28109225,1663.347280083,1663.9538,1664.780514166,1,0.720269665999922
