sub_num,trial,block,task,is_practice,category,image,texture,duration,mask_dur,jitter,stim_time,time_of_resp,trial_response,mask_time,fix_time,jit_onset,trial_end,trial_accuracy,RT
123,1,13,categorization,0,bathroom,SHINEd_sun_aoybiabnpadelefl.tif,41,0.0666666666666667,0.0666666666666667,0.933333333333333,2085.762430708,2086.626778833,9,2085.824322416,2085.885154458,2086.636947625,2087.563617625,0,0.864348125000106
123,2,13,categorization,0,kitchen,SHINEd_sun_aarfiyshqohlwkmo.tif,67,0.0666666666666667,0.0666666666666667,1.36666666666667,2087.568463416,2088.074248041,13,2087.630098125,2087.691293291,2088.093095333,2089.453136083,0,0.505784624999706
123,3,13,categorization,0,kitchen,SHINEd_sun_agorklincwxrdtga.tif,87,0.0666666666666667,0.0666666666666667,1.88333333333333,2089.470820583,2090.117809333,13,2089.537178708,2089.603426916,2090.143251458,2092.019952541,0,0.646988749999764
123,4,13,categorization,0,bathroom,SHINEd_sun_abapwbhyhkfixyex.tif,14,0.0666666666666667,0.0666666666666667,1.35,2092.037771708,2092.651321375,9,2092.104366958,2092.170028541,2092.676258958,2094.01963475,0,0.613549666999916
123,5,13,categorization,0,bathroom,SHINEd_sun_anhioqovhscjqqwb.tif,38,0.0666666666666667,0.0666666666666667,1.3,2094.037185958,2094.6101125,13,2094.103743458,2094.169989333,2094.625826125,2095.919197291,1,0.572926542000005
123,6,13,categorization,0,bathroom,SHINEd_sun_ausgutylgojavyoq.tif,53,0.0666666666666667,0.0666666666666667,1.93333333333333,2095.934359625,2096.571996875,13,2096.001274,2096.067157958,2096.589592,2098.516313041,1,0.637637249999898
123,7,13,categorization,0,bathroom,SHINEd_sun_amzlamotzwfkwjco.tif,37,0.0666666666666667,0.0666666666666667,0.95,2098.5342825,2099.774756333,13,2098.600703666,2098.667045041,2099.792056291,2100.735392916,1,1.24047383300012
123,8,13,categorization,0,bathroom,SHINEd_sun_awnqiikzaispgmwo.tif,56,0.0666666666666667,0.0666666666666667,1.56666666666667,2100.7401735,2101.378304583,13,2100.802041291,2100.862854708,2101.381068083,2102.941101208,1,0.638131083000189
123,9,13,categorization,0,bathroom,SHINEd_sun_apeeialkgkuxddgh.tif,42,0.0666666666666667,0.0666666666666667,1.3,2102.959087291,2103.607308541,13,2103.0246315,2103.091808333,2103.631684958,2104.925073291,1,0.648221250000006
123,10,13,categorization,0,kitchen,SHINEd_sun_auticobqsbwgoppi.tif,104,0.0666666666666667,0.0666666666666667,1.3,2104.9452935,2105.524738916,9,2105.012042708,2105.078227166,2105.551378208,2106.844755125,1,0.579445415999999
123,11,13,categorization,0,bathroom,SHINEd_sun_aggnnqpdorgxpvce.tif,21,0.0666666666666667,0.0666666666666667,1.03333333333333,2106.861918625,2107.744349791,9,2106.928631208,2106.994521,2107.766762125,2108.793473041,0,0.88243116600006
123,12,13,categorization,0,bathroom,SHINEd_sun_acduarbnmmoglmiv.tif,16,0.0666666666666667,0.0666666666666667,1.93333333333333,2108.803219083,2109.642536416,13,2108.867628375,2108.934314166,2109.656165666,2111.582881583,1,0.839317333000054
123,13,13,categorization,0,bathroom,SHINEd_sun_avhrdrntsqrjzccq.tif,55,0.0666666666666667,0.0666666666666667,0.966666666666667,2111.600047166,2112.309868291,13,2111.666975333,2111.732351375,2112.338812125,2113.298815375,1,0.709821124999962
123,14,13,categorization,0,bathroom,SHINEd_sun_anryaplzeujmzfkd.tif,39,0.0666666666666667,0.0666666666666667,0.916666666666667,2113.303619083,2113.954475875,13,2113.365307541,2113.4263245,2113.961440125,2114.871444375,1,0.650856792000013
123,15,13,categorization,0,kitchen,SHINEd_sun_auaiucuqpdausiva.tif,102,0.0666666666666667,0.0666666666666667,1.3,2114.87683975,2115.450358875,9,2114.938645833,2114.999701541,2115.468369375,2116.761757458,1,0.573519125000075
123,16,13,categorization,0,bathroom,SHINEd_sun_aqrpegblszgcoujh.tif,48,0.0666666666666667,0.0666666666666667,0.75,2116.779408583,2117.436903833,13,2116.846162708,2116.912684208,2117.4517915,2118.195174416,1,0.657495250000011
123,17,13,categorization,0,bathroom,SHINEd_sun_ahqjwnzgolcaoidx.tif,29,0.0666666666666667,0.0666666666666667,1.03333333333333,2118.211924666,2118.850430041,13,2118.278467166,2118.344385,2118.863626458,2119.890321875,1,0.638505375000022
123,18,13,categorization,0,kitchen,SHINEd_sun_acfmftudsenhrfhy.tif,74,0.0666666666666667,0.0666666666666667,1.28333333333333,2119.899579791,2120.475397916,9,2119.964064583,2120.03116225,2120.504222291,2121.780942208,1,0.575818124999842
123,19,13,categorization,0,bathroom,SHINEd_sun_afcoljnjfoxjtgja.tif,20,0.0666666666666667,0.0666666666666667,1.25,2121.7990565,2122.634606416,13,2121.863432791,2121.92530125,2122.643930458,2123.887310291,1,0.835549916000218
123,20,13,categorization,0,kitchen,SHINEd_sun_aegoxogugdkwpmpj.tif,80,0.0666666666666667,0.0666666666666667,1.75,2123.898784916,2124.8125345,9,2123.965346791,2124.031215916,2124.837341083,2126.580709041,1,0.913749584000016
123,21,13,categorization,0,kitchen,SHINEd_sun_agzzivivdpnawacl.tif,89,0.0666666666666667,0.0666666666666667,1.76666666666667,2126.598302375,2127.282907125,13,2126.664765583,2126.731142333,2127.30346325,2129.063518166,0,0.684604749999835
123,22,13,categorization,0,bathroom,SHINEd_sun_apmqjbnwghzuhhzh.tif,46,0.0666666666666667,0.0666666666666667,0.733333333333333,2129.081944583,2129.844761958,13,2129.148643166,2129.215100541,2129.870031291,2130.596701875,1,0.762817374999941
123,23,13,categorization,0,kitchen,SHINEd_sun_ajkqhtgcbgpcwrwn.tif,97,0.0666666666666667,0.0666666666666667,1.43333333333333,2130.601671666,2131.426674541,9,2130.663323208,2130.724538416,2131.443204791,2132.869923625,1,0.825002874999882
123,24,13,categorization,0,kitchen,SHINEd_sun_ahljzhgcdpomplvg.tif,91,0.0666666666666667,0.0666666666666667,1.81666666666667,2132.887138875,2133.703585125,9,2132.953621166,2133.01990825,2133.725966791,2135.53600675,1,0.816446249999899
123,25,13,categorization,0,bathroom,SHINEd_sun_apynckhmoftszqoq.tif,47,0.0666666666666667,0.0666666666666667,0.95,2135.553115291,2136.2239335,13,2135.620096125,2135.685399833,2136.241465625,2137.184804416,1,0.670818209000117
123,26,13,categorization,0,bathroom,SHINEd_sun_acgyywnybuveqsro.tif,18,0.0666666666666667,0.0666666666666667,0.783333333333333,2137.189735041,2137.914709208,13,2137.251508958,2137.312694458,2137.931119458,2138.707790166,1,0.724974167000255
123,27,13,categorization,0,kitchen,SHINEd_sun_abpwyqmlzafvklqo.tif,72,0.0666666666666667,0.0666666666666667,1.66666666666667,2138.712550208,2139.370509375,9,2138.774294,2138.835262666,2139.386998875,2141.047050208,1,0.657959167000172
123,28,13,categorization,0,bathroom,SHINEd_sun_abjtwfukuwddzted.tif,15,0.0666666666666667,0.0666666666666667,1.18333333333333,2141.064910916,2141.702210916,13,2141.131172875,2141.197824791,2141.720741458,2142.897455166,1,0.637299999999868
123,29,13,categorization,0,kitchen,SHINEd_sun_adgqasybjyktddhj.tif,78,0.0666666666666667,0.0666666666666667,1.58333333333333,2142.907675333,2143.703201958,9,2142.973931541,2143.040249375,2143.730521916,2145.307242666,1,0.795526625000093
123,30,13,categorization,0,bathroom,SHINEd_sun_aghyqhbptboemmoq.tif,23,0.0666666666666667,0.0666666666666667,1.1,2145.325278291,2146.265910083,13,2145.392192875,2145.458270208,2146.281108541,2147.374495583,1,0.940631792000204
123,31,13,categorization,0,bathroom,SHINEd_sun_apjevzvycyhuqghb.tif,43,0.0666666666666667,0.0666666666666667,1.78333333333333,2147.387249,2148.113830833,13,2147.451979666,2147.519843666,2148.143167625,2149.919881166,1,0.726581833000182
123,32,13,categorization,0,bathroom,SHINEd_sun_apkxzenqapsujocq.tif,45,0.0666666666666667,0.0666666666666667,1.78333333333333,2149.936496416,2150.622927458,13,2150.003688208,2150.069482708,2150.643401916,2152.420115625,1,0.686431042000095
123,33,13,categorization,0,kitchen,SHINEd_sun_aeqdocilnnpuvuhx.tif,83,0.0666666666666667,0.0666666666666667,1.08333333333333,2152.436508708,2153.070438375,9,2152.5038675,2152.569749083,2153.093882375,2154.170586208,1,0.633929666999848
123,34,13,categorization,0,kitchen,SHINEd_sun_aapllqyqlykszopd.tif,66,0.0666666666666667,0.0666666666666667,1.66666666666667,2154.181105958,2154.864528708,13,2154.245662375,2154.313221041,2154.886610333,2156.546667416,0,0.683422749999863
123,35,13,categorization,0,kitchen,SHINEd_sun_aymvwlarqodbwuoc.tif,108,0.0666666666666667,0.0666666666666667,1.58333333333333,2156.566296875,2157.191748375,9,2156.633113208,2156.699699791,2157.205787166,2158.782498166,1,0.625451500000054
123,36,13,categorization,0,bathroom,SHINEd_sun_alotolagknyrgtsk.tif,35,0.0666666666666667,0.0666666666666667,1.26666666666667,2158.8013845,2159.403106791,13,2158.868657625,2158.9346305,2159.424221166,2160.684279083,1,0.601722290999987
123,37,13,categorization,0,bathroom,SHINEd_sun_agrwbmhcpmfuwmsg.tif,24,0.0666666666666667,0.0666666666666667,0.966666666666667,2160.703368041,2163.835447458,13,2160.770470583,2160.836530916,2163.8550345,2164.815039833,1,3.13207941700011
123,38,13,categorization,0,bathroom,SHINEd_sun_aofnryafpsjimzsb.tif,40,0.0666666666666667,0.0666666666666667,0.9,2164.819401208,2165.738819416,9,2164.881015208,2164.942171208,2165.743916416,2166.637255166,0,0.919418208000025
123,39,13,categorization,0,bathroom,SHINEd_sun_atstyziqcmkahyxk.tif,51,0.0666666666666667,0.0666666666666667,1.46666666666667,2166.6434385,2167.442212958,13,2166.70523175,2166.766156958,2167.451321041,2168.911366958,1,0.798774458000025
123,40,13,categorization,0,bathroom,SHINEd_sun_ahijqszoswveeyji.tif,28,0.0666666666666667,0.0666666666666667,1.5,2168.928406458,2169.908793958,9,2168.994948583,2169.061080458,2169.933242,2171.426615208,0,0.980387499999779
123,41,13,categorization,0,bathroom,SHINEd_sun_axxbkopsgyouuebh.tif,58,0.0666666666666667,0.0666666666666667,0.716666666666667,2171.444646083,2172.099179458,13,2171.51130275,2171.577239791,2172.116534583,2172.826591041,1,0.654533375000028
123,42,13,categorization,0,bathroom,SHINEd_sun_aavhrsfjbserjtht.tif,13,0.0666666666666667,0.0666666666666667,1.5,2172.842568916,2173.602509125,9,2172.909320833,2172.975333958,2173.610968666,2175.1043465,0,0.759940208999978
123,43,13,categorization,0,kitchen,SHINEd_labelme_kxvouciolcpqplr.tif,62,0.0666666666666667,0.0666666666666667,0.866666666666667,2175.118314791,2176.048142916,9,2175.184973166,2175.25100825,2176.074302916,2176.934306375,1,0.929828124999858
123,44,13,categorization,0,bathroom,SHINEd_sun_axldvoqbuvuggfmq.tif,57,0.0666666666666667,0.0666666666666667,0.933333333333333,2176.939266166,2177.425880875,13,2177.000913958,2177.062080125,2177.43063825,2178.357309333,1,0.48661470900015
123,45,13,categorization,0,kitchen,SHINEd_sun_acxkpeoqbwcxfvip.tif,77,0.0666666666666667,0.0666666666666667,1.55,2178.362124,2179.018676916,9,2178.42382075,2178.484963375,2179.037122208,2180.580507833,1,0.656552915999782
123,46,13,categorization,0,kitchen,SHINEd_sun_amjjdeyrggfqgmom.tif,100,0.0666666666666667,0.0666666666666667,1.3,2180.5953845,2181.153894958,13,2180.661830791,2180.728080166,2181.184692083,2182.478069166,0,0.558510458000001
123,47,13,categorization,0,kitchen,SHINEd_sun_avszsnwsbuqfgzbn.tif,105,0.0666666666666667,0.0666666666666667,1.78333333333333,2182.4955485,2182.616007541,9,2182.560978041,2182.629293208,2182.652291291,2184.429009541,1,0.120459040999776
123,48,13,categorization,0,kitchen,SHINEd_sun_abdenxonkemggwsq.tif,69,0.0666666666666667,0.0666666666666667,1.8,2184.446335666,2184.955702625,9,2184.5131055,2184.579465458,2184.986025041,2186.779414916,1,0.50936695900009
123,49,13,categorization,0,kitchen,SHINEd_sun_abdxkyyxwfskuaqb.tif,70,0.0666666666666667,0.0666666666666667,0.816666666666667,2186.796925708,2187.309446416,9,2186.863906416,2186.929678791,2187.336067291,2188.146107625,1,0.512520708000011
123,50,13,categorization,0,kitchen,SHINEd_sun_axyyrmzcupyhlivc.tif,107,0.0666666666666667,0.0666666666666667,0.966666666666667,2188.161744125,2188.786000791,9,2188.228498333,2188.294262583,2188.796729666,2189.756732916,1,0.624256665999837
