sub_num,trial,block,task,is_practice,category,image,texture,duration,mask_dur,jitter,stim_time,time_of_resp,trial_response,mask_time,fix_time,jit_onset,trial_end,trial_accuracy,RT
123,1,17,categorization,0,bathroom,SHINEd_sun_ahqjwnzgolcaoidx.tif,29,0.0666666666666667,0.0666666666666667,0.9,2570.363162,2570.969013375,13,2570.42585425,2570.485973375,2570.987960916,2571.881299416,1,0.605851374999929
123,2,17,categorization,0,kitchen,SHINEd_sun_amjjdeyrggfqgmom.tif,100,0.0666666666666667,0.0666666666666667,1.65,2571.885956291,2572.601359458,9,2571.947737416,2572.008714625,2572.610541875,2574.253920125,1,0.715403166999749
123,3,17,categorization,0,kitchen,SHINEd_sun_acxkpeoqbwcxfvip.tif,77,0.0666666666666667,0.0666666666666667,1.18333333333333,2574.271127708,2574.906916791,13,2574.337510041,2574.403710375,2574.926339625,2576.103058291,0,0.635789082999963
123,4,17,categorization,0,kitchen,SHINEd_sun_acfmftudsenhrfhy.tif,74,0.0666666666666667,0.0666666666666667,1.18333333333333,2576.112876083,2576.696664375,9,2576.17937925,2576.245288208,2576.718507416,2577.895200291,1,0.583788292000008
123,5,17,categorization,0,bathroom,SHINEd_sun_awnqiikzaispgmwo.tif,56,0.0666666666666667,0.0666666666666667,0.766666666666667,2577.9063415,2578.544479083,13,2577.969112166,2578.029149,2578.547417875,2579.307422208,1,0.638137583000116
123,6,17,categorization,0,bathroom,SHINEd_sun_afcoljnjfoxjtgja.tif,20,0.0666666666666667,0.0666666666666667,1.1,2579.312177791,2580.040632125,13,2579.373815416,2579.434846625,2580.053383625,2581.14676825,1,0.728454333999707
123,7,17,categorization,0,kitchen,SHINEd_sun_adgqasybjyktddhj.tif,78,0.0666666666666667,0.0666666666666667,1.98333333333333,2581.158486,2581.932222375,9,2581.223974791,2581.289430125,2581.961114166,2583.937830875,1,0.773736375000226
123,8,17,categorization,0,bathroom,SHINEd_sun_abjtwfukuwddzted.tif,15,0.0666666666666667,0.0666666666666667,0.8,2583.948772125,2585.014681,13,2584.015043666,2584.08140475,2585.037921083,2585.831259208,1,1.06590887500033
123,9,17,categorization,0,kitchen,SHINEd_sun_akchetnepxlcxhsu.tif,98,0.0666666666666667,0.0666666666666667,1.68333333333333,2585.836114416,2586.592644208,13,2585.89799325,2585.958973916,2586.6107075,2588.287423416,0,0.756529792000038
123,10,17,categorization,0,kitchen,SHINEd_sun_aadbddgrdsjugojn.tif,64,0.0666666666666667,0.0666666666666667,1.73333333333333,2588.304565625,2588.975910916,9,2588.37081875,2588.436955125,2588.993223916,2590.719945875,1,0.671345290999852
123,11,17,categorization,0,kitchen,SHINEd_labelme_rykdqxenmhulbdn.tif,63,0.0666666666666667,0.0666666666666667,0.766666666666667,2590.737264375,2591.362145875,9,2590.803709333,2590.869965583,2591.37521525,2592.135219333,1,0.624881499999901
123,12,17,categorization,0,bathroom,SHINEd_sun_agrwbmhcpmfuwmsg.tif,24,0.0666666666666667,0.0666666666666667,1.43333333333333,2592.141460666,2592.848867291,9,2592.2031695,2592.264143333,2592.865942291,2594.292647208,0,0.707406624999749
123,13,17,categorization,0,bathroom,SHINEd_sun_aleqenyvunhactkl.tif,32,0.0666666666666667,0.0666666666666667,0.7,2594.305582833,2595.141230333,13,2594.371900458,2594.438552375,2595.161748791,2595.855135,1,0.83564750000005
123,14,17,categorization,0,bathroom,SHINEd_sun_acgyywnybuveqsro.tif,18,0.0666666666666667,0.0666666666666667,1.01666666666667,2595.865813458,2596.52050675,13,2595.929866625,2595.988927291,2596.523998875,2597.534037666,1,0.654693292000047
123,15,17,categorization,0,kitchen,SHINEd_sun_abdenxonkemggwsq.tif,69,0.0666666666666667,0.0666666666666667,1.71666666666667,2597.545968375,2598.3096855,9,2597.610512458,2597.677438958,2598.333757708,2600.043798541,1,0.763717124999857
123,16,17,categorization,0,bathroom,SHINEd_sun_aoybiabnpadelefl.tif,41,0.0666666666666667,0.0666666666666667,1.73333333333333,2600.0613535,2600.822437916,13,2600.127879208,2600.1943765,2600.851088791,2602.577791708,1,0.761084415999903
123,17,17,categorization,0,kitchen,SHINEd_sun_aeqdocilnnpuvuhx.tif,83,0.0666666666666667,0.0666666666666667,1.93333333333333,2602.595061583,2603.172087041,9,2602.661781166,2602.728192291,2603.2014535,2605.128159333,1,0.577025457999753
123,18,17,categorization,0,bathroom,SHINEd_sun_acegryoqftbzowsg.tif,17,0.0666666666666667,0.0666666666666667,1.1,2605.144674875,2607.393015875,13,2605.2115665,2605.277576708,2607.413556291,2608.506934458,1,2.24834099999998
123,19,17,categorization,0,bathroom,SHINEd_sun_anryaplzeujmzfkd.tif,39,0.0666666666666667,0.0666666666666667,0.933333333333333,2608.518931916,2609.249926875,13,2608.583704125,2608.65165325,2609.274409208,2610.201126625,1,0.730994958999872
123,20,17,categorization,0,kitchen,SHINEd_sun_aixorpehvfykdynp.tif,95,0.0666666666666667,0.0666666666666667,1.16666666666667,2610.216896958,2610.904625625,9,2610.283562625,2610.349514666,2610.918443541,2612.078480041,1,0.687728667000101
123,21,17,categorization,0,bathroom,SHINEd_sun_aljolscmmzydegqp.tif,33,0.0666666666666667,0.0666666666666667,1.08333333333333,2612.088372291,2612.693674541,13,2612.15494125,2612.22086325,2612.70973625,2613.786458791,1,0.605302250000022
123,22,17,categorization,0,bathroom,SHINEd_sun_agyqfjcfkdcydepw.tif,25,0.0666666666666667,0.0666666666666667,1.36666666666667,2613.802441666,2614.376611875,9,2613.866317291,2613.9328335,2614.385108833,2615.745149833,0,0.574170208999931
123,23,17,categorization,0,kitchen,SHINEd_sun_ajcbwwvdlsvjyzje.tif,96,0.0666666666666667,0.0666666666666667,1.85,2615.760541666,2616.336340958,13,2615.825162708,2615.888454291,2616.361336916,2618.204707083,0,0.575799292000283
123,24,17,categorization,0,bathroom,SHINEd_sun_ahijqszoswveeyji.tif,28,0.0666666666666667,0.0666666666666667,1.1,2618.222610833,2618.867755,13,2618.288680791,2618.355367208,2618.894962958,2619.988334916,1,0.645144167000126
123,25,17,categorization,0,kitchen,SHINEd_sun_aehawpgmrlhlvcow.tif,81,0.0666666666666667,0.0666666666666667,1.71666666666667,2619.999282708,2620.741112291,9,2620.063847625,2620.131927916,2620.754156791,2622.464199666,1,0.741829582999799
123,26,17,categorization,0,bathroom,SHINEd_sun_atstyziqcmkahyxk.tif,51,0.0666666666666667,0.0666666666666667,1.6,2622.482567125,2623.139618541,13,2622.549192875,2622.615254833,2623.154275125,2624.747655166,1,0.657051415999831
123,27,17,categorization,0,kitchen,SHINEd_sun_abrcnpqqhmjwekyf.tif,73,0.0666666666666667,0.0666666666666667,0.85,2624.766295083,2625.904560125,9,2624.83303225,2624.899478583,2625.921072083,2626.764410125,1,1.13826504200006
123,28,17,categorization,0,kitchen,SHINEd_sun_auticobqsbwgoppi.tif,104,0.0666666666666667,0.0666666666666667,1.35,2626.769188416,2627.392539,9,2626.831118166,2626.892022583,2627.410859125,2628.754226958,1,0.623350584000036
123,29,17,categorization,0,bathroom,SHINEd_labelme_sfxiulhjbhlyiyt.tif,11,0.0666666666666667,0.0666666666666667,1.65,2628.772454208,2629.389152166,13,2628.83921775,2628.904939375,2629.411719875,2631.0550855,1,0.616697957999804
123,30,17,categorization,0,kitchen,SHINEd_sun_acwjdupvyjsugpay.tif,76,0.0666666666666667,0.0666666666666667,1.35,2631.073338583,2631.809706833,9,2631.140463916,2631.20655825,2631.828299666,2633.17168125,1,0.736368249999941
123,31,17,categorization,0,bathroom,SHINEd_sun_apmqjbnwghzuhhzh.tif,46,0.0666666666666667,0.0666666666666667,1.63333333333333,2633.182756208,2633.78783825,13,2633.249377708,2633.315650166,2633.805084166,2635.431789541,1,0.605082042000049
123,32,17,categorization,0,kitchen,SHINEd_sun_acgtpgfybqjmzeyw.tif,75,0.0666666666666667,0.0666666666666667,1.1,2635.450473333,2636.265705083,9,2635.517506333,2635.583044125,2636.289890666,2637.383275208,1,0.815231749999839
123,33,17,categorization,0,bathroom,SHINEd_sun_azqyogdvyhahyram.tif,60,0.0666666666666667,0.0666666666666667,1.11666666666667,2637.394102333,2638.002116875,13,2637.459432833,2637.526896916,2638.01559575,2639.125647125,1,0.608014542000092
123,34,17,categorization,0,bathroom,SHINEd_sun_axxbkopsgyouuebh.tif,58,0.0666666666666667,0.0666666666666667,1.5,2639.142378375,2639.808668458,13,2639.208664916,2639.275199708,2639.826936375,2641.320307833,1,0.666290082999694
123,35,17,categorization,0,kitchen,SHINEd_sun_azmutvzbxypaceni.tif,110,0.0666666666666667,0.0666666666666667,1.28333333333333,2641.332832416,2642.012254833,9,2641.397461541,2641.465683291,2642.037539791,2643.314256208,1,0.679422416999842
123,36,17,categorization,0,kitchen,SHINEd_sun_auaiucuqpdausiva.tif,102,0.0666666666666667,0.0666666666666667,1.7,2643.332130208,2644.028349791,9,2643.398710125,2643.464921583,2644.055018708,2645.748388041,1,0.696219583000129
123,37,17,categorization,0,kitchen,SHINEd_sun_awcpdzzznmweyyhv.tif,106,0.0666666666666667,0.0666666666666667,1.08333333333333,2645.76652975,2646.443439,13,2645.831152916,2645.895869,2646.469052416,2647.54575775,0,0.676909250000335
123,38,17,categorization,0,kitchen,SHINEd_sun_aexklacwqwezaorf.tif,84,0.0666666666666667,0.0666666666666667,1.65,2647.554845416,2648.193212041,9,2647.619325708,2647.68592625,2648.207472083,2649.850825041,1,0.638366625000344
123,39,17,categorization,0,bathroom,SHINEd_sun_abapwbhyhkfixyex.tif,14,0.0666666666666667,0.0666666666666667,1.31666666666667,2649.863501041,2650.640224541,9,2649.93072175,2649.996171166,2650.669287416,2651.979337416,0,0.776723500000116
123,40,17,categorization,0,kitchen,SHINEd_sun_agzzivivdpnawacl.tif,89,0.0666666666666667,0.0666666666666667,0.95,2651.9946025,2653.068214625,9,2652.0611565,2652.127389083,2653.084874125,2654.028213041,1,1.07361212500018
123,41,17,categorization,0,bathroom,SHINEd_sun_aqrpegblszgcoujh.tif,48,0.0666666666666667,0.0666666666666667,1.43333333333333,2654.03317925,2654.913035958,13,2654.094979833,2654.155868625,2654.924438375,2656.351155083,1,0.879856707999807
123,42,17,categorization,0,kitchen,SHINEd_sun_aarfiyshqohlwkmo.tif,67,0.0666666666666667,0.0666666666666667,1.66666666666667,2656.368317291,2656.991729125,9,2656.435048166,2656.501288291,2657.007042,2658.667083125,1,0.623411833999853
123,43,17,categorization,0,bathroom,SHINEd_sun_ahaulkltgpkeeemi.tif,26,0.0666666666666667,0.0666666666666667,0.933333333333333,2658.683731458,2659.400845,13,2658.750207083,2658.8161105,2659.421594791,2660.348264791,1,0.717113542000334
123,44,17,categorization,0,kitchen,SHINEd_sun_aenotlpyftoioydp.tif,82,0.0666666666666667,0.0666666666666667,0.833333333333333,2660.353221375,2661.024707125,9,2660.41500225,2660.475954291,2661.027911,2661.854581791,1,0.671485750000102
123,45,17,categorization,0,kitchen,SHINEd_sun_aamedkxepzlwuxes.tif,65,0.0666666666666667,0.0666666666666667,1.26666666666667,2661.85942525,2662.704513041,13,2661.921081791,2661.982158083,2662.717328416,2663.977381791,0,0.845087790999969
123,46,17,categorization,0,kitchen,SHINEd_sun_akcjzhbbjlbogpdi.tif,99,0.0666666666666667,0.0666666666666667,1.93333333333333,2663.994715333,2664.820386166,9,2664.061281916,2664.127437708,2664.850238958,2666.776955625,1,0.825670833000004
123,47,17,categorization,0,kitchen,SHINEd_sun_axyyrmzcupyhlivc.tif,107,0.0666666666666667,0.0666666666666667,1.06666666666667,2666.794552083,2667.677287708,13,2666.861254333,2666.926793958,2667.700069416,2668.7601,0,0.88273562500035
123,48,17,categorization,0,kitchen,SHINEd_sun_aqeaevwwwjoqhzvl.tif,101,0.0666666666666667,0.0666666666666667,0.766666666666667,2668.771547375,2669.388827625,9,2668.836492916,2668.902820875,2669.409107083,2670.169158583,1,0.617280250000022
123,49,17,categorization,0,bathroom,SHINEd_sun_agguqiubmwhqqunb.tif,22,0.0666666666666667,0.0666666666666667,0.833333333333333,2670.185270791,2670.797655083,9,2670.251646458,2670.318111875,2670.822491291,2671.649162125,0,0.61238429199966
123,50,17,categorization,0,kitchen,SHINEd_sun_ahspylgoovwmwvgk.tif,93,0.0666666666666667,0.0666666666666667,1.46666666666667,2671.653987958,2672.368451041,9,2671.715761083,2671.776754416,2672.378630666,2673.838673833,1,0.714463082999828
