slide,sub1,sub2,pairID,trialID,stim1,stim2,instructionsLoop.thisRepN,instructionsLoop.thisTrialN,instructionsLoop.thisN,instructionsLoop.thisIndex,practice.thisRepN,practice.thisTrialN,practice.thisN,practice.thisIndex,trials.thisRepN,trials.thisTrialN,trials.thisN,trials.thisIndex,thisRow.t,notes,preparation.started,preparation.stopped,instructions.started,startResponse.started,slide_img.started,instructions.stopped,startResponse.keys,startResponse.rt,startResponse.duration,trial.started,polygon.started,polygon_2.started,image1.started,image2.started,rating_1.started,question.started,rating_2.started,question_2.started,block_text.started,trial.stopped,stim1pos,stim2pos,block,rating_1.response,rating_1.rt,rating_2.response,rating_2.rt,ITI.started,text.started,text.stopped,ITI.stopped,practice_over.started,text_2.started,space_practice_over.started,practice_over.stopped,space_practice_over.keys,space_practice_over.rt,space_practice_over.duration,breakBlocks.started,breakBlocks.stopped,startBlock.keys,startBlock.started,startBlock.rt,startBlock.duration,end.started,message_end.started,key_resp.started,end.stopped,key_resp.keys,key_resp.rt,key_resp.duration,participant,session,session_number,date,expName,psychopyVersion,frameRate,expStart,
instructions/Slide1.jpg,,,,,,,0,0,0,0,,,,,,,,,0.024470874999991565,,0.0019820830000014666,0.0020941249999850697,0.00943562500000894,0.024470874999991565,0.024470874999991565,5.331241000000006,space,5.306535042000007,None,,,,,,,,,,,,,,,,,,,,,,,,,,,,,,,,,,,,,,,,,,,209,bathroom,2,2024-03-22_12h26.00.837,image_similarity_rating,2023.2.3,None,2024-03-22 12h27.07.079342 +0100,
instructions/Slide3.jpg,,,,,,,0,1,1,1,,,,,,,,,5.353326750000008,,,,5.332076333000003,5.353326750000008,5.353326750000008,6.530927166999987,space,1.177398457999999,None,,,,,,,,,,,,,,,,,,,,,,,,,,,,,,,,,,,,,,,,,,,209,bathroom,2,2024-03-22_12h26.00.837,image_similarity_rating,2023.2.3,None,2024-03-22 12h27.07.079342 +0100,
instructions/Slide4.jpg,,,,,,,0,2,2,2,,,,,,,,,6.550560292,,,,6.531474083000006,6.550560292,6.550560292,9.460665167000002,space,2.909745958000002,None,,,,,,,,,,,,,,,,,,,,,,,,,,,,,,,,,,,,,,,,,,,209,bathroom,2,2024-03-22_12h26.00.837,image_similarity_rating,2023.2.3,None,2024-03-22 12h27.07.079342 +0100,
instructions/Slide5.jpg,,,,,,,0,3,3,3,,,,,,,,,9.490156708,,,,9.461672082999996,9.490156708,9.490156708,9.998442167000007,space,0.5080905829999836,None,,,,,,,,,,,,,,,,,,,,,,,,,,,,,,,,,,,,,,,,,,,209,bathroom,2,2024-03-22_12h26.00.837,image_similarity_rating,2023.2.3,None,2024-03-22 12h27.07.079342 +0100,
,110,107,practice,4,stimuli/own/bathroom/110_bat.jpg,stimuli/own/bathroom/107_bat.jpg,,,,,0,0,0,3,,,,,10.199233499999991,,,,,,,,,,,10.019509833,10.199233499999991,10.199233499999991,10.199233499999991,10.199233499999991,10.199233499999991,10.199233499999991,10.199233499999991,10.199233499999991,10.199233499999991,18.58337187500001,7,-7,0,3.0,6.079873666000026,5.0,8.308397291999995,18.58360108299999,18.58878737500001,19.043963458000007,18.873553458000004,,,,,,,,,,,,,,,,,,,,,209,bathroom,2,2024-03-22_12h26.00.837,image_similarity_rating,2023.2.3,None,2024-03-22 12h27.07.079342 +0100,
,110,133,practice,1,stimuli/own/bathroom/110_bat.jpg,stimuli/own/bathroom/133_bat.jpg,,,,,0,1,1,0,,,,,19.043963458000007,,,,,,,,,,,18.87405470799999,19.043963458000007,19.043963458000007,19.043963458000007,19.043963458000007,19.043963458000007,19.043963458000007,19.043963458000007,19.043963458000007,19.043963458000007,24.612096417000004,-7,7,0,3.0,3.6746943330000192,5.0,5.4077080840000065,24.612241417000007,24.622093957999994,25.077328125000008,24.906822457999994,,,,,,,,,,,,,,,,,,,,,209,bathroom,2,2024-03-22_12h26.00.837,image_similarity_rating,2023.2.3,None,2024-03-22 12h27.07.079342 +0100,
,108,133,practice,10,stimuli/own/bathroom/108_bat.jpg,stimuli/own/bathroom/133_bat.jpg,,,,,0,2,2,9,,,,,25.077328125000008,,,,,,,,,,,24.907325749999984,25.077328125000008,25.077328125000008,25.077328125000008,25.077328125000008,25.077328125000008,25.077328125000008,25.077328125000008,25.077328125000008,25.077328125000008,30.895905957999986,-7,7,0,3.0,5.811977499999983,4.0,3.5265310000000056,30.896049250000004,30.905802042000005,31.35866016700001,31.19039975000001,,,,,,,,,,,,,,,,,,,,,209,bathroom,2,2024-03-22_12h26.00.837,image_similarity_rating,2023.2.3,None,2024-03-22 12h27.07.079342 +0100,
,128,133,practice,6,stimuli/own/bathroom/128_bat.jpg,stimuli/own/bathroom/133_bat.jpg,,,,,0,3,3,5,,,,,31.35866016700001,,,,,,,,,,,31.190898417,31.35866016700001,31.35866016700001,31.35866016700001,31.35866016700001,31.35866016700001,31.35866016700001,31.35866016700001,31.35866016700001,31.35866016700001,35.883071583,-7,7,0,2.0,2.7698406250000005,1.0,4.340158458000019,35.883216291999986,35.88879833300001,36.33812012499999,36.17338783299999,,,,,,,,,,,,,,,,,,,,,209,bathroom,2,2024-03-22_12h26.00.837,image_similarity_rating,2023.2.3,None,2024-03-22 12h27.07.079342 +0100,
,107,128,practice,7,stimuli/own/bathroom/107_bat.jpg,stimuli/own/bathroom/128_bat.jpg,,,,,0,4,4,6,,,,,36.33812012499999,,,,,,,,,,,36.173822417,36.33812012499999,36.33812012499999,36.33812012499999,36.33812012499999,36.33812012499999,36.33812012499999,36.33812012499999,36.33812012499999,36.33812012499999,38.754131833,7,-7,0,3.0,2.486882666000014,1.0,1.1845353330000137,38.75427512499999,38.75742191699999,39.208295042,39.045033416999985,,,,,,,,,,,,,,,,,,,,,209,bathroom,2,2024-03-22_12h26.00.837,image_similarity_rating,2023.2.3,None,2024-03-22 12h27.07.079342 +0100,
,107,133,practice,9,stimuli/own/bathroom/107_bat.jpg,stimuli/own/bathroom/133_bat.jpg,,,,,0,5,5,8,,,,,39.208295042,,,,,,,,,,,39.045333833,39.208295042,39.208295042,39.208295042,39.208295042,39.208295042,39.208295042,39.208295042,39.208295042,39.208295042,48.09206320800001,-7,7,0,3.0,8.900296542000007,3.0,7.699182457999996,48.092212292,48.10564466699998,48.55865262499998,48.39016245800002,,,,,,,,,,,,,,,,,,,,,209,bathroom,2,2024-03-22_12h26.00.837,image_similarity_rating,2023.2.3,None,2024-03-22 12h27.07.079342 +0100,
,108,110,practice,8,stimuli/own/bathroom/108_bat.jpg,stimuli/own/bathroom/110_bat.jpg,,,,,0,6,6,7,,,,,48.55865262499998,,,,,,,,,,,48.390657917,48.55865262499998,48.55865262499998,48.55865262499998,48.55865262499998,48.55865262499998,48.55865262499998,48.55865262499998,48.55865262499998,48.55865262499998,58.712575042000026,-7,7,0,2.0,8.49283995899998,2.0,10.116067792000024,58.71271704200001,58.72214758299998,59.17315095800001,59.00728029200002,,,,,,,,,,,,,,,,,,,,,209,bathroom,2,2024-03-22_12h26.00.837,image_similarity_rating,2023.2.3,None,2024-03-22 12h27.07.079342 +0100,
,128,108,practice,3,stimuli/own/bathroom/128_bat.jpg,stimuli/own/bathroom/108_bat.jpg,,,,,0,7,7,2,,,,,59.17315095800001,,,,,,,,,,,59.007760667000014,59.17315095800001,59.17315095800001,59.17315095800001,59.17315095800001,59.17315095800001,59.17315095800001,59.17315095800001,59.17315095800001,59.17315095800001,62.816468541999996,-7,7,0,2.0,3.5541787919999592,1.0,1.816573166000012,62.816612292,62.822005875,63.27101779200001,63.106692167000006,,,,,,,,,,,,,,,,,,,,,209,bathroom,2,2024-03-22_12h26.00.837,image_similarity_rating,2023.2.3,None,2024-03-22 12h27.07.079342 +0100,
,110,128,practice,2,stimuli/own/bathroom/110_bat.jpg,stimuli/own/bathroom/128_bat.jpg,,,,,0,8,8,1,,,,,63.27101779200001,,,,,,,,,,,63.10710508300002,63.27101779200001,63.27101779200001,63.27101779200001,63.27101779200001,63.27101779200001,63.27101779200001,63.27101779200001,63.27101779200001,63.27101779200001,66.71775679199999,-7,7,0,1.0,3.4864759160000176,1.0,1.6069692909999844,66.71789966699998,66.72206158299997,67.17181454199999,67.00687854199998,,,,,,,,,,,,,,,,,,,,,209,bathroom,2,2024-03-22_12h26.00.837,image_similarity_rating,2023.2.3,None,2024-03-22 12h27.07.079342 +0100,
,107,108,practice,5,stimuli/own/bathroom/107_bat.jpg,stimuli/own/bathroom/108_bat.jpg,,,,,0,9,9,4,,,,,67.17181454199999,,,,,,,,,,,67.00730729200001,67.17181454199999,67.17181454199999,67.17181454199999,67.17181454199999,67.17181454199999,67.17181454199999,67.17181454199999,67.17181454199999,67.17181454199999,71.01199441699998,7,-7,0,5.0,2.8710174999999936,5.0,3.7646940409999843,71.01213812499998,71.02216083299999,71.31152416700002,71.30646841700002,,,,,,,,,,,,,,,,,,,,,209,bathroom,2,2024-03-22_12h26.00.837,image_similarity_rating,2023.2.3,None,2024-03-22 12h27.07.079342 +0100,
,,,,,,,,,,,,,,,,,,,,,,,,,,,,,,,,,,,,,,,,,,,,,,,,,,,,71.30656145799998,71.31152416700002,71.31152416700002,72.14156879199999,space,0.829761082999994,None,,,,,,,,,,,,,,209,bathroom,2,2024-03-22_12h26.00.837,image_similarity_rating,2023.2.3,None,2024-03-22 12h27.07.079342 +0100,
,122,134,452,452,stimuli/own/bathroom/122_bat.jpg,stimuli/own/bathroom/134_bat.jpg,,,,,,,,,0,0,0,451,72.19240324999998,,,,,,,,,,,72.47746845799998,72.65523462499999,72.65523462499999,72.65523462499999,72.65523462499999,72.65523462499999,72.65523462499999,72.65523462499999,72.65523462499999,72.65523462499999,81.17858662499998,7,-7,1,5.0,7.915850667000029,5.0,8.470945791999952,72.19015341699998,72.19240324999998,72.65523462499999,72.47745383299997,,,,,,,,72.17618754199998,72.18985700000002,None,,,,,,,,,,,209,bathroom,2,2024-03-22_12h26.00.837,image_similarity_rating,2023.2.3,None,2024-03-22 12h27.07.079342 +0100,
,101,140,33,33,stimuli/own/bathroom/101_bat.jpg,stimuli/own/bathroom/140_bat.jpg,,,,,,,,,0,1,1,32,81.18831658300002,,,,,,,,,,,81.47375766699997,81.64094999999998,81.64094999999998,81.64094999999998,81.64094999999998,81.64094999999998,81.64094999999998,81.64094999999998,81.64094999999998,81.64094999999998,88.74140949999997,7,-7,1,4.0,5.513444750000019,5.0,7.010474417000012,81.18517891699997,81.18831658300002,81.64094999999998,81.47374308299999,,,,,,,,81.17916004199998,81.18512537499998,None,,,,,,,,,,,209,bathroom,2,2024-03-22_12h26.00.837,image_similarity_rating,2023.2.3,None,2024-03-22 12h27.07.079342 +0100,
,135,140,579,579,stimuli/own/bathroom/135_bat.jpg,stimuli/own/bathroom/140_bat.jpg,,,,,,,,,0,2,2,578,88.75518933299998,,,,,,,,,,,89.03989862499998,89.20551799999998,89.20551799999998,89.20551799999998,89.20551799999998,89.20551799999998,89.20551799999998,89.20551799999998,89.20551799999998,89.20551799999998,94.41262562499998,7,-7,1,5.0,5.1926241670000195,4.0,3.2834547090000115,88.74522462499999,88.75518933299998,89.20551799999998,89.03988412500001,,,,,,,,88.74163475,88.74517187499998,None,,,,,,,,,,,209,bathroom,2,2024-03-22_12h26.00.837,image_similarity_rating,2023.2.3,None,2024-03-22 12h27.07.079342 +0100,
,106,126,176,176,stimuli/own/bathroom/106_bat.jpg,stimuli/own/bathroom/126_bat.jpg,,,,,,,,,0,3,3,175,94.42176508300003,,,,,,,,,,,94.70672324999998,94.87180279199998,94.87180279199998,94.87180279199998,94.87180279199998,94.87180279199998,94.87180279199998,94.87180279199998,94.87180279199998,94.87180279199998,99.82839841700002,-7,7,1,4.0,4.9667254999999955,3.0,2.581917374999989,94.41643616699997,94.42176508300003,94.87180279199998,94.70671129200002,,,,,,,,94.41284920800001,94.416385333,None,,,,,,,,,,,209,bathroom,2,2024-03-22_12h26.00.837,image_similarity_rating,2023.2.3,None,2024-03-22 12h27.07.079342 +0100,
,117,127,352,352,stimuli/own/bathroom/117_bat.jpg,stimuli/own/bathroom/127_bat.jpg,,,,,,,,,0,4,4,351,99.83847087499998,,,,,,,,,,,100.12381199999999,100.28907345800002,100.28907345800002,100.28907345800002,100.28907345800002,100.28907345800002,100.28907345800002,100.28907345800002,100.28907345800002,100.28907345800002,103.42653208299998,-7,7,1,5.0,2.5374847080000222,5.0,3.009561749999989,99.83211320800001,99.83847087499998,100.28907345800002,100.12379745800001,,,,,,,,99.828623,99.83206541700002,None,,,,,,,,,,,209,bathroom,2,2024-03-22_12h26.00.837,image_similarity_rating,2023.2.3,None,2024-03-22 12h27.07.079342 +0100,
,129,135,534,534,stimuli/own/bathroom/129_bat.jpg,stimuli/own/bathroom/135_bat.jpg,,,,,,,,,0,5,5,533,103.43836645800002,,,,,,,,,,,103.72365854200001,103.88856237499999,103.88856237499999,103.88856237499999,103.88856237499999,103.88856237499999,103.88856237499999,103.88856237499999,103.88856237499999,103.88856237499999,108.41172104200001,-7,7,1,6.0,3.858254250000016,6.0,2.806828416999963,103.43051591699998,103.43836645800002,103.88856237499999,103.72364425,,,,,,,,103.426753792,103.43046562500001,None,,,,,,,,,,,209,bathroom,2,2024-03-22_12h26.00.837,image_similarity_rating,2023.2.3,None,2024-03-22 12h27.07.079342 +0100,
,129,136,535,535,stimuli/own/bathroom/129_bat.jpg,stimuli/own/bathroom/136_bat.jpg,,,,,,,,,0,6,6,534,108.42170141700001,,,,,,,,,,,108.706299333,108.87211520800003,108.87211520800003,108.87211520800003,108.87211520800003,108.87211520800003,108.87211520800003,108.87211520800003,108.87211520800003,108.87211520800003,115.720408292,-7,7,1,5.0,5.986295957999971,6.0,4.723470082999995,108.41542466700002,108.42170141700001,108.87211520800003,108.70627579199999,,,,,,,,108.41194762499998,108.41537766699997,None,,,,,,,,,,,209,bathroom,2,2024-03-22_12h26.00.837,image_similarity_rating,2023.2.3,None,2024-03-22 12h27.07.079342 +0100,
,130,131,541,541,stimuli/own/bathroom/130_bat.jpg,stimuli/own/bathroom/131_bat.jpg,,,,,,,,,0,7,7,540,115.72645062499998,,,,,,,,,,,116.02288141700001,116.190187375,116.190187375,116.190187375,116.190187375,116.190187375,116.190187375,116.190187375,116.190187375,116.190187375,127.57576275000002,7,-7,1,3.0,10.225042083000005,2.0,11.172043459000008,115.724496042,115.72645062499998,116.190187375,116.02286612500001,,,,,,,,115.72065016699997,115.72444508299998,None,,,,,,,,,,,209,bathroom,2,2024-03-22_12h26.00.837,image_similarity_rating,2023.2.3,None,2024-03-22 12h27.07.079342 +0100,
,126,127,505,505,stimuli/own/bathroom/126_bat.jpg,stimuli/own/bathroom/127_bat.jpg,,,,,,,,,0,8,8,504,127.588272792,,,,,,,,,,,127.872867375,128.037584542,128.037584542,128.037584542,128.037584542,128.037584542,128.037584542,128.037584542,128.037584542,128.037584542,137.699536458,-7,7,1,6.0,9.19263808400001,6.0,9.6393195,127.57969350000002,127.588272792,128.037584542,127.872855125,,,,,,,,127.57600208299999,127.579642708,None,,,,,,,,,,,209,bathroom,2,2024-03-22_12h26.00.837,image_similarity_rating,2023.2.3,None,2024-03-22 12h27.07.079342 +0100,
,120,130,414,414,stimuli/own/bathroom/120_bat.jpg,stimuli/own/bathroom/130_bat.jpg,,,,,,,,,0,9,9,413,137.72157575,,,,,,,,,,,138.00584266700002,138.171447333,138.171447333,138.171447333,138.171447333,138.171447333,138.171447333,138.171447333,138.171447333,138.171447333,141.26284299999998,-7,7,1,7.0,2.983532582999999,7.0,2.381124292000038,137.703264167,137.72157575,,138.00582491699998,,,,,,,,137.699764125,137.70321612499998,None,,,,,,,,,,,209,bathroom,2,2024-03-22_12h26.00.837,image_similarity_rating,2023.2.3,None,2024-03-22 12h27.07.079342 +0100,
,102,139,65,604,stimuli/own/bathroom/102_bat.jpg,stimuli/own/bathroom/139_bat.jpg,,,,,,,,,0,10,10,603,141.27153683299997,,,,,,,,,,,141.55644816699999,141.72167458299998,141.72167458299998,141.72167458299998,141.72167458299998,141.72167458299998,141.72167458299998,141.72167458299998,141.72167458299998,141.72167458299998,153.22876879199998,-7,7,1,7.0,10.200188791000016,7.0,11.495459500000038,141.266684708,141.27153683299997,141.72167458299998,141.556434583,,,,,,,,141.26306516699998,141.26663641699997,None,,,,,,,,,,,209,bathroom,2,2024-03-22_12h26.00.837,image_similarity_rating,2023.2.3,None,2024-03-22 12h27.07.079342 +0100,
,103,140,98,98,stimuli/own/bathroom/103_bat.jpg,stimuli/own/bathroom/140_bat.jpg,,,,,,,,,0,11,11,97,153.238144708,,,,,,,,,,,153.52277554199998,153.68768008299998,153.68768008299998,153.68768008299998,153.68768008299998,153.68768008299998,153.68768008299998,153.68768008299998,153.68768008299998,153.68768008299998,159.47825379199998,7,-7,1,5.0,5.585367333000022,6.0,4.212059042000021,153.232463875,153.238144708,153.68768008299998,153.522758,,,,,,,,153.228993667,153.23241624999997,None,,,,,,,,,,,209,bathroom,2,2024-03-22_12h26.00.837,image_similarity_rating,2023.2.3,None,2024-03-22 12h27.07.079342 +0100,
,114,119,299,299,stimuli/own/bathroom/114_bat.jpg,stimuli/own/bathroom/119_bat.jpg,,,,,,,,,0,12,12,298,159.488166875,,,,,,,,,,,159.77255350000001,159.93819341699998,159.93819341699998,159.93819341699998,159.93819341699998,159.93819341699998,159.93819341699998,159.93819341699998,159.93819341699998,159.93819341699998,166.32523770799997,7,-7,1,4.0,6.366536166000003,2.0,5.354270292000024,159.481963833,159.488166875,159.93819341699998,159.772540208,,,,,,,,159.4784805,159.481916292,None,,,,,,,,,,,209,bathroom,2,2024-03-22_12h26.00.837,image_similarity_rating,2023.2.3,None,2024-03-22 12h27.07.079342 +0100,
,105,123,144,144,stimuli/own/bathroom/105_bat.jpg,stimuli/own/bathroom/123_bat.jpg,,,,,,,,,0,13,13,143,166.33814779199997,,,,,,,,,,,166.62331475000002,166.78883508299998,166.78883508299998,166.78883508299998,166.78883508299998,166.78883508299998,166.78883508299998,166.78883508299998,166.78883508299998,166.78883508299998,180.241397125,-7,7,1,3.0,13.459343666999985,2.0,12.311874541000009,166.329066625,166.33814779199997,166.78883508299998,166.62330283300003,,,,,,,,166.325470333,166.32900858300002,None,,,,,,,,,,,209,bathroom,2,2024-03-22_12h26.00.837,image_similarity_rating,2023.2.3,None,2024-03-22 12h27.07.079342 +0100,
,126,135,511,511,stimuli/own/bathroom/126_bat.jpg,stimuli/own/bathroom/135_bat.jpg,,,,,,,,,0,14,14,510,180.254579083,,,,,,,,,,,180.539312333,180.70504616699998,180.70504616699998,180.70504616699998,180.70504616699998,180.70504616699998,180.70504616699998,180.70504616699998,180.70504616699998,180.70504616699998,184.01153449999998,7,-7,1,5.0,2.7369322499999953,5.0,3.2309942500000375,180.24568449999998,180.254579083,180.70504616699998,180.53929366699998,,,,,,,,180.24163483299998,180.24562920800003,None,,,,,,,,,,,209,bathroom,2,2024-03-22_12h26.00.837,image_similarity_rating,2023.2.3,None,2024-03-22 12h27.07.079342 +0100,
,112,141,270,270,stimuli/own/bathroom/112_bat.jpg,stimuli/own/bathroom/141_bat.jpg,,,,,,,,,0,15,15,269,184.02131704200002,,,,,,,,,,,184.30597662499997,184.471121875,184.471121875,184.471121875,184.471121875,184.471121875,184.471121875,184.471121875,184.471121875,184.471121875,190.0591215,-7,7,1,4.0,5.626185125000006,2.0,4.322908125000026,184.015257292,184.02131704200002,184.471121875,184.305963458,,,,,,,,184.011762042,184.01520966700002,None,,,,,,,,,,,209,bathroom,2,2024-03-22_12h26.00.837,image_similarity_rating,2023.2.3,None,2024-03-22 12h27.07.079342 +0100,
,112,138,267,267,stimuli/own/bathroom/112_bat.jpg,stimuli/own/bathroom/138_bat.jpg,,,,,,,,,0,16,16,266,190.07134120799998,,,,,,,,,,,190.355843708,190.52056654199998,190.52056654199998,190.52056654199998,190.52056654199998,190.52056654199998,190.52056654199998,190.52056654199998,190.52056654199998,190.52056654199998,201.64050125,7,-7,1,4.0,11.076882583999975,2.0,5.4775361669999825,190.06313545799998,190.07134120799998,190.52056654199998,190.355834167,,,,,,,,190.059353,190.063084958,None,,,,,,,,,,,209,bathroom,2,2024-03-22_12h26.00.837,image_similarity_rating,2023.2.3,None,2024-03-22 12h27.07.079342 +0100,
,111,118,223,223,stimuli/own/bathroom/111_bat.jpg,stimuli/own/bathroom/118_bat.jpg,,,,,,,,,0,17,17,222,201.64623812500002,,,,,,,,,,,201.93946712500002,202.10398904200002,202.10398904200002,202.10398904200002,202.10398904200002,202.10398904200002,202.10398904200002,202.10398904200002,202.10398904200002,202.10398904200002,206.778488875,7,-7,1,4.0,4.584796250000011,1.0,2.818686709000019,201.64431391699998,201.64623812500002,202.10398904200002,201.93945454200002,,,,,,,,201.64073808299997,201.644265458,None,,,,,,,,,,,209,bathroom,2,2024-03-22_12h26.00.837,image_similarity_rating,2023.2.3,None,2024-03-22 12h27.07.079342 +0100,
,125,136,499,499,stimuli/own/bathroom/125_bat.jpg,stimuli/own/bathroom/136_bat.jpg,,,,,,,,,0,18,18,498,206.78792108300001,,,,,,,,,,,207.07266404199999,207.23497104199998,207.23497104199998,207.23497104199998,207.23497104199998,207.23497104199998,207.23497104199998,207.23497104199998,207.23497104199998,207.23497104199998,212.54950104199997,-7,7,1,6.0,5.309043667000026,6.0,4.08434966599998,206.78246841700002,206.78792108300001,207.23497104199998,207.07265391700003,,,,,,,,206.778724167,206.78241804200002,None,,,,,,,,,,,209,bathroom,2,2024-03-22_12h26.00.837,image_similarity_rating,2023.2.3,None,2024-03-22 12h27.07.079342 +0100,
,116,140,341,341,stimuli/own/bathroom/116_bat.jpg,stimuli/own/bathroom/140_bat.jpg,,,,,,,,,0,19,19,340,212.55587637500003,,,,,,,,,,,212.83918575,213.00473633299998,213.00473633299998,213.00473633299998,213.00473633299998,213.00473633299998,213.00473633299998,213.00473633299998,213.00473633299998,213.00473633299998,218.157011625,7,-7,1,5.0,4.735754125000028,2.0,2.7624543750000043,212.55323433299998,212.55587637500003,213.00473633299998,212.83917287499997,,,,,,,,212.549724792,212.55318645799997,None,,,,,,,,,,,209,bathroom,2,2024-03-22_12h26.00.837,image_similarity_rating,2023.2.3,None,2024-03-22 12h27.07.079342 +0100,
,105,113,135,135,stimuli/own/bathroom/105_bat.jpg,stimuli/own/bathroom/113_bat.jpg,,,,,,,,,0,20,20,134,218.162644458,,,,,,,,,,,218.45578475000002,218.62803574999998,218.62803574999998,218.62803574999998,218.62803574999998,218.62803574999998,218.62803574999998,218.62803574999998,218.62803574999998,218.62803574999998,222.40890962499998,7,-7,1,5.0,3.8301226250000013,5.0,2.966297083000029,218.16071158300002,218.162644458,218.62803574999998,218.455768708,,,,,,,,218.157234958,218.16066425000002,None,,,,,,,,,,,209,bathroom,2,2024-03-22_12h26.00.837,image_similarity_rating,2023.2.3,None,2024-03-22 12h27.07.079342 +0100,
,101,123,18,18,stimuli/own/bathroom/101_bat.jpg,stimuli/own/bathroom/123_bat.jpg,,,,,,,,,0,21,21,17,222.420970833,,,,,,,,,,,222.70554175,222.86334595800002,222.86334595800002,222.86334595800002,222.86334595800002,222.86334595800002,222.86334595800002,222.86334595800002,222.86334595800002,222.86334595800002,227.390285625,7,-7,1,6.0,4.101151374999972,4.0,3.214126625000006,222.41324704200002,222.420970833,222.86334595800002,222.705528167,,,,,,,,222.40916412500002,222.41319837499998,None,,,,,,,,,,,209,bathroom,2,2024-03-22_12h26.00.837,image_similarity_rating,2023.2.3,None,2024-03-22 12h27.07.079342 +0100,
,102,139,65,607,stimuli/own/bathroom/102_bat.jpg,stimuli/own/bathroom/139_bat.jpg,,,,,,,,,0,22,22,606,227.395716208,,,,,,,,,,,227.689331083,227.854334375,227.854334375,227.854334375,227.854334375,227.854334375,227.854334375,227.854334375,227.854334375,227.854334375,230.515811208,7,-7,1,6.0,2.3432854160000147,6.0,2.6998344170000337,227.39397770800002,227.395716208,227.854334375,227.689315292,,,,,,,,227.39051279199998,227.393930125,None,,,,,,,,,,,209,bathroom,2,2024-03-22_12h26.00.837,image_similarity_rating,2023.2.3,None,2024-03-22 12h27.07.079342 +0100,
,101,103,2,2,stimuli/own/bathroom/101_bat.jpg,stimuli/own/bathroom/103_bat.jpg,,,,,,,,,0,23,23,1,230.537717417,,,,,,,,,,,230.822173458,230.986540375,230.986540375,230.986540375,230.986540375,230.986540375,230.986540375,230.986540375,230.986540375,230.986540375,232.67452137499998,7,-7,1,6.0,1.7162241660000177,6.0,0.9656544580000173,230.519515167,230.537717417,,230.82214616699997,,,,,,,,230.51603458300002,230.51946625,None,,,,,,,,,,,209,bathroom,2,2024-03-22_12h26.00.837,image_similarity_rating,2023.2.3,None,2024-03-22 12h27.07.079342 +0100,
,120,134,417,417,stimuli/own/bathroom/120_bat.jpg,stimuli/own/bathroom/134_bat.jpg,,,,,,,,,0,24,24,416,232.68064233299998,,,,,,,,,,,232.972726583,233.13850524999998,233.13850524999998,233.13850524999998,233.13850524999998,233.13850524999998,233.13850524999998,233.13850524999998,233.13850524999998,233.13850524999998,236.941764375,-7,7,1,7.0,3.3257272920000105,7.0,3.742330417000005,232.6783775,232.68064233299998,233.13850524999998,232.972712542,,,,,,,,232.674748917,232.67832950000002,None,,,,,,,,,,,209,bathroom,2,2024-03-22_12h26.00.837,image_similarity_rating,2023.2.3,None,2024-03-22 12h27.07.079342 +0100,
,103,132,91,91,stimuli/own/bathroom/103_bat.jpg,stimuli/own/bathroom/132_bat.jpg,,,,,,,,,0,25,25,90,236.954409667,,,,,,,,,,,237.239335917,237.40401774999998,237.40401774999998,237.40401774999998,237.40401774999998,237.40401774999998,237.40401774999998,237.40401774999998,237.40401774999998,237.40401774999998,243.25740991700002,-7,7,1,6.0,5.795018916000004,7.0,4.920788749999986,236.94565162499998,236.954409667,237.40401774999998,237.239322958,,,,,,,,236.94199987500002,236.945601333,None,,,,,,,,,,,209,bathroom,2,2024-03-22_12h26.00.837,image_similarity_rating,2023.2.3,None,2024-03-22 12h27.07.079342 +0100,
,114,118,298,298,stimuli/own/bathroom/114_bat.jpg,stimuli/own/bathroom/118_bat.jpg,,,,,,,,,0,26,26,297,243.26358837499998,,,,,,,,,,,243.556743875,243.721787625,243.721787625,243.721787625,243.721787625,243.721787625,243.721787625,243.721787625,243.721787625,243.721787625,248.30307887499998,7,-7,1,5.0,4.547758041999998,1.0,3.2875226250000082,243.26148529199997,243.26358837499998,243.721787625,243.556730292,,,,,,,,243.257642417,243.26143341699998,None,,,,,,,,,,,209,bathroom,2,2024-03-22_12h26.00.837,image_similarity_rating,2023.2.3,None,2024-03-22 12h27.07.079342 +0100,
,134,135,568,568,stimuli/own/bathroom/134_bat.jpg,stimuli/own/bathroom/135_bat.jpg,,,,,,,,,0,27,27,567,248.30889233300002,,,,,,,,,,,248.60578075,248.771466792,248.771466792,248.771466792,248.771466792,248.771466792,248.771466792,248.771466792,248.771466792,248.771466792,252.81582054199998,-7,7,1,5.0,3.2306855420000034,5.0,3.9715436660000023,248.30694429200003,248.30889233300002,248.771466792,248.60576166700002,,,,,,,,248.303317875,248.30689575000002,None,,,,,,,,,,,209,bathroom,2,2024-03-22_12h26.00.837,image_similarity_rating,2023.2.3,None,2024-03-22 12h27.07.079342 +0100,
,102,141,67,67,stimuli/own/bathroom/102_bat.jpg,stimuli/own/bathroom/141_bat.jpg,,,,,,,,,0,28,28,66,252.837739042,,,,,,,,,,,253.121799,253.28646195800002,253.28646195800002,253.28646195800002,253.28646195800002,253.28646195800002,253.28646195800002,253.28646195800002,253.28646195800002,253.28646195800002,257.148582625,7,-7,1,6.0,3.194132625000009,6.0,3.8253266250000024,252.819514958,252.837739042,,253.121774625,,,,,,,,252.81604512500002,252.81946783299998,None,,,,,,,,,,,209,bathroom,2,2024-03-22_12h26.00.837,image_similarity_rating,2023.2.3,None,2024-03-22 12h27.07.079342 +0100,
,118,125,371,371,stimuli/own/bathroom/118_bat.jpg,stimuli/own/bathroom/125_bat.jpg,,,,,,,,,0,29,29,370,257.171312292,,,,,,,,,,,257.455145208,257.623669458,257.623669458,257.623669458,257.623669458,257.623669458,257.623669458,257.623669458,257.623669458,257.623669458,261.487005958,7,-7,1,4.0,3.912067583999999,1.0,2.3394922090000136,257.152600875,257.171312292,,257.455125958,,,,,,,,257.1488065,257.152550542,None,,,,,,,,,,,209,bathroom,2,2024-03-22_12h26.00.837,image_similarity_rating,2023.2.3,None,2024-03-22 12h27.07.079342 +0100,
,102,103,35,35,stimuli/own/bathroom/102_bat.jpg,stimuli/own/bathroom/103_bat.jpg,,,,,,,,,0,30,30,34,261.492747417,,,,,,,,,,,261.776264083,261.941030833,261.941030833,261.941030833,261.941030833,261.941030833,261.941030833,261.941030833,261.941030833,261.941030833,267.48235925,-7,7,1,5.0,4.813876791999974,5.0,5.5809906669999805,261.490820833,261.492747417,261.941030833,261.7762525,,,,,,,,261.487229833,261.490772875,None,,,,,,,,,,,209,bathroom,2,2024-03-22_12h26.00.837,image_similarity_rating,2023.2.3,None,2024-03-22 12h27.07.079342 +0100,
,101,135,28,28,stimuli/own/bathroom/101_bat.jpg,stimuli/own/bathroom/135_bat.jpg,,,,,,,,,0,31,31,27,267.504418208,,,,,,,,,,,267.788406125,267.95353,267.95353,267.95353,267.95353,267.95353,267.95353,267.95353,267.95353,267.95353,273.123879,7,-7,1,5.0,4.628069667000034,6.0,5.122442291000027,267.48603825,267.504418208,,267.788388917,,,,,,,,267.482584083,267.485990958,None,,,,,,,,,,,209,bathroom,2,2024-03-22_12h26.00.837,image_similarity_rating,2023.2.3,None,2024-03-22 12h27.07.079342 +0100,
,129,137,536,536,stimuli/own/bathroom/129_bat.jpg,stimuli/own/bathroom/137_bat.jpg,,,,,,,,,0,32,32,535,273.137635125,,,,,,,,,,,273.422196417,273.588379583,273.588379583,273.588379583,273.588379583,273.588379583,273.588379583,273.588379583,273.588379583,273.588379583,278.061461125,-7,7,1,3.0,4.263943458000028,1.0,2.436073207999982,273.128132375,273.137635125,273.588379583,273.422177083,,,,,,,,273.124118125,273.128077375,None,,,,,,,,,,,209,bathroom,2,2024-03-22_12h26.00.837,image_similarity_rating,2023.2.3,None,2024-03-22 12h27.07.079342 +0100,
,106,136,184,184,stimuli/own/bathroom/106_bat.jpg,stimuli/own/bathroom/136_bat.jpg,,,,,,,,,0,33,33,183,278.070960875,,,,,,,,,,,278.355678292,278.519909875,278.519909875,278.519909875,278.519909875,278.519909875,278.519909875,278.519909875,278.519909875,278.519909875,283.141530667,-7,7,1,3.0,4.59938329199997,1.0,2.86085891700003,278.06519125,278.070960875,278.519909875,278.355665083,,,,,,,,278.061686625,278.065143917,None,,,,,,,,,,,209,bathroom,2,2024-03-22_12h26.00.837,image_similarity_rating,2023.2.3,None,2024-03-22 12h27.07.079342 +0100,
,123,132,467,467,stimuli/own/bathroom/123_bat.jpg,stimuli/own/bathroom/132_bat.jpg,,,,,,,,,0,34,34,466,283.154069708,,,,,,,,,,,283.43897954199997,283.602641792,283.602641792,283.602641792,283.602641792,283.602641792,283.602641792,283.602641792,283.602641792,283.602641792,289.038265083,-7,7,1,4.0,5.540693834000024,2.0,4.440955332999977,283.145296333,283.154069708,283.602641792,283.438966458,,,,,,,,283.141757208,283.145248417,None,,,,,,,,,,,209,bathroom,2,2024-03-22_12h26.00.837,image_similarity_rating,2023.2.3,None,2024-03-22 12h27.07.079342 +0100,
,103,106,70,70,stimuli/own/bathroom/103_bat.jpg,stimuli/own/bathroom/106_bat.jpg,,,,,,,,,0,35,35,69,289.044776208,,,,,,,,,,,289.338063167,289.491175417,289.491175417,289.491175417,289.491175417,289.491175417,289.491175417,289.491175417,289.491175417,289.491175417,293.69889125,-7,7,1,4.0,4.127847791000022,2.0,2.3196844579999834,289.042631875,289.044776208,289.491175417,289.338051167,,,,,,,,289.038522167,289.042574708,None,,,,,,,,,,,209,bathroom,2,2024-03-22_12h26.00.837,image_similarity_rating,2023.2.3,None,2024-03-22 12h27.07.079342 +0100,
,129,132,532,532,stimuli/own/bathroom/129_bat.jpg,stimuli/own/bathroom/132_bat.jpg,,,,,,,,,0,36,36,531,293.705513167,,,,,,,,,,,293.99159099999997,294.14302166699997,294.14302166699997,294.14302166699997,294.14302166699997,294.14302166699997,294.14302166699997,294.14302166699997,294.14302166699997,294.14302166699997,299.83697475,7,-7,1,5.0,5.5708234169999855,5.0,2.9480974580000066,293.703266833,293.705513167,294.14302166699997,293.991586792,,,,,,,,293.69914475,293.70320854199997,None,,,,,,,,,,,209,bathroom,2,2024-03-22_12h26.00.837,image_similarity_rating,2023.2.3,None,2024-03-22 12h27.07.079342 +0100,
,132,134,560,560,stimuli/own/bathroom/132_bat.jpg,stimuli/own/bathroom/134_bat.jpg,,,,,,,,,0,37,37,559,299.842699958,,,,,,,,,,,300.126265708,300.292885042,300.292885042,300.292885042,300.292885042,300.292885042,300.292885042,300.292885042,300.292885042,300.292885042,305.456912375,-7,7,1,6.0,4.499262875000056,6.0,4.964153666999948,299.840933125,299.842699958,300.292885042,300.126253167,,,,,,,,299.837200458,299.840881083,None,,,,,,,,,,,209,bathroom,2,2024-03-22_12h26.00.837,image_similarity_rating,2023.2.3,None,2024-03-22 12h27.07.079342 +0100,
,114,139,317,317,stimuli/own/bathroom/114_bat.jpg,stimuli/own/bathroom/139_bat.jpg,,,,,,,,,0,38,38,316,305.462790958,,,,,,,,,,,305.75540791699996,305.926497583,305.926497583,305.926497583,305.926497583,305.926497583,305.926497583,305.926497583,305.926497583,305.926497583,314.13172399999996,-7,7,1,6.0,7.144068957999934,6.0,8.068817999999965,305.46085195800003,305.462790958,305.926497583,305.755391542,,,,,,,,305.45714695799995,305.460803542,None,,,,,,,,,,,209,bathroom,2,2024-03-22_12h26.00.837,image_similarity_rating,2023.2.3,None,2024-03-22 12h27.07.079342 +0100,
,118,122,368,368,stimuli/own/bathroom/118_bat.jpg,stimuli/own/bathroom/122_bat.jpg,,,,,,,,,0,39,39,367,314.13740333299995,,,,,,,,,,,314.42215566699997,314.58906287499997,314.58906287499997,314.58906287499997,314.58906287499997,314.58906287499997,314.58906287499997,314.58906287499997,314.58906287499997,314.58906287499997,318.983174458,-7,7,1,5.0,4.447443582999995,2.0,2.3128753750000897,314.13554083300005,314.13740333299995,314.58906287499997,314.42213779199994,,,,,,,,314.13194866699996,314.135493625,None,,,,,,,,,,,209,bathroom,2,2024-03-22_12h26.00.837,image_similarity_rating,2023.2.3,None,2024-03-22 12h27.07.079342 +0100,
,119,130,395,395,stimuli/own/bathroom/119_bat.jpg,stimuli/own/bathroom/130_bat.jpg,,,,,,,,,0,40,40,394,318.98908495800003,,,,,,,,,,,319.27214741700004,319.43909462500005,319.43909462500005,319.43909462500005,319.43909462500005,319.43909462500005,319.43909462500005,319.43909462500005,319.43909462500005,319.43909462500005,323.350016792,-7,7,1,4.0,3.9514004579999664,1.0,2.9901773750000302,318.98703516700004,318.98908495800003,319.43909462500005,319.272132125,,,,,,,,318.98339875,318.986987292,None,,,,,,,,,,,209,bathroom,2,2024-03-22_12h26.00.837,image_similarity_rating,2023.2.3,None,2024-03-22 12h27.07.079342 +0100,
,116,119,322,322,stimuli/own/bathroom/116_bat.jpg,stimuli/own/bathroom/119_bat.jpg,,,,,,,,,0,41,41,321,323.355784417,,,,,,,,,,,323.641998083,323.80469170799995,323.80469170799995,323.80469170799995,323.80469170799995,323.80469170799995,323.80469170799995,323.80469170799995,323.80469170799995,323.80469170799995,326.474016042,-7,7,1,4.0,2.7516512079999984,1.0,1.3684392500000513,323.35389262499996,323.355784417,323.80469170799995,323.641987792,,,,,,,,323.35024991700004,323.35384587500005,None,,,,,,,,,,,209,bathroom,2,2024-03-22_12h26.00.837,image_similarity_rating,2023.2.3,None,2024-03-22 12h27.07.079342 +0100,
,104,127,118,118,stimuli/own/bathroom/104_bat.jpg,stimuli/own/bathroom/127_bat.jpg,,,,,,,,,0,42,42,117,326.47966029199995,,,,,,,,,,,326.77192541700003,326.93805162499996,326.93805162499996,326.93805162499996,326.93805162499996,326.93805162499996,326.93805162499996,326.93805162499996,326.93805162499996,326.93805162499996,332.827859667,7,-7,1,5.0,5.899595624999961,2.0,4.9534973749999835,326.477701,326.47966029199995,326.93805162499996,326.771912583,,,,,,,,326.474238375,326.477653542,None,,,,,,,,,,,209,bathroom,2,2024-03-22_12h26.00.837,image_similarity_rating,2023.2.3,None,2024-03-22 12h27.07.079342 +0100,
,116,126,329,329,stimuli/own/bathroom/116_bat.jpg,stimuli/own/bathroom/126_bat.jpg,,,,,,,,,0,43,43,328,332.83736287500005,,,,,,,,,,,333.12177895800005,333.28559099999995,333.28559099999995,333.28559099999995,333.28559099999995,333.28559099999995,333.28559099999995,333.28559099999995,333.28559099999995,333.28559099999995,336.47733074999996,-7,7,1,4.0,2.7582367080000267,1.0,1.98359979199995,332.83151429199995,332.83736287500005,333.28559099999995,333.12176616700003,,,,,,,,332.82808850000004,332.831467125,None,,,,,,,,,,,209,bathroom,2,2024-03-22_12h26.00.837,image_similarity_rating,2023.2.3,None,2024-03-22 12h27.07.079342 +0100,
,122,141,459,459,stimuli/own/bathroom/122_bat.jpg,stimuli/own/bathroom/141_bat.jpg,,,,,,,,,0,44,44,458,336.487310333,,,,,,,,,,,336.77190258300004,336.93694570800005,336.93694570800005,336.93694570800005,336.93694570800005,336.93694570800005,336.93694570800005,336.93694570800005,336.93694570800005,336.93694570800005,342.827592125,7,-7,1,4.0,5.764864999999986,1.0,2.2701090420000583,336.48113225,336.487310333,336.93694570800005,336.771888,,,,,,,,336.477555125,336.48108487499996,None,,,,,,,,,,,209,bathroom,2,2024-03-22_12h26.00.837,image_similarity_rating,2023.2.3,None,2024-03-22 12h27.07.079342 +0100,
,114,125,305,305,stimuli/own/bathroom/114_bat.jpg,stimuli/own/bathroom/125_bat.jpg,,,,,,,,,0,45,45,304,342.837397042,,,,,,,,,,,343.12174816699996,343.28630062499997,343.28630062499997,343.28630062499997,343.28630062499997,343.28630062499997,343.28630062499997,343.28630062499997,343.28630062499997,343.28630062499997,352.29129612500003,-7,7,1,3.0,9.057698374999973,1.0,8.092955833000019,342.83126200000004,342.837397042,343.28630062499997,343.12173537499996,,,,,,,,342.82781820800005,342.8312145,None,,,,,,,,,,,209,bathroom,2,2024-03-22_12h26.00.837,image_similarity_rating,2023.2.3,None,2024-03-22 12h27.07.079342 +0100,
,121,127,430,430,stimuli/own/bathroom/121_bat.jpg,stimuli/own/bathroom/127_bat.jpg,,,,,,,,,0,46,46,429,352.303889625,,,,,,,,,,,352.58913795800004,352.75413849999995,352.75413849999995,352.75413849999995,352.75413849999995,352.75413849999995,352.75413849999995,352.75413849999995,352.75413849999995,352.75413849999995,356.274931875,7,-7,1,4.0,3.604200874999947,2.0,2.698248790999969,352.295167625,352.303889625,352.75413849999995,352.589124417,,,,,,,,352.291532083,352.29511845800005,None,,,,,,,,,,,209,bathroom,2,2024-03-22_12h26.00.837,image_similarity_rating,2023.2.3,None,2024-03-22 12h27.07.079342 +0100,
,122,136,454,454,stimuli/own/bathroom/122_bat.jpg,stimuli/own/bathroom/136_bat.jpg,,,,,,,,,0,47,47,453,356.287236917,,,,,,,,,,,356.572693875,356.738297,356.738297,356.738297,356.738297,356.738297,356.738297,356.738297,356.738297,356.738297,360.60250829200004,7,-7,1,6.0,2.119994125000062,4.0,3.7782768330000636,356.27862341699995,356.287236917,356.738297,356.572680375,,,,,,,,356.27515237499995,356.2785675,None,,,,,,,,,,,209,bathroom,2,2024-03-22_12h26.00.837,image_similarity_rating,2023.2.3,None,2024-03-22 12h27.07.079342 +0100,
,120,125,410,410,stimuli/own/bathroom/120_bat.jpg,stimuli/own/bathroom/125_bat.jpg,,,,,,,,,0,48,48,409,360.608150333,,,,,,,,,,,360.89161408300004,361.05431683300003,361.05431683300003,361.05431683300003,361.05431683300003,361.05431683300003,361.05431683300003,361.05431683300003,361.05431683300003,361.05431683300003,368.915156542,7,-7,1,6.0,7.882137707999959,4.0,7.0060472500000515,360.60621525,360.608150333,361.05431683300003,360.89160433300003,,,,,,,,360.60273637499995,360.60616816699996,None,,,,,,,,,,,209,bathroom,2,2024-03-22_12h26.00.837,image_similarity_rating,2023.2.3,None,2024-03-22 12h27.07.079342 +0100,
,111,120,225,225,stimuli/own/bathroom/111_bat.jpg,stimuli/own/bathroom/120_bat.jpg,,,,,,,,,0,49,49,224,368.93736924999996,,,,,,,,,,,369.22167308300004,369.3879965,369.3879965,369.3879965,369.3879965,369.3879965,369.3879965,369.3879965,369.3879965,369.3879965,374.372792958,-7,7,1,6.0,2.449988208000036,5.0,4.974584249999907,368.91881683300005,368.93736924999996,,369.221654458,,,,,,,,368.91538370800004,368.918770042,None,,,,,,,,,,,209,bathroom,2,2024-03-22_12h26.00.837,image_similarity_rating,2023.2.3,None,2024-03-22 12h27.07.079342 +0100,
,124,127,478,478,stimuli/own/bathroom/124_bat.jpg,stimuli/own/bathroom/127_bat.jpg,,,,,,,,,0,50,50,477,374.378396083,,,,,,,,,,,374.671701,374.83896949999996,374.83896949999996,374.83896949999996,374.83896949999996,374.83896949999996,374.83896949999996,374.83896949999996,374.83896949999996,374.83896949999996,381.63614229200005,7,-7,1,6.0,6.8963288339999735,2.0,5.963407332999964,374.376465583,374.378396083,374.83896949999996,374.67168245799996,,,,,,,,374.373015708,374.37641841699997,None,,,,,,,,,,,209,bathroom,2,2024-03-22_12h26.00.837,image_similarity_rating,2023.2.3,None,2024-03-22 12h27.07.079342 +0100,
,104,118,109,109,stimuli/own/bathroom/104_bat.jpg,stimuli/own/bathroom/118_bat.jpg,,,,,,,,,0,51,51,108,381.64177025000004,,,,,,,,,,,381.925205958,382.08894895799995,382.08894895799995,382.08894895799995,382.08894895799995,382.08894895799995,382.08894895799995,382.08894895799995,382.08894895799995,382.08894895799995,386.956499625,7,-7,1,6.0,3.942125791999956,3.0,4.844955291000019,381.639829375,381.64177025000004,382.08894895799995,381.92519616699997,,,,,,,,381.636365417,381.639781708,None,,,,,,,,,,,209,bathroom,2,2024-03-22_12h26.00.837,image_similarity_rating,2023.2.3,None,2024-03-22 12h27.07.079342 +0100,
,119,136,400,400,stimuli/own/bathroom/119_bat.jpg,stimuli/own/bathroom/136_bat.jpg,,,,,,,,,0,52,52,399,386.96221349999996,,,,,,,,,,,387.25501625000004,387.42188891700005,387.42188891700005,387.42188891700005,387.42188891700005,387.42188891700005,387.42188891700005,387.42188891700005,387.42188891700005,387.42188891700005,391.556095292,7,-7,1,5.0,4.170485999999983,2.0,3.2690094580000277,386.96029216700003,386.96221349999996,387.42188891700005,387.254997583,,,,,,,,386.956729333,386.960244333,None,,,,,,,,,,,209,bathroom,2,2024-03-22_12h26.00.837,image_similarity_rating,2023.2.3,None,2024-03-22 12h27.07.079342 +0100,
,111,125,230,230,stimuli/own/bathroom/111_bat.jpg,stimuli/own/bathroom/125_bat.jpg,,,,,,,,,0,53,53,229,391.56164912500003,,,,,,,,,,,391.855110375,392.0187525,392.0187525,392.0187525,392.0187525,392.0187525,392.0187525,392.0187525,392.0187525,392.0187525,398.51503025,-7,7,1,5.0,5.293256541999995,4.0,6.461442124999962,391.559836333,391.56164912500003,392.0187525,391.855097375,,,,,,,,391.55631800000003,391.55978912499995,None,,,,,,,,,,,209,bathroom,2,2024-03-22_12h26.00.837,image_similarity_rating,2023.2.3,None,2024-03-22 12h27.07.079342 +0100,
,106,141,189,189,stimuli/own/bathroom/106_bat.jpg,stimuli/own/bathroom/141_bat.jpg,,,,,,,,,0,54,54,188,398.53702016700004,,,,,,,,,,,398.82110150000005,398.986050708,398.986050708,398.986050708,398.986050708,398.986050708,398.986050708,398.986050708,398.986050708,398.986050708,406.90689129199995,7,-7,1,5.0,7.366107917000022,4.0,6.485300583000026,398.51869758299995,398.53702016700004,,398.82107054200003,,,,,,,,398.515256875,398.51864845800003,None,,,,,,,,,,,209,bathroom,2,2024-03-22_12h26.00.837,image_similarity_rating,2023.2.3,None,2024-03-22 12h27.07.079342 +0100,
,102,134,60,60,stimuli/own/bathroom/102_bat.jpg,stimuli/own/bathroom/134_bat.jpg,,,,,,,,,0,55,55,59,406.91284874999997,,,,,,,,,,,407.2057035,407.371564208,407.371564208,407.371564208,407.371564208,407.371564208,407.371564208,407.371564208,407.371564208,407.371564208,414.785787875,7,-7,1,6.0,6.559071958000004,6.0,7.32838295800002,406.91075958299996,406.91284874999997,407.371564208,407.205689333,,,,,,,,406.90712020800004,406.91071229199997,None,,,,,,,,,,,209,bathroom,2,2024-03-22_12h26.00.837,image_similarity_rating,2023.2.3,None,2024-03-22 12h27.07.079342 +0100,
,127,135,523,523,stimuli/own/bathroom/127_bat.jpg,stimuli/own/bathroom/135_bat.jpg,,,,,,,,,0,56,56,522,414.791538792,,,,,,,,,,,415.08835216700004,415.25302054199994,415.25302054199994,415.25302054199994,415.25302054199994,415.25302054199994,415.25302054199994,415.25302054199994,415.25302054199994,415.25302054199994,421.80267233300003,7,-7,1,5.0,6.027534500000002,3.0,5.047681750000038,414.789614208,414.791538792,415.25302054199994,415.088333167,,,,,,,,414.78603975,414.78956379199997,None,,,,,,,,,,,209,bathroom,2,2024-03-22_12h26.00.837,image_similarity_rating,2023.2.3,None,2024-03-22 12h27.07.079342 +0100,
,113,126,282,282,stimuli/own/bathroom/113_bat.jpg,stimuli/own/bathroom/126_bat.jpg,,,,,,,,,0,57,57,281,421.808442583,,,,,,,,,,,422.093189125,422.256436292,422.256436292,422.256436292,422.256436292,422.256436292,422.256436292,422.256436292,422.256436292,422.256436292,428.311584542,-7,7,1,4.0,6.001446999999985,5.0,3.9004824590000453,421.806372333,421.808442583,422.256436292,422.09317899999996,,,,,,,,421.802895833,421.80632470800003,None,,,,,,,,,,,209,bathroom,2,2024-03-22_12h26.00.837,image_similarity_rating,2023.2.3,None,2024-03-22 12h27.07.079342 +0100,
,112,125,256,256,stimuli/own/bathroom/112_bat.jpg,stimuli/own/bathroom/125_bat.jpg,,,,,,,,,0,58,58,255,428.32015083299996,,,,,,,,,,,428.60503058300003,428.768959042,428.768959042,428.768959042,428.768959042,428.768959042,428.768959042,428.768959042,428.768959042,428.768959042,434.089852208,7,-7,1,6.0,4.485474625000052,6.0,5.192158375000076,428.31529012500005,428.32015083299996,428.768959042,428.60502066699996,,,,,,,,428.311809917,428.31524245799994,None,,,,,,,,,,,209,bathroom,2,2024-03-22_12h26.00.837,image_similarity_rating,2023.2.3,None,2024-03-22 12h27.07.079342 +0100,
,106,113,164,164,stimuli/own/bathroom/106_bat.jpg,stimuli/own/bathroom/113_bat.jpg,,,,,,,,,0,59,59,163,434.10346512499996,,,,,,,,,,,434.388966042,434.55792491700004,434.55792491700004,434.55792491700004,434.55792491700004,434.55792491700004,434.55792491700004,434.55792491700004,434.55792491700004,434.55792491700004,439.51498370800005,7,-7,1,3.0,5.005100041999981,2.0,3.3214402910000445,434.093656,434.10346512499996,434.55792491700004,434.38894970800004,,,,,,,,434.09009441700005,434.093606917,None,,,,,,,,,,,209,bathroom,2,2024-03-22_12h26.00.837,image_similarity_rating,2023.2.3,None,2024-03-22 12h27.07.079342 +0100,
,121,140,441,441,stimuli/own/bathroom/121_bat.jpg,stimuli/own/bathroom/140_bat.jpg,,,,,,,,,0,60,60,440,439.5368665,,,,,,,,,,,439.82081925,439.98506925000004,439.98506925000004,439.98506925000004,439.98506925000004,439.98506925000004,439.98506925000004,439.98506925000004,439.98506925000004,439.98506925000004,448.581144333,7,-7,1,2.0,8.592111041999942,1.0,6.113864042000046,439.51875941699996,439.5368665,,439.820809167,,,,,,,,439.51520945799996,439.518712542,None,,,,,,,,,,,209,bathroom,2,2024-03-22_12h26.00.837,image_similarity_rating,2023.2.3,None,2024-03-22 12h27.07.079342 +0100,
,124,131,481,481,stimuli/own/bathroom/124_bat.jpg,stimuli/own/bathroom/131_bat.jpg,,,,,,,,,0,61,61,480,448.586657542,,,,,,,,,,,448.871613917,449.03687883299995,449.03687883299995,449.03687883299995,449.03687883299995,449.03687883299995,449.03687883299995,449.03687883299995,449.03687883299995,449.03687883299995,455.32443391699996,7,-7,1,5.0,6.022094207999999,5.0,4.721605167000007,448.58482079199996,448.586657542,449.03687883299995,448.87160225,,,,,,,,448.581368625,448.58477437500005,None,,,,,,,,,,,209,bathroom,2,2024-03-22_12h26.00.837,image_similarity_rating,2023.2.3,None,2024-03-22 12h27.07.079342 +0100,
,114,137,315,315,stimuli/own/bathroom/114_bat.jpg,stimuli/own/bathroom/137_bat.jpg,,,,,,,,,0,62,62,314,455.336747458,,,,,,,,,,,455.621496792,455.790200958,455.790200958,455.790200958,455.790200958,455.790200958,455.790200958,455.790200958,455.790200958,455.790200958,460.28546700000004,-7,7,1,5.0,4.320316999999932,2.0,3.2178793330000417,455.3281535,455.336747458,455.790200958,455.621480917,,,,,,,,455.32465812500004,455.328105917,None,,,,,,,,,,,209,bathroom,2,2024-03-22_12h26.00.837,image_similarity_rating,2023.2.3,None,2024-03-22 12h27.07.079342 +0100,
,118,140,384,384,stimuli/own/bathroom/118_bat.jpg,stimuli/own/bathroom/140_bat.jpg,,,,,,,,,0,63,63,383,460.29117833299995,,,,,,,,,,,461.371302208,461.541230583,461.541230583,461.541230583,461.541230583,461.541230583,461.541230583,461.541230583,461.541230583,461.541230583,465.669128417,7,-7,2,4.0,4.129661709000061,1.0,2.5983379589999913,461.080782958,461.08674762500004,461.541230583,461.371282208,,,,,,,,460.28569770800004,461.079132125,space,460.29117833299995,0.7877394160000222,None,,,,,,,,209,bathroom,2,2024-03-22_12h26.00.837,image_similarity_rating,2023.2.3,None,2024-03-22 12h27.07.079342 +0100,
,136,139,583,602,stimuli/own/bathroom/136_bat.jpg,stimuli/own/bathroom/139_bat.jpg,,,,,,,,,0,64,64,601,465.675344708,,,,,,,,,,,465.958708667,466.12320858299995,466.12320858299995,466.12320858299995,466.12320858299995,466.12320858299995,466.12320858299995,466.12320858299995,466.12320858299995,466.12320858299995,475.022976333,7,-7,2,4.0,8.771380541999974,5.0,7.1278564590001,465.67335379199994,465.675344708,466.12320858299995,465.95869225,,,,,,,,465.66934987499997,465.673305917,None,,,,,,,,,,,209,bathroom,2,2024-03-22_12h26.00.837,image_similarity_rating,2023.2.3,None,2024-03-22 12h27.07.079342 +0100,
,127,141,529,529,stimuli/own/bathroom/127_bat.jpg,stimuli/own/bathroom/141_bat.jpg,,,,,,,,,0,65,65,528,475.03667741699996,,,,,,,,,,,475.321307583,475.486898958,475.486898958,475.486898958,475.486898958,475.486898958,475.486898958,475.486898958,475.486898958,475.486898958,481.714942792,7,-7,2,5.0,5.912165624999943,4.0,5.004456082999923,475.026974417,475.03667741699996,475.486898958,475.321294125,,,,,,,,475.02321812499997,475.02692312500005,None,,,,,,,,,,,209,bathroom,2,2024-03-22_12h26.00.837,image_similarity_rating,2023.2.3,None,2024-03-22 12h27.07.079342 +0100,
,119,138,402,402,stimuli/own/bathroom/119_bat.jpg,stimuli/own/bathroom/138_bat.jpg,,,,,,,,,0,66,66,401,481.73662070800003,,,,,,,,,,,482.02078129200004,482.185630208,482.185630208,482.185630208,482.185630208,482.185630208,482.185630208,482.185630208,482.185630208,482.185630208,502.388967708,-7,7,2,6.0,20.31316183399997,6.0,17.72184625,481.71861875,481.73662070800003,,482.020768083,,,,,,,,481.71516637499997,481.71857179200003,None,,,,,,,,,,,209,bathroom,2,2024-03-22_12h26.00.837,image_similarity_rating,2023.2.3,None,2024-03-22 12h27.07.079342 +0100,
,113,122,278,278,stimuli/own/bathroom/113_bat.jpg,stimuli/own/bathroom/122_bat.jpg,,,,,,,,,0,67,67,277,502.39469504199997,,,,,,,,,,,502.68787733299996,502.856056083,502.856056083,502.856056083,502.856056083,502.856056083,502.856056083,502.856056083,502.856056083,502.856056083,512.209713708,7,-7,2,5.0,6.284716666999998,5.0,9.179111291000027,502.392748,502.39469504199997,502.856056083,502.687860583,,,,,,,,502.389192458,502.39270112500003,None,,,,,,,,,,,209,bathroom,2,2024-03-22_12h26.00.837,image_similarity_rating,2023.2.3,None,2024-03-22 12h27.07.079342 +0100,
,127,137,525,525,stimuli/own/bathroom/127_bat.jpg,stimuli/own/bathroom/137_bat.jpg,,,,,,,,,0,68,68,524,512.220178875,,,,,,,,,,,512.504433625,512.6718912919999,512.6718912919999,512.6718912919999,512.6718912919999,512.6718912919999,512.6718912919999,512.6718912919999,512.6718912919999,512.6718912919999,516.838876292,7,-7,2,4.0,4.164338624999914,2.0,3.170628416999989,512.213376792,512.220178875,512.6718912919999,512.504417375,,,,,,,,512.209940458,512.213330167,None,,,,,,,,,,,209,bathroom,2,2024-03-22_12h26.00.837,image_similarity_rating,2023.2.3,None,2024-03-22 12h27.07.079342 +0100,
,122,123,443,443,stimuli/own/bathroom/122_bat.jpg,stimuli/own/bathroom/123_bat.jpg,,,,,,,,,0,69,69,442,516.844452708,,,,,,,,,,,517.137702333,517.3061528329999,517.3061528329999,517.3061528329999,517.3061528329999,517.3061528329999,517.3061528329999,517.3061528329999,517.3061528329999,517.3061528329999,523.407424375,-7,7,2,5.0,6.201204333999954,3.0,4.861360250000075,516.8425398749999,516.844452708,517.3061528329999,517.137686875,,,,,,,,516.839097208,516.842492625,None,,,,,,,,,,,209,bathroom,2,2024-03-22_12h26.00.837,image_similarity_rating,2023.2.3,None,2024-03-22 12h27.07.079342 +0100,
,101,130,24,24,stimuli/own/bathroom/101_bat.jpg,stimuli/own/bathroom/130_bat.jpg,,,,,,,,,0,70,70,23,523.419847625,,,,,,,,,,,523.704481125,523.876109,523.876109,523.876109,523.876109,523.876109,523.876109,523.876109,523.876109,523.876109,531.201818792,-7,7,2,4.0,6.8320999999999685,4.0,5.816314333000037,523.411086792,523.419847625,523.876109,523.704465333,,,,,,,,523.407646792,523.411039875,None,,,,,,,,,,,209,bathroom,2,2024-03-22_12h26.00.837,image_similarity_rating,2023.2.3,None,2024-03-22 12h27.07.079342 +0100,
,127,129,518,518,stimuli/own/bathroom/127_bat.jpg,stimuli/own/bathroom/129_bat.jpg,,,,,,,,,0,71,71,517,531.20740725,,,,,,,,,,,531.491709875,531.6567975,531.6567975,531.6567975,531.6567975,531.6567975,531.6567975,531.6567975,531.6567975,531.6567975,535.027128833,7,-7,2,6.0,2.678101917000049,6.0,3.382598499999972,531.2056285,531.20740725,531.6567975,531.491698083,,,,,,,,531.202049667,531.205581042,None,,,,,,,,,,,209,bathroom,2,2024-03-22_12h26.00.837,image_similarity_rating,2023.2.3,None,2024-03-22 12h27.07.079342 +0100,
,122,127,447,447,stimuli/own/bathroom/122_bat.jpg,stimuli/own/bathroom/127_bat.jpg,,,,,,,,,0,72,72,446,535.036190542,,,,,,,,,,,535.320813875,535.486324333,535.486324333,535.486324333,535.486324333,535.486324333,535.486324333,535.486324333,535.486324333,535.486324333,542.83573375,-7,7,2,5.0,7.4199758330000805,6.0,5.906734707999931,535.030781458,535.036190542,535.486324333,535.320800792,,,,,,,,535.02734875,535.030734708,None,,,,,,,,,,,209,bathroom,2,2024-03-22_12h26.00.837,image_similarity_rating,2023.2.3,None,2024-03-22 12h27.07.079342 +0100,
,103,113,74,74,stimuli/own/bathroom/103_bat.jpg,stimuli/own/bathroom/113_bat.jpg,,,,,,,,,0,73,73,73,542.841806042,,,,,,,,,,,543.125414917,543.294055542,543.294055542,543.294055542,543.294055542,543.294055542,543.294055542,543.294055542,543.294055542,543.294055542,551.280657917,7,-7,2,5.0,6.355750833999991,6.0,7.787972083,542.839547333,542.841806042,543.294055542,543.125399292,,,,,,,,542.83595325,542.839500125,None,,,,,,,,,,,209,bathroom,2,2024-03-22_12h26.00.837,image_similarity_rating,2023.2.3,None,2024-03-22 12h27.07.079342 +0100,
,103,135,93,93,stimuli/own/bathroom/103_bat.jpg,stimuli/own/bathroom/135_bat.jpg,,,,,,,,,0,74,74,92,551.28617575,,,,,,,,,,,551.570925667,551.74077325,551.74077325,551.74077325,551.74077325,551.74077325,551.74077325,551.74077325,551.74077325,551.74077325,557.476632458,7,-7,2,5.0,5.774396249999995,5.0,3.696589124999946,551.284320792,551.28617575,551.74077325,551.570901125,,,,,,,,551.280882542,551.284274292,None,,,,,,,,,,,209,bathroom,2,2024-03-22_12h26.00.837,image_similarity_rating,2023.2.3,None,2024-03-22 12h27.07.079342 +0100,
,114,126,306,306,stimuli/own/bathroom/114_bat.jpg,stimuli/own/bathroom/126_bat.jpg,,,,,,,,,0,75,75,305,557.486758333,,,,,,,,,,,557.7709075,557.939676167,557.939676167,557.939676167,557.939676167,557.939676167,557.939676167,557.939676167,557.939676167,557.939676167,560.435667042,-7,7,2,6.0,1.9074810409999827,6.0,2.3968653750000612,557.480398583,557.486758333,557.939676167,557.770892,,,,,,,,557.476853917,557.480351208,None,,,,,,,,,,,209,bathroom,2,2024-03-22_12h26.00.837,image_similarity_rating,2023.2.3,None,2024-03-22 12h27.07.079342 +0100,
,105,138,157,157,stimuli/own/bathroom/105_bat.jpg,stimuli/own/bathroom/138_bat.jpg,,,,,,,,,0,76,76,156,560.44125025,,,,,,,,,,,560.724446333,560.887175292,560.887175292,560.887175292,560.887175292,560.887175292,560.887175292,560.887175292,560.887175292,560.887175292,571.363888625,7,-7,2,6.0,8.57524950000004,6.0,10.400878624999905,560.439433417,560.44125025,560.887175292,560.724432542,,,,,,,,560.435887667,560.439385875,None,,,,,,,,,,,209,bathroom,2,2024-03-22_12h26.00.837,image_similarity_rating,2023.2.3,None,2024-03-22 12h27.07.079342 +0100,
,130,141,550,550,stimuli/own/bathroom/130_bat.jpg,stimuli/own/bathroom/141_bat.jpg,,,,,,,,,0,77,77,549,571.369718417,,,,,,,,,,,571.654314917,571.826094083,571.826094083,571.826094083,571.826094083,571.826094083,571.826094083,571.826094083,571.826094083,571.826094083,575.4021665,7,-7,2,5.0,3.701378417000001,4.0,2.930447749999985,571.367555417,571.369718417,571.826094083,571.654297792,,,,,,,,571.3641105,571.367509333,None,,,,,,,,,,,209,bathroom,2,2024-03-22_12h26.00.837,image_similarity_rating,2023.2.3,None,2024-03-22 12h27.07.079342 +0100,
,112,131,261,261,stimuli/own/bathroom/112_bat.jpg,stimuli/own/bathroom/131_bat.jpg,,,,,,,,,0,78,78,260,575.408042208,,,,,,,,,,,575.704203542,575.8685935,575.8685935,575.8685935,575.8685935,575.8685935,575.8685935,575.8685935,575.8685935,575.8685935,582.451552875,-7,7,2,2.0,6.593692959000009,3.0,3.1709308749999536,575.405964375,575.408042208,575.8685935,575.704191042,,,,,,,,575.402387083,575.405917583,None,,,,,,,,,,,209,bathroom,2,2024-03-22_12h26.00.837,image_similarity_rating,2023.2.3,None,2024-03-22 12h27.07.079342 +0100,
,135,139,578,578,stimuli/own/bathroom/135_bat.jpg,stimuli/own/bathroom/139_bat.jpg,,,,,,,,,0,79,79,577,582.457065792,,,,,,,,,,,582.741189458,582.905938625,582.905938625,582.905938625,582.905938625,582.905938625,582.905938625,582.905938625,582.905938625,582.905938625,591.877059667,7,-7,2,4.0,9.093954666000059,2.0,7.882492625000054,582.455291125,582.457065792,582.905938625,582.741176333,,,,,,,,582.451783,582.455241625,None,,,,,,,,,,,209,bathroom,2,2024-03-22_12h26.00.837,image_similarity_rating,2023.2.3,None,2024-03-22 12h27.07.079342 +0100,
,129,134,533,533,stimuli/own/bathroom/129_bat.jpg,stimuli/own/bathroom/134_bat.jpg,,,,,,,,,0,80,80,532,591.886206708,,,,,,,,,,,592.170716792,592.335979875,592.335979875,592.335979875,592.335979875,592.335979875,592.335979875,592.335979875,592.335979875,592.335979875,596.318299208,-7,7,2,6.0,3.432130834000077,6.0,3.995320500000048,591.880717708,591.886206708,592.335979875,592.17070175,,,,,,,,591.877280208,591.88067025,None,,,,,,,,,,,209,bathroom,2,2024-03-22_12h26.00.837,image_similarity_rating,2023.2.3,None,2024-03-22 12h27.07.079342 +0100,
,117,136,359,359,stimuli/own/bathroom/117_bat.jpg,stimuli/own/bathroom/136_bat.jpg,,,,,,,,,0,81,81,358,596.323798167,,,,,,,,,,,596.60809875,596.772640958,596.772640958,596.772640958,596.772640958,596.772640958,596.772640958,596.772640958,596.772640958,596.772640958,605.484701042,-7,7,2,6.0,8.032848791999982,6.0,8.69952879099992,596.321987667,596.323798167,596.772640958,596.608084375,,,,,,,,596.318543292,596.32194125,None,,,,,,,,,,,209,bathroom,2,2024-03-22_12h26.00.837,image_similarity_rating,2023.2.3,None,2024-03-22 12h27.07.079342 +0100,
,114,121,301,301,stimuli/own/bathroom/114_bat.jpg,stimuli/own/bathroom/121_bat.jpg,,,,,,,,,0,82,82,300,605.49064925,,,,,,,,,,,605.7749645,605.940956208,605.940956208,605.940956208,605.940956208,605.940956208,605.940956208,605.940956208,605.940956208,605.940956208,611.25707375,-7,7,2,5.0,5.350844959000028,3.0,4.684816040999976,605.4885504169999,605.49064925,605.940956208,605.774951833,,,,,,,,605.484921167,605.488503542,None,,,,,,,,,,,209,bathroom,2,2024-03-22_12h26.00.837,image_similarity_rating,2023.2.3,None,2024-03-22 12h27.07.079342 +0100,
,106,109,161,161,stimuli/own/bathroom/106_bat.jpg,stimuli/own/bathroom/109_bat.jpg,,,,,,,,,0,83,83,160,611.269274083,,,,,,,,,,,611.554538708,611.718616917,611.718616917,611.718616917,611.718616917,611.718616917,611.718616917,611.718616917,611.718616917,611.718616917,619.201744125,-7,7,2,5.0,7.41671324999993,4.0,5.835116290999963,611.2607815,611.269274083,611.718616917,611.554526083,,,,,,,,611.257305208,611.260734625,None,,,,,,,,,,,209,bathroom,2,2024-03-22_12h26.00.837,image_similarity_rating,2023.2.3,None,2024-03-22 12h27.07.079342 +0100,
,109,112,191,191,stimuli/own/bathroom/109_bat.jpg,stimuli/own/bathroom/112_bat.jpg,,,,,,,,,0,84,84,190,619.20739775,,,,,,,,,,,619.504903333,619.671433667,619.671433667,619.671433667,619.671433667,619.671433667,619.671433667,619.671433667,619.671433667,619.671433667,626.12245325,-7,7,2,5.0,6.413396250000005,2.0,4.318504167000015,619.205445375,619.20739775,619.671433667,619.504888708,,,,,,,,619.201969542,619.205398833,None,,,,,,,,,,,209,bathroom,2,2024-03-22_12h26.00.837,image_similarity_rating,2023.2.3,None,2024-03-22 12h27.07.079342 +0100,
,101,124,19,19,stimuli/own/bathroom/101_bat.jpg,stimuli/own/bathroom/124_bat.jpg,,,,,,,,,0,85,85,18,626.127892833,,,,,,,,,,,626.421181708,626.585047333,626.585047333,626.585047333,626.585047333,626.585047333,626.585047333,626.585047333,626.585047333,626.585047333,634.51395775,7,-7,2,5.0,7.9508197919999475,3.0,4.982520750000049,626.12611375,626.127892833,626.585047333,626.421169167,,,,,,,,626.122674625,626.126067375,None,,,,,,,,,,,209,bathroom,2,2024-03-22_12h26.00.837,image_similarity_rating,2023.2.3,None,2024-03-22 12h27.07.079342 +0100,
,109,126,204,204,stimuli/own/bathroom/109_bat.jpg,stimuli/own/bathroom/126_bat.jpg,,,,,,,,,0,86,86,203,634.536332958,,,,,,,,,,,634.820039458,634.985722,634.985722,634.985722,634.985722,634.985722,634.985722,634.985722,634.985722,634.985722,639.397292083,-7,7,2,4.0,4.098630625000055,2.0,2.771062999999913,634.517739,634.536332958,,634.820021708,,,,,,,,634.514179083,634.5176925,None,,,,,,,,,,,209,bathroom,2,2024-03-22_12h26.00.837,image_similarity_rating,2023.2.3,None,2024-03-22 12h27.07.079342 +0100,
,102,126,54,54,stimuli/own/bathroom/102_bat.jpg,stimuli/own/bathroom/126_bat.jpg,,,,,,,,,0,87,87,53,639.419243417,,,,,,,,,,,639.703639583,639.868486917,639.868486917,639.868486917,639.868486917,639.868486917,639.868486917,639.868486917,639.868486917,639.868486917,643.701288667,7,-7,2,5.0,3.203920333000042,6.0,3.6822294170000305,639.400948708,639.419243417,,639.703618083,,,,,,,,639.3975144999999,639.400901292,None,,,,,,,,,,,209,bathroom,2,2024-03-22_12h26.00.837,image_similarity_rating,2023.2.3,None,2024-03-22 12h27.07.079342 +0100,
,112,137,266,266,stimuli/own/bathroom/112_bat.jpg,stimuli/own/bathroom/137_bat.jpg,,,,,,,,,0,88,88,265,643.7070132919999,,,,,,,,,,,643.991480917,644.1625885,644.1625885,644.1625885,644.1625885,644.1625885,644.1625885,644.1625885,644.1625885,644.1625885,649.039929833,-7,7,2,3.0,4.922143792000043,2.0,3.0708523330000617,643.705083875,643.7070132919999,644.1625885,643.99146525,,,,,,,,643.701513833,643.7050365,None,,,,,,,,,,,209,bathroom,2,2024-03-22_12h26.00.837,image_similarity_rating,2023.2.3,None,2024-03-22 12h27.07.079342 +0100,
,106,130,179,179,stimuli/own/bathroom/106_bat.jpg,stimuli/own/bathroom/130_bat.jpg,,,,,,,,,0,89,89,178,649.052539667,,,,,,,,,,,649.337923208,649.503225167,649.503225167,649.503225167,649.503225167,649.503225167,649.503225167,649.503225167,649.503225167,649.503225167,653.752212167,7,-7,2,3.0,4.295462083999951,1.0,1.9814734999999928,649.043795292,649.052539667,649.503225167,649.337907083,,,,,,,,649.040163167,649.043745875,None,,,,,,,,,,,209,bathroom,2,2024-03-22_12h26.00.837,image_similarity_rating,2023.2.3,None,2024-03-22 12h27.07.079342 +0100,
,118,126,372,372,stimuli/own/bathroom/118_bat.jpg,stimuli/own/bathroom/126_bat.jpg,,,,,,,,,0,90,90,371,653.758054,,,,,,,,,,,654.042365042,654.205216875,654.205216875,654.205216875,654.205216875,654.205216875,654.205216875,654.205216875,654.205216875,654.205216875,656.964617833,7,-7,2,3.0,2.75456691699992,1.0,1.638154084000007,653.755921625,653.758054,654.205216875,654.042354833,,,,,,,,653.752431125,653.755874542,None,,,,,,,,,,,209,bathroom,2,2024-03-22_12h26.00.837,image_similarity_rating,2023.2.3,None,2024-03-22 12h27.07.079342 +0100,
,103,130,89,89,stimuli/own/bathroom/103_bat.jpg,stimuli/own/bathroom/130_bat.jpg,,,,,,,,,0,91,91,88,656.970475125,,,,,,,,,,,657.25447025,657.420723375,657.420723375,657.420723375,657.420723375,657.420723375,657.420723375,657.420723375,657.420723375,657.420723375,665.318305333,-7,7,2,5.0,7.895704000000023,4.0,7.0188886659999525,656.968437875,656.970475125,657.420723375,657.254455958,,,,,,,,656.964840917,656.968391083,None,,,,,,,,,,,209,bathroom,2,2024-03-22_12h26.00.837,image_similarity_rating,2023.2.3,None,2024-03-22 12h27.07.079342 +0100,
,105,119,140,140,stimuli/own/bathroom/105_bat.jpg,stimuli/own/bathroom/119_bat.jpg,,,,,,,,,0,92,92,139,665.324224417,,,,,,,,,,,665.609220708,665.77411525,665.77411525,665.77411525,665.77411525,665.77411525,665.77411525,665.77411525,665.77411525,665.77411525,674.034691625,-7,7,2,6.0,8.319204332999902,6.0,6.949433083000031,665.322122833,665.324224417,665.77411525,665.609208625,,,,,,,,665.318526875,665.322075542,None,,,,,,,,,,,209,bathroom,2,2024-03-22_12h26.00.837,image_similarity_rating,2023.2.3,None,2024-03-22 12h27.07.079342 +0100,
,104,140,129,129,stimuli/own/bathroom/104_bat.jpg,stimuli/own/bathroom/140_bat.jpg,,,,,,,,,0,93,93,128,674.040362125,,,,,,,,,,,674.3239613329999,674.486749083,674.486749083,674.486749083,674.486749083,674.486749083,674.486749083,674.486749083,674.486749083,674.486749083,679.796794417,7,-7,2,5.0,5.369127166999988,4.0,4.198611624999899,674.03842775,674.040362125,674.486749083,674.323951292,,,,,,,,674.034939208,674.03838075,None,,,,,,,,,,,209,bathroom,2,2024-03-22_12h26.00.837,image_similarity_rating,2023.2.3,None,2024-03-22 12h27.07.079342 +0100,
,122,130,449,449,stimuli/own/bathroom/122_bat.jpg,stimuli/own/bathroom/130_bat.jpg,,,,,,,,,0,94,94,448,679.802274583,,,,,,,,,,,680.087691292,680.251942333,680.251942333,680.251942333,680.251942333,680.251942333,680.251942333,680.251942333,680.251942333,680.251942333,689.647542792,-7,7,2,4.0,9.452502750000008,5.0,8.64612195799998,679.800445417,679.802274583,680.251942333,680.087679375,,,,,,,,679.797014458,679.800398583,None,,,,,,,,,,,209,bathroom,2,2024-03-22_12h26.00.837,image_similarity_rating,2023.2.3,None,2024-03-22 12h27.07.079342 +0100,
,117,122,347,347,stimuli/own/bathroom/117_bat.jpg,stimuli/own/bathroom/122_bat.jpg,,,,,,,,,0,95,95,346,689.654231333,,,,,,,,,,,689.937806042,690.103191667,690.103191667,690.103191667,690.103191667,690.103191667,690.103191667,690.103191667,690.103191667,690.103191667,694.763777417,7,-7,2,5.0,3.7833405840000296,5.0,4.598252541000079,689.65121275,689.654231333,690.103191667,689.937793708,,,,,,,,689.647762417,689.65116425,None,,,,,,,,,,,209,bathroom,2,2024-03-22_12h26.00.837,image_similarity_rating,2023.2.3,None,2024-03-22 12h27.07.079342 +0100,
,105,117,138,599,stimuli/own/bathroom/105_bat.jpg,stimuli/own/bathroom/117_bat.jpg,,,,,,,,,0,96,96,598,694.785968375,,,,,,,,,,,695.069893167,695.237536833,695.237536833,695.237536833,695.237536833,695.237536833,695.237536833,695.237536833,695.237536833,695.237536833,701.451183917,7,-7,2,4.0,6.33688774999996,5.0,4.776581041999975,694.767539375,694.785968375,,695.069873375,,,,,,,,694.764,694.76749275,None,,,,,,,,,,,209,bathroom,2,2024-03-22_12h26.00.837,image_similarity_rating,2023.2.3,None,2024-03-22 12h27.07.079342 +0100,
,130,138,547,547,stimuli/own/bathroom/130_bat.jpg,stimuli/own/bathroom/138_bat.jpg,,,,,,,,,0,97,97,546,701.45683975,,,,,,,,,,,701.7408945,701.906308792,701.906308792,701.906308792,701.906308792,701.906308792,701.906308792,701.906308792,701.906308792,701.906308792,707.171478625,-7,7,2,4.0,5.186836333999963,2.0,4.327046791000043,701.454890667,701.45683975,701.906308792,701.740876667,,,,,,,,701.451425292,701.454843875,None,,,,,,,,,,,209,bathroom,2,2024-03-22_12h26.00.837,image_similarity_rating,2023.2.3,None,2024-03-22 12h27.07.079342 +0100,
,136,137,581,581,stimuli/own/bathroom/136_bat.jpg,stimuli/own/bathroom/137_bat.jpg,,,,,,,,,0,98,98,580,707.177434292,,,,,,,,,,,707.470378083,707.635203167,707.635203167,707.635203167,707.635203167,707.635203167,707.635203167,707.635203167,707.635203167,707.635203167,714.2677320829999,-7,7,2,3.0,6.598188667000045,2.0,4.034507832999907,707.175320292,707.177434292,707.635203167,707.470363125,,,,,,,,707.171701333,707.175273292,None,,,,,,,,,,,209,bathroom,2,2024-03-22_12h26.00.837,image_similarity_rating,2023.2.3,None,2024-03-22 12h27.07.079342 +0100,
,102,139,65,65,stimuli/own/bathroom/102_bat.jpg,stimuli/own/bathroom/139_bat.jpg,,,,,,,,,0,99,99,64,714.273460542,,,,,,,,,,,714.556820333,714.719542833,714.719542833,714.719542833,714.719542833,714.719542833,714.719542833,714.719542833,714.719542833,714.719542833,718.64166275,-7,7,2,6.0,3.2100477079999337,6.0,3.9481040419999545,714.271468292,714.273460542,714.719542833,714.556810042,,,,,,,,714.267972292,714.2714187079999,None,,,,,,,,,,,209,bathroom,2,2024-03-22_12h26.00.837,image_similarity_rating,2023.2.3,None,2024-03-22 12h27.07.079342 +0100,
,102,119,47,47,stimuli/own/bathroom/102_bat.jpg,stimuli/own/bathroom/119_bat.jpg,,,,,,,,,0,100,100,46,718.652220125,,,,,,,,,,,718.936719125,719.101579,719.101579,719.101579,719.101579,719.101579,719.101579,719.101579,719.101579,719.101579,728.043610708,-7,7,2,4.0,8.530585249999945,2.0,7.258161500000028,718.645331167,718.652220125,719.101579,718.936706833,,,,,,,,718.64188475,718.64528425,None,,,,,,,,,,,209,bathroom,2,2024-03-22_12h26.00.837,image_similarity_rating,2023.2.3,None,2024-03-22 12h27.07.079342 +0100,
,111,121,226,226,stimuli/own/bathroom/111_bat.jpg,stimuli/own/bathroom/121_bat.jpg,,,,,,,,,0,101,101,225,728.051927292,,,,,,,,,,,728.337411083,728.501852292,728.501852292,728.501852292,728.501852292,728.501852292,728.501852292,728.501852292,728.501852292,728.501852292,743.175605667,-7,7,2,4.0,14.759913207999944,2.0,13.856163375000051,728.047622542,728.051927292,728.501852292,728.33739825,,,,,,,,728.043834792,728.047572792,None,,,,,,,,,,,209,bathroom,2,2024-03-22_12h26.00.837,image_similarity_rating,2023.2.3,None,2024-03-22 12h27.07.079342 +0100,
,101,119,14,14,stimuli/own/bathroom/101_bat.jpg,stimuli/own/bathroom/119_bat.jpg,,,,,,,,,0,102,102,13,743.185625667,,,,,,,,,,,743.470110542,743.637993708,743.637993708,743.637993708,743.637993708,743.637993708,743.637993708,743.637993708,743.637993708,743.637993708,751.47964875,7,-7,2,4.0,7.892393290999962,1.0,6.156775750000065,743.179501875,743.185625667,743.637993708,743.470096542,,,,,,,,743.175827958,743.1794525829999,None,,,,,,,,,,,209,bathroom,2,2024-03-22_12h26.00.837,image_similarity_rating,2023.2.3,None,2024-03-22 12h27.07.079342 +0100,
,119,126,392,392,stimuli/own/bathroom/119_bat.jpg,stimuli/own/bathroom/126_bat.jpg,,,,,,,,,0,103,103,391,751.485553,,,,,,,,,,,751.770096167,751.935230125,751.935230125,751.935230125,751.935230125,751.935230125,751.935230125,751.935230125,751.935230125,751.935230125,761.384311542,7,-7,2,6.0,7.831882625000048,1.0,8.698837499999968,751.48332975,751.485553,751.935230125,751.770083417,,,,,,,,751.479871708,751.483283125,None,,,,,,,,,,,209,bathroom,2,2024-03-22_12h26.00.837,image_similarity_rating,2023.2.3,None,2024-03-22 12h27.07.079342 +0100,
,112,140,269,269,stimuli/own/bathroom/112_bat.jpg,stimuli/own/bathroom/140_bat.jpg,,,,,,,,,0,104,104,268,761.3899599169999,,,,,,,,,,,761.6740475,761.839462167,761.839462167,761.839462167,761.839462167,761.839462167,761.839462167,761.839462167,761.839462167,761.839462167,769.858874542,-7,7,2,5.0,7.121644999999944,5.0,7.981392792000065,761.388041083,761.3899599169999,761.839462167,761.674035042,,,,,,,,761.3845645,761.387992125,None,,,,,,,,,,,209,bathroom,2,2024-03-22_12h26.00.837,image_similarity_rating,2023.2.3,None,2024-03-22 12h27.07.079342 +0100,
,105,117,138,598,stimuli/own/bathroom/105_bat.jpg,stimuli/own/bathroom/117_bat.jpg,,,,,,,,,0,105,105,597,769.868931667,,,,,,,,,,,770.153634958,770.325898208,770.325898208,770.325898208,770.325898208,770.325898208,770.325898208,770.325898208,770.325898208,770.325898208,786.4630842079999,7,-7,2,5.0,16.077303957999902,3.0,13.50717450000002,769.862522292,769.868931667,770.325898208,770.153614042,,,,,,,,769.859097292,769.862476125,None,,,,,,,,,,,209,bathroom,2,2024-03-22_12h26.00.837,image_similarity_rating,2023.2.3,None,2024-03-22 12h27.07.079342 +0100,
,120,141,424,424,stimuli/own/bathroom/120_bat.jpg,stimuli/own/bathroom/141_bat.jpg,,,,,,,,,0,106,106,423,786.468703292,,,,,,,,,,,786.754235542,786.918257375,786.918257375,786.918257375,786.918257375,786.918257375,786.918257375,786.918257375,786.918257375,786.918257375,794.087695875,-7,7,2,5.0,7.152635707999934,3.0,5.392412041999933,786.466753583,786.468703292,786.918257375,786.754218042,,,,,,,,786.463307542,786.466707458,None,,,,,,,,,,,209,bathroom,2,2024-03-22_12h26.00.837,image_similarity_rating,2023.2.3,None,2024-03-22 12h27.07.079342 +0100,
,112,124,255,255,stimuli/own/bathroom/112_bat.jpg,stimuli/own/bathroom/124_bat.jpg,,,,,,,,,0,107,107,254,794.093302333,,,,,,,,,,,794.387156167,794.552689625,794.552689625,794.552689625,794.552689625,794.552689625,794.552689625,794.552689625,794.552689625,794.552689625,805.312892333,7,-7,2,6.0,7.058350625000003,5.0,10.611640374999979,794.091356875,794.093302333,794.552689625,794.387138458,,,,,,,,794.087919708,794.091309708,None,,,,,,,,,,,209,bathroom,2,2024-03-22_12h26.00.837,image_similarity_rating,2023.2.3,None,2024-03-22 12h27.07.079342 +0100,
,121,139,440,440,stimuli/own/bathroom/121_bat.jpg,stimuli/own/bathroom/139_bat.jpg,,,,,,,,,0,108,108,439,805.318416292,,,,,,,,,,,805.603260667,805.768481208,805.768481208,805.768481208,805.768481208,805.768481208,805.768481208,805.768481208,805.768481208,805.768481208,816.800508208,7,-7,2,6.0,8.21154033300013,4.0,10.983184583000025,805.316538542,805.318416292,805.768481208,805.603243792,,,,,,,,805.313119,805.316492042,None,,,,,,,,,,,209,bathroom,2,2024-03-22_12h26.00.837,image_similarity_rating,2023.2.3,None,2024-03-22 12h27.07.079342 +0100,
,134,136,569,569,stimuli/own/bathroom/134_bat.jpg,stimuli/own/bathroom/136_bat.jpg,,,,,,,,,0,109,109,568,816.806233958,,,,,,,,,,,817.090952417,817.259750417,817.259750417,817.259750417,817.259750417,817.259750417,817.259750417,817.259750417,817.259750417,817.259750417,820.9210394999999,7,-7,2,7.0,2.877884541999947,7.0,3.5882120829999167,816.804311875,816.806233958,817.259750417,817.090936958,,,,,,,,816.8007390419999,816.8042657919999,None,,,,,,,,,,,209,bathroom,2,2024-03-22_12h26.00.837,image_similarity_rating,2023.2.3,None,2024-03-22 12h27.07.079342 +0100,
,113,140,294,294,stimuli/own/bathroom/113_bat.jpg,stimuli/own/bathroom/140_bat.jpg,,,,,,,,,0,110,110,293,820.926623125,,,,,,,,,,,821.2197467079999,821.3902320000001,821.3902320000001,821.3902320000001,821.3902320000001,821.3902320000001,821.3902320000001,821.3902320000001,821.3902320000001,821.3902320000001,826.2086223749999,7,-7,2,6.0,4.781403290999833,7.0,3.1076513329999216,820.924690875,820.926623125,821.3902320000001,821.2197313749999,,,,,,,,820.9212590830001,820.9246409169999,None,,,,,,,,,,,209,bathroom,2,2024-03-22_12h26.00.837,image_similarity_rating,2023.2.3,None,2024-03-22 12h27.07.079342 +0100,
,124,134,483,483,stimuli/own/bathroom/124_bat.jpg,stimuli/own/bathroom/134_bat.jpg,,,,,,,,,0,111,111,482,826.2184422920001,,,,,,,,,,,826.5030935000001,826.6685148329999,826.6685148329999,826.6685148329999,826.6685148329999,826.6685148329999,826.6685148329999,826.6685148329999,826.6685148329999,826.6685148329999,834.3543573329999,-7,7,2,6.0,7.734538500000099,7.0,7.012891124999896,826.2122866670001,826.2184422920001,826.6685148329999,826.503078458,,,,,,,,826.2088453749999,826.2122399579999,None,,,,,,,,,,,209,bathroom,2,2024-03-22_12h26.00.837,image_similarity_rating,2023.2.3,None,2024-03-22 12h27.07.079342 +0100,
,125,140,503,503,stimuli/own/bathroom/125_bat.jpg,stimuli/own/bathroom/140_bat.jpg,,,,,,,,,0,112,112,502,834.3598121670001,,,,,,,,,,,834.653801417,834.820520417,834.820520417,834.820520417,834.820520417,834.820520417,834.820520417,834.820520417,834.820520417,834.820520417,841.034301,-7,7,2,6.0,6.19929004200003,4.0,3.647462292,834.3580242500001,834.3598121670001,834.820520417,834.653786875,,,,,,,,834.3545788749999,834.3579772080001,None,,,,,,,,,,,209,bathroom,2,2024-03-22_12h26.00.837,image_similarity_rating,2023.2.3,None,2024-03-22 12h27.07.079342 +0100,
,112,135,264,264,stimuli/own/bathroom/112_bat.jpg,stimuli/own/bathroom/135_bat.jpg,,,,,,,,,0,113,113,263,841.039981125,,,,,,,,,,,841.3236595,841.488500417,841.488500417,841.488500417,841.488500417,841.488500417,841.488500417,841.488500417,841.488500417,841.488500417,846.82084875,7,-7,2,6.0,5.2807180419999895,4.0,3.528283583000075,841.038213125,841.039981125,841.488500417,841.323646792,,,,,,,,841.034521792,841.038163583,None,,,,,,,,,,,209,bathroom,2,2024-03-22_12h26.00.837,image_similarity_rating,2023.2.3,None,2024-03-22 12h27.07.079342 +0100,
,102,138,64,64,stimuli/own/bathroom/102_bat.jpg,stimuli/own/bathroom/138_bat.jpg,,,,,,,,,0,114,114,63,846.8265255,,,,,,,,,,,847.120226292,847.2859124580001,847.2859124580001,847.2859124580001,847.2859124580001,847.2859124580001,847.2859124580001,847.2859124580001,847.2859124580001,847.2859124580001,855.846451167,-7,7,2,6.0,8.63292379099994,6.0,3.505246540999906,846.824596458,846.8265255,847.2859124580001,847.120206708,,,,,,,,846.8210725,846.824549542,None,,,,,,,,,,,209,bathroom,2,2024-03-22_12h26.00.837,image_similarity_rating,2023.2.3,None,2024-03-22 12h27.07.079342 +0100,
,104,135,124,124,stimuli/own/bathroom/104_bat.jpg,stimuli/own/bathroom/135_bat.jpg,,,,,,,,,0,115,115,123,855.8687242919999,,,,,,,,,,,856.15242925,856.3187443329999,856.3187443329999,856.3187443329999,856.3187443329999,856.3187443329999,856.3187443329999,856.3187443329999,856.3187443329999,856.3187443329999,861.104061208,-7,7,2,6.0,4.707496665999997,5.0,3.3287687079998705,855.8500923329999,855.8687242919999,,856.1523942919999,,,,,,,,855.846671833,855.850045583,None,,,,,,,,,,,209,bathroom,2,2024-03-22_12h26.00.837,image_similarity_rating,2023.2.3,None,2024-03-22 12h27.07.079342 +0100,
,104,112,104,104,stimuli/own/bathroom/104_bat.jpg,stimuli/own/bathroom/112_bat.jpg,,,,,,,,,0,116,116,103,861.109484083,,,,,,,,,,,861.403044708,861.5715663750001,861.5715663750001,861.5715663750001,861.5715663750001,861.5715663750001,861.5715663750001,861.5715663750001,861.5715663750001,861.5715663750001,867.8297979170001,7,-7,2,5.0,6.294348040999921,4.0,5.441866749999917,861.1077180420001,861.109484083,861.5715663750001,861.4030254170001,,,,,,,,861.1042834579999,861.1076712079999,None,,,,,,,,,,,209,bathroom,2,2024-03-22_12h26.00.837,image_similarity_rating,2023.2.3,None,2024-03-22 12h27.07.079342 +0100,
,123,134,468,468,stimuli/own/bathroom/123_bat.jpg,stimuli/own/bathroom/134_bat.jpg,,,,,,,,,0,117,117,467,867.851747667,,,,,,,,,,,868.1357402919999,868.303072583,868.303072583,868.303072583,868.303072583,868.303072583,868.303072583,868.303072583,868.303072583,868.303072583,874.2672416669999,-7,7,2,5.0,5.866306416999805,2.0,4.263260540999909,867.833546167,867.851747667,,868.1357187919999,,,,,,,,867.830019917,867.833499167,None,,,,,,,,,,,209,bathroom,2,2024-03-22_12h26.00.837,image_similarity_rating,2023.2.3,None,2024-03-22 12h27.07.079342 +0100,
,131,137,555,555,stimuli/own/bathroom/131_bat.jpg,stimuli/own/bathroom/137_bat.jpg,,,,,,,,,0,118,118,554,874.2727196669999,,,,,,,,,,,874.5577178750001,874.721997833,874.721997833,874.721997833,874.721997833,874.721997833,874.721997833,874.721997833,874.721997833,874.721997833,889.0883944579999,-7,7,2,3.0,11.184026042000141,3.0,14.292140250000102,874.27095875,874.2727196669999,874.721997833,874.557707667,,,,,,,,874.267484375,874.2709120420001,None,,,,,,,,,,,209,bathroom,2,2024-03-22_12h26.00.837,image_similarity_rating,2023.2.3,None,2024-03-22 12h27.07.079342 +0100,
,131,139,557,557,stimuli/own/bathroom/131_bat.jpg,stimuli/own/bathroom/139_bat.jpg,,,,,,,,,0,119,119,556,889.0942596670001,,,,,,,,,,,889.386285833,889.557372958,889.557372958,889.557372958,889.557372958,889.557372958,889.557372958,889.557372958,889.557372958,889.557372958,901.5206213749999,-7,7,2,6.0,11.933093000000099,5.0,7.252939250000054,889.092166583,889.0942596670001,889.557372958,889.3862694170001,,,,,,,,889.0886181249999,889.0921192080001,None,,,,,,,,,,,209,bathroom,2,2024-03-22_12h26.00.837,image_similarity_rating,2023.2.3,None,2024-03-22 12h27.07.079342 +0100,
,126,140,516,516,stimuli/own/bathroom/126_bat.jpg,stimuli/own/bathroom/140_bat.jpg,,,,,,,,,0,120,120,515,901.526183458,,,,,,,,,,,901.82037,901.9862590829999,901.9862590829999,901.9862590829999,901.9862590829999,901.9862590829999,901.9862590829999,901.9862590829999,901.9862590829999,901.9862590829999,912.6421732499999,7,-7,2,5.0,9.988181499999882,6.0,10.618231540999886,901.52426675,901.526183458,901.9862590829999,901.8203556249999,,,,,,,,901.5208414580001,901.52422025,None,,,,,,,,,,,209,bathroom,2,2024-03-22_12h26.00.837,image_similarity_rating,2023.2.3,None,2024-03-22 12h27.07.079342 +0100,
,129,140,539,539,stimuli/own/bathroom/129_bat.jpg,stimuli/own/bathroom/140_bat.jpg,,,,,,,,,0,121,121,538,912.651402583,,,,,,,,,,,912.9359176669999,913.1024019170001,913.1024019170001,913.1024019170001,913.1024019170001,913.1024019170001,913.1024019170001,913.1024019170001,913.1024019170001,913.1024019170001,917.3422245830001,7,-7,2,6.0,3.027503582999998,6.0,4.125417125000013,912.6458225,912.651402583,913.1024019170001,912.9358946250001,,,,,,,,912.642395708,912.6457759169999,None,,,,,,,,,,,209,bathroom,2,2024-03-22_12h26.00.837,image_similarity_rating,2023.2.3,None,2024-03-22 12h27.07.079342 +0100,
,120,124,409,409,stimuli/own/bathroom/120_bat.jpg,stimuli/own/bathroom/124_bat.jpg,,,,,,,,,0,122,122,408,917.351603917,,,,,,,,,,,917.6361674999999,917.8043488750001,917.8043488750001,917.8043488750001,917.8043488750001,917.8043488750001,917.8043488750001,917.8043488750001,917.8043488750001,917.8043488750001,937.570533708,7,-7,2,6.0,18.343338041999914,6.0,19.742543582999815,917.345881375,917.351603917,917.8043488750001,917.6361505829999,,,,,,,,917.3424444999999,917.3458347919999,None,,,,,,,,,,,209,bathroom,2,2024-03-22_12h26.00.837,image_similarity_rating,2023.2.3,None,2024-03-22 12h27.07.079342 +0100,
,109,125,203,203,stimuli/own/bathroom/109_bat.jpg,stimuli/own/bathroom/125_bat.jpg,,,,,,,,,0,123,123,202,937.5761463330001,,,,,,,,,,,937.8691324170001,938.0337271249999,938.0337271249999,938.0337271249999,938.0337271249999,938.0337271249999,938.0337271249999,938.0337271249999,938.0337271249999,938.0337271249999,946.1206100420001,7,-7,2,4.0,7.97545591700009,2.0,7.159729540999933,937.5742120829999,937.5761463330001,938.0337271249999,937.869120083,,,,,,,,937.570755583,937.5741657079999,None,,,,,,,,,,,209,bathroom,2,2024-03-22_12h26.00.837,image_similarity_rating,2023.2.3,None,2024-03-22 12h27.07.079342 +0100,
,105,117,138,138,stimuli/own/bathroom/105_bat.jpg,stimuli/own/bathroom/117_bat.jpg,,,,,,,,,0,124,124,137,946.126117125,,,,,,,,,,,946.419915625,946.5853356250001,946.5853356250001,946.5853356250001,946.5853356250001,946.5853356250001,946.5853356250001,946.5853356250001,946.5853356250001,946.5853356250001,951.0592601669999,-7,7,2,4.0,4.502263707999873,2.0,3.6141351250000753,946.1242909169999,946.126117125,946.5853356250001,946.4199024999999,,,,,,,,946.1208350830001,946.124244708,None,,,,,,,,,,,209,bathroom,2,2024-03-22_12h26.00.837,image_similarity_rating,2023.2.3,None,2024-03-22 12h27.07.079342 +0100,
,121,137,438,438,stimuli/own/bathroom/121_bat.jpg,stimuli/own/bathroom/137_bat.jpg,,,,,,,,,0,125,125,437,951.067978208,,,,,,,,,,,951.352794042,951.5175209580001,951.5175209580001,951.5175209580001,951.5175209580001,951.5175209580001,951.5175209580001,951.5175209580001,951.5175209580001,951.5175209580001,957.667672958,-7,7,2,5.0,6.161246417000029,5.0,5.032619708000084,951.0628989999999,951.067978208,951.5175209580001,951.3527807500001,,,,,,,,951.0594788330001,951.0628524580001,None,,,,,,,,,,,209,bathroom,2,2024-03-22_12h26.00.837,image_similarity_rating,2023.2.3,None,2024-03-22 12h27.07.079342 +0100,
,109,129,206,206,stimuli/own/bathroom/109_bat.jpg,stimuli/own/bathroom/129_bat.jpg,,,,,,,,,0,126,126,205,957.6736347499999,,,,,,,,,,,959.102667792,959.2759609579999,959.2759609579999,959.2759609579999,959.2759609579999,959.2759609579999,959.2759609579999,959.2759609579999,959.2759609579999,959.2759609579999,968.0623863750001,7,-7,3,4.0,8.736824957999943,2.0,2.7601710409999214,958.805837083,958.809737958,959.2759609579999,959.102651542,,,,,,,,957.6678915419999,958.805155208,space,957.6736347499999,1.131267624999964,None,,,,,,,,209,bathroom,2,2024-03-22_12h26.00.837,image_similarity_rating,2023.2.3,None,2024-03-22 12h27.07.079342 +0100,
,102,136,62,62,stimuli/own/bathroom/102_bat.jpg,stimuli/own/bathroom/136_bat.jpg,,,,,,,,,0,127,127,61,968.0847950829999,,,,,,,,,,,968.368697083,968.5336552079999,968.5336552079999,968.5336552079999,968.5336552079999,968.5336552079999,968.5336552079999,968.5336552079999,968.5336552079999,968.5336552079999,972.889173167,-7,7,3,5.0,3.170593166000117,4.0,4.419582375000118,968.066575208,968.0847950829999,,968.3686785000001,,,,,,,,968.0626081250001,968.066527375,None,,,,,,,,,,,209,bathroom,2,2024-03-22_12h26.00.837,image_similarity_rating,2023.2.3,None,2024-03-22 12h27.07.079342 +0100,
,112,132,262,609,stimuli/own/bathroom/112_bat.jpg,stimuli/own/bathroom/132_bat.jpg,,,,,,,,,0,128,128,608,972.901359625,,,,,,,,,,,973.185828625,973.3520959169999,973.3520959169999,973.3520959169999,973.3520959169999,973.3520959169999,973.3520959169999,973.3520959169999,973.3520959169999,973.3520959169999,978.941424,-7,7,3,6.0,5.076120415999867,5.0,4.28106025000011,972.892799292,972.901359625,973.3520959169999,973.185813792,,,,,,,,972.8893899579999,972.8927528329999,None,,,,,,,,,,,209,bathroom,2,2024-03-22_12h26.00.837,image_similarity_rating,2023.2.3,None,2024-03-22 12h27.07.079342 +0100,
,137,139,587,587,stimuli/own/bathroom/137_bat.jpg,stimuli/own/bathroom/139_bat.jpg,,,,,,,,,0,129,129,586,978.9513415,,,,,,,,,,,979.236137042,979.4014384999999,979.4014384999999,979.4014384999999,979.4014384999999,979.4014384999999,979.4014384999999,979.4014384999999,979.4014384999999,979.4014384999999,990.0169298330001,-7,7,3,6.0,2.8366891670000314,3.0,9.780428332999918,978.9450984169999,978.9513415,979.4014384999999,979.236124125,,,,,,,,978.9416567919999,978.9450484170001,None,,,,,,,,,,,209,bathroom,2,2024-03-22_12h26.00.837,image_similarity_rating,2023.2.3,None,2024-03-22 12h27.07.079342 +0100,
,114,134,312,312,stimuli/own/bathroom/114_bat.jpg,stimuli/own/bathroom/134_bat.jpg,,,,,,,,,0,130,130,311,990.0225556250001,,,,,,,,,,,990.3062235829999,990.4685445419999,990.4685445419999,990.4685445419999,990.4685445419999,990.4685445419999,990.4685445419999,990.4685445419999,990.4685445419999,990.4685445419999,995.704578667,7,-7,3,5.0,5.205578584000023,6.0,2.2063203339998836,990.02061975,990.0225556250001,990.4685445419999,990.3062135419999,,,,,,,,990.0171584579999,990.0205728330001,None,,,,,,,,,,,209,bathroom,2,2024-03-22_12h26.00.837,image_similarity_rating,2023.2.3,None,2024-03-22 12h27.07.079342 +0100,
,105,127,148,148,stimuli/own/bathroom/105_bat.jpg,stimuli/own/bathroom/127_bat.jpg,,,,,,,,,0,131,131,147,995.7103557500001,,,,,,,,,,,996.002320125,996.1664769170001,996.1664769170001,996.1664769170001,996.1664769170001,996.1664769170001,996.1664769170001,996.1664769170001,996.1664769170001,996.1664769170001,1000.683416875,-7,7,3,5.0,4.524906083000133,2.0,3.186023374999877,995.7082824170001,995.7103557500001,996.1664769170001,996.00230725,,,,,,,,995.704802417,995.708236417,None,,,,,,,,,,,209,bathroom,2,2024-03-22_12h26.00.837,image_similarity_rating,2023.2.3,None,2024-03-22 12h27.07.079342 +0100,
,113,117,273,273,stimuli/own/bathroom/113_bat.jpg,stimuli/own/bathroom/117_bat.jpg,,,,,,,,,0,132,132,272,1000.6891832919999,,,,,,,,,,,1000.973265167,1001.140034875,1001.140034875,1001.140034875,1001.140034875,1001.140034875,1001.140034875,1001.140034875,1001.140034875,1001.140034875,1015.754613208,-7,7,3,5.0,13.614491457999975,4.0,11.833518959000003,1000.687249833,1000.6891832919999,1001.140034875,1000.9732511670001,,,,,,,,1000.6836547500001,1000.6872029580001,None,,,,,,,,,,,209,bathroom,2,2024-03-22_12h26.00.837,image_similarity_rating,2023.2.3,None,2024-03-22 12h27.07.079342 +0100,
,101,127,22,22,stimuli/own/bathroom/101_bat.jpg,stimuli/own/bathroom/127_bat.jpg,,,,,,,,,0,133,133,21,1015.7676649169999,,,,,,,,,,,1016.052769708,1016.216717333,1016.216717333,1016.216717333,1016.216717333,1016.216717333,1016.216717333,1016.216717333,1016.216717333,1016.216717333,1043.4367629580001,7,-7,3,4.0,25.006296915999883,6.0,26.070596499999965,1015.7584814999999,1015.7676649169999,1016.216717333,1016.052756958,,,,,,,,1015.7548490830001,1015.7584331669999,None,,,,,,,,,,,209,bathroom,2,2024-03-22_12h26.00.837,image_similarity_rating,2023.2.3,None,2024-03-22 12h27.07.079342 +0100,
,104,113,105,105,stimuli/own/bathroom/104_bat.jpg,stimuli/own/bathroom/113_bat.jpg,,,,,,,,,0,134,134,104,1043.44264725,,,,,,,,,,,1043.7355805829998,1043.9011152500002,1043.9011152500002,1043.9011152500002,1043.9011152500002,1043.9011152500002,1043.9011152500002,1043.9011152500002,1043.9011152500002,1043.9011152500002,1051.3208665000002,7,-7,3,5.0,3.90199887499989,3.0,6.893224749999945,1043.440704917,1043.44264725,1043.9011152500002,1043.7355657080002,,,,,,,,1043.4369872920001,1043.440655667,None,,,,,,,,,,,209,bathroom,2,2024-03-22_12h26.00.837,image_similarity_rating,2023.2.3,None,2024-03-22 12h27.07.079342 +0100,
,118,120,366,366,stimuli/own/bathroom/118_bat.jpg,stimuli/own/bathroom/120_bat.jpg,,,,,,,,,0,135,135,365,1051.326613833,,,,,,,,,,,1051.618912,1051.782562625,1051.782562625,1051.782562625,1051.782562625,1051.782562625,1051.782562625,1051.782562625,1051.782562625,1051.782562625,1058.100519917,-7,7,3,4.0,6.398290625000072,1.0,4.057706791999863,1051.324675333,1051.326613833,1051.782562625,1051.6188955419998,,,,,,,,1051.3210896249998,1051.324621542,None,,,,,,,,,,,209,bathroom,2,2024-03-22_12h26.00.837,image_similarity_rating,2023.2.3,None,2024-03-22 12h27.07.079342 +0100,
,113,119,275,275,stimuli/own/bathroom/113_bat.jpg,stimuli/own/bathroom/119_bat.jpg,,,,,,,,,0,136,136,274,1058.106110667,,,,,,,,,,,1058.3895913329998,1058.5555491250002,1058.5555491250002,1058.5555491250002,1058.5555491250002,1058.5555491250002,1058.5555491250002,1058.5555491250002,1058.5555491250002,1058.5555491250002,1062.5910952079998,-7,7,3,4.0,3.721844791999956,1.0,2.1045484159999432,1058.1041756670002,1058.106110667,1058.5555491250002,1058.389578625,,,,,,,,1058.1007373329999,1058.1041288749998,None,,,,,,,,,,,209,bathroom,2,2024-03-22_12h26.00.837,image_similarity_rating,2023.2.3,None,2024-03-22 12h27.07.079342 +0100,
,117,137,360,360,stimuli/own/bathroom/117_bat.jpg,stimuli/own/bathroom/137_bat.jpg,,,,,,,,,0,137,137,359,1062.6010043749998,,,,,,,,,,,1062.885501542,1063.0535705000002,1063.0535705000002,1063.0535705000002,1063.0535705000002,1063.0535705000002,1063.0535705000002,1063.0535705000002,1063.0535705000002,1063.0535705000002,1076.9834664999998,-7,7,3,2.0,13.478638666999814,1.0,3.678254541000115,1062.594862083,1062.6010043749998,1063.0535705000002,1062.885485458,,,,,,,,1062.5913232080002,1062.5948158750002,None,,,,,,,,,,,209,bathroom,2,2024-03-22_12h26.00.837,image_similarity_rating,2023.2.3,None,2024-03-22 12h27.07.079342 +0100,
,113,114,271,271,stimuli/own/bathroom/113_bat.jpg,stimuli/own/bathroom/114_bat.jpg,,,,,,,,,0,138,138,270,1076.989290333,,,,,,,,,,,1077.2733923750002,1077.435562917,1077.435562917,1077.435562917,1077.435562917,1077.435562917,1077.435562917,1077.435562917,1077.435562917,1077.435562917,1084.257728,7,-7,3,5.0,5.642082542000026,6.0,6.7463021250000565,1076.9873360830002,1076.989290333,1077.435562917,1077.273382292,,,,,,,,1076.983689583,1076.9872893329998,None,,,,,,,,,,,209,bathroom,2,2024-03-22_12h26.00.837,image_similarity_rating,2023.2.3,None,2024-03-22 12h27.07.079342 +0100,
,131,132,551,551,stimuli/own/bathroom/131_bat.jpg,stimuli/own/bathroom/132_bat.jpg,,,,,,,,,0,139,139,550,1084.2678972079998,,,,,,,,,,,1084.552182208,1084.7177942500002,1084.7177942500002,1084.7177942500002,1084.7177942500002,1084.7177942500002,1084.7177942500002,1084.7177942500002,1084.7177942500002,1084.7177942500002,1101.8033491669999,-7,7,3,5.0,17.08411216599984,3.0,15.619997084000033,1084.26139075,1084.2678972079998,1084.7177942500002,1084.5521679170001,,,,,,,,1084.257950667,1084.261344208,None,,,,,,,,,,,209,bathroom,2,2024-03-22_12h26.00.837,image_similarity_rating,2023.2.3,None,2024-03-22 12h27.07.079342 +0100,
,136,139,583,583,stimuli/own/bathroom/136_bat.jpg,stimuli/own/bathroom/139_bat.jpg,,,,,,,,,0,140,140,582,1101.8089448750002,,,,,,,,,,,1102.1018910829998,1102.2665313329999,1102.2665313329999,1102.2665313329999,1102.2665313329999,1102.2665313329999,1102.2665313329999,1102.2665313329999,1102.2665313329999,1102.2665313329999,1108.0031346249998,7,-7,3,3.0,5.222111792000078,4.0,3.2740299590000177,1101.807000917,1101.8089448750002,1102.2665313329999,1102.101877042,,,,,,,,1101.8035692079998,1101.806953833,None,,,,,,,,,,,209,bathroom,2,2024-03-22_12h26.00.837,image_similarity_rating,2023.2.3,None,2024-03-22 12h27.07.079342 +0100,
,136,139,583,600,stimuli/own/bathroom/136_bat.jpg,stimuli/own/bathroom/139_bat.jpg,,,,,,,,,0,141,141,599,1108.0087330830002,,,,,,,,,,,1108.302183875,1108.4684631670002,1108.4684631670002,1108.4684631670002,1108.4684631670002,1108.4684631670002,1108.4684631670002,1108.4684631670002,1108.4684631670002,1108.4684631670002,1117.2076378329998,7,-7,3,3.0,7.452743416999965,4.0,8.53760837499999,1108.006792875,1108.0087330830002,1108.4684631670002,1108.302169083,,,,,,,,1108.003355292,1108.0067469169999,None,,,,,,,,,,,209,bathroom,2,2024-03-22_12h26.00.837,image_similarity_rating,2023.2.3,None,2024-03-22 12h27.07.079342 +0100,
,111,132,236,236,stimuli/own/bathroom/111_bat.jpg,stimuli/own/bathroom/132_bat.jpg,,,,,,,,,0,142,142,235,1117.2174663330002,,,,,,,,,,,1117.501898083,1117.6730620419999,1117.6730620419999,1117.6730620419999,1117.6730620419999,1117.6730620419999,1117.6730620419999,1117.6730620419999,1117.6730620419999,1117.6730620419999,1134.624325875,7,-7,3,6.0,16.3083680000002,6.0,9.237362290999954,1117.2112995000002,1117.2174663330002,1117.6730620419999,1117.501882125,,,,,,,,1117.2078674170002,1117.2112537500002,None,,,,,,,,,,,209,bathroom,2,2024-03-22_12h26.00.837,image_similarity_rating,2023.2.3,None,2024-03-22 12h27.07.079342 +0100,
,134,141,574,574,stimuli/own/bathroom/134_bat.jpg,stimuli/own/bathroom/141_bat.jpg,,,,,,,,,0,143,143,573,1134.634316875,,,,,,,,,,,1134.9184570419998,1135.084415375,1135.084415375,1135.084415375,1135.084415375,1135.084415375,1135.084415375,1135.084415375,1135.084415375,1135.084415375,1140.9696842919998,7,-7,3,6.0,5.070344833000036,5.0,3.191557375000002,1134.6279975000002,1134.634316875,1135.084415375,1134.9184420420002,,,,,,,,1134.624548333,1134.627951167,None,,,,,,,,,,,209,bathroom,2,2024-03-22_12h26.00.837,image_similarity_rating,2023.2.3,None,2024-03-22 12h27.07.079342 +0100,
,113,137,291,291,stimuli/own/bathroom/113_bat.jpg,stimuli/own/bathroom/137_bat.jpg,,,,,,,,,0,144,144,290,1140.9753650419998,,,,,,,,,,,1141.268631083,1141.4380420000002,1141.4380420000002,1141.4380420000002,1141.4380420000002,1141.4380420000002,1141.4380420000002,1141.4380420000002,1141.4380420000002,1141.4380420000002,1154.211580792,-7,7,3,3.0,12.123864458000071,1.0,4.393107332999989,1140.973434125,1140.9753650419998,1141.4380420000002,1141.268611,,,,,,,,1140.9699059579998,1140.9733875000002,None,,,,,,,,,,,209,bathroom,2,2024-03-22_12h26.00.837,image_similarity_rating,2023.2.3,None,2024-03-22 12h27.07.079342 +0100,
,130,132,542,542,stimuli/own/bathroom/130_bat.jpg,stimuli/own/bathroom/132_bat.jpg,,,,,,,,,0,145,145,541,1154.217376125,,,,,,,,,,,1154.501894,1154.670618792,1154.670618792,1154.670618792,1154.670618792,1154.670618792,1154.670618792,1154.670618792,1154.670618792,1154.670618792,1159.8575935,-7,7,3,6.0,3.7202680839998266,6.0,4.448660250000103,1154.215238792,1154.217376125,1154.670618792,1154.5018744170002,,,,,,,,1154.2118008749999,1154.2151921670002,None,,,,,,,,,,,209,bathroom,2,2024-03-22_12h26.00.837,image_similarity_rating,2023.2.3,None,2024-03-22 12h27.07.079342 +0100,
,106,129,178,178,stimuli/own/bathroom/106_bat.jpg,stimuli/own/bathroom/129_bat.jpg,,,,,,,,,0,146,146,177,1159.8672191669998,,,,,,,,,,,1160.151875292,1160.3231421669998,1160.3231421669998,1160.3231421669998,1160.3231421669998,1160.3231421669998,1160.3231421669998,1160.3231421669998,1160.3231421669998,1160.3231421669998,1170.111347125,7,-7,3,4.0,9.714397541999915,1.0,4.7591549169999325,1159.8612440000002,1159.8672191669998,1160.3231421669998,1160.151858958,,,,,,,,1159.857814208,1159.861197958,None,,,,,,,,,,,209,bathroom,2,2024-03-22_12h26.00.837,image_similarity_rating,2023.2.3,None,2024-03-22 12h27.07.079342 +0100,
,130,137,546,546,stimuli/own/bathroom/130_bat.jpg,stimuli/own/bathroom/137_bat.jpg,,,,,,,,,0,147,147,545,1170.11698875,,,,,,,,,,,1170.40183075,1170.566282583,1170.566282583,1170.566282583,1170.566282583,1170.566282583,1170.566282583,1170.566282583,1170.566282583,1170.566282583,1179.5778894169998,7,-7,3,3.0,8.91561766599989,1.0,8.004040958000132,1170.115006042,1170.11698875,1170.566282583,1170.401812917,,,,,,,,1170.1115675,1170.114960292,None,,,,,,,,,,,209,bathroom,2,2024-03-22_12h26.00.837,image_similarity_rating,2023.2.3,None,2024-03-22 12h27.07.079342 +0100,
,118,135,379,379,stimuli/own/bathroom/118_bat.jpg,stimuli/own/bathroom/135_bat.jpg,,,,,,,,,0,148,148,378,1179.5837123330002,,,,,,,,,,,1179.8684255829999,1180.04116625,1180.04116625,1180.04116625,1180.04116625,1180.04116625,1180.04116625,1180.04116625,1180.04116625,1180.04116625,1188.273717083,7,-7,3,3.0,4.815987666999945,1.0,2.842614707999928,1179.5815459169999,1179.5837123330002,1180.04116625,1179.868404792,,,,,,,,1179.5781084169998,1179.5814999580002,None,,,,,,,,,,,209,bathroom,2,2024-03-22_12h26.00.837,image_similarity_rating,2023.2.3,None,2024-03-22 12h27.07.079342 +0100,
,117,124,349,349,stimuli/own/bathroom/117_bat.jpg,stimuli/own/bathroom/124_bat.jpg,,,,,,,,,0,149,149,348,1188.2837222080002,,,,,,,,,,,1188.5683307919999,1188.737519417,1188.737519417,1188.737519417,1188.737519417,1188.737519417,1188.737519417,1188.737519417,1188.737519417,1188.737519417,1191.9447083750001,7,-7,3,5.0,2.164616833000082,5.0,2.827073832999986,1188.277370292,1188.2837222080002,1188.737519417,1188.568315167,,,,,,,,1188.2739379169998,1188.2773244999998,None,,,,,,,,,,,209,bathroom,2,2024-03-22_12h26.00.837,image_similarity_rating,2023.2.3,None,2024-03-22 12h27.07.079342 +0100,
,124,138,487,487,stimuli/own/bathroom/124_bat.jpg,stimuli/own/bathroom/138_bat.jpg,,,,,,,,,0,150,150,486,1191.950168208,,,,,,,,,,,1192.234991875,1192.4027608749998,1192.4027608749998,1192.4027608749998,1192.4027608749998,1192.4027608749998,1192.4027608749998,1192.4027608749998,1192.4027608749998,1192.4027608749998,1208.6236493749998,7,-7,3,5.0,14.218057458999965,5.0,16.009351124999966,1191.9483516250002,1191.950168208,1192.4027608749998,1192.2349708749998,,,,,,,,1191.944926875,1191.948305375,None,,,,,,,,,,,209,bathroom,2,2024-03-22_12h26.00.837,image_similarity_rating,2023.2.3,None,2024-03-22 12h27.07.079342 +0100,
,125,138,501,501,stimuli/own/bathroom/125_bat.jpg,stimuli/own/bathroom/138_bat.jpg,,,,,,,,,0,151,151,500,1208.633544542,,,,,,,,,,,1208.91812725,1209.082960833,1209.082960833,1209.082960833,1209.082960833,1209.082960833,1209.082960833,1209.082960833,1209.082960833,1209.082960833,1213.873923708,-7,7,3,5.0,4.8763565419999395,4.0,3.3206472920001033,1208.62742725,1208.633544542,1209.082960833,1208.9181121249999,,,,,,,,1208.623869958,1208.6273810419998,None,,,,,,,,,,,209,bathroom,2,2024-03-22_12h26.00.837,image_similarity_rating,2023.2.3,None,2024-03-22 12h27.07.079342 +0100,
,104,105,100,100,stimuli/own/bathroom/104_bat.jpg,stimuli/own/bathroom/105_bat.jpg,,,,,,,,,0,152,152,99,1213.8836087079999,,,,,,,,,,,1214.168774583,1214.334402083,1214.334402083,1214.334402083,1214.334402083,1214.334402083,1214.334402083,1214.334402083,1214.334402083,1214.334402083,1224.728533167,-7,7,3,5.0,10.390190041999858,5.0,8.337026082999955,1213.8775878749998,1213.8836087079999,1214.334402083,1214.1687617920002,,,,,,,,1213.8741519169998,1213.8775418750001,None,,,,,,,,,,,209,bathroom,2,2024-03-22_12h26.00.837,image_similarity_rating,2023.2.3,None,2024-03-22 12h27.07.079342 +0100,
,122,139,457,457,stimuli/own/bathroom/122_bat.jpg,stimuli/own/bathroom/139_bat.jpg,,,,,,,,,0,153,153,456,1224.7505972919998,,,,,,,,,,,1225.0343684170002,1225.2003455,1225.2003455,1225.2003455,1225.2003455,1225.2003455,1225.2003455,1225.2003455,1225.2003455,1225.2003455,1234.4278642499999,7,-7,3,5.0,6.191807791999963,5.0,9.152560209000058,1224.7321955000002,1224.7505972919998,,1225.034342042,,,,,,,,1224.728753208,1224.732149333,None,,,,,,,,,,,209,bathroom,2,2024-03-22_12h26.00.837,image_similarity_rating,2023.2.3,None,2024-03-22 12h27.07.079342 +0100,
,102,131,58,58,stimuli/own/bathroom/102_bat.jpg,stimuli/own/bathroom/131_bat.jpg,,,,,,,,,0,154,154,57,1234.43338825,,,,,,,,,,,1234.7181447500002,1234.885492125,1234.885492125,1234.885492125,1234.885492125,1234.885492125,1234.885492125,1234.885492125,1234.885492125,1234.885492125,1244.0447158329998,7,-7,3,4.0,9.120163457999979,5.0,3.698135959000183,1234.431523708,1234.43338825,1234.885492125,1234.7181295,,,,,,,,1234.4280859579999,1234.4314775829998,None,,,,,,,,,,,209,bathroom,2,2024-03-22_12h26.00.837,image_similarity_rating,2023.2.3,None,2024-03-22 12h27.07.079342 +0100,
,101,113,9,9,stimuli/own/bathroom/101_bat.jpg,stimuli/own/bathroom/113_bat.jpg,,,,,,,,,0,155,155,8,1244.06707275,,,,,,,,,,,1244.3510069580002,1244.517716208,1244.517716208,1244.517716208,1244.517716208,1244.517716208,1244.517716208,1244.517716208,1244.517716208,1244.517716208,1254.6777430420002,7,-7,3,4.0,7.51079345800008,6.0,10.08432604099994,1244.0483707080002,1244.06707275,,1244.350988958,,,,,,,,1244.0449346250002,1244.048324542,None,,,,,,,,,,,209,bathroom,2,2024-03-22_12h26.00.837,image_similarity_rating,2023.2.3,None,2024-03-22 12h27.07.079342 +0100,
,120,131,415,415,stimuli/own/bathroom/120_bat.jpg,stimuli/own/bathroom/131_bat.jpg,,,,,,,,,0,156,156,414,1254.6833742079998,,,,,,,,,,,1254.968087667,1255.1325575,1255.1325575,1255.1325575,1255.1325575,1255.1325575,1255.1325575,1255.1325575,1255.1325575,1255.1325575,1258.7321670420001,-7,7,3,3.0,3.5720282919999136,1.0,2.4817812920000506,1254.6815511250002,1254.6833742079998,1255.1325575,1254.968074,,,,,,,,1254.677966833,1254.681505,None,,,,,,,,,,,209,bathroom,2,2024-03-22_12h26.00.837,image_similarity_rating,2023.2.3,None,2024-03-22 12h27.07.079342 +0100,
