slide,sub1,sub2,pairID,trialID,stim1,stim2,instructionsLoop.thisRepN,instructionsLoop.thisTrialN,instructionsLoop.thisN,instructionsLoop.thisIndex,practice.thisRepN,practice.thisTrialN,practice.thisN,practice.thisIndex,trials.thisRepN,trials.thisTrialN,trials.thisN,trials.thisIndex,thisRow.t,notes,preparation.started,preparation.stopped,instructions.started,startResponse.started,slide_img.started,instructions.stopped,startResponse.keys,startResponse.rt,startResponse.duration,trial.started,polygon.started,polygon_2.started,image1.started,image2.started,rating_1.started,question.started,rating_2.started,question_2.started,block_text.started,trial.stopped,stim1pos,stim2pos,block,rating_1.response,rating_1.rt,rating_2.response,rating_2.rt,ITI.started,text.started,text.stopped,ITI.stopped,practice_over.started,text_2.started,space_practice_over.started,practice_over.stopped,space_practice_over.keys,space_practice_over.rt,space_practice_over.duration,breakBlocks.started,breakBlocks.stopped,startBlock.keys,startBlock.started,startBlock.rt,startBlock.duration,end.started,message_end.started,key_resp.started,end.stopped,key_resp.keys,key_resp.rt,key_resp.duration,participant,session,session_number,date,expName,psychopyVersion,frameRate,expStart,
instructions/Slide1.jpg,,,,,,,0,0,0,0,,,,,,,,,0.02361504199961928,,0.001991249999264255,0.0021070839993626578,0.008726291999664681,0.02361504199961928,0.02361504199961928,23.68664254199939,space,23.66276412499974,None,,,,,,,,,,,,,,,,,,,,,,,,,,,,,,,,,,,,,,,,,,,204,bathroom,2,2024-03-15_15h07.38.157,image_similarity_rating,2023.2.3,None,2024-03-15 15h07.53.972934 +0100,
instructions/Slide3.jpg,,,,,,,0,1,1,1,,,,,,,,,23.713064499999746,,,,23.687670624999555,23.713064499999746,23.713064499999746,36.552067499999794,space,12.838740832999974,None,,,,,,,,,,,,,,,,,,,,,,,,,,,,,,,,,,,,,,,,,,,204,bathroom,2,2024-03-15_15h07.38.157,image_similarity_rating,2023.2.3,None,2024-03-15 15h07.53.972934 +0100,
instructions/Slide4.jpg,,,,,,,0,2,2,2,,,,,,,,,36.57304841699988,,,,36.55266349999965,36.57304841699988,36.57304841699988,45.665588124999886,space,9.092261333000351,None,,,,,,,,,,,,,,,,,,,,,,,,,,,,,,,,,,,,,,,,,,,204,bathroom,2,2024-03-15_15h07.38.157,image_similarity_rating,2023.2.3,None,2024-03-15 15h07.53.972934 +0100,
instructions/Slide5.jpg,,,,,,,0,3,3,3,,,,,,,,,45.69058637499984,,,,45.666394083999876,45.69058637499984,45.69058637499984,66.49210520899942,space,20.80121833299927,None,,,,,,,,,,,,,,,,,,,,,,,,,,,,,,,,,,,,,,,,,,,204,bathroom,2,2024-03-15_15h07.38.157,image_similarity_rating,2023.2.3,None,2024-03-15 15h07.53.972934 +0100,
,108,110,practice,8,stimuli/own/bathroom/108_bat.jpg,stimuli/own/bathroom/110_bat.jpg,,,,,0,0,0,7,,,,,66.68559708399971,,,,,,,,,,,66.50668970899915,66.68559708399971,66.68559708399971,66.68559708399971,66.68559708399971,66.68559708399971,66.68559708399971,66.68559708399971,66.68559708399971,66.68559708399971,83.23747341699982,-7,7,0,2.0,16.114734040999792,4.0,11.430313500000011,83.2376973749997,83.24005412499992,83.69271562499944,83.52321862499957,,,,,,,,,,,,,,,,,,,,,204,bathroom,2,2024-03-15_15h07.38.157,image_similarity_rating,2023.2.3,None,2024-03-15 15h07.53.972934 +0100,
,128,108,practice,3,stimuli/own/bathroom/128_bat.jpg,stimuli/own/bathroom/108_bat.jpg,,,,,0,1,1,2,,,,,83.69271562499944,,,,,,,,,,,83.52366033399994,83.69271562499944,83.69271562499944,83.69271562499944,83.69271562499944,83.69271562499944,83.69271562499944,83.69271562499944,83.69271562499944,83.69271562499944,94.95746566699927,-7,7,0,1.0,11.215499249999993,5.0,5.391842082999574,94.95760833399981,94.95962295899972,95.40676758399968,95.24281095899914,,,,,,,,,,,,,,,,,,,,,204,bathroom,2,2024-03-15_15h07.38.157,image_similarity_rating,2023.2.3,None,2024-03-15 15h07.53.972934 +0100,
,110,128,practice,2,stimuli/own/bathroom/110_bat.jpg,stimuli/own/bathroom/128_bat.jpg,,,,,0,2,2,1,,,,,95.40676758399968,,,,,,,,,,,95.2431128749995,95.40676758399968,95.40676758399968,95.40676758399968,95.40676758399968,95.40676758399968,95.40676758399968,95.40676758399968,95.40676758399968,95.40676758399968,102.3201864169996,-7,7,0,1.0,2.4483213329995124,4.0,6.815084124999885,102.3203256249999,102.32322770899918,102.77215066699955,102.6061526249996,,,,,,,,,,,,,,,,,,,,,204,bathroom,2,2024-03-15_15h07.38.157,image_similarity_rating,2023.2.3,None,2024-03-15 15h07.53.972934 +0100,
,107,133,practice,9,stimuli/own/bathroom/107_bat.jpg,stimuli/own/bathroom/133_bat.jpg,,,,,0,3,3,8,,,,,102.77215066699955,,,,,,,,,,,102.60657974999958,102.77215066699955,102.77215066699955,102.77215066699955,102.77215066699955,102.77215066699955,102.77215066699955,102.77215066699955,102.77215066699955,102.77215066699955,112.43300191699927,7,-7,0,4.0,9.64800945800016,2.0,3.8871620840000105,112.43314358399948,112.43816258399966,112.88917479199972,112.72274858399942,,,,,,,,,,,,,,,,,,,,,204,bathroom,2,2024-03-15_15h07.38.157,image_similarity_rating,2023.2.3,None,2024-03-15 15h07.53.972934 +0100,
,107,108,practice,5,stimuli/own/bathroom/107_bat.jpg,stimuli/own/bathroom/108_bat.jpg,,,,,0,4,4,4,,,,,112.88917479199972,,,,,,,,,,,112.72317449999991,112.88917479199972,112.88917479199972,112.88917479199972,112.88917479199972,112.88917479199972,112.88917479199972,112.88917479199972,112.88917479199972,112.88917479199972,122.84937570900001,-7,7,0,2.0,9.797745458000463,2.0,3.6749731669997345,122.84951937499955,122.85475499999939,123.30829895899933,123.13914687499982,,,,,,,,,,,,,,,,,,,,,204,bathroom,2,2024-03-15_15h07.38.157,image_similarity_rating,2023.2.3,None,2024-03-15 15h07.53.972934 +0100,
,110,133,practice,1,stimuli/own/bathroom/110_bat.jpg,stimuli/own/bathroom/133_bat.jpg,,,,,0,5,5,0,,,,,123.30829895899933,,,,,,,,,,,123.13962079199973,123.30829895899933,123.30829895899933,123.30829895899933,123.30829895899933,123.30829895899933,123.30829895899933,123.30829895899933,123.30829895899933,123.30829895899933,130.2777034589999,7,-7,0,5.0,6.918676333999429,1.0,2.0926922500002547,130.27784404199974,130.28810870899997,130.74074408399974,130.572741125,,,,,,,,,,,,,,,,,,,,,204,bathroom,2,2024-03-15_15h07.38.157,image_similarity_rating,2023.2.3,None,2024-03-15 15h07.53.972934 +0100,
,108,133,practice,10,stimuli/own/bathroom/108_bat.jpg,stimuli/own/bathroom/133_bat.jpg,,,,,0,6,6,9,,,,,130.74074408399974,,,,,,,,,,,130.5732026249998,130.74074408399974,130.74074408399974,130.74074408399974,130.74074408399974,130.74074408399974,130.74074408399974,130.74074408399974,130.74074408399974,130.74074408399974,139.0571493339994,7,-7,0,3.0,8.27816433299995,3.0,4.364931916999922,139.05729270899974,139.059194167,139.50976899999932,139.34312879199933,,,,,,,,,,,,,,,,,,,,,204,bathroom,2,2024-03-15_15h07.38.157,image_similarity_rating,2023.2.3,None,2024-03-15 15h07.53.972934 +0100,
,107,128,practice,7,stimuli/own/bathroom/107_bat.jpg,stimuli/own/bathroom/128_bat.jpg,,,,,0,7,7,6,,,,,139.50976899999932,,,,,,,,,,,139.34353516699957,139.50976899999932,139.50976899999932,139.50976899999932,139.50976899999932,139.50976899999932,139.50976899999932,139.50976899999932,139.50976899999932,139.50976899999932,148.6035222089995,7,-7,0,1.0,9.082055707999643,4.0,3.417575499999657,148.60367095899983,148.6063334169994,149.0627913749995,148.89347524999994,,,,,,,,,,,,,,,,,,,,,204,bathroom,2,2024-03-15_15h07.38.157,image_similarity_rating,2023.2.3,None,2024-03-15 15h07.53.972934 +0100,
,128,133,practice,6,stimuli/own/bathroom/128_bat.jpg,stimuli/own/bathroom/133_bat.jpg,,,,,0,8,8,5,,,,,149.0627913749995,,,,,,,,,,,148.8939223339994,149.0627913749995,149.0627913749995,149.0627913749995,149.0627913749995,149.0627913749995,149.0627913749995,149.0627913749995,149.0627913749995,149.0627913749995,154.43689420899955,-7,7,0,1.0,2.436140583999986,2.0,5.239904041000045,154.43705879199933,154.43962845899932,154.8921567089992,154.7226217919997,,,,,,,,,,,,,,,,,,,,,204,bathroom,2,2024-03-15_15h07.38.157,image_similarity_rating,2023.2.3,None,2024-03-15 15h07.53.972934 +0100,
,110,107,practice,4,stimuli/own/bathroom/110_bat.jpg,stimuli/own/bathroom/107_bat.jpg,,,,,0,9,9,3,,,,,154.8921567089992,,,,,,,,,,,154.72311141699993,154.8921567089992,154.8921567089992,154.8921567089992,154.8921567089992,154.8921567089992,154.8921567089992,154.8921567089992,154.8921567089992,154.8921567089992,164.1825294169994,-7,7,0,3.0,9.234161083999425,3.0,5.01824383300027,164.18266945899995,164.1879449169992,164.47739591699974,164.47254574999988,,,,,,,,,,,,,,,,,,,,,204,bathroom,2,2024-03-15_15h07.38.157,image_similarity_rating,2023.2.3,None,2024-03-15 15h07.53.972934 +0100,
,,,,,,,,,,,,,,,,,,,,,,,,,,,,,,,,,,,,,,,,,,,,,,,,,,,,164.47264095899936,164.47739591699974,164.47739591699974,176.3127298749996,space,11.834965541999736,None,,,,,,,,,,,,,,204,bathroom,2,2024-03-15_15h07.38.157,image_similarity_rating,2023.2.3,None,2024-03-15 15h07.53.972934 +0100,
,124,127,478,478,stimuli/own/bathroom/124_bat.jpg,stimuli/own/bathroom/127_bat.jpg,,,,,,,,,0,0,0,477,176.3640029169992,,,,,,,,,,,176.65582008399997,176.83422308399986,176.83422308399986,176.83422308399986,176.83422308399986,176.83422308399986,176.83422308399986,176.83422308399986,176.83422308399986,176.83422308399986,188.66072087499924,7,-7,1,4.0,9.010999125000126,3.0,11.511729083000318,176.36195862499972,176.3640029169992,176.83422308399986,176.655800042,,,,,,,,176.34805291699922,176.3616691669995,None,,,,,,,,,,,204,bathroom,2,2024-03-15_15h07.38.157,image_similarity_rating,2023.2.3,None,2024-03-15 15h07.53.972934 +0100,
,103,136,94,94,stimuli/own/bathroom/103_bat.jpg,stimuli/own/bathroom/136_bat.jpg,,,,,,,,,0,1,1,93,188.67108120899957,,,,,,,,,,,188.95576204199915,189.123252417,189.123252417,189.123252417,189.123252417,189.123252417,189.123252417,189.123252417,189.123252417,189.123252417,205.0819245419998,7,-7,1,4.0,11.035424790999969,2.0,15.621604458000547,188.66719345899946,188.67108120899957,189.123252417,188.95574316700004,,,,,,,,188.66129662499952,188.66714216699984,None,,,,,,,,,,,204,bathroom,2,2024-03-15_15h07.38.157,image_similarity_rating,2023.2.3,None,2024-03-15 15h07.53.972934 +0100,
,101,123,18,18,stimuli/own/bathroom/101_bat.jpg,stimuli/own/bathroom/123_bat.jpg,,,,,,,,,0,2,2,17,205.08769474999917,,,,,,,,,,,205.37229574999947,205.5383914999993,205.5383914999993,205.5383914999993,205.5383914999993,205.5383914999993,205.5383914999993,205.5383914999993,205.5383914999993,205.5383914999993,222.64407612499963,-7,7,1,2.0,11.943623334000222,3.0,15.709362540999791,205.08573891699962,205.08769474999917,205.5383914999993,205.37228262499957,,,,,,,,205.08214791699993,205.08569133399942,None,,,,,,,,,,,204,bathroom,2,2024-03-15_15h07.38.157,image_similarity_rating,2023.2.3,None,2024-03-15 15h07.53.972934 +0100,
,106,112,163,163,stimuli/own/bathroom/106_bat.jpg,stimuli/own/bathroom/112_bat.jpg,,,,,,,,,0,3,3,162,222.6543886669997,,,,,,,,,,,222.93898783399982,223.11271862499962,223.11271862499962,223.11271862499962,223.11271862499962,223.11271862499962,223.11271862499962,223.11271862499962,223.11271862499962,223.11271862499962,244.07015929199952,-7,7,1,3.0,20.26142187500045,1.0,12.120996250000644,222.64788449999924,222.6543886669997,223.11271862499962,222.93897079199996,,,,,,,,222.6443038339994,222.64783745899967,None,,,,,,,,,,,204,bathroom,2,2024-03-15_15h07.38.157,image_similarity_rating,2023.2.3,None,2024-03-15 15h07.53.972934 +0100,
,116,119,322,322,stimuli/own/bathroom/116_bat.jpg,stimuli/own/bathroom/119_bat.jpg,,,,,,,,,0,4,4,321,244.07588991699959,,,,,,,,,,,244.35978258399973,244.52619412499917,244.52619412499917,244.52619412499917,244.52619412499917,244.52619412499917,244.52619412499917,244.52619412499917,244.52619412499917,244.52619412499917,257.82826333399953,7,-7,1,1.0,13.118299624999963,5.0,9.425837583999964,244.07397224999931,244.07588991699959,244.52619412499917,244.3597696249999,,,,,,,,244.07039245899978,244.07392466700003,None,,,,,,,,,,,204,bathroom,2,2024-03-15_15h07.38.157,image_similarity_rating,2023.2.3,None,2024-03-15 15h07.53.972934 +0100,
,121,135,436,436,stimuli/own/bathroom/121_bat.jpg,stimuli/own/bathroom/135_bat.jpg,,,,,,,,,0,5,5,435,257.8375506249995,,,,,,,,,,,258.12294887499957,258.28917054199974,258.28917054199974,258.28917054199974,258.28917054199974,258.28917054199974,258.28917054199974,258.28917054199974,258.28917054199974,258.28917054199974,276.5700880839995,-7,7,1,5.0,18.26872766700035,6.0,11.710759249999683,257.8319535419996,257.8375506249995,258.28917054199974,258.1229342919996,,,,,,,,257.8284879169996,257.83190654199916,None,,,,,,,,,,,204,bathroom,2,2024-03-15_15h07.38.157,image_similarity_rating,2023.2.3,None,2024-03-15 15h07.53.972934 +0100,
,101,105,4,4,stimuli/own/bathroom/101_bat.jpg,stimuli/own/bathroom/105_bat.jpg,,,,,,,,,0,6,6,3,276.5757710839998,,,,,,,,,,,276.859442209,277.02547883399984,277.02547883399984,277.02547883399984,277.02547883399984,277.02547883399984,277.02547883399984,277.02547883399984,277.02547883399984,277.02547883399984,294.68204283399973,7,-7,1,1.0,17.554909000000407,3.0,11.70243254199977,276.5738404169997,276.5757710839998,277.02547883399984,276.8594299999995,,,,,,,,276.570312459,276.57379316699917,None,,,,,,,,,,,204,bathroom,2,2024-03-15_15h07.38.157,image_similarity_rating,2023.2.3,None,2024-03-15 15h07.53.972934 +0100,
,101,111,7,7,stimuli/own/bathroom/101_bat.jpg,stimuli/own/bathroom/111_bat.jpg,,,,,,,,,0,7,7,6,294.7042055419997,,,,,,,,,,,294.98823812499995,295.15637587499987,295.15637587499987,295.15637587499987,295.15637587499987,295.15637587499987,295.15637587499987,295.15637587499987,295.15637587499987,295.15637587499987,305.75297033399966,7,-7,1,6.0,5.0521091659993544,4.0,10.441941417000635,294.68586674999915,294.7042055419997,,294.98821899999984,,,,,,,,294.68226524999955,294.6858192089994,None,,,,,,,,,,,204,bathroom,2,2024-03-15_15h07.38.157,image_similarity_rating,2023.2.3,None,2024-03-15 15h07.53.972934 +0100,
,120,129,413,413,stimuli/own/bathroom/120_bat.jpg,stimuli/own/bathroom/129_bat.jpg,,,,,,,,,0,8,8,412,305.75848441699964,,,,,,,,,,,306.0440215839999,306.21525320899946,306.21525320899946,306.21525320899946,306.21525320899946,306.21525320899946,306.21525320899946,306.21525320899946,306.21525320899946,306.21525320899946,327.7105849169993,-7,7,1,6.0,11.60637695800051,4.0,20.69661025000005,305.756719,305.75848441699964,306.21525320899946,306.04400324999915,,,,,,,,305.75322433399924,305.7566719589995,None,,,,,,,,,,,204,bathroom,2,2024-03-15_15h07.38.157,image_similarity_rating,2023.2.3,None,2024-03-15 15h07.53.972934 +0100,
,121,124,427,427,stimuli/own/bathroom/121_bat.jpg,stimuli/own/bathroom/124_bat.jpg,,,,,,,,,0,9,9,426,327.72083487500004,,,,,,,,,,,328.00570724999943,328.1708920839992,328.1708920839992,328.1708920839992,328.1708920839992,328.1708920839992,328.1708920839992,328.1708920839992,328.1708920839992,328.1708920839992,339.50251316699996,-7,7,1,6.0,7.450895916999798,2.0,11.158273957999882,327.7143105839996,327.72083487500004,328.1708920839992,328.0056939589995,,,,,,,,327.7108114999992,327.7142631249999,None,,,,,,,,,,,204,bathroom,2,2024-03-15_15h07.38.157,image_similarity_rating,2023.2.3,None,2024-03-15 15h07.53.972934 +0100,
,120,134,417,417,stimuli/own/bathroom/120_bat.jpg,stimuli/own/bathroom/134_bat.jpg,,,,,,,,,0,10,10,416,339.5081725,,,,,,,,,,,339.7920037919994,339.9561548749998,339.9561548749998,339.9561548749998,339.9561548749998,339.9561548749998,339.9561548749998,339.9561548749998,339.9561548749998,339.9561548749998,356.7986259999998,-7,7,1,1.0,11.16150908399959,2.0,16.680277041999943,339.5062579589994,339.5081725,339.9561548749998,339.79199337499995,,,,,,,,339.50273766699956,339.50620999999956,None,,,,,,,,,,,204,bathroom,2,2024-03-15_15h07.38.157,image_similarity_rating,2023.2.3,None,2024-03-15 15h07.53.972934 +0100,
,103,113,74,74,stimuli/own/bathroom/103_bat.jpg,stimuli/own/bathroom/113_bat.jpg,,,,,,,,,0,11,11,73,356.8208099169997,,,,,,,,,,,357.10491379199993,357.27081579199967,357.27081579199967,357.27081579199967,357.27081579199967,357.27081579199967,357.27081579199967,357.27081579199967,357.27081579199967,357.27081579199967,368.61952779199964,7,-7,1,3.0,11.222271374999764,4.0,6.367207375000362,356.8025537499998,356.8208099169997,,357.10489408399917,,,,,,,,356.7988507499995,356.8025036249992,None,,,,,,,,,,,204,bathroom,2,2024-03-15_15h07.38.157,image_similarity_rating,2023.2.3,None,2024-03-15 15h07.53.972934 +0100,
,103,129,88,88,stimuli/own/bathroom/103_bat.jpg,stimuli/own/bathroom/129_bat.jpg,,,,,,,,,0,12,12,87,368.62501745899954,,,,,,,,,,,368.9090900839992,369.0743327499995,369.0743327499995,369.0743327499995,369.0743327499995,369.0743327499995,369.0743327499995,369.0743327499995,369.0743327499995,369.0743327499995,383.9774025839997,-7,7,1,2.0,14.80224970800009,4.0,10.543650583000272,368.62326179199954,368.62501745899954,369.0743327499995,368.90907741699993,,,,,,,,368.61975979199997,368.6232145419999,None,,,,,,,,,,,204,bathroom,2,2024-03-15_15h07.38.157,image_similarity_rating,2023.2.3,None,2024-03-15 15h07.53.972934 +0100,
,117,134,357,357,stimuli/own/bathroom/117_bat.jpg,stimuli/own/bathroom/134_bat.jpg,,,,,,,,,0,13,13,356,383.9872275839998,,,,,,,,,,,384.27173604199925,384.4393945839993,384.4393945839993,384.4393945839993,384.4393945839993,384.4393945839993,384.4393945839993,384.4393945839993,384.4393945839993,384.4393945839993,398.7151335419994,7,-7,1,2.0,12.418745832999775,1.0,4.020124542000303,383.9811643339999,383.9872275839998,384.4393945839993,384.2717185419997,,,,,,,,383.9776262919995,383.9811170839994,None,,,,,,,,,,,204,bathroom,2,2024-03-15_15h07.38.157,image_similarity_rating,2023.2.3,None,2024-03-15 15h07.53.972934 +0100,
,109,127,205,205,stimuli/own/bathroom/109_bat.jpg,stimuli/own/bathroom/127_bat.jpg,,,,,,,,,0,14,14,204,398.7372344589994,,,,,,,,,,,399.021221084,399.18925899999977,399.18925899999977,399.18925899999977,399.18925899999977,399.18925899999977,399.18925899999977,399.18925899999977,399.18925899999977,399.18925899999977,410.33942316699995,-7,7,1,2.0,11.087693291000505,1.0,2.0297900420000587,398.7189441669998,398.7372344589994,,399.02119929199944,,,,,,,,398.7153600419997,398.71889691699926,None,,,,,,,,,,,204,bathroom,2,2024-03-15_15h07.38.157,image_similarity_rating,2023.2.3,None,2024-03-15 15h07.53.972934 +0100,
,102,103,35,35,stimuli/own/bathroom/102_bat.jpg,stimuli/own/bathroom/103_bat.jpg,,,,,,,,,0,15,15,34,410.3451359999999,,,,,,,,,,,410.63834549999956,410.80474974999925,410.80474974999925,410.80474974999925,410.80474974999925,410.80474974999925,410.80474974999925,410.80474974999925,410.80474974999925,410.80474974999925,424.0645314589992,-7,7,1,1.0,13.185716749999301,3.0,7.064279707999958,410.34320508399924,410.3451359999999,410.80474974999925,410.6383305419995,,,,,,,,410.3396579169994,410.3431579999997,None,,,,,,,,,,,204,bathroom,2,2024-03-15_15h07.38.157,image_similarity_rating,2023.2.3,None,2024-03-15 15h07.53.972934 +0100,
,139,140,593,593,stimuli/own/bathroom/139_bat.jpg,stimuli/own/bathroom/140_bat.jpg,,,,,,,,,0,16,16,592,424.0701139169996,,,,,,,,,,,424.3549248749996,424.52311224999994,424.52311224999994,424.52311224999994,424.52311224999994,424.52311224999994,424.52311224999994,424.52311224999994,424.52311224999994,424.52311224999994,448.802729,-7,7,1,1.0,21.94929970800058,1.0,8.84591999999975,424.0682185839996,424.0701139169996,424.52311224999994,424.35490924999976,,,,,,,,424.0647565419995,424.0681711669995,None,,,,,,,,,,,204,bathroom,2,2024-03-15_15h07.38.157,image_similarity_rating,2023.2.3,None,2024-03-15 15h07.53.972934 +0100,
,109,113,192,192,stimuli/own/bathroom/109_bat.jpg,stimuli/own/bathroom/113_bat.jpg,,,,,,,,,0,17,17,191,448.8084046669992,,,,,,,,,,,449.09213304199966,449.25723816699974,449.25723816699974,449.25723816699974,449.25723816699974,449.25723816699974,449.25723816699974,449.25723816699974,449.25723816699974,449.25723816699974,467.0901440839998,7,-7,1,4.0,17.530544457999895,1.0,6.441039166999872,448.8064652919993,448.8084046669992,449.25723816699974,449.0921216249999,,,,,,,,448.80296216699935,448.8064186669999,None,,,,,,,,,,,204,bathroom,2,2024-03-15_15h07.38.157,image_similarity_rating,2023.2.3,None,2024-03-15 15h07.53.972934 +0100,
,132,139,565,565,stimuli/own/bathroom/132_bat.jpg,stimuli/own/bathroom/139_bat.jpg,,,,,,,,,0,18,18,564,467.09603370899913,,,,,,,,,,,467.3879993749997,467.553946,467.553946,467.553946,467.553946,467.553946,467.553946,467.553946,467.553946,467.553946,484.32660566699997,-7,7,1,3.0,16.240039083999363,2.0,6.1642503329994724,467.0939357919997,467.09603370899913,467.553946,467.38798495899937,,,,,,,,467.0903715839995,467.0938802089995,None,,,,,,,,,,,204,bathroom,2,2024-03-15_15h07.38.157,image_similarity_rating,2023.2.3,None,2024-03-15 15h07.53.972934 +0100,
,105,124,145,145,stimuli/own/bathroom/105_bat.jpg,stimuli/own/bathroom/124_bat.jpg,,,,,,,,,0,19,19,144,484.33669666699916,,,,,,,,,,,484.6212498749992,484.7880459169992,484.7880459169992,484.7880459169992,484.7880459169992,484.7880459169992,484.7880459169992,484.7880459169992,484.7880459169992,484.7880459169992,506.0688251669999,7,-7,1,2.0,15.004525000000285,1.0,2.910593625000729,484.3302829999993,484.33669666699916,484.7880459169992,484.62123474999953,,,,,,,,484.3268313339995,484.33023541699913,None,,,,,,,,,,,204,bathroom,2,2024-03-15_15h07.38.157,image_similarity_rating,2023.2.3,None,2024-03-15 15h07.53.972934 +0100,
,104,136,125,125,stimuli/own/bathroom/104_bat.jpg,stimuli/own/bathroom/136_bat.jpg,,,,,,,,,0,20,20,124,506.07457562499985,,,,,,,,,,,506.35824779199993,506.52375770899926,506.52375770899926,506.52375770899926,506.52375770899926,506.52375770899926,506.52375770899926,506.52375770899926,506.52375770899926,506.52375770899926,521.1686995419996,-7,7,1,2.0,14.467722291999962,2.0,4.769659790999867,506.07262045899915,506.07457562499985,506.52375770899926,506.3582341249994,,,,,,,,506.069075417,506.0725726669998,None,,,,,,,,,,,204,bathroom,2,2024-03-15_15h07.38.157,image_similarity_rating,2023.2.3,None,2024-03-15 15h07.53.972934 +0100,
,109,130,207,207,stimuli/own/bathroom/109_bat.jpg,stimuli/own/bathroom/130_bat.jpg,,,,,,,,,0,21,21,206,521.1742503339992,,,,,,,,,,,521.4584975419993,521.6270151249992,521.6270151249992,521.6270151249992,521.6270151249992,521.6270151249992,521.6270151249992,521.6270151249992,521.6270151249992,521.6270151249992,530.0806408749995,-7,7,1,4.0,8.4537145409995,1.0,1.9551523749996704,521.1724459589996,521.1742503339992,521.6270151249992,521.4584844589999,,,,,,,,521.1689384169995,521.1723984999999,None,,,,,,,,,,,204,bathroom,2,2024-03-15_15h07.38.157,image_similarity_rating,2023.2.3,None,2024-03-15 15h07.53.972934 +0100,
,102,127,55,55,stimuli/own/bathroom/102_bat.jpg,stimuli/own/bathroom/127_bat.jpg,,,,,,,,,0,22,22,54,530.0864891669999,,,,,,,,,,,530.3722240839998,530.5393731249997,530.5393731249997,530.5393731249997,530.5393731249997,530.5393731249997,530.5393731249997,530.5393731249997,530.5393731249997,530.5393731249997,543.5979975839991,-7,7,1,2.0,13.044680790999337,1.0,3.957018000000062,530.0843137499996,530.0864891669999,530.5393731249997,530.3722032919995,,,,,,,,530.0808666249995,530.0842669169997,None,,,,,,,,,,,204,bathroom,2,2024-03-15_15h07.38.157,image_similarity_rating,2023.2.3,None,2024-03-15 15h07.53.972934 +0100,
,109,139,215,215,stimuli/own/bathroom/109_bat.jpg,stimuli/own/bathroom/139_bat.jpg,,,,,,,,,0,23,23,214,543.6198209169997,,,,,,,,,,,543.9040422089993,544.0780754589996,544.0780754589996,544.0780754589996,544.0780754589996,544.0780754589996,544.0780754589996,544.0780754589996,544.0780754589996,544.0780754589996,554.4309731249996,-7,7,1,3.0,10.256057249999685,1.0,2.3547999580005126,543.6016844589994,543.6198209169997,,543.9040157089994,,,,,,,,543.5982220839996,543.6016373339999,None,,,,,,,,,,,204,bathroom,2,2024-03-15_15h07.38.157,image_similarity_rating,2023.2.3,None,2024-03-15 15h07.53.972934 +0100,
,112,132,262,609,stimuli/own/bathroom/112_bat.jpg,stimuli/own/bathroom/132_bat.jpg,,,,,,,,,0,24,24,608,554.4365522499993,,,,,,,,,,,554.721185417,554.892048875,554.892048875,554.892048875,554.892048875,554.892048875,554.892048875,554.892048875,554.892048875,554.892048875,565.3857105419993,-7,7,1,4.0,10.4815603750003,2.0,3.8563893339996866,554.4346432089997,554.4365522499993,554.892048875,554.7211641249996,,,,,,,,554.4311943749999,554.4345963339993,None,,,,,,,,,,,204,bathroom,2,2024-03-15_15h07.38.157,image_similarity_rating,2023.2.3,None,2024-03-15 15h07.53.972934 +0100,
,120,140,423,423,stimuli/own/bathroom/120_bat.jpg,stimuli/own/bathroom/140_bat.jpg,,,,,,,,,0,25,25,422,565.3911637919991,,,,,,,,,,,565.6753707089993,565.8482740419995,565.8482740419995,565.8482740419995,565.8482740419995,565.8482740419995,565.8482740419995,565.8482740419995,565.8482740419995,565.8482740419995,578.8731626249992,-7,7,1,3.0,13.007842291000088,2.0,6.819654249999985,565.3894205419992,565.3911637919991,565.8482740419995,565.6753523749994,,,,,,,,565.3859410839996,565.3893732089991,None,,,,,,,,,,,204,bathroom,2,2024-03-15_15h07.38.157,image_similarity_rating,2023.2.3,None,2024-03-15 15h07.53.972934 +0100,
,122,138,456,456,stimuli/own/bathroom/122_bat.jpg,stimuli/own/bathroom/138_bat.jpg,,,,,,,,,0,26,26,455,578.87878,,,,,,,,,,,579.1709902919993,579.3375554589993,579.3375554589993,579.3375554589993,579.3375554589993,579.3375554589993,579.3375554589993,579.3375554589993,579.3375554589993,579.3375554589993,591.5852527919997,7,-7,1,4.0,12.21998637500019,1.0,2.2057360830003745,578.87684025,578.87878,579.3375554589993,579.1709639589999,,,,,,,,578.8733897499997,578.8767934589996,None,,,,,,,,,,,204,bathroom,2,2024-03-15_15h07.38.157,image_similarity_rating,2023.2.3,None,2024-03-15 15h07.53.972934 +0100,
,121,132,434,434,stimuli/own/bathroom/121_bat.jpg,stimuli/own/bathroom/132_bat.jpg,,,,,,,,,0,27,27,433,591.5908878749997,,,,,,,,,,,591.8749340839995,592.0432299589993,592.0432299589993,592.0432299589993,592.0432299589993,592.0432299589993,592.0432299589993,592.0432299589993,592.0432299589993,592.0432299589993,602.0930311669999,7,-7,1,6.0,10.012373625000691,3.0,3.39142449999963,591.5889800839996,591.5908878749997,592.0432299589993,591.8749189589998,,,,,,,,591.5855013339997,591.5889317499996,None,,,,,,,,,,,204,bathroom,2,2024-03-15_15h07.38.157,image_similarity_rating,2023.2.3,None,2024-03-15 15h07.53.972934 +0100,
,102,111,40,40,stimuli/own/bathroom/102_bat.jpg,stimuli/own/bathroom/111_bat.jpg,,,,,,,,,0,28,28,39,602.1031182499992,,,,,,,,,,,602.388452792,602.5575112499992,602.5575112499992,602.5575112499992,602.5575112499992,602.5575112499992,602.5575112499992,602.5575112499992,602.5575112499992,602.5575112499992,613.3757357089999,7,-7,1,3.0,10.806802541000252,1.0,3.8523438339998393,602.096711917,602.1031182499992,602.5575112499992,602.388438,,,,,,,,602.093254292,602.0966656669998,None,,,,,,,,,,,204,bathroom,2,2024-03-15_15h07.38.157,image_similarity_rating,2023.2.3,None,2024-03-15 15h07.53.972934 +0100,
,122,127,447,447,stimuli/own/bathroom/122_bat.jpg,stimuli/own/bathroom/127_bat.jpg,,,,,,,,,0,29,29,446,613.3862768339995,,,,,,,,,,,613.6708259589996,613.8363623339992,613.8363623339992,613.8363623339992,613.8363623339992,613.8363623339992,613.8363623339992,613.8363623339992,613.8363623339992,613.8363623339992,620.6349533339999,7,-7,1,4.0,6.73470295900006,4.0,2.500426375000643,613.3795453749999,613.3862768339995,613.8363623339992,613.6708132919994,,,,,,,,613.3759617919995,613.3794976669997,None,,,,,,,,,,,204,bathroom,2,2024-03-15_15h07.38.157,image_similarity_rating,2023.2.3,None,2024-03-15 15h07.53.972934 +0100,
,121,136,437,437,stimuli/own/bathroom/121_bat.jpg,stimuli/own/bathroom/136_bat.jpg,,,,,,,,,0,30,30,436,620.6405950839999,,,,,,,,,,,620.9251912089994,621.097109542,621.097109542,621.097109542,621.097109542,621.097109542,621.097109542,621.097109542,621.097109542,621.097109542,628.5759737499993,-7,7,1,5.0,7.479660207999586,4.0,2.0782250840002234,620.6387689169997,620.6405950839999,621.097109542,620.9251765419995,,,,,,,,620.6351786249998,620.638721667,None,,,,,,,,,,,204,bathroom,2,2024-03-15_15h07.38.157,image_similarity_rating,2023.2.3,None,2024-03-15 15h07.53.972934 +0100,
,119,135,399,399,stimuli/own/bathroom/119_bat.jpg,stimuli/own/bathroom/135_bat.jpg,,,,,,,,,0,31,31,398,628.5862687089993,,,,,,,,,,,628.8717704169994,629.0372326669994,629.0372326669994,629.0372326669994,629.0372326669994,629.0372326669994,629.0372326669994,629.0372326669994,629.0372326669994,629.0372326669994,640.0682356669995,-7,7,1,6.0,11.03105083400078,2.0,2.858332249999876,628.5797541669999,628.5862687089993,629.0372326669994,628.8717559999996,,,,,,,,628.5761978339997,628.5797062499996,None,,,,,,,,,,,204,bathroom,2,2024-03-15_15h07.38.157,image_similarity_rating,2023.2.3,None,2024-03-15 15h07.53.972934 +0100,
,130,138,547,547,stimuli/own/bathroom/130_bat.jpg,stimuli/own/bathroom/138_bat.jpg,,,,,,,,,0,32,32,546,640.073994292,,,,,,,,,,,640.3590863749996,640.5233099589996,640.5233099589996,640.5233099589996,640.5233099589996,640.5233099589996,640.5233099589996,640.5233099589996,640.5233099589996,640.5233099589996,651.9219709589997,-7,7,1,3.0,11.296957083999587,1.0,5.30534570799955,640.0720619169997,640.073994292,640.5233099589996,640.3590760419993,,,,,,,,640.0684606669993,640.072014542,None,,,,,,,,,,,204,bathroom,2,2024-03-15_15h07.38.157,image_similarity_rating,2023.2.3,None,2024-03-15 15h07.53.972934 +0100,
,124,140,489,489,stimuli/own/bathroom/124_bat.jpg,stimuli/own/bathroom/140_bat.jpg,,,,,,,,,0,33,33,488,651.927643,,,,,,,,,,,652.2207457919994,652.3863153339998,652.3863153339998,652.3863153339998,652.3863153339998,652.3863153339998,652.3863153339998,652.3863153339998,652.3863153339998,652.3863153339998,666.6187577499995,7,-7,1,3.0,14.13637666700015,5.0,5.5424067909998485,651.9257198749992,651.927643,652.3863153339998,652.2207304589992,,,,,,,,651.9221922499992,651.9256723339995,None,,,,,,,,,,,204,bathroom,2,2024-03-15_15h07.38.157,image_similarity_rating,2023.2.3,None,2024-03-15 15h07.53.972934 +0100,
,123,126,462,462,stimuli/own/bathroom/123_bat.jpg,stimuli/own/bathroom/126_bat.jpg,,,,,,,,,0,34,34,461,666.6242489169999,,,,,,,,,,,666.908444875,667.0763617089997,667.0763617089997,667.0763617089997,667.0763617089997,667.0763617089997,667.0763617089997,667.0763617089997,667.0763617089997,667.0763617089997,678.8558490419991,-7,7,1,3.0,11.715482083000097,1.0,6.718465292000474,666.6224952919993,666.6242489169999,667.0763617089997,666.9084316669996,,,,,,,,666.6189830839994,666.6224473749999,None,,,,,,,,,,,204,bathroom,2,2024-03-15_15h07.38.157,image_similarity_rating,2023.2.3,None,2024-03-15 15h07.53.972934 +0100,
,131,141,559,559,stimuli/own/bathroom/131_bat.jpg,stimuli/own/bathroom/141_bat.jpg,,,,,,,,,0,35,35,558,678.8612817089997,,,,,,,,,,,679.1543552499998,679.3205816669997,679.3205816669997,679.3205816669997,679.3205816669997,679.3205816669997,679.3205816669997,679.3205816669997,679.3205816669997,679.3205816669997,687.3923146249999,-7,7,1,5.0,7.836242667000079,4.0,6.735788459000105,678.8595134999996,678.8612817089997,679.3205816669997,679.1543400839992,,,,,,,,678.8560747919992,678.8594668339992,None,,,,,,,,,,,204,bathroom,2,2024-03-15_15h07.38.157,image_similarity_rating,2023.2.3,None,2024-03-15 15h07.53.972934 +0100,
,119,132,397,397,stimuli/own/bathroom/119_bat.jpg,stimuli/own/bathroom/132_bat.jpg,,,,,,,,,0,36,36,396,687.4027622919994,,,,,,,,,,,687.6883616669993,687.854489417,687.854489417,687.854489417,687.854489417,687.854489417,687.854489417,687.854489417,687.854489417,687.854489417,696.8804064169999,7,-7,1,5.0,8.986030749999372,1.0,2.013143041999683,687.3960809169994,687.4027622919994,687.854489417,687.6883443749994,,,,,,,,687.3925422919992,687.3960340839994,None,,,,,,,,,,,204,bathroom,2,2024-03-15_15h07.38.157,image_similarity_rating,2023.2.3,None,2024-03-15 15h07.53.972934 +0100,
,106,136,184,184,stimuli/own/bathroom/106_bat.jpg,stimuli/own/bathroom/136_bat.jpg,,,,,,,,,0,37,37,183,696.8859433339994,,,,,,,,,,,697.1708574589993,697.3368517089993,697.3368517089993,697.3368517089993,697.3368517089993,697.3368517089993,697.3368517089993,697.3368517089993,697.3368517089993,697.3368517089993,730.0180762499995,-7,7,1,2.0,31.95428391600035,1.0,15.30309191699962,696.8840817499995,696.8859433339994,697.3368517089993,697.1708436249992,,,,,,,,696.8806288749993,696.8840332499994,None,,,,,,,,,,,204,bathroom,2,2024-03-15_15h07.38.157,image_similarity_rating,2023.2.3,None,2024-03-15 15h07.53.972934 +0100,
,116,136,337,337,stimuli/own/bathroom/116_bat.jpg,stimuli/own/bathroom/136_bat.jpg,,,,,,,,,0,38,38,336,730.023868542,,,,,,,,,,,730.3081495419992,730.4765595839999,730.4765595839999,730.4765595839999,730.4765595839999,730.4765595839999,730.4765595839999,730.4765595839999,730.4765595839999,730.4765595839999,739.1921817499997,-7,7,1,1.0,8.604383832999702,1.0,1.6685212500005946,730.0218379999997,730.023868542,730.4765595839999,730.3081347089992,,,,,,,,730.018325,730.0217906669996,None,,,,,,,,,,,204,bathroom,2,2024-03-15_15h07.38.157,image_similarity_rating,2023.2.3,None,2024-03-15 15h07.53.972934 +0100,
,120,127,412,412,stimuli/own/bathroom/120_bat.jpg,stimuli/own/bathroom/127_bat.jpg,,,,,,,,,0,39,39,411,739.2025833749994,,,,,,,,,,,739.4871727919999,739.6602874589998,739.6602874589998,739.6602874589998,739.6602874589998,739.6602874589998,739.6602874589998,739.6602874589998,739.6602874589998,739.6602874589998,747.2548658749993,-7,7,1,3.0,7.570764250000138,2.0,3.104984124999646,739.1958785419993,739.2025833749994,739.6602874589998,739.4871549589998,,,,,,,,739.1924055419995,739.1958316669998,None,,,,,,,,,,,204,bathroom,2,2024-03-15_15h07.38.157,image_similarity_rating,2023.2.3,None,2024-03-15 15h07.53.972934 +0100,
,131,134,552,552,stimuli/own/bathroom/131_bat.jpg,stimuli/own/bathroom/134_bat.jpg,,,,,,,,,0,40,40,551,747.2604148749997,,,,,,,,,,,747.5537725839995,747.7251145839991,747.7251145839991,747.7251145839991,747.7251145839991,747.7251145839991,747.7251145839991,747.7251145839991,747.7251145839991,747.7251145839991,753.2178143749998,7,-7,1,5.0,5.295073917000082,2.0,2.1083318750006583,747.2586550419992,747.2604148749997,747.7251145839991,747.5537549169994,,,,,,,,747.2550901669993,747.2586081249992,None,,,,,,,,,,,204,bathroom,2,2024-03-15_15h07.38.157,image_similarity_rating,2023.2.3,None,2024-03-15 15h07.53.972934 +0100,
,136,139,583,600,stimuli/own/bathroom/136_bat.jpg,stimuli/own/bathroom/139_bat.jpg,,,,,,,,,0,41,41,599,753.2234553339995,,,,,,,,,,,753.5076074169992,753.6730325419994,753.6730325419994,753.6730325419994,753.6730325419994,753.6730325419994,753.6730325419994,753.6730325419994,753.6730325419994,753.6730325419994,763.5634231249996,-7,7,1,4.0,9.875638083999547,1.0,2.855258374999721,753.2215395419998,753.2234553339995,753.6730325419994,753.5075941669993,,,,,,,,753.2180476249996,753.2214921669993,None,,,,,,,,,,,204,bathroom,2,2024-03-15_15h07.38.157,image_similarity_rating,2023.2.3,None,2024-03-15 15h07.53.972934 +0100,
,114,124,304,304,stimuli/own/bathroom/114_bat.jpg,stimuli/own/bathroom/124_bat.jpg,,,,,,,,,0,42,42,303,763.5690267919999,,,,,,,,,,,763.853847292,764.0196224169995,764.0196224169995,764.0196224169995,764.0196224169995,764.0196224169995,764.0196224169995,764.0196224169995,764.0196224169995,764.0196224169995,776.3429558749995,-7,7,1,3.0,12.286276290999922,3.0,6.436726875000204,763.5672240419999,763.5690267919999,764.0196224169995,763.8538367499996,,,,,,,,763.5636459999996,763.5671775839992,None,,,,,,,,,,,204,bathroom,2,2024-03-15_15h07.38.157,image_similarity_rating,2023.2.3,None,2024-03-15 15h07.53.972934 +0100,
,138,139,590,590,stimuli/own/bathroom/138_bat.jpg,stimuli/own/bathroom/139_bat.jpg,,,,,,,,,0,43,43,589,776.3525777919995,,,,,,,,,,,776.6370528749994,776.8022965,776.8022965,776.8022965,776.8022965,776.8022965,776.8022965,776.8022965,776.8022965,776.8022965,790.5300210419991,-7,7,1,4.0,13.737590583000383,1.0,2.116196416999628,776.3466087499992,776.3525777919995,776.8022965,776.6370389169997,,,,,,,,776.3431789999995,776.3465612089994,None,,,,,,,,,,,204,bathroom,2,2024-03-15_15h07.38.157,image_similarity_rating,2023.2.3,None,2024-03-15 15h07.53.972934 +0100,
,138,140,591,591,stimuli/own/bathroom/138_bat.jpg,stimuli/own/bathroom/140_bat.jpg,,,,,,,,,0,44,44,590,790.5357159999994,,,,,,,,,,,790.8202403339992,790.988745875,790.988745875,790.988745875,790.988745875,790.988745875,790.988745875,790.988745875,790.988745875,790.988745875,802.8751876249999,7,-7,1,3.0,11.79934400000002,1.0,2.014256000000387,790.5337916249991,790.5357159999994,790.988745875,790.8202237919995,,,,,,,,790.5302429589992,790.5337443339995,None,,,,,,,,,,,204,bathroom,2,2024-03-15_15h07.38.157,image_similarity_rating,2023.2.3,None,2024-03-15 15h07.53.972934 +0100,
,104,138,127,127,stimuli/own/bathroom/104_bat.jpg,stimuli/own/bathroom/138_bat.jpg,,,,,,,,,0,45,45,126,802.8857004169995,,,,,,,,,,,803.170601625,803.3353667089996,803.3353667089996,803.3353667089996,803.3353667089996,803.3353667089996,803.3353667089996,803.3353667089996,803.3353667089996,803.3353667089996,818.901363209,7,-7,1,5.0,10.350043749999713,1.0,2.4286341669994727,802.8789725839997,802.8857004169995,803.3353667089996,803.1705883749992,,,,,,,,802.8754156249997,802.8789249169995,None,,,,,,,,,,,204,bathroom,2,2024-03-15_15h07.38.157,image_similarity_rating,2023.2.3,None,2024-03-15 15h07.53.972934 +0100,
,101,103,2,2,stimuli/own/bathroom/101_bat.jpg,stimuli/own/bathroom/103_bat.jpg,,,,,,,,,0,46,46,1,818.9069519169998,,,,,,,,,,,819.1910560419992,819.3606945839992,819.3606945839992,819.3606945839992,819.3606945839992,819.3606945839992,819.3606945839992,819.3606945839992,819.3606945839992,819.3606945839992,838.2676017919994,7,-7,1,6.0,18.220131000000038,4.0,11.26794450000034,818.9051905419992,818.9069519169998,819.3606945839992,819.1910429589998,,,,,,,,818.9015972499992,818.9051435419997,None,,,,,,,,,,,204,bathroom,2,2024-03-15_15h07.38.157,image_similarity_rating,2023.2.3,None,2024-03-15 15h07.53.972934 +0100,
,104,111,103,103,stimuli/own/bathroom/104_bat.jpg,stimuli/own/bathroom/111_bat.jpg,,,,,,,,,0,47,47,102,838.2732898749991,,,,,,,,,,,838.5573749589994,838.7239152499997,838.7239152499997,838.7239152499997,838.7239152499997,838.7239152499997,838.7239152499997,838.7239152499997,838.7239152499997,838.7239152499997,856.8086207499991,7,-7,1,4.0,18.058109292000154,1.0,2.4322821249998015,838.2713567089995,838.2732898749991,838.7239152499997,838.5573589169999,,,,,,,,838.2678435419994,838.2713089169993,None,,,,,,,,,,,204,bathroom,2,2024-03-15_15h07.38.157,image_similarity_rating,2023.2.3,None,2024-03-15 15h07.53.972934 +0100,
,126,137,513,513,stimuli/own/bathroom/126_bat.jpg,stimuli/own/bathroom/137_bat.jpg,,,,,,,,,0,48,48,512,856.8188042919992,,,,,,,,,,,857.1043883749999,857.2707284169992,857.2707284169992,857.2707284169992,857.2707284169992,857.2707284169992,857.2707284169992,857.2707284169992,857.2707284169992,857.2707284169992,869.4753520419999,7,-7,1,5.0,12.216011707999314,3.0,6.447184791999462,856.8122822089999,856.8188042919992,857.2707284169992,857.1043747919994,,,,,,,,856.8088467499992,856.8122352089995,None,,,,,,,,,,,204,bathroom,2,2024-03-15_15h07.38.157,image_similarity_rating,2023.2.3,None,2024-03-15 15h07.53.972934 +0100,
,106,120,170,170,stimuli/own/bathroom/106_bat.jpg,stimuli/own/bathroom/120_bat.jpg,,,,,,,,,0,49,49,169,869.4856022089998,,,,,,,,,,,869.7699807089994,869.9338443339993,869.9338443339993,869.9338443339993,869.9338443339993,869.9338443339993,869.9338443339993,869.9338443339993,869.9338443339993,869.9338443339993,880.8254490419995,-7,7,1,4.0,10.804271709000204,1.0,3.1306474160001017,869.4791004169992,869.4856022089998,869.9338443339993,869.7699698749993,,,,,,,,869.4755742919997,869.4790538339994,None,,,,,,,,,,,204,bathroom,2,2024-03-15_15h07.38.157,image_similarity_rating,2023.2.3,None,2024-03-15 15h07.53.972934 +0100,
,112,121,252,252,stimuli/own/bathroom/112_bat.jpg,stimuli/own/bathroom/121_bat.jpg,,,,,,,,,0,50,50,251,880.8353002919994,,,,,,,,,,,881.119997584,881.2911693339993,881.2911693339993,881.2911693339993,881.2911693339993,881.2911693339993,881.2911693339993,881.2911693339993,881.2911693339993,881.2911693339993,891.1588538749993,7,-7,1,3.0,9.793623916000797,5.0,2.492639624999356,880.8292413749996,880.8353002919994,881.2911693339993,881.1199781249998,,,,,,,,880.8256741669993,880.8291944999992,None,,,,,,,,,,,204,bathroom,2,2024-03-15_15h07.38.157,image_similarity_rating,2023.2.3,None,2024-03-15 15h07.53.972934 +0100,
,102,136,62,62,stimuli/own/bathroom/102_bat.jpg,stimuli/own/bathroom/136_bat.jpg,,,,,,,,,0,51,51,61,891.1687708339996,,,,,,,,,,,891.4532447499996,891.6206383339995,891.6206383339995,891.6206383339995,891.6206383339995,891.6206383339995,891.6206383339995,891.6206383339995,891.6206383339995,891.6206383339995,910.9627674169997,7,-7,1,1.0,19.192093290999765,2.0,8.15752275000068,891.1625854589993,891.1687708339996,891.6206383339995,891.4532250419998,,,,,,,,891.15907625,891.1625384999998,None,,,,,,,,,,,204,bathroom,2,2024-03-15_15h07.38.157,image_similarity_rating,2023.2.3,None,2024-03-15 15h07.53.972934 +0100,
,104,105,100,100,stimuli/own/bathroom/104_bat.jpg,stimuli/own/bathroom/105_bat.jpg,,,,,,,,,0,52,52,99,910.9682906669996,,,,,,,,,,,911.2531046669992,911.4220709169995,911.4220709169995,911.4220709169995,911.4220709169995,911.4220709169995,911.4220709169995,911.4220709169995,911.4220709169995,911.4220709169995,925.4792099589995,7,-7,1,2.0,13.21851258300012,2.0,6.647337458000038,910.9664145419993,910.9682906669996,911.4220709169995,911.2530846249992,,,,,,,,910.9629917919992,910.9663674589992,None,,,,,,,,,,,204,bathroom,2,2024-03-15_15h07.38.157,image_similarity_rating,2023.2.3,None,2024-03-15 15h07.53.972934 +0100,
,113,124,280,280,stimuli/own/bathroom/113_bat.jpg,stimuli/own/bathroom/124_bat.jpg,,,,,,,,,0,53,53,279,925.4849832089994,,,,,,,,,,,925.7697404999999,925.9377507919999,925.9377507919999,925.9377507919999,925.9377507919999,925.9377507919999,925.9377507919999,925.9377507919999,925.9377507919999,925.9377507919999,935.8918214589994,-7,7,1,6.0,5.629350917000011,3.0,9.819603417000508,925.4828635419999,925.4849832089994,925.9377507919999,925.7697155419992,,,,,,,,925.4794386669992,925.4828169999992,None,,,,,,,,,,,204,bathroom,2,2024-03-15_15h07.38.157,image_similarity_rating,2023.2.3,None,2024-03-15 15h07.53.972934 +0100,
,113,116,272,272,stimuli/own/bathroom/113_bat.jpg,stimuli/own/bathroom/116_bat.jpg,,,,,,,,,0,54,54,271,935.9020274589993,,,,,,,,,,,936.1865905839995,936.3521204589997,936.3521204589997,936.3521204589997,936.3521204589997,936.3521204589997,936.3521204589997,936.3521204589997,936.3521204589997,936.3521204589997,947.2173903339999,7,-7,1,6.0,10.726027957999577,1.0,1.6389479999998002,935.8954642499993,935.9020274589993,936.3521204589997,936.1865751249998,,,,,,,,935.8920432089999,935.8954171249998,None,,,,,,,,,,,204,bathroom,2,2024-03-15_15h07.38.157,image_similarity_rating,2023.2.3,None,2024-03-15 15h07.53.972934 +0100,
,134,136,569,569,stimuli/own/bathroom/134_bat.jpg,stimuli/own/bathroom/136_bat.jpg,,,,,,,,,0,55,55,568,947.223153334,,,,,,,,,,,947.5081249169998,947.6717201669999,947.6717201669999,947.6717201669999,947.6717201669999,947.6717201669999,947.6717201669999,947.6717201669999,947.6717201669999,947.6717201669999,959.2004245419994,7,-7,1,4.0,11.563521832999868,5.0,2.563736166000126,947.2212083749992,947.223153334,947.6717201669999,947.5081142089994,,,,,,,,947.2176423339997,947.2211611249995,None,,,,,,,,,,,204,bathroom,2,2024-03-15_15h07.38.157,image_similarity_rating,2023.2.3,None,2024-03-15 15h07.53.972934 +0100,
,124,132,482,482,stimuli/own/bathroom/124_bat.jpg,stimuli/own/bathroom/132_bat.jpg,,,,,,,,,0,56,56,481,959.206053375,,,,,,,,,,,959.4912544589997,959.656501292,959.656501292,959.656501292,959.656501292,959.656501292,959.656501292,959.656501292,959.656501292,959.656501292,971.9172127919992,-7,7,1,7.0,6.415803958000652,5.0,11.947906709000563,959.2041337089995,959.206053375,959.656501292,959.4912439999998,,,,,,,,959.2006495839996,959.2040859999997,None,,,,,,,,,,,204,bathroom,2,2024-03-15_15h07.38.157,image_similarity_rating,2023.2.3,None,2024-03-15 15h07.53.972934 +0100,
,103,112,73,73,stimuli/own/bathroom/103_bat.jpg,stimuli/own/bathroom/112_bat.jpg,,,,,,,,,0,57,57,72,971.9228261669996,,,,,,,,,,,972.20731075,972.3721592919992,972.3721592919992,972.3721592919992,972.3721592919992,972.3721592919992,972.3721592919992,972.3721592919992,972.3721592919992,972.3721592919992,981.5540550419992,7,-7,1,2.0,9.217376540999794,2.0,4.916462374999355,971.9209048749999,971.9228261669996,972.3721592919992,972.2072991669993,,,,,,,,971.9174561669997,971.9208578339994,None,,,,,,,,,,,204,bathroom,2,2024-03-15_15h07.38.157,image_similarity_rating,2023.2.3,None,2024-03-15 15h07.53.972934 +0100,
,116,138,339,339,stimuli/own/bathroom/116_bat.jpg,stimuli/own/bathroom/138_bat.jpg,,,,,,,,,0,58,58,338,981.5596341249993,,,,,,,,,,,981.853067084,982.0192447499994,982.0192447499994,982.0192447499994,982.0192447499994,982.0192447499994,982.0192447499994,982.0192447499994,982.0192447499994,982.0192447499994,998.4706356669994,7,-7,1,5.0,15.97489804199995,3.0,6.587870958000167,981.55768825,981.5596341249993,982.0192447499994,981.8530469589996,,,,,,,,981.5542782919993,981.5576416669992,None,,,,,,,,,,,204,bathroom,2,2024-03-15_15h07.38.157,image_similarity_rating,2023.2.3,None,2024-03-15 15h07.53.972934 +0100,
,125,129,493,493,stimuli/own/bathroom/125_bat.jpg,stimuli/own/bathroom/129_bat.jpg,,,,,,,,,0,59,59,492,998.4760259589993,,,,,,,,,,,998.7695604999999,998.9377844169994,998.9377844169994,998.9377844169994,998.9377844169994,998.9377844169994,998.9377844169994,998.9377844169994,998.9377844169994,998.9377844169994,1011.7672380839995,7,-7,1,5.0,12.60830929199983,1.0,3.7953957080007967,998.4742914589997,998.4760259589993,998.9377844169994,998.7695458339995,,,,,,,,998.4708597089993,998.4742447089993,None,,,,,,,,,,,204,bathroom,2,2024-03-15_15h07.38.157,image_similarity_rating,2023.2.3,None,2024-03-15 15h07.53.972934 +0100,
,121,140,441,441,stimuli/own/bathroom/121_bat.jpg,stimuli/own/bathroom/140_bat.jpg,,,,,,,,,0,60,60,440,1011.7730476249999,,,,,,,,,,,1012.0582397499993,1012.2244952089995,1012.2244952089995,1012.2244952089995,1012.2244952089995,1012.2244952089995,1012.2244952089995,1012.2244952089995,1012.2244952089995,1012.2244952089995,1022.8414784589995,-7,7,1,2.0,10.604733999999553,4.0,4.6560470409995105,1011.7711074169993,1011.7730476249999,1012.2244952089995,1012.0582271669991,,,,,,,,1011.767484084,1011.7710589169992,None,,,,,,,,,,,204,bathroom,2,2024-03-15_15h07.38.157,image_similarity_rating,2023.2.3,None,2024-03-15 15h07.53.972934 +0100,
,114,140,318,318,stimuli/own/bathroom/114_bat.jpg,stimuli/own/bathroom/140_bat.jpg,,,,,,,,,0,61,61,317,1022.8515292089996,,,,,,,,,,,1023.1370835839998,1023.3016465419996,1023.3016465419996,1023.3016465419996,1023.3016465419996,1023.3016465419996,1023.3016465419996,1023.3016465419996,1023.3016465419996,1023.3016465419996,1038.5206181249996,-7,7,1,3.0,15.253069749999668,4.0,5.378919292000319,1022.8452188749998,1022.8515292089996,1023.3016465419996,1023.1370701249998,,,,,,,,1022.8417017919992,1022.8451723749995,None,,,,,,,,,,,204,bathroom,2,2024-03-15_15h07.38.157,image_similarity_rating,2023.2.3,None,2024-03-15 15h07.53.972934 +0100,
,111,119,224,224,stimuli/own/bathroom/111_bat.jpg,stimuli/own/bathroom/119_bat.jpg,,,,,,,,,0,62,62,223,1038.5261815839995,,,,,,,,,,,1038.8194534589993,1038.9874868339994,1038.9874868339994,1038.9874868339994,1038.9874868339994,1038.9874868339994,1038.9874868339994,1038.9874868339994,1038.9874868339994,1038.9874868339994,1050.7003425839994,7,-7,1,7.0,11.424164666999786,1.0,2.028082875000109,1038.5242629589993,1038.5261815839995,1038.9874868339994,1038.819431,,,,,,,,1038.5208398339992,1038.5242168749992,None,,,,,,,,,,,204,bathroom,2,2024-03-15_15h07.38.157,image_similarity_rating,2023.2.3,None,2024-03-15 15h07.53.972934 +0100,
,111,129,233,233,stimuli/own/bathroom/111_bat.jpg,stimuli/own/bathroom/129_bat.jpg,,,,,,,,,0,63,63,232,1050.7063742499995,,,,,,,,,,,1052.8193678339994,1052.992399459,1052.992399459,1052.992399459,1052.992399459,1052.992399459,1052.992399459,1052.992399459,1052.992399459,1052.992399459,1087.3080734999994,7,-7,2,3.0,29.7428352500001,3.0,22.001560249999784,1052.5276647499995,1052.535534875,1052.992399459,1052.8193460839993,,,,,,,,1050.7005957499996,1052.5260734169997,space,1050.7063742499995,1.8194590840003002,None,,,,,,,,204,bathroom,2,2024-03-15_15h07.38.157,image_similarity_rating,2023.2.3,None,2024-03-15 15h07.53.972934 +0100,
,114,129,308,308,stimuli/own/bathroom/114_bat.jpg,stimuli/own/bathroom/129_bat.jpg,,,,,,,,,0,64,64,307,1087.3181768749992,,,,,,,,,,,1087.6024566669994,1087.769028959,1087.769028959,1087.769028959,1087.769028959,1087.769028959,1087.769028959,1087.769028959,1087.769028959,1087.769028959,1098.2713667499993,7,-7,2,3.0,10.513957208999273,2.0,4.091291292000278,1087.3124237919992,1087.3181768749992,1087.769028959,1087.6024417089993,,,,,,,,1087.3082991669999,1087.3123757089998,None,,,,,,,,,,,204,bathroom,2,2024-03-15_15h07.38.157,image_similarity_rating,2023.2.3,None,2024-03-15 15h07.53.972934 +0100,
,130,139,548,548,stimuli/own/bathroom/130_bat.jpg,stimuli/own/bathroom/139_bat.jpg,,,,,,,,,0,65,65,547,1098.2770326669997,,,,,,,,,,,1098.569039084,1098.733612,1098.733612,1098.733612,1098.733612,1098.733612,1098.733612,1098.733612,1098.733612,1098.733612,1108.1915209169993,-7,7,2,4.0,9.41849695899964,1.0,3.810414416999265,1098.2750916249997,1098.2770326669997,1098.733612,1098.56902575,,,,,,,,1098.2715920839992,1098.2750454589996,None,,,,,,,,,,,204,bathroom,2,2024-03-15_15h07.38.157,image_similarity_rating,2023.2.3,None,2024-03-15 15h07.53.972934 +0100,
,106,139,187,187,stimuli/own/bathroom/106_bat.jpg,stimuli/own/bathroom/139_bat.jpg,,,,,,,,,0,66,66,186,1108.2013324589998,,,,,,,,,,,1108.4865926249995,1108.6527632089992,1108.6527632089992,1108.6527632089992,1108.6527632089992,1108.6527632089992,1108.6527632089992,1108.6527632089992,1108.6527632089992,1108.6527632089992,1117.9577174589995,7,-7,2,1.0,9.305896000000757,2.0,2.6190998330002913,1108.1953884169998,1108.2013324589998,1108.6527632089992,1108.4865775419994,,,,,,,,1108.1917429169998,1108.195339084,None,,,,,,,,,,,204,bathroom,2,2024-03-15_15h07.38.157,image_similarity_rating,2023.2.3,None,2024-03-15 15h07.53.972934 +0100,
,123,137,471,471,stimuli/own/bathroom/123_bat.jpg,stimuli/own/bathroom/137_bat.jpg,,,,,,,,,0,67,67,470,1117.9680431669995,,,,,,,,,,,1118.2528273749995,1118.4169328339995,1118.4169328339995,1118.4169328339995,1118.4169328339995,1118.4169328339995,1118.4169328339995,1118.4169328339995,1118.4169328339995,1118.4169328339995,1127.129213542,-7,7,2,1.0,8.6604269999998,2.0,4.851276375000452,1117.9615624169992,1117.9680431669995,1118.4169328339995,1118.2528136669998,,,,,,,,1117.9579379589995,1117.9615127089992,None,,,,,,,,,,,204,bathroom,2,2024-03-15_15h07.38.157,image_similarity_rating,2023.2.3,None,2024-03-15 15h07.53.972934 +0100,
,102,124,52,52,stimuli/own/bathroom/102_bat.jpg,stimuli/own/bathroom/124_bat.jpg,,,,,,,,,0,68,68,51,1127.1512165839995,,,,,,,,,,,1127.4354054589994,1127.6014665419998,1127.6014665419998,1127.6014665419998,1127.6014665419998,1127.6014665419998,1127.6014665419998,1127.6014665419998,1127.6014665419998,1127.6014665419998,1139.2454680419996,7,-7,2,3.0,11.632809291999365,1.0,5.561834666999857,1127.1329693339994,1127.1512165839995,,1127.4353857919996,,,,,,,,1127.129436917,1127.132922709,None,,,,,,,,,,,204,bathroom,2,2024-03-15_15h07.38.157,image_similarity_rating,2023.2.3,None,2024-03-15 15h07.53.972934 +0100,
,111,125,230,230,stimuli/own/bathroom/111_bat.jpg,stimuli/own/bathroom/125_bat.jpg,,,,,,,,,0,69,69,229,1139.2508718749996,,,,,,,,,,,1139.5357998339996,1139.6992734169999,1139.6992734169999,1139.6992734169999,1139.6992734169999,1139.6992734169999,1139.6992734169999,1139.6992734169999,1139.6992734169999,1139.6992734169999,1151.0466396249994,-7,7,2,3.0,11.387901249999231,2.0,4.783597583000301,1139.2491101669993,1139.2508718749996,1139.6992734169999,1139.5357892499997,,,,,,,,1139.245688,1139.2490638749996,None,,,,,,,,,,,204,bathroom,2,2024-03-15_15h07.38.157,image_similarity_rating,2023.2.3,None,2024-03-15 15h07.53.972934 +0100,
,120,123,408,408,stimuli/own/bathroom/120_bat.jpg,stimuli/own/bathroom/123_bat.jpg,,,,,,,,,0,70,70,407,1151.05273175,,,,,,,,,,,1151.3368958339997,1151.5038268339995,1151.5038268339995,1151.5038268339995,1151.5038268339995,1151.5038268339995,1151.5038268339995,1151.5038268339995,1151.5038268339995,1151.5038268339995,1160.999837542,7,-7,2,5.0,9.438742915999683,4.0,5.568371874999684,1151.0503117919998,1151.05273175,1151.5038268339995,1151.3368792499996,,,,,,,,1151.0468609999998,1151.050265334,None,,,,,,,,,,,204,bathroom,2,2024-03-15_15h07.38.157,image_similarity_rating,2023.2.3,None,2024-03-15 15h07.53.972934 +0100,
,102,117,45,45,stimuli/own/bathroom/102_bat.jpg,stimuli/own/bathroom/117_bat.jpg,,,,,,,,,0,71,71,44,1161.0053177089994,,,,,,,,,,,1161.2900209999998,1161.4548538749996,1161.4548538749996,1161.4548538749996,1161.4548538749996,1161.4548538749996,1161.4548538749996,1161.4548538749996,1161.4548538749996,1161.4548538749996,1172.3535409999995,7,-7,2,5.0,10.897311625000839,3.0,6.889212666999811,1161.0035103339997,1161.0053177089994,1161.4548538749996,1161.2900103749998,,,,,,,,1161.0000672919996,1161.0034632919997,None,,,,,,,,,,,204,bathroom,2,2024-03-15_15h07.38.157,image_similarity_rating,2023.2.3,None,2024-03-15 15h07.53.972934 +0100,
,112,113,245,245,stimuli/own/bathroom/112_bat.jpg,stimuli/own/bathroom/113_bat.jpg,,,,,,,,,0,72,72,244,1172.3589809169998,,,,,,,,,,,1172.653094542,1172.8197234999998,1172.8197234999998,1172.8197234999998,1172.8197234999998,1172.8197234999998,1172.8197234999998,1172.8197234999998,1172.8197234999998,1172.8197234999998,1188.586770375,-7,7,2,7.0,15.791894291000062,2.0,8.027160458000253,1172.3571673749993,1172.3589809169998,1172.8197234999998,1172.6530804169997,,,,,,,,1172.3537642089996,1172.3571213339992,None,,,,,,,,,,,204,bathroom,2,2024-03-15_15h07.38.157,image_similarity_rating,2023.2.3,None,2024-03-15 15h07.53.972934 +0100,
,121,129,431,431,stimuli/own/bathroom/121_bat.jpg,stimuli/own/bathroom/129_bat.jpg,,,,,,,,,0,73,73,430,1188.5924850419997,,,,,,,,,,,1188.8856368339993,1189.0499996669996,1189.0499996669996,1189.0499996669996,1189.0499996669996,1189.0499996669996,1189.0499996669996,1189.0499996669996,1189.0499996669996,1189.0499996669996,1200.1249384169996,-7,7,2,4.0,11.10432720800054,5.0,5.380533124999602,1188.5904087499994,1188.5924850419997,1189.0499996669996,1188.8856260419998,,,,,,,,1188.5869920839996,1188.590362125,None,,,,,,,,,,,204,bathroom,2,2024-03-15_15h07.38.157,image_similarity_rating,2023.2.3,None,2024-03-15 15h07.53.972934 +0100,
,106,113,164,164,stimuli/own/bathroom/106_bat.jpg,stimuli/own/bathroom/113_bat.jpg,,,,,,,,,0,74,74,163,1200.1347110839997,,,,,,,,,,,1200.419032375,1200.5836758749992,1200.5836758749992,1200.5836758749992,1200.5836758749992,1200.5836758749992,1200.5836758749992,1200.5836758749992,1200.5836758749992,1200.5836758749992,1207.995134709,7,-7,2,4.0,7.446528041999954,1.0,2.301587500000096,1200.1285765419998,1200.1347110839997,1200.5836758749992,1200.419018875,,,,,,,,1200.1251612919996,1200.128530125,None,,,,,,,,,,,204,bathroom,2,2024-03-15_15h07.38.157,image_similarity_rating,2023.2.3,None,2024-03-15 15h07.53.972934 +0100,
,102,119,47,47,stimuli/own/bathroom/102_bat.jpg,stimuli/own/bathroom/119_bat.jpg,,,,,,,,,0,75,75,46,1208.0006967919999,,,,,,,,,,,1208.2857102089993,1208.4591108339991,1208.4591108339991,1208.4591108339991,1208.4591108339991,1208.4591108339991,1208.4591108339991,1208.4591108339991,1208.4591108339991,1208.4591108339991,1219.4569097499998,-7,7,2,4.0,11.05017824999959,3.0,6.665466000000379,1207.998789667,1208.0006967919999,1208.4591108339991,1208.2856935,,,,,,,,1207.9953554169997,1207.998742459,None,,,,,,,,,,,204,bathroom,2,2024-03-15_15h07.38.157,image_similarity_rating,2023.2.3,None,2024-03-15 15h07.53.972934 +0100,
,105,119,140,140,stimuli/own/bathroom/105_bat.jpg,stimuli/own/bathroom/119_bat.jpg,,,,,,,,,0,76,76,139,1219.4675683339992,,,,,,,,,,,1219.7527792499995,1219.9193113749998,1219.9193113749998,1219.9193113749998,1219.9193113749998,1219.9193113749998,1219.9193113749998,1219.9193113749998,1219.9193113749998,1219.9193113749998,1234.4956722499992,7,-7,2,1.0,14.549258750000263,5.0,2.054856208000274,1219.4606807499995,1219.4675683339992,1219.9193113749998,1219.7527641249999,,,,,,,,1219.4571318339995,1219.4606333749998,None,,,,,,,,,,,204,bathroom,2,2024-03-15_15h07.38.157,image_similarity_rating,2023.2.3,None,2024-03-15 15h07.53.972934 +0100,
,129,132,532,532,stimuli/own/bathroom/129_bat.jpg,stimuli/own/bathroom/132_bat.jpg,,,,,,,,,0,77,77,531,1234.5177851669996,,,,,,,,,,,1234.8016205839995,1234.9682386249997,1234.9682386249997,1234.9682386249997,1234.9682386249997,1234.9682386249997,1234.9682386249997,1234.9682386249997,1234.9682386249997,1234.9682386249997,1243.7120079589995,7,-7,2,4.0,8.792712125000435,4.0,2.2217916669997066,1234.4994016249993,1234.5177851669996,,1234.8016002089998,,,,,,,,1234.4958952089992,1234.4993545419993,None,,,,,,,,,,,204,bathroom,2,2024-03-15_15h07.38.157,image_similarity_rating,2023.2.3,None,2024-03-15 15h07.53.972934 +0100,
,113,134,288,288,stimuli/own/bathroom/113_bat.jpg,stimuli/own/bathroom/134_bat.jpg,,,,,,,,,0,78,78,287,1243.7174459999997,,,,,,,,,,,1244.0023771669994,1244.1668639589998,1244.1668639589998,1244.1668639589998,1244.1668639589998,1244.1668639589998,1244.1668639589998,1244.1668639589998,1244.1668639589998,1244.1668639589998,1254.6707853749995,-7,7,2,3.0,10.451325500000166,3.0,2.143773875000079,1243.7156544589998,1243.7174459999997,1244.1668639589998,1244.0023632499997,,,,,,,,1243.7122299169996,1243.715607792,None,,,,,,,,,,,204,bathroom,2,2024-03-15_15h07.38.157,image_similarity_rating,2023.2.3,None,2024-03-15 15h07.53.972934 +0100,
,116,132,334,334,stimuli/own/bathroom/116_bat.jpg,stimuli/own/bathroom/132_bat.jpg,,,,,,,,,0,79,79,333,1254.676336042,,,,,,,,,,,1254.9688998749998,1255.1335344589997,1255.1335344589997,1255.1335344589997,1255.1335344589997,1255.1335344589997,1255.1335344589997,1255.1335344589997,1255.1335344589997,1255.1335344589997,1264.8161325419997,7,-7,2,4.0,9.631870416999845,1.0,1.8971853329994701,1254.6745647499993,1254.676336042,1255.1335344589997,1254.9688863749998,,,,,,,,1254.6710076249992,1254.6745188749992,None,,,,,,,,,,,204,bathroom,2,2024-03-15_15h07.38.157,image_similarity_rating,2023.2.3,None,2024-03-15 15h07.53.972934 +0100,
,103,134,92,92,stimuli/own/bathroom/103_bat.jpg,stimuli/own/bathroom/134_bat.jpg,,,,,,,,,0,80,80,91,1264.8216251249996,,,,,,,,,,,1265.1071554589998,1265.2715251669997,1265.2715251669997,1265.2715251669997,1265.2715251669997,1265.2715251669997,1265.2715251669997,1265.2715251669997,1265.2715251669997,1265.2715251669997,1273.1994395419997,7,-7,2,3.0,7.938534416999573,2.0,1.8452921250000145,1264.8198266249992,1264.8216251249996,1265.2715251669997,1265.1071415419992,,,,,,,,1264.816363084,1264.8197801249999,None,,,,,,,,,,,204,bathroom,2,2024-03-15_15h07.38.157,image_similarity_rating,2023.2.3,None,2024-03-15 15h07.53.972934 +0100,
,113,137,291,291,stimuli/own/bathroom/113_bat.jpg,stimuli/own/bathroom/137_bat.jpg,,,,,,,,,0,81,81,290,1273.2054565419994,,,,,,,,,,,1273.4896557089996,1273.6597768749998,1273.6597768749998,1273.6597768749998,1273.6597768749998,1273.6597768749998,1273.6597768749998,1273.6597768749998,1273.6597768749998,1273.6597768749998,1282.1827202089999,-7,7,2,3.0,8.53767337499994,1.0,2.1200424589997056,1273.2033695419996,1273.2054565419994,1273.6597768749998,1273.4896413339993,,,,,,,,1273.1996649999992,1273.2033197089995,None,,,,,,,,,,,204,bathroom,2,2024-03-15_15h07.38.157,image_similarity_rating,2023.2.3,None,2024-03-15 15h07.53.972934 +0100,
,105,118,139,139,stimuli/own/bathroom/105_bat.jpg,stimuli/own/bathroom/118_bat.jpg,,,,,,,,,0,82,82,138,1282.1883024589997,,,,,,,,,,,1282.4731054169997,1282.6384882089997,1282.6384882089997,1282.6384882089997,1282.6384882089997,1282.6384882089997,1282.6384882089997,1282.6384882089997,1282.6384882089997,1282.6384882089997,1292.0165534169992,-7,7,2,1.0,9.374895500000093,5.0,5.454782916000113,1282.1865489169995,1282.1883024589997,1282.6384882089997,1282.4730947919998,,,,,,,,1282.1829413749992,1282.186502042,None,,,,,,,,,,,204,bathroom,2,2024-03-15_15h07.38.157,image_similarity_rating,2023.2.3,None,2024-03-15 15h07.53.972934 +0100,
,101,119,14,14,stimuli/own/bathroom/101_bat.jpg,stimuli/own/bathroom/119_bat.jpg,,,,,,,,,0,83,83,13,1292.022189542,,,,,,,,,,,1292.3067888749993,1292.4723323749995,1292.4723323749995,1292.4723323749995,1292.4723323749995,1292.4723323749995,1292.4723323749995,1292.4723323749995,1292.4723323749995,1292.4723323749995,1305.8159865839998,-7,7,2,7.0,13.355977791000441,2.0,2.9436955840001247,1292.020264375,1292.022189542,1292.4723323749995,1292.3067763749996,,,,,,,,1292.0167724169996,1292.0202171669998,None,,,,,,,,,,,204,bathroom,2,2024-03-15_15h07.38.157,image_similarity_rating,2023.2.3,None,2024-03-15 15h07.53.972934 +0100,
,135,139,578,578,stimuli/own/bathroom/135_bat.jpg,stimuli/own/bathroom/139_bat.jpg,,,,,,,,,0,84,84,577,1305.821471792,,,,,,,,,,,1306.1079009169998,1306.2761201249996,1306.2761201249996,1306.2761201249996,1306.2761201249996,1306.2761201249996,1306.2761201249996,1306.2761201249996,1306.2761201249996,1306.2761201249996,1315.9281547499995,-7,7,2,7.0,9.577253999999812,2.0,3.4873707090000607,1305.819697334,1305.821471792,1306.2761201249996,1306.10788675,,,,,,,,1305.8162084999994,1305.8196482919993,None,,,,,,,,,,,204,bathroom,2,2024-03-15_15h07.38.157,image_similarity_rating,2023.2.3,None,2024-03-15 15h07.53.972934 +0100,
,101,109,6,6,stimuli/own/bathroom/101_bat.jpg,stimuli/own/bathroom/109_bat.jpg,,,,,,,,,0,85,85,5,1315.9335568339993,,,,,,,,,,,1316.2190314589998,1316.3852297919993,1316.3852297919993,1316.3852297919993,1316.3852297919993,1316.3852297919993,1316.3852297919993,1316.3852297919993,1316.3852297919993,1316.3852297919993,1331.5612769169993,7,-7,2,3.0,15.22528770899953,3.0,7.319816291000279,1315.9317833749992,1315.9335568339993,1316.3852297919993,1316.2190161249991,,,,,,,,1315.9283729999997,1315.9317374999991,None,,,,,,,,,,,204,bathroom,2,2024-03-15_15h07.38.157,image_similarity_rating,2023.2.3,None,2024-03-15 15h07.53.972934 +0100,
,113,129,284,284,stimuli/own/bathroom/113_bat.jpg,stimuli/own/bathroom/129_bat.jpg,,,,,,,,,0,86,86,283,1331.5669439999992,,,,,,,,,,,1331.851742375,1332.0181981249998,1332.0181981249998,1332.0181981249998,1332.0181981249998,1332.0181981249998,1332.0181981249998,1332.0181981249998,1332.0181981249998,1332.0181981249998,1344.9078681249994,-7,7,2,5.0,10.811425290999978,3.0,12.84738916600054,1331.5649262499992,1331.5669439999992,1332.0181981249998,1331.8517264999991,,,,,,,,1331.5614961249994,1331.5648798749999,None,,,,,,,,,,,204,bathroom,2,2024-03-15_15h07.38.157,image_similarity_rating,2023.2.3,None,2024-03-15 15h07.53.972934 +0100,
,113,126,282,282,stimuli/own/bathroom/113_bat.jpg,stimuli/own/bathroom/126_bat.jpg,,,,,,,,,0,87,87,281,1344.9172505839997,,,,,,,,,,,1345.2024688749998,1345.3752118749999,1345.3752118749999,1345.3752118749999,1345.3752118749999,1345.3752118749999,1345.3752118749999,1345.3752118749999,1345.3752118749999,1345.3752118749999,1354.1569534589999,7,-7,2,2.0,6.329508208000334,3.0,8.48545012500017,1344.9116108749995,1344.9172505839997,1345.3752118749999,1345.2024515839994,,,,,,,,1344.9080881669997,1344.9115642499992,None,,,,,,,,,,,204,bathroom,2,2024-03-15_15h07.38.157,image_similarity_rating,2023.2.3,None,2024-03-15 15h07.53.972934 +0100,
,102,125,53,53,stimuli/own/bathroom/102_bat.jpg,stimuli/own/bathroom/125_bat.jpg,,,,,,,,,0,88,88,52,1354.1675109169992,,,,,,,,,,,1354.4523836669996,1354.6186524999994,1354.6186524999994,1354.6186524999994,1354.6186524999994,1354.6186524999994,1354.6186524999994,1354.6186524999994,1354.6186524999994,1354.6186524999994,1377.903647917,-7,7,2,5.0,23.294974458999604,2.0,12.886098040999968,1354.1606090839996,1354.1675109169992,1354.6186524999994,1354.4523700419995,,,,,,,,1354.1571763749998,1354.1605622089992,None,,,,,,,,,,,204,bathroom,2,2024-03-15_15h07.38.157,image_similarity_rating,2023.2.3,None,2024-03-15 15h07.53.972934 +0100,
,119,137,401,401,stimuli/own/bathroom/119_bat.jpg,stimuli/own/bathroom/137_bat.jpg,,,,,,,,,0,89,89,400,1377.909246667,,,,,,,,,,,1378.2015996669998,1378.368017375,1378.368017375,1378.368017375,1378.368017375,1378.368017375,1378.368017375,1378.368017375,1378.368017375,1378.368017375,1384.007238917,7,-7,2,1.0,5.615493541999967,1.0,1.869667875000232,1377.9072888749997,1377.909246667,1378.368017375,1378.2015865839994,,,,,,,,1377.9038687499997,1377.9072422089994,None,,,,,,,,,,,204,bathroom,2,2024-03-15_15h07.38.157,image_similarity_rating,2023.2.3,None,2024-03-15 15h07.53.972934 +0100,
,101,120,15,15,stimuli/own/bathroom/101_bat.jpg,stimuli/own/bathroom/120_bat.jpg,,,,,,,,,0,90,90,14,1384.0169598339999,,,,,,,,,,,1384.302053417,1384.4686729169998,1384.4686729169998,1384.4686729169998,1384.4686729169998,1384.4686729169998,1384.4686729169998,1384.4686729169998,1384.4686729169998,1384.4686729169998,1394.2528357919991,7,-7,2,3.0,9.85933954200027,2.0,3.461746334000054,1384.0108972499993,1384.0169598339999,1384.4686729169998,1384.3020391669997,,,,,,,,1384.0074607919996,1384.01085075,None,,,,,,,,,,,204,bathroom,2,2024-03-15_15h07.38.157,image_similarity_rating,2023.2.3,None,2024-03-15 15h07.53.972934 +0100,
,106,131,180,180,stimuli/own/bathroom/106_bat.jpg,stimuli/own/bathroom/131_bat.jpg,,,,,,,,,0,91,91,179,1394.2585087089992,,,,,,,,,,,1394.5520522919996,1394.7171887089999,1394.7171887089999,1394.7171887089999,1394.7171887089999,1394.7171887089999,1394.7171887089999,1394.7171887089999,1394.7171887089999,1394.7171887089999,1400.6526429589994,7,-7,2,1.0,5.845937249999224,1.0,3.1430840419998276,1394.2565875839991,1394.2585087089992,1394.7171887089999,1394.5520381669994,,,,,,,,1394.2530551669997,1394.2565410839998,None,,,,,,,,,,,204,bathroom,2,2024-03-15_15h07.38.157,image_similarity_rating,2023.2.3,None,2024-03-15 15h07.53.972934 +0100,
,111,113,219,219,stimuli/own/bathroom/111_bat.jpg,stimuli/own/bathroom/113_bat.jpg,,,,,,,,,0,92,92,218,1400.6582050419993,,,,,,,,,,,1400.9514972499992,1401.1248798749994,1401.1248798749994,1401.1248798749994,1401.1248798749994,1401.1248798749994,1401.1248798749994,1401.1248798749994,1401.1248798749994,1401.1248798749994,1412.9778713339992,-7,7,2,4.0,11.795262665999871,1.0,7.292884249999588,1400.656277917,1400.6582050419993,1401.1248798749994,1400.9514817089994,,,,,,,,1400.6528628749993,1400.6562317919997,None,,,,,,,,,,,204,bathroom,2,2024-03-15_15h07.38.157,image_similarity_rating,2023.2.3,None,2024-03-15 15h07.53.972934 +0100,
,105,112,134,134,stimuli/own/bathroom/105_bat.jpg,stimuli/own/bathroom/112_bat.jpg,,,,,,,,,0,93,93,133,1412.9835632919994,,,,,,,,,,,1413.2691007919993,1413.4348725,1413.4348725,1413.4348725,1413.4348725,1413.4348725,1413.4348725,1413.4348725,1413.4348725,1413.4348725,1420.9358660839998,7,-7,2,2.0,7.468771416999516,1.0,2.413900624999769,1412.9816298749993,1412.9835632919994,1413.4348725,1413.2690814999996,,,,,,,,1412.9780910419995,1412.9815838749992,None,,,,,,,,,,,204,bathroom,2,2024-03-15_15h07.38.157,image_similarity_rating,2023.2.3,None,2024-03-15 15h07.53.972934 +0100,
,132,140,566,566,stimuli/own/bathroom/132_bat.jpg,stimuli/own/bathroom/140_bat.jpg,,,,,,,,,0,94,94,565,1420.9412864999995,,,,,,,,,,,1421.2349791669994,1421.4075723339993,1421.4075723339993,1421.4075723339993,1421.4075723339993,1421.4075723339993,1421.4075723339993,1421.4075723339993,1421.4075723339993,1421.4075723339993,1435.3441852919996,7,-7,2,6.0,13.928278166999917,4.0,6.013247332999526,1420.9395217499996,1420.9412864999995,1421.4075723339993,1421.2349568749996,,,,,,,,1420.936097709,1420.9394758749995,None,,,,,,,,,,,204,bathroom,2,2024-03-15_15h07.38.157,image_similarity_rating,2023.2.3,None,2024-03-15 15h07.53.972934 +0100,
,111,140,243,243,stimuli/own/bathroom/111_bat.jpg,stimuli/own/bathroom/140_bat.jpg,,,,,,,,,0,95,95,242,1435.3501297499997,,,,,,,,,,,1435.6359440419992,1435.8009186249992,1435.8009186249992,1435.8009186249992,1435.8009186249992,1435.8009186249992,1435.8009186249992,1435.8009186249992,1435.8009186249992,1435.8009186249992,1442.4821651249995,-7,7,2,4.0,6.640292332999707,3.0,1.852984249999281,1435.3478242089996,1435.3501297499997,1435.8009186249992,1435.6359285839999,,,,,,,,1435.3444047919993,1435.3477779169998,None,,,,,,,,,,,204,bathroom,2,2024-03-15_15h07.38.157,image_similarity_rating,2023.2.3,None,2024-03-15 15h07.53.972934 +0100,
,131,139,557,557,stimuli/own/bathroom/131_bat.jpg,stimuli/own/bathroom/139_bat.jpg,,,,,,,,,0,96,96,556,1442.4876795419996,,,,,,,,,,,1442.7723527499993,1442.9443619589993,1442.9443619589993,1442.9443619589993,1442.9443619589993,1442.9443619589993,1442.9443619589993,1442.9443619589993,1442.9443619589993,1442.9443619589993,1452.319335917,-7,7,2,2.0,9.300269334000404,1.0,1.932355999999345,1442.485859417,1442.4876795419996,1442.9443619589993,1442.7723334999991,,,,,,,,1442.4823907089994,1442.4858119169994,None,,,,,,,,,,,204,bathroom,2,2024-03-15_15h07.38.157,image_similarity_rating,2023.2.3,None,2024-03-15 15h07.53.972934 +0100,
,102,116,44,44,stimuli/own/bathroom/102_bat.jpg,stimuli/own/bathroom/116_bat.jpg,,,,,,,,,0,97,97,43,1452.324909,,,,,,,,,,,1452.6179359169992,1452.7841128339996,1452.7841128339996,1452.7841128339996,1452.7841128339996,1452.7841128339996,1452.7841128339996,1452.7841128339996,1452.7841128339996,1452.7841128339996,1462.706563875,7,-7,2,3.0,9.897374582999873,1.0,1.563857750000352,1452.3229886669997,1452.324909,1452.7841128339996,1452.6179227919993,,,,,,,,1452.3195576669996,1452.3229428339992,None,,,,,,,,,,,204,bathroom,2,2024-03-15_15h07.38.157,image_similarity_rating,2023.2.3,None,2024-03-15 15h07.53.972934 +0100,
,106,111,162,162,stimuli/own/bathroom/106_bat.jpg,stimuli/own/bathroom/111_bat.jpg,,,,,,,,,0,98,98,161,1462.716917625,,,,,,,,,,,1463.0021176669998,1463.1687797499999,1463.1687797499999,1463.1687797499999,1463.1687797499999,1463.1687797499999,1463.1687797499999,1463.1687797499999,1463.1687797499999,1463.1687797499999,1469.3729229169994,7,-7,2,2.0,6.0688141669998,1.0,1.6692351659994529,1462.7102095839991,1462.716917625,1463.1687797499999,1463.0021030419994,,,,,,,,1462.7067842499991,1462.7101635419995,None,,,,,,,,,,,204,bathroom,2,2024-03-15_15h07.38.157,image_similarity_rating,2023.2.3,None,2024-03-15 15h07.53.972934 +0100,
,127,131,520,520,stimuli/own/bathroom/127_bat.jpg,stimuli/own/bathroom/131_bat.jpg,,,,,,,,,0,99,99,519,1469.3833916669992,,,,,,,,,,,1469.6680297919993,1469.8355954999997,1469.8355954999997,1469.8355954999997,1469.8355954999997,1469.8355954999997,1469.8355954999997,1469.8355954999997,1469.8355954999997,1469.8355954999997,1479.5819567089993,7,-7,2,1.0,9.633091792000414,1.0,1.9933069999997315,1469.3766803749995,1469.3833916669992,1469.8355954999997,1469.6680146249992,,,,,,,,1469.373143459,1469.3766338339992,None,,,,,,,,,,,204,bathroom,2,2024-03-15_15h07.38.157,image_similarity_rating,2023.2.3,None,2024-03-15 15h07.53.972934 +0100,
,116,134,335,335,stimuli/own/bathroom/116_bat.jpg,stimuli/own/bathroom/134_bat.jpg,,,,,,,,,0,100,100,334,1479.5874041669995,,,,,,,,,,,1479.872547084,1480.037772875,1480.037772875,1480.037772875,1480.037772875,1480.037772875,1480.037772875,1480.037772875,1480.037772875,1480.037772875,1487.4699217499992,-7,7,2,3.0,7.375572667000597,1.0,1.512945084000421,1479.5856657089998,1479.5874041669995,1480.037772875,1479.8725335419995,,,,,,,,1479.5821834589997,1479.5856168749997,None,,,,,,,,,,,204,bathroom,2,2024-03-15_15h07.38.157,image_similarity_rating,2023.2.3,None,2024-03-15 15h07.53.972934 +0100,
,135,141,580,580,stimuli/own/bathroom/135_bat.jpg,stimuli/own/bathroom/141_bat.jpg,,,,,,,,,0,101,101,579,1487.483313709,,,,,,,,,,,1487.7681096669994,1487.9404969999996,1487.9404969999996,1487.9404969999996,1487.9404969999996,1487.9404969999996,1487.9404969999996,1487.9404969999996,1487.9404969999996,1487.9404969999996,1497.5991325839996,-7,7,2,6.0,9.399782167000012,2.0,1.9419581249994735,1487.4739155419993,1487.483313709,1487.9404969999996,1487.768092292,,,,,,,,1487.4701668749994,1487.4738653339991,None,,,,,,,,,,,204,bathroom,2,2024-03-15_15h07.38.157,image_similarity_rating,2023.2.3,None,2024-03-15 15h07.53.972934 +0100,
,105,137,156,156,stimuli/own/bathroom/105_bat.jpg,stimuli/own/bathroom/137_bat.jpg,,,,,,,,,0,102,102,155,1497.6049387919993,,,,,,,,,,,1497.8884283749994,1498.0540605839997,1498.0540605839997,1498.0540605839997,1498.0540605839997,1498.0540605839997,1498.0540605839997,1498.0540605839997,1498.0540605839997,1498.0540605839997,1502.5356366669994,7,-7,2,1.0,4.494443374999719,1.0,1.777716583000256,1497.6029317499997,1497.6049387919993,1498.0540605839997,1497.8884157499997,,,,,,,,1497.5993628339993,1497.6028847499992,None,,,,,,,,,,,204,bathroom,2,2024-03-15_15h07.38.157,image_similarity_rating,2023.2.3,None,2024-03-15 15h07.53.972934 +0100,
,126,141,517,517,stimuli/own/bathroom/126_bat.jpg,stimuli/own/bathroom/141_bat.jpg,,,,,,,,,0,103,103,516,1502.5410334589997,,,,,,,,,,,1502.8356438749997,1503.001257084,1503.001257084,1503.001257084,1503.001257084,1503.001257084,1503.001257084,1503.001257084,1503.001257084,1503.001257084,1515.0697461669997,7,-7,2,5.0,12.104615333000766,1.0,4.03929854099988,1502.5392810839994,1502.5410334589997,1503.001257084,1502.8356304589997,,,,,,,,1502.5358674589997,1502.5392348339992,None,,,,,,,,,,,204,bathroom,2,2024-03-15_15h07.38.157,image_similarity_rating,2023.2.3,None,2024-03-15 15h07.53.972934 +0100,
,118,134,378,378,stimuli/own/bathroom/118_bat.jpg,stimuli/own/bathroom/134_bat.jpg,,,,,,,,,0,104,104,377,1515.0756177089997,,,,,,,,,,,1515.368012334,1515.532412042,1515.532412042,1515.532412042,1515.532412042,1515.532412042,1515.532412042,1515.532412042,1515.532412042,1515.532412042,1524.4874637499997,7,-7,2,3.0,8.97052233300019,1.0,1.5436786669997673,1515.0735021669998,1515.0756177089997,1515.532412042,1515.367998584,,,,,,,,1515.0699679589998,1515.07345575,None,,,,,,,,,,,204,bathroom,2,2024-03-15_15h07.38.157,image_similarity_rating,2023.2.3,None,2024-03-15 15h07.53.972934 +0100,
,111,121,226,226,stimuli/own/bathroom/111_bat.jpg,stimuli/own/bathroom/121_bat.jpg,,,,,,,,,0,105,105,225,1524.4998496669996,,,,,,,,,,,1524.784734334,1524.953937542,1524.953937542,1524.953937542,1524.953937542,1524.953937542,1524.953937542,1524.953937542,1524.953937542,1524.953937542,1532.6937976669997,-7,7,2,5.0,7.665498208999452,3.0,5.316474375000325,1524.4910892089993,1524.4998496669996,1524.953937542,1524.784717042,,,,,,,,1524.487683542,1524.4910430419995,None,,,,,,,,,,,204,bathroom,2,2024-03-15_15h07.38.157,image_similarity_rating,2023.2.3,None,2024-03-15 15h07.53.972934 +0100,
,129,137,536,536,stimuli/own/bathroom/129_bat.jpg,stimuli/own/bathroom/137_bat.jpg,,,,,,,,,0,106,106,535,1532.699809625,,,,,,,,,,,1532.9845288749993,1533.1552953339997,1533.1552953339997,1533.1552953339997,1533.1552953339997,1533.1552953339997,1533.1552953339997,1533.1552953339997,1533.1552953339997,1533.1552953339997,1545.6565601249995,-7,7,2,4.0,12.467359708999538,1.0,2.154082333000588,1532.6974337499996,1532.699809625,1533.1552953339997,1532.9845116669994,,,,,,,,1532.6940175,1532.6973847499994,None,,,,,,,,,,,204,bathroom,2,2024-03-15_15h07.38.157,image_similarity_rating,2023.2.3,None,2024-03-15 15h07.53.972934 +0100,
,109,125,203,203,stimuli/own/bathroom/109_bat.jpg,stimuli/own/bathroom/125_bat.jpg,,,,,,,,,0,107,107,202,1545.6664585419994,,,,,,,,,,,1545.9522386249992,1546.1181045419999,1546.1181045419999,1546.1181045419999,1546.1181045419999,1546.1181045419999,1546.1181045419999,1546.1181045419999,1546.1181045419999,1546.1181045419999,1553.448514875,-7,7,2,5.0,7.330480667000302,2.0,1.9330486660001043,1545.6601866249994,1545.6664585419994,1546.1181045419999,1545.9522239999997,,,,,,,,1545.656780667,1545.6601405419997,None,,,,,,,,,,,204,bathroom,2,2024-03-15_15h07.38.157,image_similarity_rating,2023.2.3,None,2024-03-15 15h07.53.972934 +0100,
,125,135,498,498,stimuli/own/bathroom/125_bat.jpg,stimuli/own/bathroom/135_bat.jpg,,,,,,,,,0,108,108,497,1553.4542053339992,,,,,,,,,,,1553.7386849589993,1553.9034332499996,1553.9034332499996,1553.9034332499996,1553.9034332499996,1553.9034332499996,1553.9034332499996,1553.9034332499996,1553.9034332499996,1553.9034332499996,1563.8988620419996,-7,7,2,4.0,9.86692262500037,1.0,2.3808149169999524,1553.452177792,1553.4542053339992,1553.9034332499996,1553.7386742089993,,,,,,,,1553.4487419999996,1553.45213075,None,,,,,,,,,,,204,bathroom,2,2024-03-15_15h07.38.157,image_similarity_rating,2023.2.3,None,2024-03-15 15h07.53.972934 +0100,
,132,136,562,562,stimuli/own/bathroom/132_bat.jpg,stimuli/own/bathroom/136_bat.jpg,,,,,,,,,0,109,109,561,1563.9047189169996,,,,,,,,,,,1564.1901028749999,1564.3548683339995,1564.3548683339995,1564.3548683339995,1564.3548683339995,1564.3548683339995,1564.3548683339995,1564.3548683339995,1564.3548683339995,1564.3548683339995,1573.049039042,7,-7,2,6.0,8.654954999999973,2.0,2.0845625419997305,1563.9026269589995,1563.9047189169996,1564.3548683339995,1564.1900889589997,,,,,,,,1563.8990816249998,1563.9025806669997,None,,,,,,,,,,,204,bathroom,2,2024-03-15_15h07.38.157,image_similarity_rating,2023.2.3,None,2024-03-15 15h07.53.972934 +0100,
,109,131,208,208,stimuli/own/bathroom/109_bat.jpg,stimuli/own/bathroom/131_bat.jpg,,,,,,,,,0,110,110,207,1573.0544733339993,,,,,,,,,,,1573.3387112499995,1573.5088271669993,1573.5088271669993,1573.5088271669993,1573.5088271669993,1573.5088271669993,1573.5088271669993,1573.5088271669993,1573.5088271669993,1573.5088271669993,1577.3895602919993,7,-7,2,1.0,3.806191624999883,1.0,1.9154820000003383,1573.0527202499998,1573.0544733339993,1573.5088271669993,1573.3386956669992,,,,,,,,1573.0492584999993,1573.0526732919998,None,,,,,,,,,,,204,bathroom,2,2024-03-15_15h07.38.157,image_similarity_rating,2023.2.3,None,2024-03-15 15h07.53.972934 +0100,
,119,127,393,393,stimuli/own/bathroom/119_bat.jpg,stimuli/own/bathroom/127_bat.jpg,,,,,,,,,0,111,111,392,1577.3997829999998,,,,,,,,,,,1577.6843118749994,1577.8507156249998,1577.8507156249998,1577.8507156249998,1577.8507156249998,1577.8507156249998,1577.8507156249998,1577.8507156249998,1577.8507156249998,1577.8507156249998,1588.1604647089998,-7,7,2,4.0,10.290305417000127,1.0,2.3865045410002494,1577.3932601249999,1577.3997829999998,1577.8507156249998,1577.6842966249997,,,,,,,,1577.3897806669993,1577.3932138339997,None,,,,,,,,,,,204,bathroom,2,2024-03-15_15h07.38.157,image_similarity_rating,2023.2.3,None,2024-03-15 15h07.53.972934 +0100,
,105,117,138,596,stimuli/own/bathroom/105_bat.jpg,stimuli/own/bathroom/117_bat.jpg,,,,,,,,,0,112,112,595,1588.1662809589998,,,,,,,,,,,1588.450940834,1588.6191969169995,1588.6191969169995,1588.6191969169995,1588.6191969169995,1588.6191969169995,1588.6191969169995,1588.6191969169995,1588.6191969169995,1588.6191969169995,1597.2604593749993,7,-7,2,1.0,8.566613666000194,2.0,2.1625568330000533,1588.1641759169997,1588.1662809589998,1588.6191969169995,1588.450923167,,,,,,,,1588.160686542,1588.1641299999992,None,,,,,,,,,,,204,bathroom,2,2024-03-15_15h07.38.157,image_similarity_rating,2023.2.3,None,2024-03-15 15h07.53.972934 +0100,
,105,125,146,146,stimuli/own/bathroom/105_bat.jpg,stimuli/own/bathroom/125_bat.jpg,,,,,,,,,0,113,113,145,1597.2659611669997,,,,,,,,,,,1597.5511895419995,1597.7154156669994,1597.7154156669994,1597.7154156669994,1597.7154156669994,1597.7154156669994,1597.7154156669994,1597.7154156669994,1597.7154156669994,1597.7154156669994,1602.6436891249996,-7,7,2,1.0,4.901803333999851,1.0,3.1683249580000847,1597.2640667919995,1597.2659611669997,1597.7154156669994,1597.551175875,,,,,,,,1597.2606822089992,1597.2640200839996,None,,,,,,,,,,,204,bathroom,2,2024-03-15_15h07.38.157,image_similarity_rating,2023.2.3,None,2024-03-15 15h07.53.972934 +0100,
,129,139,538,538,stimuli/own/bathroom/129_bat.jpg,stimuli/own/bathroom/139_bat.jpg,,,,,,,,,0,114,114,537,1602.6495079999995,,,,,,,,,,,1602.9342026249997,1603.1030248339994,1603.1030248339994,1603.1030248339994,1603.1030248339994,1603.1030248339994,1603.1030248339994,1603.1030248339994,1603.1030248339994,1603.1030248339994,1610.1899295839994,-7,7,2,3.0,7.063303500000075,1.0,2.1694538330002615,1602.6473833749997,1602.6495079999995,1603.1030248339994,1602.9341775839994,,,,,,,,1602.6439083339992,1602.6473373339995,None,,,,,,,,,,,204,bathroom,2,2024-03-15_15h07.38.157,image_similarity_rating,2023.2.3,None,2024-03-15 15h07.53.972934 +0100,
,104,121,112,112,stimuli/own/bathroom/104_bat.jpg,stimuli/own/bathroom/121_bat.jpg,,,,,,,,,0,115,115,111,1610.1995720839996,,,,,,,,,,,1610.4855479169992,1610.6573688339995,1610.6573688339995,1610.6573688339995,1610.6573688339995,1610.6573688339995,1610.6573688339995,1610.6573688339995,1610.6573688339995,1610.6573688339995,1624.9687314169996,7,-7,2,3.0,14.299963666999247,1.0,2.04077366599995,1610.1935420419995,1610.1995720839996,1610.6573688339995,1610.485528792,,,,,,,,1610.190158167,1610.1934959589998,None,,,,,,,,,,,204,bathroom,2,2024-03-15_15h07.38.157,image_similarity_rating,2023.2.3,None,2024-03-15 15h07.53.972934 +0100,
,105,127,148,148,stimuli/own/bathroom/105_bat.jpg,stimuli/own/bathroom/127_bat.jpg,,,,,,,,,0,116,116,147,1624.9743471249994,,,,,,,,,,,1625.2684964589998,1625.4351688749994,1625.4351688749994,1625.4351688749994,1625.4351688749994,1625.4351688749994,1625.4351688749994,1625.4351688749994,1625.4351688749994,1625.4351688749994,1629.2695355419992,7,-7,2,1.0,3.792973874999916,1.0,1.657209208000495,1624.9723422089992,1624.9743471249994,1625.4351688749994,1625.2684825839997,,,,,,,,1624.9689532919992,1624.972296209,None,,,,,,,,,,,204,bathroom,2,2024-03-15_15h07.38.157,image_similarity_rating,2023.2.3,None,2024-03-15 15h07.53.972934 +0100,
,113,130,285,285,stimuli/own/bathroom/113_bat.jpg,stimuli/own/bathroom/130_bat.jpg,,,,,,,,,0,117,117,284,1629.2751591669994,,,,,,,,,,,1629.567462,1629.7321333339996,1629.7321333339996,1629.7321333339996,1629.7321333339996,1629.7321333339996,1629.7321333339996,1629.7321333339996,1629.7321333339996,1629.7321333339996,1643.6862498339997,7,-7,2,4.0,13.93864554099946,1.0,3.356387416999496,1629.2732263339994,1629.2751591669994,1629.7321333339996,1629.5674471249995,,,,,,,,1629.2697584999996,1629.2731799999992,None,,,,,,,,,,,204,bathroom,2,2024-03-15_15h07.38.157,image_similarity_rating,2023.2.3,None,2024-03-15 15h07.53.972934 +0100,
,109,141,217,217,stimuli/own/bathroom/109_bat.jpg,stimuli/own/bathroom/141_bat.jpg,,,,,,,,,0,118,118,216,1643.6918190839997,,,,,,,,,,,1643.9846615839997,1644.1509253749991,1644.1509253749991,1644.1509253749991,1644.1509253749991,1644.1509253749991,1644.1509253749991,1644.1509253749991,1644.1509253749991,1644.1509253749991,1654.1017992919997,-7,7,2,3.0,9.962228166000386,1.0,1.4920339579994106,1643.6900242089996,1643.6918190839997,1644.1509253749991,1643.9846459169994,,,,,,,,1643.6864704169993,1643.6899776249993,None,,,,,,,,,,,204,bathroom,2,2024-03-15_15h07.38.157,image_similarity_rating,2023.2.3,None,2024-03-15 15h07.53.972934 +0100,
,121,125,428,428,stimuli/own/bathroom/121_bat.jpg,stimuli/own/bathroom/125_bat.jpg,,,,,,,,,0,119,119,427,1654.1073254169996,,,,,,,,,,,1654.4013875419996,1654.5669189169994,1654.5669189169994,1654.5669189169994,1654.5669189169994,1654.5669189169994,1654.5669189169994,1654.5669189169994,1654.5669189169994,1654.5669189169994,1664.5079010419995,7,-7,2,3.0,9.12580933299978,1.0,4.596938458000295,1654.1055214589996,1654.1073254169996,1654.5669189169994,1654.401373625,,,,,,,,1654.102020542,1654.1054756249996,None,,,,,,,,,,,204,bathroom,2,2024-03-15_15h07.38.157,image_similarity_rating,2023.2.3,None,2024-03-15 15h07.53.972934 +0100,
,116,122,325,325,stimuli/own/bathroom/116_bat.jpg,stimuli/own/bathroom/122_bat.jpg,,,,,,,,,0,120,120,324,1664.5160966249996,,,,,,,,,,,1664.801315875,1664.9670016669997,1664.9670016669997,1664.9670016669997,1664.9670016669997,1664.9670016669997,1664.9670016669997,1664.9670016669997,1664.9670016669997,1664.9670016669997,1673.610408042,-7,7,2,3.0,8.542872500000158,1.0,2.825131667000278,1664.5116584589996,1664.5160966249996,1664.9670016669997,1664.8013016249997,,,,,,,,1664.5081228339996,1664.511611334,None,,,,,,,,,,,204,bathroom,2,2024-03-15_15h07.38.157,image_similarity_rating,2023.2.3,None,2024-03-15 15h07.53.972934 +0100,
,102,135,61,61,stimuli/own/bathroom/102_bat.jpg,stimuli/own/bathroom/135_bat.jpg,,,,,,,,,0,121,121,60,1673.6160014999996,,,,,,,,,,,1673.9018091669996,1674.0695606669997,1674.0695606669997,1674.0695606669997,1674.0695606669997,1674.0695606669997,1674.0695606669997,1674.0695606669997,1674.0695606669997,1674.0695606669997,1687.3601174589994,-7,7,2,3.0,13.252302332999534,3.0,7.1862528340006975,1673.6141916249999,1673.6160014999996,1674.0695606669997,1673.9017932499992,,,,,,,,1673.6106270839991,1673.6141450839996,None,,,,,,,,,,,204,bathroom,2,2024-03-15_15h07.38.157,image_similarity_rating,2023.2.3,None,2024-03-15 15h07.53.972934 +0100,
,127,129,518,518,stimuli/own/bathroom/127_bat.jpg,stimuli/own/bathroom/129_bat.jpg,,,,,,,,,0,122,122,517,1687.3657838749996,,,,,,,,,,,1687.6506024999999,1687.8191200839992,1687.8191200839992,1687.8191200839992,1687.8191200839992,1687.8191200839992,1687.8191200839992,1687.8191200839992,1687.8191200839992,1687.8191200839992,1698.5517285839996,-7,7,2,3.0,10.696659457999885,4.0,1.8033356249998178,1687.3638981669992,1687.3657838749996,1687.8191200839992,1687.650575834,,,,,,,,1687.3603356669992,1687.3638517089994,None,,,,,,,,,,,204,bathroom,2,2024-03-15_15h07.38.157,image_similarity_rating,2023.2.3,None,2024-03-15 15h07.53.972934 +0100,
,120,132,416,416,stimuli/own/bathroom/120_bat.jpg,stimuli/own/bathroom/132_bat.jpg,,,,,,,,,0,123,123,415,1698.5571885419995,,,,,,,,,,,1698.8506614589996,1699.0210709589992,1699.0210709589992,1699.0210709589992,1699.0210709589992,1699.0210709589992,1699.0210709589992,1699.0210709589992,1699.0210709589992,1699.0210709589992,1709.855909084,7,-7,2,2.0,10.862473000000136,2.0,1.8404693749998842,1698.5553612919994,1698.5571885419995,1699.0210709589992,1698.8506449589995,,,,,,,,1698.551949625,1698.5553150839996,None,,,,,,,,,,,204,bathroom,2,2024-03-15_15h07.38.157,image_similarity_rating,2023.2.3,None,2024-03-15 15h07.53.972934 +0100,
,117,122,347,347,stimuli/own/bathroom/117_bat.jpg,stimuli/own/bathroom/122_bat.jpg,,,,,,,,,0,124,124,346,1709.8659440839992,,,,,,,,,,,1710.1510062089992,1710.316287875,1710.316287875,1710.316287875,1710.316287875,1710.316287875,1710.316287875,1710.316287875,1710.316287875,1710.316287875,1724.918421542,7,-7,2,5.0,9.96991933299978,3.0,14.2408677909998,1709.8596685839993,1709.8659440839992,1710.316287875,1710.1509928749992,,,,,,,,1709.8561314589997,1709.8596221669995,None,,,,,,,,,,,204,bathroom,2,2024-03-15_15h07.38.157,image_similarity_rating,2023.2.3,None,2024-03-15 15h07.53.972934 +0100,
,105,114,136,136,stimuli/own/bathroom/105_bat.jpg,stimuli/own/bathroom/114_bat.jpg,,,,,,,,,0,125,125,135,1724.92415575,,,,,,,,,,,1725.2177760839995,1725.382601292,1725.382601292,1725.382601292,1725.382601292,1725.382601292,1725.382601292,1725.382601292,1725.382601292,1725.382601292,1728.8224713339996,7,-7,2,1.0,3.43670608299999,1.0,1.8009438330000194,1724.9220666669999,1724.92415575,1725.382601292,1725.2177618339992,,,,,,,,1724.9186445419991,1724.9220197089999,None,,,,,,,,,,,204,bathroom,2,2024-03-15_15h07.38.157,image_similarity_rating,2023.2.3,None,2024-03-15 15h07.53.972934 +0100,
,112,131,261,261,stimuli/own/bathroom/112_bat.jpg,stimuli/own/bathroom/131_bat.jpg,,,,,,,,,0,126,126,260,1728.8324562919997,,,,,,,,,,,1730.717054875,1730.890353709,1730.890353709,1730.890353709,1730.890353709,1730.890353709,1730.890353709,1730.890353709,1730.890353709,1730.890353709,1748.847775917,-7,7,3,1.0,17.947632375000467,1.0,7.66649120800048,1730.4200541669998,1730.4239102089996,1730.890353709,1730.7170362089992,,,,,,,,1728.8226904999992,1730.419430334,space,1728.8324562919997,1.5867372499997145,None,,,,,,,,204,bathroom,2,2024-03-15_15h07.38.157,image_similarity_rating,2023.2.3,None,2024-03-15 15h07.53.972934 +0100,
,102,139,65,65,stimuli/own/bathroom/102_bat.jpg,stimuli/own/bathroom/139_bat.jpg,,,,,,,,,0,127,127,64,1748.8539120419991,,,,,,,,,,,1749.1377615419997,1749.3036775419996,1749.3036775419996,1749.3036775419996,1749.3036775419996,1749.3036775419996,1749.3036775419996,1749.3036775419996,1749.3036775419996,1749.3036775419996,1756.9236345,-7,7,3,2.0,7.649176292000448,1.0,1.6500750410004912,1748.8519894169995,1748.8539120419991,1749.3036775419996,1749.1377482919997,,,,,,,,1748.8479956669999,1748.8519416249992,None,,,,,,,,,,,204,bathroom,2,2024-03-15_15h07.38.157,image_similarity_rating,2023.2.3,None,2024-03-15 15h07.53.972934 +0100,
,124,135,484,484,stimuli/own/bathroom/124_bat.jpg,stimuli/own/bathroom/135_bat.jpg,,,,,,,,,0,128,128,483,1756.9323680839998,,,,,,,,,,,1757.2170764169996,1757.3845696669996,1757.3845696669996,1757.3845696669996,1757.3845696669996,1757.3845696669996,1757.3845696669996,1757.3845696669996,1757.3845696669996,1757.3845696669996,1772.2932744589998,-7,7,3,5.0,14.919612708000386,2.0,2.493573791000017,1756.9272769589998,1756.9323680839998,1757.3845696669996,1757.2170605839992,,,,,,,,1756.9238562089995,1756.9272303339994,None,,,,,,,,,,,204,bathroom,2,2024-03-15_15h07.38.157,image_similarity_rating,2023.2.3,None,2024-03-15 15h07.53.972934 +0100,
,102,141,67,67,stimuli/own/bathroom/102_bat.jpg,stimuli/own/bathroom/141_bat.jpg,,,,,,,,,0,129,129,66,1772.2990303749993,,,,,,,,,,,1772.5844822089994,1772.7508711669998,1772.7508711669998,1772.7508711669998,1772.7508711669998,1772.7508711669998,1772.7508711669998,1772.7508711669998,1772.7508711669998,1772.7508711669998,1784.4389620839993,-7,7,3,2.0,11.705692417000137,2.0,3.268281874999957,1772.2971558749996,1772.2990303749993,1772.7508711669998,1772.5844684589993,,,,,,,,1772.2934955419996,1772.2971066249993,None,,,,,,,,,,,204,bathroom,2,2024-03-15_15h07.38.157,image_similarity_rating,2023.2.3,None,2024-03-15 15h07.53.972934 +0100,
,113,122,278,278,stimuli/own/bathroom/113_bat.jpg,stimuli/own/bathroom/122_bat.jpg,,,,,,,,,0,130,130,277,1784.4489615839993,,,,,,,,,,,1784.7335486249995,1784.8979764169999,1784.8979764169999,1784.8979764169999,1784.8979764169999,1784.8979764169999,1784.8979764169999,1784.8979764169999,1784.8979764169999,1784.8979764169999,1799.193174084,-7,7,3,2.0,10.805667625000751,1.0,1.7909976250002728,1784.4426039999998,1784.4489615839993,1784.8979764169999,1784.7335382499996,,,,,,,,1784.4391807089996,1784.4425577499997,None,,,,,,,,,,,204,bathroom,2,2024-03-15_15h07.38.157,image_similarity_rating,2023.2.3,None,2024-03-15 15h07.53.972934 +0100,
,116,130,332,332,stimuli/own/bathroom/116_bat.jpg,stimuli/own/bathroom/130_bat.jpg,,,,,,,,,0,131,131,331,1799.1986032919995,,,,,,,,,,,1799.483675167,1799.6506022919993,1799.6506022919993,1799.6506022919993,1799.6506022919993,1799.6506022919993,1799.6506022919993,1799.6506022919993,1799.6506022919993,1799.6506022919993,1807.9933053749992,7,-7,3,3.0,8.342250624999906,1.0,1.5443109170000753,1799.1968280419997,1799.1986032919995,1799.6506022919993,1799.4836591249996,,,,,,,,1799.1933974589992,1799.1967815839998,None,,,,,,,,,,,204,bathroom,2,2024-03-15_15h07.38.157,image_similarity_rating,2023.2.3,None,2024-03-15 15h07.53.972934 +0100,
,121,123,426,426,stimuli/own/bathroom/121_bat.jpg,stimuli/own/bathroom/123_bat.jpg,,,,,,,,,0,132,132,425,1807.9988227089998,,,,,,,,,,,1808.2837434589992,1808.4474557089998,1808.4474557089998,1808.4474557089998,1808.4474557089998,1808.4474557089998,1808.4474557089998,1808.4474557089998,1808.4474557089998,1808.4474557089998,1818.7721364999998,-7,7,3,2.0,10.208410291999826,2.0,3.1299622500000623,1807.9970462919991,1807.9988227089998,1808.4474557089998,1808.2837294169994,,,,,,,,1807.9935246249997,1807.9969993339992,None,,,,,,,,,,,204,bathroom,2,2024-03-15_15h07.38.157,image_similarity_rating,2023.2.3,None,2024-03-15 15h07.53.972934 +0100,
,118,136,380,380,stimuli/own/bathroom/118_bat.jpg,stimuli/own/bathroom/136_bat.jpg,,,,,,,,,0,133,133,379,1818.782185,,,,,,,,,,,1819.0668569169993,1819.2361320419996,1819.2361320419996,1819.2361320419996,1819.2361320419996,1819.2361320419996,1819.2361320419996,1819.2361320419996,1819.2361320419996,1819.2361320419996,1825.5189352499992,7,-7,3,4.0,6.255766958000095,1.0,1.4553555830007099,1818.775773417,1818.782185,1819.2361320419996,1819.0668287089993,,,,,,,,1818.7723588339995,1818.7757278749996,None,,,,,,,,,,,204,bathroom,2,2024-03-15_15h07.38.157,image_similarity_rating,2023.2.3,None,2024-03-15 15h07.53.972934 +0100,
,117,137,360,360,stimuli/own/bathroom/117_bat.jpg,stimuli/own/bathroom/137_bat.jpg,,,,,,,,,0,134,134,359,1825.5246874169998,,,,,,,,,,,1825.817889,1825.9839629999997,1825.9839629999997,1825.9839629999997,1825.9839629999997,1825.9839629999997,1825.9839629999997,1825.9839629999997,1825.9839629999997,1825.9839629999997,1836.6555913339998,7,-7,3,1.0,10.694023417000608,2.0,2.7076338339993526,1825.5225674169997,1825.5246874169998,1825.9839629999997,1825.8178732499991,,,,,,,,1825.5191598339998,1825.5225209999999,None,,,,,,,,,,,204,bathroom,2,2024-03-15_15h07.38.157,image_similarity_rating,2023.2.3,None,2024-03-15 15h07.53.972934 +0100,
,129,140,539,539,stimuli/own/bathroom/129_bat.jpg,stimuli/own/bathroom/140_bat.jpg,,,,,,,,,0,135,135,538,1836.6655170839995,,,,,,,,,,,1836.950498917,1837.115024709,1837.115024709,1837.115024709,1837.115024709,1837.115024709,1837.115024709,1837.115024709,1837.115024709,1837.115024709,1848.5179214169993,-7,7,3,1.0,11.312137583000549,3.0,1.8535905830003685,1836.6592232499997,1836.6655170839995,1837.115024709,1836.9504806249997,,,,,,,,1836.6558114589998,1836.6591778339998,None,,,,,,,,,,,204,bathroom,2,2024-03-15_15h07.38.157,image_similarity_rating,2023.2.3,None,2024-03-15 15h07.53.972934 +0100,
,122,130,449,449,stimuli/own/bathroom/122_bat.jpg,stimuli/own/bathroom/130_bat.jpg,,,,,,,,,0,136,136,448,1848.5234773749999,,,,,,,,,,,1848.8176853339992,1848.9821967089993,1848.9821967089993,1848.9821967089993,1848.9821967089993,1848.9821967089993,1848.9821967089993,1848.9821967089993,1848.9821967089993,1848.9821967089993,1861.8306970419999,7,-7,3,3.0,12.722368332999395,4.0,5.253034499999558,1848.5215564999999,1848.5234773749999,1848.9821967089993,1848.8176712919994,,,,,,,,1848.5181401249993,1848.5215106249998,None,,,,,,,,,,,204,bathroom,2,2024-03-15_15h07.38.157,image_similarity_rating,2023.2.3,None,2024-03-15 15h07.53.972934 +0100,
,120,130,414,414,stimuli/own/bathroom/120_bat.jpg,stimuli/own/bathroom/130_bat.jpg,,,,,,,,,0,137,137,413,1861.836474584,,,,,,,,,,,1862.1206822919994,1862.2865600839996,1862.2865600839996,1862.2865600839996,1862.2865600839996,1862.2865600839996,1862.2865600839996,1862.2865600839996,1862.2865600839996,1862.2865600839996,1873.214380292,-7,7,3,4.0,10.939169833999586,3.0,2.577190750000227,1861.8344697499997,1861.836474584,1862.2865600839996,1862.1206689589999,,,,,,,,1861.830916209,1861.8344236249995,None,,,,,,,,,,,204,bathroom,2,2024-03-15_15h07.38.157,image_similarity_rating,2023.2.3,None,2024-03-15 15h07.53.972934 +0100,
,136,141,585,585,stimuli/own/bathroom/136_bat.jpg,stimuli/own/bathroom/141_bat.jpg,,,,,,,,,0,138,138,584,1873.2198451669992,,,,,,,,,,,1873.5030754589998,1873.6666357499998,1873.6666357499998,1873.6666357499998,1873.6666357499998,1873.6666357499998,1873.6666357499998,1873.6666357499998,1873.6666357499998,1873.6666357499998,1880.2761499169992,-7,7,3,6.0,6.518853416000638,4.0,3.0447962079997524,1873.2180448339996,1873.2198451669992,1873.6666357499998,1873.5030650419994,,,,,,,,1873.2146042919994,1873.2179990839995,None,,,,,,,,,,,204,bathroom,2,2024-03-15_15h07.38.157,image_similarity_rating,2023.2.3,None,2024-03-15 15h07.53.972934 +0100,
,125,138,501,501,stimuli/own/bathroom/125_bat.jpg,stimuli/own/bathroom/138_bat.jpg,,,,,,,,,0,139,139,500,1880.2816700839994,,,,,,,,,,,1880.56684125,1880.7372567089997,1880.7372567089997,1880.7372567089997,1880.7372567089997,1880.7372567089997,1880.7372567089997,1880.7372567089997,1880.7372567089997,1880.7372567089997,1889.7177358339995,-7,7,3,3.0,9.03382454199982,1.0,2.2818771249994825,1880.2797764589995,1880.2816700839994,1880.7372567089997,1880.5668188749996,,,,,,,,1880.2763684169995,1880.2797309999996,None,,,,,,,,,,,204,bathroom,2,2024-03-15_15h07.38.157,image_similarity_rating,2023.2.3,None,2024-03-15 15h07.53.972934 +0100,
,116,140,341,341,stimuli/own/bathroom/116_bat.jpg,stimuli/own/bathroom/140_bat.jpg,,,,,,,,,0,140,140,340,1889.7231112919999,,,,,,,,,,,1890.0173925419995,1890.1833504999995,1890.1833504999995,1890.1833504999995,1890.1833504999995,1890.1833504999995,1890.1833504999995,1890.1833504999995,1890.1833504999995,1890.1833504999995,1898.1510290419992,7,-7,3,2.0,7.902977792000456,1.0,2.972890291999647,1889.7213459589993,1889.7231112919999,1890.1833504999995,1890.0173782089996,,,,,,,,1889.7179497089992,1889.7213004169998,None,,,,,,,,,,,204,bathroom,2,2024-03-15_15h07.38.157,image_similarity_rating,2023.2.3,None,2024-03-15 15h07.53.972934 +0100,
,119,126,392,392,stimuli/own/bathroom/119_bat.jpg,stimuli/own/bathroom/126_bat.jpg,,,,,,,,,0,141,141,391,1898.1565369999998,,,,,,,,,,,1898.4498394169996,1898.6156015839997,1898.6156015839997,1898.6156015839997,1898.6156015839997,1898.6156015839997,1898.6156015839997,1898.6156015839997,1898.6156015839997,1898.6156015839997,1910.1343151669998,-7,7,3,5.0,11.54288195800018,1.0,2.842071582999779,1898.1547764589995,1898.1565369999998,1898.6156015839997,1898.449824667,,,,,,,,1898.1512461249995,1898.1547302499994,None,,,,,,,,,,,204,bathroom,2,2024-03-15_15h07.38.157,image_similarity_rating,2023.2.3,None,2024-03-15 15h07.53.972934 +0100,
,126,134,510,510,stimuli/own/bathroom/126_bat.jpg,stimuli/own/bathroom/134_bat.jpg,,,,,,,,,0,142,142,509,1910.1400603339998,,,,,,,,,,,1910.4331992499992,1910.599271917,1910.599271917,1910.599271917,1910.599271917,1910.599271917,1910.599271917,1910.599271917,1910.599271917,1910.599271917,1919.0010067089997,-7,7,3,3.0,8.300635000000511,4.0,3.580813374999707,1910.1380612089997,1910.1400603339998,1910.599271917,1910.4331859589993,,,,,,,,1910.1345324169997,1910.1380154169992,None,,,,,,,,,,,204,bathroom,2,2024-03-15_15h07.38.157,image_similarity_rating,2023.2.3,None,2024-03-15 15h07.53.972934 +0100,
,120,139,422,422,stimuli/own/bathroom/120_bat.jpg,stimuli/own/bathroom/139_bat.jpg,,,,,,,,,0,143,143,421,1919.006564417,,,,,,,,,,,1919.2997649589997,1919.4654715839997,1919.4654715839997,1919.4654715839997,1919.4654715839997,1919.4654715839997,1919.4654715839997,1919.4654715839997,1919.4654715839997,1919.4654715839997,1929.317631084,7,-7,3,2.0,9.80286895900008,1.0,1.5668781249996755,1919.0046261669995,1919.006564417,1919.4654715839997,1919.2997518749999,,,,,,,,1919.0012263749995,1919.0045807499991,None,,,,,,,,,,,204,bathroom,2,2024-03-15_15h07.38.157,image_similarity_rating,2023.2.3,None,2024-03-15 15h07.53.972934 +0100,
,105,138,157,157,stimuli/own/bathroom/105_bat.jpg,stimuli/own/bathroom/138_bat.jpg,,,,,,,,,0,144,144,156,1929.3232814999992,,,,,,,,,,,1929.617379542,1929.7830349589995,1929.7830349589995,1929.7830349589995,1929.7830349589995,1929.7830349589995,1929.7830349589995,1929.7830349589995,1929.7830349589995,1929.7830349589995,1932.717804124999,-7,7,3,1.0,2.9326354169998012,1.0,1.544306458000392,1929.3213526669997,1929.3232814999992,1929.7830349589995,1929.6173657919999,,,,,,,,1929.317848959,1929.3213066669996,None,,,,,,,,,,,204,bathroom,2,2024-03-15_15h07.38.157,image_similarity_rating,2023.2.3,None,2024-03-15 15h07.53.972934 +0100,
,118,123,369,369,stimuli/own/bathroom/118_bat.jpg,stimuli/own/bathroom/123_bat.jpg,,,,,,,,,0,145,145,368,1932.7233541669993,,,,,,,,,,,1933.016678083999,1933.182287042,1933.182287042,1933.182287042,1933.182287042,1933.182287042,1933.182287042,1933.182287042,1933.182287042,1933.182287042,1942.9426964590002,7,-7,3,1.0,9.57293991699953,1.0,1.811270959000467,1932.7214291669989,1932.7233541669993,1933.182287042,1933.0166647919996,,,,,,,,1932.7180232089995,1932.721383,None,,,,,,,,,,,204,bathroom,2,2024-03-15_15h07.38.157,image_similarity_rating,2023.2.3,None,2024-03-15 15h07.53.972934 +0100,
