sub_num,trial,block,task,is_practice,category,image,texture,duration,mask_dur,jitter,stim_time,time_of_resp,trial_response,mask_time,fix_time,jit_onset,trial_end,trial_accuracy,RT
113,1,0,familiarity,1,bathroom,bathroom_practice1.tif,221,1.5,0,0.916666666666667,756.712020375,761.670204958,7,NaN,761.676262208,761.694656958,762.60466275,NaN,NaN
113,2,0,familiarity,1,bathroom,bathroom_practice2.tif,222,1.5,0,0.85,762.609245666,766.749186041,2,NaN,766.755433458,766.773671625,767.617010333,NaN,NaN
113,3,0,familiarity,1,bathroom,bathroom_practice3.tif,223,1.5,0,0.883333333333333,767.621574541,773.917241708,3,NaN,773.92299325,773.941489208,774.818159958,NaN,NaN
113,4,0,familiarity,1,bathroom,bathroom_practice5.tif,225,1.5,0,1.43333333333333,774.8225105,780.301225333,6,NaN,780.306965916,780.325377333,781.752088625,NaN,NaN
113,5,0,familiarity,1,bathroom,bathroom_practice4.tif,224,1.5,0,1.53333333333333,781.770650666,785.717994916,6,NaN,785.7234625,785.741917875,787.268635166,NaN,NaN
113,1,1,familiarity,0,bathroom,sun_ahcvzmoyaycdoftf.tif,137,1.5,0,1.26666666666667,791.856201625,794.964966333,7,NaN,794.973346125,794.992222833,796.252276791,NaN,NaN
113,2,1,familiarity,0,bathroom,sun_aggnnqpdorgxpvce.tif,131,1.5,0,1.76666666666667,796.267663125,800.652969041,4,NaN,800.658785166,800.677242791,802.437277,NaN,NaN
113,3,1,familiarity,0,bathroom,sun_aclfzgynxzxlbepz.tif,129,1.5,0,1.46666666666667,802.454879875,807.477195625,7,NaN,807.483138583,807.501686125,808.961727125,NaN,NaN
113,4,1,familiarity,0,bathroom,sun_apmqjbnwghzuhhzh.tif,156,1.5,0,1.28333333333333,808.97995525,812.989860916,7,NaN,812.995238083,813.013579166,814.290299625,NaN,NaN
113,5,1,familiarity,0,bathroom,sun_acegryoqftbzowsg.tif,127,1.5,0,0.966666666666667,814.309474416,818.509253166,5,NaN,818.5149295,818.533338333,819.493344083,NaN,NaN
113,6,1,familiarity,0,bathroom,sun_alkosphxlxwjwgjd.tif,144,1.5,0,0.783333333333333,819.497681625,824.98978425,7,NaN,824.995284708,825.013594958,825.790267333,NaN,NaN
113,7,1,familiarity,0,bathroom,sun_acgyywnybuveqsro.tif,128,1.5,0,1.21666666666667,825.794738291,830.525413125,6,NaN,830.530806666,830.549183583,831.75921,NaN,NaN
113,8,1,familiarity,0,bathroom,sun_anhioqovhscjqqwb.tif,148,1.5,0,1.4,831.776799916,837.349635666,5,NaN,837.355010708,837.373490916,838.766874958,NaN,NaN
113,9,1,familiarity,0,bathroom,sun_aspsyogrekjtfozg.tif,160,1.5,0,1.3,838.784657583,842.501038958,2,NaN,842.506693833,842.525137416,843.818504916,NaN,NaN
113,10,1,familiarity,0,bathroom,sun_ahqjwnzgolcaoidx.tif,139,1.5,0,0.95,843.835426791,846.797425291,6,NaN,846.802711291,846.820992333,847.764329166,NaN,NaN
113,11,1,familiarity,0,bathroom,sun_ausgutylgojavyoq.tif,163,1.5,0,1.96666666666667,847.768749333,851.54956225,6,NaN,851.555008166,851.573306125,853.533349,NaN,NaN
113,12,1,familiarity,0,bathroom,sun_axyrejkiiaqiurjk.tif,169,1.5,0,1.13333333333333,853.543965083,862.364716833,5,NaN,862.370665166,862.389080958,863.515785541,NaN,NaN
113,13,1,familiarity,0,bathroom,sun_agrwbmhcpmfuwmsg.tif,134,1.5,0,0.933333333333333,863.525088416,868.292675958,4,NaN,868.29856825,868.316914208,869.24358625,NaN,NaN
113,14,1,familiarity,0,bathroom,sun_axxbkopsgyouuebh.tif,168,1.5,0,1.6,869.248037125,873.277429916,5,NaN,873.282882333,873.301178375,874.894556041,NaN,NaN
113,15,1,familiarity,0,bathroom,sun_akiytfaagpdsphgz.tif,141,1.5,0,1.38333333333333,874.912529708,879.2771815,2,NaN,879.28284375,879.301187625,880.677889375,NaN,NaN
113,16,1,familiarity,0,bathroom,sun_aavhrsfjbserjtht.tif,123,1.5,0,1.58333333333333,880.695002291,884.684803458,3,NaN,884.690556041,884.709113166,886.285837083,NaN,NaN
113,17,1,familiarity,0,bathroom,sun_auzqhkafidnkrwmo.tif,164,1.5,0,0.966666666666667,886.301361625,891.261411375,3,NaN,891.266743,891.285046041,892.245050416,NaN,NaN
113,18,1,familiarity,0,bathroom,sun_amzlamotzwfkwjco.tif,147,1.5,0,0.983333333333333,892.249667458,896.581031958,2,NaN,896.586578833,896.604977791,897.581648916,NaN,NaN
113,19,1,familiarity,0,bathroom,sun_asfwthctfqerjvxr.tif,159,1.5,0,0.8,897.586185208,902.085118291,1,NaN,902.090485833,902.109033958,902.902373208,NaN,NaN
113,20,1,familiarity,0,bathroom,sun_apkxzenqapsujocq.tif,155,1.5,0,0.7,902.908079291,907.636802,4,NaN,907.642399958,907.660546458,908.353885375,NaN,NaN
113,21,1,familiarity,0,bathroom,sun_anryaplzeujmzfkd.tif,149,1.5,0,0.716666666666667,908.358135791,912.020798875,3,NaN,912.026530375,912.044860416,912.754865166,NaN,NaN
113,22,1,familiarity,0,bathroom,sun_atstyziqcmkahyxk.tif,161,1.5,0,1.76666666666667,912.760128083,916.516386458,3,NaN,916.522185375,916.540449,918.300506166,NaN,NaN
113,23,1,familiarity,0,bathroom,sun_ajlawzvmubibwbpy.tif,140,1.5,0,1.7,918.319130666,923.597200041,3,NaN,923.602716833,923.621138583,925.314508625,NaN,NaN
113,24,1,familiarity,0,bathroom,sun_aljolscmmzydegqp.tif,143,1.5,0,1.38333333333333,925.330796666,928.852443791,1,NaN,928.859038125,928.877238166,930.253944083,NaN,NaN
113,25,1,familiarity,0,bathroom,sun_afcoljnjfoxjtgja.tif,130,1.5,0,0.766666666666667,930.270864708,933.476946041,2,NaN,933.482264583,933.500421,934.26042625,NaN,NaN
113,1,2,familiarity,0,bathroom,sun_azqyogdvyhahyram.tif,170,1.5,0,0.85,938.652105666,943.637275416,4,NaN,943.642774875,943.661063958,944.504401583,NaN,NaN
113,2,2,familiarity,0,bathroom,sun_agguqiubmwhqqunb.tif,132,1.5,0,1.53333333333333,944.509596625,947.748687583,1,NaN,947.755052125,947.773366875,949.300074875,NaN,NaN
113,3,2,familiarity,0,bathroom,sun_avhrdrntsqrjzccq.tif,165,1.5,0,0.7,949.316852458,952.268657541,1,NaN,952.27423175,952.293475875,952.986814375,NaN,NaN
113,4,2,familiarity,0,bathroom,sun_aunuadmjocsddsrl.tif,162,1.5,0,1.36666666666667,952.991487958,956.813262166,3,NaN,956.818796041,956.837170125,958.197206041,NaN,NaN
113,5,2,familiarity,0,bathroom,sun_abapwbhyhkfixyex.tif,124,1.5,0,0.716666666666667,958.214423458,962.701163166,5,NaN,962.708297458,962.726551125,963.436556583,NaN,NaN
113,6,2,familiarity,0,bathroom,sun_alotolagknyrgtsk.tif,145,1.5,0,1.38333333333333,963.440997375,966.589133583,1,NaN,966.599671333,966.618130041,967.994842666,NaN,NaN
113,7,2,familiarity,0,bathroom,labelme_sfxiulhjbhlyiyt.tif,121,1.5,0,0.916666666666667,968.0126505,971.90832925,6,NaN,971.914549958,971.933081166,972.843086375,NaN,NaN
113,8,2,familiarity,0,bathroom,sun_aqrpegblszgcoujh.tif,158,1.5,0,1.58333333333333,972.847572583,978.628819791,4,NaN,978.635895875,978.654172166,980.230886125,NaN,NaN
113,9,2,familiarity,0,bathroom,sun_ahijqszoswveeyji.tif,138,1.5,0,1.25,980.2495955,983.821085458,5,NaN,983.826537416,983.844778958,985.088149416,NaN,NaN
113,10,2,familiarity,0,bathroom,sun_axldvoqbuvuggfmq.tif,167,1.5,0,0.95,985.103138333,989.684921208,5,NaN,989.690338791,989.708854541,990.652195541,NaN,NaN
113,11,2,familiarity,0,bathroom,sun_ahaulkltgpkeeemi.tif,136,1.5,0,1.4,990.65736925,995.452782416,5,NaN,995.45812625,995.476246625,996.869630125,NaN,NaN
113,12,2,familiarity,0,bathroom,sun_aghyqhbptboemmoq.tif,133,1.5,0,0.766666666666667,996.887363416,1001.772435875,3,NaN,1001.778534458,1001.796908958,1002.556913666,NaN,NaN
113,13,2,familiarity,0,bathroom,sun_apynckhmoftszqoq.tif,157,1.5,0,0.733333333333333,1002.56150725,1007.4690575,4,NaN,1007.474575791,1007.493052208,1008.219726,NaN,NaN
113,14,2,familiarity,0,bathroom,sun_apeeialkgkuxddgh.tif,152,1.5,0,1.06666666666667,1008.226082833,1012.149050791,7,NaN,1012.154412625,1012.172750541,1013.232804416,NaN,NaN
113,15,2,familiarity,0,bathroom,sun_agyqfjcfkdcydepw.tif,135,1.5,0,1.33333333333333,1013.243811458,1017.5009855,1,NaN,1017.506666208,1017.524857791,1018.851557541,NaN,NaN
113,16,2,familiarity,0,bathroom,sun_aleqenyvunhactkl.tif,142,1.5,0,1.41666666666667,1018.869256041,1022.48398525,5,NaN,1022.489838541,1022.508281,1023.918321875,NaN,NaN
113,17,2,familiarity,0,bathroom,sun_aapitsgbtktqubfy.tif,122,1.5,0,1.95,1023.935446291,1027.788878583,6,NaN,1027.794416375,1027.81276825,1029.756139375,NaN,NaN
113,18,2,familiarity,0,bathroom,sun_ambriybtogmepttm.tif,146,1.5,0,0.866666666666667,1029.775112583,1035.980894583,2,NaN,1035.986248958,1036.00462225,1036.864626458,NaN,NaN
113,19,2,familiarity,0,bathroom,sun_apkruvsevgegsdwp.tif,154,1.5,0,0.983333333333333,1036.869168833,1042.460388,5,NaN,1042.466219583,1042.484587708,1043.461258333,NaN,NaN
113,20,2,familiarity,0,bathroom,sun_awnqiikzaispgmwo.tif,166,1.5,0,0.983333333333333,1043.465789166,1047.24431675,6,NaN,1047.249831,1047.2681345,1048.244807208,NaN,NaN
113,21,2,familiarity,0,bathroom,sun_abjtwfukuwddzted.tif,125,1.5,0,0.766666666666667,1048.250044208,1051.684837208,6,NaN,1051.690143541,1051.708632458,1052.46863725,NaN,NaN
113,22,2,familiarity,0,bathroom,sun_acduarbnmmoglmiv.tif,126,1.5,0,0.833333333333333,1052.472968666,1055.804413458,3,NaN,1055.809746583,1055.82805925,1056.654730166,NaN,NaN
113,23,2,familiarity,0,bathroom,sun_apjevzvycyhuqghb.tif,153,1.5,0,0.833333333333333,1056.659595291,1059.724531958,1,NaN,1059.732886208,1059.751343625,1060.57801525,NaN,NaN
113,24,2,familiarity,0,bathroom,sun_aofnryafpsjimzsb.tif,150,1.5,0,0.716666666666667,1060.582347916,1066.212104291,4,NaN,1066.2176145,1066.235889208,1066.94589325,NaN,NaN
113,25,2,familiarity,0,bathroom,sun_aoybiabnpadelefl.tif,151,1.5,0,1.71666666666667,1066.950187041,1071.340420833,4,NaN,1071.345778791,1071.364165833,1073.074215041,NaN,NaN
