sub_num,trial,block,task,is_practice,category,image,texture,duration,mask_dur,jitter,stim_time,time_of_resp,trial_response,mask_time,fix_time,jit_onset,trial_end,trial_accuracy,RT
127,6,0,usability,1,kitchen,kitchen_practice2.tif,227,1.5,0,1.13333333333333,8195.772408791,8199.462715791,4,NaN,8199.470156083,8199.488346,8200.615079458,NaN,NaN
127,7,0,usability,1,kitchen,kitchen_practice3.tif,228,1.5,0,0.933333333333333,8200.623707291,8203.18294575,6,NaN,8203.188496625,8203.206939458,8204.13361325,NaN,NaN
127,8,0,usability,1,kitchen,kitchen_practice1.tif,226,1.5,0,1.48333333333333,8204.137720791,8206.711024083,6,NaN,8206.740863583,8206.764513458,8208.241262958,NaN,NaN
127,9,0,usability,1,kitchen,kitchen_practice4.tif,229,1.5,0,1.33333333333333,8208.26054375,8210.829972625,7,NaN,8210.836027291,8210.854633666,8212.181369583,NaN,NaN
127,10,0,usability,1,kitchen,kitchen_practice5.tif,230,1.5,0,1.3,8212.200208291,8214.726363875,4,NaN,8214.732158375,8214.750707791,8216.044137375,NaN,NaN
127,1,1,usability,0,kitchen,sun_amjjdeyrggfqgmom.tif,210,1.5,0,1.91666666666667,8220.303622125,8223.202034375,1,NaN,8223.231588458,8223.255134916,8225.1652245,NaN,NaN
127,2,1,usability,0,kitchen,sun_aymvwlarqodbwuoc.tif,218,1.5,0,0.85,8225.184730041,8229.302417458,2,NaN,8229.308219583,8229.32655125,8230.169892583,NaN,NaN
127,3,1,usability,0,kitchen,labelme_rykdqxenmhulbdn.tif,173,1.5,0,0.7,8230.174262666,8232.586402125,3,NaN,8232.612084833,8232.635366375,8233.32871075,NaN,NaN
127,4,1,usability,0,kitchen,sun_adgqasybjyktddhj.tif,188,1.5,0,1.6,8233.333367125,8236.47840275,4,NaN,8236.485126416,8236.503524958,8238.096965416,NaN,NaN
127,5,1,usability,0,kitchen,sun_aehawpgmrlhlvcow.tif,191,1.5,0,1.13333333333333,8238.117366833,8240.818081916,4,NaN,8240.843933375,8240.866901875,8241.993646541,NaN,NaN
127,6,1,usability,0,kitchen,sun_aadbddgrdsjugojn.tif,174,1.5,0,0.716666666666667,8242.006911583,8244.838163291,3,NaN,8244.84432375,8244.862561583,8245.572572583,NaN,NaN
127,7,1,usability,0,kitchen,sun_acwjdupvyjsugpay.tif,186,1.5,0,1.6,8245.576862541,8248.443972958,5,NaN,8248.473407708,8248.497018791,8250.09045975,NaN,NaN
127,8,1,usability,0,kitchen,sun_aixorpehvfykdynp.tif,205,1.5,0,1.68333333333333,8250.106083458,8252.766025791,6,NaN,8252.771811791,8252.79022625,8254.466988541,NaN,NaN
127,9,1,usability,0,kitchen,sun_auaiucuqpdausiva.tif,212,1.5,0,1.41666666666667,8254.486760125,8256.904233416,6,NaN,8256.931267583,8256.954748625,8258.364818583,NaN,NaN
127,10,1,usability,0,kitchen,sun_aamedkxepzlwuxes.tif,175,1.5,0,1,8258.379285791,8261.0865625,5,NaN,8261.092081625,8261.110397875,8262.103740958,NaN,NaN
127,11,1,usability,0,kitchen,sun_ahpczsiumwwocjkv.tif,202,1.5,0,1.33333333333333,8262.108007875,8264.949402291,7,NaN,8264.981458708,8265.0049475,8266.331677208,NaN,NaN
127,12,1,usability,0,kitchen,sun_aenotlpyftoioydp.tif,192,1.5,0,1.15,8266.347714583,8268.662037583,2,NaN,8268.667950791,8268.686257625,8269.829650958,NaN,NaN
127,13,1,usability,0,kitchen,sun_aexklacwqwezaorf.tif,194,1.5,0,1.86666666666667,8269.838453875,8272.798313583,6,NaN,8272.80400975,8272.822516333,8274.682582833,NaN,NaN
127,14,1,usability,0,kitchen,sun_aapllqyqlykszopd.tif,176,1.5,0,1.18333333333333,8274.699886708,8277.366248041,5,NaN,8277.393584916,8277.4169505,8278.593683791,NaN,NaN
127,15,1,usability,0,kitchen,sun_ahywdevtimnqcsln.tif,204,1.5,0,1.71666666666667,8278.606359291,8281.510386291,4,NaN,8281.516227,8281.534652875,8283.244726583,NaN,NaN
127,16,1,usability,0,kitchen,sun_aggjlwcdjsjcaemh.tif,196,1.5,0,1.1,8283.264983875,8286.295426916,4,NaN,8286.325322083,8286.348163333,8287.441604166,NaN,NaN
127,17,1,usability,0,kitchen,sun_acxkpeoqbwcxfvip.tif,187,1.5,0,0.983333333333333,8287.452030833,8290.094298125,5,NaN,8290.099868,8290.118278416,8291.094954375,NaN,NaN
127,18,1,usability,0,kitchen,sun_aeqdocilnnpuvuhx.tif,193,1.5,0,0.916666666666667,8291.111201333,8294.095810416,3,NaN,8294.124729833,8294.14828325,8295.058290208,NaN,NaN
127,19,1,usability,0,kitchen,sun_akcjzhbbjlbogpdi.tif,209,1.5,0,0.716666666666667,8295.063584875,8297.655964291,3,NaN,8297.681681916,8297.705223416,8298.415235541,NaN,NaN
127,20,1,usability,0,kitchen,sun_ajcbwwvdlsvjyzje.tif,206,1.5,0,0.883333333333333,8298.427990375,8301.338390208,5,NaN,8301.366427458,8301.389843458,8302.266522291,NaN,NaN
127,21,1,usability,0,kitchen,sun_azmutvzbxypaceni.tif,220,1.5,0,1.93333333333333,8302.271395916,8304.813510083,4,NaN,8304.84230675,8304.866157083,8306.792919833,NaN,NaN
127,22,1,usability,0,kitchen,sun_awcpdzzznmweyyhv.tif,216,1.5,0,0.9,8306.812662958,8309.415225541,5,NaN,8309.441511208,8309.465231166,8310.358574708,NaN,NaN
127,23,1,usability,0,kitchen,sun_aunzlwrbjumxhwdj.tif,213,1.5,0,1.13333333333333,8310.363099083,8313.129825333,4,NaN,8313.158681166,8313.182332041,8314.309093,NaN,NaN
127,24,1,usability,0,kitchen,labelme_kxvouciolcpqplr.tif,172,1.5,0,0.766666666666667,8314.318015041,8316.965707291,4,NaN,8316.971769666,8316.990142125,8317.75015225,NaN,NaN
127,25,1,usability,0,kitchen,sun_agubuxuukhzyzpdp.tif,198,1.5,0,0.966666666666667,8317.754419583,8320.658516,4,NaN,8320.687848333,8320.711441375,8321.671448791,NaN,NaN
127,1,2,usability,0,kitchen,sun_ajkqhtgcbgpcwrwn.tif,207,1.5,0,1.56666666666667,8325.697547041,8328.574555916,4,NaN,8328.604277791,8328.628046833,8330.1881115,NaN,NaN
127,2,2,usability,0,kitchen,sun_avszsnwsbuqfgzbn.tif,215,1.5,0,1.2,8330.206507916,8332.701623541,7,NaN,8332.707680458,8332.726056458,8333.9194835,NaN,NaN
127,3,2,usability,0,kitchen,sun_admlmbcdswaszruo.tif,189,1.5,0,1.73333333333333,8333.931035208,8336.582136625,6,NaN,8336.58776725,8336.606081625,8338.332846875,NaN,NaN
127,4,2,usability,0,kitchen,sun_abdxkyyxwfskuaqb.tif,180,1.5,0,1.61666666666667,8338.351852541,8340.977861541,6,NaN,8341.003337875,8341.026391458,8342.63646675,NaN,NaN
127,5,2,usability,0,kitchen,sun_aypmqwcualkenuoe.tif,219,1.5,0,1.38333333333333,8342.655841166,8345.966516041,4,NaN,8345.997689458,8346.021480291,8347.398243083,NaN,NaN
127,6,2,usability,0,kitchen,sun_agzzivivdpnawacl.tif,199,1.5,0,1.73333333333333,8347.419357791,8350.9335185,3,NaN,8350.939874583,8350.95828575,8352.685036,NaN,NaN
127,7,2,usability,0,kitchen,sun_aaxxjlsuzvqlgylf.tif,178,1.5,0,1.96666666666667,8352.704866708,8355.233723416,6,NaN,8355.2641575,8355.287666583,8357.247731125,NaN,NaN
127,8,2,usability,0,kitchen,sun_abftihopvusyfakt.tif,181,1.5,0,0.883333333333333,8357.26758275,8359.927835166,5,NaN,8359.955266625,8359.979136208,8360.8558125,NaN,NaN
127,9,2,usability,0,kitchen,sun_agorklincwxrdtga.tif,197,1.5,0,1.06666666666667,8360.860674875,8363.654701541,5,NaN,8363.683834666,8363.70732625,8364.767382916,NaN,NaN
127,10,2,usability,0,kitchen,labelme_brsyyvweiuaazfr.tif,171,1.5,0,1.06666666666667,8364.778146833,8367.605606166,3,NaN,8367.611667666,8367.630075208,8368.690143,NaN,NaN
127,11,2,usability,0,kitchen,sun_afuyedyxivkhecmu.tif,195,1.5,0,0.966666666666667,8368.698304041,8371.813693375,4,NaN,8371.819583041,8371.838005458,8372.79801475,NaN,NaN
127,12,2,usability,0,kitchen,sun_aegoxogugdkwpmpj.tif,190,1.5,0,1.78333333333333,8372.802564458,8375.618723916,5,NaN,8375.6477995,8375.671656041,8377.448421666,NaN,NaN
127,13,2,usability,0,kitchen,sun_axyyrmzcupyhlivc.tif,217,1.5,0,1.68333333333333,8377.469240166,8381.07012025,4,NaN,8381.075877,8381.094825083,8382.771563416,NaN,NaN
127,14,2,usability,0,kitchen,sun_abpwyqmlzafvklqo.tif,182,1.5,0,0.983333333333333,8382.792262916,8385.425912708,3,NaN,8385.451615416,8385.474663791,8386.451343166,NaN,NaN
127,15,2,usability,0,kitchen,sun_abdenxonkemggwsq.tif,179,1.5,0,1.33333333333333,8386.45606675,8389.177778333,3,NaN,8389.206808291,8389.23055925,8390.557285083,NaN,NaN
127,16,2,usability,0,kitchen,sun_acgtpgfybqjmzeyw.tif,185,1.5,0,1.56666666666667,8390.576465208,8393.165752958,5,NaN,8393.171424666,8393.189784708,8394.749860166,NaN,NaN
127,17,2,usability,0,kitchen,sun_ahspylgoovwmwvgk.tif,203,1.5,0,1.66666666666667,8394.768125083,8397.422071875,5,NaN,8397.427644791,8397.445849833,8399.105908583,NaN,NaN
127,18,2,usability,0,kitchen,sun_auticobqsbwgoppi.tif,214,1.5,0,1.86666666666667,8399.125535875,8401.814275583,6,NaN,8401.8426945,8401.865781583,8403.725845083,NaN,NaN
127,19,2,usability,0,kitchen,sun_aqeaevwwwjoqhzvl.tif,211,1.5,0,1.95,8403.745488458,8406.887840958,2,NaN,8406.915149958,8406.938557708,8408.8819985,NaN,NaN
127,20,2,usability,0,kitchen,sun_acfmftudsenhrfhy.tif,184,1.5,0,0.966666666666667,8408.899090083,8411.718704208,6,NaN,8411.749013333,8411.771151875,8412.731157958,NaN,NaN
127,21,2,usability,0,kitchen,sun_abrcnpqqhmjwekyf.tif,183,1.5,0,1.43333333333333,8412.735990458,8415.277409875,6,NaN,8415.306444541,8415.33022225,8416.756928208,NaN,NaN
127,22,2,usability,0,kitchen,sun_ahdycvpopffkzzsu.tif,200,1.5,0,0.85,8416.767695791,8419.325993166,5,NaN,8419.331514791,8419.349761666,8420.193105666,NaN,NaN
127,23,2,usability,0,kitchen,sun_ahljzhgcdpomplvg.tif,201,1.5,0,1.53333333333333,8420.1973935,8422.793501666,6,NaN,8422.822379125,8422.84579525,8424.372543708,NaN,NaN
127,24,2,usability,0,kitchen,sun_akchetnepxlcxhsu.tif,208,1.5,0,1.18333333333333,8424.392267041,8427.062277958,5,NaN,8427.067774291,8427.086049416,8428.262825166,NaN,NaN
127,25,2,usability,0,kitchen,sun_aarfiyshqohlwkmo.tif,177,1.5,0,1.86666666666667,8428.275992791,8431.078143208,5,NaN,8431.083734291,8431.102169541,8432.962278916,NaN,NaN
