sub_num,trial,block,task,is_practice,category,image,texture,duration,mask_dur,jitter,stim_time,time_of_resp,trial_response,mask_time,fix_time,jit_onset,trial_end,trial_accuracy,RT
126,1,0,categorization,1,bathroom,SHINEd_bathroom_practice5.tif,115,0.0666666666666667,0.0666666666666667,1.21666666666667,10370.245249,10372.813317166,13,10370.311444875,10370.371133375,10372.841616291,10374.051806458,1,2.56806816599965
126,2,0,categorization,1,bathroom,SHINEd_bathroom_practice3.tif,113,0.0666666666666667,0.0666666666666667,1.36666666666667,10374.108575375,10377.068905,13,10374.181104,10374.241987208,10377.078098125,10378.438268208,1,2.96032962500067
126,3,0,categorization,1,kitchen,SHINEd_kitchen_practice3.tif,118,0.0666666666666667,0.0666666666666667,1.85,10378.492298333,10381.148224458,9,10378.566917708,10378.625943958,10381.162096333,10383.005606833,1,2.65592612500041
126,4,0,categorization,1,kitchen,SHINEd_kitchen_practice1.tif,116,0.0666666666666667,0.0666666666666667,1.55,10383.028234041,10384.604860041,9,10383.097976041,10383.161209,10384.614012333,10386.157503708,1,1.57662600000003
126,5,0,categorization,1,kitchen,SHINEd_kitchen_practice5.tif,120,0.0666666666666667,0.0666666666666667,1.48333333333333,10386.190382166,10387.726194166,9,10386.263483,10386.32394625,10387.748585458,10389.226219958,1,1.53581200000008
126,6,0,categorization,1,kitchen,SHINEd_kitchen_practice2.tif,117,0.0666666666666667,0.0666666666666667,1.15,10389.253422791,10390.537593291,9,10389.321765625,10389.385683083,10390.56161,10391.705136583,1,1.28417049999916
126,7,0,categorization,1,bathroom,SHINEd_bathroom_practice1.tif,111,0.0666666666666667,0.0666666666666667,0.733333333333333,10391.716271958,10392.605270083,13,10391.783605833,10391.849882458,10392.623822333,10393.350537583,1,0.888998125001308
126,8,0,categorization,1,bathroom,SHINEd_bathroom_practice2.tif,112,0.0666666666666667,0.0666666666666667,1.6,10393.367591833,10394.749860958,9,10393.434833833,10393.499933791,10394.768817083,10396.362189583,0,1.38226912500068
126,9,0,categorization,1,bathroom,SHINEd_bathroom_practice4.tif,114,0.0666666666666667,0.0666666666666667,0.716666666666667,10396.384654333,10397.166419958,13,10396.451619125,10396.51727925,10397.190999291,10397.901003416,1,0.781765624999025
126,10,0,categorization,1,kitchen,SHINEd_kitchen_practice4.tif,119,0.0666666666666667,0.0666666666666667,1.21666666666667,10397.907633,10398.621591291,9,10397.96947775,10398.030261625,10398.632023541,10399.842067791,1,0.713958290998562
126,1,1,categorization,0,bathroom,SHINEd_sun_avhrdrntsqrjzccq.tif,55,0.0666666666666667,0.0666666666666667,1.23333333333333,10411.791797291,10412.828964125,9,10411.854323125,10411.914419541,10412.833057,10414.059793375,0,1.03716683399944
126,2,1,categorization,0,bathroom,SHINEd_sun_aqrpegblszgcoujh.tif,48,0.0666666666666667,0.0666666666666667,0.783333333333333,10414.071459083,10414.968363833,9,10414.137878666,10414.2049375,10414.99523725,10415.771950083,0,0.89690475000134
126,3,1,categorization,0,kitchen,SHINEd_sun_auaiucuqpdausiva.tif,102,0.0666666666666667,0.0666666666666667,0.75,10415.788300625,10416.741563125,9,10415.852384083,10415.9114085,10416.746612791,10417.489950375,1,0.953262500001074
126,4,1,categorization,0,kitchen,SHINEd_sun_avszsnwsbuqfgzbn.tif,105,0.0666666666666667,0.0666666666666667,1.23333333333333,10417.495256458,10418.405739916,9,10417.556884625,10417.617826875,10418.420072041,10419.646794041,1,0.910483457999362
126,5,1,categorization,0,bathroom,SHINEd_sun_acgyywnybuveqsro.tif,18,0.0666666666666667,0.0666666666666667,1.13333333333333,10419.663330833,10420.551454041,13,10419.73147025,10419.796105333,10420.568604,10421.6953135,1,0.888123208000252
126,6,1,categorization,0,bathroom,SHINEd_sun_agyqfjcfkdcydepw.tif,25,0.0666666666666667,0.0666666666666667,0.95,10421.704319666,10422.447750875,9,10421.771116708,10421.836486833,10422.476231666,10423.419598958,0,0.743431209000846
126,7,1,categorization,0,kitchen,SHINEd_sun_abrcnpqqhmjwekyf.tif,73,0.0666666666666667,0.0666666666666667,0.733333333333333,10423.43571575,10425.173651916,9,10423.502468125,10423.567923666,10425.18691925,10425.913590291,1,1.73793616600051
126,8,1,categorization,0,bathroom,SHINEd_sun_aavhrsfjbserjtht.tif,13,0.0666666666666667,0.0666666666666667,1.31666666666667,10425.918291458,10426.933211333,9,10425.980124208,10426.040914708,10426.942571958,10428.252620416,0,1.01491987500049
126,9,1,categorization,0,bathroom,SHINEd_labelme_sfxiulhjbhlyiyt.tif,11,0.0666666666666667,0.0666666666666667,0.8,10428.271363916,10429.574864458,9,10428.338164541,10428.404162958,10429.595024958,10430.38836175,0,1.30350054200062
126,10,1,categorization,0,bathroom,SHINEd_sun_awnqiikzaispgmwo.tif,56,0.0666666666666667,0.0666666666666667,0.716666666666667,10430.393440208,10431.1096115,13,10430.455281375,10430.51604175,10431.117837208,10431.827841041,1,0.716171292000581
126,11,1,categorization,0,kitchen,SHINEd_sun_abdenxonkemggwsq.tif,69,0.0666666666666667,0.0666666666666667,0.916666666666667,10431.833161625,10432.636650541,9,10431.894855041,10431.955816083,10432.641256583,10433.55126125,1,0.803488916000788
126,12,1,categorization,0,bathroom,SHINEd_sun_abapwbhyhkfixyex.tif,14,0.0666666666666667,0.0666666666666667,0.95,10433.557097458,10434.38877675,9,10433.618971958,10433.679673625,10434.398387708,10435.34172475,0,0.831679291999535
126,13,1,categorization,0,bathroom,SHINEd_sun_ahaulkltgpkeeemi.tif,26,0.0666666666666667,0.0666666666666667,0.833333333333333,10435.346558791,10436.076741625,13,10435.408202875,10435.46921925,10436.0878165,10436.91448875,1,0.730182834000516
126,14,1,categorization,0,kitchen,SHINEd_sun_agorklincwxrdtga.tif,87,0.0666666666666667,0.0666666666666667,0.75,10436.919260375,10437.621081666,9,10436.980978416,10437.041887708,10437.627028791,10438.3703675,1,0.70182129100067
126,15,1,categorization,0,bathroom,SHINEd_sun_aapitsgbtktqubfy.tif,12,0.0666666666666667,0.0666666666666667,1.53333333333333,10438.375234166,10439.173338083,9,10438.436941833,10438.497848625,10439.182879916,10440.709578166,0,0.798103916999025
126,16,1,categorization,0,kitchen,SHINEd_sun_abdxkyyxwfskuaqb.tif,70,0.0666666666666667,0.0666666666666667,1.05,10440.727449416,10441.66379925,9,10440.793713833,10440.859882916,10441.682622291,10442.726001791,1,0.936349834000794
126,17,1,categorization,0,kitchen,SHINEd_sun_auticobqsbwgoppi.tif,104,0.0666666666666667,0.0666666666666667,0.9,10442.73663075,10444.00803275,9,10442.801368916,10442.86585225,10444.021192666,10444.914529166,1,1.27140200000031
126,18,1,categorization,0,bathroom,SHINEd_sun_axyrejkiiaqiurjk.tif,59,0.0666666666666667,0.0666666666666667,1.18333333333333,10444.919500041,10445.73356625,9,10444.981292833,10445.042157125,10445.743818291,10446.920533875,0,0.814066209000885
126,19,1,categorization,0,bathroom,SHINEd_sun_anhioqovhscjqqwb.tif,38,0.0666666666666667,0.0666666666666667,0.9,10446.930973333,10447.449276958,13,10446.999416208,10447.063304875,10447.469941291,10448.363313583,1,0.518303625000044
126,20,1,categorization,0,bathroom,SHINEd_sun_apynckhmoftszqoq.tif,47,0.0666666666666667,0.0666666666666667,1.66666666666667,10448.379845833,10449.141375666,13,10448.446600333,10448.512522166,10449.1480615,10450.808098125,1,0.761529833000168
126,21,1,categorization,0,bathroom,SHINEd_sun_aunuadmjocsddsrl.tif,52,0.0666666666666667,0.0666666666666667,1.13333333333333,10450.827128916,10451.494900541,9,10450.893839625,10450.960045416,10451.516526,10452.643235458,0,0.667771624999659
126,22,1,categorization,0,kitchen,SHINEd_sun_aymvwlarqodbwuoc.tif,108,0.0666666666666667,0.0666666666666667,1.3,10452.652396583,10453.370091958,9,10452.717803958,10452.784652333,10453.390751583,10454.684139625,1,0.717695375000403
126,23,1,categorization,0,kitchen,SHINEd_sun_acwjdupvyjsugpay.tif,76,0.0666666666666667,0.0666666666666667,1.93333333333333,10454.702708166,10455.770394041,9,10454.769579708,10454.835344541,10455.791985041,10457.718688458,1,1.06768587499937
126,24,1,categorization,0,bathroom,SHINEd_sun_apkruvsevgegsdwp.tif,44,0.0666666666666667,0.0666666666666667,1,10457.73760375,10458.52242775,13,10457.804396041,10457.869734416,10458.543255375,10459.53659475,1,0.784824000000299
126,25,1,categorization,0,bathroom,SHINEd_sun_aspsyogrekjtfozg.tif,50,0.0666666666666667,0.0666666666666667,0.883333333333333,10459.541811375,10460.316769583,9,10459.60365425,10459.664397583,10460.332926166,10461.209597833,0,0.774958207999589
126,26,1,categorization,0,kitchen,SHINEd_sun_acxkpeoqbwcxfvip.tif,77,0.0666666666666667,0.0666666666666667,1.95,10461.214417916,10461.852859541,9,10461.276159791,10461.33693625,10461.871957375,10463.815345125,1,0.638441625000269
126,27,1,categorization,0,kitchen,SHINEd_sun_awcpdzzznmweyyhv.tif,106,0.0666666666666667,0.0666666666666667,1.25,10463.832937666,10464.681539708,13,10463.899084666,10463.96383425,10464.703184666,10465.946550541,0,0.848602042000493
126,28,1,categorization,0,kitchen,SHINEd_sun_aenotlpyftoioydp.tif,82,0.0666666666666667,0.0666666666666667,1.95,10465.957493041,10466.608316,9,10466.022844958,10466.089465833,10466.629666375,10468.573049,1,0.650822958999925
126,29,1,categorization,0,kitchen,SHINEd_labelme_rykdqxenmhulbdn.tif,63,0.0666666666666667,0.0666666666666667,1.91666666666667,10468.593417041,10469.37617825,9,10468.660187333,10468.725973916,10469.399562375,10471.309614791,1,0.782761209000455
126,30,1,categorization,0,bathroom,SHINEd_sun_ausgutylgojavyoq.tif,53,0.0666666666666667,0.0666666666666667,1.41666666666667,10471.327127416,10472.246955666,9,10471.393175291,10471.459538625,10472.265903041,10473.67595,0,0.919828250000137
126,31,1,categorization,0,kitchen,SHINEd_sun_amjjdeyrggfqgmom.tif,100,0.0666666666666667,0.0666666666666667,0.716666666666667,10473.693336375,10475.164390458,9,10473.760358,10473.826034291,10475.184148666,10475.894154083,1,1.47105408300013
126,32,1,categorization,0,kitchen,SHINEd_sun_agubuxuukhzyzpdp.tif,88,0.0666666666666667,0.0666666666666667,1.28333333333333,10475.899110416,10476.732578333,9,10475.960844166,10476.021729041,10476.740386375,10478.017105125,1,0.833467917000235
126,33,1,categorization,0,kitchen,SHINEd_labelme_kxvouciolcpqplr.tif,62,0.0666666666666667,0.0666666666666667,0.9,10478.027768375,10479.000926791,9,10478.095138208,10478.159962833,10479.015299416,10479.908636291,1,0.973158416001752
126,34,1,categorization,0,bathroom,SHINEd_sun_atstyziqcmkahyxk.tif,51,0.0666666666666667,0.0666666666666667,0.8,10479.913587666,10481.028678958,13,10479.975394458,10480.036256,10481.038690041,10481.832029291,1,1.11509129200022
126,35,1,categorization,0,kitchen,SHINEd_sun_ahspylgoovwmwvgk.tif,93,0.0666666666666667,0.0666666666666667,1.01666666666667,10481.837068458,10482.933312958,13,10481.89868375,10481.959741458,10482.94520375,10483.955251791,0,1.09624450000047
126,36,1,categorization,0,bathroom,SHINEd_sun_aghyqhbptboemmoq.tif,23,0.0666666666666667,0.0666666666666667,0.85,10483.966273625,10484.773702333,9,10484.031123166,10484.097034541,10484.803382083,10485.646768708,0,0.807428707999861
126,37,1,categorization,0,kitchen,SHINEd_sun_ahpczsiumwwocjkv.tif,92,0.0666666666666667,0.0666666666666667,1.51666666666667,10485.662744291,10486.525047625,9,10485.729166291,10485.794969,10486.530330166,10488.040375583,1,0.862303334000899
126,38,1,categorization,0,kitchen,SHINEd_sun_afuyedyxivkhecmu.tif,85,0.0666666666666667,0.0666666666666667,1.83333333333333,10488.060812,10488.916208666,9,10488.127843791,10488.19312125,10488.932295583,10490.759011791,1,0.855396666000161
126,39,1,categorization,0,kitchen,SHINEd_sun_azmutvzbxypaceni.tif,110,0.0666666666666667,0.0666666666666667,0.716666666666667,10490.776756958,10492.332738291,13,10490.843671583,10490.909479583,10492.345050083,10493.055056083,0,1.55598133300009
126,40,1,categorization,0,kitchen,SHINEd_sun_ahljzhgcdpomplvg.tif,91,0.0666666666666667,0.0666666666666667,0.9,10493.059883583,10494.100844875,9,10493.121822208,10493.182508875,10494.11778025,10495.011118625,1,1.04096129199934
126,41,1,categorization,0,bathroom,SHINEd_sun_apmqjbnwghzuhhzh.tif,46,0.0666666666666667,0.0666666666666667,0.916666666666667,10495.016141625,10496.620847916,9,10495.077887125,10495.138740958,10496.624165833,10497.534170833,0,1.60470629100018
126,42,1,categorization,0,bathroom,SHINEd_sun_acduarbnmmoglmiv.tif,16,0.0666666666666667,0.0666666666666667,0.816666666666667,10497.540058208,10499.452521833,13,10497.601896125,10497.662699583,10499.4653155,10500.275319583,1,1.91246362499987
126,43,1,categorization,0,bathroom,SHINEd_sun_aleqenyvunhactkl.tif,32,0.0666666666666667,0.0666666666666667,1.88333333333333,10500.280349541,10501.156751,9,10500.342009833,10500.402974875,10501.171444708,10503.048149666,0,0.87640145899968
126,44,1,categorization,0,bathroom,SHINEd_sun_ahcvzmoyaycdoftf.tif,27,0.0666666666666667,0.0666666666666667,0.9,10503.065119166,10503.832279333,9,10503.133438166,10503.197487916,10503.854354416,10504.747691708,0,0.767160167000839
126,45,1,categorization,0,kitchen,SHINEd_sun_aaxxjlsuzvqlgylf.tif,68,0.0666666666666667,0.0666666666666667,1,10504.752803291,10505.877103458,9,10504.814617833,10504.875460416,10505.893909125,10506.887247,1,1.12430016700091
126,46,1,categorization,0,kitchen,SHINEd_sun_adgqasybjyktddhj.tif,78,0.0666666666666667,0.0666666666666667,0.733333333333333,10506.892042625,10507.885315166,9,10506.953787916,10507.0146225,10507.899722541,10508.626393375,1,0.993272540999897
126,47,1,categorization,0,kitchen,SHINEd_sun_abpwyqmlzafvklqo.tif,72,0.0666666666666667,0.0666666666666667,0.883333333333333,10508.631250166,10509.701198166,9,10508.693003791,10508.753801416,10509.705593875,10510.582266125,1,1.06994800000029
126,48,1,categorization,0,bathroom,SHINEd_sun_axldvoqbuvuggfmq.tif,57,0.0666666666666667,0.0666666666666667,1.73333333333333,10510.587086,10511.525137666,9,10510.64891025,10510.709749875,10511.528441875,10513.255197416,0,0.93805166600032
126,49,1,categorization,0,bathroom,SHINEd_sun_aclfzgynxzxlbepz.tif,19,0.0666666666666667,0.0666666666666667,1.91666666666667,10513.272950875,10514.236263333,9,10513.341454333,10513.405645916,10514.263254083,10516.173306416,0,0.963312457999564
126,50,1,categorization,0,kitchen,SHINEd_sun_ahywdevtimnqcsln.tif,94,0.0666666666666667,0.0666666666666667,1.35,10516.192631583,10516.93569875,9,10516.259901083,10516.32557975,10516.94791525,10518.291292458,1,0.743067166999026
126,1,2,categorization,0,kitchen,SHINEd_sun_akchetnepxlcxhsu.tif,98,0.0666666666666667,0.0666666666666667,0.95,10554.725088791,10556.19707025,13,10554.7875675,10554.847735708,10556.216753208,10557.160090291,0,1.47198145900074
126,2,2,categorization,0,kitchen,SHINEd_sun_aarfiyshqohlwkmo.tif,67,0.0666666666666667,0.0666666666666667,0.75,10557.164997083,10557.948550416,9,10557.226818291,10557.287596166,10557.95610325,10558.699439875,1,0.783553332999873
126,3,2,categorization,0,kitchen,SHINEd_sun_aegoxogugdkwpmpj.tif,80,0.0666666666666667,0.0666666666666667,1.68333333333333,10558.704073166,10559.564614458,9,10558.765762375,10558.826689458,10559.578630291,10561.255344291,1,0.860541292000562
126,4,2,categorization,0,bathroom,SHINEd_sun_ahqjwnzgolcaoidx.tif,29,0.0666666666666667,0.0666666666666667,0.816666666666667,10561.276432791,10562.13504,9,10561.34313775,10561.408971916,10562.147069333,10562.957073541,0,0.858607208998365
126,5,2,categorization,0,bathroom,SHINEd_sun_apjevzvycyhuqghb.tif,43,0.0666666666666667,0.0666666666666667,0.916666666666667,10562.96210875,10563.708523666,9,10563.023926583,10563.084817125,10563.720130916,10564.630135708,0,0.746414916000504
126,6,2,categorization,0,bathroom,SHINEd_sun_afcoljnjfoxjtgja.tif,20,0.0666666666666667,0.0666666666666667,1.21666666666667,10564.635342375,10565.436554125,9,10564.697126791,10564.758018833,10565.443640625,10566.653673083,0,0.80121175000022
126,7,2,categorization,0,bathroom,SHINEd_sun_azqyogdvyhahyram.tif,60,0.0666666666666667,0.0666666666666667,0.9,10566.670961125,10567.2952105,13,10566.7375755,10566.803707625,10567.309481291,10568.202845625,1,0.624249374999636
126,8,2,categorization,0,kitchen,SHINEd_sun_axyyrmzcupyhlivc.tif,107,0.0666666666666667,0.0666666666666667,1.65,10568.219384166,10568.893028,9,10568.2860955,10568.351403666,10568.904008875,10570.547376291,1,0.673643834001268
126,9,2,categorization,0,kitchen,SHINEd_sun_agzzivivdpnawacl.tif,89,0.0666666666666667,0.0666666666666667,1.15,10570.565329333,10571.811966875,9,10570.632106458,10570.697941875,10571.839762958,10572.983144958,1,1.24663754200083
126,10,2,categorization,0,kitchen,SHINEd_sun_aapllqyqlykszopd.tif,66,0.0666666666666667,0.0666666666666667,1.13333333333333,10572.992421958,10573.849586458,9,10573.059125958,10573.124801541,10573.864117583,10574.99083425,1,0.857164499999271
126,11,2,categorization,0,kitchen,SHINEd_sun_akcjzhbbjlbogpdi.tif,99,0.0666666666666667,0.0666666666666667,1.76666666666667,10575.000732041,10575.8183905,9,10575.0678085,10575.132928875,10575.839580083,10577.5996135,1,0.817658459000086
126,12,2,categorization,0,bathroom,SHINEd_sun_ahijqszoswveeyji.tif,28,0.0666666666666667,0.0666666666666667,1.8,10577.616814916,10578.470875625,9,10577.683681083,10577.749029708,10578.4889495,10580.282328333,0,0.854060708999896
126,13,2,categorization,0,bathroom,SHINEd_sun_axxbkopsgyouuebh.tif,58,0.0666666666666667,0.0666666666666667,0.9,10580.300711541,10580.957753333,13,10580.367831791,10580.432968416,10580.972296416,10581.8656345,1,0.657041791999291
126,14,2,categorization,0,bathroom,SHINEd_sun_acegryoqftbzowsg.tif,17,0.0666666666666667,0.0666666666666667,0.716666666666667,10581.870804166,10582.660331041,9,10581.932614875,10581.993459458,10582.678589708,10583.388594458,0,0.789526874999865
126,15,2,categorization,0,bathroom,SHINEd_sun_amzlamotzwfkwjco.tif,37,0.0666666666666667,0.0666666666666667,1.36666666666667,10583.3934375,10584.221004083,9,10583.455091625,10583.51603175,10584.234525583,10585.59457425,0,0.82756658299877
126,16,2,categorization,0,kitchen,SHINEd_sun_abftihopvusyfakt.tif,71,0.0666666666666667,0.0666666666666667,0.916666666666667,10585.612608916,10586.288787791,9,10585.6791285,10585.745105083,10586.318145125,10587.228177833,1,0.676178874999096
126,17,2,categorization,0,kitchen,SHINEd_sun_acfmftudsenhrfhy.tif,74,0.0666666666666667,0.0666666666666667,0.716666666666667,10587.2438025,10587.948570666,9,10587.3103575,10587.367772375,10587.95303,10588.663034875,1,0.704768166000576
126,18,2,categorization,0,kitchen,SHINEd_sun_aqeaevwwwjoqhzvl.tif,101,0.0666666666666667,0.0666666666666667,0.766666666666667,10588.667875708,10589.748584666,9,10588.729535416,10588.7905995,10589.759133625,10590.519137083,1,1.08070895799938
126,19,2,categorization,0,kitchen,SHINEd_sun_aadbddgrdsjugojn.tif,64,0.0666666666666667,0.0666666666666667,1.06666666666667,10590.523976375,10591.877025166,9,10590.585830416,10590.646653208,10591.882085708,10592.942129875,1,1.35304879100113
126,20,2,categorization,0,kitchen,SHINEd_sun_aamedkxepzlwuxes.tif,65,0.0666666666666667,0.0666666666666667,0.8,10592.953428541,10593.781552375,9,10593.018041291,10593.08312025,10593.806411291,10594.599776125,1,0.828123833998688
126,21,2,categorization,0,bathroom,SHINEd_sun_aoybiabnpadelefl.tif,41,0.0666666666666667,0.0666666666666667,0.866666666666667,10594.616103208,10595.50058725,9,10594.682633125,10594.748248083,10595.516902291,10596.376906416,0,0.884484042000622
126,22,2,categorization,0,kitchen,SHINEd_sun_ahdycvpopffkzzsu.tif,90,0.0666666666666667,0.0666666666666667,1.48333333333333,10596.381854833,10597.260476458,9,10596.443502166,10596.504504291,10597.272884541,10598.749582916,1,0.878621624999141
126,23,2,categorization,0,kitchen,SHINEd_labelme_brsyyvweiuaazfr.tif,61,0.0666666666666667,0.0666666666666667,1.1,10598.767838166,10600.091896708,13,10598.834458333,10598.900057166,10600.107070166,10601.200446958,0,1.32405854199897
126,24,2,categorization,0,kitchen,SHINEd_sun_aggjlwcdjsjcaemh.tif,86,0.0666666666666667,0.0666666666666667,0.783333333333333,10601.211305041,10603.652761,13,10601.276356125,10601.343522541,10603.662891625,10604.43956375,0,2.44145595899863
126,25,2,categorization,0,bathroom,SHINEd_sun_alotolagknyrgtsk.tif,35,0.0666666666666667,0.0666666666666667,0.866666666666667,10604.444436666,10605.5884985,9,10604.506273416,10604.567202166,10605.602674125,10606.462678291,0,1.14406183400024
126,26,2,categorization,0,kitchen,SHINEd_sun_aunzlwrbjumxhwdj.tif,103,0.0666666666666667,0.0666666666666667,1.83333333333333,10606.467477791,10607.26850525,9,10606.529218125,10606.590022833,10607.275326541,10609.102041833,1,0.80102745899967
126,27,2,categorization,0,kitchen,SHINEd_sun_aehawpgmrlhlvcow.tif,81,0.0666666666666667,0.0666666666666667,0.7,10609.119556916,10610.222883333,9,10609.186445708,10609.251767958,10610.2414825,10610.934819583,1,1.10332641699824
126,28,2,categorization,0,bathroom,SHINEd_sun_akiytfaagpdsphgz.tif,31,0.0666666666666667,0.0666666666666667,1.33333333333333,10610.939778916,10611.764083708,9,10611.001556708,10611.062575791,10611.781015625,10613.107727375,0,0.824304792000476
126,29,2,categorization,0,bathroom,SHINEd_sun_aljolscmmzydegqp.tif,33,0.0666666666666667,0.0666666666666667,1.33333333333333,10613.126252375,10613.858084916,9,10613.1931845,10613.259415416,10613.883223875,10615.209923916,0,0.731832541001495
126,30,2,categorization,0,bathroom,SHINEd_sun_abjtwfukuwddzted.tif,15,0.0666666666666667,0.0666666666666667,1.38333333333333,10615.229260416,10616.169776791,13,10615.296563583,10615.362287458,10616.185606208,10617.56231575,1,0.940516374999788
126,31,2,categorization,0,bathroom,SHINEd_sun_ambriybtogmepttm.tif,36,0.0666666666666667,0.0666666666666667,1.25,10617.580397,10618.452012833,9,10617.64999375,10617.7134645,10618.470173291,10619.713550833,0,0.87161583300076
126,32,2,categorization,0,bathroom,SHINEd_sun_apeeialkgkuxddgh.tif,42,0.0666666666666667,0.0666666666666667,1.55,10619.734989208,10620.470782833,9,10619.802208875,10619.867168833,10620.490737833,10622.034114416,0,0.735793624999133
126,33,2,categorization,0,bathroom,SHINEd_sun_auzqhkafidnkrwmo.tif,54,0.0666666666666667,0.0666666666666667,1.61666666666667,10622.053274208,10622.800382458,9,10622.120492125,10622.186191166,10622.826230041,10624.436273583,0,0.747108249999656
126,34,2,categorization,0,bathroom,SHINEd_sun_ajlawzvmubibwbpy.tif,30,0.0666666666666667,0.0666666666666667,1.33333333333333,10624.454957541,10625.321643083,9,10624.521482166,10624.587710541,10625.34500375,10626.671707708,0,0.866685541999686
126,35,2,categorization,0,bathroom,SHINEd_sun_aggnnqpdorgxpvce.tif,21,0.0666666666666667,0.0666666666666667,0.833333333333333,10626.692515916,10628.149755666,13,10626.759785416,10626.825481833,10628.167719208,10628.994390166,1,1.45723974999964
126,36,2,categorization,0,kitchen,SHINEd_sun_ajkqhtgcbgpcwrwn.tif,97,0.0666666666666667,0.0666666666666667,1.45,10628.999567833,10630.172198541,9,10629.061471125,10629.122245458,10630.191187916,10631.6345535,1,1.17263070800072
126,37,2,categorization,0,bathroom,SHINEd_sun_asfwthctfqerjvxr.tif,49,0.0666666666666667,0.0666666666666667,0.933333333333333,10631.651704833,10632.569423625,9,10631.719270208,10631.784283541,10632.59111575,10633.517787125,0,0.917718791999505
126,38,2,categorization,0,bathroom,SHINEd_sun_agguqiubmwhqqunb.tif,22,0.0666666666666667,0.0666666666666667,1.65,10633.523118125,10634.868902,9,10633.584897041,10633.645746916,10634.881436,10636.524818625,0,1.34578387500005
126,39,2,categorization,0,kitchen,SHINEd_sun_aypmqwcualkenuoe.tif,109,0.0666666666666667,0.0666666666666667,1.23333333333333,10636.542912958,10639.773411333,9,10636.609700166,10636.676135875,10639.794588833,10641.02130325,1,3.23049837500002
126,40,2,categorization,0,kitchen,SHINEd_sun_aexklacwqwezaorf.tif,84,0.0666666666666667,0.0666666666666667,0.766666666666667,10641.038619958,10642.35894875,13,10641.107262625,10641.171062833,10642.378229208,10643.138233375,0,1.32032879199869
126,41,2,categorization,0,bathroom,SHINEd_sun_anryaplzeujmzfkd.tif,39,0.0666666666666667,0.0666666666666667,1.78333333333333,10643.14315125,10644.124823,13,10643.204945625,10643.265847041,10644.134266791,10645.910981583,1,0.981671749999805
126,42,2,categorization,0,kitchen,SHINEd_sun_acgtpgfybqjmzeyw.tif,75,0.0666666666666667,0.0666666666666667,1.11666666666667,10645.920757208,10647.011748416,9,10645.986087958,10646.052045208,10647.022965291,10648.133016833,1,1.09099120800056
126,43,2,categorization,0,kitchen,SHINEd_sun_aixorpehvfykdynp.tif,95,0.0666666666666667,0.0666666666666667,1.85,10648.143260208,10649.371680666,9,10648.208739541,10648.275571041,10649.398776583,10651.242156583,1,1.22842045799916
126,44,2,categorization,0,bathroom,SHINEd_sun_apkxzenqapsujocq.tif,45,0.0666666666666667,0.0666666666666667,0.733333333333333,10651.26064175,10652.116993708,13,10651.327521541,10651.392855958,10652.13231525,10652.858986375,1,0.856351958000232
126,45,2,categorization,0,kitchen,SHINEd_sun_aeqdocilnnpuvuhx.tif,83,0.0666666666666667,0.0666666666666667,0.783333333333333,10652.864040208,10653.699901708,13,10652.925777541,10652.986654958,10653.70527525,10654.481946375,0,0.835861499999737
126,46,2,categorization,0,bathroom,SHINEd_sun_agrwbmhcpmfuwmsg.tif,24,0.0666666666666667,0.0666666666666667,1.5,10654.486809375,10655.7083,9,10654.548460208,10654.609380333,10655.728337041,10657.221723416,0,1.22149062500102
126,47,2,categorization,0,bathroom,SHINEd_sun_alkosphxlxwjwgjd.tif,34,0.0666666666666667,0.0666666666666667,0.733333333333333,10657.242464583,10658.55607275,9,10657.309986708,10657.375266375,10658.581927458,10659.308597916,0,1.31360816699998
126,48,2,categorization,0,kitchen,SHINEd_sun_admlmbcdswaszruo.tif,79,0.0666666666666667,0.0666666666666667,1.1,10659.313726458,10660.132421041,9,10659.375538666,10659.436713,10660.138577375,10661.2319615,1,0.818694583000251
126,49,2,categorization,0,bathroom,SHINEd_sun_aofnryafpsjimzsb.tif,40,0.0666666666666667,0.0666666666666667,1.6,10661.240641583,10662.129759958,9,10661.305736125,10661.373146666,10662.145906791,10663.739288041,0,0.88911837500018
126,50,2,categorization,0,kitchen,SHINEd_sun_ajcbwwvdlsvjyzje.tif,96,0.0666666666666667,0.0666666666666667,1.06666666666667,10663.758805291,10664.606435916,9,10663.825539208,10663.891010208,10664.631030208,10665.6910755,1,0.84763062499951
126,1,3,categorization,0,kitchen,SHINEd_sun_azmutvzbxypaceni.tif,110,0.0666666666666667,0.0666666666666667,0.85,10673.433016,10674.876371583,9,10673.494695333,10673.5559965,10674.891596333,10675.734934791,1,1.44335558299827
126,2,3,categorization,0,kitchen,SHINEd_sun_ahpczsiumwwocjkv.tif,92,0.0666666666666667,0.0666666666666667,1.65,10675.739787875,10676.588544666,13,10675.801508791,10675.8624045,10676.597490458,10678.240874,0,0.848756790999687
126,3,3,categorization,0,kitchen,SHINEd_sun_aqeaevwwwjoqhzvl.tif,101,0.0666666666666667,0.0666666666666667,0.783333333333333,10678.259703125,10679.035611458,9,10678.326583,10678.392370083,10679.065523583,10679.842195375,1,0.775908333000189
126,4,3,categorization,0,kitchen,SHINEd_labelme_kxvouciolcpqplr.tif,62,0.0666666666666667,0.0666666666666667,0.933333333333333,10679.847286291,10680.748155375,9,10679.908913916,10679.970099875,10680.755061333,10681.681732541,1,0.900869084000078
126,5,3,categorization,0,kitchen,SHINEd_sun_aymvwlarqodbwuoc.tif,108,0.0666666666666667,0.0666666666666667,0.866666666666667,10681.686572166,10682.331906208,9,10681.748380333,10681.809518958,10682.344684958,10683.204688583,1,0.645334042001195
126,6,3,categorization,0,kitchen,SHINEd_sun_aehawpgmrlhlvcow.tif,81,0.0666666666666667,0.0666666666666667,1.11666666666667,10683.209690166,10684.08453075,9,10683.271324333,10683.332332375,10684.100815041,10685.210854291,1,0.874840583999685
126,7,3,categorization,0,kitchen,SHINEd_sun_axyyrmzcupyhlivc.tif,107,0.0666666666666667,0.0666666666666667,0.966666666666667,10685.220733,10685.918612833,9,10685.285300375,10685.352880916,10685.941336666,10686.901389458,1,0.697879833000115
126,8,3,categorization,0,kitchen,SHINEd_sun_ahywdevtimnqcsln.tif,94,0.0666666666666667,0.0666666666666667,1.78333333333333,10686.917667416,10687.892064416,9,10686.984226375,10687.050014416,10687.901867583,10689.678587416,1,0.974396999999954
126,9,3,categorization,0,kitchen,SHINEd_sun_agorklincwxrdtga.tif,87,0.0666666666666667,0.0666666666666667,1.55,10689.695796208,10690.551141333,9,10689.762696333,10689.828422041,10690.567508125,10692.110892583,1,0.855345125000895
126,10,3,categorization,0,bathroom,SHINEd_sun_apkxzenqapsujocq.tif,45,0.0666666666666667,0.0666666666666667,1.41666666666667,10692.128985166,10693.009576208,13,10692.195772833,10692.26134675,10693.034733208,10694.444773958,1,0.880591041999651
126,11,3,categorization,0,kitchen,SHINEd_sun_aexklacwqwezaorf.tif,84,0.0666666666666667,0.0666666666666667,0.8,10694.462173125,10695.379398458,9,10694.529345166,10694.595786416,10695.402710875,10696.196048583,1,0.917225332999806
126,12,3,categorization,0,bathroom,SHINEd_sun_auzqhkafidnkrwmo.tif,54,0.0666666666666667,0.0666666666666667,1.28333333333333,10696.20108,10697.283901875,9,10696.262845375,10696.323771041,10697.292433,10698.569131958,0,1.08282187499935
126,13,3,categorization,0,bathroom,SHINEd_sun_apkruvsevgegsdwp.tif,44,0.0666666666666667,0.0666666666666667,1.66666666666667,10698.587174083,10699.28189625,13,10698.654905958,10698.720105541,10699.310534166,10700.970569416,1,0.694722166999782
126,14,3,categorization,0,bathroom,SHINEd_sun_ajlawzvmubibwbpy.tif,30,0.0666666666666667,0.0666666666666667,1.81666666666667,10700.992487541,10701.796695083,9,10701.059803041,10701.125351958,10701.815907291,10703.625949708,0,0.804207541999858
126,15,3,categorization,0,bathroom,SHINEd_sun_anhioqovhscjqqwb.tif,38,0.0666666666666667,0.0666666666666667,1.35,10703.643829083,10704.439472791,13,10703.711433,10703.776516041,10704.467182291,10705.810551041,1,0.79564370800108
126,16,3,categorization,0,kitchen,SHINEd_sun_agzzivivdpnawacl.tif,89,0.0666666666666667,0.0666666666666667,0.916666666666667,10705.829538458,10709.3708485,13,10705.896633458,10705.960959458,10709.387493833,10710.297497791,0,3.54131004200099
126,17,3,categorization,0,kitchen,SHINEd_labelme_rykdqxenmhulbdn.tif,63,0.0666666666666667,0.0666666666666667,0.916666666666667,10710.3019235,10711.132320041,9,10710.363672,10710.42462025,10711.143067,10712.053070291,1,0.830396541001392
126,18,3,categorization,0,bathroom,SHINEd_sun_axxbkopsgyouuebh.tif,58,0.0666666666666667,0.0666666666666667,1.31666666666667,10712.057984333,10712.979821708,13,10712.119623375,10712.180558583,10712.999047958,10714.30907775,1,0.921837375000905
126,19,3,categorization,0,bathroom,SHINEd_sun_aghyqhbptboemmoq.tif,23,0.0666666666666667,0.0666666666666667,1.45,10714.328535083,10715.19343575,9,10714.395149458,10714.461052875,10715.218083416,10716.661471291,0,0.864900667000256
126,20,3,categorization,0,bathroom,SHINEd_sun_abjtwfukuwddzted.tif,15,0.0666666666666667,0.0666666666666667,0.95,10716.678658291,10717.798476166,13,10716.745544333,10716.811258375,10717.8180605,10718.761398375,1,1.11981787499826
126,21,3,categorization,0,kitchen,SHINEd_sun_acwjdupvyjsugpay.tif,76,0.0666666666666667,0.0666666666666667,1.38333333333333,10718.766339125,10719.876387666,9,10718.8280835,10718.888950583,10719.890777,10721.267499083,1,1.11004854099883
126,22,3,categorization,0,kitchen,SHINEd_sun_auaiucuqpdausiva.tif,102,0.0666666666666667,0.0666666666666667,1.16666666666667,10721.285004041,10722.29379575,9,10721.35340825,10721.417065791,10722.323746916,10723.483792625,1,1.00879170900043
126,23,3,categorization,0,bathroom,SHINEd_sun_ahijqszoswveeyji.tif,28,0.0666666666666667,0.0666666666666667,1.61666666666667,10723.493309208,10724.289223708,9,10723.561078,10723.625684458,10724.315931166,10725.925983625,0,0.795914500000436
126,24,3,categorization,0,bathroom,SHINEd_sun_aggnnqpdorgxpvce.tif,21,0.0666666666666667,0.0666666666666667,1.38333333333333,10725.935515791,10726.780697541,13,10726.00072525,10726.067808416,10726.807794791,10728.184515708,1,0.845181750000847
126,25,3,categorization,0,kitchen,SHINEd_sun_aunzlwrbjumxhwdj.tif,103,0.0666666666666667,0.0666666666666667,1.78333333333333,10728.202343458,10730.099896,9,10728.269238666,10728.334422833,10730.10316,10731.879857666,1,1.89755254199918
126,26,3,categorization,0,kitchen,SHINEd_sun_ahspylgoovwmwvgk.tif,93,0.0666666666666667,0.0666666666666667,0.783333333333333,10731.897449541,10732.703635375,9,10731.962743291,10732.029713208,10732.719670625,10733.496341958,1,0.806185834000644
126,27,3,categorization,0,bathroom,SHINEd_sun_apeeialkgkuxddgh.tif,42,0.0666666666666667,0.0666666666666667,1.65,10733.501517375,10734.364075333,9,10733.563238875,10733.624230708,10734.376118916,10736.019505291,0,0.862557958000252
126,28,3,categorization,0,bathroom,SHINEd_sun_aavhrsfjbserjtht.tif,13,0.0666666666666667,0.0666666666666667,1.86666666666667,10736.037705958,10736.966041333,9,10736.104378041,10736.170811041,10736.994240458,10738.854290083,0,0.928335374999733
126,29,3,categorization,0,bathroom,SHINEd_sun_aspsyogrekjtfozg.tif,50,0.0666666666666667,0.0666666666666667,1.23333333333333,10738.872001625,10739.910137875,13,10738.938646166,10739.004660458,10739.9259165,10741.152631166,1,1.0381362499993
126,30,3,categorization,0,kitchen,SHINEd_sun_auticobqsbwgoppi.tif,104,0.0666666666666667,0.0666666666666667,0.7,10741.169792166,10742.893462791,13,10741.236544916,10741.302491916,10742.908725166,10743.602061916,0,1.72367062500052
126,31,3,categorization,0,kitchen,SHINEd_sun_aaxxjlsuzvqlgylf.tif,68,0.0666666666666667,0.0666666666666667,0.716666666666667,10743.606982208,10744.540129333,9,10743.668771166,10743.729652416,10744.548221375,10745.258226416,1,0.933147124998868
126,32,3,categorization,0,bathroom,SHINEd_sun_avhrdrntsqrjzccq.tif,55,0.0666666666666667,0.0666666666666667,1.05,10745.263084125,10746.180013083,9,10745.325081541,10745.385633958,10746.18742025,10747.230805958,0,0.916928958000426
126,33,3,categorization,0,bathroom,SHINEd_sun_ahcvzmoyaycdoftf.tif,27,0.0666666666666667,0.0666666666666667,1.1,10747.242423416,10748.220230166,9,10747.307484,10747.372671666,10748.24632,10749.339708125,0,0.977806749999218
126,34,3,categorization,0,bathroom,SHINEd_sun_alotolagknyrgtsk.tif,35,0.0666666666666667,0.0666666666666667,1.13333333333333,10749.357980625,10750.523945875,9,10749.424120333,10749.490329541,10750.547076708,10751.673776208,0,1.16596525000023
126,35,3,categorization,0,kitchen,SHINEd_sun_aypmqwcualkenuoe.tif,109,0.0666666666666667,0.0666666666666667,1.38333333333333,10751.685257291,10752.641332875,9,10751.751128041,10751.817502333,10752.657064291,10754.033776375,1,0.956075584001155
126,36,3,categorization,0,bathroom,SHINEd_sun_ausgutylgojavyoq.tif,53,0.0666666666666667,0.0666666666666667,1.5,10754.051783083,10755.98798825,13,10754.118622083,10754.18402575,10756.002734291,10757.496114458,1,1.93620516700139
126,37,3,categorization,0,bathroom,SHINEd_sun_anryaplzeujmzfkd.tif,39,0.0666666666666667,0.0666666666666667,1.61666666666667,10757.514020416,10758.568879125,13,10757.5805015,10757.64685025,10758.586331583,10760.196367166,1,1.05485870899975
126,38,3,categorization,0,kitchen,SHINEd_sun_abdenxonkemggwsq.tif,69,0.0666666666666667,0.0666666666666667,0.983333333333333,10760.214057083,10761.012901833,9,10760.281302166,10760.346453708,10761.034753791,10762.011424291,1,0.798844750001081
126,39,3,categorization,0,kitchen,SHINEd_sun_aeqdocilnnpuvuhx.tif,83,0.0666666666666667,0.0666666666666667,1.3,10762.016690791,10762.987995458,13,10762.078392541,10762.139378541,10762.991230208,10764.284611833,0,0.971304666998549
126,40,3,categorization,0,bathroom,SHINEd_sun_aofnryafpsjimzsb.tif,40,0.0666666666666667,0.0666666666666667,1.03333333333333,10764.301897791,10765.391206041,13,10764.368651916,10764.434013833,10765.406237125,10766.432953083,1,1.08930825000061
126,41,3,categorization,0,bathroom,SHINEd_sun_agrwbmhcpmfuwmsg.tif,24,0.0666666666666667,0.0666666666666667,1.45,10766.442955583,10767.148385791,9,10766.50775475,10766.57382425,10767.163208583,10768.606594,0,0.705430208001417
126,42,3,categorization,0,kitchen,SHINEd_sun_admlmbcdswaszruo.tif,79,0.0666666666666667,0.0666666666666667,1.23333333333333,10768.617633708,10769.279459958,9,10768.684607875,10768.749738083,10769.306598125,10770.533304208,1,0.661826249999649
126,43,3,categorization,0,kitchen,SHINEd_sun_afuyedyxivkhecmu.tif,85,0.0666666666666667,0.0666666666666667,1.26666666666667,10770.551342708,10771.876114375,9,10770.618282458,10770.676165416,10771.894820833,10773.15487525,1,1.32477166699937
126,44,3,categorization,0,kitchen,SHINEd_sun_avszsnwsbuqfgzbn.tif,105,0.0666666666666667,0.0666666666666667,1.03333333333333,10773.174423625,10774.014550416,9,10773.23987375,10773.306743458,10774.029720333,10775.056427666,1,0.84012679099942
126,45,3,categorization,0,kitchen,SHINEd_sun_agubuxuukhzyzpdp.tif,88,0.0666666666666667,0.0666666666666667,1.31666666666667,10775.066178833,10775.942984625,9,10775.130438791,10775.197144666,10775.968649333,10777.278691375,1,0.876805792000596
126,46,3,categorization,0,bathroom,SHINEd_sun_aqrpegblszgcoujh.tif,48,0.0666666666666667,0.0666666666666667,1.7,10777.297015375,10778.173526,9,10777.3658245,10777.429528875,10778.203328291,10779.896693083,0,0.876510625001174
126,47,3,categorization,0,kitchen,SHINEd_sun_aixorpehvfykdynp.tif,95,0.0666666666666667,0.0666666666666667,1.35,10779.908092708,10780.606702041,9,10779.972629541,10780.038427833,10780.628990791,10781.972367,1,0.698609332999695
126,48,3,categorization,0,kitchen,SHINEd_sun_ajcbwwvdlsvjyzje.tif,96,0.0666666666666667,0.0666666666666667,0.8,10781.982713291,10782.609162791,9,10782.05009975,10782.116873791,10782.622863,10783.416237083,1,0.62644949999958
126,49,3,categorization,0,bathroom,SHINEd_sun_awnqiikzaispgmwo.tif,56,0.0666666666666667,0.0666666666666667,0.766666666666667,10783.432600333,10784.355601583,13,10783.499103333,10783.565423416,10784.367444166,10785.127449666,1,0.923001249999288
126,50,3,categorization,0,bathroom,SHINEd_sun_acduarbnmmoglmiv.tif,16,0.0666666666666667,0.0666666666666667,1.38333333333333,10785.132322083,10785.916022791,9,10785.19406475,10785.254908708,10785.923296333,10787.300013833,0,0.783700707999742
126,1,4,categorization,0,bathroom,SHINEd_sun_aunuadmjocsddsrl.tif,52,0.0666666666666667,0.0666666666666667,1,10793.239551583,10794.147786625,9,10793.301434791,10793.362204125,10794.164112541,10795.157450125,0,0.908235042001252
126,2,4,categorization,0,kitchen,SHINEd_sun_abdxkyyxwfskuaqb.tif,70,0.0666666666666667,0.0666666666666667,0.966666666666667,10795.162450333,10795.835458333,9,10795.2241945,10795.285030041,10795.853550583,10796.813556583,1,0.673007999999754
126,3,4,categorization,0,kitchen,SHINEd_sun_aegoxogugdkwpmpj.tif,80,0.0666666666666667,0.0666666666666667,1.75,10796.818493916,10797.356010708,9,10796.880281291,10796.941126375,10797.359521083,10799.102898416,1,0.537516791999224
126,4,4,categorization,0,kitchen,SHINEd_sun_abpwyqmlzafvklqo.tif,72,0.0666666666666667,0.0666666666666667,1.68333333333333,10799.12011625,10799.951180125,9,10799.188046083,10799.25301875,10799.974899916,10801.651609125,1,0.831063874999018
126,5,4,categorization,0,kitchen,SHINEd_sun_akcjzhbbjlbogpdi.tif,99,0.0666666666666667,0.0666666666666667,1.58333333333333,10801.668424541,10802.548668333,9,10801.736955083,10801.801273625,10802.575036875,10804.151737666,1,0.880243792000329
126,6,4,categorization,0,kitchen,SHINEd_sun_akchetnepxlcxhsu.tif,98,0.0666666666666667,0.0666666666666667,1,10804.170761708,10805.380204958,13,10804.238128,10804.303216708,10805.410341583,10806.403680416,0,1.20944325000164
126,7,4,categorization,0,bathroom,SHINEd_sun_aapitsgbtktqubfy.tif,12,0.0666666666666667,0.0666666666666667,1.33333333333333,10806.408795333,10807.396181583,13,10806.470438541,10806.531454541,10807.399829,10808.7265455,1,0.987386250000782
126,8,4,categorization,0,bathroom,SHINEd_sun_alkosphxlxwjwgjd.tif,34,0.0666666666666667,0.0666666666666667,1.26666666666667,10808.745237541,10809.50346675,9,10808.812755083,10808.878355916,10809.517958458,10810.778012791,0,0.758229209001001
126,9,4,categorization,0,bathroom,SHINEd_sun_aljolscmmzydegqp.tif,33,0.0666666666666667,0.0666666666666667,0.883333333333333,10810.796614916,10811.824762166,13,10810.864672791,10810.929675083,10811.854003708,10812.730676041,1,1.02814724999917
126,10,4,categorization,0,bathroom,SHINEd_sun_aclfzgynxzxlbepz.tif,19,0.0666666666666667,0.0666666666666667,1.26666666666667,10812.735972833,10813.547904375,13,10812.797787333,10812.858666916,10813.560572458,10814.820612875,1,0.811931542000821
126,11,4,categorization,0,bathroom,SHINEd_sun_agguqiubmwhqqunb.tif,22,0.0666666666666667,0.0666666666666667,2,10814.841904875,10815.727819833,9,10814.908898291,10814.974482625,10815.747678875,10817.74104375,0,0.885914958000285
126,12,4,categorization,0,kitchen,SHINEd_sun_ahljzhgcdpomplvg.tif,91,0.0666666666666667,0.0666666666666667,0.733333333333333,10817.756726125,10818.5267905,9,10817.823685458,10817.889431791,10818.546234875,10819.272905833,1,0.770064374999492
126,13,4,categorization,0,bathroom,SHINEd_sun_atstyziqcmkahyxk.tif,51,0.0666666666666667,0.0666666666666667,0.883333333333333,10819.277863958,10820.379118958,13,10819.339628375,10819.400455916,10820.385607833,10821.262279291,1,1.1012550000014
126,14,4,categorization,0,bathroom,SHINEd_sun_axldvoqbuvuggfmq.tif,57,0.0666666666666667,0.0666666666666667,0.983333333333333,10821.267325,10822.139357458,9,10821.329124,10821.389843791,10822.158629625,10823.135301083,0,0.872032457999012
126,15,4,categorization,0,bathroom,SHINEd_sun_ambriybtogmepttm.tif,36,0.0666666666666667,0.0666666666666667,1.56666666666667,10823.140332375,10824.348060125,13,10823.20191275,10823.2629365,10824.365286708,10825.9253345,1,1.20772774999932
126,16,4,categorization,0,bathroom,SHINEd_sun_acgyywnybuveqsro.tif,18,0.0666666666666667,0.0666666666666667,1.08333333333333,10825.934603291,10827.45149,13,10825.99990425,10826.066881,10827.472707,10828.549425833,1,1.51688670899966
126,17,4,categorization,0,bathroom,SHINEd_sun_aoybiabnpadelefl.tif,41,0.0666666666666667,0.0666666666666667,0.75,10828.560029041,10829.737507833,13,10828.624754,10828.691278416,10829.768163333,10830.51150575,1,1.17747879200033
126,18,4,categorization,0,bathroom,SHINEd_sun_apynckhmoftszqoq.tif,47,0.0666666666666667,0.0666666666666667,0.966666666666667,10830.517473,10831.243164208,13,10830.579549166,10830.640301125,10831.258856583,10832.218862125,1,0.725691207999262
126,19,4,categorization,0,kitchen,SHINEd_sun_awcpdzzznmweyyhv.tif,106,0.0666666666666667,0.0666666666666667,1.63333333333333,10832.223864583,10833.227966333,9,10832.285607958,10832.346512958,10833.231672666,10834.858370041,1,1.00410174999888
126,20,4,categorization,0,kitchen,SHINEd_sun_ahdycvpopffkzzsu.tif,90,0.0666666666666667,0.0666666666666667,1.46666666666667,10834.876291416,10835.743241708,13,10834.942847041,10835.009176625,10835.765898291,10837.22593775,0,0.866950292000183
126,21,4,categorization,0,bathroom,SHINEd_labelme_sfxiulhjbhlyiyt.tif,11,0.0666666666666667,0.0666666666666667,0.933333333333333,10837.2465275,10837.974155,13,10837.313248125,10837.379404083,10837.983881791,10838.910553083,1,0.727627500000381
126,22,4,categorization,0,bathroom,SHINEd_sun_apmqjbnwghzuhhzh.tif,46,0.0666666666666667,0.0666666666666667,1.45,10838.915664375,10839.58787,13,10838.977249041,10839.038280541,10839.606651125,10841.050016916,1,0.672205625000061
126,23,4,categorization,0,kitchen,SHINEd_sun_adgqasybjyktddhj.tif,78,0.0666666666666667,0.0666666666666667,0.966666666666667,10841.067338375,10841.76600425,13,10841.135546291,10841.199468625,10841.789519333,10842.749524916,0,0.698665874999278
126,24,4,categorization,0,kitchen,SHINEd_sun_aapllqyqlykszopd.tif,66,0.0666666666666667,0.0666666666666667,0.816666666666667,10842.755720208,10844.347410916,13,10842.817723333,10842.878296833,10844.363714041,10845.173720166,0,1.59169070799908
126,25,4,categorization,0,kitchen,SHINEd_sun_aamedkxepzlwuxes.tif,65,0.0666666666666667,0.0666666666666667,1.96666666666667,10845.178472958,10847.667231375,13,10845.240176333,10845.301117083,10847.686988958,10849.647021166,0,2.48875841700101
126,26,4,categorization,0,kitchen,SHINEd_sun_aenotlpyftoioydp.tif,82,0.0666666666666667,0.0666666666666667,0.916666666666667,10849.664246166,10851.803464333,9,10849.731249291,10849.797113666,10851.815968375,10852.725974083,1,2.13921816699985
126,27,4,categorization,0,kitchen,SHINEd_labelme_brsyyvweiuaazfr.tif,61,0.0666666666666667,0.0666666666666667,1.28333333333333,10852.731345,10854.187654833,13,10852.79310375,10852.853866666,10854.206039958,10855.482744375,0,1.45630983299998
126,28,4,categorization,0,kitchen,SHINEd_sun_acgtpgfybqjmzeyw.tif,75,0.0666666666666667,0.0666666666666667,1.8,10855.499578333,10856.248254166,9,10855.567780666,10855.632288666,10856.272228041,10858.065617333,1,0.748675832999652
126,29,4,categorization,0,bathroom,SHINEd_sun_agyqfjcfkdcydepw.tif,25,0.0666666666666667,0.0666666666666667,1.33333333333333,10858.08212025,10858.852859666,9,10858.150434583,10858.214435416,10858.8711175,10860.197818166,0,0.770739416000652
126,30,4,categorization,0,kitchen,SHINEd_sun_aarfiyshqohlwkmo.tif,67,0.0666666666666667,0.0666666666666667,1.06666666666667,10860.216251291,10861.3245995,9,10860.283300958,10860.347085791,10861.353805375,10862.413856333,1,1.10834820899981
126,31,4,categorization,0,kitchen,SHINEd_sun_aadbddgrdsjugojn.tif,64,0.0666666666666667,0.0666666666666667,1.03333333333333,10862.423469125,10863.117992875,9,10862.4885935,10862.554019791,10863.144064625,10864.170761708,1,0.694523750000371
126,32,4,categorization,0,bathroom,SHINEd_sun_afcoljnjfoxjtgja.tif,20,0.0666666666666667,0.0666666666666667,0.733333333333333,10864.188052958,10864.915045041,9,10864.255526708,10864.321565291,10864.923579875,10865.650252333,0,0.726992083000368
126,33,4,categorization,0,bathroom,SHINEd_sun_azqyogdvyhahyram.tif,60,0.0666666666666667,0.0666666666666667,0.766666666666667,10865.654853125,10866.586927791,13,10865.716716541,10865.777632708,10866.59611375,10867.356117291,1,0.932074666001427
126,34,4,categorization,0,bathroom,SHINEd_sun_asfwthctfqerjvxr.tif,49,0.0666666666666667,0.0666666666666667,1.1,10867.360932708,10869.347724166,9,10867.422627375,10867.483525208,10869.3525405,10870.445917125,0,1.98679145800088
126,35,4,categorization,0,kitchen,SHINEd_sun_aggjlwcdjsjcaemh.tif,86,0.0666666666666667,0.0666666666666667,1.81666666666667,10870.455218458,10871.244139166,9,10870.520477458,10870.588128916,10871.261723666,10873.071760208,1,0.788920707998841
126,36,4,categorization,0,bathroom,SHINEd_sun_amzlamotzwfkwjco.tif,37,0.0666666666666667,0.0666666666666667,0.883333333333333,10873.090926625,10873.957741791,13,10873.158461583,10873.223357625,10873.979006208,10874.855678708,1,0.866815166000379
126,37,4,categorization,0,kitchen,SHINEd_sun_abftihopvusyfakt.tif,71,0.0666666666666667,0.0666666666666667,1.7,10874.860872875,10875.659003458,9,10874.922640333,10874.98360175,10875.668784916,10877.362170833,1,0.798130582999875
126,38,4,categorization,0,bathroom,SHINEd_sun_axyrejkiiaqiurjk.tif,59,0.0666666666666667,0.0666666666666667,1.58333333333333,10877.3791435,10878.179914208,9,10877.44806,10877.511803125,10878.201594458,10879.778300375,0,0.800770707999618
126,39,4,categorization,0,bathroom,SHINEd_sun_ahaulkltgpkeeemi.tif,26,0.0666666666666667,0.0666666666666667,0.833333333333333,10879.795329041,10881.149693333,13,10879.862159541,10879.925809041,10881.165857416,10881.992529291,1,1.35436429199945
126,40,4,categorization,0,bathroom,SHINEd_sun_acegryoqftbzowsg.tif,17,0.0666666666666667,0.0666666666666667,0.95,10881.997574791,10882.659175666,9,10882.059397583,10882.1204855,10882.672176375,10883.615513958,0,0.661600875000659
126,41,4,categorization,0,kitchen,SHINEd_sun_acfmftudsenhrfhy.tif,74,0.0666666666666667,0.0666666666666667,1.06666666666667,10883.621887416,10884.371292625,9,10883.683624208,10883.744497625,10884.379661625,10885.439706541,1,0.749405208998724
126,42,4,categorization,0,bathroom,SHINEd_sun_aleqenyvunhactkl.tif,32,0.0666666666666667,0.0666666666666667,1.68333333333333,10885.451017125,10886.541525791,13,10885.515571083,10885.581503833,10886.571675625,10888.248395791,1,1.09050866600046
126,43,4,categorization,0,kitchen,SHINEd_sun_acxkpeoqbwcxfvip.tif,77,0.0666666666666667,0.0666666666666667,1.31666666666667,10888.26571475,10888.954753333,9,10888.332244291,10888.398449875,10888.971019291,10890.281071958,1,0.689038583001093
126,44,4,categorization,0,bathroom,SHINEd_sun_abapwbhyhkfixyex.tif,14,0.0666666666666667,0.0666666666666667,1.61666666666667,10890.299554458,10890.911404333,9,10890.366443791,10890.43234125,10890.939044333,10892.5490885,0,0.61184987499837
126,45,4,categorization,0,bathroom,SHINEd_sun_akiytfaagpdsphgz.tif,31,0.0666666666666667,0.0666666666666667,1.15,10892.566831,10893.366190208,9,10892.633746583,10892.698998625,10893.389087708,10894.53247175,0,0.799359208000169
126,46,4,categorization,0,kitchen,SHINEd_sun_amjjdeyrggfqgmom.tif,100,0.0666666666666667,0.0666666666666667,1.25,10894.54177975,10895.176433291,9,10894.608432833,10894.67284175,10895.195986291,10896.439364791,1,0.634653541001171
126,47,4,categorization,0,bathroom,SHINEd_sun_apjevzvycyhuqghb.tif,43,0.0666666666666667,0.0666666666666667,1.1,10896.457840791,10897.171709875,9,10896.520541041,10896.5804775,10897.182448666,10898.275826208,0,0.71386908400018
126,48,4,categorization,0,bathroom,SHINEd_sun_ahqjwnzgolcaoidx.tif,29,0.0666666666666667,0.0666666666666667,0.9,10898.285248333,10899.068314166,9,10898.350268,10898.419069458,10899.092411333,10899.985790583,0,0.783065832998545
126,49,4,categorization,0,kitchen,SHINEd_sun_ajkqhtgcbgpcwrwn.tif,97,0.0666666666666667,0.0666666666666667,1.3,10899.996094833,10901.363805125,9,10900.062773166,10900.128457375,10901.3809075,10902.674294708,1,1.36771029199917
126,50,4,categorization,0,kitchen,SHINEd_sun_abrcnpqqhmjwekyf.tif,73,0.0666666666666667,0.0666666666666667,1.25,10902.692021625,10903.798961,9,10902.7589235,10902.824498416,10903.814622875,10905.058000708,1,1.10693937500037
126,1,5,categorization,0,bathroom,SHINEd_sun_alkosphxlxwjwgjd.tif,34,0.0666666666666667,0.0666666666666667,1.7,10911.056754333,10911.811352541,9,10911.118979541,10911.17940625,10911.814327041,10913.507692166,0,0.754598208000971
126,2,5,categorization,0,bathroom,SHINEd_sun_ahaulkltgpkeeemi.tif,26,0.0666666666666667,0.0666666666666667,1.81666666666667,10913.525534083,10914.403013041,13,10913.592323791,10913.657843625,10914.431031625,10916.241080208,1,0.877478957998392
126,3,5,categorization,0,bathroom,SHINEd_sun_ausgutylgojavyoq.tif,53,0.0666666666666667,0.0666666666666667,1.23333333333333,10916.259387083,10916.912619041,9,10916.326615166,10916.391909958,10916.931666583,10918.158373625,0,0.653231958000106
126,4,5,categorization,0,kitchen,SHINEd_sun_abrcnpqqhmjwekyf.tif,73,0.0666666666666667,0.0666666666666667,1.4,10918.1778055,10918.940772375,9,10918.244769625,10918.3103245,10918.967130416,10920.360505458,1,0.76296687499962
126,5,5,categorization,0,bathroom,SHINEd_sun_awnqiikzaispgmwo.tif,56,0.0666666666666667,0.0666666666666667,1.03333333333333,10920.379168083,10921.250641083,9,10920.444770208,10920.511496666,10921.2674065,10922.294117041,0,0.871472999999241
126,6,5,categorization,0,bathroom,SHINEd_sun_atstyziqcmkahyxk.tif,51,0.0666666666666667,0.0666666666666667,1.38333333333333,10922.305824791,10923.2513215,13,10922.370516791,10922.437194166,10923.27798625,10924.654683833,1,0.945496709000508
126,7,5,categorization,0,kitchen,SHINEd_sun_abdxkyyxwfskuaqb.tif,70,0.0666666666666667,0.0666666666666667,2,10924.673951208,10925.477510916,9,10924.7411905,10924.8064505,10925.4962245,10927.489607125,1,0.803559707999739
126,8,5,categorization,0,bathroom,SHINEd_sun_ajlawzvmubibwbpy.tif,30,0.0666666666666667,0.0666666666666667,1.85,10927.508986375,10928.175456625,9,10927.576051833,10927.641626833,10928.199085333,10930.042455625,0,0.666470250000202
126,9,5,categorization,0,kitchen,SHINEd_sun_abpwyqmlzafvklqo.tif,72,0.0666666666666667,0.0666666666666667,0.816666666666667,10930.061300083,10930.637702833,9,10930.128532791,10930.193980708,10930.667700208,10931.477705625,1,0.576402750000852
126,10,5,categorization,0,kitchen,SHINEd_sun_aamedkxepzlwuxes.tif,65,0.0666666666666667,0.0666666666666667,1.85,10931.482860833,10932.043133333,9,10931.544692291,10931.605438958,10932.057277583,10933.900628958,1,0.560272499998973
126,11,5,categorization,0,kitchen,SHINEd_sun_afuyedyxivkhecmu.tif,85,0.0666666666666667,0.0666666666666667,0.733333333333333,10933.90990575,10934.727130291,9,10933.975226583,10934.042358208,10934.749638333,10935.476311125,1,0.817224540998723
126,12,5,categorization,0,bathroom,SHINEd_sun_axyrejkiiaqiurjk.tif,59,0.0666666666666667,0.0666666666666667,0.716666666666667,10935.481393541,10936.611319458,9,10935.543198125,10935.603978541,10936.622586916,10937.332592458,0,1.12992591699913
126,13,5,categorization,0,kitchen,SHINEd_sun_awcpdzzznmweyyhv.tif,106,0.0666666666666667,0.0666666666666667,0.833333333333333,10937.338304375,10937.995437666,9,10937.400122791,10937.460872333,10938.012592666,10938.839262958,1,0.657133291000719
126,14,5,categorization,0,kitchen,SHINEd_sun_ahljzhgcdpomplvg.tif,91,0.0666666666666667,0.0666666666666667,0.95,10938.844073208,10939.467504625,9,10938.905844833,10938.966663125,10939.48533875,10940.428677875,1,0.623431416999665
126,15,5,categorization,0,kitchen,SHINEd_sun_admlmbcdswaszruo.tif,79,0.0666666666666667,0.0666666666666667,1.96666666666667,10940.433643,10940.987277,9,10940.49545,10940.556234,10940.991375666,10942.951405708,1,0.553633999999875
126,16,5,categorization,0,kitchen,SHINEd_sun_aunzlwrbjumxhwdj.tif,103,0.0666666666666667,0.0666666666666667,1.86666666666667,10942.968717333,10943.630526416,9,10943.035599875,10943.101234958,10943.657552083,10945.51758175,1,0.661809082999753
126,17,5,categorization,0,kitchen,SHINEd_sun_aegoxogugdkwpmpj.tif,80,0.0666666666666667,0.0666666666666667,1.51666666666667,10945.535947,10946.119881625,9,10945.602454416,10945.668653166,10946.141990958,10947.652022666,1,0.583934624999529
126,18,5,categorization,0,kitchen,SHINEd_sun_axyyrmzcupyhlivc.tif,107,0.0666666666666667,0.0666666666666667,1.3,10947.670250416,10948.259660583,9,10947.737264,10947.802751041,10948.275494041,10949.568859708,1,0.589410167000096
126,19,5,categorization,0,kitchen,SHINEd_sun_aggjlwcdjsjcaemh.tif,86,0.0666666666666667,0.0666666666666667,1.91666666666667,10949.5854085,10950.278894416,9,10949.652242791,10949.717671583,10950.307863416,10952.217897166,1,0.693485916001009
126,20,5,categorization,0,kitchen,SHINEd_sun_ajkqhtgcbgpcwrwn.tif,97,0.0666666666666667,0.0666666666666667,1.23333333333333,10952.234233583,10952.943916041,9,10952.301605375,10952.3663805,10952.973097625,10954.19980975,1,0.709682458000316
126,21,5,categorization,0,bathroom,SHINEd_sun_agyqfjcfkdcydepw.tif,25,0.0666666666666667,0.0666666666666667,0.866666666666667,10954.219063083,10954.851684166,9,10954.286741375,10954.352088541,10954.875550083,10955.735594583,0,0.632621083001141
126,22,5,categorization,0,kitchen,SHINEd_sun_auticobqsbwgoppi.tif,104,0.0666666666666667,0.0666666666666667,0.8,10955.752355166,10956.770641875,9,10955.818991166,10955.8852695,10956.787326208,10957.580665708,1,1.01828670900068
126,23,5,categorization,0,kitchen,SHINEd_sun_akchetnepxlcxhsu.tif,98,0.0666666666666667,0.0666666666666667,1.51666666666667,10957.585448125,10958.906831333,13,10957.647186291,10957.708113125,10958.910245375,10960.420277083,0,1.32138320800004
126,24,5,categorization,0,kitchen,SHINEd_labelme_brsyyvweiuaazfr.tif,61,0.0666666666666667,0.0666666666666667,1.18333333333333,10960.440703625,10961.084724583,9,10960.507296333,10960.572978041,10961.113242166,10962.289957625,1,0.644020957999601
126,25,5,categorization,0,bathroom,SHINEd_sun_axxbkopsgyouuebh.tif,58,0.0666666666666667,0.0666666666666667,1.6,10962.300626083,10963.047494666,13,10962.367739125,10962.433919666,10963.073375541,10964.666772958,1,0.746868582999014
126,26,5,categorization,0,bathroom,SHINEd_sun_ambriybtogmepttm.tif,36,0.0666666666666667,0.0666666666666667,1.56666666666667,10964.684578666,10965.484005416,13,10964.752577708,10964.817200333,10965.506108583,10967.066147208,1,0.799426749999839
126,27,5,categorization,0,kitchen,SHINEd_sun_aaxxjlsuzvqlgylf.tif,68,0.0666666666666667,0.0666666666666667,1.36666666666667,10967.085451833,10967.830470958,9,10967.15213,10967.2183155,10967.858487625,10969.218523125,1,0.745019125000908
126,28,5,categorization,0,bathroom,SHINEd_sun_alotolagknyrgtsk.tif,35,0.0666666666666667,0.0666666666666667,1.53333333333333,10969.237348375,10970.270541,13,10969.304766791,10969.36968325,10970.293683458,10971.82038675,1,1.03319262500008
126,29,5,categorization,0,bathroom,SHINEd_sun_aspsyogrekjtfozg.tif,50,0.0666666666666667,0.0666666666666667,1.4,10971.8414135,10972.74437,13,10971.906218333,10971.972589875,10972.762188333,10974.155559458,1,0.902956500000073
126,30,5,categorization,0,kitchen,SHINEd_sun_aeqdocilnnpuvuhx.tif,83,0.0666666666666667,0.0666666666666667,1.06666666666667,10974.174172916,10974.950093041,9,10974.241036541,10974.3063085,10974.980823458,10976.04085575,1,0.775920124999175
126,31,5,categorization,0,bathroom,SHINEd_sun_aghyqhbptboemmoq.tif,23,0.0666666666666667,0.0666666666666667,1.63333333333333,10976.051101583,10976.940265,9,10976.116827166,10976.181847041,10976.955507666,10978.582207666,0,0.889163416999509
126,32,5,categorization,0,bathroom,SHINEd_sun_abapwbhyhkfixyex.tif,14,0.0666666666666667,0.0666666666666667,1.8,10978.60068725,10979.57338275,13,10978.669229625,10978.733925083,10979.590705291,10981.384093458,1,0.972695500000555
126,33,5,categorization,0,bathroom,SHINEd_sun_abjtwfukuwddzted.tif,15,0.0666666666666667,0.0666666666666667,1.53333333333333,10981.404044833,10982.028251333,13,10981.471324708,10981.53712525,10982.044024458,10983.570750375,1,0.624206500000582
126,34,5,categorization,0,kitchen,SHINEd_sun_avszsnwsbuqfgzbn.tif,105,0.0666666666666667,0.0666666666666667,0.766666666666667,10983.590502,10984.358283208,9,10983.657597333,10983.724078708,10984.381903666,10985.141958083,1,0.767781208000088
126,35,5,categorization,0,bathroom,SHINEd_sun_ahqjwnzgolcaoidx.tif,29,0.0666666666666667,0.0666666666666667,1.86666666666667,10985.158645916,10985.978840333,13,10985.221706708,10985.281497583,10985.983392083,10987.843431208,1,0.820194416999584
126,36,5,categorization,0,kitchen,SHINEd_sun_acxkpeoqbwcxfvip.tif,77,0.0666666666666667,0.0666666666666667,1.13333333333333,10987.859875541,10988.574500791,9,10987.924700333,10987.990574,10988.597248708,10989.72395325,1,0.714625250000609
126,37,5,categorization,0,kitchen,SHINEd_sun_acwjdupvyjsugpay.tif,76,0.0666666666666667,0.0666666666666667,1.73333333333333,10989.7350615,10990.714273583,9,10989.799902291,10989.868269875,10990.741497416,10992.468217666,1,0.979212083000675
126,38,5,categorization,0,kitchen,SHINEd_sun_aadbddgrdsjugojn.tif,64,0.0666666666666667,0.0666666666666667,0.766666666666667,10992.482521208,10993.622991708,9,10992.548477708,10992.61245025,10993.634996916,10994.395002041,1,1.14047050000045
126,39,5,categorization,0,bathroom,SHINEd_sun_aggnnqpdorgxpvce.tif,21,0.0666666666666667,0.0666666666666667,1.85,10994.400084083,10995.618790166,9,10994.461885791,10994.522763125,10995.624862208,10997.468238791,0,1.21870608300014
126,40,5,categorization,0,bathroom,SHINEd_sun_akiytfaagpdsphgz.tif,31,0.0666666666666667,0.0666666666666667,0.966666666666667,10997.485056,10998.348945416,13,10997.552868041,10997.617501583,10998.374154791,10999.334159125,1,0.863889416001257
126,41,5,categorization,0,kitchen,SHINEd_sun_aqeaevwwwjoqhzvl.tif,101,0.0666666666666667,0.0666666666666667,1.06666666666667,10999.339250208,11000.211124291,9,10999.400895333,10999.461838333,11000.230252875,11001.290287916,1,0.871874082999057
126,42,5,categorization,0,kitchen,SHINEd_sun_akcjzhbbjlbogpdi.tif,99,0.0666666666666667,0.0666666666666667,1.38333333333333,11001.302261833,11002.263069583,13,11001.3663315,11001.43335925,11002.28960075,11003.666312791,0,0.960807749999731
126,43,5,categorization,0,bathroom,SHINEd_sun_azqyogdvyhahyram.tif,60,0.0666666666666667,0.0666666666666667,0.766666666666667,11003.683960916,11004.46930275,13,11003.750586208,11003.816006333,11004.489189958,11005.249223125,1,0.785341834000064
126,44,5,categorization,0,kitchen,SHINEd_sun_aarfiyshqohlwkmo.tif,67,0.0666666666666667,0.0666666666666667,0.866666666666667,11005.266698666,11006.075246458,13,11005.3331215,11005.398896166,11006.084324458,11006.944328708,0,0.808547791999445
126,45,5,categorization,0,kitchen,SHINEd_sun_abdenxonkemggwsq.tif,69,0.0666666666666667,0.0666666666666667,1.25,11006.949056166,11007.754395,9,11007.010688083,11007.071669625,11007.773382125,11009.016769375,1,0.805338833999485
126,46,5,categorization,0,kitchen,SHINEd_sun_acfmftudsenhrfhy.tif,74,0.0666666666666667,0.0666666666666667,1.03333333333333,11009.034354166,11010.3171775,9,11009.101131583,11009.166618708,11010.341498166,11011.368195708,1,1.28282333399875
126,47,5,categorization,0,bathroom,SHINEd_sun_auzqhkafidnkrwmo.tif,54,0.0666666666666667,0.0666666666666667,0.783333333333333,11011.380758208,11012.178238958,13,11011.4451225,11011.511364125,11012.201222916,11012.977944333,1,0.797480749999522
126,48,5,categorization,0,kitchen,SHINEd_sun_aenotlpyftoioydp.tif,82,0.0666666666666667,0.0666666666666667,0.7,11012.993592166,11014.059253208,9,11013.06046975,11013.125876708,11014.077780041,11014.771116916,1,1.06566104200101
126,49,5,categorization,0,bathroom,SHINEd_sun_acgyywnybuveqsro.tif,18,0.0666666666666667,0.0666666666666667,1.75,11014.776036791,11015.554644208,13,11014.83793625,11014.898604583,11015.566952083,11017.310322166,1,0.778607416999876
126,50,5,categorization,0,kitchen,SHINEd_sun_auaiucuqpdausiva.tif,102,0.0666666666666667,0.0666666666666667,1.36666666666667,11017.328578166,11018.092576333,9,11017.395360416,11017.461419083,11018.11832575,11019.478362083,1,0.763998166999954
126,1,6,categorization,0,kitchen,SHINEd_labelme_kxvouciolcpqplr.tif,62,0.0666666666666667,0.0666666666666667,0.966666666666667,11026.1068755,11026.810916041,9,11026.169031583,11026.229521375,11026.814759708,11027.774765166,1,0.704040541000722
126,2,6,categorization,0,bathroom,SHINEd_sun_axldvoqbuvuggfmq.tif,57,0.0666666666666667,0.0666666666666667,1.73333333333333,11027.779650291,11029.8984025,13,11027.841209875,11027.902289125,11029.904940458,11031.631636833,1,2.11875220900038
126,3,6,categorization,0,bathroom,SHINEd_sun_apynckhmoftszqoq.tif,47,0.0666666666666667,0.0666666666666667,1.91666666666667,11031.647348666,11032.375031083,13,11031.714899291,11031.779995708,11032.403389916,11034.313421041,1,0.727682417000324
126,4,6,categorization,0,bathroom,SHINEd_sun_afcoljnjfoxjtgja.tif,20,0.0666666666666667,0.0666666666666667,0.766666666666667,11034.330657291,11035.275934,13,11034.397876,11034.462753708,11035.302845291,11036.062848916,1,0.94527670899879
126,5,6,categorization,0,bathroom,SHINEd_sun_apkruvsevgegsdwp.tif,44,0.0666666666666667,0.0666666666666667,0.916666666666667,11036.067979583,11036.723287083,13,11036.129711791,11036.190668875,11036.742440791,11037.652444791,1,0.655307499999253
126,6,6,categorization,0,bathroom,SHINEd_labelme_sfxiulhjbhlyiyt.tif,11,0.0666666666666667,0.0666666666666667,1.18333333333333,11037.657221833,11038.323036541,13,11037.718999833,11037.779918625,11038.33171875,11039.508432708,1,0.665814707999743
126,7,6,categorization,0,bathroom,SHINEd_sun_apjevzvycyhuqghb.tif,43,0.0666666666666667,0.0666666666666667,1.8,11039.518804208,11040.117203791,13,11039.585234958,11039.651346041,11040.141310083,11041.934685041,1,0.598399582999264
126,8,6,categorization,0,bathroom,SHINEd_sun_agguqiubmwhqqunb.tif,22,0.0666666666666667,0.0666666666666667,0.883333333333333,11041.945063291,11042.570278125,13,11042.010369416,11042.077594875,11042.583366708,11043.46006525,1,0.625214834000872
126,9,6,categorization,0,kitchen,SHINEd_sun_ahywdevtimnqcsln.tif,94,0.0666666666666667,0.0666666666666667,1.83333333333333,11043.473476666,11044.347058875,13,11043.540211916,11043.603542625,11044.355385875,11046.182091791,0,0.873582209000233
126,10,6,categorization,0,bathroom,SHINEd_sun_agrwbmhcpmfuwmsg.tif,24,0.0666666666666667,0.0666666666666667,1.76666666666667,11046.195531875,11046.925838375,13,11046.262341708,11046.327992541,11046.951141625,11048.711181791,1,0.730306499999642
126,11,6,categorization,0,kitchen,SHINEd_sun_amjjdeyrggfqgmom.tif,100,0.0666666666666667,0.0666666666666667,0.983333333333333,11048.728319791,11049.37167375,13,11048.796732125,11048.860940291,11049.382200416,11050.358871583,0,0.643353958999796
126,12,6,categorization,0,bathroom,SHINEd_sun_aqrpegblszgcoujh.tif,48,0.0666666666666667,0.0666666666666667,0.883333333333333,11050.364102375,11051.106560458,13,11050.425735,11050.486790458,11051.121834583,11051.998505666,1,0.742458082999292
126,13,6,categorization,0,bathroom,SHINEd_sun_amzlamotzwfkwjco.tif,37,0.0666666666666667,0.0666666666666667,0.85,11052.004378791,11052.754466875,9,11052.066213875,11052.126988208,11052.762021416,11053.605359958,0,0.750088083999799
126,14,6,categorization,0,kitchen,SHINEd_sun_abftihopvusyfakt.tif,71,0.0666666666666667,0.0666666666666667,0.733333333333333,11053.610138541,11054.258287916,9,11053.671720833,11053.732680541,11054.267883875,11054.994554958,1,0.648149374999775
126,15,6,categorization,0,kitchen,SHINEd_labelme_rykdqxenmhulbdn.tif,63,0.0666666666666667,0.0666666666666667,1.88333333333333,11054.999364625,11055.7468965,9,11055.060927958,11055.121916416,11055.757204416,11057.633916791,1,0.747531875000277
126,16,6,categorization,0,bathroom,SHINEd_sun_apmqjbnwghzuhhzh.tif,46,0.0666666666666667,0.0666666666666667,0.816666666666667,11057.651533791,11058.363232791,13,11057.718515958,11057.78424975,11058.391208958,11059.201213291,1,0.711698999999498
126,17,6,categorization,0,kitchen,SHINEd_sun_agorklincwxrdtga.tif,87,0.0666666666666667,0.0666666666666667,1.9,11059.206219,11060.722409791,9,11059.267984208,11059.328823166,11060.730782958,11062.624150291,1,1.51619079100055
126,18,6,categorization,0,kitchen,SHINEd_sun_aehawpgmrlhlvcow.tif,81,0.0666666666666667,0.0666666666666667,0.983333333333333,11062.64182825,11063.380535041,9,11062.708754541,11062.774287541,11063.397636291,11064.374307083,1,0.738706791000368
126,19,6,categorization,0,bathroom,SHINEd_sun_aoybiabnpadelefl.tif,41,0.0666666666666667,0.0666666666666667,0.75,11064.379357833,11065.035000625,9,11064.441118083,11064.501997791,11065.053861291,11065.797198916,0,0.655642791998616
126,20,6,categorization,0,bathroom,SHINEd_sun_asfwthctfqerjvxr.tif,49,0.0666666666666667,0.0666666666666667,1.6,11065.802021125,11066.850471208,13,11065.864021666,11065.924559208,11066.860083083,11068.453451458,1,1.0484500829989
126,21,6,categorization,0,bathroom,SHINEd_sun_anhioqovhscjqqwb.tif,38,0.0666666666666667,0.0666666666666667,1.58333333333333,11068.473769208,11069.116994375,13,11068.540828291,11068.606334916,11069.14665175,11070.723363875,1,0.6432251669994
126,22,6,categorization,0,kitchen,SHINEd_sun_agubuxuukhzyzpdp.tif,88,0.0666666666666667,0.0666666666666667,1.11666666666667,11070.739170375,11071.438513125,9,11070.806443,11070.870082625,11071.460813041,11072.570858541,1,0.699342750000142
126,23,6,categorization,0,kitchen,SHINEd_sun_ahpczsiumwwocjkv.tif,92,0.0666666666666667,0.0666666666666667,1.53333333333333,11072.579984625,11073.596940708,9,11072.645351625,11072.712348833,11073.619321166,11075.146027291,1,1.01695608299997
126,24,6,categorization,0,bathroom,SHINEd_sun_avhrdrntsqrjzccq.tif,55,0.0666666666666667,0.0666666666666667,1.48333333333333,11075.157822125,11076.23684325,13,11075.224740416,11075.290361916,11076.26430675,11077.74102275,1,1.07902112500051
126,25,6,categorization,0,bathroom,SHINEd_sun_acduarbnmmoglmiv.tif,16,0.0666666666666667,0.0666666666666667,1.1,11077.759052833,11078.891520583,13,11077.826419125,11077.891724833,11078.915499458,11080.008875791,1,1.13246774999971
126,26,6,categorization,0,bathroom,SHINEd_sun_ahijqszoswveeyji.tif,28,0.0666666666666667,0.0666666666666667,0.933333333333333,11080.021777833,11081.416133541,13,11080.086459416,11080.15422375,11081.446871208,11082.373542083,1,1.39435570800015
126,27,6,categorization,0,kitchen,SHINEd_sun_aexklacwqwezaorf.tif,84,0.0666666666666667,0.0666666666666667,0.816666666666667,11082.378776333,11083.2506915,9,11082.440570791,11082.501251333,11083.269807875,11084.079811541,1,0.871915166999315
126,28,6,categorization,0,kitchen,SHINEd_sun_ajcbwwvdlsvjyzje.tif,96,0.0666666666666667,0.0666666666666667,1.78333333333333,11084.084654958,11085.018694083,13,11084.14634275,11084.207292916,11085.026376166,11086.803084583,0,0.934039125000709
126,29,6,categorization,0,kitchen,SHINEd_sun_adgqasybjyktddhj.tif,78,0.0666666666666667,0.0666666666666667,0.766666666666667,11086.825151208,11087.725866625,9,11086.892001791,11086.95745975,11087.747394958,11088.50739975,1,0.900715416999446
126,30,6,categorization,0,kitchen,SHINEd_sun_ahspylgoovwmwvgk.tif,93,0.0666666666666667,0.0666666666666667,1.45,11088.512534833,11089.482502416,9,11088.574170291,11088.635183041,11089.487141416,11090.930518708,1,0.969967582999743
126,31,6,categorization,0,bathroom,SHINEd_sun_aavhrsfjbserjtht.tif,13,0.0666666666666667,0.0666666666666667,0.75,11090.948658833,11092.130595708,13,11091.015541958,11091.081197,11092.154198083,11092.897535208,1,1.18193687500025
126,32,6,categorization,0,bathroom,SHINEd_sun_apeeialkgkuxddgh.tif,42,0.0666666666666667,0.0666666666666667,1.36666666666667,11092.904076916,11094.0348245,13,11092.965779541,11093.026717041,11094.045444125,11095.405485125,1,1.13074758400035
126,33,6,categorization,0,bathroom,SHINEd_sun_aunuadmjocsddsrl.tif,52,0.0666666666666667,0.0666666666666667,0.75,11095.421182375,11096.2659175,13,11095.487835083,11095.553263958,11096.293513041,11097.036863083,1,0.844735125001534
126,34,6,categorization,0,kitchen,SHINEd_sun_acgtpgfybqjmzeyw.tif,75,0.0666666666666667,0.0666666666666667,0.783333333333333,11097.045422916,11098.386665125,9,11097.108251166,11097.1684125,11098.403944333,11099.1806155,1,1.34124220899866
126,35,6,categorization,0,kitchen,SHINEd_sun_agzzivivdpnawacl.tif,89,0.0666666666666667,0.0666666666666667,1.11666666666667,11099.187471208,11101.762032708,13,11099.249202708,11099.310102916,11101.779485875,11102.889519,0,2.57456149999962
126,36,6,categorization,0,kitchen,SHINEd_sun_aypmqwcualkenuoe.tif,109,0.0666666666666667,0.0666666666666667,0.766666666666667,11102.898950541,11103.781144,13,11102.963551458,11103.031421708,11103.804861791,11104.564897208,0,0.882193458999609
126,37,6,categorization,0,kitchen,SHINEd_sun_aixorpehvfykdynp.tif,95,0.0666666666666667,0.0666666666666667,0.716666666666667,11104.579884958,11105.458647541,9,11104.646687875,11104.712190208,11105.464653666,11106.174657416,1,0.878762582999116
126,38,6,categorization,0,bathroom,SHINEd_sun_aofnryafpsjimzsb.tif,40,0.0666666666666667,0.0666666666666667,1.33333333333333,11106.179481375,11106.906920333,13,11106.241142791,11106.302099041,11106.920547166,11108.247252583,1,0.727438957999766
126,39,6,categorization,0,kitchen,SHINEd_sun_aymvwlarqodbwuoc.tif,108,0.0666666666666667,0.0666666666666667,1.75,11108.264390958,11109.235606916,9,11108.3311785,11108.397252041,11109.253501166,11110.996864041,1,0.971215957999448
126,40,6,categorization,0,kitchen,SHINEd_sun_azmutvzbxypaceni.tif,110,0.0666666666666667,0.0666666666666667,1.13333333333333,11111.018898125,11112.134893041,9,11111.085510125,11111.152171,11112.15956,11113.286273625,1,1.115994916001
126,41,6,categorization,0,bathroom,SHINEd_sun_aljolscmmzydegqp.tif,33,0.0666666666666667,0.0666666666666667,1.63333333333333,11113.297329208,11114.03796,13,11113.3629955,11113.429760666,11114.052599,11115.679317333,1,0.740630791999138
126,42,6,categorization,0,bathroom,SHINEd_sun_aapitsgbtktqubfy.tif,12,0.0666666666666667,0.0666666666666667,1.43333333333333,11115.698071125,11116.495865041,13,11115.767656375,11115.830529166,11116.521694708,11117.94840125,1,0.797793916000956
126,43,6,categorization,0,bathroom,SHINEd_sun_aleqenyvunhactkl.tif,32,0.0666666666666667,0.0666666666666667,1.83333333333333,11117.95993675,11118.847222458,9,11118.025514041,11118.092980458,11118.866917416,11120.693631625,0,0.887285708000491
126,44,6,categorization,0,bathroom,SHINEd_sun_ahcvzmoyaycdoftf.tif,27,0.0666666666666667,0.0666666666666667,1.93333333333333,11120.7152285,11121.619890333,13,11120.783052333,11120.847996208,11121.637836083,11123.564539041,1,0.904661833001228
126,45,6,categorization,0,bathroom,SHINEd_sun_aclfzgynxzxlbepz.tif,19,0.0666666666666667,0.0666666666666667,1.26666666666667,11123.584361291,11124.478265625,13,11123.651162916,11123.716933041,11124.507908625,11125.767948875,1,0.89390433400149
126,46,6,categorization,0,kitchen,SHINEd_sun_ahdycvpopffkzzsu.tif,90,0.0666666666666667,0.0666666666666667,1.86666666666667,11125.789890583,11127.108531458,13,11125.857178875,11125.920951166,11127.130557458,11128.990595,0,1.31864087499889
126,47,6,categorization,0,bathroom,SHINEd_sun_acegryoqftbzowsg.tif,17,0.0666666666666667,0.0666666666666667,1.41666666666667,11129.010392625,11129.91354575,13,11129.077610875,11129.14335425,11129.93278725,11131.3428335,1,0.903153125000244
126,48,6,categorization,0,bathroom,SHINEd_sun_apkxzenqapsujocq.tif,45,0.0666666666666667,0.0666666666666667,1.11666666666667,11131.361451958,11132.760069708,13,11131.43048825,11131.494389541,11132.787101833,11133.897141708,1,1.39861774999918
126,49,6,categorization,0,kitchen,SHINEd_sun_aapllqyqlykszopd.tif,66,0.0666666666666667,0.0666666666666667,1.8,11133.907369416,11135.686281708,13,11133.973016458,11134.038595458,11135.715717333,11137.509095708,0,1.77891229200031
126,50,6,categorization,0,bathroom,SHINEd_sun_anryaplzeujmzfkd.tif,39,0.0666666666666667,0.0666666666666667,1.25,11137.527469375,11138.612937625,13,11137.596778791,11137.660326083,11138.633090375,11139.876470583,1,1.08546824999939
126,1,7,categorization,0,kitchen,SHINEd_sun_aadbddgrdsjugojn.tif,64,0.0666666666666667,0.0666666666666667,0.883333333333333,11150.638243,11151.817868,9,11150.700481041,11150.761025875,11151.829804416,11152.70647675,1,1.17962500000067
126,2,7,categorization,0,kitchen,SHINEd_sun_acxkpeoqbwcxfvip.tif,77,0.0666666666666667,0.0666666666666667,1.03333333333333,11152.711263958,11153.490455375,9,11152.773106958,11152.833832583,11153.502428625,11154.529136875,1,0.77919141700113
126,3,7,categorization,0,bathroom,SHINEd_sun_amzlamotzwfkwjco.tif,37,0.0666666666666667,0.0666666666666667,1.06666666666667,11154.540467625,11155.478578458,9,11154.605383166,11154.671195708,11155.494188583,11156.554201208,0,0.938110832999882
126,4,7,categorization,0,kitchen,SHINEd_sun_ahpczsiumwwocjkv.tif,92,0.0666666666666667,0.0666666666666667,0.833333333333333,11156.560676333,11157.217919458,9,11156.622734916,11156.683298041,11157.235130375,11158.061801875,1,0.657243125000605
126,5,7,categorization,0,bathroom,SHINEd_sun_azqyogdvyhahyram.tif,60,0.0666666666666667,0.0666666666666667,0.716666666666667,11158.066653416,11158.802717375,13,11158.128412708,11158.189497708,11158.807897458,11159.517902208,1,0.736063959000603
126,6,7,categorization,0,kitchen,SHINEd_sun_aymvwlarqodbwuoc.tif,108,0.0666666666666667,0.0666666666666667,0.733333333333333,11159.523249333,11160.162701666,9,11159.585076833,11159.645781458,11160.180877916,11160.907548666,1,0.639452333000008
126,7,7,categorization,0,kitchen,SHINEd_sun_ahdycvpopffkzzsu.tif,90,0.0666666666666667,0.0666666666666667,1.38333333333333,11160.912346375,11161.545852583,9,11160.974029791,11161.035113791,11161.553617,11162.930332,1,0.633506207999744
126,8,7,categorization,0,bathroom,SHINEd_sun_aofnryafpsjimzsb.tif,40,0.0666666666666667,0.0666666666666667,0.9,11162.946749583,11163.687176666,9,11163.013683166,11163.079513208,11163.701929708,11164.595306916,0,0.740427083001123
126,9,7,categorization,0,kitchen,SHINEd_labelme_brsyyvweiuaazfr.tif,61,0.0666666666666667,0.0666666666666667,0.816666666666667,11164.603887333,11165.401874541,9,11164.665724208,11164.726422958,11165.411681791,11166.221685916,1,0.79798720799954
126,10,7,categorization,0,kitchen,SHINEd_sun_aexklacwqwezaorf.tif,84,0.0666666666666667,0.0666666666666667,0.85,11166.226501166,11167.01834325,9,11166.288112416,11166.349081416,11167.034252,11167.877588625,1,0.791842083999654
126,11,7,categorization,0,kitchen,SHINEd_sun_aarfiyshqohlwkmo.tif,67,0.0666666666666667,0.0666666666666667,1.6,11167.88245925,11169.225719333,9,11167.944133041,11168.005088958,11169.2406515,11170.834017416,1,1.34326008300013
126,12,7,categorization,0,kitchen,SHINEd_sun_ajkqhtgcbgpcwrwn.tif,97,0.0666666666666667,0.0666666666666667,1.75,11170.856894708,11171.659092458,9,11170.923896833,11170.989591625,11171.679445041,11173.422815791,1,0.802197749999323
126,13,7,categorization,0,bathroom,SHINEd_sun_apjevzvycyhuqghb.tif,43,0.0666666666666667,0.0666666666666667,1.1,11173.44122175,11175.146064333,9,11173.508050166,11173.573409083,11175.159147666,11176.252528166,0,1.70484258299985
126,14,7,categorization,0,bathroom,SHINEd_sun_anhioqovhscjqqwb.tif,38,0.0666666666666667,0.0666666666666667,1.46666666666667,11176.261487166,11176.935924041,13,11176.326331166,11176.3934665,11176.949427375,11178.409473375,1,0.674436874998719
126,15,7,categorization,0,bathroom,SHINEd_sun_agguqiubmwhqqunb.tif,22,0.0666666666666667,0.0666666666666667,1.25,11178.427190166,11179.572564583,13,11178.494932666,11178.559637708,11179.599569458,11180.84295425,1,1.14537441700122
126,16,7,categorization,0,kitchen,SHINEd_sun_abftihopvusyfakt.tif,71,0.0666666666666667,0.0666666666666667,1.13333333333333,11180.861533583,11181.623281625,9,11180.930364416,11180.993963916,11181.651197958,11182.777906166,1,0.761748041999454
126,17,7,categorization,0,kitchen,SHINEd_sun_adgqasybjyktddhj.tif,78,0.0666666666666667,0.0666666666666667,1.33333333333333,11182.787642166,11183.767945958,9,11182.85316175,11182.920048916,11183.793737041,11185.120438958,1,0.980303791999177
126,18,7,categorization,0,kitchen,SHINEd_sun_ahljzhgcdpomplvg.tif,91,0.0666666666666667,0.0666666666666667,1.86666666666667,11185.139402833,11186.004948916,9,11185.206546166,11185.272223541,11186.029131458,11187.889179083,1,0.865546082999572
126,19,7,categorization,0,kitchen,SHINEd_sun_amjjdeyrggfqgmom.tif,100,0.0666666666666667,0.0666666666666667,1.58333333333333,11187.904531625,11188.55622875,9,11187.96954975,11188.036676875,11188.576760875,11190.153470666,1,0.651697125000283
126,20,7,categorization,0,bathroom,SHINEd_sun_awnqiikzaispgmwo.tif,56,0.0666666666666667,0.0666666666666667,1.05,11190.174008541,11190.979117583,13,11190.240985375,11190.306433916,11190.995739083,11192.039104,1,0.805109041999458
126,21,7,categorization,0,kitchen,SHINEd_sun_acfmftudsenhrfhy.tif,74,0.0666666666666667,0.0666666666666667,0.9,11192.051494666,11192.702943458,9,11192.115863458,11192.182694708,11192.722790125,11193.616163791,1,0.651448791999428
126,22,7,categorization,0,kitchen,SHINEd_sun_akcjzhbbjlbogpdi.tif,99,0.0666666666666667,0.0666666666666667,0.7,11193.629058958,11194.530002041,9,11193.694554166,11193.761734541,11194.547559291,11195.240896791,1,0.90094308299922
126,23,7,categorization,0,kitchen,SHINEd_sun_aegoxogugdkwpmpj.tif,80,0.0666666666666667,0.0666666666666667,0.933333333333333,11195.24567025,11196.818099458,9,11195.307338333,11195.3683205,11196.837692125,11197.7643635,1,1.57242920799945
126,24,7,categorization,0,bathroom,SHINEd_sun_ahcvzmoyaycdoftf.tif,27,0.0666666666666667,0.0666666666666667,1.95,11197.770570416,11198.81051625,9,11197.832368166,11197.893058416,11198.828689083,11200.772058791,0,1.03994583399981
126,25,7,categorization,0,bathroom,SHINEd_sun_avhrdrntsqrjzccq.tif,55,0.0666666666666667,0.0666666666666667,1.06666666666667,11200.789637375,11202.009776083,13,11200.856429875,11200.922270416,11202.024125875,11203.084158708,1,1.22013870799856
126,26,7,categorization,0,bathroom,SHINEd_sun_agyqfjcfkdcydepw.tif,25,0.0666666666666667,0.0666666666666667,1.2,11203.098243041,11203.757281875,9,11203.162738833,11203.229178541,11203.785647833,11204.979018208,0,0.659038833999148
126,27,7,categorization,0,kitchen,SHINEd_sun_azmutvzbxypaceni.tif,110,0.0666666666666667,0.0666666666666667,0.75,11204.994829708,11205.769952375,9,11205.06160225,11205.125624625,11205.77802675,11206.521365,1,0.775122666998868
126,28,7,categorization,0,kitchen,SHINEd_sun_aixorpehvfykdynp.tif,95,0.0666666666666667,0.0666666666666667,0.816666666666667,11206.526214666,11207.858089,9,11206.588010541,11206.648826,11207.867517458,11208.67752125,1,1.33187433399871
126,29,7,categorization,0,bathroom,SHINEd_sun_axldvoqbuvuggfmq.tif,57,0.0666666666666667,0.0666666666666667,1.96666666666667,11208.68222925,11209.873801875,9,11208.743946166,11208.804770791,11209.89035475,11211.850399125,0,1.19157262499903
126,30,7,categorization,0,kitchen,SHINEd_sun_admlmbcdswaszruo.tif,79,0.0666666666666667,0.0666666666666667,1.2,11211.864681708,11212.74281925,9,11211.929303458,11211.995377833,11212.76858425,11213.961972416,1,0.878137541998512
126,31,7,categorization,0,bathroom,SHINEd_sun_apmqjbnwghzuhhzh.tif,46,0.0666666666666667,0.0666666666666667,0.883333333333333,11213.973654958,11214.747677541,13,11214.039541583,11214.10595775,11214.761163458,11215.637866333,1,0.77402258300026
126,32,7,categorization,0,kitchen,SHINEd_sun_aaxxjlsuzvqlgylf.tif,68,0.0666666666666667,0.0666666666666667,1.33333333333333,11215.654645,11216.505971458,9,11215.721608333,11215.78701975,11216.522306791,11217.849027666,1,0.851326457999676
126,33,7,categorization,0,bathroom,SHINEd_sun_axyrejkiiaqiurjk.tif,59,0.0666666666666667,0.0666666666666667,1.45,11217.865182458,11218.497628958,9,11217.929886083,11217.996374625,11218.51907425,11219.96244975,0,0.632446500001606
126,34,7,categorization,0,bathroom,SHINEd_sun_apkruvsevgegsdwp.tif,44,0.0666666666666667,0.0666666666666667,1.15,11219.972197708,11220.692697291,13,11220.037857,11220.104979083,11220.710627125,11221.854013541,1,0.720499582999764
126,35,7,categorization,0,bathroom,SHINEd_sun_acduarbnmmoglmiv.tif,16,0.0666666666666667,0.0666666666666667,0.966666666666667,11221.872396,11222.6113505,13,11221.93697225,11222.002160333,11222.624429583,11223.584468958,1,0.738954499998727
126,36,7,categorization,0,kitchen,SHINEd_sun_agubuxuukhzyzpdp.tif,88,0.0666666666666667,0.0666666666666667,1.45,11223.601323958,11224.401931125,9,11223.667538708,11223.734056958,11224.419443666,11225.862810958,1,0.800607166998816
126,37,7,categorization,0,bathroom,SHINEd_sun_agrwbmhcpmfuwmsg.tif,24,0.0666666666666667,0.0666666666666667,0.8,11225.878945791,11226.637289041,9,11225.944389125,11226.010009166,11226.666354416,11227.459741,0,0.758343249999598
126,38,7,categorization,0,bathroom,SHINEd_sun_aunuadmjocsddsrl.tif,52,0.0666666666666667,0.0666666666666667,1.45,11227.473164708,11228.130527,13,11227.539547041,11227.597114333,11228.148983291,11229.592364208,1,0.657362291998652
126,39,7,categorization,0,kitchen,SHINEd_sun_axyyrmzcupyhlivc.tif,107,0.0666666666666667,0.0666666666666667,1.1,11229.610542666,11230.237370083,9,11229.677321916,11229.744141666,11230.267094708,11231.360461916,1,0.626827416999731
126,40,7,categorization,0,bathroom,SHINEd_sun_apkxzenqapsujocq.tif,45,0.0666666666666667,0.0666666666666667,1.16666666666667,11231.371546041,11232.138279708,13,11231.436010458,11231.503373,11232.159969041,11233.32001275,1,0.766733667000153
126,41,7,categorization,0,kitchen,SHINEd_sun_aenotlpyftoioydp.tif,82,0.0666666666666667,0.0666666666666667,1.31666666666667,11233.331045541,11233.930163041,9,11233.39313725,11233.453983958,11233.938842291,11235.248889666,1,0.59911749999992
126,42,7,categorization,0,kitchen,SHINEd_sun_acwjdupvyjsugpay.tif,76,0.0666666666666667,0.0666666666666667,1.68333333333333,11235.265256666,11236.231539541,9,11235.33311775,11235.398135458,11236.254253083,11237.93096925,1,0.966282875000616
126,43,7,categorization,0,bathroom,SHINEd_sun_abjtwfukuwddzted.tif,15,0.0666666666666667,0.0666666666666667,0.966666666666667,11237.940417541,11238.809633708,13,11238.005266583,11238.072646666,11238.8286545,11239.788658541,1,0.869216167000559
126,44,7,categorization,0,kitchen,SHINEd_sun_auticobqsbwgoppi.tif,104,0.0666666666666667,0.0666666666666667,1.4,11239.793728583,11240.4662245,9,11239.855475416,11239.916439333,11240.48482525,11241.878211291,1,0.67249591700056
126,45,7,categorization,0,kitchen,SHINEd_sun_abdxkyyxwfskuaqb.tif,70,0.0666666666666667,0.0666666666666667,0.783333333333333,11241.895352916,11242.558002458,9,11241.96028675,11242.027304583,11242.5835815,11243.360278666,1,0.66264954199869
126,46,7,categorization,0,kitchen,SHINEd_sun_agorklincwxrdtga.tif,87,0.0666666666666667,0.0666666666666667,1.08333333333333,11243.3758565,11244.369491666,9,11243.442107083,11243.507871083,11244.376553541,11245.453255333,1,0.993635165999876
126,47,7,categorization,0,kitchen,SHINEd_sun_aunzlwrbjumxhwdj.tif,103,0.0666666666666667,0.0666666666666667,1.43333333333333,11245.463545875,11246.238944291,13,11245.528562708,11245.596284041,11246.251464916,11247.678167708,0,0.775398416000826
126,48,7,categorization,0,bathroom,SHINEd_sun_atstyziqcmkahyxk.tif,51,0.0666666666666667,0.0666666666666667,1.75,11247.695632791,11248.436674875,13,11247.76250025,11247.828026958,11248.449795041,11250.193173,1,0.741042084000583
126,49,7,categorization,0,kitchen,SHINEd_sun_afuyedyxivkhecmu.tif,85,0.0666666666666667,0.0666666666666667,1.21666666666667,11250.207438916,11251.022930458,9,11250.27454375,11250.339930291,11251.046779166,11252.2568255,1,0.815491542000018
126,50,7,categorization,0,kitchen,SHINEd_sun_akchetnepxlcxhsu.tif,98,0.0666666666666667,0.0666666666666667,1.31666666666667,11252.274176416,11253.061786333,9,11252.341374791,11252.406851541,11253.079778625,11254.38981225,1,0.787609917000736
126,1,8,categorization,0,bathroom,SHINEd_sun_aclfzgynxzxlbepz.tif,19,0.0666666666666667,0.0666666666666667,1.18333333333333,11260.837944833,11262.514297458,9,11260.900047166,11260.960591291,11262.529292583,11263.705993958,0,1.67635262499971
126,2,8,categorization,0,bathroom,SHINEd_sun_afcoljnjfoxjtgja.tif,20,0.0666666666666667,0.0666666666666667,0.983333333333333,11263.715507166,11264.662745166,9,11263.782079333,11263.847670458,11264.687458708,11265.664133083,0,0.947238000000652
126,3,8,categorization,0,bathroom,SHINEd_sun_aqrpegblszgcoujh.tif,48,0.0666666666666667,0.0666666666666667,1.65,11265.670142041,11266.418086041,13,11265.731864958,11265.792688791,11266.427940416,11268.0713355,1,0.747943999998824
126,4,8,categorization,0,kitchen,SHINEd_sun_awcpdzzznmweyyhv.tif,106,0.0666666666666667,0.0666666666666667,1.23333333333333,11268.08945225,11268.967304458,9,11268.156240041,11268.221789166,11268.994420833,11270.221141333,1,0.87785220799924
126,5,8,categorization,0,kitchen,SHINEd_sun_aamedkxepzlwuxes.tif,65,0.0666666666666667,0.0666666666666667,0.916666666666667,11270.240395291,11270.98794475,9,11270.307505583,11270.37265575,11271.01306775,11271.923095291,1,0.747549458999856
126,6,8,categorization,0,kitchen,SHINEd_sun_aggjlwcdjsjcaemh.tif,86,0.0666666666666667,0.0666666666666667,1.56666666666667,11271.931906666,11272.634343666,9,11271.996777916,11272.056900583,11272.642150875,11274.202185041,1,0.702437000001737
126,7,8,categorization,0,kitchen,SHINEd_labelme_kxvouciolcpqplr.tif,62,0.0666666666666667,0.0666666666666667,1.63333333333333,11274.218757666,11275.399587666,9,11274.2861915,11274.351431,11275.424613208,11277.051319208,1,1.18082999999933
126,8,8,categorization,0,bathroom,SHINEd_labelme_sfxiulhjbhlyiyt.tif,11,0.0666666666666667,0.0666666666666667,1.1,11277.074511375,11277.6623125,13,11277.143014958,11277.206740833,11277.679511791,11278.772888541,1,0.587801125000624
126,9,8,categorization,0,kitchen,SHINEd_sun_agzzivivdpnawacl.tif,89,0.0666666666666667,0.0666666666666667,1.38333333333333,11278.782289708,11279.414352791,9,11278.847719291,11278.914522083,11279.437193875,11280.813910583,1,0.632063082999593
126,10,8,categorization,0,bathroom,SHINEd_sun_apynckhmoftszqoq.tif,47,0.0666666666666667,0.0666666666666667,0.766666666666667,11280.823489875,11281.710046625,13,11280.890595791,11280.955868791,11281.728932041,11282.488969041,1,0.886556749999727
126,11,8,categorization,0,kitchen,SHINEd_sun_ajcbwwvdlsvjyzje.tif,96,0.0666666666666667,0.0666666666666667,1.45,11282.505150375,11283.641877541,9,11282.571832666,11282.637808625,11283.657049458,11285.100425333,1,1.13672716600013
126,12,8,categorization,0,bathroom,SHINEd_sun_ausgutylgojavyoq.tif,53,0.0666666666666667,0.0666666666666667,0.983333333333333,11285.117976875,11285.971332875,13,11285.184269791,11285.251226708,11285.989845791,11286.966518458,1,0.853355999999621
126,13,8,categorization,0,bathroom,SHINEd_sun_aavhrsfjbserjtht.tif,13,0.0666666666666667,0.0666666666666667,0.716666666666667,11286.971620583,11287.794058458,13,11287.033314625,11287.094256375,11287.812676083,11288.522681541,1,0.822437875000105
126,14,8,categorization,0,kitchen,SHINEd_sun_aapllqyqlykszopd.tif,66,0.0666666666666667,0.0666666666666667,1.41666666666667,11288.527426083,11289.562320208,9,11288.589083833,11288.650307375,11289.568751708,11290.978782916,1,1.0348941250013
126,15,8,categorization,0,kitchen,SHINEd_sun_avszsnwsbuqfgzbn.tif,105,0.0666666666666667,0.0666666666666667,1.21666666666667,11290.996915666,11291.790368458,9,11291.063593875,11291.129248583,11291.819117,11293.029156,1,0.793452791998789
126,16,8,categorization,0,bathroom,SHINEd_sun_acgyywnybuveqsro.tif,18,0.0666666666666667,0.0666666666666667,1.61666666666667,11293.046067666,11293.702755416,13,11293.113055875,11293.178469791,11293.7181995,11295.328237958,1,0.656687749999037
126,17,8,categorization,0,bathroom,SHINEd_sun_auzqhkafidnkrwmo.tif,54,0.0666666666666667,0.0666666666666667,0.783333333333333,11295.346734375,11296.178117708,13,11295.41389425,11295.479028333,11296.202349833,11296.979027375,1,0.831383332999394
126,18,8,categorization,0,kitchen,SHINEd_sun_ahspylgoovwmwvgk.tif,93,0.0666666666666667,0.0666666666666667,1.98333333333333,11296.9865285,11297.665581416,9,11297.0484775,11297.109156416,11297.677738458,11299.654453583,1,0.679052916000728
126,19,8,categorization,0,bathroom,SHINEd_sun_ahaulkltgpkeeemi.tif,26,0.0666666666666667,0.0666666666666667,0.983333333333333,11299.672512583,11300.374776875,13,11299.739332333,11299.805094791,11300.395352041,11301.372023875,1,0.702264292000109
126,20,8,categorization,0,kitchen,SHINEd_sun_aeqdocilnnpuvuhx.tif,83,0.0666666666666667,0.0666666666666667,0.8,11301.376814041,11302.809459041,13,11301.43871825,11301.499439083,11302.818229958,11303.611568875,0,1.43264500000078
126,21,8,categorization,0,kitchen,SHINEd_sun_aypmqwcualkenuoe.tif,109,0.0666666666666667,0.0666666666666667,0.733333333333333,11303.616546958,11304.401310583,9,11303.67842475,11303.739145416,11304.407724833,11305.134397291,1,0.784763625000778
126,22,8,categorization,0,bathroom,SHINEd_sun_aoybiabnpadelefl.tif,41,0.0666666666666667,0.0666666666666667,0.966666666666667,11305.139432583,11307.105182,13,11305.201137416,11305.2621065,11307.114423333,11308.074426458,1,1.96574941699873
126,23,8,categorization,0,kitchen,SHINEd_sun_auaiucuqpdausiva.tif,102,0.0666666666666667,0.0666666666666667,0.866666666666667,11308.079286041,11308.721778083,9,11308.141067875,11308.201824833,11308.736974708,11309.596979083,1,0.642492041999503
126,24,8,categorization,0,bathroom,SHINEd_sun_aggnnqpdorgxpvce.tif,21,0.0666666666666667,0.0666666666666667,1.23333333333333,11309.603002125,11310.321355458,13,11309.664861166,11309.725620625,11310.327451791,11311.554151,1,0.718353332998959
126,25,8,categorization,0,kitchen,SHINEd_sun_abdenxonkemggwsq.tif,69,0.0666666666666667,0.0666666666666667,1.9,11311.572050625,11312.329338833,9,11311.638600041,11311.704570333,11312.3438355,11314.237201458,1,0.757288208000318
126,26,8,categorization,0,kitchen,SHINEd_sun_abrcnpqqhmjwekyf.tif,73,0.0666666666666667,0.0666666666666667,0.866666666666667,11314.255502166,11315.172059958,9,11314.322091458,11314.387801416,11315.194457375,11316.054462458,1,0.916557792001186
126,27,8,categorization,0,kitchen,SHINEd_sun_ahywdevtimnqcsln.tif,94,0.0666666666666667,0.0666666666666667,0.966666666666667,11316.059487625,11316.930072916,9,11316.121202541,11316.182172166,11316.933992958,11317.893996791,1,0.87058529100068
126,28,8,categorization,0,bathroom,SHINEd_sun_ahqjwnzgolcaoidx.tif,29,0.0666666666666667,0.0666666666666667,0.916666666666667,11317.898780125,11318.705474375,13,11317.96051475,11318.021431541,11318.723272958,11319.633278833,1,0.806694249999055
126,29,8,categorization,0,bathroom,SHINEd_sun_apeeialkgkuxddgh.tif,42,0.0666666666666667,0.0666666666666667,0.916666666666667,11319.638538458,11320.249323916,13,11319.700214708,11319.7610875,11320.263111333,11321.173114583,1,0.610785457998645
126,30,8,categorization,0,bathroom,SHINEd_sun_aleqenyvunhactkl.tif,32,0.0666666666666667,0.0666666666666667,1.4,11321.17814675,11322.113473791,13,11321.239746875,11321.300743083,11322.11926075,11323.512636458,1,0.935327040999255
126,31,8,categorization,0,bathroom,SHINEd_sun_alkosphxlxwjwgjd.tif,34,0.0666666666666667,0.0666666666666667,1.75,11323.529155916,11324.436512291,13,11323.597306041,11323.661587,11324.450776166,11326.194158208,1,0.907356375000745
126,32,8,categorization,0,bathroom,SHINEd_sun_akiytfaagpdsphgz.tif,31,0.0666666666666667,0.0666666666666667,1.25,11326.212584083,11327.405666416,9,11326.279516333,11326.344915333,11327.435179416,11328.678546708,0,1.19308233300035
126,33,8,categorization,0,kitchen,SHINEd_sun_abpwyqmlzafvklqo.tif,72,0.0666666666666667,0.0666666666666667,1.05,11328.696495083,11329.522932333,9,11328.76409975,11328.829441541,11329.552752583,11330.596135083,1,0.826437249999799
126,34,8,categorization,0,kitchen,SHINEd_sun_acgtpgfybqjmzeyw.tif,75,0.0666666666666667,0.0666666666666667,1.06666666666667,11330.60583925,11331.305835583,9,11330.670604458,11330.736705666,11331.326797125,11332.386831208,1,0.699996332999945
126,35,8,categorization,0,bathroom,SHINEd_sun_axxbkopsgyouuebh.tif,58,0.0666666666666667,0.0666666666666667,1.21666666666667,11332.405682916,11333.185893541,13,11332.472513166,11332.538005958,11333.190396875,11334.400446458,1,0.780210625000109
126,36,8,categorization,0,bathroom,SHINEd_sun_ambriybtogmepttm.tif,36,0.0666666666666667,0.0666666666666667,0.95,11334.417836333,11335.150582958,13,11334.484532041,11334.551586541,11335.174984416,11336.118369375,1,0.7327466250008
126,37,8,categorization,0,bathroom,SHINEd_sun_aspsyogrekjtfozg.tif,50,0.0666666666666667,0.0666666666666667,0.9,11336.134942666,11336.729645708,13,11336.201427125,11336.263969208,11336.749561375,11337.642898541,1,0.59470304199931
126,38,8,categorization,0,bathroom,SHINEd_sun_ajlawzvmubibwbpy.tif,30,0.0666666666666667,0.0666666666666667,1.78333333333333,11337.647778208,11338.441166458,13,11337.709466416,11337.770521083,11338.45582875,11340.23253625,1,0.793388250000135
126,39,8,categorization,0,bathroom,SHINEd_sun_anryaplzeujmzfkd.tif,39,0.0666666666666667,0.0666666666666667,1.16666666666667,11340.248471583,11341.08651675,13,11340.315585083,11340.380821791,11341.103540541,11342.263577541,1,0.838045167000018
126,40,8,categorization,0,bathroom,SHINEd_sun_aghyqhbptboemmoq.tif,23,0.0666666666666667,0.0666666666666667,0.783333333333333,11342.2727765,11343.036562875,13,11342.339876083,11342.403519291,11343.060154,11343.836857666,1,0.763786375000564
126,41,8,categorization,0,kitchen,SHINEd_sun_aqeaevwwwjoqhzvl.tif,101,0.0666666666666667,0.0666666666666667,1.23333333333333,11343.854607083,11344.625921583,13,11343.919422208,11343.985937333,11344.638123208,11345.864835333,0,0.771314499999789
126,42,8,categorization,0,bathroom,SHINEd_sun_aljolscmmzydegqp.tif,33,0.0666666666666667,0.0666666666666667,0.9,11345.880909125,11346.885305708,13,11345.945861291,11346.010408625,11346.899214041,11347.792552541,1,1.00439658299911
126,43,8,categorization,0,bathroom,SHINEd_sun_alotolagknyrgtsk.tif,35,0.0666666666666667,0.0666666666666667,0.7,11347.797568291,11348.777991958,13,11347.859265791,11347.920245208,11348.788790083,11349.482129333,1,0.98042366700065
126,44,8,categorization,0,kitchen,SHINEd_labelme_rykdqxenmhulbdn.tif,63,0.0666666666666667,0.0666666666666667,1.23333333333333,11349.48716525,11350.329998875,13,11349.548891541,11349.609760791,11350.344953583,11351.57166425,0,0.842833624999912
126,45,8,categorization,0,kitchen,SHINEd_sun_aehawpgmrlhlvcow.tif,81,0.0666666666666667,0.0666666666666667,1,11351.588777958,11352.623073666,9,11351.655389541,11351.721345916,11352.644842916,11353.638180875,1,1.03429570799926
126,46,8,categorization,0,bathroom,SHINEd_sun_aapitsgbtktqubfy.tif,12,0.0666666666666667,0.0666666666666667,1.38333333333333,11353.643135208,11354.353063583,13,11353.704856666,11353.765862458,11354.367639208,11355.744352,1,0.709928374999436
126,47,8,categorization,0,bathroom,SHINEd_sun_acegryoqftbzowsg.tif,17,0.0666666666666667,0.0666666666666667,1.3,11355.761336541,11356.441068958,13,11355.8280585,11355.893457291,11356.46584425,11357.759223708,1,0.679732417000196
126,48,8,categorization,0,bathroom,SHINEd_sun_ahijqszoswveeyji.tif,28,0.0666666666666667,0.0666666666666667,0.833333333333333,11357.776023666,11358.468393375,13,11357.842657458,11357.905024583,11358.494937,11359.32165175,1,0.692369709000559
126,49,8,categorization,0,bathroom,SHINEd_sun_asfwthctfqerjvxr.tif,49,0.0666666666666667,0.0666666666666667,0.95,11359.337492666,11360.209971333,13,11359.404190625,11359.470355125,11360.222403458,11361.165742166,1,0.872478667000905
126,50,8,categorization,0,bathroom,SHINEd_sun_abapwbhyhkfixyex.tif,14,0.0666666666666667,0.0666666666666667,1.43333333333333,11361.170656291,11361.96129975,13,11361.232244791,11361.293461291,11361.97865025,11363.405368583,1,0.790643459000421
126,1,9,categorization,0,kitchen,SHINEd_sun_aeqdocilnnpuvuhx.tif,83,0.0666666666666667,0.0666666666666667,1.08333333333333,11373.461693875,11374.633012416,9,11373.524355708,11373.584550875,11374.636525041,11375.713234125,1,1.17131854099898
126,2,9,categorization,0,kitchen,SHINEd_sun_azmutvzbxypaceni.tif,110,0.0666666666666667,0.0666666666666667,0.8,11375.725182458,11376.57298325,9,11375.790173041,11375.857472166,11376.597574666,11377.390960708,1,0.847800792000271
126,3,9,categorization,0,kitchen,SHINEd_sun_agorklincwxrdtga.tif,87,0.0666666666666667,0.0666666666666667,0.833333333333333,11377.407453833,11378.29720525,9,11377.474116,11377.539705333,11378.308277416,11379.134948833,1,0.889751417000298
126,4,9,categorization,0,kitchen,SHINEd_sun_ajkqhtgcbgpcwrwn.tif,97,0.0666666666666667,0.0666666666666667,1.45,11379.139809708,11380.601764125,9,11379.201447916,11379.262443166,11380.61461675,11382.057985458,1,1.46195441700002
126,5,9,categorization,0,bathroom,SHINEd_sun_agrwbmhcpmfuwmsg.tif,24,0.0666666666666667,0.0666666666666667,1.3,11382.072324125,11382.82593525,13,11382.139285375,11382.204360416,11382.843843291,11384.137220666,1,0.753611125001044
126,6,9,categorization,0,bathroom,SHINEd_sun_asfwthctfqerjvxr.tif,49,0.0666666666666667,0.0666666666666667,1.21666666666667,11384.155718833,11384.827482583,13,11384.222743791,11384.288419333,11384.844489041,11386.054544166,1,0.671763749998718
126,7,9,categorization,0,bathroom,SHINEd_sun_agguqiubmwhqqunb.tif,22,0.0666666666666667,0.0666666666666667,0.733333333333333,11386.065371041,11386.697418625,13,11386.131963875,11386.198068875,11386.721258333,11387.447973833,1,0.632047584000247
126,8,9,categorization,0,bathroom,SHINEd_sun_aqrpegblszgcoujh.tif,48,0.0666666666666667,0.0666666666666667,1.03333333333333,11387.464484583,11388.593708041,13,11387.531059958,11387.596865666,11388.599687291,11389.626391375,1,1.12922345799961
126,9,9,categorization,0,bathroom,SHINEd_sun_aclfzgynxzxlbepz.tif,19,0.0666666666666667,0.0666666666666667,1.1,11389.637031791,11390.240627208,13,11389.701464083,11389.767661666,11390.256993583,11391.35036425,1,0.603595417000179
126,10,9,categorization,0,bathroom,SHINEd_sun_ausgutylgojavyoq.tif,53,0.0666666666666667,0.0666666666666667,1.25,11391.368761708,11391.953191541,13,11391.435067833,11391.501124916,11391.969847625,11393.213233708,1,0.584429833001195
126,11,9,categorization,0,bathroom,SHINEd_sun_aggnnqpdorgxpvce.tif,21,0.0666666666666667,0.0666666666666667,1.4,11393.229052708,11393.854604416,13,11393.297138916,11393.361366791,11393.88415475,11395.277537458,1,0.625551707998966
