sub_num,trial,block,task,is_practice,category,image,texture,duration,mask_dur,jitter,stim_time,time_of_resp,trial_response,mask_time,fix_time,jit_onset,trial_end,trial_accuracy,RT
126,1,9,categorization,0,kitchen,SHINEd_sun_aeqdocilnnpuvuhx.tif,83,0.0666666666666667,0.0666666666666667,1.08333333333333,11373.461693875,11374.633012416,9,11373.524355708,11373.584550875,11374.636525041,11375.713234125,1,1.17131854099898
126,2,9,categorization,0,kitchen,SHINEd_sun_azmutvzbxypaceni.tif,110,0.0666666666666667,0.0666666666666667,0.8,11375.725182458,11376.57298325,9,11375.790173041,11375.857472166,11376.597574666,11377.390960708,1,0.847800792000271
126,3,9,categorization,0,kitchen,SHINEd_sun_agorklincwxrdtga.tif,87,0.0666666666666667,0.0666666666666667,0.833333333333333,11377.407453833,11378.29720525,9,11377.474116,11377.539705333,11378.308277416,11379.134948833,1,0.889751417000298
126,4,9,categorization,0,kitchen,SHINEd_sun_ajkqhtgcbgpcwrwn.tif,97,0.0666666666666667,0.0666666666666667,1.45,11379.139809708,11380.601764125,9,11379.201447916,11379.262443166,11380.61461675,11382.057985458,1,1.46195441700002
126,5,9,categorization,0,bathroom,SHINEd_sun_agrwbmhcpmfuwmsg.tif,24,0.0666666666666667,0.0666666666666667,1.3,11382.072324125,11382.82593525,13,11382.139285375,11382.204360416,11382.843843291,11384.137220666,1,0.753611125001044
126,6,9,categorization,0,bathroom,SHINEd_sun_asfwthctfqerjvxr.tif,49,0.0666666666666667,0.0666666666666667,1.21666666666667,11384.155718833,11384.827482583,13,11384.222743791,11384.288419333,11384.844489041,11386.054544166,1,0.671763749998718
126,7,9,categorization,0,bathroom,SHINEd_sun_agguqiubmwhqqunb.tif,22,0.0666666666666667,0.0666666666666667,0.733333333333333,11386.065371041,11386.697418625,13,11386.131963875,11386.198068875,11386.721258333,11387.447973833,1,0.632047584000247
126,8,9,categorization,0,bathroom,SHINEd_sun_aqrpegblszgcoujh.tif,48,0.0666666666666667,0.0666666666666667,1.03333333333333,11387.464484583,11388.593708041,13,11387.531059958,11387.596865666,11388.599687291,11389.626391375,1,1.12922345799961
126,9,9,categorization,0,bathroom,SHINEd_sun_aclfzgynxzxlbepz.tif,19,0.0666666666666667,0.0666666666666667,1.1,11389.637031791,11390.240627208,13,11389.701464083,11389.767661666,11390.256993583,11391.35036425,1,0.603595417000179
126,10,9,categorization,0,bathroom,SHINEd_sun_ausgutylgojavyoq.tif,53,0.0666666666666667,0.0666666666666667,1.25,11391.368761708,11391.953191541,13,11391.435067833,11391.501124916,11391.969847625,11393.213233708,1,0.584429833001195
126,11,9,categorization,0,bathroom,SHINEd_sun_aggnnqpdorgxpvce.tif,21,0.0666666666666667,0.0666666666666667,1.4,11393.229052708,11393.854604416,13,11393.297138916,11393.361366791,11393.88415475,11395.277537458,1,0.625551707998966
126,12,9,categorization,0,kitchen,SHINEd_sun_aegoxogugdkwpmpj.tif,80,0.0666666666666667,0.0666666666666667,1.43333333333333,11395.295866583,11396.662711541,9,11395.363101875,11395.428055791,11396.686481416,11398.113193916,1,1.366844958
126,13,9,categorization,0,kitchen,SHINEd_sun_aadbddgrdsjugojn.tif,64,0.0666666666666667,0.0666666666666667,1.26666666666667,11398.130099708,11398.769701208,9,11398.197112458,11398.26287475,11398.785443375,11400.045491958,1,0.639601500000936
126,14,9,categorization,0,bathroom,SHINEd_sun_axldvoqbuvuggfmq.tif,57,0.0666666666666667,0.0666666666666667,0.916666666666667,11400.062860958,11400.686306125,9,11400.129996125,11400.195149333,11400.701199458,11401.611247375,0,0.623445167000682
126,15,9,categorization,0,kitchen,SHINEd_labelme_kxvouciolcpqplr.tif,62,0.0666666666666667,0.0666666666666667,1.05,11401.628272416,11402.328992625,9,11401.695072125,11401.760699875,11402.346326458,11403.389691583,1,0.700720209000792
126,16,9,categorization,0,kitchen,SHINEd_sun_aarfiyshqohlwkmo.tif,67,0.0666666666666667,0.0666666666666667,1.53333333333333,11403.399925125,11404.009193333,9,11403.465002041,11403.530480166,11404.03642575,11405.563145541,1,0.609268207999776
126,17,9,categorization,0,bathroom,SHINEd_sun_aljolscmmzydegqp.tif,33,0.0666666666666667,0.0666666666666667,1.11666666666667,11405.5728605,11406.445401458,13,11405.63944325,11405.705302375,11406.461147291,11407.571191875,1,0.872540958000172
126,18,9,categorization,0,kitchen,SHINEd_sun_aixorpehvfykdynp.tif,95,0.0666666666666667,0.0666666666666667,1.05,11407.57763425,11408.305472791,9,11407.639643708,11407.70033375,11408.318944875,11409.362320416,1,0.727838541000892
126,19,9,categorization,0,kitchen,SHINEd_sun_aaxxjlsuzvqlgylf.tif,68,0.0666666666666667,0.0666666666666667,1.66666666666667,11409.372120375,11410.06306425,9,11409.436885625,11409.502314708,11410.092282416,11411.752317958,1,0.690943875000812
126,20,9,categorization,0,kitchen,SHINEd_sun_acwjdupvyjsugpay.tif,76,0.0666666666666667,0.0666666666666667,1.98333333333333,11411.772159541,11412.38506275,9,11411.839516583,11411.901613041,11412.410319625,11414.387037125,1,0.612903208999342
126,21,9,categorization,0,bathroom,SHINEd_sun_alkosphxlxwjwgjd.tif,34,0.0666666666666667,0.0666666666666667,1.06666666666667,11414.407029458,11415.414558041,9,11414.474439208,11414.540060625,11415.430288583,11416.490320333,0,1.00752858300075
126,22,9,categorization,0,bathroom,SHINEd_sun_aspsyogrekjtfozg.tif,50,0.0666666666666667,0.0666666666666667,1.31666666666667,11416.504032291,11417.286491,13,11416.569515875,11416.633307833,11417.307393666,11418.617423916,1,0.782458708999911
126,23,9,categorization,0,bathroom,SHINEd_sun_ajlawzvmubibwbpy.tif,30,0.0666666666666667,0.0666666666666667,1.78333333333333,11418.630681125,11419.692420125,13,11418.698182666,11418.763233875,11419.7208205,11421.497528708,1,1.06173900000067
126,24,9,categorization,0,bathroom,SHINEd_sun_aapitsgbtktqubfy.tif,12,0.0666666666666667,0.0666666666666667,0.816666666666667,11421.516146708,11422.209441583,13,11421.583066958,11421.6487885,11422.239267916,11423.049274208,1,0.693294874999992
126,25,9,categorization,0,bathroom,SHINEd_sun_aunuadmjocsddsrl.tif,52,0.0666666666666667,0.0666666666666667,0.933333333333333,11423.054554958,11423.865479,13,11423.116208458,11423.177135541,11423.878974791,11424.805645791,1,0.810924041999897
126,26,9,categorization,0,kitchen,SHINEd_sun_ahspylgoovwmwvgk.tif,93,0.0666666666666667,0.0666666666666667,1.33333333333333,11424.810544083,11425.817464958,9,11424.872175083,11424.933082083,11425.835146458,11427.161868041,1,1.0069208749992
126,27,9,categorization,0,bathroom,SHINEd_sun_atstyziqcmkahyxk.tif,51,0.0666666666666667,0.0666666666666667,0.833333333333333,11427.176690208,11428.185895791,13,11427.243654541,11427.309231083,11428.19709125,11429.023763291,1,1.00920558300095
126,28,9,categorization,0,kitchen,SHINEd_labelme_rykdqxenmhulbdn.tif,63,0.0666666666666667,0.0666666666666667,0.933333333333333,11429.02904225,11429.945008458,13,11429.090774916,11429.151605458,11429.95339375,11430.880065958,0,0.9159662080001
126,29,9,categorization,0,bathroom,SHINEd_sun_acduarbnmmoglmiv.tif,16,0.0666666666666667,0.0666666666666667,1.85,11430.885731166,11431.601050083,13,11430.947557125,11431.00834875,11431.610333875,11433.453714625,1,0.715318917000332
126,30,9,categorization,0,kitchen,SHINEd_sun_abdenxonkemggwsq.tif,69,0.0666666666666667,0.0666666666666667,0.966666666666667,11433.472336875,11434.31897,13,11433.538696458,11433.6048025,11434.345058041,11435.305062833,0,0.846633125000153
126,31,9,categorization,0,kitchen,SHINEd_sun_abpwyqmlzafvklqo.tif,72,0.0666666666666667,0.0666666666666667,0.766666666666667,11435.30998625,11436.137438583,9,11435.37183,11435.43262375,11436.151022666,11436.911027458,1,0.82745233300011
126,32,9,categorization,0,bathroom,SHINEd_sun_aleqenyvunhactkl.tif,32,0.0666666666666667,0.0666666666666667,1.15,11436.915895375,11437.72137975,13,11436.977687416,11437.038486166,11437.740389541,11438.883756583,1,0.80548437500147
126,33,9,categorization,0,bathroom,SHINEd_sun_ahijqszoswveeyji.tif,28,0.0666666666666667,0.0666666666666667,0.75,11438.892616041,11439.624484208,13,11438.959144416,11439.025107583,11439.648030666,11440.391398125,1,0.731868167000357
126,34,9,categorization,0,bathroom,SHINEd_sun_ahcvzmoyaycdoftf.tif,27,0.0666666666666667,0.0666666666666667,0.9,11440.407347666,11441.001338,13,11440.473963166,11440.5399485,11441.009203208,11441.902541125,1,0.593990334000409
126,35,9,categorization,0,bathroom,SHINEd_sun_ahqjwnzgolcaoidx.tif,29,0.0666666666666667,0.0666666666666667,1.88333333333333,11441.907414041,11442.993535041,13,11441.969394958,11442.030088,11442.998662083,11444.875373375,1,1.08612100000028
126,36,9,categorization,0,kitchen,SHINEd_sun_abrcnpqqhmjwekyf.tif,73,0.0666666666666667,0.0666666666666667,1.65,11444.891815708,11445.569020208,13,11444.958661458,11445.02419325,11445.596846916,11447.240217541,0,0.677204499999789
126,37,9,categorization,0,kitchen,SHINEd_sun_aehawpgmrlhlvcow.tif,81,0.0666666666666667,0.0666666666666667,0.816666666666667,11447.257031416,11447.978946541,13,11447.323966791,11447.389312208,11447.994053833,11448.804060666,0,0.721915124999214
126,38,9,categorization,0,bathroom,SHINEd_sun_axxbkopsgyouuebh.tif,58,0.0666666666666667,0.0666666666666667,0.9,11448.809176625,11449.537501291,13,11448.870913583,11448.93185425,11449.55023725,11450.443573916,1,0.728324666000844
126,39,9,categorization,0,kitchen,SHINEd_sun_auaiucuqpdausiva.tif,102,0.0666666666666667,0.0666666666666667,0.733333333333333,11450.448429083,11451.193426125,9,11450.5101675,11450.57113325,11451.206161041,11451.932833,1,0.74499704200025
126,40,9,categorization,0,bathroom,SHINEd_sun_aavhrsfjbserjtht.tif,13,0.0666666666666667,0.0666666666666667,0.85,11451.937474958,11452.624940833,13,11451.999281875,11452.060015291,11452.628445041,11453.471781958,1,0.687465875000271
126,41,9,categorization,0,kitchen,SHINEd_sun_agubuxuukhzyzpdp.tif,88,0.0666666666666667,0.0666666666666667,1.58333333333333,11453.476643208,11454.705302291,9,11453.538284625,11453.599295,11454.71834,11456.295049958,1,1.22865908300082
126,42,9,categorization,0,kitchen,SHINEd_labelme_brsyyvweiuaazfr.tif,61,0.0666666666666667,0.0666666666666667,1.8,11456.313861416,11457.092576291,9,11456.381275583,11456.446401083,11457.119736166,11458.913122125,1,0.778714874999423
126,43,9,categorization,0,bathroom,SHINEd_sun_acgyywnybuveqsro.tif,18,0.0666666666666667,0.0666666666666667,1.3,11458.928939875,11459.604537291,13,11458.995897291,11459.0612265,11459.634552375,11460.927934958,1,0.675597415998709
126,44,9,categorization,0,kitchen,SHINEd_sun_aapllqyqlykszopd.tif,66,0.0666666666666667,0.0666666666666667,0.766666666666667,11460.946557625,11461.662428833,9,11461.013567375,11461.078897,11461.6856205,11462.445670416,1,0.715871207999953
126,45,9,categorization,0,bathroom,SHINEd_sun_apkxzenqapsujocq.tif,45,0.0666666666666667,0.0666666666666667,1.15,11462.459178791,11463.14501625,13,11462.525833666,11462.59176025,11463.161054958,11464.304439333,1,0.68583745900105
126,46,9,categorization,0,kitchen,SHINEd_sun_akcjzhbbjlbogpdi.tif,99,0.0666666666666667,0.0666666666666667,1.36666666666667,11464.315342916,11465.121205,9,11464.381814458,11464.447627708,11465.136287166,11466.496318916,1,0.805862084000182
126,47,9,categorization,0,bathroom,SHINEd_sun_apmqjbnwghzuhhzh.tif,46,0.0666666666666667,0.0666666666666667,0.783333333333333,11466.512953916,11467.437150833,13,11466.57968875,11466.64523875,11467.451253041,11468.227966541,1,0.92419691699979
126,48,9,categorization,0,kitchen,SHINEd_sun_aypmqwcualkenuoe.tif,109,0.0666666666666667,0.0666666666666667,1.25,11468.245518791,11469.753537625,13,11468.312200708,11468.375698833,11469.761302541,11471.004680916,0,1.50801883399981
126,49,9,categorization,0,kitchen,SHINEd_sun_akchetnepxlcxhsu.tif,98,0.0666666666666667,0.0666666666666667,1.5,11471.02323975,11471.747777458,9,11471.090165958,11471.15551875,11471.761268333,11473.25465075,1,0.724537707999843
126,50,9,categorization,0,bathroom,SHINEd_sun_apjevzvycyhuqghb.tif,43,0.0666666666666667,0.0666666666666667,1.03333333333333,11473.267846833,11474.027390375,9,11473.334847375,11473.400454041,11474.05723025,11475.083936083,0,0.759543542000756
