sub_num,trial,block,task,is_practice,category,image,texture,duration,mask_dur,jitter,stim_time,time_of_resp,trial_response,mask_time,fix_time,jit_onset,trial_end,trial_accuracy,RT
116,1,0,categorization,1,bathroom,SHINEd_bathroom_practice1.tif,111,0.0666666666666667,0.0666666666666667,1.21666666666667,7446.210863708,7449.405616208,9,7446.276490375,7446.336851125,7449.424938541,7450.635157041,0,3.19475249999959
116,2,0,categorization,1,kitchen,SHINEd_kitchen_practice2.tif,117,0.0666666666666667,0.0666666666666667,1.36666666666667,7450.686520083,7455.222717375,13,7450.75893125,7450.820473791,7455.240513416,7456.6007285,0,4.536197292
116,3,0,categorization,1,bathroom,SHINEd_bathroom_practice3.tif,113,0.0666666666666667,0.0666666666666667,1.85,7456.653329,7458.248019416,13,7456.727246416,7456.787733083,7458.284228375,7460.127765416,1,1.59469041600005
116,4,0,categorization,1,bathroom,SHINEd_bathroom_practice5.tif,115,0.0666666666666667,0.0666666666666667,1.55,7460.153304625,7462.155095833,9,7460.223321541,7460.287029666,7462.173182291,7463.716710708,0,2.00179120800021
116,5,0,categorization,1,kitchen,SHINEd_kitchen_practice4.tif,119,0.0666666666666667,0.0666666666666667,1.48333333333333,7463.749486708,7464.939907208,13,7463.822890791,7463.883963125,7464.986670208,7466.46443825,0,1.19042049999916
116,6,0,categorization,1,bathroom,SHINEd_bathroom_practice2.tif,112,0.0666666666666667,0.0666666666666667,1.15,7466.493840291,7467.818714041,9,7466.562593625,7466.627342375,7467.855156,7468.99868225,0,1.32487374999982
116,7,0,categorization,1,bathroom,SHINEd_bathroom_practice4.tif,114,0.0666666666666667,0.0666666666666667,0.733333333333333,7469.010701833,7470.796323458,13,7469.07815725,7469.145032708,7470.821495541,7471.548166166,1,1.7856216250002
116,8,0,categorization,1,kitchen,SHINEd_kitchen_practice1.tif,116,0.0666666666666667,0.0666666666666667,1.6,7471.553463375,7473.179375125,9,7471.615363125,7471.676197875,7473.19539425,7474.788775625,1,1.62591174999943
116,9,0,categorization,1,kitchen,SHINEd_kitchen_practice3.tif,118,0.0666666666666667,0.0666666666666667,0.716666666666667,7474.811649875,7476.128135375,9,7474.878573708,7474.944619208,7476.155130083,7476.865137541,1,1.31648550000045
116,10,0,categorization,1,kitchen,SHINEd_kitchen_practice5.tif,120,0.0666666666666667,0.0666666666666667,1.21666666666667,7476.870437166,7477.826868416,13,7476.93231725,7476.993160166,7477.84510825,7479.055160291,0,0.956431250000605
116,1,0,categorization,1,bathroom,SHINEd_bathroom_practice1.tif,111,0.0666666666666667,0.0666666666666667,1.21666666666667,7495.122163291,7497.050529041,13,7495.184831041,7495.24525375,7497.06434075,7498.274396625,1,1.92836575000001
116,2,0,categorization,1,kitchen,SHINEd_kitchen_practice2.tif,117,0.0666666666666667,0.0666666666666667,1.36666666666667,7498.286984875,7499.167524583,9,7498.353787208,7498.419978625,7499.193307791,7500.553343,1,0.88053970800047
116,3,0,categorization,1,bathroom,SHINEd_bathroom_practice3.tif,113,0.0666666666666667,0.0666666666666667,1.85,7500.571062125,7501.434217583,13,7500.639019708,7500.703800125,7501.460313,7503.303699666,1,0.86315545799971
116,4,0,categorization,1,bathroom,SHINEd_bathroom_practice5.tif,115,0.0666666666666667,0.0666666666666667,1.55,7503.314503958,7504.866842,9,7503.381396958,7503.447343583,7504.883405625,7506.426748875,0,1.55233804199997
116,5,0,categorization,1,kitchen,SHINEd_kitchen_practice4.tif,119,0.0666666666666667,0.0666666666666667,1.48333333333333,7506.431948,7507.219051,13,7506.493706375,7506.55466325,7507.223549,7508.700266625,0,0.787102999999661
116,6,0,categorization,1,bathroom,SHINEd_bathroom_practice2.tif,112,0.0666666666666667,0.0666666666666667,1.15,7508.718817875,7509.85521575,9,7508.785329458,7508.851386208,7509.874254291,7511.017636791,0,1.1363978749996
116,7,0,categorization,1,bathroom,SHINEd_bathroom_practice4.tif,114,0.0666666666666667,0.0666666666666667,0.733333333333333,7511.027490041,7511.73360475,13,7511.095451791,7511.160193666,7511.749243375,7512.4759425,1,0.706114708999849
116,8,0,categorization,1,kitchen,SHINEd_kitchen_practice1.tif,116,0.0666666666666667,0.0666666666666667,1.6,7512.492341666,7513.266953833,13,7512.559142666,7512.624961625,7513.276832666,7514.870218083,0,0.774612166999759
116,9,0,categorization,1,kitchen,SHINEd_kitchen_practice3.tif,118,0.0666666666666667,0.0666666666666667,0.716666666666667,7514.88844775,7515.934485666,9,7514.954786833,7515.0210155,7515.960928208,7516.670933541,1,1.04603791600039
116,10,0,categorization,1,kitchen,SHINEd_kitchen_practice5.tif,120,0.0666666666666667,0.0666666666666667,1.21666666666667,7516.676332125,7517.586384541,9,7516.738257541,7516.799056583,7517.601126,7518.811169916,1,0.910052416000326
116,1,1,categorization,0,bathroom,SHINEd_sun_abjtwfukuwddzted.tif,15,0.0666666666666667,0.0666666666666667,1.23333333333333,7531.252583291,7532.851002375,9,7531.31492175,7531.375321375,7532.861256791,7534.087968083,0,1.59841908399994
116,2,1,categorization,0,bathroom,SHINEd_sun_agyqfjcfkdcydepw.tif,25,0.0666666666666667,0.0666666666666667,0.783333333333333,7534.1055555,7534.97242725,13,7534.173183,7534.238892416,7534.995792666,7535.772496458,1,0.866871749999518
116,3,1,categorization,0,kitchen,SHINEd_sun_aaxxjlsuzvqlgylf.tif,68,0.0666666666666667,0.0666666666666667,0.75,7535.788611958,7536.603112416,13,7535.8549375,7535.921187083,7536.606845791,7537.350182833,0,0.814500458000111
116,4,1,categorization,0,bathroom,SHINEd_sun_abapwbhyhkfixyex.tif,14,0.0666666666666667,0.0666666666666667,1.23333333333333,7537.354992041,7538.514943125,9,7537.416677833,7537.477779666,7538.529568208,7539.756285458,0,1.15995108400057
116,5,1,categorization,0,bathroom,SHINEd_sun_acegryoqftbzowsg.tif,17,0.0666666666666667,0.0666666666666667,1.13333333333333,7539.772915625,7540.594953458,13,7539.84110125,7539.906171208,7540.612118833,7541.738827,1,0.82203783300065
116,6,1,categorization,0,bathroom,SHINEd_sun_ahcvzmoyaycdoftf.tif,27,0.0666666666666667,0.0666666666666667,0.95,7541.749457,7542.62147925,9,7541.816104,7541.882202375,7542.637533458,7543.580913833,0,0.872022250000555
116,7,1,categorization,0,kitchen,SHINEd_sun_ajkqhtgcbgpcwrwn.tif,97,0.0666666666666667,0.0666666666666667,0.733333333333333,7543.597802958,7544.298229375,13,7543.664716583,7543.729476416,7544.314680541,7545.041351208,0,0.700426417000017
116,8,1,categorization,0,kitchen,SHINEd_sun_ahpczsiumwwocjkv.tif,92,0.0666666666666667,0.0666666666666667,1.31666666666667,7545.047064625,7545.906605041,9,7545.108638583,7545.169864833,7545.92241175,7547.23246825,1,0.859540416000527
116,9,1,categorization,0,kitchen,SHINEd_sun_aegoxogugdkwpmpj.tif,80,0.0666666666666667,0.0666666666666667,0.8,7547.243781791,7548.083387416,13,7547.310320916,7547.376704416,7548.099175625,7548.892566166,0,0.839605624999422
116,10,1,categorization,0,bathroom,SHINEd_sun_asfwthctfqerjvxr.tif,49,0.0666666666666667,0.0666666666666667,0.716666666666667,7548.90901575,7549.93900775,9,7548.975424125,7549.034133208,7549.953123291,7550.663128708,0,1.02999199999977
116,11,1,categorization,0,bathroom,SHINEd_sun_apkxzenqapsujocq.tif,45,0.0666666666666667,0.0666666666666667,0.916666666666667,7550.668073291,7551.47473075,13,7550.729838041,7550.790667416,7551.492956916,7552.402961708,1,0.806657459000235
116,12,1,categorization,0,bathroom,SHINEd_sun_apmqjbnwghzuhhzh.tif,46,0.0666666666666667,0.0666666666666667,0.95,7552.408587291,7553.346336166,13,7552.470433333,7552.531468291,7553.349962625,7554.293301583,1,0.93774887499967
116,13,1,categorization,0,bathroom,SHINEd_sun_aqrpegblszgcoujh.tif,48,0.0666666666666667,0.0666666666666667,0.833333333333333,7554.298882083,7555.218820916,9,7554.360621,7554.421510375,7555.223895333,7556.050566791,0,0.919938833000742
116,14,1,categorization,0,bathroom,SHINEd_sun_awnqiikzaispgmwo.tif,56,0.0666666666666667,0.0666666666666667,0.75,7556.056848375,7557.138498041,13,7556.118598041,7556.179587291,7557.148116166,7557.891453625,1,1.08164966599998
116,15,1,categorization,0,bathroom,SHINEd_sun_axxbkopsgyouuebh.tif,58,0.0666666666666667,0.0666666666666667,1.53333333333333,7557.897069583,7558.763121791,13,7557.9588345,7558.019851791,7558.772346583,7560.299047791,1,0.866052207999928
116,16,1,categorization,0,kitchen,SHINEd_sun_amjjdeyrggfqgmom.tif,100,0.0666666666666667,0.0666666666666667,1.05,7560.316994916,7561.732000875,13,7560.383882541,7560.449636708,7561.759718625,7562.80311075,0,1.41500595900015
116,17,1,categorization,0,bathroom,SHINEd_sun_ambriybtogmepttm.tif,36,0.0666666666666667,0.0666666666666667,0.9,7562.815971875,7563.910116541,9,7562.881570125,7562.9473405,7563.937446541,7564.830837916,0,1.09414466599992
116,18,1,categorization,0,kitchen,SHINEd_sun_acwjdupvyjsugpay.tif,76,0.0666666666666667,0.0666666666666667,1.18333333333333,7564.844870416,7565.914165,13,7564.907588416,7564.967827208,7565.919757541,7567.096480416,0,1.06929458400009
116,19,1,categorization,0,kitchen,SHINEd_sun_aenotlpyftoioydp.tif,82,0.0666666666666667,0.0666666666666667,0.9,7567.107878625,7568.213777291,9,7567.174509541,7567.236601791,7568.243221833,7569.136561666,1,1.10589866600003
116,20,1,categorization,0,kitchen,SHINEd_sun_admlmbcdswaszruo.tif,79,0.0666666666666667,0.0666666666666667,1.66666666666667,7569.142270791,7570.522297416,9,7569.204038875,7569.265006625,7570.534664208,7572.19469775,1,1.38002662500003
116,21,1,categorization,0,bathroom,SHINEd_sun_aofnryafpsjimzsb.tif,40,0.0666666666666667,0.0666666666666667,1.13333333333333,7572.209822541,7572.945719708,13,7572.276527333,7572.342619,7572.96456625,7574.091267416,1,0.735897167000076
116,22,1,categorization,0,bathroom,SHINEd_sun_aggnnqpdorgxpvce.tif,21,0.0666666666666667,0.0666666666666667,1.3,7574.100375541,7574.955233,13,7574.165226,7574.233236083,7574.971434666,7576.264822625,1,0.854857458999504
116,23,1,categorization,0,bathroom,SHINEd_sun_avhrdrntsqrjzccq.tif,55,0.0666666666666667,0.0666666666666667,1.93333333333333,7576.283758291,7577.32441375,9,7576.3505595,7576.416726583,7577.340365,7579.267087916,0,1.04065545899994
116,24,1,categorization,0,bathroom,SHINEd_sun_apynckhmoftszqoq.tif,47,0.0666666666666667,0.0666666666666667,1,7579.27827875,7580.01108925,13,7579.345432875,7579.411565083,7580.0360945,7581.029432208,1,0.732810499999687
116,25,1,categorization,0,bathroom,SHINEd_sun_anryaplzeujmzfkd.tif,39,0.0666666666666667,0.0666666666666667,0.883333333333333,7581.034644125,7581.810798458,13,7581.096440625,7581.157359291,7581.826002,7582.702673958,1,0.776154332999795
116,26,1,categorization,0,bathroom,SHINEd_sun_anhioqovhscjqqwb.tif,38,0.0666666666666667,0.0666666666666667,1.95,7582.707886791,7583.546444333,13,7582.769551916,7582.830563458,7583.565783375,7585.50916375,1,0.838557541999762
116,27,1,categorization,0,bathroom,SHINEd_sun_amzlamotzwfkwjco.tif,37,0.0666666666666667,0.0666666666666667,1.25,7585.527621916,7586.245118041,9,7585.594228541,7585.659941458,7586.265984666,7587.509375,0,0.717496125000253
116,28,1,categorization,0,kitchen,SHINEd_sun_aixorpehvfykdynp.tif,95,0.0666666666666667,0.0666666666666667,1.95,7587.525751,7588.524047208,13,7587.592589166,7587.658383458,7588.548937083,7590.492315083,0,0.998296208000284
116,29,1,categorization,0,kitchen,SHINEd_sun_avszsnwsbuqfgzbn.tif,105,0.0666666666666667,0.0666666666666667,1.91666666666667,7590.507545291,7591.603681375,9,7590.574407041,7590.640149083,7591.60945525,7593.519501291,1,1.09613608400014
116,30,1,categorization,0,bathroom,SHINEd_sun_apkruvsevgegsdwp.tif,44,0.0666666666666667,0.0666666666666667,1.41666666666667,7593.536340541,7594.557283916,9,7593.603600916,7593.669018458,7594.574917625,7595.9849735,0,1.02094337500057
116,31,1,categorization,0,bathroom,SHINEd_sun_auzqhkafidnkrwmo.tif,54,0.0666666666666667,0.0666666666666667,0.716666666666667,7596.002049958,7596.83214125,13,7596.070666666,7596.134567458,7596.858059125,7597.568092875,1,0.830091292000361
116,32,1,categorization,0,kitchen,SHINEd_sun_ahljzhgcdpomplvg.tif,91,0.0666666666666667,0.0666666666666667,1.28333333333333,7597.584051625,7598.522659083,9,7597.646627,7597.706827,7598.542473833,7599.819177875,1,0.938607457999751
116,33,1,categorization,0,bathroom,SHINEd_sun_ahijqszoswveeyji.tif,28,0.0666666666666667,0.0666666666666667,0.9,7599.837228625,7601.105784666,9,7599.903818833,7599.96994425,7601.128682916,7602.022021,0,1.26855604100001
116,34,1,categorization,0,bathroom,SHINEd_sun_apeeialkgkuxddgh.tif,42,0.0666666666666667,0.0666666666666667,0.8,7602.027851416,7603.010703125,13,7602.089631791,7602.150696333,7603.019632708,7603.812971416,1,0.982851708999988
116,35,1,categorization,0,kitchen,SHINEd_sun_awcpdzzznmweyyhv.tif,106,0.0666666666666667,0.0666666666666667,1.01666666666667,7603.817961208,7605.082741541,9,7603.879626041,7603.940721791,7605.093302583,7606.103354666,1,1.26478033300009
116,36,1,categorization,0,kitchen,SHINEd_sun_adgqasybjyktddhj.tif,78,0.0666666666666667,0.0666666666666667,0.85,7606.115017125,7607.562869791,9,7606.179484541,7606.246230541,7607.585435791,7608.42877525,1,1.44785266599956
116,37,1,categorization,0,bathroom,SHINEd_sun_aunuadmjocsddsrl.tif,52,0.0666666666666667,0.0666666666666667,1.51666666666667,7608.434030291,7609.473890125,9,7608.495911041,7608.556884333,7609.492063166,7611.002101791,0,1.0398598339998
116,38,1,categorization,0,bathroom,SHINEd_sun_aapitsgbtktqubfy.tif,12,0.0666666666666667,0.0666666666666667,1.83333333333333,7611.020998583,7612.152683625,9,7611.087835791,7611.153569208,7612.176698875,7614.003409291,0,1.13168504199984
116,39,1,categorization,0,kitchen,SHINEd_sun_acgtpgfybqjmzeyw.tif,75,0.0666666666666667,0.0666666666666667,0.716666666666667,7614.020065458,7614.943437083,9,7614.086798708,7614.152792708,7614.958531625,7615.668535416,1,0.923371625000073
116,40,1,categorization,0,bathroom,SHINEd_sun_aclfzgynxzxlbepz.tif,19,0.0666666666666667,0.0666666666666667,0.9,7615.673869375,7616.378495625,13,7615.735710916,7615.796628916,7616.38199125,7617.275329833,1,0.704626249999819
116,41,1,categorization,0,bathroom,SHINEd_labelme_sfxiulhjbhlyiyt.tif,11,0.0666666666666667,0.0666666666666667,0.916666666666667,7617.280381583,7618.337821291,9,7617.342111916,7617.403140666,7618.3555745,7619.265578833,0,1.05743970799995
116,42,1,categorization,0,bathroom,SHINEd_sun_ahaulkltgpkeeemi.tif,26,0.0666666666666667,0.0666666666666667,0.816666666666667,7619.270307708,7620.442301916,13,7619.332126916,7619.39294875,7620.462161708,7621.272166416,1,1.1719942080008
116,43,1,categorization,0,kitchen,SHINEd_sun_aarfiyshqohlwkmo.tif,67,0.0666666666666667,0.0666666666666667,1.88333333333333,7621.276627333,7622.074508083,13,7621.33840125,7621.399339833,7622.08496575,7623.961682958,0,0.797880750000331
116,44,1,categorization,0,kitchen,SHINEd_sun_abdenxonkemggwsq.tif,69,0.0666666666666667,0.0666666666666667,0.9,7623.980554958,7624.99810825,9,7624.04725125,7624.112895375,7625.019622625,7625.9129615,1,1.01755329200023
116,45,1,categorization,0,kitchen,SHINEd_sun_abrcnpqqhmjwekyf.tif,73,0.0666666666666667,0.0666666666666667,1,7625.91810175,7626.874060583,9,7625.980050791,7626.040867333,7626.8926805,7627.8860185,1,0.955958833000295
116,46,1,categorization,0,kitchen,SHINEd_sun_agorklincwxrdtga.tif,87,0.0666666666666667,0.0666666666666667,0.733333333333333,7627.890966708,7628.770727541,13,7627.952739458,7628.01365325,7628.782063125,7629.508733125,0,0.879760833000546
116,47,1,categorization,0,kitchen,SHINEd_sun_aadbddgrdsjugojn.tif,64,0.0666666666666667,0.0666666666666667,0.883333333333333,7629.513651625,7630.5145,9,7629.5753045,7629.636311416,7630.521674958,7631.3983455,1,1.0008483749998
116,48,1,categorization,0,bathroom,SHINEd_sun_aghyqhbptboemmoq.tif,23,0.0666666666666667,0.0666666666666667,1.73333333333333,7631.403330166,7632.121997041,13,7631.465109541,7631.525980791,7632.127876333,7633.85459825,1,0.718666875000054
116,49,1,categorization,0,bathroom,SHINEd_sun_acgyywnybuveqsro.tif,18,0.0666666666666667,0.0666666666666667,1.91666666666667,7633.871485458,7634.745840458,9,7633.937995125,7634.004346125,7634.75850525,7636.668540875,0,0.874354999999923
116,50,1,categorization,0,kitchen,SHINEd_sun_aeqdocilnnpuvuhx.tif,83,0.0666666666666667,0.0666666666666667,1.35,7636.686940708,7637.898648833,9,7636.753919916,7636.819743916,7637.905596125,7639.248944958,1,1.21170812499986
116,1,2,categorization,0,kitchen,SHINEd_labelme_brsyyvweiuaazfr.tif,61,0.0666666666666667,0.0666666666666667,0.95,7650.031437,7651.233912416,9,7650.094043958,7650.15436925,7651.239365625,7652.18270325,1,1.2024754160002
116,2,2,categorization,0,kitchen,SHINEd_sun_aapllqyqlykszopd.tif,66,0.0666666666666667,0.0666666666666667,0.75,7652.187309916,7653.329865541,9,7652.249165625,7652.309962458,7653.34544925,7654.088786791,1,1.14255562499966
116,3,2,categorization,0,kitchen,SHINEd_sun_ahywdevtimnqcsln.tif,94,0.0666666666666667,0.0666666666666667,1.68333333333333,7654.093991791,7655.274258541,9,7654.155815,7654.216644791,7655.285087583,7656.961808041,1,1.18026674999965
116,4,2,categorization,0,bathroom,SHINEd_sun_atstyziqcmkahyxk.tif,51,0.0666666666666667,0.0666666666666667,0.816666666666667,7656.978355041,7657.735240333,13,7657.044824666,7657.111167791,7657.750122083,7658.560127166,1,0.756885291999424
116,5,2,categorization,0,bathroom,SHINEd_sun_aoybiabnpadelefl.tif,41,0.0666666666666667,0.0666666666666667,0.916666666666667,7658.566075875,7659.842485791,13,7658.627929208,7658.688897791,7659.85832675,7660.768332791,1,1.27640991600038
116,6,2,categorization,0,kitchen,SHINEd_sun_ajcbwwvdlsvjyzje.tif,96,0.0666666666666667,0.0666666666666667,1.21666666666667,7660.773878375,7661.842499333,9,7660.835765375,7660.896574708,7661.848528791,7663.058568958,1,1.06862095799988
116,7,2,categorization,0,kitchen,SHINEd_sun_ahspylgoovwmwvgk.tif,93,0.0666666666666667,0.0666666666666667,0.9,7663.075607541,7663.823973125,13,7663.142154916,7663.208540416,7663.84835925,7664.741739,0,0.748365583999657
116,8,2,categorization,0,bathroom,SHINEd_sun_axyrejkiiaqiurjk.tif,59,0.0666666666666667,0.0666666666666667,1.65,7664.758587875,7665.666629208,9,7664.825129458,7664.891323916,7665.676876541,7667.320246708,0,0.908041333000256
116,9,2,categorization,0,bathroom,SHINEd_sun_azqyogdvyhahyram.tif,60,0.0666666666666667,0.0666666666666667,1.15,7667.331720916,7668.388627041,13,7667.398419583,7667.464482666,7668.403431375,7669.546802375,1,1.05690612499984
116,10,2,categorization,0,kitchen,SHINEd_sun_auticobqsbwgoppi.tif,104,0.0666666666666667,0.0666666666666667,1.13333333333333,7669.557114166,7671.16285625,9,7669.623847541,7669.689686583,7671.181921208,7672.30863425,1,1.60574208399976
116,11,2,categorization,0,bathroom,SHINEd_sun_aleqenyvunhactkl.tif,32,0.0666666666666667,0.0666666666666667,1.76666666666667,7672.317346791,7673.123818208,13,7672.382697125,7672.451341583,7673.140474041,7674.900522916,1,0.806471416999557
116,12,2,categorization,0,bathroom,SHINEd_sun_axldvoqbuvuggfmq.tif,57,0.0666666666666667,0.0666666666666667,1.8,7674.91818275,7675.867073416,13,7674.98471225,7675.051623041,7675.891394708,7677.684773958,1,0.948890665999897
116,13,2,categorization,0,kitchen,SHINEd_sun_agubuxuukhzyzpdp.tif,88,0.0666666666666667,0.0666666666666667,0.9,7677.703953541,7678.48957225,13,7677.770632666,7677.836516958,7678.508077041,7679.401415916,0,0.785618708999209
116,14,2,categorization,0,kitchen,SHINEd_sun_ahdycvpopffkzzsu.tif,90,0.0666666666666667,0.0666666666666667,0.716666666666667,7679.407158791,7681.418084125,9,7679.4690035,7679.529954166,7681.432519291,7682.142523708,1,2.01092533399969
116,15,2,categorization,0,kitchen,SHINEd_sun_auaiucuqpdausiva.tif,102,0.0666666666666667,0.0666666666666667,1.36666666666667,7682.147706458,7683.802226208,13,7682.209479333,7682.27047225,7683.806385708,7685.166441291,0,1.65451974999996
116,16,2,categorization,0,kitchen,SHINEd_sun_aymvwlarqodbwuoc.tif,108,0.0666666666666667,0.0666666666666667,0.916666666666667,7685.185223541,7686.022844666,9,7685.250058291,7685.316219875,7686.038645958,7686.948650583,1,0.837621125000624
116,17,2,categorization,0,kitchen,SHINEd_sun_aehawpgmrlhlvcow.tif,81,0.0666666666666667,0.0666666666666667,0.716666666666667,7686.954552208,7687.698588416,13,7687.01638375,7687.077317916,7687.712492125,7688.42249675,0,0.74403620800058
116,18,2,categorization,0,kitchen,SHINEd_labelme_kxvouciolcpqplr.tif,62,0.0666666666666667,0.0666666666666667,0.766666666666667,7688.428164833,7689.5306235,13,7688.489848166,7688.550863208,7689.536213541,7690.296217833,0,1.10245866700006
116,19,2,categorization,0,kitchen,SHINEd_sun_abdxkyyxwfskuaqb.tif,70,0.0666666666666667,0.0666666666666667,1.06666666666667,7690.300978791,7691.338384416,9,7690.362774875,7690.423713583,7691.342226041,7692.40226425,1,1.03740562500025
116,20,2,categorization,0,kitchen,SHINEd_sun_azmutvzbxypaceni.tif,110,0.0666666666666667,0.0666666666666667,0.8,7692.412364666,7693.147569,13,7692.47715075,7692.543795,7693.166505708,7693.959885833,0,0.735204333999718
116,21,2,categorization,0,kitchen,SHINEd_sun_acxkpeoqbwcxfvip.tif,77,0.0666666666666667,0.0666666666666667,0.866666666666667,7693.977237208,7695.002053583,9,7694.044118291,7694.109986125,7695.011931291,7695.871935375,1,1.02481637500023
116,22,2,categorization,0,kitchen,SHINEd_labelme_rykdqxenmhulbdn.tif,63,0.0666666666666667,0.0666666666666667,1.48333333333333,7695.876810875,7696.81010125,13,7695.938606125,7695.99953225,7696.818719041,7698.295440291,0,0.93329037500007
116,23,2,categorization,0,kitchen,SHINEd_sun_acfmftudsenhrfhy.tif,74,0.0666666666666667,0.0666666666666667,1.1,7698.313801291,7699.268838791,9,7698.380803833,7698.446489666,7699.28451325,7700.377894166,1,0.955037499999889
116,24,2,categorization,0,kitchen,SHINEd_sun_aunzlwrbjumxhwdj.tif,103,0.0666666666666667,0.0666666666666667,0.783333333333333,7700.387880833,7701.406703375,9,7700.452617833,7700.520593125,7701.427161541,7702.203882708,1,1.01882254199973
116,25,2,categorization,0,bathroom,SHINEd_sun_ajlawzvmubibwbpy.tif,30,0.0666666666666667,0.0666666666666667,0.866666666666667,7702.220663541,7703.169913625,9,7702.287227,7702.345070166,7703.180527833,7704.040532958,0,0.949250083999686
116,26,2,categorization,0,kitchen,SHINEd_sun_aqeaevwwwjoqhzvl.tif,101,0.0666666666666667,0.0666666666666667,1.83333333333333,7704.045393208,7704.737760833,13,7704.10714175,7704.168293416,7704.753756666,7706.580480583,0,0.692367624999861
116,27,2,categorization,0,bathroom,SHINEd_sun_apjevzvycyhuqghb.tif,43,0.0666666666666667,0.0666666666666667,0.7,7706.594914083,7707.631231416,9,7706.66154925,7706.723569541,7707.646053375,7708.3393905,0,1.03631733300062
116,28,2,categorization,0,bathroom,SHINEd_sun_agrwbmhcpmfuwmsg.tif,24,0.0666666666666667,0.0666666666666667,1.33333333333333,7708.344282916,7709.34641775,9,7708.406187,7708.467023166,7709.351973458,7710.678693791,0,1.00213483399966
116,29,2,categorization,0,kitchen,SHINEd_sun_akchetnepxlcxhsu.tif,98,0.0666666666666667,0.0666666666666667,1.33333333333333,7710.695328166,7711.479923625,13,7710.761743666,7710.828076166,7711.500307208,7712.827021125,0,0.784595459000229
116,30,2,categorization,0,kitchen,SHINEd_sun_abpwyqmlzafvklqo.tif,72,0.0666666666666667,0.0666666666666667,1.38333333333333,7712.843949208,7713.625400416,9,7712.910710083,7712.977035166,7713.6498285,7715.026531583,1,0.781451208000362
116,31,2,categorization,0,kitchen,SHINEd_sun_aamedkxepzlwuxes.tif,65,0.0666666666666667,0.0666666666666667,1.25,7715.04459625,7716.438411166,13,7715.111393833,7715.1773055,7716.469965083,7717.713357541,0,1.39381491600034
116,32,2,categorization,0,bathroom,SHINEd_sun_acduarbnmmoglmiv.tif,16,0.0666666666666667,0.0666666666666667,1.55,7717.731398666,7718.605654833,9,7717.798214125,7717.864183416,7718.619916916,7720.163308625,0,0.874256166999658
116,33,2,categorization,0,bathroom,SHINEd_sun_ausgutylgojavyoq.tif,53,0.0666666666666667,0.0666666666666667,1.61666666666667,7720.181920333,7721.874352833,13,7720.248532708,7720.31456,7721.88382525,7723.493879208,1,1.6924325
116,34,2,categorization,0,bathroom,SHINEd_sun_alotolagknyrgtsk.tif,35,0.0666666666666667,0.0666666666666667,1.33333333333333,7723.511384583,7724.564520875,9,7723.578179208,7723.64415575,7724.583134625,7725.909848375,0,1.05313629200009
116,35,2,categorization,0,kitchen,SHINEd_sun_akcjzhbbjlbogpdi.tif,99,0.0666666666666667,0.0666666666666667,0.833333333333333,7725.928062833,7727.069805916,9,7725.995196875,7726.060817375,7727.082992375,7727.909663125,1,1.14174308300062
116,36,2,categorization,0,kitchen,SHINEd_sun_aggjlwcdjsjcaemh.tif,86,0.0666666666666667,0.0666666666666667,1.45,7727.91427375,7729.266185916,9,7727.976079583,7728.037109041,7729.272578333,7730.715949166,1,1.35191216600015
116,37,2,categorization,0,bathroom,SHINEd_sun_akiytfaagpdsphgz.tif,31,0.0666666666666667,0.0666666666666667,0.933333333333333,7730.734121041,7731.810580791,9,7730.800868916,7730.867443916,7731.822006208,7732.748676791,0,1.07645974999923
116,38,2,categorization,0,bathroom,SHINEd_sun_agguqiubmwhqqunb.tif,22,0.0666666666666667,0.0666666666666667,1.65,7732.753560083,7733.585692,13,7732.815393041,7732.876254791,7733.594747833,7735.238137375,1,0.83213191699997
116,39,2,categorization,0,kitchen,SHINEd_sun_aexklacwqwezaorf.tif,84,0.0666666666666667,0.0666666666666667,1.23333333333333,7735.248354291,7736.245040291,9,7735.313238541,7735.38116425,7736.269570583,7737.496273791,1,0.996685999999499
116,40,2,categorization,0,kitchen,SHINEd_sun_axyyrmzcupyhlivc.tif,107,0.0666666666666667,0.0666666666666667,0.766666666666667,7737.513499166,7739.014779166,9,7737.580752666,7737.646448041,7739.038013291,7739.798017333,1,1.50128000000041
116,41,2,categorization,0,kitchen,SHINEd_sun_aypmqwcualkenuoe.tif,109,0.0666666666666667,0.0666666666666667,1.78333333333333,7739.803196416,7740.8895715,9,7739.864943458,7739.926043708,7740.89518925,7742.671889666,1,1.08637508399988
116,42,2,categorization,0,bathroom,SHINEd_sun_aavhrsfjbserjtht.tif,13,0.0666666666666667,0.0666666666666667,1.11666666666667,7742.691814541,7743.750587708,9,7742.758982541,7742.824602875,7743.78101025,7744.891061458,0,1.05877316700025
116,43,2,categorization,0,bathroom,SHINEd_sun_aspsyogrekjtfozg.tif,50,0.0666666666666667,0.0666666666666667,1.85,7744.900034375,7745.826400166,13,7744.96499825,7745.033396583,7745.856596833,7747.699961833,1,0.926365790999625
116,44,2,categorization,0,kitchen,SHINEd_sun_afuyedyxivkhecmu.tif,85,0.0666666666666667,0.0666666666666667,0.733333333333333,7747.718528166,7748.749898,9,7747.785636541,7747.851219166,7748.774488208,7749.50115875,1,1.03136983399963
116,45,2,categorization,0,bathroom,SHINEd_sun_aljolscmmzydegqp.tif,33,0.0666666666666667,0.0666666666666667,0.783333333333333,7749.506987625,7750.641905083,9,7749.568691625,7749.629780458,7750.648552583,7751.425224958,0,1.13491745800002
116,46,2,categorization,0,kitchen,SHINEd_sun_agzzivivdpnawacl.tif,89,0.0666666666666667,0.0666666666666667,1.5,7751.429965,7752.306138458,13,7751.491782166,7751.55271075,7752.321740791,7753.815131625,0,0.876173457999357
116,47,2,categorization,0,kitchen,SHINEd_sun_abftihopvusyfakt.tif,71,0.0666666666666667,0.0666666666666667,0.733333333333333,7753.833029291,7754.710339541,9,7753.899556708,7753.965684375,7754.738780833,7755.465452958,1,0.877310250000846
116,48,2,categorization,0,bathroom,SHINEd_sun_alkosphxlxwjwgjd.tif,34,0.0666666666666667,0.0666666666666667,1.1,7755.471118583,7756.737608375,9,7755.532888166,7755.593797083,7756.745992333,7757.839363125,0,1.26648979199945
116,49,2,categorization,0,bathroom,SHINEd_sun_ahqjwnzgolcaoidx.tif,29,0.0666666666666667,0.0666666666666667,1.6,7757.849248208,7759.167843916,13,7757.914243375,7757.982185083,7759.191794208,7760.7851655,1,1.31859570799952
116,50,2,categorization,0,bathroom,SHINEd_sun_afcoljnjfoxjtgja.tif,20,0.0666666666666667,0.0666666666666667,1.06666666666667,7760.800278625,7761.881404375,9,7760.867504416,7760.932919666,7761.90659675,7762.966633,0,1.08112574999996
116,1,3,categorization,0,bathroom,SHINEd_sun_axxbkopsgyouuebh.tif,58,0.0666666666666667,0.0666666666666667,0.85,7774.001162708,7774.841274083,13,7774.063699166,7774.124090125,7774.859759875,7775.703097708,1,0.840111374999651
116,2,3,categorization,0,kitchen,SHINEd_sun_aarfiyshqohlwkmo.tif,67,0.0666666666666667,0.0666666666666667,1.65,7775.708091916,7776.906010125,13,7775.769767708,7775.830811708,7776.916615166,7778.559996791,0,1.19791820899991
116,3,3,categorization,0,kitchen,SHINEd_sun_aqeaevwwwjoqhzvl.tif,101,0.0666666666666667,0.0666666666666667,0.783333333333333,7778.577237625,7780.081959708,9,7778.644174416,7778.710114791,7780.096253791,7780.872926541,1,1.50472208300016
116,4,3,categorization,0,bathroom,SHINEd_sun_apynckhmoftszqoq.tif,47,0.0666666666666667,0.0666666666666667,0.933333333333333,7780.877777208,7781.961205625,13,7780.939574791,7781.000502125,7781.968856083,7782.895526666,1,1.0834284169996
116,5,3,categorization,0,kitchen,SHINEd_sun_aamedkxepzlwuxes.tif,65,0.0666666666666667,0.0666666666666667,0.866666666666667,7782.900399458,7784.361364791,13,7782.962179625,7783.023084833,7784.375626708,7785.235630916,0,1.46096533299988
116,6,3,categorization,0,kitchen,SHINEd_sun_auticobqsbwgoppi.tif,104,0.0666666666666667,0.0666666666666667,1.11666666666667,7785.240461833,7786.481331958,9,7785.302240791,7785.363364041,7786.4993035,7787.609358375,1,1.24087012499967
116,7,3,categorization,0,kitchen,SHINEd_sun_acxkpeoqbwcxfvip.tif,77,0.0666666666666667,0.0666666666666667,0.966666666666667,7787.618411583,7788.458687583,13,7787.683821666,7787.751211916,7788.473498291,7789.433532208,0,0.840275999999903
116,8,3,categorization,0,bathroom,SHINEd_sun_agyqfjcfkdcydepw.tif,25,0.0666666666666667,0.0666666666666667,1.78333333333333,7789.449360958,7790.409502041,9,7789.515922958,7789.58286825,7790.418862416,7792.195583875,0,0.960141083000053
116,9,3,categorization,0,bathroom,SHINEd_sun_acgyywnybuveqsro.tif,18,0.0666666666666667,0.0666666666666667,1.55,7792.213481708,7793.316151833,13,7792.280313208,7792.346261416,7793.336074916,7794.879449416,1,1.10267012500026
116,10,3,categorization,0,kitchen,SHINEd_sun_acgtpgfybqjmzeyw.tif,75,0.0666666666666667,0.0666666666666667,1.41666666666667,7794.897254125,7796.425351791,9,7794.964340666,7795.030256583,7796.432948041,7797.843002708,1,1.52809766600058
116,11,3,categorization,0,bathroom,SHINEd_sun_aspsyogrekjtfozg.tif,50,0.0666666666666667,0.0666666666666667,0.8,7797.860466,7798.948216833,9,7797.927398708,7797.993371458,7798.966438333,7799.759775666,0,1.08775083299952
116,12,3,categorization,0,bathroom,SHINEd_sun_aapitsgbtktqubfy.tif,12,0.0666666666666667,0.0666666666666667,1.28333333333333,7799.764774083,7800.746110208,9,7799.826591958,7799.887503166,7800.7565335,7802.033244416,0,0.981336124999871
116,13,3,categorization,0,kitchen,SHINEd_sun_abdenxonkemggwsq.tif,69,0.0666666666666667,0.0666666666666667,1.66666666666667,7802.050678916,7802.881204833,13,7802.118085583,7802.183860416,7802.907386708,7804.567437083,0,0.830525917000159
116,14,3,categorization,0,bathroom,SHINEd_sun_aljolscmmzydegqp.tif,33,0.0666666666666667,0.0666666666666667,1.81666666666667,7804.586240916,7805.369854041,9,7804.652933333,7804.718608541,7805.39198075,7807.202020125,0,0.783613124999647
116,15,3,categorization,0,bathroom,SHINEd_sun_akiytfaagpdsphgz.tif,31,0.0666666666666667,0.0666666666666667,1.35,7807.220918458,7807.947777458,13,7807.28619,7807.354830083,7807.978389208,7809.321772583,1,0.726859000000331
116,16,3,categorization,0,bathroom,SHINEd_sun_ahaulkltgpkeeemi.tif,26,0.0666666666666667,0.0666666666666667,0.916666666666667,7809.341098458,7810.313361375,13,7809.408142916,7809.47427525,7810.330982833,7811.240988083,1,0.97226291700008
116,17,3,categorization,0,bathroom,SHINEd_sun_aoybiabnpadelefl.tif,41,0.0666666666666667,0.0666666666666667,0.916666666666667,7811.24593175,7812.39359325,13,7811.307770041,7811.368613416,7812.403942291,7813.313946541,1,1.14766150000014
116,18,3,categorization,0,bathroom,SHINEd_sun_aofnryafpsjimzsb.tif,40,0.0666666666666667,0.0666666666666667,1.31666666666667,7813.318483791,7814.169197625,9,7813.380425041,7813.441359375,7814.176829,7815.486885833,0,0.850713834000089
116,19,3,categorization,0,bathroom,SHINEd_sun_aleqenyvunhactkl.tif,32,0.0666666666666667,0.0666666666666667,1.45,7815.505767291,7817.08391,9,7815.572717708,7815.639255958,7817.116248291,7818.559620125,0,1.57814270900053
116,20,3,categorization,0,bathroom,SHINEd_sun_apeeialkgkuxddgh.tif,42,0.0666666666666667,0.0666666666666667,0.95,7818.577081875,7819.491930625,13,7818.644334583,7818.71018825,7819.517421625,7820.460759625,1,0.914848750000601
116,21,3,categorization,0,kitchen,SHINEd_labelme_rykdqxenmhulbdn.tif,63,0.0666666666666667,0.0666666666666667,1.38333333333333,7820.465674125,7821.673379458,9,7820.5273735,7820.588369708,7821.690701166,7823.0674015,1,1.20770533300038
116,22,3,categorization,0,bathroom,SHINEd_sun_awnqiikzaispgmwo.tif,56,0.0666666666666667,0.0666666666666667,1.16666666666667,7823.085409666,7824.002572666,13,7823.152086666,7823.21815025,7824.025213791,7825.185258,1,0.917163000000073
116,23,3,categorization,0,bathroom,SHINEd_sun_aggnnqpdorgxpvce.tif,21,0.0666666666666667,0.0666666666666667,1.61666666666667,7825.195560125,7826.234245125,13,7825.260408,7825.328244541,7826.250975875,7827.861031583,1,1.03868499999953
116,24,3,categorization,0,bathroom,SHINEd_labelme_sfxiulhjbhlyiyt.tif,11,0.0666666666666667,0.0666666666666667,1.38333333333333,7827.880208791,7828.803386208,9,7827.947326791,7828.01320775,7828.819219541,7830.195918416,0,0.923177417000261
116,25,3,categorization,0,kitchen,SHINEd_sun_axyyrmzcupyhlivc.tif,107,0.0666666666666667,0.0666666666666667,1.78333333333333,7830.210676958,7831.266421041,9,7830.277950458,7830.343563375,7831.282173,7833.058892708,1,1.05574408300072
116,26,3,categorization,0,bathroom,SHINEd_sun_aavhrsfjbserjtht.tif,13,0.0666666666666667,0.0666666666666667,0.783333333333333,7833.076506208,7833.93204075,13,7833.143421875,7833.209597375,7833.949234291,7834.725906333,1,0.855534541999987
116,27,3,categorization,0,bathroom,SHINEd_sun_auzqhkafidnkrwmo.tif,54,0.0666666666666667,0.0666666666666667,1.65,7834.730893,7835.673186166,13,7834.792661833,7834.853610958,7835.688790125,7837.332173666,1,0.942293166000127
116,28,3,categorization,0,kitchen,SHINEd_sun_aggjlwcdjsjcaemh.tif,86,0.0666666666666667,0.0666666666666667,1.86666666666667,7837.351466083,7838.2829895,13,7837.418510333,7837.484399541,7838.307415,7840.167456875,0,0.93152341700079
116,29,3,categorization,0,kitchen,SHINEd_sun_amjjdeyrggfqgmom.tif,100,0.0666666666666667,0.0666666666666667,1.23333333333333,7840.185450541,7841.521082083,9,7840.251641375,7840.318286958,7841.537805416,7842.764511083,1,1.33563154199965
116,30,3,categorization,0,bathroom,SHINEd_sun_azqyogdvyhahyram.tif,60,0.0666666666666667,0.0666666666666667,0.7,7842.782140291,7843.723591166,13,7842.850309041,7842.914830416,7843.735703,7844.429082625,1,0.941450874999646
116,31,3,categorization,0,kitchen,SHINEd_sun_ajcbwwvdlsvjyzje.tif,96,0.0666666666666667,0.0666666666666667,0.716666666666667,7844.444918916,7846.42573075,13,7844.511094625,7844.577467791,7846.430274625,7847.140279625,0,1.98081183400063
116,32,3,categorization,0,kitchen,SHINEd_sun_aenotlpyftoioydp.tif,82,0.0666666666666667,0.0666666666666667,1.05,7847.145379041,7848.289440833,9,7847.20721775,7847.268105916,7848.303245083,7849.346612666,1,1.14406179200068
116,33,3,categorization,0,kitchen,SHINEd_labelme_kxvouciolcpqplr.tif,62,0.0666666666666667,0.0666666666666667,1.1,7849.357473,7850.15063175,9,7849.422127416,7849.488714625,7850.178388,7851.271760916,1,0.793158749999748
116,34,3,categorization,0,kitchen,SHINEd_sun_aypmqwcualkenuoe.tif,109,0.0666666666666667,0.0666666666666667,1.13333333333333,7851.28160025,7852.193187166,9,7851.348248416,7851.412610125,7852.198209333,7853.324932083,1,0.911586915999578
116,35,3,categorization,0,bathroom,SHINEd_sun_apkruvsevgegsdwp.tif,44,0.0666666666666667,0.0666666666666667,1.38333333333333,7853.337768916,7854.21510025,9,7853.402671583,7853.470300416,7854.243382291,7855.620106083,0,0.877331334000701
116,36,3,categorization,0,bathroom,SHINEd_sun_alkosphxlxwjwgjd.tif,34,0.0666666666666667,0.0666666666666667,1.5,7855.6380585,7856.886967666,9,7855.705098916,7855.770668875,7856.912301666,7858.405677,0,1.24890916599998
116,37,3,categorization,0,kitchen,SHINEd_sun_adgqasybjyktddhj.tif,78,0.0666666666666667,0.0666666666666667,1.61666666666667,7858.425494666,7859.226744708,13,7858.492501708,7858.558138041,7859.245986541,7860.856019125,0,0.801250041999992
116,38,3,categorization,0,bathroom,SHINEd_sun_apkxzenqapsujocq.tif,45,0.0666666666666667,0.0666666666666667,0.983333333333333,7860.874489666,7861.748339291,13,7860.941249541,7861.007214708,7861.762949166,7862.739620041,1,0.873849624999821
116,39,3,categorization,0,bathroom,SHINEd_sun_acegryoqftbzowsg.tif,17,0.0666666666666667,0.0666666666666667,1.3,7862.744678125,7863.89684775,9,7862.806472541,7862.86751875,7863.903097916,7865.196488958,0,1.15216962500017
116,40,3,categorization,0,kitchen,SHINEd_sun_abftihopvusyfakt.tif,71,0.0666666666666667,0.0666666666666667,1.03333333333333,7865.21301925,7866.30524425,9,7865.278364791,7865.345633208,7866.335154916,7867.361873416,1,1.09222500000033
116,41,3,categorization,0,bathroom,SHINEd_sun_asfwthctfqerjvxr.tif,49,0.0666666666666667,0.0666666666666667,1.45,7867.373519541,7868.412551625,13,7867.43816375,7867.50498175,7868.427389791,7869.870765916,1,1.0390320839997
116,42,3,categorization,0,bathroom,SHINEd_sun_afcoljnjfoxjtgja.tif,20,0.0666666666666667,0.0666666666666667,1.23333333333333,7869.888996916,7870.846516208,9,7869.95612925,7870.021847333,7870.860863916,7872.087578458,0,0.957519292000143
116,43,3,categorization,0,kitchen,SHINEd_sun_abpwyqmlzafvklqo.tif,72,0.0666666666666667,0.0666666666666667,1.26666666666667,7872.105649166,7873.06251625,13,7872.173751375,7872.238782083,7873.077970458,7874.338024208,0,0.956867083999896
116,44,3,categorization,0,kitchen,SHINEd_sun_aymvwlarqodbwuoc.tif,108,0.0666666666666667,0.0666666666666667,1.03333333333333,7874.358175666,7875.141828125,9,7874.42443175,7874.491049708,7875.163547791,7876.190254916,1,0.783652459000223
116,45,3,categorization,0,kitchen,SHINEd_sun_acfmftudsenhrfhy.tif,74,0.0666666666666667,0.0666666666666667,1.31666666666667,7876.207184416,7877.257522708,9,7876.269770583,7876.329914583,7877.265097958,7878.575130583,1,1.05033829199965
116,46,3,categorization,0,kitchen,SHINEd_sun_ahdycvpopffkzzsu.tif,90,0.0666666666666667,0.0666666666666667,1.7,7878.5869815,7879.405617958,13,7878.65305525,7878.719606666,7879.426937833,7881.120312541,0,0.818636458000583
116,47,3,categorization,0,bathroom,SHINEd_sun_aghyqhbptboemmoq.tif,23,0.0666666666666667,0.0666666666666667,1.35,7881.141559208,7882.625273041,13,7881.208903166,7881.271173625,7882.64095275,7883.984319458,1,1.48371383299946
116,48,3,categorization,0,kitchen,SHINEd_sun_aegoxogugdkwpmpj.tif,80,0.0666666666666667,0.0666666666666667,0.8,7883.994573083,7884.929585875,9,7884.0616515,7884.128619208,7884.951418125,7885.744755625,1,0.935012791999725
116,49,3,categorization,0,kitchen,SHINEd_sun_ahywdevtimnqcsln.tif,94,0.0666666666666667,0.0666666666666667,0.766666666666667,7885.7503685,7886.512916625,13,7885.812128416,7885.873056041,7886.525189875,7887.285195333,0,0.762548124999739
116,50,3,categorization,0,bathroom,SHINEd_sun_abjtwfukuwddzted.tif,15,0.0666666666666667,0.0666666666666667,1.38333333333333,7887.290168541,7888.39297825,9,7887.351825375,7887.412822625,7888.398517208,7889.775231,0,1.10280970900021
116,1,4,categorization,0,bathroom,SHINEd_sun_agguqiubmwhqqunb.tif,22,0.0666666666666667,0.0666666666666667,1,7900.666168916,7901.593340625,13,7900.728867625,7900.788902791,7901.607466041,7902.60080425,1,0.927171708999595
116,2,4,categorization,0,kitchen,SHINEd_sun_ahljzhgcdpomplvg.tif,91,0.0666666666666667,0.0666666666666667,0.966666666666667,7902.606544125,7904.024726125,9,7902.668313833,7902.72931275,7904.031939458,7904.991945083,1,1.41818199999943
116,3,4,categorization,0,kitchen,SHINEd_sun_awcpdzzznmweyyhv.tif,106,0.0666666666666667,0.0666666666666667,1.75,7904.996728875,7905.873322625,13,7905.058413375,7905.119455958,7905.88826875,7907.631643791,0,0.876593749999302
116,4,4,categorization,0,bathroom,SHINEd_sun_apjevzvycyhuqghb.tif,43,0.0666666666666667,0.0666666666666667,1.68333333333333,7907.650491291,7908.642952708,13,7907.717071791,7907.783123041,7908.672713541,7910.349414333,1,0.992461416999504
116,5,4,categorization,0,bathroom,SHINEd_sun_ahqjwnzgolcaoidx.tif,29,0.0666666666666667,0.0666666666666667,1.58333333333333,7910.3666805,7911.292436416,13,7910.433364333,7910.499614083,7911.304783291,7912.881494375,1,0.925755915999616
116,6,4,categorization,0,kitchen,SHINEd_sun_akcjzhbbjlbogpdi.tif,99,0.0666666666666667,0.0666666666666667,1,7912.90069275,7913.853283416,9,7912.96759025,7913.033462541,7913.873288,7914.866627125,1,0.952590665999196
116,7,4,categorization,0,bathroom,SHINEd_sun_aunuadmjocsddsrl.tif,52,0.0666666666666667,0.0666666666666667,1.33333333333333,7914.872641791,7915.609659625,13,7914.934436833,7914.995199208,7915.61372225,7916.940434958,1,0.737017833999744
116,8,4,categorization,0,kitchen,SHINEd_sun_aeqdocilnnpuvuhx.tif,83,0.0666666666666667,0.0666666666666667,1.26666666666667,7916.958691,7917.941223208,9,7917.025454958,7917.092253541,7917.965980416,7919.226037125,1,0.982532208000521
116,9,4,categorization,0,bathroom,SHINEd_sun_ahijqszoswveeyji.tif,28,0.0666666666666667,0.0666666666666667,0.883333333333333,7919.234952166,7920.269741291,9,7919.299695625,7919.36750475,7920.290701875,7921.167373208,0,1.03478912500032
116,10,4,categorization,0,bathroom,SHINEd_sun_apmqjbnwghzuhhzh.tif,46,0.0666666666666667,0.0666666666666667,1.26666666666667,7921.173155208,7922.009491166,13,7921.234997375,7921.295886583,7922.014586541,7923.274636375,1,0.836335957999836
116,11,4,categorization,0,kitchen,SHINEd_sun_ajkqhtgcbgpcwrwn.tif,97,0.0666666666666667,0.0666666666666667,2,7923.284957291,7924.7606705,9,7923.349730666,7923.414862875,7924.793382958,7926.786762375,1,1.47571320899988
116,12,4,categorization,0,kitchen,SHINEd_sun_ahspylgoovwmwvgk.tif,93,0.0666666666666667,0.0666666666666667,0.733333333333333,7926.807330458,7927.676870291,13,7926.872280833,7926.935367916,7927.691339125,7928.418010041,0,0.86953983300009
116,13,4,categorization,0,kitchen,SHINEd_sun_agubuxuukhzyzpdp.tif,88,0.0666666666666667,0.0666666666666667,0.883333333333333,7928.423370291,7929.321403916,9,7928.485043958,7928.546153833,7929.331363083,7930.208032916,1,0.898033625000608
116,14,4,categorization,0,bathroom,SHINEd_sun_ajlawzvmubibwbpy.tif,30,0.0666666666666667,0.0666666666666667,0.983333333333333,7930.213125583,7931.121007833,9,7930.274767208,7930.335876541,7931.138486,7932.11515875,0,0.907882249999602
116,15,4,categorization,0,kitchen,SHINEd_sun_admlmbcdswaszruo.tif,79,0.0666666666666667,0.0666666666666667,1.56666666666667,7932.12285975,7933.049158083,13,7932.184625583,7932.245591958,7933.0646095,7934.62473175,0,0.926298332999977
116,16,4,categorization,0,kitchen,SHINEd_sun_afuyedyxivkhecmu.tif,85,0.0666666666666667,0.0666666666666667,1.08333333333333,7934.643011333,7935.443664083,13,7934.709561041,7934.775970625,7935.466565833,7936.5432805,0,0.800652750000154
116,17,4,categorization,0,kitchen,SHINEd_sun_aaxxjlsuzvqlgylf.tif,68,0.0666666666666667,0.0666666666666667,0.75,7936.552716875,7937.297493708,13,7936.617749916,7936.683453166,7937.324006208,7938.067374791,0,0.744776832999378
116,18,4,categorization,0,kitchen,SHINEd_sun_azmutvzbxypaceni.tif,110,0.0666666666666667,0.0666666666666667,0.966666666666667,7938.084854625,7939.064798416,9,7938.151405,7938.217446166,7939.070033208,7940.03003775,1,0.979943790999641
116,19,4,categorization,0,kitchen,SHINEd_sun_ahpczsiumwwocjkv.tif,92,0.0666666666666667,0.0666666666666667,1.63333333333333,7940.035911625,7941.776822166,9,7940.0977075,7940.158594625,7941.794234583,7943.420938375,1,1.74091054099972
116,20,4,categorization,0,bathroom,SHINEd_sun_axyrejkiiaqiurjk.tif,59,0.0666666666666667,0.0666666666666667,1.46666666666667,7943.441522166,7944.670259375,9,7943.508175791,7943.57434975,7944.700680625,7946.16071825,0,1.22873720899952
116,21,4,categorization,0,kitchen,SHINEd_sun_aunzlwrbjumxhwdj.tif,103,0.0666666666666667,0.0666666666666667,0.933333333333333,7946.17843425,7947.683554958,9,7946.245108583,7946.311436666,7947.703519666,7948.630192291,1,1.5051207080005
116,22,4,categorization,0,bathroom,SHINEd_sun_anhioqovhscjqqwb.tif,38,0.0666666666666667,0.0666666666666667,1.45,7948.635213125,7949.336891125,13,7948.697034916,7948.757818541,7949.343059458,7950.786437916,1,0.701678000000356
116,23,4,categorization,0,kitchen,SHINEd_sun_acwjdupvyjsugpay.tif,76,0.0666666666666667,0.0666666666666667,0.966666666666667,7950.804692,7951.693672208,9,7950.871299041,7950.937449708,7951.709651541,7952.669656625,1,0.888980208000248
116,24,4,categorization,0,bathroom,SHINEd_sun_aclfzgynxzxlbepz.tif,19,0.0666666666666667,0.0666666666666667,0.816666666666667,7952.674759125,7954.001249708,13,7952.736558416,7952.797446666,7954.01691775,7954.826922708,1,1.32649058300012
116,25,4,categorization,0,kitchen,SHINEd_sun_auaiucuqpdausiva.tif,102,0.0666666666666667,0.0666666666666667,1.96666666666667,7954.832605708,7955.553042291,9,7954.894282958,7954.955301083,7955.557234916,7957.517294666,1,0.720436582999355
116,26,4,categorization,0,bathroom,SHINEd_sun_anryaplzeujmzfkd.tif,39,0.0666666666666667,0.0666666666666667,0.916666666666667,7957.537391291,7958.56403275,9,7957.604078833,7957.669983041,7958.592979166,7959.502983375,0,1.02664145899962
116,27,4,categorization,0,kitchen,SHINEd_sun_aadbddgrdsjugojn.tif,64,0.0666666666666667,0.0666666666666667,1.28333333333333,7959.507950041,7960.665442041,9,7959.569879958,7959.63063825,7960.683184541,7961.959905458,1,1.15749199999937
116,28,4,categorization,0,kitchen,SHINEd_sun_abrcnpqqhmjwekyf.tif,73,0.0666666666666667,0.0666666666666667,1.8,7961.976884166,7963.003124958,9,7962.043405708,7962.107975625,7963.030838333,7964.824219291,1,1.02624079199995
116,29,4,categorization,0,bathroom,SHINEd_sun_acduarbnmmoglmiv.tif,16,0.0666666666666667,0.0666666666666667,1.33333333333333,7964.842345666,7966.465135625,13,7964.908739083,7964.974788166,7966.477680541,7967.804398541,1,1.62278995899942
116,30,4,categorization,0,kitchen,SHINEd_sun_aixorpehvfykdynp.tif,95,0.0666666666666667,0.0666666666666667,1.06666666666667,7967.821435416,7969.1485915,9,7967.887670833,7967.951759541,7969.179066625,7970.239118541,1,1.32715608400031
116,31,4,categorization,0,kitchen,SHINEd_sun_abdxkyyxwfskuaqb.tif,70,0.0666666666666667,0.0666666666666667,1.03333333333333,7970.250782083,7971.179461416,13,7970.315371875,7970.380125291,7971.203642583,7972.23031575,0,0.928679333000218
116,32,4,categorization,0,kitchen,SHINEd_sun_avszsnwsbuqfgzbn.tif,105,0.0666666666666667,0.0666666666666667,0.733333333333333,7972.236664083,7973.193013083,9,7972.298611416,7972.35941925,7973.211539458,7973.938209458,1,0.956349000000046
116,33,4,categorization,0,kitchen,SHINEd_sun_agorklincwxrdtga.tif,87,0.0666666666666667,0.0666666666666667,0.766666666666667,7973.943191208,7974.737477708,13,7974.004931583,7974.065899041,7974.75163375,7975.511637833,0,0.794286500000453
116,34,4,categorization,0,bathroom,SHINEd_sun_ambriybtogmepttm.tif,36,0.0666666666666667,0.0666666666666667,1.1,7975.517186708,7976.6249365,9,7975.578931958,7975.6399195,7976.642270958,7977.735648333,0,1.1077497920005
116,35,4,categorization,0,bathroom,SHINEd_sun_amzlamotzwfkwjco.tif,37,0.0666666666666667,0.0666666666666667,1.81666666666667,7977.744153208,7978.469936708,13,7977.809071041,7977.875716708,7978.480334791,7980.290393583,1,0.725783500000034
116,36,4,categorization,0,bathroom,SHINEd_sun_ahcvzmoyaycdoftf.tif,27,0.0666666666666667,0.0666666666666667,0.883333333333333,7980.306022833,7981.620030291,9,7980.372619666,7980.438585125,7981.64852775,7982.525198583,0,1.31400745800056
116,37,4,categorization,0,kitchen,SHINEd_sun_akchetnepxlcxhsu.tif,98,0.0666666666666667,0.0666666666666667,1.7,7982.529986625,7983.224661875,13,7982.591769791,7982.652693166,7983.237874458,7984.931265416,0,0.694675249999818
116,38,4,categorization,0,kitchen,SHINEd_sun_agzzivivdpnawacl.tif,89,0.0666666666666667,0.0666666666666667,1.58333333333333,7984.948896,7985.752046625,13,7985.015207,7985.081553583,7985.770839958,7987.34754825,0,0.803150624999944
116,39,4,categorization,0,bathroom,SHINEd_sun_aqrpegblszgcoujh.tif,48,0.0666666666666667,0.0666666666666667,0.833333333333333,7987.366685708,7988.22251975,9,7987.433083,7987.499266208,7988.238134708,7989.064805125,0,0.855834042000424
116,40,4,categorization,0,bathroom,SHINEd_sun_axldvoqbuvuggfmq.tif,57,0.0666666666666667,0.0666666666666667,0.95,7989.070047041,7989.736840875,13,7989.131822666,7989.192754333,7989.744836416,7990.688175041,1,0.666793833999691
116,41,4,categorization,0,kitchen,SHINEd_sun_aehawpgmrlhlvcow.tif,81,0.0666666666666667,0.0666666666666667,1.06666666666667,7990.693115666,7991.817321,9,7990.754877875,7990.815983666,7991.835076125,7992.895132791,1,1.12420533400018
116,42,4,categorization,0,bathroom,SHINEd_sun_agrwbmhcpmfuwmsg.tif,24,0.0666666666666667,0.0666666666666667,1.68333333333333,7992.907601375,7994.20043425,9,7992.972262708,7993.039078708,7994.230938458,7995.907647791,0,1.29283287500039
116,43,4,categorization,0,bathroom,SHINEd_sun_alotolagknyrgtsk.tif,35,0.0666666666666667,0.0666666666666667,1.31666666666667,7995.925209458,7996.833158958,13,7995.992521208,7996.057902416,7996.847278416,7998.157300875,1,0.907949500000541
116,44,4,categorization,0,kitchen,SHINEd_sun_aapllqyqlykszopd.tif,66,0.0666666666666667,0.0666666666666667,1.61666666666667,7998.1685145,7999.149282708,9,7998.2368355,7998.301180875,7999.174411583,8000.784475625,1,0.980768207999972
116,45,4,categorization,0,kitchen,SHINEd_labelme_brsyyvweiuaazfr.tif,61,0.0666666666666667,0.0666666666666667,1.15,8000.8029445,8001.801068625,9,8000.869256291,8000.935382291,8001.825569875,8002.96894675,1,0.998124124999777
116,46,4,categorization,0,bathroom,SHINEd_sun_atstyziqcmkahyxk.tif,51,0.0666666666666667,0.0666666666666667,1.25,8002.977826583,8003.989269,9,8003.044358833,8003.110756458,8004.01723075,8005.260602,0,1.01144241699967
116,47,4,categorization,0,bathroom,SHINEd_sun_ausgutylgojavyoq.tif,53,0.0666666666666667,0.0666666666666667,1.1,8005.269888833,8006.051973875,13,8005.33482575,8005.40216875,8006.075219666,8007.1685655,1,0.78208504200029
116,48,4,categorization,0,bathroom,SHINEd_sun_avhrdrntsqrjzccq.tif,55,0.0666666666666667,0.0666666666666667,0.9,8007.177256291,8008.371484541,13,8007.241876833,8007.308773583,8008.400308,8009.293646291,1,1.19422825000038
116,49,4,categorization,0,bathroom,SHINEd_sun_abapwbhyhkfixyex.tif,14,0.0666666666666667,0.0666666666666667,1.3,8009.29838675,8010.112962041,9,8009.360095666,8009.421083166,8010.123168,8011.416549208,0,0.814575291000438
116,50,4,categorization,0,kitchen,SHINEd_sun_aexklacwqwezaorf.tif,84,0.0666666666666667,0.0666666666666667,1.25,8011.435558083,8012.392125416,13,8011.50182275,8011.568276916,8012.4072055,8013.650591291,0,0.956567333000748
116,1,5,categorization,0,kitchen,SHINEd_sun_auticobqsbwgoppi.tif,104,0.0666666666666667,0.0666666666666667,1.7,8046.118947125,8047.264308333,13,8046.18152475,8046.241990666,8047.277184666,8048.970553458,0,1.14536120800039
116,2,5,categorization,0,bathroom,SHINEd_sun_alotolagknyrgtsk.tif,35,0.0666666666666667,0.0666666666666667,1.81666666666667,8048.98681775,8049.752495541,13,8049.054648125,8049.119930416,8049.776956541,8051.586993125,1,0.765677790999689
116,3,5,categorization,0,kitchen,SHINEd_sun_afuyedyxivkhecmu.tif,85,0.0666666666666667,0.0666666666666667,1.23333333333333,8051.607882375,8052.822203666,13,8051.67451225,8051.74081975,8052.845688,8054.072397708,0,1.21432129099958
116,4,5,categorization,0,bathroom,SHINEd_sun_aofnryafpsjimzsb.tif,40,0.0666666666666667,0.0666666666666667,1.4,8054.090940625,8054.851075541,9,8054.158106583,8054.223412458,8054.88004525,8056.273438583,0,0.760134915999515
116,5,5,categorization,0,kitchen,SHINEd_sun_abdenxonkemggwsq.tif,69,0.0666666666666667,0.0666666666666667,1.03333333333333,8056.290737541,8057.80094,9,8056.356971791,8056.423400541,8057.833095375,8058.859798958,1,1.51020245899963
116,6,5,categorization,0,kitchen,SHINEd_sun_ahpczsiumwwocjkv.tif,92,0.0666666666666667,0.0666666666666667,1.38333333333333,8058.872012583,8059.764656041,9,8058.936829541,8059.00350325,8059.793412333,8061.170121541,1,0.892643458000748
116,7,5,categorization,0,kitchen,SHINEd_sun_aarfiyshqohlwkmo.tif,67,0.0666666666666667,0.0666666666666667,2,8061.185391291,8061.899564958,13,8061.250487458,8061.318276083,8061.924931916,8063.918316083,0,0.714173667000068
116,8,5,categorization,0,bathroom,SHINEd_sun_acduarbnmmoglmiv.tif,16,0.0666666666666667,0.0666666666666667,1.85,8063.937160625,8065.3522485,13,8064.003594875,8064.06952975,8065.371850625,8067.215228416,1,1.41508787500061
116,9,5,categorization,0,kitchen,SHINEd_sun_aunzlwrbjumxhwdj.tif,103,0.0666666666666667,0.0666666666666667,0.816666666666667,8067.228139375,8068.028264333,9,8067.294877791,8067.36100275,8068.050586666,8068.86059175,1,0.800124958000197
116,10,5,categorization,0,bathroom,SHINEd_sun_apynckhmoftszqoq.tif,47,0.0666666666666667,0.0666666666666667,1.85,8068.865665,8070.088464666,9,8068.927352125,8068.988445166,8070.107795166,8071.951180916,0,1.22279966599945
116,11,5,categorization,0,bathroom,SHINEd_sun_ambriybtogmepttm.tif,36,0.0666666666666667,0.0666666666666667,0.733333333333333,8071.969252208,8072.804660041,13,8072.036084916,8072.102170541,8072.825393291,8073.552065916,1,0.835407832999408
116,12,5,categorization,0,kitchen,SHINEd_sun_aypmqwcualkenuoe.tif,109,0.0666666666666667,0.0666666666666667,0.716666666666667,8073.557156333,8074.480692166,9,8073.618930791,8073.679927791,8074.498425708,8075.208429666,1,0.923535832999733
116,13,5,categorization,0,kitchen,SHINEd_sun_aegoxogugdkwpmpj.tif,80,0.0666666666666667,0.0666666666666667,0.833333333333333,8075.21316225,8076.105113833,9,8075.274821333,8075.335962791,8076.12162225,8076.948293333,1,0.891951583000264
116,14,5,categorization,0,bathroom,SHINEd_sun_auzqhkafidnkrwmo.tif,54,0.0666666666666667,0.0666666666666667,0.95,8076.955060208,8077.656669291,13,8077.016704708,8077.07765575,8077.663260416,8078.606597541,1,0.701609083000221
116,15,5,categorization,0,kitchen,SHINEd_sun_acxkpeoqbwcxfvip.tif,77,0.0666666666666667,0.0666666666666667,1.96666666666667,8078.611860458,8079.528668375,9,8078.673646666,8078.73454825,8079.536652541,8081.496708041,1,0.916807917000369
116,16,5,categorization,0,bathroom,SHINEd_sun_agyqfjcfkdcydepw.tif,25,0.0666666666666667,0.0666666666666667,1.86666666666667,8081.511033791,8082.107418708,13,8081.57777775,8081.643555416,8082.133076666,8083.993128875,1,0.59638491700025
116,17,5,categorization,0,bathroom,SHINEd_sun_amzlamotzwfkwjco.tif,37,0.0666666666666667,0.0666666666666667,1.51666666666667,8084.01093975,8085.042033416,13,8084.077614375,8084.143583041,8085.066694833,8086.576730166,1,1.03109366599983
116,18,5,categorization,0,kitchen,SHINEd_sun_acwjdupvyjsugpay.tif,76,0.0666666666666667,0.0666666666666667,1.3,8086.594594916,8087.443681833,9,8086.661321291,8086.727378583,8087.4673705,8088.760753041,1,0.849086917000022
116,19,5,categorization,0,kitchen,SHINEd_sun_adgqasybjyktddhj.tif,78,0.0666666666666667,0.0666666666666667,1.91666666666667,8088.77884375,8089.600001958,13,8088.845696291,8088.911440291,8089.617560166,8091.527618416,0,0.82115820799936
116,20,5,categorization,0,bathroom,SHINEd_sun_asfwthctfqerjvxr.tif,49,0.0666666666666667,0.0666666666666667,1.23333333333333,8091.5458855,8092.321570083,9,8091.612713333,8091.678564875,8092.351760458,8093.578472166,0,0.775684582999929
116,21,5,categorization,0,bathroom,SHINEd_sun_apkxzenqapsujocq.tif,45,0.0666666666666667,0.0666666666666667,0.866666666666667,8093.59693075,8094.733715333,13,8093.663587208,8093.72959975,8094.752643833,8095.612649333,1,1.13678458300001
116,22,5,categorization,0,kitchen,SHINEd_labelme_kxvouciolcpqplr.tif,62,0.0666666666666667,0.0666666666666667,0.8,8095.617277958,8096.568279666,13,8095.679007875,8095.740015083,8096.575596291,8097.368933666,0,0.951001708000149
116,23,5,categorization,0,kitchen,SHINEd_sun_aehawpgmrlhlvcow.tif,81,0.0666666666666667,0.0666666666666667,1.51666666666667,8097.373765666,8098.560037833,9,8097.435471625,8097.496596625,8098.56596575,8100.075999541,1,1.18627216700042
116,24,5,categorization,0,bathroom,SHINEd_sun_ahijqszoswveeyji.tif,28,0.0666666666666667,0.0666666666666667,1.18333333333333,8100.0914075,8101.107033,9,8100.157186708,8100.224309291,8101.130855041,8102.307574541,0,1.01562550000017
116,25,5,categorization,0,bathroom,SHINEd_sun_anryaplzeujmzfkd.tif,39,0.0666666666666667,0.0666666666666667,1.6,8102.3170325,8103.673755041,13,8102.383679791,8102.451081708,8103.69262875,8105.286009083,1,1.35672254099973
116,26,5,categorization,0,kitchen,SHINEd_sun_aapllqyqlykszopd.tif,66,0.0666666666666667,0.0666666666666667,1.56666666666667,8105.295755083,8106.229956416,9,8105.362943916,8105.428594416,8106.25154725,8107.811595458,1,0.934201333000601
116,27,5,categorization,0,bathroom,SHINEd_sun_acegryoqftbzowsg.tif,17,0.0666666666666667,0.0666666666666667,1.36666666666667,8107.82914375,8108.686128041,13,8107.895643166,8107.961844375,8108.700146583,8110.060187708,1,0.856984291000117
116,28,5,categorization,0,kitchen,SHINEd_sun_abdxkyyxwfskuaqb.tif,70,0.0666666666666667,0.0666666666666667,1.53333333333333,8110.07746225,8111.432978541,9,8110.144213,8110.209633541,8111.451052875,8112.97777875,1,1.35551629099973
116,29,5,categorization,0,kitchen,SHINEd_sun_aqeaevwwwjoqhzvl.tif,101,0.0666666666666667,0.0666666666666667,1.4,8112.995105041,8113.817756708,13,8113.061912666,8113.129209583,8113.835358708,8115.22874625,0,0.822651667000173
116,30,5,categorization,0,bathroom,SHINEd_sun_abjtwfukuwddzted.tif,15,0.0666666666666667,0.0666666666666667,1.06666666666667,8115.238734708,8116.580847625,9,8115.303473666,8115.367503375,8116.609740125,8117.669781125,0,1.34211291700012
116,31,5,categorization,0,bathroom,SHINEd_sun_ahcvzmoyaycdoftf.tif,27,0.0666666666666667,0.0666666666666667,1.63333333333333,8117.679902208,8118.536399166,13,8117.74432975,8117.80961275,8118.566275333,8120.192978416,1,0.856496957999298
116,32,5,categorization,0,bathroom,SHINEd_sun_atstyziqcmkahyxk.tif,51,0.0666666666666667,0.0666666666666667,1.8,8120.210869333,8121.249362666,13,8120.277619041,8120.343548833,8121.265192625,8123.058573708,1,1.03849333299968
116,33,5,categorization,0,kitchen,SHINEd_sun_azmutvzbxypaceni.tif,110,0.0666666666666667,0.0666666666666667,1.53333333333333,8123.0748355,8125.224374625,9,8123.141548625,8123.207736875,8125.24377725,8126.7704805,1,2.14953912500005
116,34,5,categorization,0,bathroom,SHINEd_sun_acgyywnybuveqsro.tif,18,0.0666666666666667,0.0666666666666667,0.766666666666667,8126.791188166,8127.787030208,13,8126.857959583,8126.924152666,8127.814001708,8128.574006916,1,0.995842041999822
116,35,5,categorization,0,kitchen,SHINEd_sun_aaxxjlsuzvqlgylf.tif,68,0.0666666666666667,0.0666666666666667,1.86666666666667,8128.579724875,8129.424177,9,8128.641569375,8128.702586333,8129.437850083,8131.297895541,1,0.844452125000316
116,36,5,categorization,0,bathroom,SHINEd_sun_apkruvsevgegsdwp.tif,44,0.0666666666666667,0.0666666666666667,1.13333333333333,8131.308986833,8132.466235666,13,8131.376867125,8131.442091833,8132.482269833,8133.608984875,1,1.15724883300027
116,37,5,categorization,0,bathroom,SHINEd_sun_avhrdrntsqrjzccq.tif,55,0.0666666666666667,0.0666666666666667,1.73333333333333,8133.618949583,8134.806068583,9,8133.684256083,8133.75200525,8134.825851416,8136.552569958,0,1.18711899999926
116,38,5,categorization,0,kitchen,SHINEd_sun_admlmbcdswaszruo.tif,79,0.0666666666666667,0.0666666666666667,0.766666666666667,8136.571126333,8137.427354625,13,8136.639091833,8136.703965916,8137.444431916,8138.204436083,0,0.856228291999287
116,39,5,categorization,0,kitchen,SHINEd_sun_ahdycvpopffkzzsu.tif,90,0.0666666666666667,0.0666666666666667,1.85,8138.209679041,8139.247855666,9,8138.271421791,8138.33244225,8139.267686541,8141.111058791,1,1.03817662500023
116,40,5,categorization,0,bathroom,SHINEd_sun_axldvoqbuvuggfmq.tif,57,0.0666666666666667,0.0666666666666667,0.966666666666667,8141.130089125,8141.935596083,13,8141.197153208,8141.261569125,8141.950903458,8142.9109085,1,0.805506957999569
116,41,5,categorization,0,kitchen,SHINEd_sun_axyyrmzcupyhlivc.tif,107,0.0666666666666667,0.0666666666666667,1.06666666666667,8142.915983041,8143.967882416,9,8142.977726583,8143.038697166,8143.974576416,8145.034626583,1,1.05189937500018
116,42,5,categorization,0,kitchen,SHINEd_sun_aeqdocilnnpuvuhx.tif,83,0.0666666666666667,0.0666666666666667,1.38333333333333,8145.045749291,8146.282985625,9,8145.110536333,8145.177120208,8146.301184791,8147.677897166,1,1.23723633400004
116,43,5,categorization,0,bathroom,SHINEd_sun_aavhrsfjbserjtht.tif,13,0.0666666666666667,0.0666666666666667,0.766666666666667,8147.693322791,8148.785383333,13,8147.760218958,8147.826139833,8148.81610875,8149.576113791,1,1.09206054199967
116,44,5,categorization,0,bathroom,SHINEd_sun_aunuadmjocsddsrl.tif,52,0.0666666666666667,0.0666666666666667,0.866666666666667,8149.580938625,8150.56806625,13,8149.642702791,8149.703829458,8150.572421708,8151.432427125,1,0.98712762499963
116,45,5,categorization,0,kitchen,SHINEd_sun_abftihopvusyfakt.tif,71,0.0666666666666667,0.0666666666666667,1.25,8151.438253333,8152.200796625,9,8151.500021916,8151.5609405,8152.212954958,8153.456336583,1,0.762543292000373
116,46,5,categorization,0,bathroom,SHINEd_sun_akiytfaagpdsphgz.tif,31,0.0666666666666667,0.0666666666666667,1.03333333333333,8153.473346041,8154.134079125,13,8153.5400915,8153.6063685,8154.162970208,8155.189677708,1,0.66073308400064
116,47,5,categorization,0,bathroom,SHINEd_sun_apeeialkgkuxddgh.tif,42,0.0666666666666667,0.0666666666666667,0.783333333333333,8155.206107791,8156.032253333,13,8155.271245458,8155.337506458,8156.040044541,8156.81671525,1,0.826145541999722
116,48,5,categorization,0,kitchen,SHINEd_sun_auaiucuqpdausiva.tif,102,0.0666666666666667,0.0666666666666667,0.7,8156.822044625,8157.944510291,13,8156.883753458,8156.944891041,8157.963623208,8158.656961833,0,1.12246566600061
116,49,5,categorization,0,bathroom,SHINEd_labelme_sfxiulhjbhlyiyt.tif,11,0.0666666666666667,0.0666666666666667,1.75,8158.661401,8159.416349083,13,8158.723123958,8158.7840815,8159.435946833,8161.179314416,1,0.754948082999363
116,50,5,categorization,0,kitchen,SHINEd_sun_abpwyqmlzafvklqo.tif,72,0.0666666666666667,0.0666666666666667,1.36666666666667,8161.197293875,8161.960833208,9,8161.261653375,8161.330064666,8161.98688175,8163.346928916,1,0.763539333000153
116,1,6,categorization,0,bathroom,SHINEd_sun_apmqjbnwghzuhhzh.tif,46,0.0666666666666667,0.0666666666666667,0.966666666666667,8176.678544208,8177.455953041,13,8176.740841041,8176.801417916,8177.469978333,8178.429983041,1,0.777408832999754
116,2,6,categorization,0,kitchen,SHINEd_sun_ajkqhtgcbgpcwrwn.tif,97,0.0666666666666667,0.0666666666666667,1.73333333333333,8178.435019208,8179.543839375,13,8178.49696175,8178.5576995,8179.559513166,8181.286238875,0,1.10882016699998
116,3,6,categorization,0,bathroom,SHINEd_sun_aljolscmmzydegqp.tif,33,0.0666666666666667,0.0666666666666667,1.91666666666667,8181.297950291,8182.504621875,13,8181.367044208,8181.431327875,8182.521695666,8184.431731166,1,1.20667158400011
116,4,6,categorization,0,kitchen,SHINEd_labelme_rykdqxenmhulbdn.tif,63,0.0666666666666667,0.0666666666666667,0.766666666666667,8184.446391,8185.728131541,13,8184.515397833,8184.579679041,8185.732766041,8186.492770083,0,1.28174054099964
116,5,6,categorization,0,bathroom,SHINEd_sun_aspsyogrekjtfozg.tif,50,0.0666666666666667,0.0666666666666667,0.916666666666667,8186.497514333,8187.344369541,9,8186.559355041,8186.6202515,8187.355450708,8188.265454791,0,0.846855207999397
116,6,6,categorization,0,bathroom,SHINEd_sun_alkosphxlxwjwgjd.tif,34,0.0666666666666667,0.0666666666666667,1.18333333333333,8188.27112875,8189.064481333,13,8188.332835041,8188.393806333,8189.079476583,8190.2561915,1,0.793352583000342
116,7,6,categorization,0,kitchen,SHINEd_sun_akcjzhbbjlbogpdi.tif,99,0.0666666666666667,0.0666666666666667,1.8,8190.266718375,8191.148917541,9,8190.333162041,8190.399543625,8191.172568541,8192.965936333,1,0.882199165999737
116,8,6,categorization,0,kitchen,SHINEd_sun_aymvwlarqodbwuoc.tif,108,0.0666666666666667,0.0666666666666667,0.883333333333333,8192.983748166,8194.276858833,9,8193.050438583,8193.116626708,8194.308392541,8195.185062916,1,1.29311066700029
116,9,6,categorization,0,bathroom,SHINEd_sun_aqrpegblszgcoujh.tif,48,0.0666666666666667,0.0666666666666667,1.83333333333333,8195.189704166,8196.456640375,9,8195.251477708,8195.312428375,8196.464373291,8198.291095791,0,1.26693620900005
116,10,6,categorization,0,kitchen,SHINEd_sun_aamedkxepzlwuxes.tif,65,0.0666666666666667,0.0666666666666667,1.76666666666667,8198.308453625,8199.536429958,9,8198.375549,8198.441136333,8199.543727208,8201.303774333,1,1.22797633299888
116,11,6,categorization,0,bathroom,SHINEd_sun_ajlawzvmubibwbpy.tif,30,0.0666666666666667,0.0666666666666667,0.983333333333333,8201.312237583,8202.474726291,9,8201.379095,8201.446398125,8202.501681333,8203.478353583,0,1.16248870799973
116,12,6,categorization,0,bathroom,SHINEd_sun_ahaulkltgpkeeemi.tif,26,0.0666666666666667,0.0666666666666667,0.883333333333333,8203.483233458,8204.207770625,13,8203.545248041,8203.605991666,8204.224820833,8205.10149225,1,0.724537166999653
116,13,6,categorization,0,kitchen,SHINEd_sun_avszsnwsbuqfgzbn.tif,105,0.0666666666666667,0.0666666666666667,0.85,8205.106345333,8205.904069583,9,8205.167985166,8205.229252833,8205.91469175,8206.758029375,1,0.797724250000101
116,14,6,categorization,0,kitchen,SHINEd_sun_ahljzhgcdpomplvg.tif,91,0.0666666666666667,0.0666666666666667,0.733333333333333,8206.762996916,8207.6482455,9,8206.824583833,8206.885657291,8207.654156166,8208.38082825,1,0.885248583999783
116,15,6,categorization,0,bathroom,SHINEd_sun_abapwbhyhkfixyex.tif,14,0.0666666666666667,0.0666666666666667,1.88333333333333,8208.385637625,8209.2002705,9,8208.447342458,8208.508392,8209.210463208,8211.08716375,0,0.814632874999006
116,16,6,categorization,0,kitchen,SHINEd_sun_agubuxuukhzyzpdp.tif,88,0.0666666666666667,0.0666666666666667,0.816666666666667,8211.099253625,8212.239582041,13,8211.1657765,8211.229189458,8212.2693225,8213.079326375,0,1.14032841600056
116,17,6,categorization,0,bathroom,SHINEd_sun_aghyqhbptboemmoq.tif,23,0.0666666666666667,0.0666666666666667,1.9,8213.084144958,8213.800106375,9,8213.145918375,8213.207118083,8213.809160083,8215.702541208,0,0.715961416999562
116,18,6,categorization,0,kitchen,SHINEd_sun_amjjdeyrggfqgmom.tif,100,0.0666666666666667,0.0666666666666667,0.983333333333333,8215.720946791,8216.571070333,9,8215.787926708,8215.853657458,8216.593431958,8217.570102,1,0.850123542000802
116,19,6,categorization,0,bathroom,SHINEd_sun_aoybiabnpadelefl.tif,41,0.0666666666666667,0.0666666666666667,0.75,8217.575118333,8218.656434125,13,8217.636789166,8217.697812,8218.666768041,8219.410105875,1,1.08131579200017
116,20,6,categorization,0,bathroom,SHINEd_sun_apjevzvycyhuqghb.tif,43,0.0666666666666667,0.0666666666666667,1.6,8219.415108833,8220.256490708,9,8219.4769235,8219.537844041,8220.273527291,8221.866893041,0,0.84138187499957
116,21,6,categorization,0,bathroom,SHINEd_sun_aggnnqpdorgxpvce.tif,21,0.0666666666666667,0.0666666666666667,1.58333333333333,8221.884058625,8224.175396916,13,8221.950190833,8222.016645625,8224.186278125,8225.76298325,1,2.29133829099919
116,22,6,categorization,0,bathroom,SHINEd_sun_ausgutylgojavyoq.tif,53,0.0666666666666667,0.0666666666666667,1.11666666666667,8225.780874416,8226.612077625,9,8225.849301458,8225.913672916,8226.636787791,8227.746843958,0,0.831203209001615
116,23,6,categorization,0,kitchen,SHINEd_sun_aenotlpyftoioydp.tif,82,0.0666666666666667,0.0666666666666667,1.53333333333333,8227.757047625,8228.648465625,9,8227.822102625,8227.889697125,8228.662106541,8230.188822625,1,0.891417999999248
116,24,6,categorization,0,kitchen,SHINEd_sun_aexklacwqwezaorf.tif,84,0.0666666666666667,0.0666666666666667,1.48333333333333,8230.206526375,8231.009370291,13,8230.272864625,8230.339283291,8231.028860333,8232.505574375,0,0.802843916000711
116,25,6,categorization,0,bathroom,SHINEd_sun_aapitsgbtktqubfy.tif,12,0.0666666666666667,0.0666666666666667,1.1,8232.52159975,8233.577185625,13,8232.588033,8232.654307791,8233.592212166,8234.685604333,1,1.05558587499945
116,26,6,categorization,0,kitchen,SHINEd_sun_akchetnepxlcxhsu.tif,98,0.0666666666666667,0.0666666666666667,0.933333333333333,8234.694654791,8235.583289125,9,8234.759137291,8234.827750625,8235.599280458,8236.526005583,1,0.888634334000017
116,27,6,categorization,0,kitchen,SHINEd_sun_agzzivivdpnawacl.tif,89,0.0666666666666667,0.0666666666666667,0.816666666666667,8236.5414415,8237.512240541,9,8236.608304708,8236.665724583,8237.517615791,8238.327619208,1,0.970799041000646
116,28,6,categorization,0,bathroom,SHINEd_sun_aleqenyvunhactkl.tif,32,0.0666666666666667,0.0666666666666667,1.78333333333333,8238.332661083,8239.272157375,13,8238.394459458,8238.455355333,8239.290579375,8241.067298083,1,0.939496291999603
116,29,6,categorization,0,bathroom,SHINEd_sun_awnqiikzaispgmwo.tif,56,0.0666666666666667,0.0666666666666667,0.766666666666667,8241.08366225,8242.751910958,13,8241.152141583,8241.216473208,8242.769248,8243.529252083,1,1.66824870800156
116,30,6,categorization,0,kitchen,SHINEd_sun_agorklincwxrdtga.tif,87,0.0666666666666667,0.0666666666666667,1.45,8243.53428425,8244.575621291,9,8243.5960525,8243.657255375,8244.59244525,8246.035823,1,1.04133704100059
116,31,6,categorization,0,bathroom,SHINEd_sun_agguqiubmwhqqunb.tif,22,0.0666666666666667,0.0666666666666667,0.75,8246.053166916,8247.282739958,13,8246.1200865,8246.1861745,8247.30802875,8248.051367166,1,1.22957304200099
116,32,6,categorization,0,kitchen,SHINEd_sun_acgtpgfybqjmzeyw.tif,75,0.0666666666666667,0.0666666666666667,1.36666666666667,8248.056141041,8249.000175791,9,8248.117997333,8248.178767958,8249.013967333,8250.37400775,1,0.944034750000355
116,33,6,categorization,0,kitchen,SHINEd_sun_aggjlwcdjsjcaemh.tif,86,0.0666666666666667,0.0666666666666667,0.75,8250.391805875,8251.200551625,9,8250.458305083,8250.524504333,8251.2289375,8251.972319583,1,0.808745749998707
116,34,6,categorization,0,kitchen,SHINEd_sun_abrcnpqqhmjwekyf.tif,73,0.0666666666666667,0.0666666666666667,0.783333333333333,8251.989192125,8252.9598825,9,8252.056150166,8252.1140955,8252.966594416,8253.743265291,1,0.970690374999322
116,35,6,categorization,0,kitchen,SHINEd_sun_ahywdevtimnqcsln.tif,94,0.0666666666666667,0.0666666666666667,1.11666666666667,8253.74819725,8254.680122791,9,8253.809994666,8253.871141416,8254.690057541,8255.800104666,1,0.931925540999146
116,36,6,categorization,0,bathroom,SHINEd_sun_aclfzgynxzxlbepz.tif,19,0.0666666666666667,0.0666666666666667,0.766666666666667,8255.808973083,8256.865192166,13,8255.873596958,8255.941900125,8256.881189166,8257.641244958,1,1.05621908300054
116,37,6,categorization,0,kitchen,SHINEd_sun_awcpdzzznmweyyhv.tif,106,0.0666666666666667,0.0666666666666667,0.716666666666667,8257.657401958,8259.30404425,9,8257.72366075,8257.783483166,8259.319152791,8260.029157958,1,1.64664229200025
116,38,6,categorization,0,kitchen,SHINEd_sun_aixorpehvfykdynp.tif,95,0.0666666666666667,0.0666666666666667,1.33333333333333,8260.033779791,8261.448331583,9,8260.095630958,8260.156523125,8261.458722291,8262.785424791,1,1.41455179200057
116,39,6,categorization,0,bathroom,SHINEd_sun_afcoljnjfoxjtgja.tif,20,0.0666666666666667,0.0666666666666667,1.75,8262.803656166,8263.656928458,9,8262.869801,8262.936188708,8263.675708458,8265.419089458,0,0.853272292000838
116,40,6,categorization,0,bathroom,SHINEd_sun_azqyogdvyhahyram.tif,60,0.0666666666666667,0.0666666666666667,1.13333333333333,8265.440102916,8266.183449833,13,8265.50654425,8265.570868083,8266.211163041,8267.33788,1,0.743346917000963
116,41,6,categorization,0,bathroom,SHINEd_sun_axyrejkiiaqiurjk.tif,59,0.0666666666666667,0.0666666666666667,1.63333333333333,8267.346906333,8268.337143291,9,8267.411617291,8267.479475791,8268.351799041,8269.978516041,0,0.990236958001333
116,42,6,categorization,0,kitchen,SHINEd_sun_aadbddgrdsjugojn.tif,64,0.0666666666666667,0.0666666666666667,1.43333333333333,8269.996955166,8271.38684625,9,8270.063540958,8270.129670958,8271.404934958,8272.831647083,1,1.38989108399983
116,43,6,categorization,0,bathroom,SHINEd_sun_axxbkopsgyouuebh.tif,58,0.0666666666666667,0.0666666666666667,1.83333333333333,8272.847547666,8273.677506083,13,8272.915209375,8272.980273833,8273.70365775,8275.530361958,1,0.829958416999943
116,44,6,categorization,0,kitchen,SHINEd_labelme_brsyyvweiuaazfr.tif,61,0.0666666666666667,0.0666666666666667,1.93333333333333,8275.549619833,8276.39951475,9,8275.616152291,8275.682502583,8276.422400625,8278.349125791,1,0.849894917000711
116,45,6,categorization,0,bathroom,SHINEd_sun_anhioqovhscjqqwb.tif,38,0.0666666666666667,0.0666666666666667,1.26666666666667,8278.366884041,8279.266841416,13,8278.433553166,8278.499433833,8279.287868833,8280.547908125,1,0.899957375000668
116,46,6,categorization,0,bathroom,SHINEd_sun_ahqjwnzgolcaoidx.tif,29,0.0666666666666667,0.0666666666666667,1.86666666666667,8280.564714875,8281.483966916,9,8280.631486916,8280.697328166,8281.503870791,8283.363909625,0,0.919252040999709
116,47,6,categorization,0,kitchen,SHINEd_sun_ajcbwwvdlsvjyzje.tif,96,0.0666666666666667,0.0666666666666667,1.41666666666667,8283.383536625,8284.204690375,13,8283.450120375,8283.515962041,8284.221131875,8285.63118825,0,0.821153749999212
116,48,6,categorization,0,bathroom,SHINEd_sun_agrwbmhcpmfuwmsg.tif,24,0.0666666666666667,0.0666666666666667,1.11666666666667,8285.64457775,8286.540066208,9,8285.711310083,8285.777441541,8286.567500583,8287.677538541,0,0.895488457999818
116,49,6,categorization,0,kitchen,SHINEd_sun_ahspylgoovwmwvgk.tif,93,0.0666666666666667,0.0666666666666667,1.8,8287.687453916,8288.610083708,9,8287.752098458,8287.820417625,8288.626513458,8290.419895166,1,0.922629791999498
116,50,6,categorization,0,kitchen,SHINEd_sun_acfmftudsenhrfhy.tif,74,0.0666666666666667,0.0666666666666667,1.25,8290.439027458,8291.776536541,9,8290.505802875,8290.571783458,8291.791319958,8293.034686333,1,1.33750908299953
116,1,7,categorization,0,kitchen,SHINEd_sun_agzzivivdpnawacl.tif,89,0.0666666666666667,0.0666666666666667,0.883333333333333,8300.01244075,8301.663934916,9,8300.074907333,8300.135200375,8301.670879875,8302.547551416,1,1.65149416599888
116,2,7,categorization,0,kitchen,SHINEd_sun_aapllqyqlykszopd.tif,66,0.0666666666666667,0.0666666666666667,1.03333333333333,8302.554172208,8303.760094333,13,8302.615919,8302.676902125,8303.779717833,8304.80643675,0,1.20592212500014
116,3,7,categorization,0,bathroom,SHINEd_labelme_sfxiulhjbhlyiyt.tif,11,0.0666666666666667,0.0666666666666667,1.06666666666667,8304.8178705,8305.643181541,9,8304.881855166,8304.949571458,8305.672816458,8306.7328585,0,0.825311041000532
116,4,7,categorization,0,bathroom,SHINEd_sun_axldvoqbuvuggfmq.tif,57,0.0666666666666667,0.0666666666666667,0.833333333333333,8306.751878875,8307.991442333,13,8306.818517708,8306.884411375,8308.003957166,8308.830628458,1,1.23956345799888
116,5,7,categorization,0,kitchen,SHINEd_sun_aggjlwcdjsjcaemh.tif,86,0.0666666666666667,0.0666666666666667,0.716666666666667,8308.835186541,8309.8553785,13,8308.896978916,8308.957884583,8309.860202416,8310.570207916,0,1.02019195899993
116,6,7,categorization,0,kitchen,SHINEd_sun_akchetnepxlcxhsu.tif,98,0.0666666666666667,0.0666666666666667,0.733333333333333,8310.574918583,8311.519306958,13,8310.636687125,8310.697618125,8311.532805291,8312.259477291,0,0.944388374999107
116,7,7,categorization,0,kitchen,SHINEd_sun_aegoxogugdkwpmpj.tif,80,0.0666666666666667,0.0666666666666667,1.38333333333333,8312.264333583,8313.511245416,13,8312.326140083,8312.387066166,8313.522637125,8314.899347083,0,1.24691183300092
116,8,7,categorization,0,bathroom,SHINEd_sun_awnqiikzaispgmwo.tif,56,0.0666666666666667,0.0666666666666667,0.9,8314.917208166,8315.827571083,9,8314.983750416,8315.050434875,8315.857224791,8316.750562041,0,0.910362917000384
116,9,7,categorization,0,bathroom,SHINEd_sun_axyrejkiiaqiurjk.tif,59,0.0666666666666667,0.0666666666666667,0.816666666666667,8316.755723291,8317.655996916,9,8316.81740075,8316.878539,8317.66380975,8318.47381325,0,0.900273625000409
116,10,7,categorization,0,kitchen,SHINEd_sun_aixorpehvfykdynp.tif,95,0.0666666666666667,0.0666666666666667,0.85,8318.479121125,8322.606965875,9,8318.540797458,8318.602095625,8322.621580708,8323.464920041,1,4.1278447500008
116,11,7,categorization,0,kitchen,SHINEd_labelme_rykdqxenmhulbdn.tif,63,0.0666666666666667,0.0666666666666667,1.6,8323.470283958,8325.319528291,13,8323.532098041,8323.593065,8325.3291435,8326.922521666,0,1.84924433299966
116,12,7,categorization,0,kitchen,SHINEd_sun_ajkqhtgcbgpcwrwn.tif,97,0.0666666666666667,0.0666666666666667,1.75,8326.934992458,8327.962579875,13,8326.998916333,8327.067216791,8327.990830375,8329.734209916,0,1.02758741700018
116,13,7,categorization,0,kitchen,SHINEd_sun_ajcbwwvdlsvjyzje.tif,96,0.0666666666666667,0.0666666666666667,1.1,8329.752788625,8330.729027833,13,8329.821289125,8329.885513916,8330.740681375,8331.834057791,0,0.976239207999242
116,14,7,categorization,0,bathroom,SHINEd_sun_agguqiubmwhqqunb.tif,22,0.0666666666666667,0.0666666666666667,1.46666666666667,8331.84356,8332.619878083,9,8331.908433833,8331.976340291,8332.649786708,8334.109820708,0,0.77631808300066
116,15,7,categorization,0,kitchen,SHINEd_sun_abdxkyyxwfskuaqb.tif,70,0.0666666666666667,0.0666666666666667,1.25,8334.129722916,8334.899689333,13,8334.196406291,8334.262329875,8334.91923925,8336.162620916,0,0.769966416999523
116,16,7,categorization,0,kitchen,SHINEd_sun_abftihopvusyfakt.tif,71,0.0666666666666667,0.0666666666666667,1.13333333333333,8336.182215333,8336.980124666,9,8336.249370333,8336.314895166,8337.004967208,8338.131677583,1,0.797909333001371
116,17,7,categorization,0,kitchen,SHINEd_sun_amjjdeyrggfqgmom.tif,100,0.0666666666666667,0.0666666666666667,1.33333333333333,8338.150170458,8339.014813541,9,8338.216753666,8338.2822185,8339.038809166,8340.365515791,1,0.864643082999464
116,18,7,categorization,0,kitchen,SHINEd_sun_abpwyqmlzafvklqo.tif,72,0.0666666666666667,0.0666666666666667,1.86666666666667,8340.379522625,8341.097410708,9,8340.448015208,8340.5122145,8341.118798083,8342.9788365,1,0.717888082999707
116,19,7,categorization,0,kitchen,SHINEd_sun_azmutvzbxypaceni.tif,110,0.0666666666666667,0.0666666666666667,1.58333333333333,8342.997860458,8344.010337666,9,8343.064696375,8343.130701708,8344.037570583,8345.614297458,1,1.01247720800166
116,20,7,categorization,0,bathroom,SHINEd_sun_aavhrsfjbserjtht.tif,13,0.0666666666666667,0.0666666666666667,1.05,8345.632646875,8346.777530708,9,8345.699358791,8345.76532025,8346.805856083,8347.849221541,0,1.14488383299977
116,21,7,categorization,0,kitchen,SHINEd_sun_auticobqsbwgoppi.tif,104,0.0666666666666667,0.0666666666666667,0.9,8347.859347791,8351.85192775,13,8347.924520625,8347.990491416,8351.868640625,8352.761978291,0,3.99257995900007
116,22,7,categorization,0,bathroom,SHINEd_sun_anryaplzeujmzfkd.tif,39,0.0666666666666667,0.0666666666666667,0.7,8352.76647,8353.775958041,13,8352.828212125,8352.889317458,8353.791217791,8354.484555833,1,1.00948804099971
116,23,7,categorization,0,bathroom,SHINEd_sun_alkosphxlxwjwgjd.tif,34,0.0666666666666667,0.0666666666666667,0.933333333333333,8354.4897425,8356.039486958,9,8354.551631291,8354.612366083,8356.048198958,8356.974869541,0,1.54974445799962
116,24,7,categorization,0,bathroom,SHINEd_sun_agrwbmhcpmfuwmsg.tif,24,0.0666666666666667,0.0666666666666667,1.95,8356.97991,8357.831314833,9,8357.041697291,8357.102562083,8357.837972708,8359.781342708,0,0.851404832999833
116,25,7,categorization,0,kitchen,SHINEd_sun_ahljzhgcdpomplvg.tif,91,0.0666666666666667,0.0666666666666667,1.06666666666667,8359.800717291,8360.899539416,9,8359.866989958,8359.933269375,8360.921752041,8361.981793583,1,1.09882212499906
116,26,7,categorization,0,bathroom,SHINEd_sun_auzqhkafidnkrwmo.tif,54,0.0666666666666667,0.0666666666666667,1.2,8361.991960666,8362.964953708,13,8362.057482875,8362.123266625,8362.97860475,8364.171971625,1,0.972993041999871
116,27,7,categorization,0,kitchen,SHINEd_sun_aeqdocilnnpuvuhx.tif,83,0.0666666666666667,0.0666666666666667,0.75,8364.189343375,8365.00561575,9,8364.256054333,8364.322204666,8365.028768166,8365.77215075,1,0.816272375001063
116,28,7,categorization,0,kitchen,SHINEd_sun_agubuxuukhzyzpdp.tif,88,0.0666666666666667,0.0666666666666667,0.816666666666667,8365.788755125,8366.654813416,9,8365.855295,8365.9216645,8366.674284125,8367.484289416,1,0.866058290999717
116,29,7,categorization,0,bathroom,SHINEd_sun_acgyywnybuveqsro.tif,18,0.0666666666666667,0.0666666666666667,1.96666666666667,8367.489342375,8368.479537166,13,8367.550999791,8367.612019875,8368.49769725,8370.457730666,1,0.990194791000249
116,30,7,categorization,0,kitchen,SHINEd_sun_acwjdupvyjsugpay.tif,76,0.0666666666666667,0.0666666666666667,1.2,8370.470898791,8372.055576625,13,8370.537430541,8370.603640916,8372.073097916,8373.266466375,0,1.5846778340001
116,31,7,categorization,0,bathroom,SHINEd_sun_alotolagknyrgtsk.tif,35,0.0666666666666667,0.0666666666666667,0.883333333333333,8373.275532875,8374.137124125,9,8373.34193225,8373.4096635,8374.166149083,8375.04285325,0,0.861591249999037
116,32,7,categorization,0,kitchen,SHINEd_sun_aymvwlarqodbwuoc.tif,108,0.0666666666666667,0.0666666666666667,1.33333333333333,8375.058489125,8376.103112291,9,8375.124310458,8375.182616083,8376.118376166,8377.445087875,1,1.04462316600075
116,33,7,categorization,0,kitchen,SHINEd_sun_abrcnpqqhmjwekyf.tif,73,0.0666666666666667,0.0666666666666667,1.45,8377.462183958,8378.319101416,9,8377.528971166,8377.596057791,8378.334968208,8379.778338916,1,0.85691745800068
116,34,7,categorization,0,kitchen,SHINEd_labelme_kxvouciolcpqplr.tif,62,0.0666666666666667,0.0666666666666667,1.15,8379.7941135,8380.613233666,9,8379.860852291,8379.926642166,8380.632571708,8381.775961958,1,0.819120165999266
116,35,7,categorization,0,kitchen,SHINEd_sun_aaxxjlsuzvqlgylf.tif,68,0.0666666666666667,0.0666666666666667,0.966666666666667,8381.786559416,8382.634713791,9,8381.85143375,8381.919173,8382.658865958,8383.618916625,1,0.848154375000377
116,36,7,categorization,0,bathroom,SHINEd_sun_agyqfjcfkdcydepw.tif,25,0.0666666666666667,0.0666666666666667,1.45,8383.635049416,8384.663316041,13,8383.69987275,8383.759212958,8384.677925083,8386.121312291,1,1.02826662500047
116,37,7,categorization,0,bathroom,SHINEd_sun_ahqjwnzgolcaoidx.tif,29,0.0666666666666667,0.0666666666666667,0.8,8386.13797275,8387.071783833,9,8386.204934708,8386.27039375,8387.09340925,8387.886746625,0,0.933811082999455
116,38,7,categorization,0,kitchen,SHINEd_sun_ahywdevtimnqcsln.tif,94,0.0666666666666667,0.0666666666666667,1.45,8387.892261458,8388.91133075,9,8387.954056625,8388.014965041,8388.91673675,8390.36010825,1,1.01906929199868
116,39,7,categorization,0,kitchen,SHINEd_sun_ahdycvpopffkzzsu.tif,90,0.0666666666666667,0.0666666666666667,1.1,8390.377778333,8391.336550708,13,8390.444728666,8390.510395958,8391.366538708,8392.459930875,0,0.958772374999171
116,40,7,categorization,0,bathroom,SHINEd_sun_aghyqhbptboemmoq.tif,23,0.0666666666666667,0.0666666666666667,1.16666666666667,8392.471215333,8393.378525,13,8392.536003375,8392.603941583,8393.393069333,8394.553106541,1,0.907309666999936
116,41,7,categorization,0,kitchen,SHINEd_sun_afuyedyxivkhecmu.tif,85,0.0666666666666667,0.0666666666666667,1.31666666666667,8394.571862041,8395.932025708,13,8394.638454625,8394.704536333,8395.963618041,8397.273663958,0,1.36016366699914
116,42,7,categorization,0,kitchen,SHINEd_sun_axyyrmzcupyhlivc.tif,107,0.0666666666666667,0.0666666666666667,1.68333333333333,8397.28337625,8398.284891625,9,8397.349953875,8397.4159595,8398.305640791,8399.982356333,1,1.00151537500096
116,43,7,categorization,0,bathroom,SHINEd_sun_aggnnqpdorgxpvce.tif,21,0.0666666666666667,0.0666666666666667,0.966666666666667,8400.000093791,8401.599754458,9,8400.067172958,8400.132672208,8401.618890083,8402.578894458,0,1.59966066699963
116,44,7,categorization,0,bathroom,SHINEd_sun_amzlamotzwfkwjco.tif,37,0.0666666666666667,0.0666666666666667,1.4,8402.584146416,8403.447359041,13,8402.645890333,8402.7067805,8403.458518333,8404.851909291,1,0.863212624999505
116,45,7,categorization,0,kitchen,SHINEd_sun_aarfiyshqohlwkmo.tif,67,0.0666666666666667,0.0666666666666667,0.783333333333333,8404.871785041,8405.906194458,13,8404.938341708,8405.004320416,8405.927621916,8406.70429525,0,1.03440941700137
116,46,7,categorization,0,kitchen,SHINEd_sun_aamedkxepzlwuxes.tif,65,0.0666666666666667,0.0666666666666667,1.08333333333333,8406.709914333,8407.727472875,13,8406.771651875,8406.832640625,8407.7345165,8408.811222583,0,1.01755854200019
116,47,7,categorization,0,bathroom,SHINEd_sun_aapitsgbtktqubfy.tif,12,0.0666666666666667,0.0666666666666667,1.43333333333333,8408.821887291,8409.900370708,13,8408.886468791,8408.954595541,8409.927654583,8411.354372458,1,1.07848341699901
116,48,7,categorization,0,bathroom,SHINEd_sun_aqrpegblszgcoujh.tif,48,0.0666666666666667,0.0666666666666667,1.75,8411.372246458,8412.129410833,9,8411.438911875,8411.505175458,8412.144054375,8413.887434541,0,0.757164374999775
116,49,7,categorization,0,kitchen,SHINEd_sun_aadbddgrdsjugojn.tif,64,0.0666666666666667,0.0666666666666667,1.21666666666667,8413.904876916,8414.916330333,9,8413.971630583,8414.037342791,8414.944007208,8416.154065125,1,1.01145341700067
116,50,7,categorization,0,bathroom,SHINEd_sun_aljolscmmzydegqp.tif,33,0.0666666666666667,0.0666666666666667,1.31666666666667,8416.1731205,8417.534460208,9,8416.239728375,8416.305899583,8417.565116625,8418.875174875,0,1.36133970800074
116,1,8,categorization,0,bathroom,SHINEd_sun_abapwbhyhkfixyex.tif,14,0.0666666666666667,0.0666666666666667,1.18333333333333,8433.342113208,8434.590720333,13,8433.404719791,8433.464929875,8434.600739916,8435.777464583,1,1.24860712500049
116,2,8,categorization,0,kitchen,SHINEd_sun_ahspylgoovwmwvgk.tif,93,0.0666666666666667,0.0666666666666667,0.983333333333333,8435.787517375,8436.597246625,9,8435.854072708,8435.920435416,8436.626718291,8437.603419583,1,0.809729250000601
116,3,8,categorization,0,bathroom,SHINEd_sun_aclfzgynxzxlbepz.tif,19,0.0666666666666667,0.0666666666666667,1.65,8437.617184,8438.527366125,13,8437.67916475,8437.739957458,8438.541773541,8440.18515875,1,0.910182124998755
116,4,8,categorization,0,kitchen,SHINEd_sun_auaiucuqpdausiva.tif,102,0.0666666666666667,0.0666666666666667,1.23333333333333,8440.204848375,8441.617704625,13,8440.271512208,8440.337662083,8441.644917083,8442.871623,0,1.41285624999909
116,5,8,categorization,0,kitchen,SHINEd_labelme_brsyyvweiuaazfr.tif,61,0.0666666666666667,0.0666666666666667,0.916666666666667,8442.889223583,8444.342668208,9,8442.955865,8443.022292083,8444.365512833,8445.275516833,1,1.45344462499997
116,6,8,categorization,0,bathroom,SHINEd_sun_axxbkopsgyouuebh.tif,58,0.0666666666666667,0.0666666666666667,1.56666666666667,8445.280624041,8446.158718083,13,8445.342331,8445.403190583,8446.172109083,8447.732150958,1,0.878094042000157
116,7,8,categorization,0,bathroom,SHINEd_sun_asfwthctfqerjvxr.tif,49,0.0666666666666667,0.0666666666666667,1.63333333333333,8447.749590458,8449.359476708,13,8447.816388083,8447.8821715,8449.368048916,8450.994759916,1,1.60988625000027
116,8,8,categorization,0,kitchen,SHINEd_sun_aqeaevwwwjoqhzvl.tif,101,0.0666666666666667,0.0666666666666667,1.1,8451.013175916,8451.827383458,9,8451.080928208,8451.145818291,8451.852259125,8452.945630583,1,0.814207542000077
116,9,8,categorization,0,bathroom,SHINEd_sun_ahcvzmoyaycdoftf.tif,27,0.0666666666666667,0.0666666666666667,1.38333333333333,8452.955130458,8454.004621708,9,8453.019793083,8453.087808541,8454.027408333,8455.4041215,0,1.04949124999985
116,10,8,categorization,0,bathroom,SHINEd_sun_apmqjbnwghzuhhzh.tif,46,0.0666666666666667,0.0666666666666667,0.766666666666667,8455.422856791,8456.168821708,13,8455.489477875,8455.555853833,8456.195616583,8456.955658458,1,0.745964917001402
116,11,8,categorization,0,kitchen,SHINEd_sun_avszsnwsbuqfgzbn.tif,105,0.0666666666666667,0.0666666666666667,1.45,8456.971897916,8458.58294025,13,8457.03852325,8457.104750458,8458.590417,8460.033780833,0,1.61104233399965
116,12,8,categorization,0,bathroom,SHINEd_sun_ajlawzvmubibwbpy.tif,30,0.0666666666666667,0.0666666666666667,0.983333333333333,8460.05132,8461.108199541,13,8460.118827916,8460.18408525,8461.123232583,8462.099905791,1,1.05687954099994
116,13,8,categorization,0,bathroom,SHINEd_sun_azqyogdvyhahyram.tif,60,0.0666666666666667,0.0666666666666667,0.716666666666667,8462.105770625,8462.871321291,13,8462.167670625,8462.228488208,8462.880570583,8463.590574458,1,0.765550666001218
116,14,8,categorization,0,bathroom,SHINEd_sun_ahijqszoswveeyji.tif,28,0.0666666666666667,0.0666666666666667,1.41666666666667,8463.595479375,8464.686582333,13,8463.65707575,8463.718148041,8464.70376575,8466.113804166,1,1.09110295800019
116,15,8,categorization,0,kitchen,SHINEd_sun_aenotlpyftoioydp.tif,82,0.0666666666666667,0.0666666666666667,1.21666666666667,8466.130298083,8466.855743291,9,8466.196727083,8466.263442916,8466.869181458,8468.079217375,1,0.725445207999655
116,16,8,categorization,0,bathroom,SHINEd_sun_atstyziqcmkahyxk.tif,51,0.0666666666666667,0.0666666666666667,1.61666666666667,8468.097556458,8468.940663541,13,8468.16432225,8468.230154375,8468.9699755,8470.580020208,1,0.843107082999268
116,17,8,categorization,0,kitchen,SHINEd_sun_acfmftudsenhrfhy.tif,74,0.0666666666666667,0.0666666666666667,0.783333333333333,8470.599552541,8471.724024708,9,8470.666054166,8470.731863791,8471.73776825,8472.514439625,1,1.12447216700093
116,18,8,categorization,0,kitchen,SHINEd_sun_admlmbcdswaszruo.tif,79,0.0666666666666667,0.0666666666666667,1.98333333333333,8472.519921291,8473.615011333,13,8472.581673333,8472.642683541,8473.628170166,8475.604869,0,1.09509004200117
116,19,8,categorization,0,kitchen,SHINEd_sun_aunzlwrbjumxhwdj.tif,103,0.0666666666666667,0.0666666666666667,0.983333333333333,8475.622946208,8476.460764875,9,8475.689561875,8475.755518083,8476.478303208,8477.4549755,1,0.837818667001557
116,20,8,categorization,0,kitchen,SHINEd_sun_aehawpgmrlhlvcow.tif,81,0.0666666666666667,0.0666666666666667,0.8,8477.45982375,8479.102608916,9,8477.521539125,8477.582502,8479.118285916,8479.911624333,1,1.64278516600098
116,21,8,categorization,0,kitchen,SHINEd_sun_akcjzhbbjlbogpdi.tif,99,0.0666666666666667,0.0666666666666667,0.733333333333333,8479.917288958,8481.054439125,9,8479.978997625,8480.040090208,8481.059080875,8481.785752666,1,1.13715016700007
116,22,8,categorization,0,bathroom,SHINEd_sun_aleqenyvunhactkl.tif,32,0.0666666666666667,0.0666666666666667,0.966666666666667,8481.790790916,8482.790709125,13,8481.852429125,8481.913562625,8482.798975291,8483.758979666,1,0.999918208999588
116,23,8,categorization,0,bathroom,SHINEd_sun_aunuadmjocsddsrl.tif,52,0.0666666666666667,0.0666666666666667,0.866666666666667,8483.764161,8484.814707208,9,8483.825943166,8483.886834958,8484.822197,8485.682204041,0,1.05054620800001
116,24,8,categorization,0,kitchen,SHINEd_sun_aypmqwcualkenuoe.tif,109,0.0666666666666667,0.0666666666666667,1.23333333333333,8485.687196791,8486.446535666,13,8485.748919,8485.809885416,8486.46226825,8487.688988916,0,0.759338875001049
116,25,8,categorization,0,bathroom,SHINEd_sun_ausgutylgojavyoq.tif,53,0.0666666666666667,0.0666666666666667,1.9,8487.706397541,8488.606190041,13,8487.773178875,8487.8394795,8488.629343291,8490.522709125,1,0.899792500000331
116,26,8,categorization,0,kitchen,SHINEd_sun_agorklincwxrdtga.tif,87,0.0666666666666667,0.0666666666666667,0.866666666666667,8490.540098541,8491.323247166,9,8490.606727125,8490.67285,8491.346306416,8492.206311916,1,0.78314862499974
116,27,8,categorization,0,bathroom,SHINEd_sun_aofnryafpsjimzsb.tif,40,0.0666666666666667,0.0666666666666667,0.966666666666667,8492.21146325,8493.103424333,9,8492.2731935,8492.334258958,8493.119970958,8494.079974583,0,0.891961082999842
116,28,8,categorization,0,bathroom,SHINEd_sun_apkruvsevgegsdwp.tif,44,0.0666666666666667,0.0666666666666667,0.916666666666667,8494.086403833,8495.158825,9,8494.148138333,8494.209154083,8495.178451958,8496.088457416,0,1.07242116700036
116,29,8,categorization,0,kitchen,SHINEd_sun_acgtpgfybqjmzeyw.tif,75,0.0666666666666667,0.0666666666666667,0.916666666666667,8496.093301166,8496.919433416,9,8496.155220458,8496.215990416,8496.934815375,8497.844819416,1,0.826132250000228
116,30,8,categorization,0,bathroom,SHINEd_sun_afcoljnjfoxjtgja.tif,20,0.0666666666666667,0.0666666666666667,1.4,8497.850044875,8498.71845075,9,8497.911785333,8497.972742791,8498.724608708,8500.117981041,0,0.868405875000462
116,31,8,categorization,0,kitchen,SHINEd_sun_adgqasybjyktddhj.tif,78,0.0666666666666667,0.0666666666666667,1.75,8500.135798333,8501.196767083,9,8500.202605416,8500.268531208,8501.22415725,8502.96754925,1,1.06096875000003
116,32,8,categorization,0,bathroom,SHINEd_sun_apkxzenqapsujocq.tif,45,0.0666666666666667,0.0666666666666667,1.25,8502.982680458,8503.783717125,13,8503.050577541,8503.11531275,8503.805011875,8505.048399375,1,0.801036666998698
116,33,8,categorization,0,bathroom,SHINEd_sun_acegryoqftbzowsg.tif,17,0.0666666666666667,0.0666666666666667,1.05,8505.066600208,8506.148146958,13,8505.132971708,8505.199045416,8506.172568791,8507.215951791,1,1.08154674999969
116,34,8,categorization,0,kitchen,SHINEd_sun_aexklacwqwezaorf.tif,84,0.0666666666666667,0.0666666666666667,1.06666666666667,8507.223553166,8508.39558675,13,8507.287933416,8507.354639541,8508.410448291,8509.470485625,0,1.17203358400002
116,35,8,categorization,0,bathroom,SHINEd_sun_anhioqovhscjqqwb.tif,38,0.0666666666666667,0.0666666666666667,1.21666666666667,8509.481717333,8510.5662195,13,8509.547563375,8509.613059958,8510.586987833,8511.797044625,1,1.08450216700112
116,36,8,categorization,0,bathroom,SHINEd_sun_acduarbnmmoglmiv.tif,16,0.0666666666666667,0.0666666666666667,0.95,8511.815391208,8512.535729375,9,8511.883488583,8511.943994458,8512.54974775,8513.493120416,0,0.720338167000591
116,37,8,categorization,0,bathroom,SHINEd_sun_aoybiabnpadelefl.tif,41,0.0666666666666667,0.0666666666666667,0.9,8513.509285416,8515.006274208,13,8513.576016625,8513.64195525,8515.011518541,8515.904857375,1,1.4969887920015
116,38,8,categorization,0,bathroom,SHINEd_sun_apynckhmoftszqoq.tif,47,0.0666666666666667,0.0666666666666667,1.78333333333333,8515.910041125,8516.966709458,13,8515.971846208,8516.032680333,8516.985206291,8518.761930666,1,1.05666833299983
116,39,8,categorization,0,bathroom,SHINEd_sun_apeeialkgkuxddgh.tif,42,0.0666666666666667,0.0666666666666667,1.16666666666667,8518.7773315,8519.889159541,13,8518.843854791,8518.909754583,8519.916373083,8521.0764245,1,1.11182804100099
116,40,8,categorization,0,bathroom,SHINEd_sun_abjtwfukuwddzted.tif,15,0.0666666666666667,0.0666666666666667,0.783333333333333,8521.087280458,8522.380526375,13,8521.1539235,8521.220331125,8522.413219125,8523.189892041,1,1.2932459170006
116,41,8,categorization,0,bathroom,SHINEd_sun_apjevzvycyhuqghb.tif,43,0.0666666666666667,0.0666666666666667,1.23333333333333,8523.195333708,8524.054718166,9,8523.25715175,8523.318094041,8524.069776666,8525.296490625,0,0.859384458000932
116,42,8,categorization,0,bathroom,SHINEd_sun_ambriybtogmepttm.tif,36,0.0666666666666667,0.0666666666666667,0.9,8525.3068095,8526.494927166,9,8525.373470791,8525.43944475,8526.512381583,8527.405719875,0,1.18811766600084
116,43,8,categorization,0,kitchen,SHINEd_sun_ahpczsiumwwocjkv.tif,92,0.0666666666666667,0.0666666666666667,0.7,8527.410497083,8528.854795625,9,8527.472343166,8527.533151541,8528.868950166,8529.562287125,1,1.44429854200098
116,44,8,categorization,0,bathroom,SHINEd_sun_ahaulkltgpkeeemi.tif,26,0.0666666666666667,0.0666666666666667,1.23333333333333,8529.566831708,8530.52719825,9,8529.62863975,8529.689541291,8530.541745833,8531.768451083,0,0.960366541999974
116,45,8,categorization,0,bathroom,SHINEd_sun_aspsyogrekjtfozg.tif,50,0.0666666666666667,0.0666666666666667,1,8531.788531208,8532.828612541,13,8531.8546095,8531.9212835,8532.843716,8533.837055791,1,1.04008133299976
116,46,8,categorization,0,bathroom,SHINEd_sun_avhrdrntsqrjzccq.tif,55,0.0666666666666667,0.0666666666666667,1.38333333333333,8533.8428275,8534.702865583,9,8533.904538833,8533.965585416,8534.717978875,8536.094692416,0,0.860038082999381
116,47,8,categorization,0,bathroom,SHINEd_sun_akiytfaagpdsphgz.tif,31,0.0666666666666667,0.0666666666666667,1.3,8536.112107916,8537.219770583,13,8536.179934583,8536.244980416,8537.232959,8538.52633175,1,1.10766266700011
116,48,8,categorization,0,kitchen,SHINEd_sun_abdenxonkemggwsq.tif,69,0.0666666666666667,0.0666666666666667,0.833333333333333,8538.542957708,8539.393150916,9,8538.609713666,8538.675667208,8539.415064416,8540.241773208,1,0.850193207999837
116,49,8,categorization,0,kitchen,SHINEd_sun_awcpdzzznmweyyhv.tif,106,0.0666666666666667,0.0666666666666667,0.95,8540.258102583,8541.366259875,9,8540.3244295,8540.382349208,8541.384152875,8542.327490541,1,1.10815729199931
116,50,8,categorization,0,kitchen,SHINEd_sun_acxkpeoqbwcxfvip.tif,77,0.0666666666666667,0.0666666666666667,1.43333333333333,8542.332036875,8543.327097291,9,8542.393938625,8542.454735791,8543.339952958,8544.766664583,1,0.995060416000342
116,1,9,categorization,0,bathroom,SHINEd_sun_aspsyogrekjtfozg.tif,50,0.0666666666666667,0.0666666666666667,1.08333333333333,8553.382456125,8555.038630625,9,8553.445049833,8553.505173916,8555.057833958,8556.134541125,0,1.65617449999991
116,2,9,categorization,0,kitchen,SHINEd_sun_abftihopvusyfakt.tif,71,0.0666666666666667,0.0666666666666667,0.8,8556.144647,8557.428901,9,8556.209527,8556.2772765,8557.453988041,8558.247326833,1,1.28425400000015
116,3,9,categorization,0,kitchen,SHINEd_sun_ahdycvpopffkzzsu.tif,90,0.0666666666666667,0.0666666666666667,0.833333333333333,8558.252873791,8559.078397083,13,8558.314608958,8558.375624166,8559.094350458,8559.921024208,0,0.825523292000071
116,4,9,categorization,0,bathroom,SHINEd_sun_atstyziqcmkahyxk.tif,51,0.0666666666666667,0.0666666666666667,1.45,8559.926811375,8560.750176333,9,8559.9886125,8560.049441708,8560.768406208,8562.211782916,0,0.823364957999729
116,5,9,categorization,0,bathroom,SHINEd_sun_acgyywnybuveqsro.tif,18,0.0666666666666667,0.0666666666666667,1.3,8562.229846625,8563.21613425,13,8562.296363458,8562.36264275,8563.234158875,8564.52754275,1,0.986287625000841
116,6,9,categorization,0,bathroom,SHINEd_sun_alkosphxlxwjwgjd.tif,34,0.0666666666666667,0.0666666666666667,1.21666666666667,8564.544909416,8565.612480625,13,8564.61160275,8564.677530583,8565.634323166,8566.84437375,1,1.06757120900147
116,7,9,categorization,0,kitchen,SHINEd_sun_avszsnwsbuqfgzbn.tif,105,0.0666666666666667,0.0666666666666667,0.733333333333333,8566.861888958,8567.666640916,9,8566.928588791,8566.994787291,8567.684122916,8568.410834083,1,0.804751958001361
116,8,9,categorization,0,kitchen,SHINEd_sun_auaiucuqpdausiva.tif,102,0.0666666666666667,0.0666666666666667,1.03333333333333,8568.427949916,8569.623138958,9,8568.494327125,8568.559501125,8569.628444625,8570.655146625,1,1.19518904200049
116,9,9,categorization,0,kitchen,SHINEd_sun_akcjzhbbjlbogpdi.tif,99,0.0666666666666667,0.0666666666666667,1.1,8570.666620666,8571.799312666,9,8570.731300791,8570.797614041,8571.82060475,8572.913995625,1,1.13269200000104
116,10,9,categorization,0,kitchen,SHINEd_sun_awcpdzzznmweyyhv.tif,106,0.0666666666666667,0.0666666666666667,1.25,8572.921407958,8574.073592416,13,8572.985578166,8573.053917833,8574.093943083,8575.337332541,0,1.15218445800019
116,11,9,categorization,0,bathroom,SHINEd_sun_aavhrsfjbserjtht.tif,13,0.0666666666666667,0.0666666666666667,1.4,8575.350510083,8576.362922541,9,8575.41731975,8575.483380083,8576.390195125,8577.783586041,0,1.01241245799974
116,12,9,categorization,0,kitchen,SHINEd_sun_aexklacwqwezaorf.tif,84,0.0666666666666667,0.0666666666666667,1.43333333333333,8577.801799291,8579.088324958,13,8577.8686615,8577.934693583,8579.110369041,8580.537095833,0,1.2865256669993
116,13,9,categorization,0,kitchen,SHINEd_sun_amjjdeyrggfqgmom.tif,100,0.0666666666666667,0.0666666666666667,1.26666666666667,8580.555429375,8581.310341083,9,8580.622523458,8580.68855925,8581.327385875,8582.587433208,1,0.7549117080016
