sub_num,trial,block,task,is_practice,category,image,texture,duration,mask_dur,jitter,stim_time,time_of_resp,trial_response,mask_time,fix_time,jit_onset,trial_end,trial_accuracy,RT
116,1,4,categorization,0,bathroom,SHINEd_sun_agguqiubmwhqqunb.tif,22,0.0666666666666667,0.0666666666666667,1,7900.666168916,7901.593340625,13,7900.728867625,7900.788902791,7901.607466041,7902.60080425,1,0.927171708999595
116,2,4,categorization,0,kitchen,SHINEd_sun_ahljzhgcdpomplvg.tif,91,0.0666666666666667,0.0666666666666667,0.966666666666667,7902.606544125,7904.024726125,9,7902.668313833,7902.72931275,7904.031939458,7904.991945083,1,1.41818199999943
116,3,4,categorization,0,kitchen,SHINEd_sun_awcpdzzznmweyyhv.tif,106,0.0666666666666667,0.0666666666666667,1.75,7904.996728875,7905.873322625,13,7905.058413375,7905.119455958,7905.88826875,7907.631643791,0,0.876593749999302
116,4,4,categorization,0,bathroom,SHINEd_sun_apjevzvycyhuqghb.tif,43,0.0666666666666667,0.0666666666666667,1.68333333333333,7907.650491291,7908.642952708,13,7907.717071791,7907.783123041,7908.672713541,7910.349414333,1,0.992461416999504
116,5,4,categorization,0,bathroom,SHINEd_sun_ahqjwnzgolcaoidx.tif,29,0.0666666666666667,0.0666666666666667,1.58333333333333,7910.3666805,7911.292436416,13,7910.433364333,7910.499614083,7911.304783291,7912.881494375,1,0.925755915999616
116,6,4,categorization,0,kitchen,SHINEd_sun_akcjzhbbjlbogpdi.tif,99,0.0666666666666667,0.0666666666666667,1,7912.90069275,7913.853283416,9,7912.96759025,7913.033462541,7913.873288,7914.866627125,1,0.952590665999196
116,7,4,categorization,0,bathroom,SHINEd_sun_aunuadmjocsddsrl.tif,52,0.0666666666666667,0.0666666666666667,1.33333333333333,7914.872641791,7915.609659625,13,7914.934436833,7914.995199208,7915.61372225,7916.940434958,1,0.737017833999744
116,8,4,categorization,0,kitchen,SHINEd_sun_aeqdocilnnpuvuhx.tif,83,0.0666666666666667,0.0666666666666667,1.26666666666667,7916.958691,7917.941223208,9,7917.025454958,7917.092253541,7917.965980416,7919.226037125,1,0.982532208000521
116,9,4,categorization,0,bathroom,SHINEd_sun_ahijqszoswveeyji.tif,28,0.0666666666666667,0.0666666666666667,0.883333333333333,7919.234952166,7920.269741291,9,7919.299695625,7919.36750475,7920.290701875,7921.167373208,0,1.03478912500032
116,10,4,categorization,0,bathroom,SHINEd_sun_apmqjbnwghzuhhzh.tif,46,0.0666666666666667,0.0666666666666667,1.26666666666667,7921.173155208,7922.009491166,13,7921.234997375,7921.295886583,7922.014586541,7923.274636375,1,0.836335957999836
116,11,4,categorization,0,kitchen,SHINEd_sun_ajkqhtgcbgpcwrwn.tif,97,0.0666666666666667,0.0666666666666667,2,7923.284957291,7924.7606705,9,7923.349730666,7923.414862875,7924.793382958,7926.786762375,1,1.47571320899988
116,12,4,categorization,0,kitchen,SHINEd_sun_ahspylgoovwmwvgk.tif,93,0.0666666666666667,0.0666666666666667,0.733333333333333,7926.807330458,7927.676870291,13,7926.872280833,7926.935367916,7927.691339125,7928.418010041,0,0.86953983300009
116,13,4,categorization,0,kitchen,SHINEd_sun_agubuxuukhzyzpdp.tif,88,0.0666666666666667,0.0666666666666667,0.883333333333333,7928.423370291,7929.321403916,9,7928.485043958,7928.546153833,7929.331363083,7930.208032916,1,0.898033625000608
116,14,4,categorization,0,bathroom,SHINEd_sun_ajlawzvmubibwbpy.tif,30,0.0666666666666667,0.0666666666666667,0.983333333333333,7930.213125583,7931.121007833,9,7930.274767208,7930.335876541,7931.138486,7932.11515875,0,0.907882249999602
116,15,4,categorization,0,kitchen,SHINEd_sun_admlmbcdswaszruo.tif,79,0.0666666666666667,0.0666666666666667,1.56666666666667,7932.12285975,7933.049158083,13,7932.184625583,7932.245591958,7933.0646095,7934.62473175,0,0.926298332999977
116,16,4,categorization,0,kitchen,SHINEd_sun_afuyedyxivkhecmu.tif,85,0.0666666666666667,0.0666666666666667,1.08333333333333,7934.643011333,7935.443664083,13,7934.709561041,7934.775970625,7935.466565833,7936.5432805,0,0.800652750000154
116,17,4,categorization,0,kitchen,SHINEd_sun_aaxxjlsuzvqlgylf.tif,68,0.0666666666666667,0.0666666666666667,0.75,7936.552716875,7937.297493708,13,7936.617749916,7936.683453166,7937.324006208,7938.067374791,0,0.744776832999378
116,18,4,categorization,0,kitchen,SHINEd_sun_azmutvzbxypaceni.tif,110,0.0666666666666667,0.0666666666666667,0.966666666666667,7938.084854625,7939.064798416,9,7938.151405,7938.217446166,7939.070033208,7940.03003775,1,0.979943790999641
116,19,4,categorization,0,kitchen,SHINEd_sun_ahpczsiumwwocjkv.tif,92,0.0666666666666667,0.0666666666666667,1.63333333333333,7940.035911625,7941.776822166,9,7940.0977075,7940.158594625,7941.794234583,7943.420938375,1,1.74091054099972
116,20,4,categorization,0,bathroom,SHINEd_sun_axyrejkiiaqiurjk.tif,59,0.0666666666666667,0.0666666666666667,1.46666666666667,7943.441522166,7944.670259375,9,7943.508175791,7943.57434975,7944.700680625,7946.16071825,0,1.22873720899952
116,21,4,categorization,0,kitchen,SHINEd_sun_aunzlwrbjumxhwdj.tif,103,0.0666666666666667,0.0666666666666667,0.933333333333333,7946.17843425,7947.683554958,9,7946.245108583,7946.311436666,7947.703519666,7948.630192291,1,1.5051207080005
116,22,4,categorization,0,bathroom,SHINEd_sun_anhioqovhscjqqwb.tif,38,0.0666666666666667,0.0666666666666667,1.45,7948.635213125,7949.336891125,13,7948.697034916,7948.757818541,7949.343059458,7950.786437916,1,0.701678000000356
116,23,4,categorization,0,kitchen,SHINEd_sun_acwjdupvyjsugpay.tif,76,0.0666666666666667,0.0666666666666667,0.966666666666667,7950.804692,7951.693672208,9,7950.871299041,7950.937449708,7951.709651541,7952.669656625,1,0.888980208000248
116,24,4,categorization,0,bathroom,SHINEd_sun_aclfzgynxzxlbepz.tif,19,0.0666666666666667,0.0666666666666667,0.816666666666667,7952.674759125,7954.001249708,13,7952.736558416,7952.797446666,7954.01691775,7954.826922708,1,1.32649058300012
116,25,4,categorization,0,kitchen,SHINEd_sun_auaiucuqpdausiva.tif,102,0.0666666666666667,0.0666666666666667,1.96666666666667,7954.832605708,7955.553042291,9,7954.894282958,7954.955301083,7955.557234916,7957.517294666,1,0.720436582999355
116,26,4,categorization,0,bathroom,SHINEd_sun_anryaplzeujmzfkd.tif,39,0.0666666666666667,0.0666666666666667,0.916666666666667,7957.537391291,7958.56403275,9,7957.604078833,7957.669983041,7958.592979166,7959.502983375,0,1.02664145899962
116,27,4,categorization,0,kitchen,SHINEd_sun_aadbddgrdsjugojn.tif,64,0.0666666666666667,0.0666666666666667,1.28333333333333,7959.507950041,7960.665442041,9,7959.569879958,7959.63063825,7960.683184541,7961.959905458,1,1.15749199999937
116,28,4,categorization,0,kitchen,SHINEd_sun_abrcnpqqhmjwekyf.tif,73,0.0666666666666667,0.0666666666666667,1.8,7961.976884166,7963.003124958,9,7962.043405708,7962.107975625,7963.030838333,7964.824219291,1,1.02624079199995
116,29,4,categorization,0,bathroom,SHINEd_sun_acduarbnmmoglmiv.tif,16,0.0666666666666667,0.0666666666666667,1.33333333333333,7964.842345666,7966.465135625,13,7964.908739083,7964.974788166,7966.477680541,7967.804398541,1,1.62278995899942
116,30,4,categorization,0,kitchen,SHINEd_sun_aixorpehvfykdynp.tif,95,0.0666666666666667,0.0666666666666667,1.06666666666667,7967.821435416,7969.1485915,9,7967.887670833,7967.951759541,7969.179066625,7970.239118541,1,1.32715608400031
116,31,4,categorization,0,kitchen,SHINEd_sun_abdxkyyxwfskuaqb.tif,70,0.0666666666666667,0.0666666666666667,1.03333333333333,7970.250782083,7971.179461416,13,7970.315371875,7970.380125291,7971.203642583,7972.23031575,0,0.928679333000218
116,32,4,categorization,0,kitchen,SHINEd_sun_avszsnwsbuqfgzbn.tif,105,0.0666666666666667,0.0666666666666667,0.733333333333333,7972.236664083,7973.193013083,9,7972.298611416,7972.35941925,7973.211539458,7973.938209458,1,0.956349000000046
116,33,4,categorization,0,kitchen,SHINEd_sun_agorklincwxrdtga.tif,87,0.0666666666666667,0.0666666666666667,0.766666666666667,7973.943191208,7974.737477708,13,7974.004931583,7974.065899041,7974.75163375,7975.511637833,0,0.794286500000453
116,34,4,categorization,0,bathroom,SHINEd_sun_ambriybtogmepttm.tif,36,0.0666666666666667,0.0666666666666667,1.1,7975.517186708,7976.6249365,9,7975.578931958,7975.6399195,7976.642270958,7977.735648333,0,1.1077497920005
116,35,4,categorization,0,bathroom,SHINEd_sun_amzlamotzwfkwjco.tif,37,0.0666666666666667,0.0666666666666667,1.81666666666667,7977.744153208,7978.469936708,13,7977.809071041,7977.875716708,7978.480334791,7980.290393583,1,0.725783500000034
116,36,4,categorization,0,bathroom,SHINEd_sun_ahcvzmoyaycdoftf.tif,27,0.0666666666666667,0.0666666666666667,0.883333333333333,7980.306022833,7981.620030291,9,7980.372619666,7980.438585125,7981.64852775,7982.525198583,0,1.31400745800056
116,37,4,categorization,0,kitchen,SHINEd_sun_akchetnepxlcxhsu.tif,98,0.0666666666666667,0.0666666666666667,1.7,7982.529986625,7983.224661875,13,7982.591769791,7982.652693166,7983.237874458,7984.931265416,0,0.694675249999818
116,38,4,categorization,0,kitchen,SHINEd_sun_agzzivivdpnawacl.tif,89,0.0666666666666667,0.0666666666666667,1.58333333333333,7984.948896,7985.752046625,13,7985.015207,7985.081553583,7985.770839958,7987.34754825,0,0.803150624999944
116,39,4,categorization,0,bathroom,SHINEd_sun_aqrpegblszgcoujh.tif,48,0.0666666666666667,0.0666666666666667,0.833333333333333,7987.366685708,7988.22251975,9,7987.433083,7987.499266208,7988.238134708,7989.064805125,0,0.855834042000424
116,40,4,categorization,0,bathroom,SHINEd_sun_axldvoqbuvuggfmq.tif,57,0.0666666666666667,0.0666666666666667,0.95,7989.070047041,7989.736840875,13,7989.131822666,7989.192754333,7989.744836416,7990.688175041,1,0.666793833999691
116,41,4,categorization,0,kitchen,SHINEd_sun_aehawpgmrlhlvcow.tif,81,0.0666666666666667,0.0666666666666667,1.06666666666667,7990.693115666,7991.817321,9,7990.754877875,7990.815983666,7991.835076125,7992.895132791,1,1.12420533400018
116,42,4,categorization,0,bathroom,SHINEd_sun_agrwbmhcpmfuwmsg.tif,24,0.0666666666666667,0.0666666666666667,1.68333333333333,7992.907601375,7994.20043425,9,7992.972262708,7993.039078708,7994.230938458,7995.907647791,0,1.29283287500039
116,43,4,categorization,0,bathroom,SHINEd_sun_alotolagknyrgtsk.tif,35,0.0666666666666667,0.0666666666666667,1.31666666666667,7995.925209458,7996.833158958,13,7995.992521208,7996.057902416,7996.847278416,7998.157300875,1,0.907949500000541
116,44,4,categorization,0,kitchen,SHINEd_sun_aapllqyqlykszopd.tif,66,0.0666666666666667,0.0666666666666667,1.61666666666667,7998.1685145,7999.149282708,9,7998.2368355,7998.301180875,7999.174411583,8000.784475625,1,0.980768207999972
116,45,4,categorization,0,kitchen,SHINEd_labelme_brsyyvweiuaazfr.tif,61,0.0666666666666667,0.0666666666666667,1.15,8000.8029445,8001.801068625,9,8000.869256291,8000.935382291,8001.825569875,8002.96894675,1,0.998124124999777
116,46,4,categorization,0,bathroom,SHINEd_sun_atstyziqcmkahyxk.tif,51,0.0666666666666667,0.0666666666666667,1.25,8002.977826583,8003.989269,9,8003.044358833,8003.110756458,8004.01723075,8005.260602,0,1.01144241699967
116,47,4,categorization,0,bathroom,SHINEd_sun_ausgutylgojavyoq.tif,53,0.0666666666666667,0.0666666666666667,1.1,8005.269888833,8006.051973875,13,8005.33482575,8005.40216875,8006.075219666,8007.1685655,1,0.78208504200029
116,48,4,categorization,0,bathroom,SHINEd_sun_avhrdrntsqrjzccq.tif,55,0.0666666666666667,0.0666666666666667,0.9,8007.177256291,8008.371484541,13,8007.241876833,8007.308773583,8008.400308,8009.293646291,1,1.19422825000038
116,49,4,categorization,0,bathroom,SHINEd_sun_abapwbhyhkfixyex.tif,14,0.0666666666666667,0.0666666666666667,1.3,8009.29838675,8010.112962041,9,8009.360095666,8009.421083166,8010.123168,8011.416549208,0,0.814575291000438
116,50,4,categorization,0,kitchen,SHINEd_sun_aexklacwqwezaorf.tif,84,0.0666666666666667,0.0666666666666667,1.25,8011.435558083,8012.392125416,13,8011.50182275,8011.568276916,8012.4072055,8013.650591291,0,0.956567333000748
