sub_num,trial,block,task,is_practice,category,image,texture,duration,mask_dur,jitter,stim_time,time_of_resp,trial_response,mask_time,fix_time,jit_onset,trial_end,trial_accuracy,RT
110,6,0,complexity,1,kitchen,kitchen_practice5.tif,230,1.5,0,1.46666666666667,4566.048510417,4569.409546792,2,NaN,4569.415412042,4569.433692208,4570.893771167,NaN,NaN
110,7,0,complexity,1,kitchen,kitchen_practice2.tif,227,1.5,0,1.31666666666667,4570.907401625,4575.265994417,7,NaN,4575.271803542,4575.29001325,4576.600104792,NaN,NaN
110,8,0,complexity,1,kitchen,kitchen_practice4.tif,229,1.5,0,1.76666666666667,4576.613405542,4579.041975708,5,NaN,4579.060023875,4579.078439208,4580.838466583,NaN,NaN
110,9,0,complexity,1,kitchen,kitchen_practice1.tif,226,1.5,0,0.816666666666667,4580.850522625,4584.050906042,5,NaN,4584.080730292,4584.104556542,4584.914564583,NaN,NaN
110,10,0,complexity,1,kitchen,kitchen_practice3.tif,228,1.5,0,0.9,4584.919553333,4587.978051042,3,NaN,4588.008989083,4588.030330375,4588.923671667,NaN,NaN
110,1,1,complexity,0,kitchen,sun_avszsnwsbuqfgzbn.tif,215,1.5,0,1.15,4593.732041958,4596.286978208,6,NaN,4596.337931625,4596.361335875,4597.504735125,NaN,NaN
110,2,1,complexity,0,kitchen,sun_ahpczsiumwwocjkv.tif,202,1.5,0,1.33333333333333,4597.515479208,4599.804356625,4,NaN,4599.820875167,4599.839072375,4601.165796458,NaN,NaN
110,3,1,complexity,0,kitchen,sun_aeqdocilnnpuvuhx.tif,193,1.5,0,1.75,4601.184749875,4604.348503333,3,NaN,4604.357932792,4604.376349875,4606.119766792,NaN,NaN
110,4,1,complexity,0,kitchen,sun_ahywdevtimnqcsln.tif,204,1.5,0,1.2,4606.143322333,4610.433373542,3,NaN,4610.438955625,4610.457226417,4611.650615917,NaN,NaN
110,5,1,complexity,0,kitchen,sun_aqeaevwwwjoqhzvl.tif,211,1.5,0,1.46666666666667,4611.6625845,4614.437699,6,NaN,4614.454325,4614.472844458,4615.932893333,NaN,NaN
110,6,1,complexity,0,kitchen,sun_aehawpgmrlhlvcow.tif,191,1.5,0,1.01666666666667,4615.948378542,4618.854670958,4,NaN,4618.864440083,4618.882827625,4619.892896083,NaN,NaN
110,7,1,complexity,0,kitchen,sun_agorklincwxrdtga.tif,197,1.5,0,1.18333333333333,4619.901001375,4622.77806275,4,NaN,4622.783603833,4622.801907083,4623.978595917,NaN,NaN
110,8,1,complexity,0,kitchen,sun_agzzivivdpnawacl.tif,199,1.5,0,1.03333333333333,4623.990055333,4626.521187042,3,NaN,4626.537369208,4626.555920417,4627.582653,NaN,NaN
110,9,1,complexity,0,kitchen,sun_acfmftudsenhrfhy.tif,184,1.5,0,1.25,4627.590565958,4630.768806333,2,NaN,4630.774929167,4630.793424792,4632.036844958,NaN,NaN
110,10,1,complexity,0,kitchen,sun_aarfiyshqohlwkmo.tif,177,1.5,0,0.733333333333333,4632.048141458,4639.09194975,2,NaN,4639.10969925,4639.1281495,4639.854825042,NaN,NaN
110,11,1,complexity,0,kitchen,labelme_rykdqxenmhulbdn.tif,173,1.5,0,1.01666666666667,4639.870888,4642.998946625,1,NaN,4643.017203167,4643.035744208,4644.04579475,NaN,NaN
110,12,1,complexity,0,kitchen,sun_aexklacwqwezaorf.tif,194,1.5,0,1.53333333333333,4644.054112083,4646.334890333,5,NaN,4646.35425275,4646.372555542,4647.899272833,NaN,NaN
110,13,1,complexity,0,kitchen,sun_aunzlwrbjumxhwdj.tif,213,1.5,0,1.33333333333333,4647.915391333,4650.908055542,2,NaN,4650.917919125,4650.936429292,4652.263165417,NaN,NaN
110,14,1,complexity,0,kitchen,sun_ahljzhgcdpomplvg.tif,201,1.5,0,1.53333333333333,4652.276610292,4655.2626135,4,NaN,4655.273744875,4655.292195708,4656.818934417,NaN,NaN
110,15,1,complexity,0,kitchen,labelme_kxvouciolcpqplr.tif,172,1.5,0,1.01666666666667,4656.832768625,4659.428560708,3,NaN,4659.439484958,4659.457804708,4660.467871833,NaN,NaN
110,16,1,complexity,0,kitchen,sun_awcpdzzznmweyyhv.tif,216,1.5,0,1.23333333333333,4660.477685125,4664.668795292,6,NaN,4664.687498708,4664.705695417,4665.9324225,NaN,NaN
110,17,1,complexity,0,kitchen,sun_aaxxjlsuzvqlgylf.tif,178,1.5,0,1.18333333333333,4665.946987542,4669.272159833,4,NaN,4669.281956458,4669.300338375,4670.477028458,NaN,NaN
110,18,1,complexity,0,kitchen,sun_aamedkxepzlwuxes.tif,175,1.5,0,0.783333333333333,4670.485214458,4675.384682375,2,NaN,4675.394296667,4675.412775917,4676.189450125,NaN,NaN
110,19,1,complexity,0,kitchen,sun_ajcbwwvdlsvjyzje.tif,206,1.5,0,1.73333333333333,4676.203896,4679.114519458,4,NaN,4679.168187417,4679.1920205,4680.918764458,NaN,NaN
110,20,1,complexity,0,kitchen,sun_azmutvzbxypaceni.tif,220,1.5,0,1.21666666666667,4680.937855375,4683.50596925,2,NaN,4683.553517458,4683.576768208,4684.786851917,NaN,NaN
110,21,1,complexity,0,kitchen,sun_acxkpeoqbwcxfvip.tif,187,1.5,0,1.26666666666667,4684.798329292,4687.338235833,5,NaN,4687.3479855,4687.366289083,4688.626340792,NaN,NaN
110,22,1,complexity,0,kitchen,sun_aggjlwcdjsjcaemh.tif,196,1.5,0,0.783333333333333,4688.643800667,4691.659977667,2,NaN,4691.669942583,4691.688231875,4692.464905417,NaN,NaN
110,23,1,complexity,0,kitchen,sun_aadbddgrdsjugojn.tif,174,1.5,0,1.48333333333333,4692.469449042,4694.872315833,2,NaN,4694.925271208,4694.949131125,4696.425849083,NaN,NaN
110,24,1,complexity,0,kitchen,sun_acwjdupvyjsugpay.tif,186,1.5,0,1.36666666666667,4696.443309458,4698.870110583,1,NaN,4698.879679333,4698.898053333,4700.25810975,NaN,NaN
110,25,1,complexity,0,kitchen,sun_auticobqsbwgoppi.tif,214,1.5,0,0.983333333333333,4700.276752917,4703.098426625,2,NaN,4703.110654292,4703.129041292,4704.105717083,NaN,NaN
110,1,2,complexity,0,kitchen,sun_aixorpehvfykdynp.tif,205,1.5,0,1.26666666666667,4708.963927833,4712.040418208,2,NaN,4712.056893625,4712.075387458,4713.335455625,NaN,NaN
110,2,2,complexity,0,kitchen,sun_aypmqwcualkenuoe.tif,219,1.5,0,1.11666666666667,4713.351230917,4715.757954,2,NaN,4715.767122833,4715.78554725,4716.895629333,NaN,NaN
110,3,2,complexity,0,kitchen,sun_aymvwlarqodbwuoc.tif,218,1.5,0,1.43333333333333,4716.906189,4720.120465625,4,NaN,4720.130309333,4720.148914042,4721.575667208,NaN,NaN
110,4,2,complexity,0,kitchen,sun_amjjdeyrggfqgmom.tif,210,1.5,0,0.8,4721.593518375,4724.496831083,3,NaN,4724.502814917,4724.52124725,4725.314588292,NaN,NaN
110,5,2,complexity,0,kitchen,sun_akcjzhbbjlbogpdi.tif,209,1.5,0,0.733333333333333,4725.3188845,4728.317576167,3,NaN,4728.344848333,4728.366010958,4729.092685292,NaN,NaN
110,6,2,complexity,0,kitchen,sun_abdxkyyxwfskuaqb.tif,180,1.5,0,1.03333333333333,4729.0972625,4731.916832833,2,NaN,4731.972463375,4731.996049708,4733.022782417,NaN,NaN
110,7,2,complexity,0,kitchen,sun_acgtpgfybqjmzeyw.tif,185,1.5,0,1.56666666666667,4733.037689583,4736.041509,2,NaN,4736.058910167,4736.077201292,4737.63722325,NaN,NaN
110,8,2,complexity,0,kitchen,sun_ahdycvpopffkzzsu.tif,200,1.5,0,0.866666666666667,4737.646593708,4740.376434917,2,NaN,4740.3857335,4740.405109917,4741.265115833,NaN,NaN
110,9,2,complexity,0,kitchen,sun_ajkqhtgcbgpcwrwn.tif,207,1.5,0,0.716666666666667,4741.269525875,4743.732554292,2,NaN,4743.778474708,4743.801460875,4744.511471333,NaN,NaN
110,10,2,complexity,0,kitchen,sun_agubuxuukhzyzpdp.tif,198,1.5,0,1.33333333333333,4744.520568417,4747.181369792,1,NaN,4747.236840292,4747.260139792,4748.586864667,NaN,NaN
110,11,2,complexity,0,kitchen,sun_aegoxogugdkwpmpj.tif,190,1.5,0,1.01666666666667,4748.60417275,4752.707972917,4,NaN,4752.71764875,4752.736272292,4753.746318958,NaN,NaN
110,12,2,complexity,0,kitchen,sun_aenotlpyftoioydp.tif,192,1.5,0,0.733333333333333,4753.753606083,4756.048681375,2,NaN,4756.059190917,4756.077402125,4756.804077375,NaN,NaN
110,13,2,complexity,0,kitchen,sun_auaiucuqpdausiva.tif,212,1.5,0,1.38333333333333,4756.808679333,4759.640431833,3,NaN,4759.675901292,4759.697900583,4761.074641,NaN,NaN
110,14,2,complexity,0,kitchen,sun_aapllqyqlykszopd.tif,176,1.5,0,1.06666666666667,4761.093059292,4763.689762333,3,NaN,4763.699062208,4763.717383,4764.777443708,NaN,NaN
110,15,2,complexity,0,kitchen,sun_adgqasybjyktddhj.tif,188,1.5,0,0.85,4764.785205125,4769.322032167,4,NaN,4769.331875792,4769.350322292,4770.193662833,NaN,NaN
110,16,2,complexity,0,kitchen,labelme_brsyyvweiuaazfr.tif,171,1.5,0,0.9,4770.203922583,4772.701273833,4,NaN,4772.753670667,4772.776452625,4773.669796583,NaN,NaN
110,17,2,complexity,0,kitchen,sun_admlmbcdswaszruo.tif,189,1.5,0,1.55,4773.674639417,4777.394360875,2,NaN,4777.407166625,4777.425674083,4778.969059833,NaN,NaN
110,18,2,complexity,0,kitchen,sun_abrcnpqqhmjwekyf.tif,183,1.5,0,0.7,4778.982822667,4781.584360875,4,NaN,4781.59373675,4781.612209333,4782.305548917,NaN,NaN
110,19,2,complexity,0,kitchen,sun_abdenxonkemggwsq.tif,179,1.5,0,0.716666666666667,4782.310229,4787.693923,3,NaN,4787.703779458,4787.722242292,4788.432250792,NaN,NaN
110,20,2,complexity,0,kitchen,sun_akchetnepxlcxhsu.tif,208,1.5,0,0.85,4788.453702292,4792.166183625,2,NaN,4792.176197167,4792.194536583,4793.037877167,NaN,NaN
110,21,2,complexity,0,kitchen,sun_axyyrmzcupyhlivc.tif,217,1.5,0,1.35,4793.0424715,4795.551153583,3,NaN,4795.605481167,4795.626815417,4796.970214708,NaN,NaN
110,22,2,complexity,0,kitchen,sun_abftihopvusyfakt.tif,181,1.5,0,1.96666666666667,4796.984379125,4799.743944042,3,NaN,4799.755406083,4799.773658,4801.733714833,NaN,NaN
110,23,2,complexity,0,kitchen,sun_afuyedyxivkhecmu.tif,195,1.5,0,0.933333333333333,4801.749837583,4804.375405083,6,NaN,4804.4294875,4804.453625375,4805.38030075,NaN,NaN
110,24,2,complexity,0,kitchen,sun_ahspylgoovwmwvgk.tif,203,1.5,0,1.33333333333333,4805.386792042,4808.063783625,3,NaN,4808.106552375,4808.129487292,4809.456218083,NaN,NaN
110,25,2,complexity,0,kitchen,sun_abpwyqmlzafvklqo.tif,182,1.5,0,1.16666666666667,4809.470003,4811.770339292,2,NaN,4811.786684792,4811.804937167,4812.965014458,NaN,NaN
