sub_num,trial,block,task,is_practice,category,image,texture,duration,mask_dur,jitter,stim_time,time_of_resp,trial_response,mask_time,fix_time,jit_onset,trial_end,trial_accuracy,RT
119,6,0,usability,1,kitchen,kitchen_practice2.tif,227,1.5,0,1.13333333333333,9931.87326225,9936.194297542,6,NaN,9936.200473375,9936.219085125,9937.345851292,NaN,NaN
119,7,0,usability,1,kitchen,kitchen_practice3.tif,228,1.5,0,0.933333333333333,9937.355115,9940.650675,6,NaN,9940.656471667,9940.67494275,9941.601618667,NaN,NaN
119,8,0,usability,1,kitchen,kitchen_practice1.tif,226,1.5,0,1.48333333333333,9941.606177333,9944.771378042,6,NaN,9944.778696958,9944.797143708,9946.273914708,NaN,NaN
119,9,0,usability,1,kitchen,kitchen_practice4.tif,229,1.5,0,1.33333333333333,9946.289414667,9949.771450417,7,NaN,9949.777074792,9949.795522792,9951.122284583,NaN,NaN
119,10,0,usability,1,kitchen,kitchen_practice5.tif,230,1.5,0,1.3,9951.137449917,9953.954538875,6,NaN,9953.960334167,9953.978918042,9955.27233375,NaN,NaN
119,1,1,usability,0,kitchen,sun_amjjdeyrggfqgmom.tif,210,1.5,0,1.91666666666667,9964.855859292,9969.306915875,3,NaN,9969.31265375,9969.331130542,9971.241231792,NaN,NaN
119,2,1,usability,0,kitchen,sun_aymvwlarqodbwuoc.tif,218,1.5,0,0.85,9971.261478333,9974.1241305,6,NaN,9974.154506958,9974.178716667,9975.022060708,NaN,NaN
119,3,1,usability,0,kitchen,labelme_rykdqxenmhulbdn.tif,173,1.5,0,0.7,9975.027305375,9978.05449925,5,NaN,9978.082152875,9978.102799,9978.796142833,NaN,NaN
119,4,1,usability,0,kitchen,sun_adgqasybjyktddhj.tif,188,1.5,0,1.6,9978.811071708,9981.587434833,6,NaN,9981.610585375,9981.633703917,9983.227141,NaN,NaN
119,5,1,usability,0,kitchen,sun_aehawpgmrlhlvcow.tif,191,1.5,0,1.13333333333333,9983.24235225,9986.554736292,6,NaN,9986.560537208,9986.578949458,9987.705704833,NaN,NaN
119,6,1,usability,0,kitchen,sun_aadbddgrdsjugojn.tif,174,1.5,0,0.716666666666667,9987.715119875,9990.610301667,5,NaN,9990.616345458,9990.634963125,9991.344973667,NaN,NaN
119,7,1,usability,0,kitchen,sun_acwjdupvyjsugpay.tif,186,1.5,0,1.6,9991.349591792,9994.371101458,5,NaN,9994.393466583,9994.41569975,9996.009083375,NaN,NaN
119,8,1,usability,0,kitchen,sun_aixorpehvfykdynp.tif,205,1.5,0,1.68333333333333,9996.020583458,9999.110119792,5,NaN,9999.139606708,9999.162634,10000.839398917,NaN,NaN
119,9,1,usability,0,kitchen,sun_auaiucuqpdausiva.tif,212,1.5,0,1.41666666666667,10000.856426417,10003.274584458,7,NaN,10003.303067583,10003.326134333,10004.736191167,NaN,NaN
119,10,1,usability,0,kitchen,sun_aamedkxepzlwuxes.tif,175,1.5,0,1,10004.750261458,10007.450370167,4,NaN,10007.456237958,10007.474731333,10008.468074667,NaN,NaN
119,11,1,usability,0,kitchen,sun_ahpczsiumwwocjkv.tif,202,1.5,0,1.33333333333333,10008.472483,10011.046334458,7,NaN,10011.072711792,10011.095611417,10012.422357208,NaN,NaN
119,12,1,usability,0,kitchen,sun_aenotlpyftoioydp.tif,192,1.5,0,1.15,10012.437622667,10015.138414667,2,NaN,10015.144294208,10015.162906875,10016.306306542,NaN,NaN
119,13,1,usability,0,kitchen,sun_aexklacwqwezaorf.tif,194,1.5,0,1.86666666666667,10016.318724667,10019.634493833,7,NaN,10019.640391333,10019.658903333,10021.518987417,NaN,NaN
119,14,1,usability,0,kitchen,sun_aapllqyqlykszopd.tif,176,1.5,0,1.18333333333333,10021.534276667,10024.206787333,5,NaN,10024.235376417,10024.259427542,10025.436198083,NaN,NaN
119,15,1,usability,0,kitchen,sun_ahywdevtimnqcsln.tif,204,1.5,0,1.71666666666667,10025.449279125,10028.354203083,4,NaN,10028.360477375,10028.379480458,10030.089539833,NaN,NaN
119,16,1,usability,0,kitchen,sun_aggjlwcdjsjcaemh.tif,196,1.5,0,1.1,10030.107039583,10032.748461792,4,NaN,10032.777776167,10032.800876792,10033.894293625,NaN,NaN
119,17,1,usability,0,kitchen,sun_acxkpeoqbwcxfvip.tif,187,1.5,0,0.983333333333333,10033.9039365,10036.634892417,7,NaN,10036.640567875,10036.659161125,10037.635837083,NaN,NaN
119,18,1,usability,0,kitchen,sun_aeqdocilnnpuvuhx.tif,193,1.5,0,0.916666666666667,10037.640472833,10040.260525583,7,NaN,10040.28689825,10040.309940333,10041.219951625,NaN,NaN
119,19,1,usability,0,kitchen,sun_akcjzhbbjlbogpdi.tif,209,1.5,0,0.716666666666667,10041.224944583,10043.850892042,5,NaN,10043.879694792,10043.902830167,10044.612837875,NaN,NaN
119,20,1,usability,0,kitchen,sun_ajcbwwvdlsvjyzje.tif,206,1.5,0,0.883333333333333,10044.617737708,10047.514045458,5,NaN,10047.541705167,10047.56564275,10048.442318833,NaN,NaN
119,21,1,usability,0,kitchen,sun_azmutvzbxypaceni.tif,220,1.5,0,1.93333333333333,10048.447076458,10051.307523333,6,NaN,10051.337222083,10051.360167958,10053.286896667,NaN,NaN
119,22,1,usability,0,kitchen,sun_awcpdzzznmweyyhv.tif,216,1.5,0,0.9,10053.300999417,10056.47652575,7,NaN,10056.498897792,10056.522811333,10057.416154375,NaN,NaN
119,23,1,usability,0,kitchen,sun_aunzlwrbjumxhwdj.tif,213,1.5,0,1.13333333333333,10057.421030833,10060.273933583,1,NaN,10060.303002083,10060.326529458,10061.453275125,NaN,NaN
119,24,1,usability,0,kitchen,labelme_kxvouciolcpqplr.tif,172,1.5,0,0.766666666666667,10061.464219708,10064.874592667,3,NaN,10064.880375208,10064.898795292,10065.658803667,NaN,NaN
119,25,1,usability,0,kitchen,sun_agubuxuukhzyzpdp.tif,198,1.5,0,0.966666666666667,10065.66344125,10068.050413375,7,NaN,10068.079940042,10068.103170667,10069.063177417,NaN,NaN
119,1,2,usability,0,kitchen,sun_ajkqhtgcbgpcwrwn.tif,207,1.5,0,1.56666666666667,10074.333525083,10077.061779708,4,NaN,10077.090157333,10077.113232958,10078.673287708,NaN,NaN
119,2,2,usability,0,kitchen,sun_avszsnwsbuqfgzbn.tif,215,1.5,0,1.2,10078.687356208,10082.4746145,7,NaN,10082.480425375,10082.498998708,10083.692434125,NaN,NaN
119,3,2,usability,0,kitchen,sun_admlmbcdswaszruo.tif,189,1.5,0,1.73333333333333,10083.705047042,10086.066762125,7,NaN,10086.072302292,10086.090909167,10087.81765275,NaN,NaN
119,4,2,usability,0,kitchen,sun_abdxkyyxwfskuaqb.tif,180,1.5,0,1.61666666666667,10087.838618958,10090.333718292,6,NaN,10090.35999425,10090.383308625,10091.993363292,NaN,NaN
119,5,2,usability,0,kitchen,sun_aypmqwcualkenuoe.tif,219,1.5,0,1.38333333333333,10092.0039885,10094.916278875,4,NaN,10094.942454875,10094.965740833,10096.342498042,NaN,NaN
119,6,2,usability,0,kitchen,sun_agzzivivdpnawacl.tif,199,1.5,0,1.73333333333333,10096.356251375,10099.882337375,3,NaN,10099.888081167,10099.9065695,10101.633325833,NaN,NaN
119,7,2,usability,0,kitchen,sun_aaxxjlsuzvqlgylf.tif,178,1.5,0,1.96666666666667,10101.64900475,10104.9916695,7,NaN,10105.021548,10105.045506917,10107.005615292,NaN,NaN
119,8,2,usability,0,kitchen,sun_abftihopvusyfakt.tif,181,1.5,0,0.883333333333333,10107.024846792,10110.850346042,7,NaN,10110.855953083,10110.87435575,10111.751030083,NaN,NaN
119,9,2,usability,0,kitchen,sun_agorklincwxrdtga.tif,197,1.5,0,1.06666666666667,10111.755505917,10115.65031175,6,NaN,10115.655876375,10115.674425417,10116.73452625,NaN,NaN
119,10,2,usability,0,kitchen,labelme_brsyyvweiuaazfr.tif,171,1.5,0,1.06666666666667,10116.743751792,10119.802045167,3,NaN,10119.807937458,10119.826403292,10120.88647875,NaN,NaN
119,11,2,usability,0,kitchen,sun_afuyedyxivkhecmu.tif,195,1.5,0,0.966666666666667,10120.896584208,10123.673777208,6,NaN,10123.679917333,10123.698416792,10124.6584255,NaN,NaN
119,12,2,usability,0,kitchen,sun_aegoxogugdkwpmpj.tif,190,1.5,0,1.78333333333333,10124.663052792,10129.058148167,6,NaN,10129.063924167,10129.082458,10130.859208708,NaN,NaN
119,13,2,usability,0,kitchen,sun_axyyrmzcupyhlivc.tif,217,1.5,0,1.68333333333333,10130.873387292,10133.625136667,5,NaN,10133.65520575,10133.678177542,10135.354930792,NaN,NaN
119,14,2,usability,0,kitchen,sun_abpwyqmlzafvklqo.tif,182,1.5,0,0.983333333333333,10135.370214667,10139.98616775,4,NaN,10139.992119792,10140.010810208,10140.987483042,NaN,NaN
119,15,2,usability,0,kitchen,sun_abdenxonkemggwsq.tif,179,1.5,0,1.33333333333333,10140.993511583,10144.062030042,6,NaN,10144.07835575,10144.097984,10145.424743875,NaN,NaN
119,16,2,usability,0,kitchen,sun_acgtpgfybqjmzeyw.tif,185,1.5,0,1.56666666666667,10145.438156875,10148.210676458,5,NaN,10148.216395333,10148.234962458,10149.795072083,NaN,NaN
119,17,2,usability,0,kitchen,sun_ahspylgoovwmwvgk.tif,203,1.5,0,1.66666666666667,10149.807788542,10152.257871833,6,NaN,10152.263875375,10152.282382,10153.942491333,NaN,NaN
119,18,2,usability,0,kitchen,sun_auticobqsbwgoppi.tif,214,1.5,0,1.86666666666667,10153.957307583,10156.473633958,2,NaN,10156.502861667,10156.5262065,10158.38627575,NaN,NaN
119,19,2,usability,0,kitchen,sun_aqeaevwwwjoqhzvl.tif,211,1.5,0,1.95,10158.403692583,10160.966547708,6,NaN,10160.995820042,10161.019295833,10162.962711167,NaN,NaN
119,20,2,usability,0,kitchen,sun_acfmftudsenhrfhy.tif,184,1.5,0,0.966666666666667,10162.98304575,10165.821453792,6,NaN,10165.850806042,10165.874579542,10166.834589208,NaN,NaN
119,21,2,usability,0,kitchen,sun_abrcnpqqhmjwekyf.tif,183,1.5,0,1.43333333333333,10166.839639667,10169.267927417,5,NaN,10169.290017,10169.313904375,10170.740662583,NaN,NaN
119,22,2,usability,0,kitchen,sun_ahdycvpopffkzzsu.tif,200,1.5,0,0.85,10170.756386083,10173.346046208,2,NaN,10173.351919542,10173.370488833,10174.21383225,NaN,NaN
119,23,2,usability,0,kitchen,sun_ahljzhgcdpomplvg.tif,201,1.5,0,1.53333333333333,10174.2183245,10176.785184583,5,NaN,10176.813700042,10176.836938542,10178.363691583,NaN,NaN
119,24,2,usability,0,kitchen,sun_akchetnepxlcxhsu.tif,208,1.5,0,1.18333333333333,10178.375161208,10181.249978875,5,NaN,10181.255941042,10181.274461833,10182.451219042,NaN,NaN
119,25,2,usability,0,kitchen,sun_aarfiyshqohlwkmo.tif,177,1.5,0,1.86666666666667,10182.4636405,10185.697595375,4,NaN,10185.703665667,10185.7221535,10187.5822345,NaN,NaN
