sub_num,trial,block,task,is_practice,category,image,texture,duration,mask_dur,jitter,stim_time,time_of_resp,trial_response,mask_time,fix_time,jit_onset,trial_end,trial_accuracy,RT
123,1,0,aesthetic,1,bathroom,bathroom_practice1.tif,221,1.5,0,1.6,1708.007344708,1711.977388,2,NaN,1711.983039416,1712.001279,1713.594646,NaN,NaN
123,2,0,aesthetic,1,bathroom,bathroom_practice2.tif,222,1.5,0,1.26666666666667,1713.615785333,1716.681403666,3,NaN,1716.687029208,1716.705331166,1717.965371708,NaN,NaN
123,3,0,aesthetic,1,bathroom,bathroom_practice3.tif,223,1.5,0,1.15,1717.981028625,1720.737277291,4,NaN,1720.742805666,1720.761158708,1721.904536,NaN,NaN
123,4,0,aesthetic,1,bathroom,bathroom_practice4.tif,224,1.5,0,1.75,1721.918323791,1725.217693291,2,NaN,1725.22287275,1725.24112425,1726.984494166,NaN,NaN
123,5,0,aesthetic,1,bathroom,bathroom_practice5.tif,225,1.5,0,0.85,1727.002748916,1731.377058291,2,NaN,1731.382661166,1731.400963958,1732.244301791,NaN,NaN
123,1,1,aesthetic,0,bathroom,sun_acgyywnybuveqsro.tif,128,1.5,0,0.933333333333333,1737.790519875,1740.685698125,6,NaN,1740.70036475,1740.721339958,1741.648012041,NaN,NaN
123,2,1,aesthetic,0,bathroom,sun_ahcvzmoyaycdoftf.tif,137,1.5,0,1.18333333333333,1741.653956916,1744.437853,5,NaN,1744.459782458,1744.482030708,1745.658716583,NaN,NaN
123,3,1,aesthetic,0,bathroom,sun_ahqjwnzgolcaoidx.tif,139,1.5,0,1.56666666666667,1745.667383083,1748.713445,3,NaN,1748.718890375,1748.737604708,1750.297662833,NaN,NaN
123,4,1,aesthetic,0,bathroom,sun_ambriybtogmepttm.tif,146,1.5,0,1.38333333333333,1750.318136666,1753.453022208,4,NaN,1753.481251625,1753.504684333,1754.881385333,NaN,NaN
123,5,1,aesthetic,0,bathroom,sun_apkruvsevgegsdwp.tif,154,1.5,0,1.23333333333333,1754.901041166,1758.425192208,1,NaN,1758.430740958,1758.449024375,1759.675738958,NaN,NaN
123,6,1,aesthetic,0,bathroom,sun_apkxzenqapsujocq.tif,155,1.5,0,1.83333333333333,1759.693748916,1762.80918725,2,NaN,1762.814584041,1762.833026125,1764.659723833,NaN,NaN
123,7,1,aesthetic,0,bathroom,sun_agyqfjcfkdcydepw.tif,135,1.5,0,1.1,1764.680708416,1768.697041833,5,NaN,1768.702600416,1768.721079666,1769.814445625,NaN,NaN
123,8,1,aesthetic,0,bathroom,sun_anhioqovhscjqqwb.tif,148,1.5,0,1.71666666666667,1769.822539666,1772.529147291,7,NaN,1772.534708666,1772.553931166,1774.263989625,NaN,NaN
123,9,1,aesthetic,0,bathroom,sun_alotolagknyrgtsk.tif,145,1.5,0,1.01666666666667,1774.281868875,1777.5884725,5,NaN,1777.616338333,1777.639109291,1778.649157208,NaN,NaN
123,10,1,aesthetic,0,bathroom,sun_auzqhkafidnkrwmo.tif,164,1.5,0,1.36666666666667,1778.669509125,1781.376792541,4,NaN,1781.382394541,1781.400655291,1782.760712791,NaN,NaN
123,11,1,aesthetic,0,bathroom,sun_agguqiubmwhqqunb.tif,132,1.5,0,0.75,1782.779871166,1785.425046666,6,NaN,1785.43051925,1785.449131416,1786.192469916,NaN,NaN
123,12,1,aesthetic,0,bathroom,sun_acduarbnmmoglmiv.tif,126,1.5,0,1.31666666666667,1786.197588875,1789.004767458,3,NaN,1789.03262075,1789.056513333,1790.366537625,NaN,NaN
123,13,1,aesthetic,0,bathroom,sun_aclfzgynxzxlbepz.tif,129,1.5,0,1.33333333333333,1790.376633041,1794.281012791,5,NaN,1794.286461583,1794.304910333,1795.631621916,NaN,NaN
123,14,1,aesthetic,0,bathroom,sun_axxbkopsgyouuebh.tif,168,1.5,0,1.41666666666667,1795.650044291,1798.529703458,2,NaN,1798.535012875,1798.55346975,1799.963524083,NaN,NaN
123,15,1,aesthetic,0,bathroom,sun_avhrdrntsqrjzccq.tif,165,1.5,0,1.93333333333333,1799.981167541,1802.577396583,7,NaN,1802.582608875,1802.600974583,1804.527679333,NaN,NaN
123,16,1,aesthetic,0,bathroom,sun_ahijqszoswveeyji.tif,138,1.5,0,1.68333333333333,1804.541996291,1807.849432583,4,NaN,1807.856606541,1807.875028708,1809.551740083,NaN,NaN
123,17,1,aesthetic,0,bathroom,sun_atstyziqcmkahyxk.tif,161,1.5,0,0.783333333333333,1809.569740291,1812.853898875,2,NaN,1812.882100208,1812.905998041,1813.682669916,NaN,NaN
123,18,1,aesthetic,0,bathroom,sun_asfwthctfqerjvxr.tif,159,1.5,0,1.93333333333333,1813.688019583,1817.417565041,6,NaN,1817.422804083,1817.441163916,1819.367884708,NaN,NaN
123,19,1,aesthetic,0,bathroom,sun_aofnryafpsjimzsb.tif,150,1.5,0,1.18333333333333,1819.390476583,1822.689190958,6,NaN,1822.6962315,1822.71445775,1823.891180375,NaN,NaN
123,20,1,aesthetic,0,bathroom,sun_afcoljnjfoxjtgja.tif,130,1.5,0,1.61666666666667,1823.899463916,1826.641469583,4,NaN,1826.646983,1826.66527675,1828.275325416,NaN,NaN
123,21,1,aesthetic,0,bathroom,sun_akiytfaagpdsphgz.tif,141,1.5,0,1.16666666666667,1828.292750291,1831.560988916,7,NaN,1831.56643225,1831.584810958,1832.744851666,NaN,NaN
123,22,1,aesthetic,0,bathroom,sun_awnqiikzaispgmwo.tif,166,1.5,0,1.85,1832.754455208,1835.817160833,2,NaN,1835.822481625,1835.840854958,1837.68423775,NaN,NaN
123,23,1,aesthetic,0,bathroom,sun_apjevzvycyhuqghb.tif,153,1.5,0,1.68333333333333,1837.706346208,1840.449877291,6,NaN,1840.470124083,1840.49333475,1842.170036916,NaN,NaN
123,24,1,aesthetic,0,bathroom,sun_apynckhmoftszqoq.tif,157,1.5,0,1.98333333333333,1842.187106333,1844.916592541,1,NaN,1844.94524275,1844.968748375,1846.945457416,NaN,NaN
123,25,1,aesthetic,0,bathroom,sun_aoybiabnpadelefl.tif,151,1.5,0,1.28333333333333,1846.96481275,1849.713738916,7,NaN,1849.741619166,1849.76497525,1851.041692791,NaN,NaN
123,1,2,aesthetic,0,bathroom,sun_apmqjbnwghzuhhzh.tif,156,1.5,0,0.9,1856.671313958,1862.609190458,2,NaN,1862.615093708,1862.633473208,1863.526812375,NaN,NaN
123,2,2,aesthetic,0,bathroom,sun_aapitsgbtktqubfy.tif,122,1.5,0,1.95,1863.532060458,1866.952608333,5,NaN,1866.958293583,1866.976617916,1868.91999825,NaN,NaN
123,3,2,aesthetic,0,bathroom,sun_axyrejkiiaqiurjk.tif,169,1.5,0,1,1868.939747583,1871.548117166,7,NaN,1871.575898083,1871.598941375,1872.592279708,NaN,NaN
123,4,2,aesthetic,0,bathroom,sun_ahaulkltgpkeeemi.tif,136,1.5,0,0.733333333333333,1872.5972805,1875.856462916,3,NaN,1875.862638625,1875.881086208,1876.607759166,NaN,NaN
123,5,2,aesthetic,0,bathroom,sun_amzlamotzwfkwjco.tif,147,1.5,0,1.2,1876.617936875,1879.340115083,7,NaN,1879.367461333,1879.390378458,1880.583743833,NaN,NaN
123,6,2,aesthetic,0,bathroom,sun_aunuadmjocsddsrl.tif,162,1.5,0,1.21666666666667,1880.592985875,1883.888690125,2,NaN,1883.894190208,1883.912513458,1885.122565458,NaN,NaN
123,7,2,aesthetic,0,bathroom,sun_azqyogdvyhahyram.tif,170,1.5,0,0.933333333333333,1885.140365583,1888.312386208,1,NaN,1888.318153333,1888.337225625,1889.263897416,NaN,NaN
123,8,2,aesthetic,0,bathroom,sun_aqrpegblszgcoujh.tif,158,1.5,0,0.916666666666667,1889.269415458,1892.712825666,6,NaN,1892.718148416,1892.737238041,1893.647244625,NaN,NaN
123,9,2,aesthetic,0,bathroom,sun_aspsyogrekjtfozg.tif,160,1.5,0,1.1,1893.652752083,1896.419518125,5,NaN,1896.442833666,1896.464706375,1897.558081916,NaN,NaN
123,10,2,aesthetic,0,bathroom,sun_axldvoqbuvuggfmq.tif,167,1.5,0,1.16666666666667,1897.567824666,1900.5287575,3,NaN,1900.534158125,1900.552883875,1901.712941375,NaN,NaN
123,11,2,aesthetic,0,bathroom,sun_abjtwfukuwddzted.tif,125,1.5,0,0.783333333333333,1901.723567375,1905.041004208,3,NaN,1905.046182416,1905.064583625,1905.841255166,NaN,NaN
123,12,2,aesthetic,0,bathroom,sun_abapwbhyhkfixyex.tif,124,1.5,0,1.95,1905.85160575,1908.590352833,5,NaN,1908.6189295,1908.641901208,1910.585275125,NaN,NaN
123,13,2,aesthetic,0,bathroom,sun_anryaplzeujmzfkd.tif,149,1.5,0,1.05,1910.59688775,1913.633628,3,NaN,1913.662053166,1913.685521833,1914.728898208,NaN,NaN
123,14,2,aesthetic,0,bathroom,sun_ausgutylgojavyoq.tif,163,1.5,0,1.03333333333333,1914.738124708,1917.825173875,1,NaN,1917.830369416,1917.848645458,1918.87533475,NaN,NaN
123,15,2,aesthetic,0,bathroom,sun_aggnnqpdorgxpvce.tif,131,1.5,0,1.45,1918.884873625,1922.136285,2,NaN,1922.141858625,1922.160201416,1923.603579541,NaN,NaN
123,16,2,aesthetic,0,bathroom,sun_aljolscmmzydegqp.tif,143,1.5,0,0.966666666666667,1923.622010833,1927.352369916,2,NaN,1927.357889083,1927.376123625,1928.336128875,NaN,NaN
123,17,2,aesthetic,0,bathroom,sun_aghyqhbptboemmoq.tif,133,1.5,0,0.966666666666667,1928.340582708,1932.680593416,3,NaN,1932.685901041,1932.704109333,1933.664116458,NaN,NaN
123,18,2,aesthetic,0,bathroom,sun_alkosphxlxwjwgjd.tif,144,1.5,0,1.2,1933.669545541,1936.596296041,4,NaN,1936.624657083,1936.648115791,1937.841485666,NaN,NaN
123,19,2,aesthetic,0,bathroom,sun_apeeialkgkuxddgh.tif,152,1.5,0,0.933333333333333,1937.854246625,1940.94515325,1,NaN,1940.950342916,1940.96869225,1941.895363708,NaN,NaN
123,20,2,aesthetic,0,bathroom,sun_aleqenyvunhactkl.tif,142,1.5,0,1.31666666666667,1941.900604041,1945.280785791,4,NaN,1945.286017458,1945.304172375,1946.61421525,NaN,NaN
123,21,2,aesthetic,0,bathroom,sun_ajlawzvmubibwbpy.tif,140,1.5,0,1.18333333333333,1946.633005208,1949.712445791,2,NaN,1949.717929666,1949.736199291,1950.912921833,NaN,NaN
123,22,2,aesthetic,0,bathroom,labelme_sfxiulhjbhlyiyt.tif,121,1.5,0,1.71666666666667,1950.925127916,1953.784330083,2,NaN,1953.789904625,1953.808305875,1955.51836025,NaN,NaN
123,23,2,aesthetic,0,bathroom,sun_aavhrsfjbserjtht.tif,123,1.5,0,1.53333333333333,1955.537824458,1958.612255333,3,NaN,1958.6371225,1958.660337583,1960.187057916,NaN,NaN
123,24,2,aesthetic,0,bathroom,sun_acegryoqftbzowsg.tif,127,1.5,0,0.933333333333333,1960.205831375,1963.040905666,4,NaN,1963.046075083,1963.064491416,1963.991162458,NaN,NaN
123,25,2,aesthetic,0,bathroom,sun_agrwbmhcpmfuwmsg.tif,134,1.5,0,0.916666666666667,1964.000968,1967.488220833,5,NaN,1967.494023958,1967.512434,1968.4224405,NaN,NaN
