slide,sub1,sub2,pairID,trialID,stim1,stim2,instructionsLoop.thisRepN,instructionsLoop.thisTrialN,instructionsLoop.thisN,instructionsLoop.thisIndex,practice.thisRepN,practice.thisTrialN,practice.thisN,practice.thisIndex,trials.thisRepN,trials.thisTrialN,trials.thisN,trials.thisIndex,thisRow.t,notes,preparation.started,preparation.stopped,instructions.started,startResponse.started,slide_img.started,instructions.stopped,startResponse.keys,startResponse.rt,startResponse.duration,trial.started,polygon.started,polygon_2.started,image1.started,image2.started,rating_1.started,question.started,rating_2.started,question_2.started,block_text.started,trial.stopped,stim1pos,stim2pos,block,rating_1.response,rating_1.rt,rating_2.response,rating_2.rt,ITI.started,text.started,text.stopped,ITI.stopped,practice_over.started,text_2.started,space_practice_over.started,practice_over.stopped,space_practice_over.keys,space_practice_over.rt,space_practice_over.duration,breakBlocks.started,breakBlocks.stopped,startBlock.keys,startBlock.started,startBlock.rt,startBlock.duration,end.started,message_end.started,key_resp.started,end.stopped,key_resp.keys,key_resp.rt,key_resp.duration,participant,session,session_number,date,expName,psychopyVersion,frameRate,expStart,
instructions/Slide1.jpg,,,,,,,0,0,0,0,,,,,,,,,0.02522933299997021,,0.0019002500000055988,0.0020179159999997864,0.009223665999968489,0.02522933299997021,0.02522933299997021,13.860807082999997,space,13.835374582999975,None,,,,,,,,,,,,,,,,,,,,,,,,,,,,,,,,,,,,,,,,,,,207,bathroom,1,2024-03-16_09h06.52.306,image_similarity_rating,2023.2.3,None,2024-03-16 09h07.06.193690 +0100,
instructions/Slide3.jpg,,,,,,,0,1,1,1,,,,,,,,,13.884555165999984,,,,13.861618332999967,13.884555165999984,13.884555165999984,24.48445316599998,space,10.59970133400003,None,,,,,,,,,,,,,,,,,,,,,,,,,,,,,,,,,,,,,,,,,,,207,bathroom,1,2024-03-16_09h06.52.306,image_similarity_rating,2023.2.3,None,2024-03-16 09h07.06.193690 +0100,
instructions/Slide4.jpg,,,,,,,0,2,2,2,,,,,,,,,24.50638354099999,,,,24.484957415999986,24.50638354099999,24.50638354099999,33.05169591599997,space,8.545026249999978,None,,,,,,,,,,,,,,,,,,,,,,,,,,,,,,,,,,,,,,,,,,,207,bathroom,1,2024-03-16_09h06.52.306,image_similarity_rating,2023.2.3,None,2024-03-16 09h07.06.193690 +0100,
instructions/Slide5.jpg,,,,,,,0,3,3,3,,,,,,,,,33.078210540999976,,,,33.05247641599999,33.078210540999976,33.078210540999976,49.002435332999994,space,15.923945917000026,None,,,,,,,,,,,,,,,,,,,,,,,,,,,,,,,,,,,,,,,,,,,207,bathroom,1,2024-03-16_09h06.52.306,image_similarity_rating,2023.2.3,None,2024-03-16 09h07.06.193690 +0100,
,128,108,practice,3,stimuli/own/bathroom/128_bat.jpg,stimuli/own/bathroom/108_bat.jpg,,,,,0,0,0,2,,,,,49.206325875000005,,,,,,,,,,,49.02822816599996,49.206325875000005,49.206325875000005,49.206325875000005,49.206325875000005,49.206325875000005,49.206325875000005,49.206325875000005,49.206325875000005,49.206325875000005,61.37412658299996,7,-7,0,2.0,6.495755999999972,6.0,11.263995000000023,61.374374165999996,61.37709883299999,61.828688333,61.66376624999998,,,,,,,,,,,,,,,,,,,,,207,bathroom,1,2024-03-16_09h06.52.306,image_similarity_rating,2023.2.3,None,2024-03-16 09h07.06.193690 +0100,
,107,128,practice,7,stimuli/own/bathroom/107_bat.jpg,stimuli/own/bathroom/128_bat.jpg,,,,,0,1,1,6,,,,,61.828688333,,,,,,,,,,,61.664137874999994,61.828688333,61.828688333,61.828688333,61.828688333,61.828688333,61.828688333,61.828688333,61.828688333,61.828688333,69.93654199999997,7,-7,0,3.0,4.3989131250000355,6.0,7.553969749999965,69.93669029099999,69.94190966599996,70.393964875,70.227195166,,,,,,,,,,,,,,,,,,,,,207,bathroom,1,2024-03-16_09h06.52.306,image_similarity_rating,2023.2.3,None,2024-03-16 09h07.06.193690 +0100,
,110,128,practice,2,stimuli/own/bathroom/110_bat.jpg,stimuli/own/bathroom/128_bat.jpg,,,,,0,2,2,1,,,,,70.393964875,,,,,,,,,,,70.22759724999997,70.393964875,70.393964875,70.393964875,70.393964875,70.393964875,70.393964875,70.393964875,70.393964875,70.393964875,79.06532212499997,7,-7,0,2.0,3.5849536669999793,4.0,8.475129124999967,79.06546579100001,79.07541249999997,79.52748420799998,79.359789708,,,,,,,,,,,,,,,,,,,,,207,bathroom,1,2024-03-16_09h06.52.306,image_similarity_rating,2023.2.3,None,2024-03-16 09h07.06.193690 +0100,
,128,133,practice,6,stimuli/own/bathroom/128_bat.jpg,stimuli/own/bathroom/133_bat.jpg,,,,,0,3,3,5,,,,,79.52748420799998,,,,,,,,,,,79.36024062499996,79.52748420799998,79.52748420799998,79.52748420799998,79.52748420799998,79.52748420799998,79.52748420799998,79.52748420799998,79.52748420799998,79.52748420799998,88.81490987500001,-7,7,0,3.0,5.931353999999999,4.0,8.888756999999998,88.81505325,88.82521658299999,89.27789441599998,89.10987429099998,,,,,,,,,,,,,,,,,,,,,207,bathroom,1,2024-03-16_09h06.52.306,image_similarity_rating,2023.2.3,None,2024-03-16 09h07.06.193690 +0100,
,110,107,practice,4,stimuli/own/bathroom/110_bat.jpg,stimuli/own/bathroom/107_bat.jpg,,,,,0,4,4,3,,,,,89.27789441599998,,,,,,,,,,,89.11035445799996,89.27789441599998,89.27789441599998,89.27789441599998,89.27789441599998,89.27789441599998,89.27789441599998,89.27789441599998,89.27789441599998,89.27789441599998,103.244722583,7,-7,0,6.0,10.974158417000012,5.0,13.323547083999983,103.244865833,103.24695125,103.693288833,103.53004970799998,,,,,,,,,,,,,,,,,,,,,207,bathroom,1,2024-03-16_09h06.52.306,image_similarity_rating,2023.2.3,None,2024-03-16 09h07.06.193690 +0100,
,110,133,practice,1,stimuli/own/bathroom/110_bat.jpg,stimuli/own/bathroom/133_bat.jpg,,,,,0,5,5,0,,,,,103.693288833,,,,,,,,,,,103.53037733299999,103.693288833,103.693288833,103.693288833,103.693288833,103.693288833,103.693288833,103.693288833,103.693288833,103.693288833,116.535871708,7,-7,0,6.0,9.27503787500001,4.0,12.625244250000037,116.53601574999999,116.54166279099996,116.99479120799998,116.82628708299995,,,,,,,,,,,,,,,,,,,,,207,bathroom,1,2024-03-16_09h06.52.306,image_similarity_rating,2023.2.3,None,2024-03-16 09h07.06.193690 +0100,
,107,108,practice,5,stimuli/own/bathroom/107_bat.jpg,stimuli/own/bathroom/108_bat.jpg,,,,,0,6,6,4,,,,,116.99479120799998,,,,,,,,,,,116.82673525000001,116.99479120799998,116.99479120799998,116.99479120799998,116.99479120799998,116.99479120799998,116.99479120799998,116.99479120799998,116.99479120799998,116.99479120799998,132.245186833,7,-7,0,4.0,9.48440416699998,5.0,13.73757312500004,132.245333958,132.24709408300004,132.698360166,132.53052133299997,,,,,,,,,,,,,,,,,,,,,207,bathroom,1,2024-03-16_09h06.52.306,image_similarity_rating,2023.2.3,None,2024-03-16 09h07.06.193690 +0100,
,108,110,practice,8,stimuli/own/bathroom/108_bat.jpg,stimuli/own/bathroom/110_bat.jpg,,,,,0,7,7,7,,,,,132.698360166,,,,,,,,,,,132.53094179099998,132.698360166,132.698360166,132.698360166,132.698360166,132.698360166,132.698360166,132.698360166,132.698360166,132.698360166,142.090218,-7,7,0,4.0,5.113548499999979,4.0,9.181608125000025,142.090359708,142.09337124999996,142.55073516600004,142.38100266600003,,,,,,,,,,,,,,,,,,,,,207,bathroom,1,2024-03-16_09h06.52.306,image_similarity_rating,2023.2.3,None,2024-03-16 09h07.06.193690 +0100,
,108,133,practice,10,stimuli/own/bathroom/108_bat.jpg,stimuli/own/bathroom/133_bat.jpg,,,,,0,8,8,9,,,,,142.55073516600004,,,,,,,,,,,142.38145137500004,142.55073516600004,142.55073516600004,142.55073516600004,142.55073516600004,142.55073516600004,142.55073516600004,142.55073516600004,142.55073516600004,142.55073516600004,150.44395183299997,7,-7,0,3.0,4.6259257500000786,4.0,7.381399249999959,150.44410162499997,150.44603791599997,150.893650583,150.72991962500004,,,,,,,,,,,,,,,,,,,,,207,bathroom,1,2024-03-16_09h06.52.306,image_similarity_rating,2023.2.3,None,2024-03-16 09h07.06.193690 +0100,
,107,133,practice,9,stimuli/own/bathroom/107_bat.jpg,stimuli/own/bathroom/133_bat.jpg,,,,,0,9,9,8,,,,,150.893650583,,,,,,,,,,,150.73031766599996,150.893650583,150.893650583,150.893650583,150.893650583,150.893650583,150.893650583,150.893650583,150.893650583,150.893650583,158.735569375,7,-7,0,5.0,4.441677000000027,4.0,7.674482249999983,158.73571024999995,158.74153462500004,159.03035804099994,159.02592691599995,,,,,,,,,,,,,,,,,,,,,207,bathroom,1,2024-03-16_09h06.52.306,image_similarity_rating,2023.2.3,None,2024-03-16 09h07.06.193690 +0100,
,,,,,,,,,,,,,,,,,,,,,,,,,,,,,,,,,,,,,,,,,,,,,,,,,,,,159.02600754099996,159.03035804099994,159.03035804099994,172.061493333,space,13.030858125000009,None,,,,,,,,,,,,,,207,bathroom,1,2024-03-16_09h06.52.306,image_similarity_rating,2023.2.3,None,2024-03-16 09h07.06.193690 +0100,
,136,138,582,582,stimuli/own/bathroom/136_bat.jpg,stimuli/own/bathroom/138_bat.jpg,,,,,,,,,0,0,0,581,172.11302025000003,,,,,,,,,,,172.39642550000002,172.56975808299995,172.56975808299995,172.56975808299995,172.56975808299995,172.56975808299995,172.56975808299995,172.56975808299995,172.56975808299995,172.56975808299995,182.74381720799994,-7,7,1,4.0,8.029073917000005,2.0,9.822443582999995,172.11070254099997,172.11302025000003,172.56975808299995,172.39641220799996,,,,,,,,172.09645241599998,172.110426291,None,,,,,,,,,,,207,bathroom,1,2024-03-16_09h06.52.306,image_similarity_rating,2023.2.3,None,2024-03-16 09h07.06.193690 +0100,
,101,121,16,16,stimuli/own/bathroom/101_bat.jpg,stimuli/own/bathroom/121_bat.jpg,,,,,,,,,0,1,1,15,182.75221929100002,,,,,,,,,,,183.04267479100002,183.21014970799996,183.21014970799996,183.21014970799996,183.21014970799996,183.21014970799996,183.21014970799996,183.21014970799996,183.21014970799996,183.21014970799996,191.94854366600003,-7,7,1,5.0,5.7759000830000105,4.0,8.352489249999962,182.75027358300002,182.75221929100002,183.21014970799996,183.04265733300002,,,,,,,,182.744383583,182.75022358300004,None,,,,,,,,,,,207,bathroom,1,2024-03-16_09h06.52.306,image_similarity_rating,2023.2.3,None,2024-03-16 09h07.06.193690 +0100,
,105,117,138,138,stimuli/own/bathroom/105_bat.jpg,stimuli/own/bathroom/117_bat.jpg,,,,,,,,,0,2,2,137,191.958410916,,,,,,,,,,,192.242495958,192.40773329099994,192.40773329099994,192.40773329099994,192.40773329099994,192.40773329099994,192.40773329099994,192.40773329099994,192.40773329099994,192.40773329099994,202.181493,-7,7,1,1.0,3.6495652910000445,3.0,9.34998645799999,191.95228924999998,191.958410916,192.40773329099994,192.242481791,,,,,,,,191.94877179099996,191.95223949999996,None,,,,,,,,,,,207,bathroom,1,2024-03-16_09h06.52.306,image_similarity_rating,2023.2.3,None,2024-03-16 09h07.06.193690 +0100,
,139,140,593,593,stimuli/own/bathroom/139_bat.jpg,stimuli/own/bathroom/140_bat.jpg,,,,,,,,,0,3,3,592,202.191443333,,,,,,,,,,,202.47602979100003,202.64662579099996,202.64662579099996,202.64662579099996,202.64662579099996,202.64662579099996,202.64662579099996,202.64662579099996,202.64662579099996,202.64662579099996,212.57700054100002,7,-7,1,3.0,8.501867542000014,2.0,9.213709375000008,202.185221958,202.191443333,202.64662579099996,202.47600808299995,,,,,,,,202.18172791599994,202.18517487499997,None,,,,,,,,,,,207,bathroom,1,2024-03-16_09h06.52.306,image_similarity_rating,2023.2.3,None,2024-03-16 09h07.06.193690 +0100,
,103,114,75,75,stimuli/own/bathroom/103_bat.jpg,stimuli/own/bathroom/114_bat.jpg,,,,,,,,,0,4,4,74,212.5826245,,,,,,,,,,,212.87590137499996,213.04180916599995,213.04180916599995,213.04180916599995,213.04180916599995,213.04180916599995,213.04180916599995,213.04180916599995,213.04180916599995,213.04180916599995,223.626909916,7,-7,1,5.0,6.427182708000032,4.0,9.073023375000048,212.580813375,212.5826245,213.04180916599995,212.875886083,,,,,,,,212.57722574999997,212.58076379100004,None,,,,,,,,,,,207,bathroom,1,2024-03-16_09h06.52.306,image_similarity_rating,2023.2.3,None,2024-03-16 09h07.06.193690 +0100,
,123,131,466,466,stimuli/own/bathroom/123_bat.jpg,stimuli/own/bathroom/131_bat.jpg,,,,,,,,,0,5,5,465,223.63267437500002,,,,,,,,,,,223.92584304099995,224.09693220799994,224.09693220799994,224.09693220799994,224.09693220799994,224.09693220799994,224.09693220799994,224.09693220799994,224.09693220799994,224.09693220799994,236.9230895,-7,7,1,1.0,5.465661124999997,2.0,11.86351287499997,223.63059508299995,223.63267437500002,224.09693220799994,223.92582620799993,,,,,,,,223.62713583299995,223.63054491600002,None,,,,,,,,,,,207,bathroom,1,2024-03-16_09h06.52.306,image_similarity_rating,2023.2.3,None,2024-03-16 09h07.06.193690 +0100,
,106,116,166,166,stimuli/own/bathroom/106_bat.jpg,stimuli/own/bathroom/116_bat.jpg,,,,,,,,,0,6,6,165,236.92888054099996,,,,,,,,,,,237.21311120799993,237.37850937499996,237.37850937499996,237.37850937499996,237.37850937499996,237.37850937499996,237.37850937499996,237.37850937499996,237.37850937499996,237.37850937499996,246.81475491600003,-7,7,1,3.0,9.221222582999985,2.0,5.03741916599995,236.92694783300004,236.92888054099996,237.37850937499996,237.21309745799994,,,,,,,,236.92332337499994,236.926900708,None,,,,,,,,,,,207,bathroom,1,2024-03-16_09h06.52.306,image_similarity_rating,2023.2.3,None,2024-03-16 09h07.06.193690 +0100,
,123,132,467,467,stimuli/own/bathroom/123_bat.jpg,stimuli/own/bathroom/132_bat.jpg,,,,,,,,,0,7,7,466,246.82455241600002,,,,,,,,,,,247.10887941599998,247.27361216599996,247.27361216599996,247.27361216599996,247.27361216599996,247.27361216599996,247.27361216599996,247.27361216599996,247.27361216599996,247.27361216599996,257.626764916,7,-7,1,4.0,9.80934116700007,4.0,3.0625532919999614,246.81845633300003,246.82455241600002,247.27361216599996,247.10886450000004,,,,,,,,246.814991916,246.81840779099997,None,,,,,,,,,,,207,bathroom,1,2024-03-16_09h06.52.306,image_similarity_rating,2023.2.3,None,2024-03-16 09h07.06.193690 +0100,
,117,138,361,361,stimuli/own/bathroom/117_bat.jpg,stimuli/own/bathroom/138_bat.jpg,,,,,,,,,0,8,8,360,257.632478916,,,,,,,,,,,257.92562870800003,258.09422554099996,258.09422554099996,258.09422554099996,258.09422554099996,258.09422554099996,258.09422554099996,258.09422554099996,258.09422554099996,258.09422554099996,269.5601055,7,-7,1,6.0,7.393491833000098,4.0,10.460743624999964,257.630542833,257.632478916,258.09422554099996,257.925610875,,,,,,,,257.62699104099994,257.630494125,None,,,,,,,,,,,207,bathroom,1,2024-03-16_09h06.52.306,image_similarity_rating,2023.2.3,None,2024-03-16 09h07.06.193690 +0100,
,103,120,80,80,stimuli/own/bathroom/103_bat.jpg,stimuli/own/bathroom/120_bat.jpg,,,,,,,,,0,9,9,79,269.56552679099997,,,,,,,,,,,269.85882187499993,270.02889675,270.02889675,270.02889675,270.02889675,270.02889675,270.02889675,270.02889675,270.02889675,270.02889675,278.15629366599995,7,-7,1,3.0,3.363338624999983,5.0,6.05213225,269.56377549999996,269.56552679099997,270.02889675,269.85880208299994,,,,,,,,269.56033291599994,269.563728166,None,,,,,,,,,,,207,bathroom,1,2024-03-16_09h06.52.306,image_similarity_rating,2023.2.3,None,2024-03-16 09h07.06.193690 +0100,
,117,125,350,350,stimuli/own/bathroom/117_bat.jpg,stimuli/own/bathroom/125_bat.jpg,,,,,,,,,0,10,10,349,278.16185887499995,,,,,,,,,,,278.44588270799994,278.609634125,278.609634125,278.609634125,278.609634125,278.609634125,278.609634125,278.609634125,278.609634125,278.609634125,290.694270958,-7,7,1,2.0,7.096842083999945,6.0,11.287688333000006,278.16002254099993,278.16185887499995,278.609634125,278.44587195799994,,,,,,,,278.15654016599996,278.159974416,None,,,,,,,,,,,207,bathroom,1,2024-03-16_09h06.52.306,image_similarity_rating,2023.2.3,None,2024-03-16 09h07.06.193690 +0100,
,103,126,86,86,stimuli/own/bathroom/103_bat.jpg,stimuli/own/bathroom/126_bat.jpg,,,,,,,,,0,11,11,85,290.69994975000003,,,,,,,,,,,290.9920755,291.15658070800004,291.15658070800004,291.15658070800004,291.15658070800004,291.15658070800004,291.15658070800004,291.15658070800004,291.15658070800004,291.15658070800004,301.868864333,-7,7,1,6.0,5.735916624999959,5.0,9.038193207999939,290.69802987500003,290.69994975000003,291.15658070800004,290.99206120799994,,,,,,,,290.69449949999995,290.6979805,None,,,,,,,,,,,207,bathroom,1,2024-03-16_09h06.52.306,image_similarity_rating,2023.2.3,None,2024-03-16 09h07.06.193690 +0100,
,127,135,523,523,stimuli/own/bathroom/127_bat.jpg,stimuli/own/bathroom/135_bat.jpg,,,,,,,,,0,12,12,522,301.89111799999995,,,,,,,,,,,302.17488975,302.340105416,302.340105416,302.340105416,302.340105416,302.340105416,302.340105416,302.340105416,302.340105416,302.340105416,314.347678541,-7,7,1,5.0,9.394297749999964,4.0,10.782957833000069,301.87266670799994,301.89111799999995,,302.17486883299995,,,,,,,,301.86909329099996,301.872618875,None,,,,,,,,,,,207,bathroom,1,2024-03-16_09h06.52.306,image_similarity_rating,2023.2.3,None,2024-03-16 09h07.06.193690 +0100,
,124,125,476,476,stimuli/own/bathroom/124_bat.jpg,stimuli/own/bathroom/125_bat.jpg,,,,,,,,,0,13,13,475,314.35755558299996,,,,,,,,,,,314.64224075,314.809559458,314.809559458,314.809559458,314.809559458,314.809559458,314.809559458,314.809559458,314.809559458,314.809559458,326.885109,7,-7,1,7.0,7.986818833000029,4.0,11.849568665999982,314.351353166,314.35755558299996,314.809559458,314.642223,,,,,,,,314.347904291,314.351305666,None,,,,,,,,,,,207,bathroom,1,2024-03-16_09h06.52.306,image_similarity_rating,2023.2.3,None,2024-03-16 09h07.06.193690 +0100,
,118,124,370,370,stimuli/own/bathroom/118_bat.jpg,stimuli/own/bathroom/124_bat.jpg,,,,,,,,,0,14,14,369,326.89057420800003,,,,,,,,,,,327.17522779099994,327.339861416,327.339861416,327.339861416,327.339861416,327.339861416,327.339861416,327.339861416,327.339861416,327.339861416,337.71853533300003,7,-7,1,5.0,8.347446083000023,3.0,10.093988249999938,326.88878908299995,326.89057420800003,327.339861416,327.175208583,,,,,,,,326.885335291,326.888741208,None,,,,,,,,,,,207,bathroom,1,2024-03-16_09h06.52.306,image_similarity_rating,2023.2.3,None,2024-03-16 09h07.06.193690 +0100,
,104,134,123,123,stimuli/own/bathroom/104_bat.jpg,stimuli/own/bathroom/134_bat.jpg,,,,,,,,,0,15,15,122,337.74088916599993,,,,,,,,,,,338.02487037500003,338.19682599999993,338.19682599999993,338.19682599999993,338.19682599999993,338.19682599999993,338.19682599999993,338.19682599999993,338.19682599999993,338.19682599999993,348.030676,-7,7,1,4.0,6.490577750000057,2.0,9.184002332999967,337.722204708,337.74088916599993,,338.02484454099994,,,,,,,,337.71876208299994,337.722157333,None,,,,,,,,,,,207,bathroom,1,2024-03-16_09h06.52.306,image_similarity_rating,2023.2.3,None,2024-03-16 09h07.06.193690 +0100,
,113,140,294,294,stimuli/own/bathroom/113_bat.jpg,stimuli/own/bathroom/140_bat.jpg,,,,,,,,,0,16,16,293,348.040782416,,,,,,,,,,,348.325263916,348.492963083,348.492963083,348.492963083,348.492963083,348.492963083,348.492963083,348.492963083,348.492963083,348.492963083,361.94295500000004,-7,7,1,4.0,5.622955207999894,4.0,12.926071208000053,348.03434729099996,348.040782416,348.492963083,348.325245875,,,,,,,,348.03090233300003,348.034299333,None,,,,,,,,,,,207,bathroom,1,2024-03-16_09h06.52.306,image_similarity_rating,2023.2.3,None,2024-03-16 09h07.06.193690 +0100,
,114,123,303,303,stimuli/own/bathroom/114_bat.jpg,stimuli/own/bathroom/123_bat.jpg,,,,,,,,,0,17,17,302,361.94860445800003,,,,,,,,,,,362.241815208,362.406281375,362.406281375,362.406281375,362.406281375,362.406281375,362.406281375,362.406281375,362.406281375,362.406281375,370.30156004099996,7,-7,1,3.0,5.336394708000057,4.0,7.647790249999957,361.94665349999997,361.94860445800003,362.406281375,362.24179995799994,,,,,,,,361.9431785,361.94660570799994,None,,,,,,,,,,,207,bathroom,1,2024-03-16_09h06.52.306,image_similarity_rating,2023.2.3,None,2024-03-16 09h07.06.193690 +0100,
,127,130,519,519,stimuli/own/bathroom/127_bat.jpg,stimuli/own/bathroom/130_bat.jpg,,,,,,,,,0,18,18,518,370.30707020799997,,,,,,,,,,,370.591746666,370.760590625,370.760590625,370.760590625,370.760590625,370.760590625,370.760590625,370.760590625,370.760590625,370.760590625,381.87977995800003,7,-7,1,6.0,8.52069716599999,4.0,10.908238041999994,370.30523345800003,370.30707020799997,370.760590625,370.59171791599994,,,,,,,,370.30178504099996,370.30518591599997,None,,,,,,,,,,,207,bathroom,1,2024-03-16_09h06.52.306,image_similarity_rating,2023.2.3,None,2024-03-16 09h07.06.193690 +0100,
,105,113,135,135,stimuli/own/bathroom/105_bat.jpg,stimuli/own/bathroom/113_bat.jpg,,,,,,,,,0,19,19,134,381.89086166600003,,,,,,,,,,,382.175095625,382.34470704099994,382.34470704099994,382.34470704099994,382.34470704099994,382.34470704099994,382.34470704099994,382.34470704099994,382.34470704099994,382.34470704099994,398.039737708,-7,7,1,3.0,13.136743832999969,2.0,14.886206792000053,381.88356879099996,381.89086166600003,382.34470704099994,382.17507812499997,,,,,,,,381.88000708299995,381.8835185,None,,,,,,,,,,,207,bathroom,1,2024-03-16_09h06.52.306,image_similarity_rating,2023.2.3,None,2024-03-16 09h07.06.193690 +0100,
,123,125,461,461,stimuli/own/bathroom/123_bat.jpg,stimuli/own/bathroom/125_bat.jpg,,,,,,,,,0,20,20,460,398.045392875,,,,,,,,,,,398.32899374999994,398.494454083,398.494454083,398.494454083,398.494454083,398.494454083,398.494454083,398.494454083,398.494454083,398.494454083,408.7011965,7,-7,1,6.0,8.076923749999992,4.0,10.08131929199999,398.043463833,398.045392875,398.494454083,398.32898137499996,,,,,,,,398.039964333,398.04341537499994,None,,,,,,,,,,,207,bathroom,1,2024-03-16_09h06.52.306,image_similarity_rating,2023.2.3,None,2024-03-16 09h07.06.193690 +0100,
,104,136,125,125,stimuli/own/bathroom/104_bat.jpg,stimuli/own/bathroom/136_bat.jpg,,,,,,,,,0,21,21,124,408.70687070799994,,,,,,,,,,,408.99237729099997,409.15754087499994,409.15754087499994,409.15754087499994,409.15754087499994,409.15754087499994,409.15754087499994,409.15754087499994,409.15754087499994,409.15754087499994,418.134453083,7,-7,1,5.0,5.518597290999992,3.0,8.804342791999943,408.704977916,408.70687070799994,409.15754087499994,408.992361583,,,,,,,,408.701420833,408.70493033299994,None,,,,,,,,,,,207,bathroom,1,2024-03-16_09h06.52.306,image_similarity_rating,2023.2.3,None,2024-03-16 09h07.06.193690 +0100,
,109,113,192,192,stimuli/own/bathroom/109_bat.jpg,stimuli/own/bathroom/113_bat.jpg,,,,,,,,,0,22,22,191,418.13992249999995,,,,,,,,,,,418.424824333,418.59107587499994,418.59107587499994,418.59107587499994,418.59107587499994,418.59107587499994,418.59107587499994,418.59107587499994,418.59107587499994,418.59107587499994,430.96923554099993,7,-7,1,3.0,11.012403625000047,2.0,12.003188459000057,418.138166541,418.13992249999995,418.59107587499994,418.42480795800003,,,,,,,,418.13467958300004,418.13811912499995,None,,,,,,,,,,,207,bathroom,1,2024-03-16_09h06.52.306,image_similarity_rating,2023.2.3,None,2024-03-16 09h07.06.193690 +0100,
,137,139,587,587,stimuli/own/bathroom/137_bat.jpg,stimuli/own/bathroom/139_bat.jpg,,,,,,,,,0,23,23,586,430.97498345799994,,,,,,,,,,,431.258297208,431.42846249999997,431.42846249999997,431.42846249999997,431.42846249999997,431.42846249999997,431.42846249999997,431.42846249999997,431.42846249999997,431.42846249999997,445.167829583,-7,7,1,1.0,7.163972583000032,2.0,9.977651084000058,430.973109791,430.97498345799994,431.42846249999997,431.258279083,,,,,,,,430.969460791,430.97306158299995,None,,,,,,,,,,,207,bathroom,1,2024-03-16_09h06.52.306,image_similarity_rating,2023.2.3,None,2024-03-16 09h07.06.193690 +0100,
,109,126,204,204,stimuli/own/bathroom/109_bat.jpg,stimuli/own/bathroom/126_bat.jpg,,,,,,,,,0,24,24,203,445.17368108299996,,,,,,,,,,,445.458166166,445.62444754099994,445.62444754099994,445.62444754099994,445.62444754099994,445.62444754099994,445.62444754099994,445.62444754099994,445.62444754099994,445.62444754099994,454.825929291,-7,7,1,2.0,4.685302875000048,3.0,6.225418083000022,445.171541708,445.17368108299996,445.62444754099994,445.458149708,,,,,,,,445.168058208,445.171494375,None,,,,,,,,,,,207,bathroom,1,2024-03-16_09h06.52.306,image_similarity_rating,2023.2.3,None,2024-03-16 09h07.06.193690 +0100,
,123,137,471,471,stimuli/own/bathroom/123_bat.jpg,stimuli/own/bathroom/137_bat.jpg,,,,,,,,,0,25,25,470,454.83155800000003,,,,,,,,,,,455.124683208,455.29031941599993,455.29031941599993,455.29031941599993,455.29031941599993,455.29031941599993,455.29031941599993,455.29031941599993,455.29031941599993,455.29031941599993,464.759207,7,-7,1,3.0,8.717230250000057,4.0,3.774852624999994,454.829612416,454.83155800000003,455.29031941599993,455.124658,,,,,,,,454.82615670800004,454.82956462499993,None,,,,,,,,,,,207,bathroom,1,2024-03-16_09h06.52.306,image_similarity_rating,2023.2.3,None,2024-03-16 09h07.06.193690 +0100,
,111,140,243,243,stimuli/own/bathroom/111_bat.jpg,stimuli/own/bathroom/140_bat.jpg,,,,,,,,,0,26,26,242,464.76465441600004,,,,,,,,,,,465.057969375,465.22501174999996,465.22501174999996,465.22501174999996,465.22501174999996,465.22501174999996,465.22501174999996,465.22501174999996,465.22501174999996,465.22501174999996,473.10547812499993,-7,7,1,5.0,4.804149166000002,5.0,6.719273499999986,464.762904083,464.76465441600004,465.22501174999996,465.05795425,,,,,,,,464.759433708,464.762856333,None,,,,,,,,,,,207,bathroom,1,2024-03-16_09h06.52.306,image_similarity_rating,2023.2.3,None,2024-03-16 09h07.06.193690 +0100,
,123,134,468,468,stimuli/own/bathroom/123_bat.jpg,stimuli/own/bathroom/134_bat.jpg,,,,,,,,,0,27,27,467,473.11126937499995,,,,,,,,,,,473.395259208,473.56034399999993,473.56034399999993,473.56034399999993,473.56034399999993,473.56034399999993,473.56034399999993,473.56034399999993,473.56034399999993,473.56034399999993,480.550916041,7,-7,1,5.0,4.687913875000049,4.0,6.814813542000024,473.10932933299995,473.11126937499995,473.56034399999993,473.39524691599996,,,,,,,,473.10570991599997,473.109281041,None,,,,,,,,,,,207,bathroom,1,2024-03-16_09h06.52.306,image_similarity_rating,2023.2.3,None,2024-03-16 09h07.06.193690 +0100,
,122,129,448,448,stimuli/own/bathroom/122_bat.jpg,stimuli/own/bathroom/129_bat.jpg,,,,,,,,,0,28,28,447,480.556484625,,,,,,,,,,,480.84129575000003,481.00954833299994,481.00954833299994,481.00954833299994,481.00954833299994,481.00954833299994,481.00954833299994,481.00954833299994,481.00954833299994,481.00954833299994,487.813268916,7,-7,1,3.0,3.086033250000014,4.0,6.154495916999963,480.554584875,480.556484625,481.00954833299994,480.84127862500003,,,,,,,,480.551140125,480.55453499999993,None,,,,,,,,,,,207,bathroom,1,2024-03-16_09h06.52.306,image_similarity_rating,2023.2.3,None,2024-03-16 09h07.06.193690 +0100,
,103,140,98,98,stimuli/own/bathroom/103_bat.jpg,stimuli/own/bathroom/140_bat.jpg,,,,,,,,,0,29,29,97,487.823342708,,,,,,,,,,,488.10784962500003,488.27633375,488.27633375,488.27633375,488.27633375,488.27633375,488.27633375,488.27633375,488.27633375,488.27633375,497.88911625,-7,7,1,5.0,7.011800666999989,4.0,9.435968375000016,487.81703716600003,487.823342708,488.27633375,488.107832125,,,,,,,,487.813497166,487.81698950000003,None,,,,,,,,,,,207,bathroom,1,2024-03-16_09h06.52.306,image_similarity_rating,2023.2.3,None,2024-03-16 09h07.06.193690 +0100,
,102,139,65,607,stimuli/own/bathroom/102_bat.jpg,stimuli/own/bathroom/139_bat.jpg,,,,,,,,,0,30,30,606,497.8949495,,,,,,,,,,,498.178927416,498.34763583299997,498.34763583299997,498.34763583299997,498.34763583299997,498.34763583299997,498.34763583299997,498.34763583299997,498.34763583299997,498.34763583299997,509.326187208,-7,7,1,4.0,8.866117375000044,3.0,10.80439479100005,497.89284466600003,497.8949495,498.34763583299997,498.17891212499995,,,,,,,,497.889340708,497.89279708299995,None,,,,,,,,,,,207,bathroom,1,2024-03-16_09h06.52.306,image_similarity_rating,2023.2.3,None,2024-03-16 09h07.06.193690 +0100,
,101,117,12,12,stimuli/own/bathroom/101_bat.jpg,stimuli/own/bathroom/117_bat.jpg,,,,,,,,,0,31,31,11,509.331997791,,,,,,,,,,,509.624745541,509.789814833,509.789814833,509.789814833,509.789814833,509.789814833,509.789814833,509.789814833,509.789814833,509.789814833,515.6383953330001,-7,7,1,6.0,3.650467875000004,5.0,5.476942709000014,509.32988870799994,509.331997791,509.789814833,509.62473170799996,,,,,,,,509.326411208,509.32984137499994,None,,,,,,,,,,,207,bathroom,1,2024-03-16_09h06.52.306,image_similarity_rating,2023.2.3,None,2024-03-16 09h07.06.193690 +0100,
,101,109,6,6,stimuli/own/bathroom/101_bat.jpg,stimuli/own/bathroom/109_bat.jpg,,,,,,,,,0,32,32,5,515.643895083,,,,,,,,,,,515.928299791,516.091962916,516.091962916,516.091962916,516.091962916,516.091962916,516.091962916,516.091962916,516.091962916,516.091962916,523.50137425,-7,7,1,2.0,5.427922624999951,2.0,6.586371999999983,515.6421265829999,515.643895083,516.091962916,515.92828925,,,,,,,,515.638617625,515.6420788329999,None,,,,,,,,,,,207,bathroom,1,2024-03-16_09h06.52.306,image_similarity_rating,2023.2.3,None,2024-03-16 09h07.06.193690 +0100,
,111,126,231,231,stimuli/own/bathroom/111_bat.jpg,stimuli/own/bathroom/126_bat.jpg,,,,,,,,,0,33,33,230,523.507721666,,,,,,,,,,,523.7913113330001,523.9556002080001,523.9556002080001,523.9556002080001,523.9556002080001,523.9556002080001,523.9556002080001,523.9556002080001,523.9556002080001,523.9556002080001,531.284118416,-7,7,1,5.0,5.700960916999975,4.0,7.092317125000022,523.5051980000001,523.507721666,523.9556002080001,523.791297625,,,,,,,,523.501612666,523.505146166,None,,,,,,,,,,,207,bathroom,1,2024-03-16_09h06.52.306,image_similarity_rating,2023.2.3,None,2024-03-16 09h07.06.193690 +0100,
,113,124,280,280,stimuli/own/bathroom/113_bat.jpg,stimuli/own/bathroom/124_bat.jpg,,,,,,,,,0,34,34,279,531.2896691660001,,,,,,,,,,,531.574622541,531.740674291,531.740674291,531.740674291,531.740674291,531.740674291,531.740674291,531.740674291,531.740674291,531.740674291,541.934165458,-7,7,1,4.0,6.185474625000097,5.0,10.067900791999932,531.287886375,531.2896691660001,531.740674291,531.574606375,,,,,,,,531.28434225,531.28783825,None,,,,,,,,,,,207,bathroom,1,2024-03-16_09h06.52.306,image_similarity_rating,2023.2.3,None,2024-03-16 09h07.06.193690 +0100,
,104,105,100,100,stimuli/own/bathroom/104_bat.jpg,stimuli/own/bathroom/105_bat.jpg,,,,,,,,,0,35,35,99,541.939649958,,,,,,,,,,,542.2243759999999,542.3924200409999,542.3924200409999,542.3924200409999,542.3924200409999,542.3924200409999,542.3924200409999,542.3924200409999,542.3924200409999,542.3924200409999,555.1841038749999,-7,7,1,2.0,10.875666082999942,2.0,12.623492792000093,541.9378463749999,541.939649958,542.3924200409999,542.2243584160001,,,,,,,,541.9343900829999,541.937799,None,,,,,,,,,,,207,bathroom,1,2024-03-16_09h06.52.306,image_similarity_rating,2023.2.3,None,2024-03-16 09h07.06.193690 +0100,
,131,134,552,552,stimuli/own/bathroom/131_bat.jpg,stimuli/own/bathroom/134_bat.jpg,,,,,,,,,0,36,36,551,555.1895837079999,,,,,,,,,,,555.4744330829999,555.639497208,555.639497208,555.639497208,555.639497208,555.639497208,555.639497208,555.639497208,555.639497208,555.639497208,563.262247833,-7,7,1,2.0,5.349714457999994,5.0,7.4816420420000895,555.187786,555.1895837079999,555.639497208,555.4744195830001,,,,,,,,555.1843294580001,555.187736291,None,,,,,,,,,,,207,bathroom,1,2024-03-16_09h06.52.306,image_similarity_rating,2023.2.3,None,2024-03-16 09h07.06.193690 +0100,
,132,140,566,566,stimuli/own/bathroom/132_bat.jpg,stimuli/own/bathroom/140_bat.jpg,,,,,,,,,0,37,37,565,563.2730326660001,,,,,,,,,,,563.557504375,563.7240843750001,563.7240843750001,563.7240843750001,563.7240843750001,563.7240843750001,563.7240843750001,563.7240843750001,563.7240843750001,563.7240843750001,573.179576666,7,-7,1,6.0,7.641674207999927,5.0,9.317964249999932,563.265928541,563.2730326660001,563.7240843750001,563.5574885000001,,,,,,,,563.262473041,563.2658805000001,None,,,,,,,,,,,207,bathroom,1,2024-03-16_09h06.52.306,image_similarity_rating,2023.2.3,None,2024-03-16 09h07.06.193690 +0100,
,131,140,558,558,stimuli/own/bathroom/131_bat.jpg,stimuli/own/bathroom/140_bat.jpg,,,,,,,,,0,38,38,557,573.18979625,,,,,,,,,,,573.474130625,573.63895275,573.63895275,573.63895275,573.63895275,573.63895275,573.63895275,573.63895275,573.63895275,573.63895275,579.6175692909999,-7,7,1,2.0,4.086628207999979,2.0,5.890758541999958,573.1833556659999,573.18979625,573.63895275,573.4741152500001,,,,,,,,573.1798006250001,573.1833080829999,None,,,,,,,,,,,207,bathroom,1,2024-03-16_09h06.52.306,image_similarity_rating,2023.2.3,None,2024-03-16 09h07.06.193690 +0100,
,112,132,262,610,stimuli/own/bathroom/112_bat.jpg,stimuli/own/bathroom/132_bat.jpg,,,,,,,,,0,39,39,609,579.639816333,,,,,,,,,,,579.9237229999999,580.09473,580.09473,580.09473,580.09473,580.09473,580.09473,580.09473,580.09473,580.09473,587.258627875,7,-7,1,3.0,4.667189042000018,3.0,7.0787888750001,579.621239416,579.639816333,,579.9237008329999,,,,,,,,579.6177925,579.6211920410001,None,,,,,,,,,,,207,bathroom,1,2024-03-16_09h06.52.306,image_similarity_rating,2023.2.3,None,2024-03-16 09h07.06.193690 +0100,
,119,136,400,400,stimuli/own/bathroom/119_bat.jpg,stimuli/own/bathroom/136_bat.jpg,,,,,,,,,0,40,40,399,587.264236125,,,,,,,,,,,587.5575576660001,587.723626,587.723626,587.723626,587.723626,587.723626,587.723626,587.723626,587.723626,587.723626,594.4297443329999,-7,7,1,6.0,5.761008500000003,7.0,6.53253508399996,587.2623062079999,587.264236125,587.723626,587.5575402499999,,,,,,,,587.2588525829999,587.26225875,None,,,,,,,,,,,207,bathroom,1,2024-03-16_09h06.52.306,image_similarity_rating,2023.2.3,None,2024-03-16 09h07.06.193690 +0100,
,129,130,530,530,stimuli/own/bathroom/129_bat.jpg,stimuli/own/bathroom/130_bat.jpg,,,,,,,,,0,41,41,529,594.4395775,,,,,,,,,,,594.7241362499999,594.8906535409999,594.8906535409999,594.8906535409999,594.8906535409999,594.8906535409999,594.8906535409999,594.8906535409999,594.8906535409999,594.8906535409999,602.3123343330001,-7,7,1,6.0,5.152250707999997,5.0,7.1866881659999535,594.433513708,594.4395775,594.8906535409999,594.7241201659999,,,,,,,,594.4299666249999,594.4334638329999,None,,,,,,,,,,,207,bathroom,1,2024-03-16_09h06.52.306,image_similarity_rating,2023.2.3,None,2024-03-16 09h07.06.193690 +0100,
,120,139,422,422,stimuli/own/bathroom/120_bat.jpg,stimuli/own/bathroom/139_bat.jpg,,,,,,,,,0,42,42,421,602.32317625,,,,,,,,,,,602.607654958,602.775394041,602.775394041,602.775394041,602.775394041,602.775394041,602.775394041,602.775394041,602.775394041,602.775394041,612.796330208,-7,7,1,5.0,8.31772545800004,5.0,9.835685499999954,602.316018708,602.32317625,602.775394041,602.6076372499999,,,,,,,,602.3125587909999,602.3159713749999,None,,,,,,,,,,,207,bathroom,1,2024-03-16_09h06.52.306,image_similarity_rating,2023.2.3,None,2024-03-16 09h07.06.193690 +0100,
,112,125,256,256,stimuli/own/bathroom/112_bat.jpg,stimuli/own/bathroom/125_bat.jpg,,,,,,,,,0,43,43,255,612.806302625,,,,,,,,,,,613.090712875,613.258026875,613.258026875,613.258026875,613.258026875,613.258026875,613.258026875,613.258026875,613.258026875,613.258026875,622.4335785000001,-7,7,1,5.0,7.2350542090000545,4.0,9.002291042000024,612.8000825409999,612.806302625,613.258026875,613.090695375,,,,,,,,612.7965543749999,612.800034375,None,,,,,,,,,,,207,bathroom,1,2024-03-16_09h06.52.306,image_similarity_rating,2023.2.3,None,2024-03-16 09h07.06.193690 +0100,
,121,136,437,437,stimuli/own/bathroom/121_bat.jpg,stimuli/own/bathroom/136_bat.jpg,,,,,,,,,0,44,44,436,622.4391841249999,,,,,,,,,,,622.7247072499999,622.891148916,622.891148916,622.891148916,622.891148916,622.891148916,622.891148916,622.891148916,622.891148916,622.891148916,630.338061791,7,-7,1,6.0,3.7989545829999543,5.0,7.241982417000031,622.4372725410001,622.4391841249999,622.891148916,622.7246901660001,,,,,,,,622.4338031249999,622.43722475,None,,,,,,,,,,,207,bathroom,1,2024-03-16_09h06.52.306,image_similarity_rating,2023.2.3,None,2024-03-16 09h07.06.193690 +0100,
,120,122,407,407,stimuli/own/bathroom/120_bat.jpg,stimuli/own/bathroom/122_bat.jpg,,,,,,,,,0,45,45,406,630.3438247910001,,,,,,,,,,,630.6279877910001,630.792149416,630.792149416,630.792149416,630.792149416,630.792149416,630.792149416,630.792149416,630.792149416,630.792149416,637.246729875,-7,7,1,4.0,3.750279542000044,6.0,6.42322887499995,630.3418618329999,630.3438247910001,630.792149416,630.62797475,,,,,,,,630.3382867079999,630.34181425,None,,,,,,,,,,,207,bathroom,1,2024-03-16_09h06.52.306,image_similarity_rating,2023.2.3,None,2024-03-16 09h07.06.193690 +0100,
,130,131,541,541,stimuli/own/bathroom/130_bat.jpg,stimuli/own/bathroom/131_bat.jpg,,,,,,,,,0,46,46,540,637.2558905830001,,,,,,,,,,,637.5405800410001,637.7094944580001,637.7094944580001,637.7094944580001,637.7094944580001,637.7094944580001,637.7094944580001,637.7094944580001,637.7094944580001,637.7094944580001,646.5418508750001,7,-7,1,2.0,4.798933042000044,3.0,8.51339429199993,637.2503964580001,637.2558905830001,637.7094944580001,637.540563458,,,,,,,,637.2469544580001,637.2503483330001,None,,,,,,,,,,,207,bathroom,1,2024-03-16_09h06.52.306,image_similarity_rating,2023.2.3,None,2024-03-16 09h07.06.193690 +0100,
,106,132,181,181,stimuli/own/bathroom/106_bat.jpg,stimuli/own/bathroom/132_bat.jpg,,,,,,,,,0,47,47,180,646.547619041,,,,,,,,,,,646.840597208,647.0101466250001,647.0101466250001,647.0101466250001,647.0101466250001,647.0101466250001,647.0101466250001,647.0101466250001,647.0101466250001,647.0101466250001,655.275965416,-7,7,1,3.0,8.07056683299993,1.0,6.563180375000002,646.5457200000001,646.547619041,647.0101466250001,646.840576333,,,,,,,,646.542083625,646.545670833,None,,,,,,,,,,,207,bathroom,1,2024-03-16_09h06.52.306,image_similarity_rating,2023.2.3,None,2024-03-16 09h07.06.193690 +0100,
,106,114,165,165,stimuli/own/bathroom/106_bat.jpg,stimuli/own/bathroom/114_bat.jpg,,,,,,,,,0,48,48,164,655.2892455000001,,,,,,,,,,,655.573827875,655.7374459160001,655.7374459160001,655.7374459160001,655.7374459160001,655.7374459160001,655.7374459160001,655.7374459160001,655.7374459160001,655.7374459160001,664.7248979580002,7,-7,1,4.0,8.884388209000008,5.0,5.777232124999955,655.279903416,655.2892455000001,655.7374459160001,655.573815,,,,,,,,655.276205833,655.2798500410001,None,,,,,,,,,,,207,bathroom,1,2024-03-16_09h06.52.306,image_similarity_rating,2023.2.3,None,2024-03-16 09h07.06.193690 +0100,
,102,132,59,59,stimuli/own/bathroom/102_bat.jpg,stimuli/own/bathroom/132_bat.jpg,,,,,,,,,0,49,49,58,664.7305067080001,,,,,,,,,,,665.023880791,665.1909465830001,665.1909465830001,665.1909465830001,665.1909465830001,665.1909465830001,665.1909465830001,665.1909465830001,665.1909465830001,665.1909465830001,674.8047046660001,7,-7,1,4.0,9.485870833000035,4.0,6.928473250000025,664.7286839160001,664.7305067080001,665.1909465830001,665.023863333,,,,,,,,664.7251220410001,664.728636625,None,,,,,,,,,,,207,bathroom,1,2024-03-16_09h06.52.306,image_similarity_rating,2023.2.3,None,2024-03-16 09h07.06.193690 +0100,
,103,127,87,87,stimuli/own/bathroom/103_bat.jpg,stimuli/own/bathroom/127_bat.jpg,,,,,,,,,0,50,50,86,674.810612,,,,,,,,,,,675.094701791,675.262955791,675.262955791,675.262955791,675.262955791,675.262955791,675.262955791,675.262955791,675.262955791,675.262955791,682.5376425,7,-7,1,4.0,4.449555124999961,2.0,7.099909416999935,674.8085834999999,674.810612,675.262955791,675.094686166,,,,,,,,674.804960125,674.808535875,None,,,,,,,,,,,207,bathroom,1,2024-03-16_09h06.52.306,image_similarity_rating,2023.2.3,None,2024-03-16 09h07.06.193690 +0100,
,113,138,292,292,stimuli/own/bathroom/113_bat.jpg,stimuli/own/bathroom/138_bat.jpg,,,,,,,,,0,51,51,291,682.5431652500001,,,,,,,,,,,682.8279829160001,682.997420125,682.997420125,682.997420125,682.997420125,682.997420125,682.997420125,682.997420125,682.997420125,682.997420125,695.01213925,7,-7,1,5.0,11.934074083000041,2.0,4.714856750000081,682.5413854160001,682.5431652500001,682.997420125,682.8279675410001,,,,,,,,682.537869583,682.5413343750001,None,,,,,,,,,,,207,bathroom,1,2024-03-16_09h06.52.306,image_similarity_rating,2023.2.3,None,2024-03-16 09h07.06.193690 +0100,
,138,140,591,591,stimuli/own/bathroom/138_bat.jpg,stimuli/own/bathroom/140_bat.jpg,,,,,,,,,0,52,52,590,695.0223913750001,,,,,,,,,,,695.307041041,695.4719917909999,695.4719917909999,695.4719917909999,695.4719917909999,695.4719917909999,695.4719917909999,695.4719917909999,695.4719917909999,695.4719917909999,708.037914666,-7,7,1,3.0,12.223743457999944,2.0,5.2053194999998595,695.015880083,695.0223913750001,695.4719917909999,695.3070259579999,,,,,,,,695.012363666,695.0158305,None,,,,,,,,,,,207,bathroom,1,2024-03-16_09h06.52.306,image_similarity_rating,2023.2.3,None,2024-03-16 09h07.06.193690 +0100,
,105,120,141,141,stimuli/own/bathroom/105_bat.jpg,stimuli/own/bathroom/120_bat.jpg,,,,,,,,,0,53,53,140,708.043435583,,,,,,,,,,,708.3279855410001,708.4950894579999,708.4950894579999,708.4950894579999,708.4950894579999,708.4950894579999,708.4950894579999,708.4950894579999,708.4950894579999,708.4950894579999,714.242173458,-7,7,1,4.0,5.320625000000064,5.0,2.91616850000014,708.0416741660001,708.043435583,708.4950894579999,708.327971708,,,,,,,,708.0381635000001,708.041625541,None,,,,,,,,,,,207,bathroom,1,2024-03-16_09h06.52.306,image_similarity_rating,2023.2.3,None,2024-03-16 09h07.06.193690 +0100,
,111,139,242,242,stimuli/own/bathroom/111_bat.jpg,stimuli/own/bathroom/139_bat.jpg,,,,,,,,,0,54,54,241,714.2477545000002,,,,,,,,,,,714.5404596660001,714.705412583,714.705412583,714.705412583,714.705412583,714.705412583,714.705412583,714.705412583,714.705412583,714.705412583,724.05439525,7,-7,1,4.0,5.9219227500000216,3.0,8.714286166999955,714.2458275410002,714.2477545000002,714.705412583,714.5404436660001,,,,,,,,714.242397125,714.2457803750001,None,,,,,,,,,,,207,bathroom,1,2024-03-16_09h06.52.306,image_similarity_rating,2023.2.3,None,2024-03-16 09h07.06.193690 +0100,
,114,124,304,304,stimuli/own/bathroom/114_bat.jpg,stimuli/own/bathroom/124_bat.jpg,,,,,,,,,0,55,55,303,724.0601127500001,,,,,,,,,,,724.344722625,724.5110817500001,724.5110817500001,724.5110817500001,724.5110817500001,724.5110817500001,724.5110817500001,724.5110817500001,724.5110817500001,724.5110817500001,734.428589958,7,-7,1,5.0,7.9364035839998905,3.0,9.767750624999962,724.0581986249999,724.0601127500001,724.5110817500001,724.344708958,,,,,,,,724.0546294580001,724.0581515000001,None,,,,,,,,,,,207,bathroom,1,2024-03-16_09h06.52.306,image_similarity_rating,2023.2.3,None,2024-03-16 09h07.06.193690 +0100,
,106,123,173,173,stimuli/own/bathroom/106_bat.jpg,stimuli/own/bathroom/123_bat.jpg,,,,,,,,,0,56,56,172,734.4388994580002,,,,,,,,,,,734.7237245410001,734.8863807079999,734.8863807079999,734.8863807079999,734.8863807079999,734.8863807079999,734.8863807079999,734.8863807079999,734.8863807079999,734.8863807079999,745.216346916,-7,7,1,4.0,9.21645291699997,1.0,5.6587056659998325,734.432241791,734.4388994580002,734.8863807079999,734.723713958,,,,,,,,734.4288147080001,734.432194541,None,,,,,,,,,,,207,bathroom,1,2024-03-16_09h06.52.306,image_similarity_rating,2023.2.3,None,2024-03-16 09h07.06.193690 +0100,
,120,138,421,421,stimuli/own/bathroom/120_bat.jpg,stimuli/own/bathroom/138_bat.jpg,,,,,,,,,0,57,57,420,745.2218842910002,,,,,,,,,,,745.5068087910001,745.67557225,745.67557225,745.67557225,745.67557225,745.67557225,745.67557225,745.67557225,745.67557225,745.67557225,755.2665945000001,-7,7,1,6.0,5.776142542000116,3.0,8.71757112499995,745.2201085000002,745.2218842910002,745.67557225,745.506784041,,,,,,,,745.216573041,745.220060875,None,,,,,,,,,,,207,bathroom,1,2024-03-16_09h06.52.306,image_similarity_rating,2023.2.3,None,2024-03-16 09h07.06.193690 +0100,
,102,139,65,606,stimuli/own/bathroom/102_bat.jpg,stimuli/own/bathroom/139_bat.jpg,,,,,,,,,0,58,58,605,755.272119833,,,,,,,,,,,755.5567664580001,755.7214571250001,755.7214571250001,755.7214571250001,755.7214571250001,755.7214571250001,755.7214571250001,755.7214571250001,755.7214571250001,755.7214571250001,764.242121666,-7,7,1,4.0,5.072227624999869,5.0,8.184071708000147,755.270275416,755.272119833,755.7214571250001,755.55675225,,,,,,,,755.2668223329999,755.270227875,None,,,,,,,,,,,207,bathroom,1,2024-03-16_09h06.52.306,image_similarity_rating,2023.2.3,None,2024-03-16 09h07.06.193690 +0100,
,101,134,27,27,stimuli/own/bathroom/101_bat.jpg,stimuli/own/bathroom/134_bat.jpg,,,,,,,,,0,59,59,26,764.2555184160001,,,,,,,,,,,764.5405882500002,764.706029,764.706029,764.706029,764.706029,764.706029,764.706029,764.706029,764.706029,764.706029,775.5911490000001,7,-7,1,5.0,9.527330333000009,3.0,10.574110957999892,764.2458977910001,764.2555184160001,764.706029,764.540572208,,,,,,,,764.242353541,764.2458483750002,None,,,,,,,,,,,207,bathroom,1,2024-03-16_09h06.52.306,image_similarity_rating,2023.2.3,None,2024-03-16 09h07.06.193690 +0100,
,123,124,460,460,stimuli/own/bathroom/123_bat.jpg,stimuli/own/bathroom/124_bat.jpg,,,,,,,,,0,60,60,459,775.596706666,,,,,,,,,,,775.89007025,776.05483125,776.05483125,776.05483125,776.05483125,776.05483125,776.05483125,776.05483125,776.05483125,776.05483125,785.7077785000001,-7,7,1,5.0,7.302793750000092,3.0,9.343065999999908,775.594799791,775.596706666,776.05483125,775.8900545410002,,,,,,,,775.5913732910001,775.594752833,None,,,,,,,,,,,207,bathroom,1,2024-03-16_09h06.52.306,image_similarity_rating,2023.2.3,None,2024-03-16 09h07.06.193690 +0100,
,113,119,275,275,stimuli/own/bathroom/113_bat.jpg,stimuli/own/bathroom/119_bat.jpg,,,,,,,,,0,61,61,274,785.713478208,,,,,,,,,,,786.006662125,786.1781262910001,786.1781262910001,786.1781262910001,786.1781262910001,786.1781262910001,786.1781262910001,786.1781262910001,786.1781262910001,786.1781262910001,797.416762333,7,-7,1,5.0,9.849865375000036,6.0,3.083257250000088,785.71155,785.713478208,786.1781262910001,786.0066395410001,,,,,,,,785.7080035829999,785.711503041,None,,,,,,,,,,,207,bathroom,1,2024-03-16_09h06.52.306,image_similarity_rating,2023.2.3,None,2024-03-16 09h07.06.193690 +0100,
,105,109,132,132,stimuli/own/bathroom/105_bat.jpg,stimuli/own/bathroom/109_bat.jpg,,,,,,,,,0,62,62,131,797.438772875,,,,,,,,,,,797.722849083,797.894139541,797.894139541,797.894139541,797.894139541,797.894139541,797.894139541,797.894139541,797.894139541,797.894139541,807.924451375,-7,7,1,2.0,9.90723816700006,2.0,3.4193215830000554,797.420521666,797.438772875,,797.72282625,,,,,,,,797.4169992910001,797.4204621660001,None,,,,,,,,,,,207,bathroom,1,2024-03-16_09h06.52.306,image_similarity_rating,2023.2.3,None,2024-03-16 09h07.06.193690 +0100,
,114,127,307,307,stimuli/own/bathroom/114_bat.jpg,stimuli/own/bathroom/127_bat.jpg,,,,,,,,,0,63,63,306,807.9300633750001,,,,,,,,,,,815.88997425,816.0636117500001,816.0636117500001,816.0636117500001,816.0636117500001,816.0636117500001,816.0636117500001,816.0636117500001,816.0636117500001,816.0636117500001,823.7615887500001,-7,7,2,4.0,5.641044332999854,7.0,7.3119711249999,815.598650916,815.606059916,816.0636117500001,815.8899570830001,,,,,,,,807.924670875,815.5973193750001,space,807.9300633750001,7.667082583000138,None,,,,,,,,207,bathroom,1,2024-03-16_09h06.52.306,image_similarity_rating,2023.2.3,None,2024-03-16 09h07.06.193690 +0100,
,129,131,531,531,stimuli/own/bathroom/129_bat.jpg,stimuli/own/bathroom/131_bat.jpg,,,,,,,,,0,64,64,530,823.7719877910001,,,,,,,,,,,824.057266041,824.22097975,824.22097975,824.22097975,824.22097975,824.22097975,824.22097975,824.22097975,824.22097975,824.22097975,832.1244315829999,7,-7,2,1.0,5.2225073750000774,5.0,7.816672042000164,823.765924,823.7719877910001,824.22097975,824.0572527080001,,,,,,,,823.761809458,823.7658757910001,None,,,,,,,,,,,207,bathroom,1,2024-03-16_09h06.52.306,image_similarity_rating,2023.2.3,None,2024-03-16 09h07.06.193690 +0100,
,104,138,127,127,stimuli/own/bathroom/104_bat.jpg,stimuli/own/bathroom/138_bat.jpg,,,,,,,,,0,65,65,126,832.130033375,,,,,,,,,,,832.423203333,832.5896902080001,832.5896902080001,832.5896902080001,832.5896902080001,832.5896902080001,832.5896902080001,832.5896902080001,832.5896902080001,832.5896902080001,840.4710290410001,7,-7,2,5.0,5.6850687090000065,2.0,7.705714124999986,832.128092291,832.130033375,832.5896902080001,832.4231857910002,,,,,,,,832.124656125,832.128044416,None,,,,,,,,,,,207,bathroom,1,2024-03-16_09h06.52.306,image_similarity_rating,2023.2.3,None,2024-03-16 09h07.06.193690 +0100,
,119,127,393,393,stimuli/own/bathroom/119_bat.jpg,stimuli/own/bathroom/127_bat.jpg,,,,,,,,,0,66,66,392,840.4769074160001,,,,,,,,,,,840.7603010830001,840.925635,840.925635,840.925635,840.925635,840.925635,840.925635,840.925635,840.925635,840.925635,850.587169416,-7,7,2,6.0,7.242449958999941,3.0,9.048413083000014,840.4749729580001,840.4769074160001,840.925635,840.7602884160001,,,,,,,,840.4712502500001,840.474923083,None,,,,,,,,,,,207,bathroom,1,2024-03-16_09h06.52.306,image_similarity_rating,2023.2.3,None,2024-03-16 09h07.06.193690 +0100,
,130,132,542,542,stimuli/own/bathroom/130_bat.jpg,stimuli/own/bathroom/132_bat.jpg,,,,,,,,,0,67,67,541,850.5927978750001,,,,,,,,,,,850.8773095829999,851.04755675,851.04755675,851.04755675,851.04755675,851.04755675,851.04755675,851.04755675,851.04755675,851.04755675,858.7614287910001,-7,7,2,5.0,7.588592791999872,2.0,5.699396041999989,850.590863208,850.5927978750001,851.04755675,850.8772945000001,,,,,,,,850.58739375,850.5908154159999,None,,,,,,,,,,,207,bathroom,1,2024-03-16_09h06.52.306,image_similarity_rating,2023.2.3,None,2024-03-16 09h07.06.193690 +0100,
,121,129,431,431,stimuli/own/bathroom/121_bat.jpg,stimuli/own/bathroom/129_bat.jpg,,,,,,,,,0,68,68,430,858.771831583,,,,,,,,,,,859.0564072910001,859.225583833,859.225583833,859.225583833,859.225583833,859.225583833,859.225583833,859.225583833,859.225583833,859.225583833,870.6042441250002,-7,7,2,4.0,6.386653999999908,6.0,11.103608750000149,858.765422791,858.771831583,859.225583833,859.056386625,,,,,,,,858.761651416,858.765373041,None,,,,,,,,,,,207,bathroom,1,2024-03-16_09h06.52.306,image_similarity_rating,2023.2.3,None,2024-03-16 09h07.06.193690 +0100,
,132,141,567,567,stimuli/own/bathroom/132_bat.jpg,stimuli/own/bathroom/141_bat.jpg,,,,,,,,,0,69,69,566,870.6100972080001,,,,,,,,,,,870.8946052910001,871.0583152080001,871.0583152080001,871.0583152080001,871.0583152080001,871.0583152080001,871.0583152080001,871.0583152080001,871.0583152080001,871.0583152080001,880.132570125,-7,7,2,5.0,6.398516333000089,4.0,8.212673750000022,870.6081542080001,870.6100972080001,871.0583152080001,870.8945920000001,,,,,,,,870.6044662080001,870.608103583,None,,,,,,,,,,,207,bathroom,1,2024-03-16_09h06.52.306,image_similarity_rating,2023.2.3,None,2024-03-16 09h07.06.193690 +0100,
,103,134,92,92,stimuli/own/bathroom/103_bat.jpg,stimuli/own/bathroom/134_bat.jpg,,,,,,,,,0,70,70,91,880.1381072080001,,,,,,,,,,,880.422809791,880.5873530410001,880.5873530410001,880.5873530410001,880.5873530410001,880.5873530410001,880.5873530410001,880.5873530410001,880.5873530410001,880.5873530410001,887.465985375,7,-7,2,5.0,4.6009264580000035,6.0,6.816362792000064,880.1362293330001,880.1381072080001,880.5873530410001,880.4227980830001,,,,,,,,880.132794458,880.136182,None,,,,,,,,,,,207,bathroom,1,2024-03-16_09h06.52.306,image_similarity_rating,2023.2.3,None,2024-03-16 09h07.06.193690 +0100,
,113,139,293,293,stimuli/own/bathroom/113_bat.jpg,stimuli/own/bathroom/139_bat.jpg,,,,,,,,,0,71,71,292,887.4715377500002,,,,,,,,,,,887.7565958750001,887.9206710830001,887.9206710830001,887.9206710830001,887.9206710830001,887.9206710830001,887.9206710830001,887.9206710830001,887.9206710830001,887.9206710830001,894.2582017500001,-7,7,2,7.0,4.028513875000044,5.0,5.444823750000069,887.4697357080001,887.4715377500002,887.9206710830001,887.7565824580001,,,,,,,,887.466209083,887.4696887080001,None,,,,,,,,,,,207,bathroom,1,2024-03-16_09h06.52.306,image_similarity_rating,2023.2.3,None,2024-03-16 09h07.06.193690 +0100,
,138,141,592,592,stimuli/own/bathroom/138_bat.jpg,stimuli/own/bathroom/141_bat.jpg,,,,,,,,,0,72,72,591,894.263865916,,,,,,,,,,,894.5562585,894.722644708,894.722644708,894.722644708,894.722644708,894.722644708,894.722644708,894.722644708,894.722644708,894.722644708,903.0406728330001,7,-7,2,4.0,5.702736875000028,4.0,8.117239874999996,894.2618512500001,894.263865916,894.722644708,894.5562399580001,,,,,,,,894.2584285,894.261804666,None,,,,,,,,,,,207,bathroom,1,2024-03-16_09h06.52.306,image_similarity_rating,2023.2.3,None,2024-03-16 09h07.06.193690 +0100,
,116,130,332,332,stimuli/own/bathroom/116_bat.jpg,stimuli/own/bathroom/130_bat.jpg,,,,,,,,,0,73,73,331,903.0462580000001,,,,,,,,,,,903.34058925,903.5065077500001,903.5065077500001,903.5065077500001,903.5065077500001,903.5065077500001,903.5065077500001,903.5065077500001,903.5065077500001,903.5065077500001,916.59906075,-7,7,2,3.0,13.115709165999988,2.0,8.846828500000129,903.044336041,903.0462580000001,903.5065077500001,903.340573708,,,,,,,,903.040894125,903.044288458,None,,,,,,,,,,,207,bathroom,1,2024-03-16_09h06.52.306,image_similarity_rating,2023.2.3,None,2024-03-16 09h07.06.193690 +0100,
,109,130,207,207,stimuli/own/bathroom/109_bat.jpg,stimuli/own/bathroom/130_bat.jpg,,,,,,,,,0,74,74,206,916.6045240830001,,,,,,,,,,,916.8894545410001,917.0609986659999,917.0609986659999,917.0609986659999,917.0609986659999,917.0609986659999,917.0609986659999,917.0609986659999,917.0609986659999,917.0609986659999,925.007309416,7,-7,2,2.0,5.859817000000021,2.0,4.842168500000071,916.6027274160001,916.6045240830001,917.0609986659999,916.889436916,,,,,,,,916.5992920830001,916.6026796660001,None,,,,,,,,,,,207,bathroom,1,2024-03-16_09h06.52.306,image_similarity_rating,2023.2.3,None,2024-03-16 09h07.06.193690 +0100,
,112,137,266,266,stimuli/own/bathroom/112_bat.jpg,stimuli/own/bathroom/137_bat.jpg,,,,,,,,,0,75,75,265,925.0131617500001,,,,,,,,,,,925.306159166,925.4717076250001,925.4717076250001,925.4717076250001,925.4717076250001,925.4717076250001,925.4717076250001,925.4717076250001,925.4717076250001,925.4717076250001,933.828087375,7,-7,2,3.0,8.272818041999926,7.0,4.524571082999955,925.011084583,925.0131617500001,925.4717076250001,925.3061433750001,,,,,,,,925.0075335829999,925.011037541,None,,,,,,,,,,,207,bathroom,1,2024-03-16_09h06.52.306,image_similarity_rating,2023.2.3,None,2024-03-16 09h07.06.193690 +0100,
,120,137,420,420,stimuli/own/bathroom/120_bat.jpg,stimuli/own/bathroom/137_bat.jpg,,,,,,,,,0,76,76,419,933.838113541,,,,,,,,,,,934.1228491250001,934.291383,934.291383,934.291383,934.291383,934.291383,934.291383,934.291383,934.291383,934.291383,941.6406265830001,7,-7,2,2.0,6.9774925829999574,7.0,3.841641625000193,933.831738333,933.838113541,934.291383,934.1228315830001,,,,,,,,933.828310375,933.83169125,None,,,,,,,,,,,207,bathroom,1,2024-03-16_09h06.52.306,image_similarity_rating,2023.2.3,None,2024-03-16 09h07.06.193690 +0100,
,126,132,509,509,stimuli/own/bathroom/126_bat.jpg,stimuli/own/bathroom/132_bat.jpg,,,,,,,,,0,77,77,508,941.6463342500001,,,,,,,,,,,941.939281291,942.105316833,942.105316833,942.105316833,942.105316833,942.105316833,942.105316833,942.105316833,942.105316833,942.105316833,948.6615367080001,-7,7,2,3.0,6.3405209160000595,6.0,2.6081506659998013,941.6444132910001,941.6463342500001,942.105316833,941.9392661250001,,,,,,,,941.640851166,941.644364,None,,,,,,,,,,,207,bathroom,1,2024-03-16_09h06.52.306,image_similarity_rating,2023.2.3,None,2024-03-16 09h07.06.193690 +0100,
,113,141,295,295,stimuli/own/bathroom/113_bat.jpg,stimuli/own/bathroom/141_bat.jpg,,,,,,,,,0,78,78,294,948.6715260000001,,,,,,,,,,,948.956019125,949.1218954999999,949.1218954999999,949.1218954999999,949.1218954999999,949.1218954999999,949.1218954999999,949.1218954999999,949.1218954999999,949.1218954999999,957.1324829580001,7,-7,2,6.0,7.822857542000065,6.0,2.9968529999998736,948.665209666,948.6715260000001,949.1218954999999,948.956003583,,,,,,,,948.661761541,948.665163375,None,,,,,,,,,,,207,bathroom,1,2024-03-16_09h06.52.306,image_similarity_rating,2023.2.3,None,2024-03-16 09h07.06.193690 +0100,
,109,117,195,195,stimuli/own/bathroom/109_bat.jpg,stimuli/own/bathroom/117_bat.jpg,,,,,,,,,0,79,79,194,957.137969333,,,,,,,,,,,957.422717375,957.5887068330001,957.5887068330001,957.5887068330001,957.5887068330001,957.5887068330001,957.5887068330001,957.5887068330001,957.5887068330001,957.5887068330001,968.9488735,-7,7,2,5.0,7.997018749999825,3.0,10.863214166000034,957.136143041,957.137969333,957.5887068330001,957.422701625,,,,,,,,957.132707791,957.136095458,None,,,,,,,,,,,207,bathroom,1,2024-03-16_09h06.52.306,image_similarity_rating,2023.2.3,None,2024-03-16 09h07.06.193690 +0100,
,103,130,89,89,stimuli/own/bathroom/103_bat.jpg,stimuli/own/bathroom/130_bat.jpg,,,,,,,,,0,80,80,88,968.9546741660001,,,,,,,,,,,969.2392414160001,969.409242291,969.409242291,969.409242291,969.409242291,969.409242291,969.409242291,969.409242291,969.409242291,969.409242291,976.707118541,-7,7,2,3.0,7.167871416000025,3.0,5.277096082999833,968.952560833,968.9546741660001,969.409242291,969.2392226659999,,,,,,,,968.949094375,968.9525140830001,None,,,,,,,,,,,207,bathroom,1,2024-03-16_09h06.52.306,image_similarity_rating,2023.2.3,None,2024-03-16 09h07.06.193690 +0100,
,105,123,144,144,stimuli/own/bathroom/105_bat.jpg,stimuli/own/bathroom/123_bat.jpg,,,,,,,,,0,81,81,143,976.7126962500001,,,,,,,,,,,977.0058222499999,977.1704959159999,977.1704959159999,977.1704959159999,977.1704959159999,977.1704959159999,977.1704959159999,977.1704959159999,977.1704959159999,977.1704959159999,985.6988967080001,7,-7,2,5.0,6.562128250000114,7.0,2.962112417000071,976.71077025,976.7126962500001,977.1704959159999,977.005808458,,,,,,,,976.7073405830001,976.710723291,None,,,,,,,,,,,207,bathroom,1,2024-03-16_09h06.52.306,image_similarity_rating,2023.2.3,None,2024-03-16 09h07.06.193690 +0100,
,105,111,133,133,stimuli/own/bathroom/105_bat.jpg,stimuli/own/bathroom/111_bat.jpg,,,,,,,,,0,82,82,132,985.704313166,,,,,,,,,,,985.9893299160001,986.153928958,986.153928958,986.153928958,986.153928958,986.153928958,986.153928958,986.153928958,986.153928958,986.153928958,994.24125725,-7,7,2,3.0,8.059375375000172,3.0,4.364510457999813,985.7025578330001,985.704313166,986.153928958,985.989315541,,,,,,,,985.6991216660001,985.7025108330001,None,,,,,,,,,,,207,bathroom,1,2024-03-16_09h06.52.306,image_similarity_rating,2023.2.3,None,2024-03-16 09h07.06.193690 +0100,
,113,135,289,289,stimuli/own/bathroom/113_bat.jpg,stimuli/own/bathroom/135_bat.jpg,,,,,,,,,0,83,83,288,994.246948708,,,,,,,,,,,994.539249208,994.7037868330001,994.7037868330001,994.7037868330001,994.7037868330001,994.7037868330001,994.7037868330001,994.7037868330001,994.7037868330001,994.7037868330001,1005.732459583,7,-7,2,6.0,5.350328999999874,5.0,10.879038916999889,994.245002375,994.246948708,994.7037868330001,994.5392299160001,,,,,,,,994.241479458,994.244956,None,,,,,,,,,,,207,bathroom,1,2024-03-16_09h06.52.306,image_similarity_rating,2023.2.3,None,2024-03-16 09h07.06.193690 +0100,
,131,139,557,557,stimuli/own/bathroom/131_bat.jpg,stimuli/own/bathroom/139_bat.jpg,,,,,,,,,0,84,84,556,1005.7547704160002,,,,,,,,,,,1006.038782458,1006.2048,1006.2048,1006.2048,1006.2048,1006.2048,1006.2048,1006.2048,1006.2048,1006.2048,1015.1536127500001,-7,7,2,2.0,7.227650541999992,4.0,8.711857499999951,1005.736237541,1005.7547704160002,,1006.038762208,,,,,,,,1005.732683208,1005.736189,None,,,,,,,,,,,207,bathroom,1,2024-03-16_09h06.52.306,image_similarity_rating,2023.2.3,None,2024-03-16 09h07.06.193690 +0100,
,132,135,561,561,stimuli/own/bathroom/132_bat.jpg,stimuli/own/bathroom/135_bat.jpg,,,,,,,,,0,85,85,560,1015.159240791,,,,,,,,,,,1015.4431341250001,1015.6100650830001,1015.6100650830001,1015.6100650830001,1015.6100650830001,1015.6100650830001,1015.6100650830001,1015.6100650830001,1015.6100650830001,1015.6100650830001,1021.156937,7,-7,2,5.0,5.268803959000024,6.0,2.4697644170000785,1015.1572894160001,1015.159240791,1015.6100650830001,1015.443120125,,,,,,,,1015.153836958,1015.1572428750001,None,,,,,,,,,,,207,bathroom,1,2024-03-16_09h06.52.306,image_similarity_rating,2023.2.3,None,2024-03-16 09h07.06.193690 +0100,
,112,131,261,261,stimuli/own/bathroom/112_bat.jpg,stimuli/own/bathroom/131_bat.jpg,,,,,,,,,0,86,86,260,1021.1625134160001,,,,,,,,,,,1021.455931666,1021.621250833,1021.621250833,1021.621250833,1021.621250833,1021.621250833,1021.621250833,1021.621250833,1021.621250833,1021.621250833,1027.794636916,-7,7,2,2.0,3.3142947500000446,2.0,6.030322750000096,1021.160587416,1021.1625134160001,1021.621250833,1021.4559186250001,,,,,,,,1021.1571595,1021.160540458,None,,,,,,,,,,,207,bathroom,1,2024-03-16_09h06.52.306,image_similarity_rating,2023.2.3,None,2024-03-16 09h07.06.193690 +0100,
,126,138,514,514,stimuli/own/bathroom/126_bat.jpg,stimuli/own/bathroom/138_bat.jpg,,,,,,,,,0,87,87,513,1027.804443166,,,,,,,,,,,1028.089195208,1028.253870166,1028.253870166,1028.253870166,1028.253870166,1028.253870166,1028.253870166,1028.253870166,1028.253870166,1028.253870166,1037.186782583,-7,7,2,4.0,8.823143999999957,3.0,5.26460075,1027.798367541,1027.804443166,1028.253870166,1028.0891758750001,,,,,,,,1027.794857541,1027.798320583,None,,,,,,,,,,,207,bathroom,1,2024-03-16_09h06.52.306,image_similarity_rating,2023.2.3,None,2024-03-16 09h07.06.193690 +0100,
,135,140,579,579,stimuli/own/bathroom/135_bat.jpg,stimuli/own/bathroom/140_bat.jpg,,,,,,,,,0,88,88,578,1037.192561625,,,,,,,,,,,1037.476241541,1037.6408575,1037.6408575,1037.6408575,1037.6408575,1037.6408575,1037.6408575,1037.6408575,1037.6408575,1037.6408575,1046.115151625,7,-7,2,5.0,6.135682834000136,5.0,8.289534291000109,1037.190449875,1037.192561625,1037.6408575,1037.476223125,,,,,,,,1037.187004583,1037.190402875,None,,,,,,,,,,,207,bathroom,1,2024-03-16_09h06.52.306,image_similarity_rating,2023.2.3,None,2024-03-16 09h07.06.193690 +0100,
,104,129,119,119,stimuli/own/bathroom/104_bat.jpg,stimuli/own/bathroom/129_bat.jpg,,,,,,,,,0,89,89,118,1046.120801416,,,,,,,,,,,1046.405624666,1046.569196166,1046.569196166,1046.569196166,1046.569196166,1046.569196166,1046.569196166,1046.569196166,1046.569196166,1046.569196166,1056.169782833,-7,7,2,3.0,7.800655958000107,2.0,9.38916279199998,1046.1188918750001,1046.120801416,1046.569196166,1046.405613458,,,,,,,,1046.1153737910001,1046.118845083,None,,,,,,,,,,,207,bathroom,1,2024-03-16_09h06.52.306,image_similarity_rating,2023.2.3,None,2024-03-16 09h07.06.193690 +0100,
,131,137,555,555,stimuli/own/bathroom/131_bat.jpg,stimuli/own/bathroom/137_bat.jpg,,,,,,,,,0,90,90,554,1056.175519208,,,,,,,,,,,1056.4597820410002,1056.626596791,1056.626596791,1056.626596791,1056.626596791,1056.626596791,1056.626596791,1056.626596791,1056.626596791,1056.626596791,1063.890048041,-7,7,2,3.0,6.33721166700002,2.0,3.691202541999928,1056.173597125,1056.175519208,1056.626596791,1056.459768333,,,,,,,,1056.1700317910002,1056.173549958,None,,,,,,,,,,,207,bathroom,1,2024-03-16_09h06.52.306,image_similarity_rating,2023.2.3,None,2024-03-16 09h07.06.193690 +0100,
,103,137,95,95,stimuli/own/bathroom/103_bat.jpg,stimuli/own/bathroom/137_bat.jpg,,,,,,,,,0,91,91,94,1063.895747791,,,,,,,,,,,1064.188809541,1064.353411666,1064.353411666,1064.353411666,1064.353411666,1064.353411666,1064.353411666,1064.353411666,1064.353411666,1064.353411666,1071.844848958,-7,7,2,2.0,6.111331874999905,2.0,6.605341457999884,1063.893809291,1063.895747791,1064.353411666,1064.188786875,,,,,,,,1063.890270291,1063.8937599580001,None,,,,,,,,,,,207,bathroom,1,2024-03-16_09h06.52.306,image_similarity_rating,2023.2.3,None,2024-03-16 09h07.06.193690 +0100,
,104,140,129,129,stimuli/own/bathroom/104_bat.jpg,stimuli/own/bathroom/140_bat.jpg,,,,,,,,,0,92,92,128,1071.854400958,,,,,,,,,,,1072.138943916,1072.308267416,1072.308267416,1072.308267416,1072.308267416,1072.308267416,1072.308267416,1072.308267416,1072.308267416,1072.308267416,1080.186774541,7,-7,2,5.0,4.638623707999841,5.0,6.155527084000141,1071.848494291,1071.854400958,1072.308267416,1072.138926291,,,,,,,,1071.84507525,1071.848448333,None,,,,,,,,,,,207,bathroom,1,2024-03-16_09h06.52.306,image_similarity_rating,2023.2.3,None,2024-03-16 09h07.06.193690 +0100,
,102,118,46,46,stimuli/own/bathroom/102_bat.jpg,stimuli/own/bathroom/118_bat.jpg,,,,,,,,,0,93,93,45,1080.192389041,,,,,,,,,,,1080.4760637910001,1080.639925291,1080.639925291,1080.639925291,1080.639925291,1080.639925291,1080.639925291,1080.639925291,1080.639925291,1080.639925291,1085.419504,-7,7,2,2.0,3.493336791000047,3.0,4.218494749999991,1080.190468166,1080.192389041,1080.639925291,1080.4760518330002,,,,,,,,1080.186998416,1080.1904207080001,None,,,,,,,,,,,207,bathroom,1,2024-03-16_09h06.52.306,image_similarity_rating,2023.2.3,None,2024-03-16 09h07.06.193690 +0100,
,120,135,418,418,stimuli/own/bathroom/120_bat.jpg,stimuli/own/bathroom/135_bat.jpg,,,,,,,,,0,94,94,417,1085.425128666,,,,,,,,,,,1085.709226291,1085.872180958,1085.872180958,1085.872180958,1085.872180958,1085.872180958,1085.872180958,1085.872180958,1085.872180958,1085.872180958,1094.76104125,7,-7,2,5.0,7.147649250000086,3.0,8.700630582999793,1085.423198166,1085.425128666,1085.872180958,1085.70921275,,,,,,,,1085.419725041,1085.423151375,None,,,,,,,,,,,207,bathroom,1,2024-03-16_09h06.52.306,image_similarity_rating,2023.2.3,None,2024-03-16 09h07.06.193690 +0100,
,112,122,253,253,stimuli/own/bathroom/112_bat.jpg,stimuli/own/bathroom/122_bat.jpg,,,,,,,,,0,95,95,252,1094.770982166,,,,,,,,,,,1095.055363166,1095.223448083,1095.223448083,1095.223448083,1095.223448083,1095.223448083,1095.223448083,1095.223448083,1095.223448083,1095.223448083,1100.594229458,-7,7,2,3.0,3.2834042500001033,5.0,5.073577749999913,1094.764769625,1094.770982166,1095.223448083,1095.055346583,,,,,,,,1094.761263875,1094.7647225,None,,,,,,,,,,,207,bathroom,1,2024-03-16_09h06.52.306,image_similarity_rating,2023.2.3,None,2024-03-16 09h07.06.193690 +0100,
,123,126,462,462,stimuli/own/bathroom/123_bat.jpg,stimuli/own/bathroom/126_bat.jpg,,,,,,,,,0,96,96,461,1100.604288083,,,,,,,,,,,1100.888768416,1101.0560235,1101.0560235,1101.0560235,1101.0560235,1101.0560235,1101.0560235,1101.0560235,1101.0560235,1101.0560235,1108.68203375,7,-7,2,3.0,6.493247207999957,3.0,7.264506624999967,1100.598006958,1100.604288083,1101.0560235,1100.88875125,,,,,,,,1100.594453916,1100.597960291,None,,,,,,,,,,,207,bathroom,1,2024-03-16_09h06.52.306,image_similarity_rating,2023.2.3,None,2024-03-16 09h07.06.193690 +0100,
,117,129,353,353,stimuli/own/bathroom/117_bat.jpg,stimuli/own/bathroom/129_bat.jpg,,,,,,,,,0,97,97,352,1108.7043524580001,,,,,,,,,,,1108.988326875,1109.159084541,1109.159084541,1109.159084541,1109.159084541,1109.159084541,1109.159084541,1109.159084541,1109.159084541,1109.159084541,1114.993538166,-7,7,2,5.0,4.600095457999942,3.0,5.699050458000102,1108.6856916660001,1108.7043524580001,,1108.9883058330001,,,,,,,,1108.68225675,1108.6856446660001,None,,,,,,,,,,,207,bathroom,1,2024-03-16_09h06.52.306,image_similarity_rating,2023.2.3,None,2024-03-16 09h07.06.193690 +0100,
,105,130,150,150,stimuli/own/bathroom/105_bat.jpg,stimuli/own/bathroom/130_bat.jpg,,,,,,,,,0,98,98,149,1115.004166208,,,,,,,,,,,1115.28860425,1115.454403166,1115.454403166,1115.454403166,1115.454403166,1115.454403166,1115.454403166,1115.454403166,1115.454403166,1115.454403166,1124.402718583,7,-7,2,3.0,7.485993624999992,2.0,8.74944841599995,1114.997189791,1115.004166208,1115.454403166,1115.288588958,,,,,,,,1114.993763291,1114.997143,None,,,,,,,,,,,207,bathroom,1,2024-03-16_09h06.52.306,image_similarity_rating,2023.2.3,None,2024-03-16 09h07.06.193690 +0100,
,101,106,5,5,stimuli/own/bathroom/101_bat.jpg,stimuli/own/bathroom/106_bat.jpg,,,,,,,,,0,99,99,4,1124.4084385410001,,,,,,,,,,,1124.692560583,1124.85715825,1124.85715825,1124.85715825,1124.85715825,1124.85715825,1124.85715825,1124.85715825,1124.85715825,1124.85715825,1131.286237583,7,-7,2,5.0,6.2776248340001075,7.0,2.869566667000072,1124.406429416,1124.4084385410001,1124.85715825,1124.69254325,,,,,,,,1124.402942416,1124.406382375,None,,,,,,,,,,,207,bathroom,1,2024-03-16_09h06.52.306,image_similarity_rating,2023.2.3,None,2024-03-16 09h07.06.193690 +0100,
,109,140,216,216,stimuli/own/bathroom/109_bat.jpg,stimuli/own/bathroom/140_bat.jpg,,,,,,,,,0,100,100,215,1131.2917825,,,,,,,,,,,1131.5758217080001,1131.739220166,1131.739220166,1131.739220166,1131.739220166,1131.739220166,1131.739220166,1131.739220166,1131.739220166,1131.739220166,1136.756476083,7,-7,2,1.0,3.5251848330001394,1.0,4.5293001659999845,1131.289958375,1131.2917825,1131.739220166,1131.575809791,,,,,,,,1131.28648725,1131.289910875,None,,,,,,,,,,,207,bathroom,1,2024-03-16_09h06.52.306,image_similarity_rating,2023.2.3,None,2024-03-16 09h07.06.193690 +0100,
,118,120,366,366,stimuli/own/bathroom/118_bat.jpg,stimuli/own/bathroom/120_bat.jpg,,,,,,,,,0,101,101,365,1136.7620777500001,,,,,,,,,,,1137.055598791,1137.220798333,1137.220798333,1137.220798333,1137.220798333,1137.220798333,1137.220798333,1137.220798333,1137.220798333,1137.220798333,1142.948233958,-7,7,2,3.0,3.564111749999938,1.0,5.602539584000169,1136.760131958,1136.7620777500001,1137.220798333,1137.0555845000001,,,,,,,,1136.756697541,1136.760085791,None,,,,,,,,,,,207,bathroom,1,2024-03-16_09h06.52.306,image_similarity_rating,2023.2.3,None,2024-03-16 09h07.06.193690 +0100,
,113,114,271,271,stimuli/own/bathroom/113_bat.jpg,stimuli/own/bathroom/114_bat.jpg,,,,,,,,,0,102,102,270,1142.953643958,,,,,,,,,,,1143.238696375,1143.4075105,1143.4075105,1143.4075105,1143.4075105,1143.4075105,1143.4075105,1143.4075105,1143.4075105,1143.4075105,1150.639682666,-7,7,2,3.0,5.114954916000215,3.0,7.020196499999884,1142.951884666,1142.953643958,1143.4075105,1143.238679541,,,,,,,,1142.948454,1142.951837458,None,,,,,,,,,,,207,bathroom,1,2024-03-16_09h06.52.306,image_similarity_rating,2023.2.3,None,2024-03-16 09h07.06.193690 +0100,
,119,141,405,405,stimuli/own/bathroom/119_bat.jpg,stimuli/own/bathroom/141_bat.jpg,,,,,,,,,0,103,103,404,1150.645396833,,,,,,,,,,,1150.9392352080001,1151.102415333,1151.102415333,1151.102415333,1151.102415333,1151.102415333,1151.102415333,1151.102415333,1151.102415333,1151.102415333,1156.915386333,-7,7,2,5.0,3.622662167000044,3.0,5.2745539580000695,1150.6434535,1150.645396833,1151.102415333,1150.9392225000001,,,,,,,,1150.639904875,1150.643402916,None,,,,,,,,,,,207,bathroom,1,2024-03-16_09h06.52.306,image_similarity_rating,2023.2.3,None,2024-03-16 09h07.06.193690 +0100,
,136,139,583,583,stimuli/own/bathroom/136_bat.jpg,stimuli/own/bathroom/139_bat.jpg,,,,,,,,,0,104,104,582,1156.937217958,,,,,,,,,,,1157.22123825,1157.389845083,1157.389845083,1157.389845083,1157.389845083,1157.389845083,1157.389845083,1157.389845083,1157.389845083,1157.389845083,1167.052635916,7,-7,2,5.0,9.555993166999997,4.0,8.60908495800004,1156.9190404580002,1156.937217958,,1157.221213083,,,,,,,,1156.915609375,1156.918993791,None,,,,,,,,,,,207,bathroom,1,2024-03-16_09h06.52.306,image_similarity_rating,2023.2.3,None,2024-03-16 09h07.06.193690 +0100,
,112,132,262,611,stimuli/own/bathroom/112_bat.jpg,stimuli/own/bathroom/132_bat.jpg,,,,,,,,,0,105,105,610,1167.058274291,,,,,,,,,,,1167.342627666,1167.506284541,1167.506284541,1167.506284541,1167.506284541,1167.506284541,1167.506284541,1167.506284541,1167.506284541,1167.506284541,1175.619325875,-7,7,2,3.0,8.008838083,4.0,4.88392191600019,1167.0563414580001,1167.058274291,1167.506284541,1167.342615083,,,,,,,,1167.052868666,1167.056294333,None,,,,,,,,,,,207,bathroom,1,2024-03-16_09h06.52.306,image_similarity_rating,2023.2.3,None,2024-03-16 09h07.06.193690 +0100,
,114,139,317,317,stimuli/own/bathroom/114_bat.jpg,stimuli/own/bathroom/139_bat.jpg,,,,,,,,,0,106,106,316,1175.6247905,,,,,,,,,,,1175.908850416,1176.0714653750001,1176.0714653750001,1176.0714653750001,1176.0714653750001,1176.0714653750001,1176.0714653750001,1176.0714653750001,1176.0714653750001,1176.0714653750001,1183.748456375,7,-7,2,3.0,6.8670045420001316,1.0,3.8627158330000384,1175.623031625,1175.6247905,1176.0714653750001,1175.908840125,,,,,,,,1175.6195805,1175.622984708,None,,,,,,,,,,,207,bathroom,1,2024-03-16_09h06.52.306,image_similarity_rating,2023.2.3,None,2024-03-16 09h07.06.193690 +0100,
,119,140,404,404,stimuli/own/bathroom/119_bat.jpg,stimuli/own/bathroom/140_bat.jpg,,,,,,,,,0,107,107,403,1183.770864583,,,,,,,,,,,1184.054610208,1184.222599875,1184.222599875,1184.222599875,1184.222599875,1184.222599875,1184.222599875,1184.222599875,1184.222599875,1184.222599875,1193.172846166,-7,7,2,5.0,8.686046708000049,1.0,3.7840156250001655,1183.75212575,1183.770864583,,1184.054588708,,,,,,,,1183.7486813330001,1183.752079416,None,,,,,,,,,,,207,bathroom,1,2024-03-16_09h06.52.306,image_similarity_rating,2023.2.3,None,2024-03-16 09h07.06.193690 +0100,
,119,121,387,387,stimuli/own/bathroom/119_bat.jpg,stimuli/own/bathroom/121_bat.jpg,,,,,,,,,0,108,108,386,1193.178425416,,,,,,,,,,,1193.472288125,1193.6364222500001,1193.6364222500001,1193.6364222500001,1193.6364222500001,1193.6364222500001,1193.6364222500001,1193.6364222500001,1193.6364222500001,1193.6364222500001,1201.056162291,7,-7,2,7.0,4.175285957999904,3.0,7.231898000000001,1193.176507958,1193.178425416,1193.6364222500001,1193.4722745000001,,,,,,,,1193.173068041,1193.176461083,None,,,,,,,,,,,207,bathroom,1,2024-03-16_09h06.52.306,image_similarity_rating,2023.2.3,None,2024-03-16 09h07.06.193690 +0100,
,126,137,513,513,stimuli/own/bathroom/126_bat.jpg,stimuli/own/bathroom/137_bat.jpg,,,,,,,,,0,109,109,512,1201.061725625,,,,,,,,,,,1201.355159375,1201.5194935,1201.5194935,1201.5194935,1201.5194935,1201.5194935,1201.5194935,1201.5194935,1201.5194935,1201.5194935,1208.635841583,-7,7,2,4.0,5.737088542000038,2.0,6.592419542000016,1201.059806375,1201.061725625,1201.5194935,1201.3551454580002,,,,,,,,1201.056383458,1201.05975975,None,,,,,,,,,,,207,bathroom,1,2024-03-16_09h06.52.306,image_similarity_rating,2023.2.3,None,2024-03-16 09h07.06.193690 +0100,
,114,141,319,319,stimuli/own/bathroom/114_bat.jpg,stimuli/own/bathroom/141_bat.jpg,,,,,,,,,0,110,110,318,1208.641314041,,,,,,,,,,,1208.925578208,1209.0894357500001,1209.0894357500001,1209.0894357500001,1209.0894357500001,1209.0894357500001,1209.0894357500001,1209.0894357500001,1209.0894357500001,1209.0894357500001,1217.507039666,-7,7,2,6.0,6.255196249999926,4.0,8.269069499999887,1208.6395500830001,1208.641314041,1209.0894357500001,1208.925566125,,,,,,,,1208.636088083,1208.6395030830001,None,,,,,,,,,,,207,bathroom,1,2024-03-16_09h06.52.306,image_similarity_rating,2023.2.3,None,2024-03-16 09h07.06.193690 +0100,
,116,140,341,341,stimuli/own/bathroom/116_bat.jpg,stimuli/own/bathroom/140_bat.jpg,,,,,,,,,0,111,111,340,1217.512772875,,,,,,,,,,,1217.804813333,1217.9729400830001,1217.9729400830001,1217.9729400830001,1217.9729400830001,1217.9729400830001,1217.9729400830001,1217.9729400830001,1217.9729400830001,1217.9729400830001,1226.7485565,-7,7,2,3.0,8.161091916000032,1.0,4.194670332999976,1217.510823666,1217.512772875,1217.9729400830001,1217.804795875,,,,,,,,1217.507261875,1217.510776625,None,,,,,,,,,,,207,bathroom,1,2024-03-16_09h06.52.306,image_similarity_rating,2023.2.3,None,2024-03-16 09h07.06.193690 +0100,
,122,137,455,455,stimuli/own/bathroom/122_bat.jpg,stimuli/own/bathroom/137_bat.jpg,,,,,,,,,0,112,112,454,1226.770538541,,,,,,,,,,,1227.054416458,1227.22554575,1227.22554575,1227.22554575,1227.22554575,1227.22554575,1227.22554575,1227.22554575,1227.22554575,1227.22554575,1236.876550958,7,-7,2,5.0,9.602462625000044,6.0,3.6784900000000107,1226.7522174580001,1226.770538541,,1227.054395291,,,,,,,,1226.7487800410001,1226.752167916,None,,,,,,,,,,,207,bathroom,1,2024-03-16_09h06.52.306,image_similarity_rating,2023.2.3,None,2024-03-16 09h07.06.193690 +0100,
,113,123,279,279,stimuli/own/bathroom/113_bat.jpg,stimuli/own/bathroom/123_bat.jpg,,,,,,,,,0,113,113,278,1236.887155208,,,,,,,,,,,1237.171608416,1237.340042666,1237.340042666,1237.340042666,1237.340042666,1237.340042666,1237.340042666,1237.340042666,1237.340042666,1237.340042666,1245.332083583,7,-7,2,5.0,4.751059707999957,3.0,7.5416660000000775,1236.880296708,1236.887155208,1237.340042666,1237.171591541,,,,,,,,1236.8767728330001,1236.880250166,None,,,,,,,,,,,207,bathroom,1,2024-03-16_09h06.52.306,image_similarity_rating,2023.2.3,None,2024-03-16 09h07.06.193690 +0100,
,117,139,362,362,stimuli/own/bathroom/117_bat.jpg,stimuli/own/bathroom/139_bat.jpg,,,,,,,,,0,114,114,361,1245.338538833,,,,,,,,,,,1245.621573291,1245.786648666,1245.786648666,1245.786648666,1245.786648666,1245.786648666,1245.786648666,1245.786648666,1245.786648666,1245.786648666,1250.803126,7,-7,2,3.0,4.900756292000096,3.0,2.602737791999971,1245.335752875,1245.338538833,1245.786648666,1245.621558791,,,,,,,,1245.332306458,1245.335706041,None,,,,,,,,,,,207,bathroom,1,2024-03-16_09h06.52.306,image_similarity_rating,2023.2.3,None,2024-03-16 09h07.06.193690 +0100,
,131,132,551,551,stimuli/own/bathroom/131_bat.jpg,stimuli/own/bathroom/132_bat.jpg,,,,,,,,,0,115,115,550,1250.808723583,,,,,,,,,,,1251.09237175,1251.260421041,1251.260421041,1251.260421041,1251.260421041,1251.260421041,1251.260421041,1251.260421041,1251.260421041,1251.260421041,1258.248075208,7,-7,2,1.0,6.943485041000031,2.0,3.0437924590000875,1250.806958208,1250.808723583,1251.260421041,1251.092358291,,,,,,,,1250.803345833,1250.806911541,None,,,,,,,,,,,207,bathroom,1,2024-03-16_09h06.52.306,image_similarity_rating,2023.2.3,None,2024-03-16 09h07.06.193690 +0100,
,102,136,62,62,stimuli/own/bathroom/102_bat.jpg,stimuli/own/bathroom/136_bat.jpg,,,,,,,,,0,116,116,61,1258.270209416,,,,,,,,,,,1258.554263833,1258.7205181250001,1258.7205181250001,1258.7205181250001,1258.7205181250001,1258.7205181250001,1258.7205181250001,1258.7205181250001,1258.7205181250001,1258.7205181250001,1271.298482833,-7,7,2,3.0,9.317406665999897,6.0,11.371067292000134,1258.251731291,1258.270209416,,1258.5542311250001,,,,,,,,1258.2482977500001,1258.251684333,None,,,,,,,,,,,207,bathroom,1,2024-03-16_09h06.52.306,image_similarity_rating,2023.2.3,None,2024-03-16 09h07.06.193690 +0100,
,104,125,116,116,stimuli/own/bathroom/104_bat.jpg,stimuli/own/bathroom/125_bat.jpg,,,,,,,,,0,117,117,115,1271.320363041,,,,,,,,,,,1271.604307666,1271.769686708,1271.769686708,1271.769686708,1271.769686708,1271.769686708,1271.769686708,1271.769686708,1271.769686708,1271.769686708,1277.685722,7,-7,2,4.0,5.526671250000163,3.0,2.3288270000000466,1271.3021510830001,1271.320363041,,1271.604282208,,,,,,,,1271.298708791,1271.302103916,None,,,,,,,,,,,207,bathroom,1,2024-03-16_09h06.52.306,image_similarity_rating,2023.2.3,None,2024-03-16 09h07.06.193690 +0100,
,114,126,306,306,stimuli/own/bathroom/114_bat.jpg,stimuli/own/bathroom/126_bat.jpg,,,,,,,,,0,118,118,305,1277.691218083,,,,,,,,,,,1277.975331416,1278.139641833,1278.139641833,1278.139641833,1278.139641833,1278.139641833,1278.139641833,1278.139641833,1278.139641833,1278.139641833,1284.985776708,-7,7,2,6.0,4.049859541999922,6.0,4.909894500000064,1277.689439333,1277.691218083,1278.139641833,1277.9753190410001,,,,,,,,1277.685972125,1277.689391625,None,,,,,,,,,,,207,bathroom,1,2024-03-16_09h06.52.306,image_similarity_rating,2023.2.3,None,2024-03-16 09h07.06.193690 +0100,
,121,122,425,425,stimuli/own/bathroom/121_bat.jpg,stimuli/own/bathroom/122_bat.jpg,,,,,,,,,0,119,119,424,1284.991240083,,,,,,,,,,,1285.275609458,1285.442678833,1285.442678833,1285.442678833,1285.442678833,1285.442678833,1285.442678833,1285.442678833,1285.442678833,1285.442678833,1292.0475785410001,7,-7,2,5.0,4.728690708000158,4.0,6.393903749999936,1284.989466583,1284.991240083,1285.442678833,1285.275590916,,,,,,,,1284.9860107910001,1284.989419833,None,,,,,,,,,,,207,bathroom,1,2024-03-16_09h06.52.306,image_similarity_rating,2023.2.3,None,2024-03-16 09h07.06.193690 +0100,
,114,134,312,312,stimuli/own/bathroom/114_bat.jpg,stimuli/own/bathroom/134_bat.jpg,,,,,,,,,0,120,120,311,1292.0531827500001,,,,,,,,,,,1292.3380045000001,1292.502816833,1292.502816833,1292.502816833,1292.502816833,1292.502816833,1292.502816833,1292.502816833,1292.502816833,1292.502816833,1299.8689635,7,-7,2,6.0,6.036785583999972,6.0,7.048067250000031,1292.0512330000001,1292.0531827500001,1292.502816833,1292.337989291,,,,,,,,1292.047807375,1292.05118625,None,,,,,,,,,,,207,bathroom,1,2024-03-16_09h06.52.306,image_similarity_rating,2023.2.3,None,2024-03-16 09h07.06.193690 +0100,
,135,136,575,575,stimuli/own/bathroom/135_bat.jpg,stimuli/own/bathroom/136_bat.jpg,,,,,,,,,0,121,121,574,1299.874478458,,,,,,,,,,,1300.158834416,1300.3233567080001,1300.3233567080001,1300.3233567080001,1300.3233567080001,1300.3233567080001,1300.3233567080001,1300.3233567080001,1300.3233567080001,1300.3233567080001,1307.3810825,7,-7,2,5.0,4.89119658300001,3.0,6.708408499999905,1299.872658458,1299.874478458,1300.3233567080001,1300.1588227080001,,,,,,,,1299.8692081660001,1299.872611666,None,,,,,,,,,,,207,bathroom,1,2024-03-16_09h06.52.306,image_similarity_rating,2023.2.3,None,2024-03-16 09h07.06.193690 +0100,
,120,127,412,412,stimuli/own/bathroom/120_bat.jpg,stimuli/own/bathroom/127_bat.jpg,,,,,,,,,0,122,122,411,1307.386565416,,,,,,,,,,,1307.67126025,1307.8394619580001,1307.8394619580001,1307.8394619580001,1307.8394619580001,1307.8394619580001,1307.8394619580001,1307.8394619580001,1307.8394619580001,1307.8394619580001,1315.085478875,-7,7,2,6.0,5.633215957999937,4.0,6.835013874999959,1307.384728291,1307.386565416,1307.8394619580001,1307.671243,,,,,,,,1307.381306625,1307.3846814160001,None,,,,,,,,,,,207,bathroom,1,2024-03-16_09h06.52.306,image_similarity_rating,2023.2.3,None,2024-03-16 09h07.06.193690 +0100,
,113,121,277,277,stimuli/own/bathroom/113_bat.jpg,stimuli/own/bathroom/121_bat.jpg,,,,,,,,,0,123,123,276,1315.091107166,,,,,,,,,,,1315.375891375,1315.541993,1315.541993,1315.541993,1315.541993,1315.541993,1315.541993,1315.541993,1315.541993,1315.541993,1321.985532791,7,-7,2,6.0,5.206377083000007,5.0,6.229990874999885,1315.0891880000001,1315.091107166,1315.541993,1315.375872625,,,,,,,,1315.0857249160001,1315.089138625,None,,,,,,,,,,,207,bathroom,1,2024-03-16_09h06.52.306,image_similarity_rating,2023.2.3,None,2024-03-16 09h07.06.193690 +0100,
,125,137,500,500,stimuli/own/bathroom/125_bat.jpg,stimuli/own/bathroom/137_bat.jpg,,,,,,,,,0,124,124,499,1321.9911407910001,,,,,,,,,,,1322.275793541,1322.439831083,1322.439831083,1322.439831083,1322.439831083,1322.439831083,1322.439831083,1322.439831083,1322.439831083,1322.439831083,1329.102188083,-7,7,2,4.0,5.099529249999932,4.0,6.238061499999958,1321.989240875,1321.9911407910001,1322.439831083,1322.275780375,,,,,,,,1321.985782708,1321.9891943330001,None,,,,,,,,,,,207,bathroom,1,2024-03-16_09h06.52.306,image_similarity_rating,2023.2.3,None,2024-03-16 09h07.06.193690 +0100,
,102,111,40,40,stimuli/own/bathroom/102_bat.jpg,stimuli/own/bathroom/111_bat.jpg,,,,,,,,,0,125,125,39,1329.107757541,,,,,,,,,,,1329.392216958,1329.5595767080001,1329.5595767080001,1329.5595767080001,1329.5595767080001,1329.5595767080001,1329.5595767080001,1329.5595767080001,1329.5595767080001,1329.5595767080001,1337.585836333,7,-7,2,4.0,6.664053707999983,3.0,7.7639171250000345,1329.106005541,1329.107757541,1329.5595767080001,1329.39220325,,,,,,,,1329.102441166,1329.1059585,None,,,,,,,,,,,207,bathroom,1,2024-03-16_09h06.52.306,image_similarity_rating,2023.2.3,None,2024-03-16 09h07.06.193690 +0100,
,116,124,327,327,stimuli/own/bathroom/116_bat.jpg,stimuli/own/bathroom/124_bat.jpg,,,,,,,,,0,126,126,326,1337.591716125,,,,,,,,,,,1348.004520333,1348.1780564160001,1348.1780564160001,1348.1780564160001,1348.1780564160001,1348.1780564160001,1348.1780564160001,1348.1780564160001,1348.1780564160001,1348.1780564160001,1355.214184958,-7,7,3,3.0,4.727043915999957,3.0,6.876612166000086,1347.710768166,1347.720593208,1348.1780564160001,1348.004502583,,,,,,,,1337.586055958,1347.710403625,space,1337.591716125,10.11850670800004,None,,,,,,,,207,bathroom,1,2024-03-16_09h06.52.306,image_similarity_rating,2023.2.3,None,2024-03-16 09h07.06.193690 +0100,
,125,127,492,492,stimuli/own/bathroom/125_bat.jpg,stimuli/own/bathroom/127_bat.jpg,,,,,,,,,0,127,127,491,1355.2364628750001,,,,,,,,,,,1355.520635375,1355.687368666,1355.687368666,1355.687368666,1355.687368666,1355.687368666,1355.687368666,1355.687368666,1355.687368666,1355.687368666,1362.0640129160001,-7,7,3,7.0,2.5502679169999283,5.0,6.251252583999985,1355.218355041,1355.2364628750001,,1355.5206156660001,,,,,,,,1355.214407666,1355.218307208,None,,,,,,,,,,,207,bathroom,1,2024-03-16_09h06.52.306,image_similarity_rating,2023.2.3,None,2024-03-16 09h07.06.193690 +0100,
,136,139,583,603,stimuli/own/bathroom/136_bat.jpg,stimuli/own/bathroom/139_bat.jpg,,,,,,,,,0,128,128,602,1362.0698689160001,,,,,,,,,,,1362.3544321250001,1362.519077375,1362.519077375,1362.519077375,1362.519077375,1362.519077375,1362.519077375,1362.519077375,1362.519077375,1362.519077375,1371.664037666,7,-7,3,4.0,8.986715000000004,6.0,5.0421637500001,1362.067653541,1362.0698689160001,1362.519077375,1362.354416833,,,,,,,,1362.0642372910002,1362.067607333,None,,,,,,,,,,,207,bathroom,1,2024-03-16_09h06.52.306,image_similarity_rating,2023.2.3,None,2024-03-16 09h07.06.193690 +0100,
,113,136,290,290,stimuli/own/bathroom/113_bat.jpg,stimuli/own/bathroom/136_bat.jpg,,,,,,,,,0,129,129,289,1371.669461125,,,,,,,,,,,1371.9543699160001,1372.1233125,1372.1233125,1372.1233125,1372.1233125,1372.1233125,1372.1233125,1372.1233125,1372.1233125,1372.1233125,1377.626803791,-7,7,3,4.0,5.276849500000026,5.0,2.177440499999875,1371.667692291,1371.669461125,1372.1233125,1371.954352791,,,,,,,,1371.6642657500001,1371.667643166,None,,,,,,,,,,,207,bathroom,1,2024-03-16_09h06.52.306,image_similarity_rating,2023.2.3,None,2024-03-16 09h07.06.193690 +0100,
,102,126,54,54,stimuli/own/bathroom/102_bat.jpg,stimuli/own/bathroom/126_bat.jpg,,,,,,,,,0,130,130,53,1377.6364040830001,,,,,,,,,,,1377.921095083,1378.091590708,1378.091590708,1378.091590708,1378.091590708,1378.091590708,1378.091590708,1378.091590708,1378.091590708,1378.091590708,1384.5931896250002,-7,7,3,5.0,4.886575791000041,3.0,6.365805249999994,1377.630479333,1377.6364040830001,1378.091590708,1377.921078,,,,,,,,1377.627025791,1377.630430291,None,,,,,,,,,,,207,bathroom,1,2024-03-16_09h06.52.306,image_similarity_rating,2023.2.3,None,2024-03-16 09h07.06.193690 +0100,
,119,130,395,395,stimuli/own/bathroom/119_bat.jpg,stimuli/own/bathroom/130_bat.jpg,,,,,,,,,0,131,131,394,1384.603006375,,,,,,,,,,,1384.887581833,1385.053330583,1385.053330583,1385.053330583,1385.053330583,1385.053330583,1385.053330583,1385.053330583,1385.053330583,1385.053330583,1391.656389916,7,-7,3,5.0,6.464532125000005,3.0,2.5916635829998995,1384.59683825,1384.603006375,1385.053330583,1384.8875667500001,,,,,,,,1384.593412125,1384.5967895830001,None,,,,,,,,,,,207,bathroom,1,2024-03-16_09h06.52.306,image_similarity_rating,2023.2.3,None,2024-03-16 09h07.06.193690 +0100,
,116,123,326,326,stimuli/own/bathroom/116_bat.jpg,stimuli/own/bathroom/123_bat.jpg,,,,,,,,,0,132,132,325,1391.662185791,,,,,,,,,,,1391.9546378750001,1392.119476666,1392.119476666,1392.119476666,1392.119476666,1392.119476666,1392.119476666,1392.119476666,1392.119476666,1392.119476666,1400.6141115,7,-7,3,4.0,8.278883749999977,7.0,3.496033916999977,1391.660079291,1391.662185791,1392.119476666,1391.9546215,,,,,,,,1391.6566143750001,1391.660031416,None,,,,,,,,,,,207,bathroom,1,2024-03-16_09h06.52.306,image_similarity_rating,2023.2.3,None,2024-03-16 09h07.06.193690 +0100,
,125,141,504,504,stimuli/own/bathroom/125_bat.jpg,stimuli/own/bathroom/141_bat.jpg,,,,,,,,,0,133,133,503,1400.619860166,,,,,,,,,,,1400.904354,1401.069779916,1401.069779916,1401.069779916,1401.069779916,1401.069779916,1401.069779916,1401.069779916,1401.069779916,1401.069779916,1407.0431088750001,7,-7,3,3.0,5.845405292000123,6.0,2.725024208999912,1400.617761875,1400.619860166,1401.069779916,1400.90433575,,,,,,,,1400.614333875,1400.617715583,None,,,,,,,,,,,207,bathroom,1,2024-03-16_09h06.52.306,image_similarity_rating,2023.2.3,None,2024-03-16 09h07.06.193690 +0100,
,121,127,430,430,stimuli/own/bathroom/121_bat.jpg,stimuli/own/bathroom/127_bat.jpg,,,,,,,,,0,134,134,429,1407.052939875,,,,,,,,,,,1407.3375746250001,1407.504491041,1407.504491041,1407.504491041,1407.504491041,1407.504491041,1407.504491041,1407.504491041,1407.504491041,1407.504491041,1413.121948541,7,-7,3,4.0,5.492311625000184,2.0,2.2551946250000583,1407.046758208,1407.052939875,1407.504491041,1407.337559291,,,,,,,,1407.043332916,1407.046711416,None,,,,,,,,,,,207,bathroom,1,2024-03-16_09h06.52.306,image_similarity_rating,2023.2.3,None,2024-03-16 09h07.06.193690 +0100,
,122,130,449,449,stimuli/own/bathroom/122_bat.jpg,stimuli/own/bathroom/130_bat.jpg,,,,,,,,,0,135,135,448,1413.127533625,,,,,,,,,,,1413.420802458,1413.585144333,1413.585144333,1413.585144333,1413.585144333,1413.585144333,1413.585144333,1413.585144333,1413.585144333,1413.585144333,1422.338702708,7,-7,3,3.0,7.075496208000004,3.0,8.455091041999822,1413.125600041,1413.127533625,1413.585144333,1413.420788541,,,,,,,,1413.122169708,1413.1255538750002,None,,,,,,,,,,,207,bathroom,1,2024-03-16_09h06.52.306,image_similarity_rating,2023.2.3,None,2024-03-16 09h07.06.193690 +0100,
,125,138,501,501,stimuli/own/bathroom/125_bat.jpg,stimuli/own/bathroom/138_bat.jpg,,,,,,,,,0,136,136,500,1422.344112291,,,,,,,,,,,1422.637513375,1422.805220125,1422.805220125,1422.805220125,1422.805220125,1422.805220125,1422.805220125,1422.805220125,1422.805220125,1422.805220125,1428.392959166,7,-7,3,4.0,5.538800625000022,5.0,3.0179253329999938,1422.342343,1422.344112291,1422.805220125,1422.6374982500001,,,,,,,,1422.338921875,1422.342296708,None,,,,,,,,,,,207,bathroom,1,2024-03-16_09h06.52.306,image_similarity_rating,2023.2.3,None,2024-03-16 09h07.06.193690 +0100,
,106,127,177,177,stimuli/own/bathroom/106_bat.jpg,stimuli/own/bathroom/127_bat.jpg,,,,,,,,,0,137,137,176,1428.402865,,,,,,,,,,,1428.687583541,1428.8589213330001,1428.8589213330001,1428.8589213330001,1428.8589213330001,1428.8589213330001,1428.8589213330001,1428.8589213330001,1428.8589213330001,1428.8589213330001,1435.809309916,-7,7,3,3.0,4.958353125000031,4.0,6.7649270839999645,1428.396618708,1428.402865,1428.8589213330001,1428.687566333,,,,,,,,1428.3931882910001,1428.396572541,None,,,,,,,,,,,207,bathroom,1,2024-03-16_09h06.52.306,image_similarity_rating,2023.2.3,None,2024-03-16 09h07.06.193690 +0100,
,122,138,456,456,stimuli/own/bathroom/122_bat.jpg,stimuli/own/bathroom/138_bat.jpg,,,,,,,,,0,138,138,455,1435.819628,,,,,,,,,,,1436.104054791,1436.268687875,1436.268687875,1436.268687875,1436.268687875,1436.268687875,1436.268687875,1436.268687875,1436.268687875,1436.268687875,1443.892271125,-7,7,3,4.0,7.606950042000108,6.0,2.4284292079998977,1435.813101166,1435.819628,1436.268687875,1436.1040395,,,,,,,,1435.809527833,1435.813054791,None,,,,,,,,,,,207,bathroom,1,2024-03-16_09h06.52.306,image_similarity_rating,2023.2.3,None,2024-03-16 09h07.06.193690 +0100,
,122,132,451,451,stimuli/own/bathroom/122_bat.jpg,stimuli/own/bathroom/132_bat.jpg,,,,,,,,,0,139,139,450,1443.9028325,,,,,,,,,,,1444.187277583,1444.358695541,1444.358695541,1444.358695541,1444.358695541,1444.358695541,1444.358695541,1444.358695541,1444.358695541,1444.358695541,1452.405258083,7,-7,3,5.0,5.417092416999822,2.0,7.8959188339999855,1443.896032541,1443.9028325,1444.358695541,1444.187254791,,,,,,,,1443.892491041,1443.895984125,None,,,,,,,,,,,207,bathroom,1,2024-03-16_09h06.52.306,image_similarity_rating,2023.2.3,None,2024-03-16 09h07.06.193690 +0100,
,123,141,475,475,stimuli/own/bathroom/123_bat.jpg,stimuli/own/bathroom/141_bat.jpg,,,,,,,,,0,140,140,474,1452.410656791,,,,,,,,,,,1452.704105875,1452.869022208,1452.869022208,1452.869022208,1452.869022208,1452.869022208,1452.869022208,1452.869022208,1452.869022208,1452.869022208,1466.046770958,7,-7,3,4.0,10.374706166999886,3.0,12.992999333999933,1452.408891375,1452.410656791,1452.869022208,1452.704084666,,,,,,,,1452.40547575,1452.408843,None,,,,,,,,,,,207,bathroom,1,2024-03-16_09h06.52.306,image_similarity_rating,2023.2.3,None,2024-03-16 09h07.06.193690 +0100,
,103,121,81,81,stimuli/own/bathroom/103_bat.jpg,stimuli/own/bathroom/121_bat.jpg,,,,,,,,,0,141,141,80,1466.0523901660001,,,,,,,,,,,1466.337347875,1466.508875958,1466.508875958,1466.508875958,1466.508875958,1466.508875958,1466.508875958,1466.508875958,1466.508875958,1466.508875958,1473.821767083,-7,7,3,6.0,7.084742125000048,3.0,3.255205665999938,1466.0504249580001,1466.0523901660001,1466.508875958,1466.337326541,,,,,,,,1466.046994833,1466.050378333,None,,,,,,,,,,,207,bathroom,1,2024-03-16_09h06.52.306,image_similarity_rating,2023.2.3,None,2024-03-16 09h07.06.193690 +0100,
,119,139,403,403,stimuli/own/bathroom/119_bat.jpg,stimuli/own/bathroom/139_bat.jpg,,,,,,,,,0,142,142,402,1473.827491125,,,,,,,,,,,1474.120548208,1474.285053333,1474.285053333,1474.285053333,1474.285053333,1474.285053333,1474.285053333,1474.285053333,1474.285053333,1474.285053333,1480.334978666,-7,7,3,4.0,6.010259124999948,6.0,4.064900249999937,1473.825512375,1473.827491125,1474.285053333,1474.1205286250001,,,,,,,,1473.82198675,1473.825465958,None,,,,,,,,,,,207,bathroom,1,2024-03-16_09h06.52.306,image_similarity_rating,2023.2.3,None,2024-03-16 09h07.06.193690 +0100,
,112,123,254,254,stimuli/own/bathroom/112_bat.jpg,stimuli/own/bathroom/123_bat.jpg,,,,,,,,,0,143,143,253,1480.340603,,,,,,,,,,,1480.624685,1480.7886739580001,1480.7886739580001,1480.7886739580001,1480.7886739580001,1480.7886739580001,1480.7886739580001,1480.7886739580001,1480.7886739580001,1480.7886739580001,1487.409133916,7,-7,3,5.0,5.499163499999895,3.0,6.185094459000084,1480.3386828750001,1480.340603,1480.7886739580001,1480.624671875,,,,,,,,1480.335219791,1480.338637041,None,,,,,,,,,,,207,bathroom,1,2024-03-16_09h06.52.306,image_similarity_rating,2023.2.3,None,2024-03-16 09h07.06.193690 +0100,
,127,138,526,526,stimuli/own/bathroom/127_bat.jpg,stimuli/own/bathroom/138_bat.jpg,,,,,,,,,0,144,144,525,1487.4192465830001,,,,,,,,,,,1487.703905583,1487.87566975,1487.87566975,1487.87566975,1487.87566975,1487.87566975,1487.87566975,1487.87566975,1487.87566975,1487.87566975,1495.655089416,-7,7,3,3.0,5.14416633299993,2.0,7.091573667000148,1487.4127928750002,1487.4192465830001,1487.87566975,1487.703879416,,,,,,,,1487.4093546660001,1487.412746875,None,,,,,,,,,,,207,bathroom,1,2024-03-16_09h06.52.306,image_similarity_rating,2023.2.3,None,2024-03-16 09h07.06.193690 +0100,
,102,131,58,58,stimuli/own/bathroom/102_bat.jpg,stimuli/own/bathroom/131_bat.jpg,,,,,,,,,0,145,145,57,1495.660530375,,,,,,,,,,,1495.95467075,1496.120026041,1496.120026041,1496.120026041,1496.120026041,1496.120026041,1496.120026041,1496.120026041,1496.120026041,1496.120026041,1501.655026291,7,-7,3,1.0,3.569546708999951,1.0,5.387628332999839,1495.65872975,1495.660530375,1496.120026041,1495.9546566660001,,,,,,,,1495.655310541,1495.658683916,None,,,,,,,,,,,207,bathroom,1,2024-03-16_09h06.52.306,image_similarity_rating,2023.2.3,None,2024-03-16 09h07.06.193690 +0100,
,117,124,349,349,stimuli/own/bathroom/117_bat.jpg,stimuli/own/bathroom/124_bat.jpg,,,,,,,,,0,146,146,348,1501.660695708,,,,,,,,,,,1501.955069291,1502.120295208,1502.120295208,1502.120295208,1502.120295208,1502.120295208,1502.120295208,1502.120295208,1502.120295208,1502.120295208,1511.272504583,7,-7,3,5.0,6.088000916000055,3.0,7.5017850000001545,1501.658765791,1501.660695708,1502.120295208,1501.95505325,,,,,,,,1501.655244,1501.6587195,None,,,,,,,,,,,207,bathroom,1,2024-03-16_09h06.52.306,image_similarity_rating,2023.2.3,None,2024-03-16 09h07.06.193690 +0100,
,113,126,282,282,stimuli/own/bathroom/113_bat.jpg,stimuli/own/bathroom/126_bat.jpg,,,,,,,,,0,147,147,281,1511.278181291,,,,,,,,,,,1511.570483791,1511.735624375,1511.735624375,1511.735624375,1511.735624375,1511.735624375,1511.735624375,1511.735624375,1511.735624375,1511.735624375,1518.49691875,7,-7,3,4.0,4.671540625000034,2.0,6.573401041999887,1511.276252208,1511.278181291,1511.735624375,1511.570467708,,,,,,,,1511.2727285,1511.2762063750001,None,,,,,,,,,,,207,bathroom,1,2024-03-16_09h06.52.306,image_similarity_rating,2023.2.3,None,2024-03-16 09h07.06.193690 +0100,
,104,113,105,105,stimuli/own/bathroom/104_bat.jpg,stimuli/own/bathroom/113_bat.jpg,,,,,,,,,0,148,148,104,1518.502533416,,,,,,,,,,,1518.787263333,1518.956729583,1518.956729583,1518.956729583,1518.956729583,1518.956729583,1518.956729583,1518.956729583,1518.956729583,1518.956729583,1526.842605458,7,-7,3,3.0,6.067296457999873,1.0,2.24077125000008,1518.5007022910002,1518.502533416,1518.956729583,1518.7872460830001,,,,,,,,1518.497141041,1518.500655333,None,,,,,,,,,,,207,bathroom,1,2024-03-16_09h06.52.306,image_similarity_rating,2023.2.3,None,2024-03-16 09h07.06.193690 +0100,
,101,126,21,21,stimuli/own/bathroom/101_bat.jpg,stimuli/own/bathroom/126_bat.jpg,,,,,,,,,0,149,149,20,1526.852434458,,,,,,,,,,,1527.137135083,1527.30898475,1527.30898475,1527.30898475,1527.30898475,1527.30898475,1527.30898475,1527.30898475,1527.30898475,1527.30898475,1535.713967916,7,-7,3,6.0,5.593576542000164,5.0,8.216860042000008,1526.8462716660001,1526.852434458,1527.30898475,1527.1371187910001,,,,,,,,1526.8428282500001,1526.846225458,None,,,,,,,,,,,207,bathroom,1,2024-03-16_09h06.52.306,image_similarity_rating,2023.2.3,None,2024-03-16 09h07.06.193690 +0100,
,106,131,180,180,stimuli/own/bathroom/106_bat.jpg,stimuli/own/bathroom/131_bat.jpg,,,,,,,,,0,150,150,179,1535.735827041,,,,,,,,,,,1536.020020916,1536.190918583,1536.190918583,1536.190918583,1536.190918583,1536.190918583,1536.190918583,1536.190918583,1536.190918583,1536.190918583,1544.035037166,-7,7,3,6.0,3.141909417000079,7.0,7.013215667000168,1535.717611125,1535.735827041,,1536.019995458,,,,,,,,1535.7141865410001,1535.7175650000001,None,,,,,,,,,,,207,bathroom,1,2024-03-16_09h06.52.306,image_similarity_rating,2023.2.3,None,2024-03-16 09h07.06.193690 +0100,
,122,124,444,444,stimuli/own/bathroom/122_bat.jpg,stimuli/own/bathroom/124_bat.jpg,,,,,,,,,0,151,151,443,1544.0406765,,,,,,,,,,,1544.32389975,1544.486809041,1544.486809041,1544.486809041,1544.486809041,1544.486809041,1544.486809041,1544.486809041,1544.486809041,1544.486809041,1551.234610333,7,-7,3,6.0,6.604605917000072,5.0,4.437657499999887,1544.0387451660001,1544.0406765,1544.486809041,1544.3238892910001,,,,,,,,1544.0352553330001,1544.038699291,None,,,,,,,,,,,207,bathroom,1,2024-03-16_09h06.52.306,image_similarity_rating,2023.2.3,None,2024-03-16 09h07.06.193690 +0100,
,101,129,23,23,stimuli/own/bathroom/101_bat.jpg,stimuli/own/bathroom/129_bat.jpg,,,,,,,,,0,152,152,22,1551.240059666,,,,,,,,,,,1551.524322333,1551.6879692500002,1551.6879692500002,1551.6879692500002,1551.6879692500002,1551.6879692500002,1551.6879692500002,1551.6879692500002,1551.6879692500002,1551.6879692500002,1561.89694975,-7,7,3,4.0,8.030219875000057,4.0,10.073280290999946,1551.238311958,1551.240059666,1551.6879692500002,1551.524310458,,,,,,,,1551.234853,1551.2382654580001,None,,,,,,,,,,,207,bathroom,1,2024-03-16_09h06.52.306,image_similarity_rating,2023.2.3,None,2024-03-16 09h07.06.193690 +0100,
,120,125,410,410,stimuli/own/bathroom/120_bat.jpg,stimuli/own/bathroom/125_bat.jpg,,,,,,,,,0,153,153,409,1561.919261791,,,,,,,,,,,1562.203241958,1562.369558375,1562.369558375,1562.369558375,1562.369558375,1562.369558375,1562.369558375,1562.369558375,1562.369558375,1562.369558375,1567.371400916,7,-7,3,6.0,4.862082875000169,7.0,3.828068124999845,1561.900595,1561.919261791,,1562.203210541,,,,,,,,1561.897168291,1561.900549125,None,,,,,,,,,,,207,bathroom,1,2024-03-16_09h06.52.306,image_similarity_rating,2023.2.3,None,2024-03-16 09h07.06.193690 +0100,
,102,114,43,43,stimuli/own/bathroom/102_bat.jpg,stimuli/own/bathroom/114_bat.jpg,,,,,,,,,0,154,154,42,1567.377092916,,,,,,,,,,,1567.670303583,1567.8360493750001,1567.8360493750001,1567.8360493750001,1567.8360493750001,1567.8360493750001,1567.8360493750001,1567.8360493750001,1567.8360493750001,1567.8360493750001,1573.0417152080001,7,-7,3,6.0,3.7915118340001754,3.0,5.046659249999948,1567.375159291,1567.377092916,1567.8360493750001,1567.670284375,,,,,,,,1567.371622125,1567.375113458,None,,,,,,,,,,,207,bathroom,1,2024-03-16_09h06.52.306,image_similarity_rating,2023.2.3,None,2024-03-16 09h07.06.193690 +0100,
,109,131,208,208,stimuli/own/bathroom/109_bat.jpg,stimuli/own/bathroom/131_bat.jpg,,,,,,,,,0,155,155,207,1573.052285208,,,,,,,,,,,1573.337682708,1573.502969541,1573.502969541,1573.502969541,1573.502969541,1573.502969541,1573.502969541,1573.502969541,1573.502969541,1573.502969541,1581.175171875,7,-7,3,1.0,5.540181957999948,1.0,7.410222167000029,1573.045359041,1573.052285208,1573.502969541,1573.337669125,,,,,,,,1573.041934416,1573.045311,None,,,,,,,,,,,207,bathroom,1,2024-03-16_09h06.52.306,image_similarity_rating,2023.2.3,None,2024-03-16 09h07.06.193690 +0100,
,102,134,60,60,stimuli/own/bathroom/102_bat.jpg,stimuli/own/bathroom/134_bat.jpg,,,,,,,,,0,156,156,59,1581.1856346250001,,,,,,,,,,,1581.4703005000001,1581.638972708,1581.638972708,1581.638972708,1581.638972708,1581.638972708,1581.638972708,1581.638972708,1581.638972708,1581.638972708,1590.001020791,-7,7,3,5.0,5.887377041999798,4.0,8.176023291000092,1581.1788125,1581.1856346250001,1581.638972708,1581.4702823330001,,,,,,,,1581.175392333,1581.178766083,None,,,,,,,,,,,207,bathroom,1,2024-03-16_09h06.52.306,image_similarity_rating,2023.2.3,None,2024-03-16 09h07.06.193690 +0100,
