sub_num,trial,block,task,is_practice,category,image,texture,duration,mask_dur,jitter,stim_time,time_of_resp,trial_response,mask_time,fix_time,jit_onset,trial_end,trial_accuracy,RT
120,1,24,categorization,0,bathroom,SHINEd_sun_aggnnqpdorgxpvce.tif,21,0.0666666666666667,0.0666666666666667,0.733333333333333,23607.290734083,23608.617636042,13,23607.352627083,23607.413693042,23608.632673167,23609.359344833,1,1.32690195900068
120,2,24,categorization,0,kitchen,SHINEd_sun_akcjzhbbjlbogpdi.tif,99,0.0666666666666667,0.0666666666666667,1.26666666666667,23609.364195458,23614.2043075,13,23609.425881167,23609.486967542,23614.222986375,23615.483016667,0,4.84011204199851
120,3,24,categorization,0,kitchen,SHINEd_labelme_rykdqxenmhulbdn.tif,63,0.0666666666666667,0.0666666666666667,0.75,23615.498917375,23616.428458167,13,23615.56659575,23615.631342375,23616.454651583,23617.198034625,0,0.929540791999898
120,4,24,categorization,0,kitchen,SHINEd_sun_abrcnpqqhmjwekyf.tif,73,0.0666666666666667,0.0666666666666667,1.08333333333333,23617.215597375,23618.913727083,13,23617.27981175,23617.339581542,23618.925187583,23620.001894625,0,1.69812970799831
120,5,24,categorization,0,kitchen,SHINEd_sun_acfmftudsenhrfhy.tif,74,0.0666666666666667,0.0666666666666667,1.28333333333333,23620.012008667,23620.773826833,9,23620.076600833,23620.144688208,23620.801681167,23622.078388792,1,0.761818166000012
120,6,24,categorization,0,kitchen,SHINEd_sun_awcpdzzznmweyyhv.tif,106,0.0666666666666667,0.0666666666666667,0.9,23622.095664208,23622.851305583,9,23622.162712542,23622.228001458,23622.867889833,23623.761277542,1,0.755641375002597
120,7,24,categorization,0,kitchen,SHINEd_sun_auticobqsbwgoppi.tif,104,0.0666666666666667,0.0666666666666667,1.8,23623.773286708,23624.497433333,9,23623.840302417,23623.905771,23624.508178542,23626.301555958,1,0.724146624997957
120,8,24,categorization,0,bathroom,SHINEd_sun_agrwbmhcpmfuwmsg.tif,24,0.0666666666666667,0.0666666666666667,1.06666666666667,23626.31437175,23627.420102542,9,23626.381131417,23626.44669125,23627.435819375,23628.495867417,0,1.10573079200185
120,9,24,categorization,0,bathroom,SHINEd_sun_anhioqovhscjqqwb.tif,38,0.0666666666666667,0.0666666666666667,0.783333333333333,23628.506030375,23630.32380825,13,23628.571070083,23628.635418667,23630.344203917,23631.120875875,1,1.81777787499959
120,10,24,categorization,0,bathroom,SHINEd_sun_aofnryafpsjimzsb.tif,40,0.0666666666666667,0.0666666666666667,0.966666666666667,23631.125938375,23632.017404333,13,23631.187728792,23631.248689625,23632.033748,23632.993752333,1,0.891465958000481
120,11,24,categorization,0,bathroom,SHINEd_sun_axyrejkiiaqiurjk.tif,59,0.0666666666666667,0.0666666666666667,0.95,23632.998706458,23634.010250375,13,23633.060491917,23633.121366333,23634.023139917,23634.966478667,1,1.01154391700038
120,12,24,categorization,0,bathroom,SHINEd_sun_ajlawzvmubibwbpy.tif,30,0.0666666666666667,0.0666666666666667,0.966666666666667,23634.971348917,23636.346080083,13,23635.033389375,23635.0939985,23636.363358375,23637.323362833,1,1.37473116600086
120,13,24,categorization,0,kitchen,SHINEd_sun_aypmqwcualkenuoe.tif,109,0.0666666666666667,0.0666666666666667,1.31666666666667,23637.328255375,23638.033531542,9,23637.390026,23637.450941583,23638.052759375,23639.362800292,1,0.705276167002012
120,14,24,categorization,0,kitchen,SHINEd_sun_abdxkyyxwfskuaqb.tif,70,0.0666666666666667,0.0666666666666667,0.766666666666667,23639.379232292,23640.597779792,13,23639.44717375,23639.511534,23640.617495542,23641.377500833,0,1.21854749999693
120,15,24,categorization,0,kitchen,SHINEd_sun_abpwyqmlzafvklqo.tif,72,0.0666666666666667,0.0666666666666667,1.61666666666667,23641.382548542,23642.906161167,9,23641.444222,23641.505276375,23642.924082833,23644.53411775,1,1.52361262500199
120,16,24,categorization,0,kitchen,SHINEd_sun_ajcbwwvdlsvjyzje.tif,96,0.0666666666666667,0.0666666666666667,1.93333333333333,23644.554329917,23645.918123833,13,23644.621001542,23644.686829833,23645.9423735,23647.86909275,0,1.36379391599985
120,17,24,categorization,0,kitchen,SHINEd_sun_aeqdocilnnpuvuhx.tif,83,0.0666666666666667,0.0666666666666667,0.733333333333333,23647.886946708,23649.018179625,13,23647.952197375,23648.016148208,23649.035557292,23649.762228667,0,1.13123291699958
120,18,24,categorization,0,kitchen,SHINEd_sun_afuyedyxivkhecmu.tif,85,0.0666666666666667,0.0666666666666667,1.63333333333333,23649.767808667,23652.057324375,9,23649.82961,23649.890461458,23652.076078792,23653.702783042,1,2.289515708002
120,19,24,categorization,0,kitchen,SHINEd_sun_ahpczsiumwwocjkv.tif,92,0.0666666666666667,0.0666666666666667,1.51666666666667,23653.721724708,23656.658172583,9,23653.788148667,23653.854091292,23656.6732645,23658.183308083,1,2.93644787499943
120,20,24,categorization,0,kitchen,SHINEd_sun_adgqasybjyktddhj.tif,78,0.0666666666666667,0.0666666666666667,1.68333333333333,23658.204784292,23659.119319458,9,23658.272729917,23658.337370458,23659.143856375,23660.820572917,1,0.91453516600086
120,21,24,categorization,0,kitchen,SHINEd_sun_acxkpeoqbwcxfvip.tif,77,0.0666666666666667,0.0666666666666667,1.28333333333333,23660.839692333,23661.726282792,9,23660.906216,23660.972159875,23661.744891375,23663.021605083,1,0.886590458998398
120,22,24,categorization,0,kitchen,SHINEd_sun_aadbddgrdsjugojn.tif,64,0.0666666666666667,0.0666666666666667,0.766666666666667,23663.038318333,23663.874914958,9,23663.105010208,23663.1712095,23663.894111833,23664.654143,1,0.836596624998492
120,23,24,categorization,0,kitchen,SHINEd_sun_ahljzhgcdpomplvg.tif,91,0.0666666666666667,0.0666666666666667,1.1,23664.670124833,23665.281772833,9,23664.737069083,23664.802586125,23665.288470333,23666.381834125,1,0.611648000001878
120,24,24,categorization,0,bathroom,SHINEd_sun_aunuadmjocsddsrl.tif,52,0.0666666666666667,0.0666666666666667,1.55,23666.392309792,23667.574785375,9,23666.457891708,23666.52536325,23667.602435125,23669.145801458,0,1.18247558299845
120,25,24,categorization,0,bathroom,SHINEd_sun_apkruvsevgegsdwp.tif,44,0.0666666666666667,0.0666666666666667,1.88333333333333,23669.165138708,23669.842108667,9,23669.233494333,23669.296153458,23669.870324083,23671.747042458,0,0.676969959000417
120,26,24,categorization,0,bathroom,SHINEd_sun_ahijqszoswveeyji.tif,28,0.0666666666666667,0.0666666666666667,1.05,23671.766076375,23672.444112375,13,23671.832995042,23671.898841417,23672.472985875,23673.516352583,1,0.678036000001157
120,27,24,categorization,0,kitchen,SHINEd_sun_amjjdeyrggfqgmom.tif,100,0.0666666666666667,0.0666666666666667,0.933333333333333,23673.526491375,23674.365307333,9,23673.59166475,23673.657474542,23674.381061,23675.307775,1,0.838815957999032
120,28,24,categorization,0,bathroom,SHINEd_sun_awnqiikzaispgmwo.tif,56,0.0666666666666667,0.0666666666666667,1.4,23675.326184333,23676.073358542,13,23675.393359833,23675.459303,23676.078133042,23677.471522583,1,0.747174208998331
120,29,24,categorization,0,kitchen,SHINEd_sun_acwjdupvyjsugpay.tif,76,0.0666666666666667,0.0666666666666667,1.85,23677.488698042,23678.3178455,9,23677.555288917,23677.621174208,23678.344248625,23680.187615833,1,0.829147458000079
120,30,24,categorization,0,bathroom,SHINEd_sun_apeeialkgkuxddgh.tif,42,0.0666666666666667,0.0666666666666667,1.2,23680.203118708,23681.074839708,13,23680.269601208,23680.3357185,23681.091972417,23682.285347458,1,0.871720999999525
120,31,24,categorization,0,bathroom,SHINEd_sun_anryaplzeujmzfkd.tif,39,0.0666666666666667,0.0666666666666667,1.33333333333333,23682.295998333,23683.039017958,13,23682.364397833,23682.428509292,23683.068453208,23684.395156875,1,0.743019624998851
120,32,24,categorization,0,kitchen,SHINEd_sun_aqeaevwwwjoqhzvl.tif,101,0.0666666666666667,0.0666666666666667,0.8,23684.411552583,23686.116029667,9,23684.478770208,23684.544286375,23686.135603042,23686.928940208,1,1.70447708400025
120,33,24,categorization,0,bathroom,SHINEd_sun_afcoljnjfoxjtgja.tif,20,0.0666666666666667,0.0666666666666667,0.7,23686.935160083,23687.713696458,13,23686.996937542,23687.057901417,23687.7268565,23688.42019325,1,0.778536374997202
120,34,24,categorization,0,bathroom,SHINEd_sun_aoybiabnpadelefl.tif,41,0.0666666666666667,0.0666666666666667,1.26666666666667,23688.425204792,23689.457128625,13,23688.48688125,23688.54797625,23689.466996792,23690.727049625,1,1.03192383299756
120,35,24,categorization,0,kitchen,SHINEd_sun_avszsnwsbuqfgzbn.tif,105,0.0666666666666667,0.0666666666666667,1.98333333333333,23690.743772833,23691.4934595,9,23690.810708375,23690.876419708,23691.516573917,23693.493293375,1,0.749686667000788
120,36,24,categorization,0,kitchen,SHINEd_sun_ahdycvpopffkzzsu.tif,90,0.0666666666666667,0.0666666666666667,1.18333333333333,23693.510456125,23694.406910458,13,23693.57714825,23693.643055083,23694.433043667,23695.60974475,0,0.896454333000293
120,37,24,categorization,0,bathroom,SHINEd_sun_auzqhkafidnkrwmo.tif,54,0.0666666666666667,0.0666666666666667,0.916666666666667,23695.620162458,23696.556852917,13,23695.687340583,23695.752945875,23696.576068167,23697.486076208,1,0.936690459002421
120,38,24,categorization,0,bathroom,SHINEd_sun_atstyziqcmkahyxk.tif,51,0.0666666666666667,0.0666666666666667,1,23697.492271708,23698.145739667,13,23697.554021417,23697.61507975,23698.150349083,23699.143685417,1,0.653467959000409
120,39,24,categorization,0,bathroom,SHINEd_sun_ausgutylgojavyoq.tif,53,0.0666666666666667,0.0666666666666667,1.63333333333333,23699.14851675,23699.873786417,13,23699.210305667,23699.271155375,23699.889853833,23701.5165665,1,0.725269667000248
120,40,24,categorization,0,kitchen,SHINEd_sun_abftihopvusyfakt.tif,71,0.0666666666666667,0.0666666666666667,1.36666666666667,23701.537697917,23702.3173145,9,23701.604455583,23701.670089917,23702.34340275,23703.703453375,1,0.779616583000461
120,41,24,categorization,0,kitchen,SHINEd_sun_akchetnepxlcxhsu.tif,98,0.0666666666666667,0.0666666666666667,1.1,23703.722418042,23706.225163958,13,23703.789168833,23703.855324,23706.240915833,23707.334280417,0,2.50274591599737
120,42,24,categorization,0,bathroom,SHINEd_sun_aclfzgynxzxlbepz.tif,19,0.0666666666666667,0.0666666666666667,1.43333333333333,23707.343613792,23708.442370625,13,23707.40835525,23707.475824375,23708.465896833,23709.892605833,1,1.09875683300197
120,43,24,categorization,0,kitchen,SHINEd_sun_agorklincwxrdtga.tif,87,0.0666666666666667,0.0666666666666667,0.883333333333333,23709.909722083,23710.590633667,9,23709.974916292,23710.041616833,23710.61493975,23711.491639792,1,0.680911584000569
120,44,24,categorization,0,kitchen,SHINEd_sun_aenotlpyftoioydp.tif,82,0.0666666666666667,0.0666666666666667,1.86666666666667,23711.508199625,23712.3375035,9,23711.570829167,23711.631087375,23712.349566875,23714.209623125,1,0.829303874998004
120,45,24,categorization,0,bathroom,SHINEd_sun_alkosphxlxwjwgjd.tif,34,0.0666666666666667,0.0666666666666667,0.966666666666667,23714.224024958,23716.537236292,13,23714.290952708,23714.356467333,23716.542018,23717.502025083,1,2.31321133399979
120,46,24,categorization,0,bathroom,SHINEd_sun_agyqfjcfkdcydepw.tif,25,0.0666666666666667,0.0666666666666667,1.86666666666667,23717.507705542,23718.978093417,13,23717.5694925,23717.630378708,23718.98318175,23720.843226875,1,1.4703878750006
120,47,24,categorization,0,kitchen,SHINEd_sun_ahywdevtimnqcsln.tif,94,0.0666666666666667,0.0666666666666667,1.33333333333333,23720.860377417,23721.780487292,13,23720.928378375,23720.992798208,23721.797404667,23723.124103958,0,0.920109874998161
120,48,24,categorization,0,bathroom,SHINEd_sun_ahaulkltgpkeeemi.tif,26,0.0666666666666667,0.0666666666666667,0.766666666666667,23723.141632,23724.867805333,13,23723.20959975,23723.274667208,23724.89619975,23725.656202958,1,1.7261733330015
120,49,24,categorization,0,kitchen,SHINEd_sun_admlmbcdswaszruo.tif,79,0.0666666666666667,0.0666666666666667,1,23725.660971958,23726.593356833,9,23725.722785542,23725.78373225,23726.602332583,23727.595669917,1,0.932384874999116
120,50,24,categorization,0,bathroom,SHINEd_sun_alotolagknyrgtsk.tif,35,0.0666666666666667,0.0666666666666667,0.716666666666667,23727.601409958,23728.281475333,9,23727.663012208,23727.724060333,23728.292672083,23729.002677292,0,0.680065374999685
