sub_num,trial,block,task,is_practice,category,image,texture,duration,mask_dur,jitter,stim_time,time_of_resp,trial_response,mask_time,fix_time,jit_onset,trial_end,trial_accuracy,RT
120,1,14,categorization,0,bathroom,SHINEd_sun_ahcvzmoyaycdoftf.tif,27,0.0666666666666667,0.0666666666666667,1.38333333333333,22006.692922375,22007.64785675,13,22006.75550625,22006.815888167,22007.6509785,22009.027688458,1,0.954934375000448
120,2,14,categorization,0,kitchen,SHINEd_sun_amjjdeyrggfqgmom.tif,100,0.0666666666666667,0.0666666666666667,1.48333333333333,22009.047356208,22010.186454875,9,22009.114247417,22009.179629875,22010.200791,22011.677507625,1,1.13909866700124
120,3,14,categorization,0,kitchen,SHINEd_sun_axyyrmzcupyhlivc.tif,107,0.0666666666666667,0.0666666666666667,0.966666666666667,22011.697706375,22014.20845775,9,22011.764366125,22011.8299235,22014.215772625,22015.175778875,1,2.51075137500084
120,4,14,categorization,0,kitchen,SHINEd_sun_ahpczsiumwwocjkv.tif,92,0.0666666666666667,0.0666666666666667,0.916666666666667,22015.181306708,22015.967868208,9,22015.243033417,22015.304050458,22015.972465167,22016.882470375,1,0.786561500000971
120,5,14,categorization,0,kitchen,SHINEd_sun_acxkpeoqbwcxfvip.tif,77,0.0666666666666667,0.0666666666666667,1.6,22016.888234125,22017.5999725,9,22016.95022175,22017.010809833,22017.612779583,22019.2061685,1,0.711738375001005
120,6,14,categorization,0,kitchen,SHINEd_sun_ahywdevtimnqcsln.tif,94,0.0666666666666667,0.0666666666666667,0.7,22019.216853167,22020.5866265,13,22019.284783167,22019.349579625,22020.607835708,22021.301174292,0,1.36977333300092
120,7,14,categorization,0,kitchen,SHINEd_sun_aarfiyshqohlwkmo.tif,67,0.0666666666666667,0.0666666666666667,1.7,22021.306250958,22022.183751625,9,22021.368010792,22021.428936208,22022.197745833,22023.891123917,1,0.877500667000277
120,8,14,categorization,0,bathroom,SHINEd_sun_aspsyogrekjtfozg.tif,50,0.0666666666666667,0.0666666666666667,1.05,22023.91158075,22025.064446333,13,22023.976400958,22024.042293833,22025.081290833,22026.1246665,1,1.15286558300068
120,9,14,categorization,0,bathroom,SHINEd_sun_apynckhmoftszqoq.tif,47,0.0666666666666667,0.0666666666666667,1.15,22026.136543333,22028.116245708,13,22026.20078175,22026.26809375,22028.141244542,22029.284618833,1,1.97970237499976
120,10,14,categorization,0,kitchen,SHINEd_sun_agzzivivdpnawacl.tif,89,0.0666666666666667,0.0666666666666667,1.85,22029.293948583,22032.271771542,9,22029.360736542,22029.42630525,22032.278731583,22034.122099625,1,2.97782295900106
120,11,14,categorization,0,bathroom,SHINEd_sun_aavhrsfjbserjtht.tif,13,0.0666666666666667,0.0666666666666667,1.2,22034.132261292,22034.978761417,13,22034.200573042,22034.264990292,22035.005180708,22036.198562083,1,0.846500125000603
120,12,14,categorization,0,bathroom,SHINEd_sun_axyrejkiiaqiurjk.tif,59,0.0666666666666667,0.0666666666666667,1.11666666666667,22036.215283083,22037.292395083,13,22036.282195083,22036.34758425,22037.320876333,22038.430913583,1,1.07711200000267
120,13,14,categorization,0,kitchen,SHINEd_sun_ahdycvpopffkzzsu.tif,90,0.0666666666666667,0.0666666666666667,1.41666666666667,22038.439958917,22039.297745125,13,22038.506261917,22038.572287208,22039.311182958,22040.721237833,0,0.857786208001926
120,14,14,categorization,0,kitchen,SHINEd_sun_abrcnpqqhmjwekyf.tif,73,0.0666666666666667,0.0666666666666667,1.05,22040.739481667,22042.959422917,9,22040.806286583,22040.872065,22042.974633708,22044.018000333,1,2.21994125000128
120,15,14,categorization,0,kitchen,SHINEd_sun_agorklincwxrdtga.tif,87,0.0666666666666667,0.0666666666666667,1.26666666666667,22044.029725583,22045.827304208,9,22044.094450625,22044.160670875,22045.852077042,22047.112124417,1,1.79757862499901
120,16,14,categorization,0,kitchen,SHINEd_sun_aypmqwcualkenuoe.tif,109,0.0666666666666667,0.0666666666666667,1.46666666666667,22047.12913225,22049.783826792,9,22047.196079375,22047.261925583,22049.797994458,22051.258043417,1,2.65469454200138
120,17,14,categorization,0,kitchen,SHINEd_labelme_rykdqxenmhulbdn.tif,63,0.0666666666666667,0.0666666666666667,0.8,22051.278803708,22055.1232125,13,22051.345457458,22051.411224833,22055.140030208,22055.933369375,0,3.84440879199974
120,18,14,categorization,0,kitchen,SHINEd_sun_aqeaevwwwjoqhzvl.tif,101,0.0666666666666667,0.0666666666666667,1.4,22055.937616208,22060.006045917,13,22055.999336625,22056.060296833,22060.022800625,22061.41617275,0,4.06842970900107
120,19,14,categorization,0,kitchen,SHINEd_sun_aexklacwqwezaorf.tif,84,0.0666666666666667,0.0666666666666667,0.966666666666667,22061.434576375,22063.655553,13,22061.501077,22061.56714225,22063.670071208,22064.630074708,0,2.22097662500164
120,20,14,categorization,0,kitchen,SHINEd_sun_afuyedyxivkhecmu.tif,85,0.0666666666666667,0.0666666666666667,0.916666666666667,22064.634983375,22065.527444333,9,22064.696686833,22064.757721333,22065.543193542,22066.453198292,1,0.89246095800263
120,21,14,categorization,0,bathroom,SHINEd_sun_afcoljnjfoxjtgja.tif,20,0.0666666666666667,0.0666666666666667,1.11666666666667,22066.458728542,22067.215328375,13,22066.520642958,22066.58136575,22067.233549542,22068.343592667,1,0.756599833002838
120,22,14,categorization,0,kitchen,SHINEd_labelme_kxvouciolcpqplr.tif,62,0.0666666666666667,0.0666666666666667,0.85,22068.352084833,22070.38436425,13,22068.416804667,22068.485614167,22070.405366792,22071.24870525,0,2.03227941699879
120,23,14,categorization,0,bathroom,SHINEd_sun_auzqhkafidnkrwmo.tif,54,0.0666666666666667,0.0666666666666667,1.81666666666667,22071.254236417,22072.02337925,13,22071.316008917,22071.376887792,22072.028622042,22073.838667625,1,0.769142832999933
120,24,14,categorization,0,bathroom,SHINEd_sun_alotolagknyrgtsk.tif,35,0.0666666666666667,0.0666666666666667,1.81666666666667,22073.855024167,22074.851478417,9,22073.920540167,22073.985961708,22074.8758415,22076.685892417,0,0.996454250001989
120,25,14,categorization,0,kitchen,SHINEd_sun_abpwyqmlzafvklqo.tif,72,0.0666666666666667,0.0666666666666667,1.33333333333333,22076.702700167,22078.663657167,9,22076.769253625,22076.834878708,22078.67070025,22079.997419042,1,1.96095699999933
120,26,14,categorization,0,bathroom,SHINEd_sun_agrwbmhcpmfuwmsg.tif,24,0.0666666666666667,0.0666666666666667,1,22080.008320583,22082.416047583,13,22080.075109917,22080.14089925,22082.426594542,22083.419931458,1,2.40772699999798
120,27,14,categorization,0,bathroom,SHINEd_sun_ahqjwnzgolcaoidx.tif,29,0.0666666666666667,0.0666666666666667,1.13333333333333,22083.425237125,22084.30397175,13,22083.486869792,22083.547842292,22084.316408625,22085.44310925,1,0.878734624999197
120,28,14,categorization,0,kitchen,SHINEd_sun_acfmftudsenhrfhy.tif,74,0.0666666666666667,0.0666666666666667,1.16666666666667,22085.45187425,22086.596944333,9,22085.516917417,22085.58419075,22086.62381725,22087.783872208,1,1.14507008299915
120,29,14,categorization,0,kitchen,SHINEd_sun_aenotlpyftoioydp.tif,82,0.0666666666666667,0.0666666666666667,0.75,22087.793532042,22088.842786292,9,22087.860212542,22087.923673458,22088.863489875,22089.606856208,1,1.04925424999965
120,30,14,categorization,0,kitchen,SHINEd_sun_ajkqhtgcbgpcwrwn.tif,97,0.0666666666666667,0.0666666666666667,0.85,22089.623313625,22092.104015042,13,22089.689573375,22089.747261417,22092.116116083,22092.959455208,0,2.48070141700009
120,31,14,categorization,0,bathroom,SHINEd_sun_abapwbhyhkfixyex.tif,14,0.0666666666666667,0.0666666666666667,1.28333333333333,22092.964366,22096.209193625,9,22093.026146417,22093.086975417,22096.239090417,22097.515799167,0,3.24482762499974
120,32,14,categorization,0,bathroom,SHINEd_sun_azqyogdvyhahyram.tif,60,0.0666666666666667,0.0666666666666667,0.9,22097.534600875,22098.504001208,13,22097.600690708,22097.667120708,22098.523227375,22099.41656425,1,0.969400333000522
120,33,14,categorization,0,bathroom,SHINEd_sun_abjtwfukuwddzted.tif,15,0.0666666666666667,0.0666666666666667,0.766666666666667,22099.422073625,22100.471986417,13,22099.484032292,22099.544907625,22100.480122,22101.240126917,1,1.04991279200112
120,34,14,categorization,0,bathroom,SHINEd_sun_aljolscmmzydegqp.tif,33,0.0666666666666667,0.0666666666666667,1.5,22101.244988292,22101.943344083,13,22101.306777083,22101.367784833,22101.952921625,22103.446293625,1,0.698355790998903
120,35,14,categorization,0,bathroom,SHINEd_sun_ambriybtogmepttm.tif,36,0.0666666666666667,0.0666666666666667,0.8,22103.463613542,22105.607996875,13,22103.53006875,22103.595927417,22105.615505167,22106.408843792,1,2.14438333299768
120,36,14,categorization,0,kitchen,SHINEd_sun_auaiucuqpdausiva.tif,102,0.0666666666666667,0.0666666666666667,0.75,22106.4137265,22107.215696875,9,22106.475678292,22106.536463,22107.221501167,22107.964838833,1,0.801970374999655
120,37,14,categorization,0,kitchen,SHINEd_sun_abdenxonkemggwsq.tif,69,0.0666666666666667,0.0666666666666667,1.83333333333333,22107.969715375,22109.120027333,9,22108.03144875,22108.092379542,22109.12758125,22110.954290458,1,1.15031195800111
120,38,14,categorization,0,bathroom,SHINEd_sun_akiytfaagpdsphgz.tif,31,0.0666666666666667,0.0666666666666667,0.933333333333333,22110.972869,22111.853127708,13,22111.039082458,22111.105293917,22111.878510625,22112.805181,1,0.880258707999019
120,39,14,categorization,0,bathroom,SHINEd_sun_apmqjbnwghzuhhzh.tif,46,0.0666666666666667,0.0666666666666667,1.61666666666667,22112.810205708,22113.623719167,13,22112.871911542,22112.932839833,22113.6345755,22115.244626042,1,0.813513459001115
120,40,14,categorization,0,kitchen,SHINEd_sun_admlmbcdswaszruo.tif,79,0.0666666666666667,0.0666666666666667,0.883333333333333,22115.266095833,22116.161201125,9,22115.332090292,22115.398771625,22116.188152458,22117.064822542,1,0.895105291998334
120,41,14,categorization,0,kitchen,SHINEd_sun_abdxkyyxwfskuaqb.tif,70,0.0666666666666667,0.0666666666666667,1.35,22117.069926792,22117.791297958,13,22117.131690083,22117.192560667,22117.794412042,22119.137785625,0,0.721371166000608
120,42,14,categorization,0,kitchen,SHINEd_sun_avszsnwsbuqfgzbn.tif,105,0.0666666666666667,0.0666666666666667,1.35,22119.15082125,22119.831106792,9,22119.217658417,22119.283338833,22119.856532167,22121.199918667,1,0.680285541999183
120,43,14,categorization,0,bathroom,SHINEd_sun_ahijqszoswveeyji.tif,28,0.0666666666666667,0.0666666666666667,1.66666666666667,22121.2171025,22122.212012833,13,22121.284062167,22121.349567417,22122.239416125,22123.899465625,1,0.994910333000007
120,44,14,categorization,0,bathroom,SHINEd_sun_amzlamotzwfkwjco.tif,37,0.0666666666666667,0.0666666666666667,0.766666666666667,22123.917100708,22124.746353458,13,22123.982365583,22124.049658875,22124.772775625,22125.5327805,1,0.829252749997977
120,45,14,categorization,0,bathroom,SHINEd_labelme_sfxiulhjbhlyiyt.tif,11,0.0666666666666667,0.0666666666666667,1.18333333333333,22125.53861175,22126.27918275,13,22125.600264542,22125.661315792,22126.296359208,22127.473076,1,0.740571000002092
120,46,14,categorization,0,kitchen,SHINEd_sun_abftihopvusyfakt.tif,71,0.0666666666666667,0.0666666666666667,1.43333333333333,22127.481906458,22128.6280785,9,22127.548505625,22127.614341708,22128.654252042,22130.080951083,1,1.14617204200113
120,47,14,categorization,0,kitchen,SHINEd_sun_aunzlwrbjumxhwdj.tif,103,0.0666666666666667,0.0666666666666667,0.933333333333333,22130.097906042,22131.61549275,9,22130.164443792,22130.230480083,22131.637356625,22132.564027042,1,1.51758670799973
120,48,14,categorization,0,kitchen,SHINEd_sun_acwjdupvyjsugpay.tif,76,0.0666666666666667,0.0666666666666667,1.23333333333333,22132.56916525,22133.543241042,9,22132.630986417,22132.691736292,22133.560435458,22134.787145125,1,0.974075792000804
120,49,14,categorization,0,bathroom,SHINEd_sun_ahaulkltgpkeeemi.tif,26,0.0666666666666667,0.0666666666666667,0.783333333333333,22134.804616958,22137.695939917,13,22134.871209792,22134.93704125,22137.70626925,22138.482941,1,2.89132295899981
120,50,14,categorization,0,bathroom,SHINEd_sun_awnqiikzaispgmwo.tif,56,0.0666666666666667,0.0666666666666667,1.05,22138.487840708,22139.311172667,13,22138.54963125,22138.610457,22139.329052625,22140.372419667,1,0.823331958999916
