sub_num,trial,block,task,is_practice,category,image,texture,duration,mask_dur,jitter,stim_time,time_of_resp,trial_response,mask_time,fix_time,jit_onset,trial_end,trial_accuracy,RT
137,1,21,categorization,0,bathroom,SHINEd_sun_apynckhmoftszqoq.tif,47,0.0666666666666667,0.0666666666666667,0.8,3391.301680166,3392.149314083,13,3391.363834666,3391.424395,3392.159708208,3392.9530465,1,0.847633916999712
137,2,21,categorization,0,bathroom,SHINEd_sun_aspsyogrekjtfozg.tif,50,0.0666666666666667,0.0666666666666667,1.18333333333333,3392.957973583,3393.789528125,13,3393.019620791,3393.080700708,3393.799506916,3394.976229541,1,0.831554542000049
137,3,21,categorization,0,bathroom,SHINEd_sun_aclfzgynxzxlbepz.tif,19,0.0666666666666667,0.0666666666666667,1.25,3394.987103625,3395.788826166,13,3395.05391225,3395.1195835,3395.809154041,3397.052545333,1,0.80172254099989
137,4,21,categorization,0,kitchen,SHINEd_labelme_kxvouciolcpqplr.tif,62,0.0666666666666667,0.0666666666666667,0.85,3397.070415125,3398.694385958,13,3397.137301916,3397.203108583,3398.710461291,3399.553798041,0,1.62397083299993
137,5,21,categorization,0,kitchen,SHINEd_sun_abpwyqmlzafvklqo.tif,72,0.0666666666666667,0.0666666666666667,1.16666666666667,3399.558923625,3400.237134666,9,3399.620752166,3399.681623958,3400.250050791,3401.41008425,1,0.678211041000395
137,6,21,categorization,0,bathroom,SHINEd_sun_acgyywnybuveqsro.tif,18,0.0666666666666667,0.0666666666666667,1.51666666666667,3401.418754583,3402.300813208,13,3401.484864208,3401.550737458,3402.323950458,3403.834005041,1,0.8820586249999
137,7,21,categorization,0,kitchen,SHINEd_labelme_brsyyvweiuaazfr.tif,61,0.0666666666666667,0.0666666666666667,0.75,3403.851158583,3404.761653541,9,3403.918374375,3403.983842208,3404.790585916,3405.5339295,1,0.910494958000072
137,8,21,categorization,0,bathroom,SHINEd_sun_aoybiabnpadelefl.tif,41,0.0666666666666667,0.0666666666666667,0.983333333333333,3405.539730583,3406.357711458,13,3405.601350583,3405.66258775,3406.364581333,3407.341250916,1,0.817980874999648
137,9,21,categorization,0,kitchen,SHINEd_sun_ahpczsiumwwocjkv.tif,92,0.0666666666666667,0.0666666666666667,0.966666666666667,3407.346075958,3408.14881525,9,3407.407693416,3407.468752916,3408.154375333,3409.114378416,1,0.802739292000297
137,10,21,categorization,0,bathroom,SHINEd_sun_acegryoqftbzowsg.tif,17,0.0666666666666667,0.0666666666666667,1.33333333333333,3409.119184416,3410.293507416,9,3409.180893875,3409.241849916,3410.310892458,3411.637619583,0,1.17432300000019
137,11,21,categorization,0,kitchen,SHINEd_sun_ahljzhgcdpomplvg.tif,91,0.0666666666666667,0.0666666666666667,1.46666666666667,3411.654526375,3412.642242375,9,3411.722894875,3411.787625375,3412.661136375,3414.12119725,1,0.987716000000091
137,12,21,categorization,0,bathroom,SHINEd_sun_amzlamotzwfkwjco.tif,37,0.0666666666666667,0.0666666666666667,1.03333333333333,3414.14312725,3415.014462458,13,3414.210372541,3414.276159625,3415.032118375,3416.058842333,1,0.871335207999891
137,13,21,categorization,0,bathroom,SHINEd_sun_asfwthctfqerjvxr.tif,49,0.0666666666666667,0.0666666666666667,1.76666666666667,3416.069429291,3416.902932791,9,3416.134578708,3416.201276,3416.9231725,3418.683231833,0,0.833503500000006
137,14,21,categorization,0,kitchen,SHINEd_sun_agubuxuukhzyzpdp.tif,88,0.0666666666666667,0.0666666666666667,1.58333333333333,3418.701104416,3419.431936375,9,3418.768318416,3418.834202875,3419.456721166,3421.0334375,1,0.73083195900017
137,15,21,categorization,0,kitchen,SHINEd_sun_akchetnepxlcxhsu.tif,98,0.0666666666666667,0.0666666666666667,0.783333333333333,3421.052380791,3421.736128083,9,3421.119260166,3421.185491666,3421.758055375,3422.534728791,1,0.683747292000135
137,16,21,categorization,0,bathroom,SHINEd_sun_apjevzvycyhuqghb.tif,43,0.0666666666666667,0.0666666666666667,0.75,3422.541000166,3423.405687875,9,3422.60278025,3422.663715375,3423.415558166,3424.158894916,0,0.864687709000009
137,17,21,categorization,0,kitchen,SHINEd_sun_aexklacwqwezaorf.tif,84,0.0666666666666667,0.0666666666666667,1.05,3424.163930833,3424.837427208,13,3424.225553041,3424.286716958,3424.855156625,3425.89853,0,0.673496375000013
137,18,21,categorization,0,bathroom,SHINEd_sun_atstyziqcmkahyxk.tif,51,0.0666666666666667,0.0666666666666667,0.716666666666667,3425.911043,3426.589151666,13,3425.976588958,3426.042113166,3426.615943375,3427.325957041,1,0.678108665999844
137,19,21,categorization,0,bathroom,SHINEd_sun_aljolscmmzydegqp.tif,33,0.0666666666666667,0.0666666666666667,1.31666666666667,3427.335770041,3428.764562041,9,3427.400989625,3427.467932208,3428.77073075,3430.080781916,0,1.4287919999997
137,20,21,categorization,0,bathroom,SHINEd_sun_anryaplzeujmzfkd.tif,39,0.0666666666666667,0.0666666666666667,1.35,3430.096848958,3431.030036375,13,3430.16430875,3430.229668291,3431.053062291,3432.396432833,1,0.933187416999772
137,21,21,categorization,0,kitchen,SHINEd_sun_aaxxjlsuzvqlgylf.tif,68,0.0666666666666667,0.0666666666666667,1.56666666666667,3432.41444125,3433.229059208,13,3432.481655291,3432.547618541,3433.255039041,3434.815089375,0,0.814617957999872
137,22,21,categorization,0,kitchen,SHINEd_sun_auticobqsbwgoppi.tif,104,0.0666666666666667,0.0666666666666667,1.26666666666667,3434.833375125,3435.626527458,9,3434.900550958,3434.966324541,3435.656935708,3436.916976833,1,0.793152332999853
137,23,21,categorization,0,bathroom,SHINEd_sun_awnqiikzaispgmwo.tif,56,0.0666666666666667,0.0666666666666667,1.06666666666667,3436.935011583,3437.682945416,13,3437.002422041,3437.067894666,3437.708443416,3438.768481,1,0.747933833000388
137,24,21,categorization,0,bathroom,SHINEd_sun_apeeialkgkuxddgh.tif,42,0.0666666666666667,0.0666666666666667,1,3438.780892625,3439.546477833,13,3438.847117666,3438.913483,3439.570935208,3440.564317333,1,0.765585208000175
137,25,21,categorization,0,kitchen,SHINEd_sun_acfmftudsenhrfhy.tif,74,0.0666666666666667,0.0666666666666667,0.933333333333333,3440.581704458,3441.133242958,9,3440.648886166,3440.714910833,3441.150940958,3442.077611291,1,0.551538500000333
137,26,21,categorization,0,bathroom,SHINEd_sun_aleqenyvunhactkl.tif,32,0.0666666666666667,0.0666666666666667,0.716666666666667,3442.082437125,3442.861100666,13,3442.144098125,3442.205380666,3442.873742041,3443.583745708,1,0.778663540999787
137,27,21,categorization,0,kitchen,SHINEd_sun_agorklincwxrdtga.tif,87,0.0666666666666667,0.0666666666666667,0.783333333333333,3443.588891625,3444.22888875,9,3443.650597958,3443.71170675,3444.246815791,3445.023487,1,0.639997124999809
137,28,21,categorization,0,bathroom,SHINEd_sun_ahaulkltgpkeeemi.tif,26,0.0666666666666667,0.0666666666666667,1.18333333333333,3445.028188083,3446.253500375,13,3445.089889375,3445.150862708,3446.270160416,3447.446882416,1,1.22531229200013
137,29,21,categorization,0,kitchen,SHINEd_sun_aenotlpyftoioydp.tif,82,0.0666666666666667,0.0666666666666667,0.866666666666667,3447.456168625,3448.165479333,9,3447.521163041,3447.589075958,3448.19549725,3449.055548875,1,0.709310707999975
137,30,21,categorization,0,kitchen,SHINEd_sun_abdxkyyxwfskuaqb.tif,70,0.0666666666666667,0.0666666666666667,0.933333333333333,3449.071839833,3450.188571875,9,3449.138568375,3449.205120083,3450.207639208,3451.134309541,1,1.11673204199997
137,31,21,categorization,0,bathroom,SHINEd_sun_ajlawzvmubibwbpy.tif,30,0.0666666666666667,0.0666666666666667,0.75,3451.139483708,3452.245503208,9,3451.201205,3451.26211875,3452.264640541,3453.00798025,0,1.1060195
137,32,21,categorization,0,kitchen,SHINEd_sun_aamedkxepzlwuxes.tif,65,0.0666666666666667,0.0666666666666667,1.23333333333333,3453.013528833,3454.005005333,9,3453.075107333,3453.136233708,3454.021851291,3455.248563625,1,0.991476500000317
137,33,21,categorization,0,kitchen,SHINEd_sun_ajcbwwvdlsvjyzje.tif,96,0.0666666666666667,0.0666666666666667,1.18333333333333,3455.262789708,3456.021158416,9,3455.327841291,3455.389933875,3456.046289041,3457.223017541,1,0.758368708000035
137,34,21,categorization,0,kitchen,SHINEd_sun_aypmqwcualkenuoe.tif,109,0.0666666666666667,0.0666666666666667,1.73333333333333,3457.233372666,3457.942449208,9,3457.300361083,3457.3639795,3457.9708925,3459.697610166,1,0.709076542000275
137,35,21,categorization,0,bathroom,SHINEd_sun_anhioqovhscjqqwb.tif,38,0.0666666666666667,0.0666666666666667,1,3459.713682083,3460.585383208,13,3459.782471791,3459.84689975,3460.6035955,3461.596932791,1,0.871701125000072
137,36,21,categorization,0,kitchen,SHINEd_sun_akcjzhbbjlbogpdi.tif,99,0.0666666666666667,0.0666666666666667,1.3,3461.602630166,3462.389551916,9,3461.664394125,3461.725322208,3462.393767333,3463.687143333,1,0.786921750000147
137,37,21,categorization,0,bathroom,SHINEd_sun_ahqjwnzgolcaoidx.tif,29,0.0666666666666667,0.0666666666666667,1.15,3463.705112541,3465.383567875,13,3463.772084708,3463.838348666,3465.392667083,3466.536039958,1,1.67845533400032
137,38,21,categorization,0,kitchen,SHINEd_sun_abdenxonkemggwsq.tif,69,0.0666666666666667,0.0666666666666667,0.966666666666667,3466.54549175,3467.311373458,9,3466.612647166,3466.678609666,3467.333988916,3468.294049583,1,0.765881708000052
137,39,21,categorization,0,kitchen,SHINEd_sun_auaiucuqpdausiva.tif,102,0.0666666666666667,0.0666666666666667,1.85,3468.310091333,3469.221237166,9,3468.377079416,3468.442816083,3469.228512958,3471.071882875,1,0.911145832999864
137,40,21,categorization,0,bathroom,SHINEd_sun_apmqjbnwghzuhhzh.tif,46,0.0666666666666667,0.0666666666666667,1.11666666666667,3471.093021333,3471.783844875,13,3471.160294833,3471.226742833,3471.800177375,3472.910222583,1,0.690823542000089
137,41,21,categorization,0,kitchen,SHINEd_sun_aadbddgrdsjugojn.tif,64,0.0666666666666667,0.0666666666666667,0.916666666666667,3472.920006083,3473.577045291,9,3472.985458791,3473.052708416,3473.592964708,3474.503012958,1,0.657039208000242
137,42,21,categorization,0,bathroom,SHINEd_sun_azqyogdvyhahyram.tif,60,0.0666666666666667,0.0666666666666667,1.61666666666667,3474.520431875,3475.309102875,13,3474.586794708,3474.653946625,3475.323018,3476.933077958,1,0.788670999999795
137,43,21,categorization,0,kitchen,SHINEd_sun_amjjdeyrggfqgmom.tif,100,0.0666666666666667,0.0666666666666667,0.766666666666667,3476.94891075,3477.724283416,9,3477.01614025,3477.082213208,3477.738241375,3478.498247666,1,0.775372666000294
137,44,21,categorization,0,bathroom,SHINEd_sun_akiytfaagpdsphgz.tif,31,0.0666666666666667,0.0666666666666667,0.85,3478.503671083,3479.181038916,13,3478.565368583,3478.626423083,3479.194925333,3480.038263208,1,0.677367833000062
137,45,21,categorization,0,bathroom,SHINEd_sun_acduarbnmmoglmiv.tif,16,0.0666666666666667,0.0666666666666667,1.8,3480.043804208,3480.853212625,9,3480.105474791,3480.166548916,3480.868946625,3482.662338458,0,0.809408417000213
137,46,21,categorization,0,kitchen,SHINEd_sun_afuyedyxivkhecmu.tif,85,0.0666666666666667,0.0666666666666667,0.833333333333333,3482.679392041,3483.472773583,13,3482.74629675,3482.812454541,3483.501347041,3484.328018541,0,0.793381542000134
137,47,21,categorization,0,bathroom,SHINEd_sun_aqrpegblszgcoujh.tif,48,0.0666666666666667,0.0666666666666667,1.05,3484.333916375,3485.045286833,9,3484.395601125,3484.456570791,3485.058395291,3486.101762625,0,0.711370457999692
137,48,21,categorization,0,kitchen,SHINEd_sun_ahspylgoovwmwvgk.tif,93,0.0666666666666667,0.0666666666666667,1.68333333333333,3486.110945416,3487.778032041,9,3486.176250458,3486.241996708,3487.801330583,3489.478036375,1,1.66708662500014
137,49,21,categorization,0,bathroom,SHINEd_sun_aavhrsfjbserjtht.tif,13,0.0666666666666667,0.0666666666666667,1.7,3489.489767166,3490.438308583,13,3489.556725041,3489.622631916,3490.4631085,3492.156478166,1,0.948541416999888
137,50,21,categorization,0,bathroom,SHINEd_sun_ahijqszoswveeyji.tif,28,0.0666666666666667,0.0666666666666667,1.01666666666667,3492.174593291,3493.26372125,13,3492.241525625,3492.307704416,3493.280881291,3494.290886375,1,1.08912795900005
