sub_num,trial,block,task,is_practice,category,image,texture,duration,mask_dur,jitter,stim_time,time_of_resp,trial_response,mask_time,fix_time,jit_onset,trial_end,trial_accuracy,RT
137,1,0,categorization,1,kitchen,SHINEd_kitchen_practice5.tif,120,0.0666666666666667,0.0666666666666667,1.21666666666667,564.8221785,574.664331333,9,564.88852325,564.948727166,574.6883845,575.898586541,1,9.842152833
137,2,0,categorization,1,kitchen,SHINEd_kitchen_practice3.tif,118,0.0666666666666667,0.0666666666666667,1.36666666666667,575.958005541,576.179601083,13,576.031579166,576.093181541,576.223193791,577.583503333,0,0.221595541999932
137,3,0,categorization,1,bathroom,SHINEd_bathroom_practice1.tif,111,0.0666666666666667,0.0666666666666667,1.85,577.64325175,588.235080375,13,577.719400333,577.780701291,588.2684815,590.112103416,1,10.5918286250001
137,4,0,categorization,1,kitchen,SHINEd_kitchen_practice4.tif,119,0.0666666666666667,0.0666666666666667,1.55,590.139659916,590.541866583,9,590.210354291,590.273490541,590.569154416,592.112729208,1,0.402206666999973
137,5,0,categorization,1,kitchen,SHINEd_kitchen_practice1.tif,116,0.0666666666666667,0.0666666666666667,1.48333333333333,592.140367041,593.314153333,13,592.214096333,592.275373666,593.350967291,594.828793208,0,1.17378629200005
137,6,0,categorization,1,bathroom,SHINEd_bathroom_practice4.tif,114,0.0666666666666667,0.0666666666666667,1.15,594.855424208,595.268583666,9,594.924788416,594.98993875,595.298981666,596.4425345,0,0.413159457999996
137,7,0,categorization,1,kitchen,SHINEd_kitchen_practice2.tif,117,0.0666666666666667,0.0666666666666667,0.733333333333333,596.45506575,597.007101875,13,596.522513625,596.589970166,597.030447041,597.757160208,0,0.552036124999972
137,8,0,categorization,1,bathroom,SHINEd_bathroom_practice3.tif,113,0.0666666666666667,0.0666666666666667,1.6,597.77538325,598.37033925,9,597.842530916,597.908985208,598.397974083,599.991347291,0,0.594956000000025
137,9,0,categorization,1,bathroom,SHINEd_bathroom_practice5.tif,115,0.0666666666666667,0.0666666666666667,0.716666666666667,600.012853833,600.722853791,13,600.079374166,600.146932875,600.736593375,601.446599,1,0.709999958000026
137,10,0,categorization,1,bathroom,SHINEd_bathroom_practice2.tif,112,0.0666666666666667,0.0666666666666667,1.21666666666667,601.453491333,602.000755083,9,601.51546375,601.576380375,602.011765791,603.221804791,0,0.547263749999956
137,1,0,categorization,1,kitchen,SHINEd_kitchen_practice5.tif,120,0.0666666666666667,0.0666666666666667,1.21666666666667,636.362325583,636.720752875,9,636.425015875,636.485124458,636.736849541,637.946907625,1,0.358427291999988
137,2,0,categorization,1,kitchen,SHINEd_kitchen_practice3.tif,118,0.0666666666666667,0.0666666666666667,1.36666666666667,637.967246,638.58756425,13,638.035044041,638.100282833,638.607606583,639.967669875,0,0.620318249999968
137,3,0,categorization,1,bathroom,SHINEd_bathroom_practice1.tif,111,0.0666666666666667,0.0666666666666667,1.85,639.989297416,640.676702833,9,640.05695675,640.122371875,640.696567333,642.539948208,0,0.687405417000036
137,4,0,categorization,1,kitchen,SHINEd_kitchen_practice4.tif,119,0.0666666666666667,0.0666666666666667,1.55,642.556745666,643.225695166,13,642.624231,642.6903115,643.247569041,644.790946125,0,0.668949500000053
137,5,0,categorization,1,kitchen,SHINEd_kitchen_practice1.tif,116,0.0666666666666667,0.0666666666666667,1.48333333333333,644.810594083,645.476324875,9,644.878074416,644.944410708,645.500047291,646.97677575,1,0.66573079200009
137,6,0,categorization,1,bathroom,SHINEd_bathroom_practice4.tif,114,0.0666666666666667,0.0666666666666667,1.15,646.9942185,647.821017833,9,647.061845083,647.127351375,647.851739041,648.99513225,0,0.826799333000054
137,7,0,categorization,1,kitchen,SHINEd_kitchen_practice2.tif,117,0.0666666666666667,0.0666666666666667,0.733333333333333,649.007382416,649.97296325,13,649.074800958,649.140722,649.998661916,650.725371416,0,0.965580833999979
137,8,0,categorization,1,bathroom,SHINEd_bathroom_practice3.tif,113,0.0666666666666667,0.0666666666666667,1.6,650.742431,652.199800333,13,650.809783666,650.876120333,652.211902333,653.805286083,1,1.45736933299997
137,9,0,categorization,1,bathroom,SHINEd_bathroom_practice5.tif,115,0.0666666666666667,0.0666666666666667,0.716666666666667,653.8232335,654.939359666,9,653.890164791,653.9561255,654.963099875,655.673105458,0,1.11612616599996
137,10,0,categorization,1,bathroom,SHINEd_bathroom_practice2.tif,112,0.0666666666666667,0.0666666666666667,1.21666666666667,655.677928416,656.711748375,9,655.739694541,655.800803041,656.719596875,657.929649833,0,1.03381995899997
137,1,0,categorization,1,kitchen,SHINEd_kitchen_practice5.tif,120,0.0666666666666667,0.0666666666666667,1.21666666666667,677.196309666,678.807758375,9,677.258654125,677.319242208,678.821747375,680.03179475,1,1.611448709
137,2,0,categorization,1,kitchen,SHINEd_kitchen_practice3.tif,118,0.0666666666666667,0.0666666666666667,1.36666666666667,680.044703291,681.714864208,13,680.113192958,680.178247541,681.736272291,683.096325416,0,1.67016091699998
137,3,0,categorization,1,bathroom,SHINEd_bathroom_practice1.tif,111,0.0666666666666667,0.0666666666666667,1.85,683.113084166,684.765360416,13,683.180966166,683.246671166,684.789025666,686.632404208,1,1.65227625
137,4,0,categorization,1,kitchen,SHINEd_kitchen_practice4.tif,119,0.0666666666666667,0.0666666666666667,1.55,686.650428916,688.38385825,9,686.718715291,686.783974,688.403215333,689.946594208,1,1.73342933399999
137,5,0,categorization,1,kitchen,SHINEd_kitchen_practice1.tif,116,0.0666666666666667,0.0666666666666667,1.48333333333333,689.961227791,690.973537041,9,690.029529166,690.094228458,690.999725291,692.476443458,1,1.01230924999993
137,6,0,categorization,1,bathroom,SHINEd_bathroom_practice4.tif,114,0.0666666666666667,0.0666666666666667,1.15,692.4937515,693.285295666,13,692.562750083,692.6271945,693.300126875,694.443514333,1,0.791544165999994
137,7,0,categorization,1,kitchen,SHINEd_kitchen_practice2.tif,117,0.0666666666666667,0.0666666666666667,0.733333333333333,694.453625583,695.415749916,9,694.520535333,694.586896833,695.442297458,696.169003208,1,0.96212433300002
137,8,0,categorization,1,bathroom,SHINEd_bathroom_practice3.tif,113,0.0666666666666667,0.0666666666666667,1.6,696.188743083,697.336586541,13,696.25615375,696.322284,697.340811583,698.934193875,1,1.14784345800001
137,9,0,categorization,1,bathroom,SHINEd_bathroom_practice5.tif,115,0.0666666666666667,0.0666666666666667,0.716666666666667,698.951407333,700.010448,13,699.019620708,699.084640125,700.024012375,700.734018166,1,1.05904066699998
137,10,0,categorization,1,bathroom,SHINEd_bathroom_practice2.tif,112,0.0666666666666667,0.0666666666666667,1.21666666666667,700.739944166,703.104545375,13,700.801735166,700.862684166,703.115346416,704.325387583,1,2.36460120900006
137,1,1,categorization,0,bathroom,SHINEd_sun_ahaulkltgpkeeemi.tif,26,0.0666666666666667,0.0666666666666667,1.23333333333333,727.42499225,728.920245333,9,727.486754416,727.547766958,728.93349975,730.160222583,0,1.49525308300008
137,2,1,categorization,0,bathroom,SHINEd_sun_axyrejkiiaqiurjk.tif,59,0.0666666666666667,0.0666666666666667,0.783333333333333,730.176721125,731.082242458,9,730.245221541,730.309765375,731.099663375,731.876378916,0,0.905521333000024
137,3,1,categorization,0,bathroom,SHINEd_sun_aqrpegblszgcoujh.tif,48,0.0666666666666667,0.0666666666666667,0.75,731.892800041,732.911628458,9,731.959905708,732.0259975,732.928048166,733.671385,0,1.01882841700001
137,4,1,categorization,0,kitchen,SHINEd_sun_axyyrmzcupyhlivc.tif,107,0.0666666666666667,0.0666666666666667,1.23333333333333,733.676209083,734.479328958,13,733.738024625,733.798820041,734.484201166,735.710925833,0,0.803119874999993
137,5,1,categorization,0,bathroom,SHINEd_sun_awnqiikzaispgmwo.tif,56,0.0666666666666667,0.0666666666666667,1.13333333333333,735.727258708,736.464436083,9,735.794472541,735.860289958,736.483613666,737.610286416,0,0.737177374999987
137,6,1,categorization,0,kitchen,SHINEd_sun_ahywdevtimnqcsln.tif,94,0.0666666666666667,0.0666666666666667,0.95,737.616251875,738.312452541,9,737.67798125,737.738991916,738.324422916,739.267759666,1,0.696200665999982
137,7,1,categorization,0,bathroom,SHINEd_sun_aapitsgbtktqubfy.tif,12,0.0666666666666667,0.0666666666666667,0.733333333333333,739.272411375,740.191958458,9,739.334189958,739.395148208,740.197367541,740.924039166,0,0.919547082999998
137,8,1,categorization,0,bathroom,SHINEd_sun_acgyywnybuveqsro.tif,18,0.0666666666666667,0.0666666666666667,1.31666666666667,740.928853666,741.87209575,13,740.990534541,741.051661833,741.886858333,743.19692025,1,0.943242083999962
137,9,1,categorization,0,kitchen,SHINEd_sun_ahljzhgcdpomplvg.tif,91,0.0666666666666667,0.0666666666666667,0.8,743.214036916,744.041953083,13,743.280736666,743.346010125,744.069372166,744.862750041,0,0.827916166999898
137,10,1,categorization,0,kitchen,SHINEd_sun_akchetnepxlcxhsu.tif,98,0.0666666666666667,0.0666666666666667,0.716666666666667,744.872369875,746.007527791,9,744.938813375,745.005317458,746.024376791,746.734382625,1,1.13515791600003
137,11,1,categorization,0,bathroom,SHINEd_sun_auzqhkafidnkrwmo.tif,54,0.0666666666666667,0.0666666666666667,0.916666666666667,746.739106,748.407728416,9,746.801250208,746.861773166,748.414132416,749.324137083,0,1.66862241600006
137,12,1,categorization,0,bathroom,SHINEd_sun_azqyogdvyhahyram.tif,60,0.0666666666666667,0.0666666666666667,0.95,749.328850208,750.376133666,9,749.3906285,749.451398333,750.386621708,751.329961333,0,1.04728345800004
137,13,1,categorization,0,kitchen,SHINEd_sun_agorklincwxrdtga.tif,87,0.0666666666666667,0.0666666666666667,0.833333333333333,751.335496833,752.271978125,9,751.397154333,751.458196958,752.276954041,753.103624666,1,0.936481292000053
137,14,1,categorization,0,bathroom,SHINEd_sun_ahqjwnzgolcaoidx.tif,29,0.0666666666666667,0.0666666666666667,0.75,753.108578541,754.0314255,9,753.170272958,753.231213916,754.050124,754.793463041,0,0.922846958999912
137,15,1,categorization,0,bathroom,SHINEd_sun_axxbkopsgyouuebh.tif,58,0.0666666666666667,0.0666666666666667,1.53333333333333,754.798323125,755.600295416,13,754.859970541,754.921093125,755.606308791,757.133013916,1,0.80197229099997
137,16,1,categorization,0,kitchen,SHINEd_sun_avszsnwsbuqfgzbn.tif,105,0.0666666666666667,0.0666666666666667,1.05,757.149889125,758.500334,9,757.216384,757.282693041,758.523167458,759.566552583,1,1.35044487499999
137,17,1,categorization,0,bathroom,SHINEd_sun_apynckhmoftszqoq.tif,47,0.0666666666666667,0.0666666666666667,0.9,759.576887708,760.557787041,9,759.641676166,759.708230125,760.581939916,761.47532825,0,0.980899333000025
137,18,1,categorization,0,kitchen,SHINEd_sun_ahpczsiumwwocjkv.tif,92,0.0666666666666667,0.0666666666666667,1.18333333333333,761.48582775,762.392206583,9,761.552888125,761.6186415,762.404418416,763.581136666,1,0.906378832999962
137,19,1,categorization,0,kitchen,SHINEd_sun_aapllqyqlykszopd.tif,66,0.0666666666666667,0.0666666666666667,0.9,763.590650541,764.341761291,9,763.65769725,763.724710541,764.36488025,765.258274333,1,0.751110750000066
137,20,1,categorization,0,kitchen,SHINEd_sun_abpwyqmlzafvklqo.tif,72,0.0666666666666667,0.0666666666666667,1.66666666666667,765.273950083,766.120082625,9,765.339283208,765.402913875,766.138195291,767.798256708,1,0.846132541999964
137,21,1,categorization,0,kitchen,SHINEd_sun_aehawpgmrlhlvcow.tif,81,0.0666666666666667,0.0666666666666667,1.13333333333333,767.814404416,768.55171725,9,767.881540083,767.948258,768.571186291,769.697898791,1,0.737312834000022
137,22,1,categorization,0,bathroom,SHINEd_sun_aunuadmjocsddsrl.tif,52,0.0666666666666667,0.0666666666666667,1.3,769.709002333,770.452464875,9,769.773802375,769.841939666,770.4819795,771.775373375,0,0.743462542000088
137,23,1,categorization,0,kitchen,SHINEd_sun_aeqdocilnnpuvuhx.tif,83,0.0666666666666667,0.0666666666666667,1.93333333333333,771.789744208,772.515112125,9,771.857154541,771.92301625,772.528912208,774.455625333,1,0.725367916999971
137,24,1,categorization,0,bathroom,SHINEd_sun_axldvoqbuvuggfmq.tif,57,0.0666666666666667,0.0666666666666667,1,774.473333,775.185668833,9,774.540425875,774.606682,775.213627208,776.206966041,0,0.712335832999997
137,25,1,categorization,0,kitchen,SHINEd_sun_acgtpgfybqjmzeyw.tif,75,0.0666666666666667,0.0666666666666667,0.883333333333333,776.212083083,776.920307083,9,776.273813666,776.334893458,776.937320083,777.813992333,1,0.708223999999973
137,26,1,categorization,0,bathroom,SHINEd_sun_anhioqovhscjqqwb.tif,38,0.0666666666666667,0.0666666666666667,1.95,777.819135791,778.391736791,9,777.880747208,777.941872541,778.410329875,780.353707291,0,0.572600999999963
137,27,1,categorization,0,kitchen,SHINEd_sun_abdxkyyxwfskuaqb.tif,70,0.0666666666666667,0.0666666666666667,1.25,780.371817,781.204058,9,780.438986458,780.504762958,781.228424666,782.471809458,1,0.832241000000067
137,28,1,categorization,0,bathroom,SHINEd_sun_aspsyogrekjtfozg.tif,50,0.0666666666666667,0.0666666666666667,1.95,782.483752875,783.249677875,9,782.550270916,782.617793708,783.274788916,785.218182541,0,0.765924999999925
137,29,1,categorization,0,kitchen,SHINEd_sun_ahdycvpopffkzzsu.tif,90,0.0666666666666667,0.0666666666666667,1.91666666666667,785.232175125,785.952708833,9,785.3007975,785.363437,785.969005875,787.879054,1,0.720533707999948
137,30,1,categorization,0,kitchen,SHINEd_sun_afuyedyxivkhecmu.tif,85,0.0666666666666667,0.0666666666666667,1.41666666666667,787.898311125,788.604774458,9,787.965897458,788.030955041,788.620321083,790.030381208,1,0.706463332999988
137,31,1,categorization,0,bathroom,SHINEd_sun_atstyziqcmkahyxk.tif,51,0.0666666666666667,0.0666666666666667,0.716666666666667,790.048233166,790.738089541,9,790.115376125,790.18177175,790.754269458,791.464302541,0,0.689856374999977
137,32,1,categorization,0,bathroom,SHINEd_sun_afcoljnjfoxjtgja.tif,20,0.0666666666666667,0.0666666666666667,1.28333333333333,791.4752475,792.048140791,9,791.54252175,791.608353416,792.060695041,793.337406625,0,0.572893291000014
137,33,1,categorization,0,bathroom,SHINEd_sun_aoybiabnpadelefl.tif,41,0.0666666666666667,0.0666666666666667,0.9,793.346901291,794.027219708,9,793.412138083,793.479008583,794.052285125,794.945662916,0,0.680318416999967
137,34,1,categorization,0,kitchen,SHINEd_sun_auticobqsbwgoppi.tif,104,0.0666666666666667,0.0666666666666667,0.8,794.961628458,795.871238708,9,795.02865,795.094263333,795.879580458,796.672918916,1,0.909610250000014
137,35,1,categorization,0,bathroom,SHINEd_sun_avhrdrntsqrjzccq.tif,55,0.0666666666666667,0.0666666666666667,1.01666666666667,796.677765333,797.44790575,9,796.739526041,796.800547541,797.452599041,798.462635166,0,0.770140416999993
137,36,1,categorization,0,kitchen,SHINEd_sun_auaiucuqpdausiva.tif,102,0.0666666666666667,0.0666666666666667,0.85,798.470204791,798.978818916,9,798.5346415,798.601314125,799.007809375,799.851198875,1,0.508614125000008
137,37,1,categorization,0,kitchen,SHINEd_sun_aegoxogugdkwpmpj.tif,80,0.0666666666666667,0.0666666666666667,1.51666666666667,799.866440875,800.935610416,9,799.933298666,799.999065,800.951568541,802.461618875,1,1.06916954100006
137,38,1,categorization,0,kitchen,SHINEd_sun_aarfiyshqohlwkmo.tif,67,0.0666666666666667,0.0666666666666667,1.83333333333333,802.478810416,804.383863,9,802.547069291,802.611466041,804.397498166,806.224226583,1,1.90505258400003
137,39,1,categorization,0,kitchen,SHINEd_sun_akcjzhbbjlbogpdi.tif,99,0.0666666666666667,0.0666666666666667,0.716666666666667,806.241143625,807.959881291,9,806.308108791,806.374672708,807.977367041,808.687372458,1,1.71873766600004
137,40,1,categorization,0,kitchen,SHINEd_sun_agubuxuukhzyzpdp.tif,88,0.0666666666666667,0.0666666666666667,0.9,808.69202325,811.391656666,9,808.754034083,808.814778375,811.400329625,812.293667541,1,2.69963341599998
137,41,1,categorization,0,kitchen,SHINEd_sun_acwjdupvyjsugpay.tif,76,0.0666666666666667,0.0666666666666667,0.916666666666667,812.298491791,823.938639083,13,812.360225458,812.421158958,823.957304083,824.867309416,0,11.6401472920001
137,42,1,categorization,0,bathroom,SHINEd_sun_alotolagknyrgtsk.tif,35,0.0666666666666667,0.0666666666666667,0.816666666666667,824.871913,826.271641833,13,824.933558625,824.994633125,826.280277333,827.090282125,1,1.39972883300004
137,43,1,categorization,0,kitchen,SHINEd_sun_ajcbwwvdlsvjyzje.tif,96,0.0666666666666667,0.0666666666666667,1.88333333333333,827.095797833,828.544071375,13,827.15756575,827.2184515,828.554375958,830.43115725,0,1.44827354200004
137,44,1,categorization,0,bathroom,SHINEd_sun_abjtwfukuwddzted.tif,15,0.0666666666666667,0.0666666666666667,0.9,830.444396,832.150953666,9,830.512442791,830.577497625,832.163210833,833.056548875,0,1.70655766599998
137,45,1,categorization,0,kitchen,SHINEd_sun_abftihopvusyfakt.tif,71,0.0666666666666667,0.0666666666666667,1,833.061489083,833.951848291,9,833.123255583,833.18416875,833.969405708,834.962743083,1,0.890359208000064
137,46,1,categorization,0,bathroom,SHINEd_sun_acduarbnmmoglmiv.tif,16,0.0666666666666667,0.0666666666666667,0.733333333333333,834.968586875,835.999819833,9,835.030617708,835.091234041,836.010103666,836.73677575,0,1.03123295799992
137,47,1,categorization,0,bathroom,SHINEd_sun_ahijqszoswveeyji.tif,28,0.0666666666666667,0.0666666666666667,0.883333333333333,836.74167975,837.935367958,9,836.80341025,836.864433208,837.950072541,838.826743166,0,1.19368820800003
137,48,1,categorization,0,kitchen,SHINEd_sun_aymvwlarqodbwuoc.tif,108,0.0666666666666667,0.0666666666666667,1.73333333333333,838.8319335,839.4631555,13,838.893815875,838.9545995,839.473106708,841.199816333,0,0.63122199999998
137,49,1,categorization,0,kitchen,SHINEd_sun_ahspylgoovwmwvgk.tif,93,0.0666666666666667,0.0666666666666667,1.91666666666667,841.216995333,841.995109416,9,841.284999083,841.348620416,842.022139708,843.932175625,1,0.778114082999991
137,50,1,categorization,0,kitchen,SHINEd_sun_aypmqwcualkenuoe.tif,109,0.0666666666666667,0.0666666666666667,1.35,843.950469916,844.772411625,9,844.017202166,844.0834755,844.789670375,846.13305525,1,0.821941709000043
137,1,2,categorization,0,bathroom,SHINEd_sun_amzlamotzwfkwjco.tif,37,0.0666666666666667,0.0666666666666667,0.95,861.503976,862.958931583,9,861.565753208,861.626659833,862.979330208,863.922669166,0,1.45495558300001
137,2,2,categorization,0,bathroom,SHINEd_sun_aofnryafpsjimzsb.tif,40,0.0666666666666667,0.0666666666666667,0.75,863.92768575,864.98367475,13,863.989471625,864.050498541,865.002474625,865.745812416,1,1.05598899999995
137,3,2,categorization,0,kitchen,SHINEd_sun_aenotlpyftoioydp.tif,82,0.0666666666666667,0.0666666666666667,1.68333333333333,865.752128291,868.0557625,13,865.813849083,865.8747905,868.060390291,869.737103125,0,2.30363420900005
137,4,2,categorization,0,kitchen,SHINEd_sun_abdenxonkemggwsq.tif,69,0.0666666666666667,0.0666666666666667,0.816666666666667,869.755753041,871.174898625,13,869.822552333,869.88868425,871.191502458,872.001506291,0,1.41914558399992
137,5,2,categorization,0,bathroom,SHINEd_sun_alkosphxlxwjwgjd.tif,34,0.0666666666666667,0.0666666666666667,0.916666666666667,872.006443166,872.863649625,9,872.068215958,872.129090583,872.881243,873.791246666,0,0.85720645899994
137,6,2,categorization,0,bathroom,SHINEd_sun_asfwthctfqerjvxr.tif,49,0.0666666666666667,0.0666666666666667,1.21666666666667,873.796046208,874.703100333,13,873.857836083,873.918710666,874.720737916,875.93079,1,0.907054124999945
137,7,2,categorization,0,bathroom,SHINEd_sun_apkxzenqapsujocq.tif,45,0.0666666666666667,0.0666666666666667,0.9,875.947307875,876.879131625,13,876.015945541,876.079781333,876.903813791,877.79715275,1,0.931823750000035
137,8,2,categorization,0,kitchen,SHINEd_sun_abrcnpqqhmjwekyf.tif,73,0.0666666666666667,0.0666666666666667,1.65,877.80296625,878.94380825,13,877.864843333,877.925668916,878.961075125,880.604454,0,1.14084199999991
137,9,2,categorization,0,kitchen,SHINEd_sun_aexklacwqwezaorf.tif,84,0.0666666666666667,0.0666666666666667,1.15,880.622033458,882.359286291,9,880.6892025,880.754933666,882.374250375,883.517634875,1,1.73725283299996
137,10,2,categorization,0,kitchen,SHINEd_sun_acfmftudsenhrfhy.tif,74,0.0666666666666667,0.0666666666666667,1.13333333333333,883.528078833,884.537888708,9,883.592946625,883.661724,884.568525583,885.695233541,1,1.00980987499997
137,11,2,categorization,0,kitchen,SHINEd_sun_aggjlwcdjsjcaemh.tif,86,0.0666666666666667,0.0666666666666667,1.76666666666667,885.706515666,886.564658625,9,885.771543791,885.839583208,886.57897275,888.339018375,1,0.85814295900002
137,12,2,categorization,0,kitchen,SHINEd_sun_aamedkxepzlwuxes.tif,65,0.0666666666666667,0.0666666666666667,1.8,888.35699275,889.259928208,9,888.423799416,888.49018825,889.280574291,891.073960791,1,0.902935458000002
137,13,2,categorization,0,bathroom,SHINEd_sun_ajlawzvmubibwbpy.tif,30,0.0666666666666667,0.0666666666666667,0.9,891.090964416,891.914157166,9,891.158125458,891.224305125,891.930810916,892.824149916,0,0.823192749999976
137,14,2,categorization,0,bathroom,SHINEd_sun_apeeialkgkuxddgh.tif,42,0.0666666666666667,0.0666666666666667,0.716666666666667,892.829837208,893.630925791,9,892.891632083,892.952632125,893.637922083,894.347925791,0,0.801088583000023
137,15,2,categorization,0,kitchen,SHINEd_labelme_kxvouciolcpqplr.tif,62,0.0666666666666667,0.0666666666666667,1.36666666666667,894.352687416,896.327740833,9,894.414388125,894.4753925,896.344698458,897.704758458,1,1.97505341700003
137,16,2,categorization,0,bathroom,SHINEd_sun_anryaplzeujmzfkd.tif,39,0.0666666666666667,0.0666666666666667,0.916666666666667,897.7220785,899.03184425,9,897.787015208,897.850647083,899.058099916,899.968103625,0,1.30976575
137,17,2,categorization,0,kitchen,SHINEd_sun_adgqasybjyktddhj.tif,78,0.0666666666666667,0.0666666666666667,0.716666666666667,899.973036083,900.662656708,9,900.034826,900.095726833,900.681141041,901.391146708,1,0.689620624999975
137,18,2,categorization,0,kitchen,SHINEd_labelme_rykdqxenmhulbdn.tif,63,0.0666666666666667,0.0666666666666667,0.766666666666667,901.39581725,902.20694775,13,901.457424333,901.518637041,902.220749166,902.980752666,0,0.81113049999999
137,19,2,categorization,0,kitchen,SHINEd_sun_aixorpehvfykdynp.tif,95,0.0666666666666667,0.0666666666666667,1.06666666666667,902.985471625,903.678877375,9,903.04713625,903.108301166,903.693795458,904.753834458,1,0.693405750000011
137,20,2,categorization,0,bathroom,SHINEd_sun_aavhrsfjbserjtht.tif,13,0.0666666666666667,0.0666666666666667,0.8,904.7624805,907.647179541,9,904.82726,904.893427583,907.662455458,908.455794458,0,2.88469904099998
137,21,2,categorization,0,bathroom,SHINEd_sun_abapwbhyhkfixyex.tif,14,0.0666666666666667,0.0666666666666667,0.866666666666667,908.460622708,909.599037125,13,908.522399666,908.583286541,909.618468333,910.478473,1,1.13841441700004
137,22,2,categorization,0,bathroom,SHINEd_sun_agrwbmhcpmfuwmsg.tif,24,0.0666666666666667,0.0666666666666667,1.48333333333333,910.48478225,911.55075375,9,910.546564458,910.607449041,911.559259916,913.035986041,0,1.06597150000005
137,23,2,categorization,0,kitchen,SHINEd_sun_aadbddgrdsjugojn.tif,64,0.0666666666666667,0.0666666666666667,1.1,913.054966125,914.2489525,9,913.121757833,913.187965958,914.264582541,915.357975708,1,1.19398637500001
137,24,2,categorization,0,kitchen,SHINEd_sun_amjjdeyrggfqgmom.tif,100,0.0666666666666667,0.0666666666666667,0.783333333333333,915.370386083,916.194760416,9,915.436122375,915.501785958,916.2061055,916.98282575,1,0.824374333000037
137,25,2,categorization,0,kitchen,SHINEd_sun_acxkpeoqbwcxfvip.tif,77,0.0666666666666667,0.0666666666666667,0.866666666666667,916.996830541,918.079351916,9,917.063953333,917.131278166,918.083506416,918.943511333,1,1.08252137499994
137,26,2,categorization,0,bathroom,SHINEd_sun_aghyqhbptboemmoq.tif,23,0.0666666666666667,0.0666666666666667,1.83333333333333,918.949103791,919.79148175,13,919.010854125,919.071889125,919.807463416,921.634178041,1,0.842377959000032
137,27,2,categorization,0,kitchen,SHINEd_sun_admlmbcdswaszruo.tif,79,0.0666666666666667,0.0666666666666667,0.7,921.650747291,922.387011125,9,921.718774083,921.784098041,922.40755425,923.100895041,1,0.736263833999942
137,28,2,categorization,0,bathroom,SHINEd_sun_agguqiubmwhqqunb.tif,22,0.0666666666666667,0.0666666666666667,1.33333333333333,923.106662958,923.975573875,13,923.1684175,923.229380208,923.981504125,925.308188875,1,0.868910916999994
137,29,2,categorization,0,bathroom,SHINEd_sun_agyqfjcfkdcydepw.tif,25,0.0666666666666667,0.0666666666666667,1.33333333333333,925.319512166,925.956277333,9,925.384319208,925.450750666,925.973657541,927.300366125,0,0.636765167000021
137,30,2,categorization,0,bathroom,SHINEd_sun_apmqjbnwghzuhhzh.tif,46,0.0666666666666667,0.0666666666666667,1.38333333333333,927.311785041,928.242059958,13,927.379012166,927.444377125,928.26772275,929.644440666,1,0.93027491700002
137,31,2,categorization,0,kitchen,SHINEd_sun_awcpdzzznmweyyhv.tif,106,0.0666666666666667,0.0666666666666667,1.25,929.6615705,930.092376083,9,929.728382125,929.794866625,930.118313291,931.361702125,1,0.430805582999938
137,32,2,categorization,0,kitchen,SHINEd_sun_aaxxjlsuzvqlgylf.tif,68,0.0666666666666667,0.0666666666666667,1.55,931.37237325,932.079336791,9,931.4344075,931.495050708,932.096946875,933.640340791,1,0.706963540999936
137,33,2,categorization,0,bathroom,SHINEd_sun_ambriybtogmepttm.tif,36,0.0666666666666667,0.0666666666666667,1.61666666666667,933.657860958,934.408477375,9,933.724724083,933.791054,934.431040708,936.0410785,0,0.750616416999947
137,34,2,categorization,0,bathroom,SHINEd_sun_aleqenyvunhactkl.tif,32,0.0666666666666667,0.0666666666666667,1.33333333333333,936.058779166,937.084034375,13,936.125884458,936.191785833,937.097880666,938.424604958,1,1.02525520899997
137,35,2,categorization,0,bathroom,SHINEd_sun_apkruvsevgegsdwp.tif,44,0.0666666666666667,0.0666666666666667,0.833333333333333,938.443014333,939.09480575,9,938.511912875,938.5764485,939.117368416,939.944085291,0,0.651791417000027
137,36,2,categorization,0,bathroom,SHINEd_sun_aclfzgynxzxlbepz.tif,19,0.0666666666666667,0.0666666666666667,1.45,939.963858666,941.01501075,9,940.029550416,940.09730275,941.032875083,942.476243666,0,1.05115208400002
137,37,2,categorization,0,bathroom,SHINEd_sun_apjevzvycyhuqghb.tif,43,0.0666666666666667,0.0666666666666667,0.933333333333333,942.494044666,943.193547708,13,942.561139458,942.627468333,943.2177085,944.144384833,1,0.699503041999947
137,38,2,categorization,0,bathroom,SHINEd_sun_ahcvzmoyaycdoftf.tif,27,0.0666666666666667,0.0666666666666667,1.65,944.151457208,944.702808166,9,944.213246625,944.274247166,944.709434291,946.352810083,0,0.551350957999944
137,39,2,categorization,0,kitchen,SHINEd_sun_agzzivivdpnawacl.tif,89,0.0666666666666667,0.0666666666666667,1.23333333333333,946.370917583,947.086210375,9,946.43785125,946.504414,947.111329125,948.338043625,1,0.7152927919999
137,40,2,categorization,0,bathroom,SHINEd_sun_aljolscmmzydegqp.tif,33,0.0666666666666667,0.0666666666666667,0.766666666666667,948.3557515,950.351546291,13,948.42304275,948.488817708,950.358049625,951.118053541,1,1.99579479099998
137,41,2,categorization,0,kitchen,SHINEd_sun_azmutvzbxypaceni.tif,110,0.0666666666666667,0.0666666666666667,1.78333333333333,951.122930291,951.847480666,9,951.184927791,951.245626291,951.864324166,953.641037958,1,0.724550375000035
137,42,2,categorization,0,bathroom,SHINEd_sun_akiytfaagpdsphgz.tif,31,0.0666666666666667,0.0666666666666667,1.11666666666667,953.658628791,954.226939791,9,953.726953375,953.791152625,954.247566125,955.374800583,0,0.568310999999994
137,43,2,categorization,0,bathroom,SHINEd_sun_acegryoqftbzowsg.tif,17,0.0666666666666667,0.0666666666666667,1.85,955.412277458,955.985174125,9,955.477998791,955.543381625,955.999637708,957.843010791,0,0.572896667000009
137,44,2,categorization,0,bathroom,SHINEd_sun_ausgutylgojavyoq.tif,53,0.0666666666666667,0.0666666666666667,0.733333333333333,957.860357416,958.311965208,13,957.928844583,957.993570958,958.333948625,959.060671708,1,0.451607791999891
137,45,2,categorization,0,bathroom,SHINEd_labelme_sfxiulhjbhlyiyt.tif,11,0.0666666666666667,0.0666666666666667,0.783333333333333,959.075056833,959.975455791,9,959.142147541,959.208115416,959.993827291,960.770498625,0,0.900398957999982
137,46,2,categorization,0,kitchen,SHINEd_sun_aqeaevwwwjoqhzvl.tif,101,0.0666666666666667,0.0666666666666667,1.5,960.775350583,961.135067291,13,960.837101875,960.898143666,961.149864833,962.643258875,0,0.359716708000065
137,47,2,categorization,0,kitchen,SHINEd_sun_ajkqhtgcbgpcwrwn.tif,97,0.0666666666666667,0.0666666666666667,0.733333333333333,962.66017025,963.070739625,9,962.728321583,962.7932615,963.100082166,963.82679425,1,0.410569375000023
137,48,2,categorization,0,kitchen,SHINEd_sun_aunzlwrbjumxhwdj.tif,103,0.0666666666666667,0.0666666666666667,1.1,963.841083708,964.894767916,9,963.908123416,963.974311208,964.90999175,966.003371833,1,1.05368420799994
137,49,2,categorization,0,kitchen,SHINEd_labelme_brsyyvweiuaazfr.tif,61,0.0666666666666667,0.0666666666666667,1.6,966.012913125,966.645008625,9,966.0780955,966.145675791,966.6689,968.262276208,1,0.632095499999991
137,50,2,categorization,0,bathroom,SHINEd_sun_aggnnqpdorgxpvce.tif,21,0.0666666666666667,0.0666666666666667,1.06666666666667,968.272479791,969.11892475,13,968.3391505,968.406916625,969.147521333,970.207776208,1,0.846444958999996
137,1,3,categorization,0,bathroom,SHINEd_labelme_sfxiulhjbhlyiyt.tif,11,0.0666666666666667,0.0666666666666667,0.85,1007.580146083,1008.647316583,13,1007.642677625,1007.703159708,1008.654996083,1009.49833375,1,1.06717049999997
137,2,3,categorization,0,kitchen,SHINEd_labelme_brsyyvweiuaazfr.tif,61,0.0666666666666667,0.0666666666666667,1.65,1009.503382208,1010.54283325,13,1009.565155958,1009.626484041,1010.561514458,1012.204892041,0,1.039451042
137,3,3,categorization,0,kitchen,SHINEd_sun_aarfiyshqohlwkmo.tif,67,0.0666666666666667,0.0666666666666667,0.783333333333333,1012.222741083,1013.066080208,9,1012.289501583,1012.355879625,1013.095929708,1013.87260075,1,0.843339125000057
137,4,3,categorization,0,bathroom,SHINEd_sun_axxbkopsgyouuebh.tif,58,0.0666666666666667,0.0666666666666667,0.933333333333333,1013.878390541,1014.735136541,13,1013.9402815,1014.001176541,1014.753399875,1015.680069875,1,0.85674599999993
137,5,3,categorization,0,kitchen,SHINEd_sun_ahywdevtimnqcsln.tif,94,0.0666666666666667,0.0666666666666667,0.866666666666667,1015.684815083,1016.454609958,9,1015.746477833,1015.807580208,1016.4592685,1017.319271458,1,0.769794875000002
137,6,3,categorization,0,kitchen,SHINEd_labelme_rykdqxenmhulbdn.tif,63,0.0666666666666667,0.0666666666666667,1.11666666666667,1017.324052375,1018.262394916,13,1017.385649916,1017.446807708,1018.281995,1019.392041791,0,0.938342540999997
137,7,3,categorization,0,kitchen,SHINEd_sun_aypmqwcualkenuoe.tif,109,0.0666666666666667,0.0666666666666667,0.966666666666667,1019.401787458,1020.246686791,9,1019.466491958,1019.532744416,1020.272689583,1021.232731333,1,0.844899333000058
137,8,3,categorization,0,bathroom,SHINEd_sun_ahcvzmoyaycdoftf.tif,27,0.0666666666666667,0.0666666666666667,1.78333333333333,1021.24179975,1022.222888333,13,1021.305560208,1021.366376708,1022.235509083,1024.012219625,1,0.981088582999973
137,9,3,categorization,0,bathroom,SHINEd_sun_amzlamotzwfkwjco.tif,37,0.0666666666666667,0.0666666666666667,1.55,1024.030343458,1025.169409916,13,1024.097336125,1024.157739125,1025.197409375,1026.740799083,1,1.13906645799989
137,10,3,categorization,0,bathroom,SHINEd_sun_asfwthctfqerjvxr.tif,49,0.0666666666666667,0.0666666666666667,1.41666666666667,1026.757877458,1027.646289291,9,1026.824889625,1026.890661958,1027.663152041,1029.073188,0,0.888411832999964
137,11,3,categorization,0,bathroom,SHINEd_sun_anryaplzeujmzfkd.tif,39,0.0666666666666667,0.0666666666666667,0.8,1029.092162125,1030.262604708,9,1029.159713375,1029.22519425,1030.282187208,1031.075524375,0,1.17044258300007
137,12,3,categorization,0,bathroom,SHINEd_sun_ahaulkltgpkeeemi.tif,26,0.0666666666666667,0.0666666666666667,1.28333333333333,1031.081460416,1032.006739041,13,1031.143256166,1031.20424625,1032.022793,1033.299505833,1,0.925278624999919
137,13,3,categorization,0,bathroom,SHINEd_sun_aqrpegblszgcoujh.tif,48,0.0666666666666667,0.0666666666666667,1.66666666666667,1033.31104875,1034.161023375,9,1033.377034125,1033.442428,1034.181346583,1035.841406166,0,0.849974624999959
137,14,3,categorization,0,bathroom,SHINEd_sun_aleqenyvunhactkl.tif,32,0.0666666666666667,0.0666666666666667,1.81666666666667,1035.858636458,1037.366540958,9,1035.92579825,1035.991716,1037.377140041,1039.187172833,0,1.5079045
137,15,3,categorization,0,kitchen,SHINEd_sun_akchetnepxlcxhsu.tif,98,0.0666666666666667,0.0666666666666667,1.35,1039.202321666,1040.059148541,13,1039.269529916,1039.334022041,1040.073593583,1041.416980958,0,0.856826875000024
137,16,3,categorization,0,kitchen,SHINEd_sun_aapllqyqlykszopd.tif,66,0.0666666666666667,0.0666666666666667,0.916666666666667,1041.426607625,1042.913083166,9,1041.490821083,1041.559252166,1042.93260875,1043.842613833,1,1.48647554099989
137,17,3,categorization,0,kitchen,SHINEd_sun_abdenxonkemggwsq.tif,69,0.0666666666666667,0.0666666666666667,0.916666666666667,1043.847705291,1045.126705083,9,1043.909529166,1043.970416625,1045.139767916,1046.049773791,1,1.27899979199992
137,18,3,categorization,0,kitchen,SHINEd_sun_ajkqhtgcbgpcwrwn.tif,97,0.0666666666666667,0.0666666666666667,1.31666666666667,1046.055389625,1047.10307225,9,1046.117148833,1046.178109125,1047.113810125,1048.423843875,1,1.04768262499988
137,19,3,categorization,0,bathroom,SHINEd_sun_aofnryafpsjimzsb.tif,40,0.0666666666666667,0.0666666666666667,1.45,1048.440406958,1050.254427291,9,1048.507280166,1048.573273916,1050.259176125,1051.70254675,0,1.81402033299992
137,20,3,categorization,0,bathroom,SHINEd_sun_aljolscmmzydegqp.tif,33,0.0666666666666667,0.0666666666666667,0.95,1051.719918041,1052.784784458,13,1051.786467208,1051.852891,1052.810194125,1053.753531,1,1.06486641700008
137,21,3,categorization,0,kitchen,SHINEd_sun_aeqdocilnnpuvuhx.tif,83,0.0666666666666667,0.0666666666666667,1.38333333333333,1053.758559083,1054.638534416,9,1053.820382083,1053.881245458,1054.649690416,1056.0264025,1,0.879975333000175
137,22,3,categorization,0,kitchen,SHINEd_sun_aexklacwqwezaorf.tif,84,0.0666666666666667,0.0666666666666667,1.16666666666667,1056.043565208,1057.278372541,9,1056.1121125,1056.176588125,1057.30153525,1058.461576916,1,1.23480733299994
137,23,3,categorization,0,bathroom,SHINEd_sun_apmqjbnwghzuhhzh.tif,46,0.0666666666666667,0.0666666666666667,1.61666666666667,1058.472034875,1059.327129708,13,1058.53902575,1058.604602291,1059.3432285,1060.953281541,1,0.855094833000067
137,24,3,categorization,0,bathroom,SHINEd_sun_akiytfaagpdsphgz.tif,31,0.0666666666666667,0.0666666666666667,1.38333333333333,1060.971322958,1062.348704583,9,1061.038393166,1061.104369625,1062.377489666,1063.754217125,0,1.377381625
137,25,3,categorization,0,kitchen,SHINEd_sun_acwjdupvyjsugpay.tif,76,0.0666666666666667,0.0666666666666667,1.78333333333333,1063.772138291,1065.106689625,9,1063.839221041,1063.905470125,1065.13131125,1066.908014916,1,1.33455133400003
137,26,3,categorization,0,bathroom,SHINEd_sun_agguqiubmwhqqunb.tif,22,0.0666666666666667,0.0666666666666667,0.783333333333333,1066.925158375,1068.183588416,9,1066.994120333,1067.058516125,1068.196347541,1068.973017666,0,1.25843004100011
137,27,3,categorization,0,kitchen,SHINEd_sun_ahljzhgcdpomplvg.tif,91,0.0666666666666667,0.0666666666666667,1.65,1068.978178541,1069.758016666,9,1069.039968,1069.101000916,1069.769619708,1071.413009375,1,0.779838124999969
137,28,3,categorization,0,bathroom,SHINEd_sun_avhrdrntsqrjzccq.tif,55,0.0666666666666667,0.0666666666666667,1.86666666666667,1071.422164708,1073.614285166,9,1071.487999541,1071.555117875,1073.623930458,1075.483969625,0,2.19212045799986
137,29,3,categorization,0,kitchen,SHINEd_sun_aamedkxepzlwuxes.tif,65,0.0666666666666667,0.0666666666666667,1.23333333333333,1075.493863625,1076.323534125,13,1075.561995,1075.626739208,1076.350058875,1077.576763333,0,0.82967050000002
137,30,3,categorization,0,bathroom,SHINEd_sun_ahqjwnzgolcaoidx.tif,29,0.0666666666666667,0.0666666666666667,0.7,1077.58610425,1078.345841958,9,1077.654614958,1077.719157375,1078.37610025,1079.069487875,0,0.759737707999875
137,31,3,categorization,0,kitchen,SHINEd_sun_ahdycvpopffkzzsu.tif,90,0.0666666666666667,0.0666666666666667,0.716666666666667,1079.086031666,1080.398946041,9,1079.153209916,1079.218780416,1080.404963291,1081.1149695,1,1.31291437499999
137,32,3,categorization,0,bathroom,SHINEd_sun_aclfzgynxzxlbepz.tif,19,0.0666666666666667,0.0666666666666667,1.05,1081.120743166,1081.815029916,13,1081.182611291,1081.243450583,1081.828640583,1082.872030541,1,0.694286749999947
137,33,3,categorization,0,bathroom,SHINEd_sun_aoybiabnpadelefl.tif,41,0.0666666666666667,0.0666666666666667,1.1,1082.882030625,1083.834067875,9,1082.946827208,1083.011010916,1083.850369833,1084.943710458,0,0.952037250000103
137,34,3,categorization,0,kitchen,SHINEd_sun_adgqasybjyktddhj.tif,78,0.0666666666666667,0.0666666666666667,1.13333333333333,1084.952018458,1085.734097666,9,1085.013770291,1085.074722125,1085.74332175,1086.87004625,1,0.782079207999914
137,35,3,categorization,0,kitchen,SHINEd_sun_abdxkyyxwfskuaqb.tif,70,0.0666666666666667,0.0666666666666667,1.38333333333333,1086.879126166,1087.988131166,9,1086.94400525,1087.013236541,1088.00351675,1089.380206791,1,1.1090049999998
137,36,3,categorization,0,bathroom,SHINEd_sun_apkxzenqapsujocq.tif,45,0.0666666666666667,0.0666666666666667,1.5,1089.390419541,1090.047747083,13,1089.455936833,1089.522637,1090.061155958,1091.554541041,1,0.657327542000075
137,37,3,categorization,0,bathroom,SHINEd_sun_aavhrsfjbserjtht.tif,13,0.0666666666666667,0.0666666666666667,1.61666666666667,1091.56532175,1092.310332708,9,1091.632035875,1091.698521541,1092.338851666,1093.948894458,0,0.745010957999966
137,38,3,categorization,0,kitchen,SHINEd_sun_auticobqsbwgoppi.tif,104,0.0666666666666667,0.0666666666666667,0.983333333333333,1093.965483541,1094.463338,13,1094.032264625,1094.098713458,1094.48929975,1095.465971291,0,0.497854459000109
137,39,3,categorization,0,kitchen,SHINEd_sun_aegoxogugdkwpmpj.tif,80,0.0666666666666667,0.0666666666666667,1.3,1095.470980291,1096.454888083,13,1095.532759458,1095.593872291,1096.462457666,1097.755828375,0,0.983907792000082
137,40,3,categorization,0,kitchen,SHINEd_labelme_kxvouciolcpqplr.tif,62,0.0666666666666667,0.0666666666666667,1.03333333333333,1097.773234041,1098.389746041,9,1097.840325625,1097.906507833,1098.413238208,1099.439949541,1,0.616512000000057
137,41,3,categorization,0,bathroom,SHINEd_sun_axldvoqbuvuggfmq.tif,57,0.0666666666666667,0.0666666666666667,1.45,1099.452690958,1100.518439083,9,1099.518305333,1099.57803925,1100.530488958,1101.973867416,0,1.06574812500003
137,42,3,categorization,0,bathroom,SHINEd_sun_afcoljnjfoxjtgja.tif,20,0.0666666666666667,0.0666666666666667,1.23333333333333,1101.990874,1103.742976333,9,1102.059721958,1102.124156666,1103.760332083,1104.987048958,0,1.75210233299981
137,43,3,categorization,0,bathroom,SHINEd_sun_apynckhmoftszqoq.tif,47,0.0666666666666667,0.0666666666666667,1.26666666666667,1105.002776541,1105.689170458,13,1105.069393625,1105.135582416,1105.708794458,1106.968833125,1,0.686393917000032
137,44,3,categorization,0,kitchen,SHINEd_sun_auaiucuqpdausiva.tif,102,0.0666666666666667,0.0666666666666667,1.03333333333333,1106.98619075,1107.729970958,9,1107.05304825,1107.119239833,1107.759565583,1108.786290541,1,0.743780207999862
137,45,3,categorization,0,bathroom,SHINEd_sun_awnqiikzaispgmwo.tif,56,0.0666666666666667,0.0666666666666667,1.31666666666667,1108.803391958,1109.550417625,9,1108.870426041,1108.936437833,1109.554989791,1110.86504425,0,0.747025666999889
137,46,3,categorization,0,bathroom,SHINEd_sun_azqyogdvyhahyram.tif,60,0.0666666666666667,0.0666666666666667,1.7,1110.876690833,1111.562336333,13,1110.943682625,1111.010482125,1111.583694041,1113.277086208,1,0.685645499999964
137,47,3,categorization,0,kitchen,SHINEd_sun_axyyrmzcupyhlivc.tif,107,0.0666666666666667,0.0666666666666667,1.35,1113.294819541,1113.93826525,9,1113.360670875,1113.425859666,1113.965632291,1115.309021083,1,0.643445709000162
137,48,3,categorization,0,kitchen,SHINEd_sun_abrcnpqqhmjwekyf.tif,73,0.0666666666666667,0.0666666666666667,0.8,1115.318987083,1116.023456125,13,1115.384510958,1115.450822291,1116.040573125,1116.833965833,0,0.704469042000028
137,49,3,categorization,0,kitchen,SHINEd_sun_abpwyqmlzafvklqo.tif,72,0.0666666666666667,0.0666666666666667,0.766666666666667,1116.850103125,1117.9424235,13,1116.917341458,1116.983055083,1117.952303416,1118.712307666,0,1.09232037499987
137,50,3,categorization,0,kitchen,SHINEd_sun_aymvwlarqodbwuoc.tif,108,0.0666666666666667,0.0666666666666667,1.38333333333333,1118.717191875,1119.662650208,9,1118.778958541,1118.840026125,1119.675347083,1121.052052875,1,0.945458333000033
137,1,4,categorization,0,bathroom,SHINEd_sun_aspsyogrekjtfozg.tif,50,0.0666666666666667,0.0666666666666667,1,1130.572968083,1131.750359625,13,1130.635705666,1130.695715083,1131.764298375,1132.757636166,1,1.17739154200012
137,2,4,categorization,0,bathroom,SHINEd_sun_acegryoqftbzowsg.tif,17,0.0666666666666667,0.0666666666666667,0.966666666666667,1132.762975583,1133.893964,13,1132.824553625,1132.885629541,1133.904628791,1134.864633666,1,1.13098841700003
137,3,4,categorization,0,kitchen,SHINEd_sun_amjjdeyrggfqgmom.tif,100,0.0666666666666667,0.0666666666666667,1.75,1134.869399416,1135.606093041,9,1134.931138333,1134.991969875,1135.610512708,1137.3539075,1,0.736693624999816
137,4,4,categorization,0,kitchen,SHINEd_sun_azmutvzbxypaceni.tif,110,0.0666666666666667,0.0666666666666667,1.68333333333333,1137.368296041,1138.537101708,9,1137.433501791,1137.497935125,1138.554006958,1140.230714041,1,1.16880566700002
137,5,4,categorization,0,kitchen,SHINEd_sun_avszsnwsbuqfgzbn.tif,105,0.0666666666666667,0.0666666666666667,1.58333333333333,1140.248163916,1141.186096875,9,1140.31500075,1140.382035166,1141.205619666,1142.782329583,1,0.937932958999909
137,6,4,categorization,0,bathroom,SHINEd_sun_aapitsgbtktqubfy.tif,12,0.0666666666666667,0.0666666666666667,1,1142.800050333,1144.162261291,13,1142.868513875,1142.93304225,1144.192018416,1145.18535625,1,1.36221095800011
137,7,4,categorization,0,bathroom,SHINEd_sun_aunuadmjocsddsrl.tif,52,0.0666666666666667,0.0666666666666667,1.33333333333333,1145.190467791,1146.086205916,13,1145.252470458,1145.313170166,1146.098518833,1147.425221875,1,0.89573812499998
137,8,4,categorization,0,bathroom,SHINEd_sun_ausgutylgojavyoq.tif,53,0.0666666666666667,0.0666666666666667,1.26666666666667,1147.438799333,1148.179718,13,1147.503312541,1147.571795666,1148.194170375,1149.454221416,1,0.740918667000187
137,9,4,categorization,0,kitchen,SHINEd_sun_acgtpgfybqjmzeyw.tif,75,0.0666666666666667,0.0666666666666667,0.883333333333333,1149.463651625,1150.09105475,9,1149.530500041,1149.597248625,1150.120252041,1150.996965666,1,0.627403125000001
137,10,4,categorization,0,bathroom,SHINEd_sun_abjtwfukuwddzted.tif,15,0.0666666666666667,0.0666666666666667,1.26666666666667,1151.012991583,1151.622518833,13,1151.079701208,1151.145662541,1151.631050083,1152.891090208,1,0.609527249999928
137,11,4,categorization,0,kitchen,SHINEd_sun_akcjzhbbjlbogpdi.tif,99,0.0666666666666667,0.0666666666666667,2,1152.909132041,1153.619857125,9,1152.97693975,1153.041734166,1153.648852,1155.642231583,1,0.710725083999932
137,12,4,categorization,0,kitchen,SHINEd_sun_ahspylgoovwmwvgk.tif,93,0.0666666666666667,0.0666666666666667,0.733333333333333,1155.660424583,1156.372098,9,1155.727660916,1155.793379,1156.400258541,1157.126931125,1,0.711673417000156
137,13,4,categorization,0,kitchen,SHINEd_sun_admlmbcdswaszruo.tif,79,0.0666666666666667,0.0666666666666667,0.883333333333333,1157.133335666,1157.910429791,13,1157.19505575,1157.2560175,1157.924573375,1158.801245708,0,0.777094125000076
137,14,4,categorization,0,kitchen,SHINEd_sun_aunzlwrbjumxhwdj.tif,103,0.0666666666666667,0.0666666666666667,0.983333333333333,1158.806594458,1159.894087916,9,1158.868201791,1158.929331458,1159.898188291,1160.874860166,1,1.08749345799993
137,15,4,categorization,0,kitchen,SHINEd_sun_aixorpehvfykdynp.tif,95,0.0666666666666667,0.0666666666666667,1.56666666666667,1160.879623458,1161.734169125,13,1160.941320625,1161.002245166,1161.737753083,1163.297796875,0,0.854545667000139
137,16,4,categorization,0,kitchen,SHINEd_sun_ajcbwwvdlsvjyzje.tif,96,0.0666666666666667,0.0666666666666667,1.08333333333333,1163.308929833,1164.022494625,9,1163.374986083,1163.440091333,1164.046747958,1165.123468291,1,0.713564791999943
137,17,4,categorization,0,bathroom,SHINEd_sun_apjevzvycyhuqghb.tif,43,0.0666666666666667,0.0666666666666667,0.75,1165.134482041,1165.777851416,9,1165.199652458,1165.26442975,1165.804191083,1166.547578708,0,0.64336937500002
137,18,4,categorization,0,bathroom,SHINEd_sun_agrwbmhcpmfuwmsg.tif,24,0.0666666666666667,0.0666666666666667,0.966666666666667,1166.56394225,1167.3905355,9,1166.63046025,1166.696514208,1167.398237458,1168.3582425,0,0.82659324999986
137,19,4,categorization,0,kitchen,SHINEd_sun_acfmftudsenhrfhy.tif,74,0.0666666666666667,0.0666666666666667,1.63333333333333,1168.36361275,1169.406346916,9,1168.425380208,1168.486336791,1169.421277666,1171.047993708,1,1.04273416600017
137,20,4,categorization,0,kitchen,SHINEd_sun_awcpdzzznmweyyhv.tif,106,0.0666666666666667,0.0666666666666667,1.46666666666667,1171.058745791,1171.754798458,9,1171.125032875,1171.189376291,1171.779872958,1173.239927666,1,0.696052667000004
137,21,4,categorization,0,bathroom,SHINEd_sun_axyrejkiiaqiurjk.tif,59,0.0666666666666667,0.0666666666666667,0.933333333333333,1173.257126333,1173.857025083,13,1173.322514708,1173.38571175,1173.875645625,1174.802365875,1,0.599898749999966
137,22,4,categorization,0,kitchen,SHINEd_sun_agzzivivdpnawacl.tif,89,0.0666666666666667,0.0666666666666667,1.45,1174.818718833,1175.39809575,9,1174.881518625,1174.941517541,1175.409871166,1176.853261875,1,0.57937691699999
137,23,4,categorization,0,kitchen,SHINEd_sun_aehawpgmrlhlvcow.tif,81,0.0666666666666667,0.0666666666666667,0.966666666666667,1176.87089,1177.734655541,9,1176.937606041,1177.003669041,1177.760417458,1178.720423166,1,0.863765541000021
137,24,4,categorization,0,bathroom,SHINEd_sun_alotolagknyrgtsk.tif,35,0.0666666666666667,0.0666666666666667,0.816666666666667,1178.726215333,1179.629677875,9,1178.788004625,1178.848925541,1179.634276083,1180.444281375,0,0.903462541999943
137,25,4,categorization,0,bathroom,SHINEd_sun_auzqhkafidnkrwmo.tif,54,0.0666666666666667,0.0666666666666667,1.96666666666667,1180.450362208,1181.1339515,13,1180.512098708,1180.573001125,1181.14171475,1183.101773458,1,0.683589292000079
137,26,4,categorization,0,bathroom,SHINEd_sun_apkruvsevgegsdwp.tif,44,0.0666666666666667,0.0666666666666667,0.916666666666667,1183.11970925,1183.712485833,9,1183.1864685,1183.252213291,1183.742543916,1184.652549458,0,0.592776583000159
137,27,4,categorization,0,bathroom,SHINEd_sun_acgyywnybuveqsro.tif,18,0.0666666666666667,0.0666666666666667,1.28333333333333,1184.658331583,1185.286585125,13,1184.720041416,1184.780979791,1185.29931325,1186.576020166,1,0.628253542000039
137,28,4,categorization,0,bathroom,SHINEd_sun_agyqfjcfkdcydepw.tif,25,0.0666666666666667,0.0666666666666667,1.8,1186.593583875,1187.344767958,9,1186.660569416,1186.726340833,1187.364681666,1189.158049875,0,0.751184082999998
137,29,4,categorization,0,kitchen,SHINEd_sun_agubuxuukhzyzpdp.tif,88,0.0666666666666667,0.0666666666666667,1.33333333333333,1189.176048333,1189.87358525,9,1189.242948083,1189.307365333,1189.898079458,1191.224787333,1,0.697536916999979
137,30,4,categorization,0,kitchen,SHINEd_sun_afuyedyxivkhecmu.tif,85,0.0666666666666667,0.0666666666666667,1.06666666666667,1191.241565791,1191.768052458,13,1191.306933291,1191.373056916,1191.796627375,1192.85666425,0,0.526486666999972
137,31,4,categorization,0,kitchen,SHINEd_sun_aqeaevwwwjoqhzvl.tif,101,0.0666666666666667,0.0666666666666667,1.03333333333333,1192.873600541,1193.381603083,9,1192.940558625,1192.999837416,1193.384816291,1194.411538,1,0.508002541999986
137,32,4,categorization,0,kitchen,SHINEd_sun_acxkpeoqbwcxfvip.tif,77,0.0666666666666667,0.0666666666666667,0.733333333333333,1194.419966875,1195.088930458,9,1194.484171416,1194.551490875,1195.107387833,1195.834094125,1,0.66896358300005
137,33,4,categorization,0,bathroom,SHINEd_sun_atstyziqcmkahyxk.tif,51,0.0666666666666667,0.0666666666666667,0.766666666666667,1195.851727833,1196.605970208,9,1195.91860525,1195.984660791,1196.620404833,1197.380408791,0,0.754242374999876
137,34,4,categorization,0,bathroom,SHINEd_sun_apeeialkgkuxddgh.tif,42,0.0666666666666667,0.0666666666666667,1.1,1197.385214291,1198.134409583,13,1197.446894,1197.507951458,1198.143043291,1199.236430083,1,0.749195291999968
137,35,4,categorization,0,bathroom,SHINEd_sun_aggnnqpdorgxpvce.tif,21,0.0666666666666667,0.0666666666666667,1.81666666666667,1199.244699916,1200.159867791,9,1199.309854083,1199.37434625,1200.180262958,1201.990301791,0,0.915167874999952
137,36,4,categorization,0,bathroom,SHINEd_sun_ambriybtogmepttm.tif,36,0.0666666666666667,0.0666666666666667,0.883333333333333,1202.007937125,1202.709275958,13,1202.074918666,1202.140981416,1202.730939333,1203.60761075,1,0.701338833000136
137,37,4,categorization,0,kitchen,SHINEd_sun_abftihopvusyfakt.tif,71,0.0666666666666667,0.0666666666666667,1.7,1203.612970208,1204.285422583,9,1203.674568791,1203.7358865,1204.304525958,1205.997893958,1,0.672452374999921
137,38,4,categorization,0,kitchen,SHINEd_sun_agorklincwxrdtga.tif,87,0.0666666666666667,0.0666666666666667,1.58333333333333,1206.015518958,1206.663914875,9,1206.082135333,1206.148553583,1206.688584416,1208.265306458,1,0.648395917000016
137,39,4,categorization,0,bathroom,SHINEd_sun_alkosphxlxwjwgjd.tif,34,0.0666666666666667,0.0666666666666667,0.833333333333333,1208.278579333,1208.769445125,13,1208.345644916,1208.411521166,1208.784232625,1209.610943958,1,0.490865792000022
137,40,4,categorization,0,bathroom,SHINEd_sun_abapwbhyhkfixyex.tif,14,0.0666666666666667,0.0666666666666667,0.95,1209.627122458,1210.357632666,9,1209.6941405,1209.752043041,1210.370624791,1211.313962125,0,0.730510207999941
137,41,4,categorization,0,kitchen,SHINEd_sun_aaxxjlsuzvqlgylf.tif,68,0.0666666666666667,0.0666666666666667,1.06666666666667,1211.318813833,1211.846369875,13,1211.380413791,1211.441573916,1211.859926916,1212.919975708,0,0.527556042000015
137,42,4,categorization,0,kitchen,SHINEd_sun_aadbddgrdsjugojn.tif,64,0.0666666666666667,0.0666666666666667,1.68333333333333,1212.930848208,1213.263524208,9,1212.995541291,1213.062019791,1213.285025458,1214.961740625,1,0.332675999999992
137,43,4,categorization,0,kitchen,SHINEd_sun_aggjlwcdjsjcaemh.tif,86,0.0666666666666667,0.0666666666666667,1.31666666666667,1214.974564291,1215.61662575,9,1215.040684,1215.107417166,1215.629327,1216.939368541,1,0.642061458999933
137,44,4,categorization,0,bathroom,SHINEd_sun_aghyqhbptboemmoq.tif,23,0.0666666666666667,0.0666666666666667,1.61666666666667,1216.956662041,1217.366221541,13,1217.023502208,1217.081007666,1217.382624541,1218.992682125,1,0.409559499999887
137,45,4,categorization,0,bathroom,SHINEd_sun_acduarbnmmoglmiv.tif,16,0.0666666666666667,0.0666666666666667,1.15,1219.008593,1219.477734458,9,1219.075661166,1219.141560208,1219.49681825,1220.640195416,0,0.469141457999967
137,46,4,categorization,0,bathroom,SHINEd_sun_anhioqovhscjqqwb.tif,38,0.0666666666666667,0.0666666666666667,1.25,1220.651281083,1221.35843625,13,1220.718228291,1220.784041458,1221.372517041,1222.6159065,1,0.70715516700011
137,47,4,categorization,0,bathroom,SHINEd_sun_ajlawzvmubibwbpy.tif,30,0.0666666666666667,0.0666666666666667,1.1,1222.625373416,1223.264231083,13,1222.690256666,1222.759403125,1223.282330208,1224.375710625,1,0.638857666999911
137,48,4,categorization,0,kitchen,SHINEd_sun_ahpczsiumwwocjkv.tif,92,0.0666666666666667,0.0666666666666667,0.9,1224.393208291,1224.886172708,9,1224.460720166,1224.526261166,1224.894856916,1225.788195083,1,0.492964416999939
137,49,4,categorization,0,kitchen,SHINEd_sun_aenotlpyftoioydp.tif,82,0.0666666666666667,0.0666666666666667,1.3,1225.793344666,1226.349480375,13,1225.855114375,1225.916081583,1226.367981,1227.661370875,0,0.556135709000046
137,50,4,categorization,0,bathroom,SHINEd_sun_ahijqszoswveeyji.tif,28,0.0666666666666667,0.0666666666666667,1.25,1227.67928925,1228.090216916,9,1227.748122791,1227.812693291,1228.119061833,1229.362419208,0,0.410927665999907
137,1,5,categorization,0,bathroom,SHINEd_sun_aclfzgynxzxlbepz.tif,19,0.0666666666666667,0.0666666666666667,1.7,1239.897681875,1240.590059833,13,1239.960327791,1240.020733916,1240.606076208,1242.299478791,1,0.692377957999952
137,2,5,categorization,0,kitchen,SHINEd_sun_aapllqyqlykszopd.tif,66,0.0666666666666667,0.0666666666666667,1.81666666666667,1242.320776666,1243.161933208,13,1242.387743375,1242.45369425,1243.176013958,1244.986052,0,0.841156541999908
137,3,5,categorization,0,bathroom,SHINEd_sun_aunuadmjocsddsrl.tif,52,0.0666666666666667,0.0666666666666667,1.23333333333333,1245.003519416,1245.975901833,13,1245.070353208,1245.136925875,1245.993665166,1247.220367208,1,0.972382417000063
137,4,5,categorization,0,kitchen,SHINEd_sun_aadbddgrdsjugojn.tif,64,0.0666666666666667,0.0666666666666667,1.4,1247.238251833,1247.776229708,9,1247.304280208,1247.367729666,1247.790562291,1249.183951708,1,0.537977875000024
137,5,5,categorization,0,kitchen,SHINEd_sun_avszsnwsbuqfgzbn.tif,105,0.0666666666666667,0.0666666666666667,1.03333333333333,1249.203901166,1249.920272541,9,1249.270971083,1249.335280958,1249.94200275,1250.968708166,1,0.716371375000108
137,6,5,categorization,0,kitchen,SHINEd_sun_agorklincwxrdtga.tif,87,0.0666666666666667,0.0666666666666667,1.38333333333333,1250.986373958,1251.701256041,9,1251.053469166,1251.119690125,1251.704912333,1253.081640583,1,0.71488208300002
137,7,5,categorization,0,kitchen,SHINEd_sun_amjjdeyrggfqgmom.tif,100,0.0666666666666667,0.0666666666666667,2,1253.097657583,1253.73091475,13,1253.164214958,1253.231144583,1253.754726041,1255.7480945,0,0.633257167000011
137,8,5,categorization,0,kitchen,SHINEd_sun_auaiucuqpdausiva.tif,102,0.0666666666666667,0.0666666666666667,1.85,1255.765441625,1256.730458875,9,1255.832328375,1255.899213333,1256.756228666,1258.599623375,1,0.965017250000074
137,9,5,categorization,0,kitchen,SHINEd_sun_acwjdupvyjsugpay.tif,76,0.0666666666666667,0.0666666666666667,0.816666666666667,1258.6191115,1259.391912166,9,1258.686090666,1258.752493916,1259.407422666,1260.217429166,1,0.772800666000194
137,10,5,categorization,0,kitchen,SHINEd_sun_abdenxonkemggwsq.tif,69,0.0666666666666667,0.0666666666666667,1.85,1260.223523125,1261.318069208,9,1260.285194041,1260.346241833,1261.3311435,1263.17453325,1,1.09454608300007
137,11,5,categorization,0,kitchen,SHINEd_sun_ahpczsiumwwocjkv.tif,92,0.0666666666666667,0.0666666666666667,0.733333333333333,1263.188415541,1264.143439875,9,1263.255513291,1263.320508166,1264.160163875,1264.886836208,1,0.955024333999972
137,12,5,categorization,0,kitchen,SHINEd_sun_agubuxuukhzyzpdp.tif,88,0.0666666666666667,0.0666666666666667,0.716666666666667,1264.892626041,1265.693975208,9,1264.95443825,1265.015382583,1265.700623333,1266.410627791,1,0.801349166999898
137,13,5,categorization,0,bathroom,SHINEd_labelme_sfxiulhjbhlyiyt.tif,11,0.0666666666666667,0.0666666666666667,0.833333333333333,1266.416015375,1267.134003125,13,1266.477665541,1266.538617,1267.140580666,1267.967253666,1,0.71798775000002
137,14,5,categorization,0,kitchen,SHINEd_labelme_rykdqxenmhulbdn.tif,63,0.0666666666666667,0.0666666666666667,0.95,1267.973061625,1269.014032041,9,1268.034862708,1268.095739166,1269.031186208,1269.974525125,1,1.04097041600016
137,15,5,categorization,0,bathroom,SHINEd_sun_ambriybtogmepttm.tif,36,0.0666666666666667,0.0666666666666667,1.96666666666667,1269.980152583,1270.710075333,9,1270.041945291,1270.10288275,1270.721472416,1272.681507333,0,0.729922750000014
137,16,5,categorization,0,bathroom,SHINEd_sun_alotolagknyrgtsk.tif,35,0.0666666666666667,0.0666666666666667,1.86666666666667,1272.698514666,1273.566289416,9,1272.765481083,1272.831346041,1273.587957083,1275.448016833,0,0.867774750000081
137,17,5,categorization,0,kitchen,SHINEd_sun_akchetnepxlcxhsu.tif,98,0.0666666666666667,0.0666666666666667,1.51666666666667,1275.458274666,1275.947279541,13,1275.525646791,1275.591195708,1275.964043083,1277.474083958,0,0.489004874999864
137,18,5,categorization,0,bathroom,SHINEd_sun_aggnnqpdorgxpvce.tif,21,0.0666666666666667,0.0666666666666667,1.3,1277.483660291,1278.213275375,9,1277.550759583,1277.616856208,1278.240559875,1279.533950791,0,0.729615083999988
137,19,5,categorization,0,kitchen,SHINEd_labelme_brsyyvweiuaazfr.tif,61,0.0666666666666667,0.0666666666666667,1.91666666666667,1279.548176,1279.953713541,13,1279.615368291,1279.682231333,1279.97192,1281.881980166,0,0.405537541000058
137,20,5,categorization,0,kitchen,SHINEd_sun_afuyedyxivkhecmu.tif,85,0.0666666666666667,0.0666666666666667,1.23333333333333,1281.903869083,1282.618334916,9,1281.971016125,1282.036750833,1282.643881,1283.870597833,1,0.714465833000077
137,21,5,categorization,0,kitchen,SHINEd_sun_aeqdocilnnpuvuhx.tif,83,0.0666666666666667,0.0666666666666667,0.866666666666667,1283.8857205,1284.742779666,9,1283.953303166,1284.018403625,1284.757764833,1285.617815208,1,0.857059165999999
137,22,5,categorization,0,kitchen,SHINEd_sun_akcjzhbbjlbogpdi.tif,99,0.0666666666666667,0.0666666666666667,0.8,1285.635114708,1286.317986833,9,1285.702413916,1285.768205416,1286.337049875,1287.130389208,1,0.682872125000131
137,23,5,categorization,0,bathroom,SHINEd_sun_anryaplzeujmzfkd.tif,39,0.0666666666666667,0.0666666666666667,1.51666666666667,1287.136099291,1287.902176708,9,1287.1978255,1287.258826333,1287.91104275,1289.42109475,0,0.766077417000133
137,24,5,categorization,0,bathroom,SHINEd_sun_anhioqovhscjqqwb.tif,38,0.0666666666666667,0.0666666666666667,1.18333333333333,1289.431165125,1289.92315775,13,1289.496017833,1289.564555208,1289.937224458,1291.113938958,1,0.491992624999966
137,25,5,categorization,0,kitchen,SHINEd_sun_ahljzhgcdpomplvg.tif,91,0.0666666666666667,0.0666666666666667,1.6,1291.130925458,1292.266583333,9,1291.198282916,1291.264277541,1292.287647625,1293.881029041,1,1.13565787499988
137,26,5,categorization,0,kitchen,SHINEd_sun_aymvwlarqodbwuoc.tif,108,0.0666666666666667,0.0666666666666667,1.56666666666667,1293.898337625,1294.642354083,9,1293.96597075,1294.031473958,1294.67187275,1296.231917375,1,0.744016458000033
137,27,5,categorization,0,bathroom,SHINEd_sun_ahqjwnzgolcaoidx.tif,29,0.0666666666666667,0.0666666666666667,1.36666666666667,1296.252166583,1296.97480425,9,1296.319040833,1296.385354,1296.991854291,1298.351910791,0,0.722637667000072
137,28,5,categorization,0,bathroom,SHINEd_sun_agrwbmhcpmfuwmsg.tif,24,0.0666666666666667,0.0666666666666667,1.53333333333333,1298.371304666,1299.066998833,13,1298.438062208,1298.504549125,1299.095122333,1300.621838916,1,0.695694167000056
137,29,5,categorization,0,kitchen,SHINEd_sun_aenotlpyftoioydp.tif,82,0.0666666666666667,0.0666666666666667,1.4,1300.63960425,1301.243613416,9,1300.707019083,1300.772570125,1301.262493916,1302.655867083,1,0.604009165999969
137,30,5,categorization,0,bathroom,SHINEd_sun_aleqenyvunhactkl.tif,32,0.0666666666666667,0.0666666666666667,1.06666666666667,1302.669557833,1303.808485416,9,1302.737022708,1302.802711708,1303.82593525,1304.885971166,0,1.13892758299994
137,31,5,categorization,0,bathroom,SHINEd_sun_aghyqhbptboemmoq.tif,23,0.0666666666666667,0.0666666666666667,1.63333333333333,1304.896054291,1305.640042541,9,1304.961666875,1305.026631458,1305.667082083,1307.293790625,0,0.743988250000029
137,32,5,categorization,0,kitchen,SHINEd_sun_azmutvzbxypaceni.tif,110,0.0666666666666667,0.0666666666666667,1.8,1307.308085375,1307.989843916,13,1307.37470375,1307.439876666,1308.014042666,1309.80741525,0,0.681758540999908
137,33,5,categorization,0,bathroom,SHINEd_sun_awnqiikzaispgmwo.tif,56,0.0666666666666667,0.0666666666666667,1.53333333333333,1309.8266415,1310.799046208,13,1309.894302416,1309.960054458,1310.816566083,1312.343276333,1,0.972404707999885
137,34,5,categorization,0,bathroom,SHINEd_sun_acduarbnmmoglmiv.tif,16,0.0666666666666667,0.0666666666666667,0.766666666666667,1312.360792333,1313.3746215,13,1312.428059333,1312.493400916,1313.398823833,1314.158828583,1,1.01382916700004
137,35,5,categorization,0,bathroom,SHINEd_sun_acgyywnybuveqsro.tif,18,0.0666666666666667,0.0666666666666667,1.86666666666667,1314.165814916,1314.773102208,13,1314.22759575,1314.288534541,1314.790323666,1316.650375166,1,0.60728729199991
137,36,5,categorization,0,bathroom,SHINEd_sun_aspsyogrekjtfozg.tif,50,0.0666666666666667,0.0666666666666667,1.13333333333333,1316.668887041,1317.353118541,13,1316.735760541,1316.802329583,1317.375298458,1318.502023,1,0.684231499999896
137,37,5,categorization,0,kitchen,SHINEd_sun_ahdycvpopffkzzsu.tif,90,0.0666666666666667,0.0666666666666667,1.73333333333333,1318.513856708,1319.28989025,9,1318.578352125,1318.646975875,1319.318277916,1321.045004583,1,0.77603354200005
137,38,5,categorization,0,bathroom,SHINEd_sun_axyrejkiiaqiurjk.tif,59,0.0666666666666667,0.0666666666666667,0.766666666666667,1321.05933325,1321.802630375,13,1321.126583083,1321.192453166,1321.833007416,1322.593014416,1,0.743297125000026
137,39,5,categorization,0,bathroom,SHINEd_sun_afcoljnjfoxjtgja.tif,20,0.0666666666666667,0.0666666666666667,1.85,1322.599423833,1323.205456583,9,1322.661201083,1322.722176875,1323.224484166,1325.067858291,0,0.60603274999994
137,40,5,categorization,0,kitchen,SHINEd_sun_axyyrmzcupyhlivc.tif,107,0.0666666666666667,0.0666666666666667,0.966666666666667,1325.086725125,1325.787311291,13,1325.153674041,1325.219666208,1325.809849416,1326.769854958,0,0.700586165999994
137,41,5,categorization,0,bathroom,SHINEd_sun_aqrpegblszgcoujh.tif,48,0.0666666666666667,0.0666666666666667,1.06666666666667,1326.775626708,1327.413835125,13,1326.837510666,1326.898294625,1327.433516083,1328.493576625,1,0.638208417000214
137,42,5,categorization,0,bathroom,SHINEd_sun_abapwbhyhkfixyex.tif,14,0.0666666666666667,0.0666666666666667,1.38333333333333,1328.502480916,1329.221213,9,1328.567423458,1328.632468458,1329.2382005,1330.6149095,0,0.718732084000067
137,43,5,categorization,0,bathroom,SHINEd_sun_ahaulkltgpkeeemi.tif,26,0.0666666666666667,0.0666666666666667,0.766666666666667,1330.629185458,1331.2867415,13,1330.695884333,1330.7616655,1331.300965458,1332.06102425,1,0.657556042000124
137,44,5,categorization,0,bathroom,SHINEd_sun_axldvoqbuvuggfmq.tif,57,0.0666666666666667,0.0666666666666667,0.866666666666667,1332.077817875,1332.773564208,13,1332.144699333,1332.210585583,1332.779860166,1333.639865833,1,0.695746332999988
137,45,5,categorization,0,kitchen,SHINEd_sun_acxkpeoqbwcxfvip.tif,77,0.0666666666666667,0.0666666666666667,1.25,1333.644740375,1334.389513458,9,1333.706434541,1333.767486291,1334.40287975,1335.646252333,1,0.744773082999927
137,46,5,categorization,0,bathroom,SHINEd_sun_axxbkopsgyouuebh.tif,58,0.0666666666666667,0.0666666666666667,1.03333333333333,1335.663414125,1336.374759708,13,1335.729953875,1335.79632325,1336.403116166,1337.429833916,1,0.711345583000139
137,47,5,categorization,0,kitchen,SHINEd_sun_aixorpehvfykdynp.tif,95,0.0666666666666667,0.0666666666666667,0.783333333333333,1337.439518,1337.91702675,9,1337.504631333,1337.564179958,1337.932557041,1338.709231208,1,0.477508750000197
137,48,5,categorization,0,bathroom,SHINEd_sun_agyqfjcfkdcydepw.tif,25,0.0666666666666667,0.0666666666666667,0.7,1338.716536791,1339.205055541,13,1338.778213416,1338.839163666,1339.224435041,1339.917773083,1,0.488518750000139
137,49,5,categorization,0,kitchen,SHINEd_sun_abftihopvusyfakt.tif,71,0.0666666666666667,0.0666666666666667,1.75,1339.923327291,1340.813464708,9,1339.985060666,1340.046089625,1340.831246625,1342.574625,1,0.890137417000005
137,50,5,categorization,0,kitchen,SHINEd_sun_abpwyqmlzafvklqo.tif,72,0.0666666666666667,0.0666666666666667,1.36666666666667,1342.592355708,1343.497270541,13,1342.659418625,1342.725520833,1343.515241625,1344.875294041,0,0.904914833000021
137,1,6,categorization,0,bathroom,SHINEd_sun_atstyziqcmkahyxk.tif,51,0.0666666666666667,0.0666666666666667,0.966666666666667,1352.7940755,1353.50158625,13,1352.856535333,1352.917053458,1353.518966333,1354.478970125,1,0.707510749999983
137,2,6,categorization,0,kitchen,SHINEd_sun_awcpdzzznmweyyhv.tif,106,0.0666666666666667,0.0666666666666667,1.73333333333333,1354.483707625,1355.277875166,9,1354.545572458,1354.606423041,1355.292232791,1357.018949625,1,0.794167540999979
137,3,6,categorization,0,bathroom,SHINEd_sun_ahijqszoswveeyji.tif,28,0.0666666666666667,0.0666666666666667,1.91666666666667,1357.037235916,1357.885819333,13,1357.1040985,1357.169847041,1357.910451958,1359.820493291,1,0.848583416999872
137,4,6,categorization,0,kitchen,SHINEd_sun_ahspylgoovwmwvgk.tif,93,0.0666666666666667,0.0666666666666667,0.766666666666667,1359.838981791,1360.503946083,9,1359.905901958,1359.972535916,1360.5292455,1361.289250958,1,0.66496429200015
137,5,6,categorization,0,kitchen,SHINEd_sun_aaxxjlsuzvqlgylf.tif,68,0.0666666666666667,0.0666666666666667,0.916666666666667,1361.295230625,1362.005701166,9,1361.356959,1361.418103875,1362.020247041,1362.930251791,1,0.710470541000177
137,6,6,categorization,0,bathroom,SHINEd_sun_apkxzenqapsujocq.tif,45,0.0666666666666667,0.0666666666666667,1.18333333333333,1362.934986666,1363.604852875,13,1362.996679458,1363.057596458,1363.609439125,1364.786155875,1,0.66986620900002
137,7,6,categorization,0,bathroom,SHINEd_sun_asfwthctfqerjvxr.tif,49,0.0666666666666667,0.0666666666666667,1.8,1364.795046458,1365.5844695,9,1364.862858208,1364.927909375,1365.600571166,1367.3939335,0,0.78942304200018
137,8,6,categorization,0,bathroom,SHINEd_sun_ajlawzvmubibwbpy.tif,30,0.0666666666666667,0.0666666666666667,0.883333333333333,1367.402966875,1368.085912583,13,1367.468236083,1367.5352835,1368.108855041,1368.985527458,1,0.682945708000034
137,9,6,categorization,0,bathroom,SHINEd_sun_amzlamotzwfkwjco.tif,37,0.0666666666666667,0.0666666666666667,1.83333333333333,1368.9911965,1369.637355458,13,1369.052997541,1369.113934333,1369.649117791,1371.475836875,1,0.646158958000115
137,10,6,categorization,0,bathroom,SHINEd_sun_azqyogdvyhahyram.tif,60,0.0666666666666667,0.0666666666666667,1.76666666666667,1371.485111583,1372.282976458,13,1371.551866833,1371.617950666,1372.307944958,1374.067981375,1,0.797864874999959
137,11,6,categorization,0,bathroom,SHINEd_sun_apjevzvycyhuqghb.tif,43,0.0666666666666667,0.0666666666666667,0.983333333333333,1374.085346958,1374.761265666,9,1374.15270375,1374.218146416,1374.791563458,1375.768235416,0,0.675918708000154
137,12,6,categorization,0,bathroom,SHINEd_sun_agguqiubmwhqqunb.tif,22,0.0666666666666667,0.0666666666666667,0.883333333333333,1375.773221041,1376.357468625,13,1375.834966208,1375.8961695,1376.364677541,1377.2413485,1,0.584247583999968
137,13,6,categorization,0,kitchen,SHINEd_sun_acfmftudsenhrfhy.tif,74,0.0666666666666667,0.0666666666666667,0.85,1377.246769791,1378.3652,13,1377.308422333,1377.3698675,1378.372642166,1379.215979708,0,1.11843020900005
137,14,6,categorization,0,kitchen,SHINEd_sun_aypmqwcualkenuoe.tif,109,0.0666666666666667,0.0666666666666667,0.733333333333333,1379.220532791,1379.8936955,9,1379.28212925,1379.34317475,1379.911852666,1380.638525125,1,0.673162708999826
137,15,6,categorization,0,kitchen,SHINEd_sun_acgtpgfybqjmzeyw.tif,75,0.0666666666666667,0.0666666666666667,1.88333333333333,1380.643228416,1381.405672625,9,1380.704887416,1380.765936708,1381.417476166,1383.294188958,1,0.762444209000023
137,16,6,categorization,0,bathroom,SHINEd_sun_ahcvzmoyaycdoftf.tif,27,0.0666666666666667,0.0666666666666667,0.816666666666667,1383.3075205,1383.853321916,13,1383.373345166,1383.438870916,1383.878793958,1384.688799791,1,0.545801415999904
137,17,6,categorization,0,bathroom,SHINEd_sun_abjtwfukuwddzted.tif,15,0.0666666666666667,0.0666666666666667,1.9,1384.694402666,1385.364884041,13,1384.756061875,1384.817321833,1385.369176625,1387.262548166,1,0.670481375000008
137,18,6,categorization,0,bathroom,SHINEd_sun_auzqhkafidnkrwmo.tif,54,0.0666666666666667,0.0666666666666667,0.983333333333333,1387.279454958,1388.048036541,13,1387.344380375,1387.408705041,1388.06490175,1389.0415725,1,0.768581583000014
137,19,6,categorization,0,kitchen,SHINEd_sun_ahywdevtimnqcsln.tif,94,0.0666666666666667,0.0666666666666667,0.75,1389.047309166,1389.589337458,9,1389.109064375,1389.16996625,1389.605228958,1390.348566875,1,0.542028291999941
137,20,6,categorization,0,kitchen,SHINEd_sun_aamedkxepzlwuxes.tif,65,0.0666666666666667,0.0666666666666667,1.6,1390.353285958,1391.213748583,9,1390.414861208,1390.475913875,1391.228029833,1392.821418208,1,0.860462625000082
137,21,6,categorization,0,kitchen,SHINEd_sun_ajcbwwvdlsvjyzje.tif,96,0.0666666666666667,0.0666666666666667,1.58333333333333,1392.838653458,1393.565278333,13,1392.905426291,1392.971903833,1393.595374541,1395.172098166,0,0.72662487499997
137,22,6,categorization,0,kitchen,SHINEd_sun_abrcnpqqhmjwekyf.tif,73,0.0666666666666667,0.0666666666666667,1.11666666666667,1395.189286625,1395.88620875,9,1395.256547125,1395.320854541,1395.911429416,1397.021470916,1,0.696922124999901
137,23,6,categorization,0,bathroom,SHINEd_sun_apmqjbnwghzuhhzh.tif,46,0.0666666666666667,0.0666666666666667,1.53333333333333,1397.034536708,1397.609400208,13,1397.099404625,1397.167362625,1397.623004791,1399.149725333,1,0.574863499999992
137,24,6,categorization,0,kitchen,SHINEd_sun_agzzivivdpnawacl.tif,89,0.0666666666666667,0.0666666666666667,1.48333333333333,1399.169221291,1399.937381375,13,1399.236427958,1399.3023705,1399.959435791,1401.436148875,0,0.768160084000101
137,25,6,categorization,0,kitchen,SHINEd_sun_aexklacwqwezaorf.tif,84,0.0666666666666667,0.0666666666666667,1.1,1401.447128833,1402.243272208,9,1401.512233041,1401.579891291,1402.269572041,1403.362942541,1,0.796143374999929
137,26,6,categorization,0,bathroom,SHINEd_sun_akiytfaagpdsphgz.tif,31,0.0666666666666667,0.0666666666666667,0.933333333333333,1403.373280208,1404.183851916,13,1403.438371375,1403.502875833,1404.2097815,1405.136487125,1,0.810571707999998
137,27,6,categorization,0,bathroom,SHINEd_sun_ausgutylgojavyoq.tif,53,0.0666666666666667,0.0666666666666667,0.816666666666667,1405.152174166,1405.853637583,13,1405.219943833,1405.285077708,1405.870559083,1406.680562875,1,0.701463417000014
137,28,6,categorization,0,bathroom,SHINEd_sun_aapitsgbtktqubfy.tif,12,0.0666666666666667,0.0666666666666667,1.78333333333333,1406.685461041,1407.524826541,13,1406.7472375,1406.808219708,1407.543379083,1409.3200695,1,0.839365499999985
137,29,6,categorization,0,bathroom,SHINEd_sun_aofnryafpsjimzsb.tif,40,0.0666666666666667,0.0666666666666667,0.766666666666667,1409.328254166,1410.060523958,9,1409.392465625,1409.459982791,1410.08299525,1410.842999208,0,0.732269791999897
137,30,6,categorization,0,kitchen,SHINEd_sun_aunzlwrbjumxhwdj.tif,103,0.0666666666666667,0.0666666666666667,1.45,1410.849359541,1411.613075958,13,1410.911301541,1410.972060583,1411.623873416,1413.067257208,0,0.763716417000069
137,31,6,categorization,0,bathroom,SHINEd_sun_aoybiabnpadelefl.tif,41,0.0666666666666667,0.0666666666666667,0.75,1413.084869166,1413.577962583,9,1413.151016666,1413.217468791,1413.607081625,1414.350458666,0,0.493093416999955
137,32,6,categorization,0,kitchen,SHINEd_sun_abdxkyyxwfskuaqb.tif,70,0.0666666666666667,0.0666666666666667,1.36666666666667,1414.367231083,1414.949509083,9,1414.433951208,1414.499714083,1414.968375208,1416.328411916,1,0.582278000000088
137,33,6,categorization,0,bathroom,SHINEd_sun_alkosphxlxwjwgjd.tif,34,0.0666666666666667,0.0666666666666667,0.75,1416.345058125,1417.145000291,13,1416.411825833,1416.479040291,1417.168796208,1417.912162916,1,0.799942166000164
137,34,6,categorization,0,bathroom,SHINEd_sun_apkruvsevgegsdwp.tif,44,0.0666666666666667,0.0666666666666667,0.783333333333333,1417.92904675,1418.596894458,13,1417.995584708,1418.053529291,1418.605349916,1419.382021541,1,0.667847707999954
137,35,6,categorization,0,kitchen,SHINEd_sun_aggjlwcdjsjcaemh.tif,86,0.0666666666666667,0.0666666666666667,1.11666666666667,1419.38666825,1420.276875041,9,1419.448345416,1419.509387875,1420.294624125,1421.404683666,1,0.890206791000082
137,36,6,categorization,0,kitchen,SHINEd_sun_aehawpgmrlhlvcow.tif,81,0.0666666666666667,0.0666666666666667,0.766666666666667,1421.4133675,1422.072812416,13,1421.478069291,1421.544768375,1422.101354916,1422.86140775,0,0.659444915999984
137,37,6,categorization,0,kitchen,SHINEd_sun_aqeaevwwwjoqhzvl.tif,101,0.0666666666666667,0.0666666666666667,0.716666666666667,1422.877194208,1423.885257833,9,1422.944083125,1423.009847291,1423.895155708,1424.605161375,1,1.00806362499998
137,38,6,categorization,0,kitchen,SHINEd_sun_ajkqhtgcbgpcwrwn.tif,97,0.0666666666666667,0.0666666666666667,1.33333333333333,1424.610023041,1426.09348425,9,1424.671872416,1424.7332285,1426.101786916,1427.428503208,1,1.4834612090001
137,39,6,categorization,0,bathroom,SHINEd_sun_apynckhmoftszqoq.tif,47,0.0666666666666667,0.0666666666666667,1.75,1427.439631416,1428.127444666,13,1427.504440333,1427.572455708,1428.145157958,1429.888540833,1,0.687813249999863
137,40,6,categorization,0,bathroom,SHINEd_sun_apeeialkgkuxddgh.tif,42,0.0666666666666667,0.0666666666666667,1.13333333333333,1429.90636625,1430.679346416,13,1429.973433958,1430.039247916,1430.694987291,1431.821700875,1,0.772980166000025
137,41,6,categorization,0,bathroom,SHINEd_sun_avhrdrntsqrjzccq.tif,55,0.0666666666666667,0.0666666666666667,1.63333333333333,1431.834251625,1432.430414875,13,1431.899548541,1431.967184958,1432.457220375,1434.083938458,1,0.596163250000018
137,42,6,categorization,0,kitchen,SHINEd_sun_adgqasybjyktddhj.tif,78,0.0666666666666667,0.0666666666666667,1.43333333333333,1434.101928125,1434.5445555,9,1434.168758083,1434.235118125,1434.57509725,1436.001798041,1,0.442627374999802
137,43,6,categorization,0,bathroom,SHINEd_sun_aljolscmmzydegqp.tif,33,0.0666666666666667,0.0666666666666667,1.83333333333333,1436.011567916,1436.421210583,13,1436.077017458,1436.144661416,1436.451316333,1438.278024958,1,0.409642666999844
137,44,6,categorization,0,kitchen,SHINEd_sun_aarfiyshqohlwkmo.tif,67,0.0666666666666667,0.0666666666666667,1.93333333333333,1438.29280275,1438.886793208,9,1438.36118875,1438.425863291,1438.915912416,1440.84261275,1,0.593990458000007
137,45,6,categorization,0,kitchen,SHINEd_labelme_kxvouciolcpqplr.tif,62,0.0666666666666667,0.0666666666666667,1.26666666666667,1440.8598395,1441.297673083,13,1440.92759975,1440.992722708,1441.314494791,1442.574556291,0,0.437833583000156
137,46,6,categorization,0,bathroom,SHINEd_sun_aavhrsfjbserjtht.tif,13,0.0666666666666667,0.0666666666666667,1.86666666666667,1442.589252625,1443.180488166,13,1442.65663575,1442.722465875,1443.194860208,1445.054899,1,0.59123554100006
137,47,6,categorization,0,kitchen,SHINEd_sun_auticobqsbwgoppi.tif,104,0.0666666666666667,0.0666666666666667,1.41666666666667,1445.073057958,1445.784380458,9,1445.139693958,1445.206521416,1445.813760625,1447.223817041,1,0.711322500000051
137,48,6,categorization,0,bathroom,SHINEd_sun_acegryoqftbzowsg.tif,17,0.0666666666666667,0.0666666666666667,1.11666666666667,1447.241619958,1448.181593041,13,1447.307814916,1447.372688833,1448.195749833,1449.305794416,1,0.939973083000041
137,49,6,categorization,0,kitchen,SHINEd_sun_aegoxogugdkwpmpj.tif,80,0.0666666666666667,0.0666666666666667,1.8,1449.31686325,1450.311796333,13,1449.382201625,1449.448495833,1450.338941291,1452.132333666,0,0.994933082999978
137,50,6,categorization,0,kitchen,SHINEd_sun_admlmbcdswaszruo.tif,79,0.0666666666666667,0.0666666666666667,1.25,1452.152937875,1453.367436875,13,1452.220177458,1452.286061166,1453.389982166,1454.633363333,0,1.21449900000016
137,1,7,categorization,0,bathroom,SHINEd_sun_aljolscmmzydegqp.tif,33,0.0666666666666667,0.0666666666666667,0.883333333333333,1461.283126916,1467.297260833,13,1461.345048416,1461.406349958,1467.31324525,1468.189917166,1,6.01413391700021
137,2,7,categorization,0,bathroom,SHINEd_sun_ajlawzvmubibwbpy.tif,30,0.0666666666666667,0.0666666666666667,1.03333333333333,1468.195543208,1468.948427458,13,1468.257315,1468.318441291,1468.953837541,1469.980548833,1,0.752884250000079
137,3,7,categorization,0,bathroom,SHINEd_sun_avhrdrntsqrjzccq.tif,55,0.0666666666666667,0.0666666666666667,1.06666666666667,1469.990458166,1471.367047958,13,1470.054897666,1470.121635291,1471.393957208,1472.454008333,1,1.376589792
137,4,7,categorization,0,kitchen,SHINEd_sun_aaxxjlsuzvqlgylf.tif,68,0.0666666666666667,0.0666666666666667,0.833333333333333,1472.467127916,1473.046172458,9,1472.532329125,1472.597193666,1473.070778375,1473.897503,1,0.57904454200002
137,5,7,categorization,0,kitchen,SHINEd_sun_ahspylgoovwmwvgk.tif,93,0.0666666666666667,0.0666666666666667,0.716666666666667,1473.914124291,1474.757417166,9,1473.980735625,1474.0469395,1474.76614,1475.476143541,1,0.843292875000088
137,6,7,categorization,0,bathroom,SHINEd_sun_ambriybtogmepttm.tif,36,0.0666666666666667,0.0666666666666667,0.733333333333333,1475.482022625,1476.605032625,13,1475.543855125,1475.604721041,1476.623398,1477.350067791,1,1.12301000000002
137,7,7,categorization,0,bathroom,SHINEd_sun_acduarbnmmoglmiv.tif,16,0.0666666666666667,0.0666666666666667,1.38333333333333,1477.354859333,1478.284633166,13,1477.416451375,1477.477648625,1478.296545125,1479.673329625,1,0.929773833000127
137,8,7,categorization,0,kitchen,SHINEd_sun_axyyrmzcupyhlivc.tif,107,0.0666666666666667,0.0666666666666667,0.9,1479.690413041,1480.486960791,9,1479.758901708,1479.823101375,1480.513209708,1481.406554,1,0.796547749999945
137,9,7,categorization,0,bathroom,SHINEd_sun_axyrejkiiaqiurjk.tif,59,0.0666666666666667,0.0666666666666667,0.816666666666667,1481.412121708,1482.38037325,9,1481.473958625,1481.534930291,1482.387120416,1483.197126458,0,0.968251541999962
137,10,7,categorization,0,bathroom,SHINEd_sun_agrwbmhcpmfuwmsg.tif,24,0.0666666666666667,0.0666666666666667,0.85,1483.20277925,1484.317008666,13,1483.264395625,1483.325422916,1484.327623,1485.17096175,1,1.11422941599994
137,11,7,categorization,0,bathroom,SHINEd_sun_ausgutylgojavyoq.tif,53,0.0666666666666667,0.0666666666666667,1.6,1485.176380291,1486.068343458,13,1485.238062,1485.299003583,1486.084521625,1487.677912791,1,0.891963167000085
137,12,7,categorization,0,bathroom,SHINEd_sun_auzqhkafidnkrwmo.tif,54,0.0666666666666667,0.0666666666666667,1.75,1487.694698791,1488.767876833,13,1487.761486375,1487.827451875,1488.783222291,1490.526594125,1,1.07317804199988
137,13,7,categorization,0,kitchen,SHINEd_sun_acgtpgfybqjmzeyw.tif,75,0.0666666666666667,0.0666666666666667,1.1,1490.544314375,1491.229616166,9,1490.6127235,1490.67689725,1491.25013925,1492.343529583,1,0.685301790999802
137,14,7,categorization,0,kitchen,SHINEd_labelme_brsyyvweiuaazfr.tif,61,0.0666666666666667,0.0666666666666667,1.46666666666667,1492.352896125,1493.30036175,13,1492.418341,1492.486208541,1493.324796916,1494.784843541,0,0.947465625000177
137,15,7,categorization,0,bathroom,SHINEd_sun_atstyziqcmkahyxk.tif,51,0.0666666666666667,0.0666666666666667,1.25,1494.803489291,1495.823058541,13,1494.870569666,1494.936479375,1495.8431625,1497.086558208,1,1.0195692499999
137,16,7,categorization,0,kitchen,SHINEd_sun_awcpdzzznmweyyhv.tif,106,0.0666666666666667,0.0666666666666667,1.13333333333333,1497.103464458,1498.878704916,9,1497.170595333,1497.236260833,1498.890214208,1500.0169125,1,1.7752404580001
137,17,7,categorization,0,bathroom,SHINEd_sun_abapwbhyhkfixyex.tif,14,0.0666666666666667,0.0666666666666667,1.33333333333333,1500.027038208,1501.180795333,9,1500.091992625,1500.160255708,1501.201078208,1502.527800625,0,1.15375712500008
137,18,7,categorization,0,bathroom,SHINEd_sun_apeeialkgkuxddgh.tif,42,0.0666666666666667,0.0666666666666667,1.86666666666667,1502.544334083,1503.327283333,13,1502.612539708,1502.677071666,1503.349735833,1505.209770833,1,0.782949250000001
137,19,7,categorization,0,kitchen,SHINEd_sun_aggjlwcdjsjcaemh.tif,86,0.0666666666666667,0.0666666666666667,1.58333333333333,1505.226812291,1505.962099,9,1505.294122,1505.358863166,1505.982092791,1507.558805333,1,0.735286709000093
137,20,7,categorization,0,bathroom,SHINEd_sun_apmqjbnwghzuhhzh.tif,46,0.0666666666666667,0.0666666666666667,1.05,1507.575648583,1508.418428,13,1507.642763916,1507.708656583,1508.448978791,1509.492351916,1,0.842779416999974
137,21,7,categorization,0,kitchen,SHINEd_sun_aenotlpyftoioydp.tif,82,0.0666666666666667,0.0666666666666667,0.9,1509.501233958,1510.624891041,9,1509.566050916,1509.632828166,1510.639068833,1511.532443041,1,1.1236570829999
137,22,7,categorization,0,bathroom,SHINEd_sun_acegryoqftbzowsg.tif,17,0.0666666666666667,0.0666666666666667,0.7,1511.55002775,1512.420871583,13,1511.613038041,1511.672807166,1512.424766958,1513.118106083,1,0.870843832999981
137,23,7,categorization,0,kitchen,SHINEd_sun_acwjdupvyjsugpay.tif,76,0.0666666666666667,0.0666666666666667,0.933333333333333,1513.123784708,1513.8365065,9,1513.18544075,1513.246622875,1513.84872325,1514.775394833,1,0.712721792000139
137,24,7,categorization,0,kitchen,SHINEd_sun_ajkqhtgcbgpcwrwn.tif,97,0.0666666666666667,0.0666666666666667,1.95,1514.781651041,1515.98895025,9,1514.843325166,1514.904351875,1516.0068645,1517.950253333,1,1.20729920899998
137,25,7,categorization,0,bathroom,SHINEd_labelme_sfxiulhjbhlyiyt.tif,11,0.0666666666666667,0.0666666666666667,1.06666666666667,1517.967990708,1518.810483458,13,1518.034884583,1518.100597583,1518.840215583,1519.900284125,1,0.842492750000019
137,26,7,categorization,0,bathroom,SHINEd_sun_abjtwfukuwddzted.tif,15,0.0666666666666667,0.0666666666666667,1.2,1519.909564125,1520.670594541,13,1519.975183875,1520.039932791,1520.696327041,1521.889710583,1,0.761030415999812
137,27,7,categorization,0,kitchen,SHINEd_sun_aapllqyqlykszopd.tif,66,0.0666666666666667,0.0666666666666667,0.75,1521.907906083,1522.548450916,9,1521.970398166,1522.030811291,1522.565928583,1523.309267833,1,0.640544833000149
137,28,7,categorization,0,bathroom,SHINEd_sun_aggnnqpdorgxpvce.tif,21,0.0666666666666667,0.0666666666666667,0.816666666666667,1523.314874291,1524.076665666,9,1523.376655166,1523.437613458,1524.089605333,1524.899610375,0,0.76179137500003
137,29,7,categorization,0,kitchen,SHINEd_sun_aarfiyshqohlwkmo.tif,67,0.0666666666666667,0.0666666666666667,1.96666666666667,1524.904377208,1525.660539416,9,1524.965947875,1525.02701675,1525.678959041,1527.638994875,1,0.756162207999978
137,30,7,categorization,0,kitchen,SHINEd_sun_abpwyqmlzafvklqo.tif,72,0.0666666666666667,0.0666666666666667,1.2,1527.657438291,1528.294560333,13,1527.724202833,1527.790147708,1528.313181458,1529.506564916,0,0.637122041999874
137,31,7,categorization,0,kitchen,SHINEd_sun_auticobqsbwgoppi.tif,104,0.0666666666666667,0.0666666666666667,0.883333333333333,1529.518520166,1530.428304333,13,1529.584693,1529.651614875,1530.439872208,1531.316560583,0,0.909784166999998
137,32,7,categorization,0,kitchen,SHINEd_sun_aypmqwcualkenuoe.tif,109,0.0666666666666667,0.0666666666666667,1.33333333333333,1531.327976416,1532.020578958,9,1531.390537875,1531.450717583,1532.035815291,1533.362531583,1,0.692602542000031
137,33,7,categorization,0,bathroom,SHINEd_sun_acgyywnybuveqsro.tif,18,0.0666666666666667,0.0666666666666667,1.45,1533.371795333,1534.239186791,13,1533.4362025,1533.50237275,1534.258691625,1535.702066125,1,0.867391458000156
137,34,7,categorization,0,kitchen,SHINEd_sun_adgqasybjyktddhj.tif,78,0.0666666666666667,0.0666666666666667,1.15,1535.719078083,1536.67726475,9,1535.78613225,1535.851928541,1536.690697416,1537.834075166,1,0.958186666999836
137,35,7,categorization,0,kitchen,SHINEd_sun_aegoxogugdkwpmpj.tif,80,0.0666666666666667,0.0666666666666667,0.966666666666667,1537.845258916,1538.515875083,9,1537.910374166,1537.97918775,1538.534952041,1539.494973333,1,0.670616167000162
137,36,7,categorization,0,bathroom,SHINEd_sun_aavhrsfjbserjtht.tif,13,0.0666666666666667,0.0666666666666667,1.45,1539.505954041,1540.364749416,9,1539.572907875,1539.6351845,1540.370606916,1541.813993041,0,0.858795375
137,37,7,categorization,0,kitchen,SHINEd_sun_avszsnwsbuqfgzbn.tif,105,0.0666666666666667,0.0666666666666667,0.8,1541.828566625,1542.983542583,9,1541.897025416,1541.961616291,1543.001853791,1543.795194,1,1.15497595800002
137,38,7,categorization,0,bathroom,SHINEd_sun_awnqiikzaispgmwo.tif,56,0.0666666666666667,0.0666666666666667,1.45,1543.801382166,1544.412461416,13,1543.863244958,1543.924328583,1544.426170541,1545.869556583,1,0.611079250000103
137,39,7,categorization,0,kitchen,SHINEd_sun_abdxkyyxwfskuaqb.tif,70,0.0666666666666667,0.0666666666666667,1.1,1545.887550958,1546.948954041,13,1545.954563875,1546.020868,1546.978089541,1548.071481833,0,1.06140308299996
137,40,7,categorization,0,bathroom,SHINEd_sun_apkruvsevgegsdwp.tif,44,0.0666666666666667,0.0666666666666667,1.16666666666667,1548.083068833,1548.947775875,13,1548.148671291,1548.216011791,1548.972869625,1550.132913041,1,0.864707041999964
137,41,7,categorization,0,kitchen,SHINEd_sun_aeqdocilnnpuvuhx.tif,83,0.0666666666666667,0.0666666666666667,1.31666666666667,1550.143658291,1550.800853541,9,1550.20932725,1550.276845375,1550.81648725,1552.126543416,1,0.657195249999859
137,42,7,categorization,0,bathroom,SHINEd_sun_aofnryafpsjimzsb.tif,40,0.0666666666666667,0.0666666666666667,1.68333333333333,1552.143522708,1553.364319041,13,1552.211813916,1552.268105166,1553.369902458,1555.046603,1,1.22079633299995
137,43,7,categorization,0,kitchen,SHINEd_sun_aehawpgmrlhlvcow.tif,81,0.0666666666666667,0.0666666666666667,0.966666666666667,1555.062975541,1555.941519291,9,1555.130105375,1555.19569975,1555.949361333,1556.909366083,1,0.878543750000063
137,44,7,categorization,0,kitchen,SHINEd_sun_ajcbwwvdlsvjyzje.tif,96,0.0666666666666667,0.0666666666666667,1.4,1556.915215791,1557.65290425,13,1556.977136625,1557.037854,1557.65646125,1559.049842708,0,0.737688458999855
137,45,7,categorization,0,bathroom,SHINEd_sun_asfwthctfqerjvxr.tif,49,0.0666666666666667,0.0666666666666667,0.783333333333333,1559.067658208,1559.966259375,13,1559.134375875,1559.200321958,1559.990634375,1560.767307041,1,0.898601166999924
137,46,7,categorization,0,bathroom,SHINEd_sun_agguqiubmwhqqunb.tif,22,0.0666666666666667,0.0666666666666667,1.08333333333333,1560.773064416,1561.588611791,13,1560.834745083,1560.895808833,1561.597733541,1562.674455791,1,0.815547375000051
137,47,7,categorization,0,kitchen,SHINEd_sun_abftihopvusyfakt.tif,71,0.0666666666666667,0.0666666666666667,1.43333333333333,1562.684300375,1563.302378375,9,1562.74915575,1562.815773708,1563.320659541,1564.747367833,1,0.618077999999969
137,48,7,categorization,0,bathroom,SHINEd_sun_ahijqszoswveeyji.tif,28,0.0666666666666667,0.0666666666666667,1.75,1564.758628833,1565.592053458,13,1564.825666041,1564.891391041,1565.614127958,1567.357488791,1,0.833424624999907
137,49,7,categorization,0,bathroom,SHINEd_sun_ahqjwnzgolcaoidx.tif,29,0.0666666666666667,0.0666666666666667,1.21666666666667,1567.368060041,1568.485681375,13,1567.434141791,1567.498062583,1568.503893416,1569.713938666,1,1.11762133399998
137,50,7,categorization,0,kitchen,SHINEd_sun_acfmftudsenhrfhy.tif,74,0.0666666666666667,0.0666666666666667,1.31666666666667,1569.730539125,1570.41962075,9,1569.798523083,1569.863408458,1570.435596833,1571.74562975,1,0.689081624999972
137,1,8,categorization,0,bathroom,SHINEd_sun_apkxzenqapsujocq.tif,45,0.0666666666666667,0.0666666666666667,1.18333333333333,1578.771892958,1579.62036375,13,1578.834008125,1578.89464175,1579.629853291,1580.806574833,1,0.848470791999944
137,2,8,categorization,0,kitchen,SHINEd_labelme_rykdqxenmhulbdn.tif,63,0.0666666666666667,0.0666666666666667,0.983333333333333,1580.817580125,1581.862665,9,1580.884281625,1580.950432291,1581.889821,1582.866491791,1,1.04508487500016
137,3,8,categorization,0,kitchen,SHINEd_sun_aqeaevwwwjoqhzvl.tif,101,0.0666666666666667,0.0666666666666667,1.65,1582.872248583,1583.812189625,9,1582.933974625,1582.994955083,1583.830613416,1585.4739905,1,0.939941041999873
137,4,8,categorization,0,kitchen,SHINEd_sun_agzzivivdpnawacl.tif,89,0.0666666666666667,0.0666666666666667,1.23333333333333,1585.48446675,1586.544317791,13,1585.55145175,1585.617200916,1586.5738185,1587.800532708,0,1.059851041
137,5,8,categorization,0,bathroom,SHINEd_sun_aunuadmjocsddsrl.tif,52,0.0666666666666667,0.0666666666666667,0.916666666666667,1587.8175455,1588.697805875,13,1587.884718416,1587.950673583,1588.724164958,1589.634208083,1,0.880260375000034
137,6,8,categorization,0,kitchen,SHINEd_sun_aadbddgrdsjugojn.tif,64,0.0666666666666667,0.0666666666666667,1.56666666666667,1589.650191166,1590.444080708,9,1589.712974958,1589.772888125,1590.458078083,1592.01811825,1,0.793889541999988
137,7,8,categorization,0,bathroom,SHINEd_sun_ahaulkltgpkeeemi.tif,26,0.0666666666666667,0.0666666666666667,1.63333333333333,1592.035819708,1594.01236125,13,1592.102622583,1592.168495,1594.021316375,1595.648039208,1,1.97654154199995
137,8,8,categorization,0,bathroom,SHINEd_sun_akiytfaagpdsphgz.tif,31,0.0666666666666667,0.0666666666666667,1.1,1595.667623,1596.471162791,13,1595.734589458,1595.800774,1596.490549375,1597.583941166,1,0.803539791000048
137,9,8,categorization,0,kitchen,SHINEd_sun_aexklacwqwezaorf.tif,84,0.0666666666666667,0.0666666666666667,1.38333333333333,1597.592840041,1598.457990666,13,1597.658024541,1597.725924458,1598.482741083,1599.859463958,0,0.865150624999842
137,10,8,categorization,0,bathroom,SHINEd_sun_afcoljnjfoxjtgja.tif,20,0.0666666666666667,0.0666666666666667,0.766666666666667,1599.877340333,1600.680544625,9,1599.944199458,1600.010411958,1600.699970333,1601.46001575,0,0.803204292000146
137,11,8,categorization,0,bathroom,SHINEd_sun_alkosphxlxwjwgjd.tif,34,0.0666666666666667,0.0666666666666667,1.45,1601.471178333,1602.372926083,13,1601.53798775,1601.604640208,1602.390341916,1603.833733583,1,0.901747750000141
137,12,8,categorization,0,kitchen,SHINEd_sun_abdenxonkemggwsq.tif,69,0.0666666666666667,0.0666666666666667,0.983333333333333,1603.851318958,1604.567143208,13,1603.918837791,1603.98448575,1604.591792708,1605.568467208,0,0.715824249999969
137,13,8,categorization,0,bathroom,SHINEd_sun_amzlamotzwfkwjco.tif,37,0.0666666666666667,0.0666666666666667,0.716666666666667,1605.5744945,1606.228680791,13,1605.636306833,1605.697151833,1606.232266583,1606.942271833,1,0.654186291000087
137,14,8,categorization,0,kitchen,SHINEd_sun_amjjdeyrggfqgmom.tif,100,0.0666666666666667,0.0666666666666667,1.41666666666667,1606.948120833,1607.620588041,9,1607.009835875,1607.07090175,1607.639529416,1609.0495785,1,0.672467207999944
137,15,8,categorization,0,kitchen,SHINEd_sun_aunzlwrbjumxhwdj.tif,103,0.0666666666666667,0.0666666666666667,1.21666666666667,1609.067116041,1610.652544875,9,1609.133281791,1609.19966125,1610.672084375,1611.882125958,1,1.58542883400014
137,16,8,categorization,0,bathroom,SHINEd_sun_aspsyogrekjtfozg.tif,50,0.0666666666666667,0.0666666666666667,1.61666666666667,1611.899896875,1612.739452625,13,1611.966970541,1612.032835958,1612.7556795,1614.365735208,1,0.839555750000045
137,17,8,categorization,0,kitchen,SHINEd_sun_afuyedyxivkhecmu.tif,85,0.0666666666666667,0.0666666666666667,0.783333333333333,1614.384398041,1615.189457416,9,1614.451602583,1614.51733975,1615.207282875,1615.983958291,1,0.805059375000155
137,18,8,categorization,0,bathroom,SHINEd_sun_aghyqhbptboemmoq.tif,23,0.0666666666666667,0.0666666666666667,1.98333333333333,1615.989866625,1616.7724955,13,1616.051563166,1616.112680833,1616.781104166,1618.757836708,1,0.782628875
137,19,8,categorization,0,kitchen,SHINEd_sun_ahywdevtimnqcsln.tif,94,0.0666666666666667,0.0666666666666667,0.983333333333333,1618.774373416,1619.660945166,9,1618.841608708,1618.907166833,1619.680711166,1620.657384,1,0.88657175000003
137,20,8,categorization,0,kitchen,SHINEd_sun_aamedkxepzlwuxes.tif,65,0.0666666666666667,0.0666666666666667,0.8,1620.665127375,1621.403999666,9,1620.726774583,1620.787845791,1621.423006458,1622.216343916,1,0.73887229099978
137,21,8,categorization,0,bathroom,SHINEd_sun_aapitsgbtktqubfy.tif,12,0.0666666666666667,0.0666666666666667,0.733333333333333,1622.22112975,1623.211839958,9,1622.282842625,1622.343764708,1623.229481125,1623.95615175,0,0.990710207999882
137,22,8,categorization,0,kitchen,SHINEd_sun_akchetnepxlcxhsu.tif,98,0.0666666666666667,0.0666666666666667,0.966666666666667,1623.9612305,1624.643953875,13,1624.02288175,1624.083949916,1624.652340708,1625.612345916,0,0.682723375000023
137,23,8,categorization,0,kitchen,SHINEd_sun_abrcnpqqhmjwekyf.tif,73,0.0666666666666667,0.0666666666666667,0.866666666666667,1625.617245875,1626.771938916,9,1625.679034958,1625.740037125,1626.775472666,1627.635476708,1,1.15469304099997
137,24,8,categorization,0,kitchen,SHINEd_sun_ahdycvpopffkzzsu.tif,90,0.0666666666666667,0.0666666666666667,1.23333333333333,1627.640647,1628.396385833,13,1627.702337875,1627.763336458,1628.41521525,1629.641941333,0,0.755738833000123
137,25,8,categorization,0,bathroom,SHINEd_sun_apjevzvycyhuqghb.tif,43,0.0666666666666667,0.0666666666666667,1.9,1629.658736083,1630.441305166,9,1629.72685975,1629.791749375,1630.4649455,1632.358316083,0,0.782569082999998
137,26,8,categorization,0,bathroom,SHINEd_sun_anryaplzeujmzfkd.tif,39,0.0666666666666667,0.0666666666666667,0.866666666666667,1632.375311875,1633.187572875,13,1632.442050458,1632.508191875,1633.215128541,1634.075134416,1,0.812260999999808
137,27,8,categorization,0,kitchen,SHINEd_labelme_kxvouciolcpqplr.tif,62,0.0666666666666667,0.0666666666666667,0.966666666666667,1634.080747916,1634.820264291,9,1634.142482208,1634.2034065,1634.838543583,1635.798549708,1,0.739516374999994
137,28,8,categorization,0,bathroom,SHINEd_sun_aoybiabnpadelefl.tif,41,0.0666666666666667,0.0666666666666667,0.916666666666667,1635.804158166,1636.372385125,13,1635.8659025,1635.927102666,1636.378993625,1637.288998708,1,0.568226958999958
137,29,8,categorization,0,bathroom,SHINEd_sun_alotolagknyrgtsk.tif,35,0.0666666666666667,0.0666666666666667,0.916666666666667,1637.294625333,1639.17219425,9,1637.356716833,1637.417382875,1639.186641791,1640.096646083,0,1.87756891699996
137,30,8,categorization,0,bathroom,SHINEd_sun_azqyogdvyhahyram.tif,60,0.0666666666666667,0.0666666666666667,1.4,1640.102035,1640.963658833,13,1640.163693041,1640.224795166,1640.976804208,1642.370190958,1,0.861623833000067
137,31,8,categorization,0,kitchen,SHINEd_sun_agubuxuukhzyzpdp.tif,88,0.0666666666666667,0.0666666666666667,1.75,1642.38851275,1642.977235708,9,1642.455384166,1642.522044958,1642.994811083,1644.738191208,1,0.588722958000062
137,32,8,categorization,0,kitchen,SHINEd_sun_admlmbcdswaszruo.tif,79,0.0666666666666667,0.0666666666666667,1.25,1644.755338375,1645.479599291,9,1644.822479583,1644.889320708,1645.494039333,1646.737419083,1,0.724260916000048
137,33,8,categorization,0,kitchen,SHINEd_sun_ahpczsiumwwocjkv.tif,92,0.0666666666666667,0.0666666666666667,1.05,1646.754677708,1647.494386375,9,1646.823408708,1646.887718333,1647.509879625,1648.553264458,1,0.739708667000059
137,34,8,categorization,0,kitchen,SHINEd_sun_agorklincwxrdtga.tif,87,0.0666666666666667,0.0666666666666667,1.06666666666667,1648.565388666,1649.259656125,13,1648.62755475,1648.688146041,1649.273278208,1650.33332175,0,0.694267459000002
137,35,8,categorization,0,kitchen,SHINEd_sun_azmutvzbxypaceni.tif,110,0.0666666666666667,0.0666666666666667,1.21666666666667,1650.343559958,1650.910211166,9,1650.409807791,1650.474685666,1650.9314025,1652.141452375,1,0.566651207999939
137,36,8,categorization,0,kitchen,SHINEd_sun_auaiucuqpdausiva.tif,102,0.0666666666666667,0.0666666666666667,0.95,1652.157531625,1652.708002375,13,1652.225482916,1652.290586958,1652.7264865,1653.669824333,0,0.550470749999931
137,37,8,categorization,0,bathroom,SHINEd_sun_aclfzgynxzxlbepz.tif,19,0.0666666666666667,0.0666666666666667,0.9,1653.675234333,1654.436078125,13,1653.736966916,1653.798006541,1654.449712166,1655.343050416,1,0.76084379200006
137,38,8,categorization,0,bathroom,SHINEd_sun_aqrpegblszgcoujh.tif,48,0.0666666666666667,0.0666666666666667,1.78333333333333,1655.347753708,1656.203974666,13,1655.409518916,1655.470507583,1656.222579166,1657.999294708,1,0.856220957999994
137,39,8,categorization,0,bathroom,SHINEd_sun_agyqfjcfkdcydepw.tif,25,0.0666666666666667,0.0666666666666667,1.16666666666667,1658.017241541,1658.822507458,9,1658.084184958,1658.150487916,1658.839861958,1659.999909083,0,0.805265917000042
137,40,8,categorization,0,bathroom,SHINEd_sun_apynckhmoftszqoq.tif,47,0.0666666666666667,0.0666666666666667,0.783333333333333,1660.010134,1660.741836541,9,1660.078917833,1660.14254925,1660.766208875,1661.542925125,0,0.731702541000004
137,41,8,categorization,0,kitchen,SHINEd_sun_akcjzhbbjlbogpdi.tif,99,0.0666666666666667,0.0666666666666667,1.23333333333333,1661.559632125,1662.65204775,9,1661.626545625,1661.692664666,1662.661795541,1663.888518166,1,1.09241562500006
137,42,8,categorization,0,bathroom,SHINEd_sun_anhioqovhscjqqwb.tif,38,0.0666666666666667,0.0666666666666667,0.9,1663.904864666,1664.720121166,13,1663.973442041,1664.037847791,1664.744821333,1665.638216583,1,0.815256499999805
137,43,8,categorization,0,bathroom,SHINEd_sun_axldvoqbuvuggfmq.tif,57,0.0666666666666667,0.0666666666666667,0.7,1665.65506925,1666.62053425,13,1665.717660916,1665.777995916,1666.629877916,1667.323215083,1,0.965464999999995
137,44,8,categorization,0,kitchen,SHINEd_sun_acxkpeoqbwcxfvip.tif,77,0.0666666666666667,0.0666666666666667,1.23333333333333,1667.327886125,1668.980096791,13,1667.389643083,1667.450552708,1668.986438208,1670.213139125,0,1.65221066599997
137,45,8,categorization,0,kitchen,SHINEd_sun_aymvwlarqodbwuoc.tif,108,0.0666666666666667,0.0666666666666667,1,1670.224309708,1670.960655458,9,1670.292438458,1670.357186083,1670.980400666,1671.973795833,1,0.736345750000055
137,46,8,categorization,0,kitchen,SHINEd_sun_aixorpehvfykdynp.tif,95,0.0666666666666667,0.0666666666666667,1.38333333333333,1671.989499125,1672.964449208,13,1672.056622208,1672.1144955,1672.983332875,1674.360046875,0,0.97495008299984
137,47,8,categorization,0,kitchen,SHINEd_sun_ahljzhgcdpomplvg.tif,91,0.0666666666666667,0.0666666666666667,1.3,1674.377209208,1675.206179708,13,1674.444156291,1674.509923333,1675.233128666,1676.52649875,0,0.828970499999969
137,48,8,categorization,0,bathroom,SHINEd_sun_aleqenyvunhactkl.tif,32,0.0666666666666667,0.0666666666666667,0.833333333333333,1676.544256041,1677.310126541,13,1676.612645541,1676.677611333,1677.332691666,1678.159417125,1,0.765870500000119
137,49,8,categorization,0,bathroom,SHINEd_sun_ahcvzmoyaycdoftf.tif,27,0.0666666666666667,0.0666666666666667,0.95,1678.17595475,1678.956230416,13,1678.242917375,1678.300691333,1678.969670708,1679.913010291,1,0.780275665999852
137,50,8,categorization,0,bathroom,SHINEd_sun_axxbkopsgyouuebh.tif,58,0.0666666666666667,0.0666666666666667,1.43333333333333,1679.918349208,1680.476333166,9,1679.979982958,1680.041019583,1680.492779125,1681.919481625,0,0.557983957999795
137,1,9,categorization,0,bathroom,SHINEd_sun_apkruvsevgegsdwp.tif,44,0.0666666666666667,0.0666666666666667,1.08333333333333,1791.73299775,1792.596073041,13,1791.794846541,1791.855778958,1792.607671583,1793.684395625,1,0.863075290999859
137,2,9,categorization,0,kitchen,SHINEd_sun_ahywdevtimnqcsln.tif,94,0.0666666666666667,0.0666666666666667,0.8,1793.692668958,1794.460918166,13,1793.758619291,1793.825214333,1794.481926916,1795.275298291,0,0.768249208000043
137,3,9,categorization,0,bathroom,SHINEd_sun_ahcvzmoyaycdoftf.tif,27,0.0666666666666667,0.0666666666666667,0.833333333333333,1795.291289833,1795.931438,13,1795.355965125,1795.422406041,1795.941264666,1796.76793575,1,0.640148167000007
137,4,9,categorization,0,kitchen,SHINEd_sun_aqeaevwwwjoqhzvl.tif,101,0.0666666666666667,0.0666666666666667,1.45,1796.772786333,1798.019068625,13,1796.834555625,1796.895363166,1798.031121625,1799.474493625,0,1.24628229199993
137,5,9,categorization,0,bathroom,SHINEd_sun_agguqiubmwhqqunb.tif,22,0.0666666666666667,0.0666666666666667,1.3,1799.484864833,1800.271955916,13,1799.551789541,1799.61752875,1800.290443333,1801.58381925,1,0.78709108299995
137,6,9,categorization,0,bathroom,SHINEd_sun_apeeialkgkuxddgh.tif,42,0.0666666666666667,0.0666666666666667,1.21666666666667,1801.601275375,1802.318613333,13,1801.668296875,1801.734463666,1802.34134925,1803.551383041,1,0.717337958000144
