sub_num,trial,block,task,is_practice,category,image,texture,duration,mask_dur,jitter,stim_time,time_of_resp,trial_response,mask_time,fix_time,jit_onset,trial_end,trial_accuracy,RT
127,1,13,categorization,0,kitchen,SHINEd_sun_auaiucuqpdausiva.tif,102,0.0666666666666667,0.0666666666666667,0.933333333333333,13248.078264667,13249.76072725,13,13248.140569334,13248.201111084,13249.770681959,13250.697354875,0,1.68246258300132
127,2,13,categorization,0,bathroom,SHINEd_sun_acegryoqftbzowsg.tif,17,0.0666666666666667,0.0666666666666667,1.36666666666667,13250.702658959,13251.632178459,9,13250.764329875,13250.825615709,13251.6441535,13253.004203709,0,0.929519499999515
127,3,13,categorization,0,bathroom,SHINEd_sun_aavhrsfjbserjtht.tif,13,0.0666666666666667,0.0666666666666667,1.88333333333333,13253.022044292,13253.757350625,9,13253.090197584,13253.15370875,13253.776927209,13255.653651584,0,0.735306332999244
127,4,13,categorization,0,bathroom,SHINEd_sun_apynckhmoftszqoq.tif,47,0.0666666666666667,0.0666666666666667,1.35,13255.671119875,13256.653368375,13,13255.73791275,13255.803124042,13256.676433167,13258.019823542,1,0.982248500000424
127,5,13,categorization,0,kitchen,SHINEd_sun_abftihopvusyfakt.tif,71,0.0666666666666667,0.0666666666666667,1.3,13258.036643959,13258.934749667,9,13258.101650792,13258.169559959,13258.959679042,13260.253063459,1,0.898105708000003
127,6,13,categorization,0,bathroom,SHINEd_sun_acduarbnmmoglmiv.tif,16,0.0666666666666667,0.0666666666666667,1.93333333333333,13260.27016025,13261.082156,13,13260.336529584,13260.401597209,13261.108304875,13263.035010292,1,0.811995750000278
127,7,13,categorization,0,kitchen,SHINEd_sun_ahpczsiumwwocjkv.tif,92,0.0666666666666667,0.0666666666666667,0.95,13263.051645292,13263.906764959,13,13263.118435167,13263.185119917,13263.924817667,13264.868156125,0,0.855119666999599
127,8,13,categorization,0,kitchen,SHINEd_sun_aqeaevwwwjoqhzvl.tif,101,0.0666666666666667,0.0666666666666667,1.56666666666667,13264.873822459,13266.111753709,13,13264.935488125,13264.9966675,13266.115952375,13267.676007167,0,1.23793124999975
127,9,13,categorization,0,kitchen,SHINEd_sun_agorklincwxrdtga.tif,87,0.0666666666666667,0.0666666666666667,1.3,13267.693067542,13268.558298917,9,13267.759593459,13267.826904167,13268.583541542,13269.876919042,1,0.865231374998984
127,10,13,categorization,0,bathroom,SHINEd_sun_avhrdrntsqrjzccq.tif,55,0.0666666666666667,0.0666666666666667,1.3,13269.895840417,13270.836235917,13,13269.963779792,13270.029126834,13270.852191417,13272.14557325,1,0.940395499999795
127,11,13,categorization,0,bathroom,SHINEd_sun_ahqjwnzgolcaoidx.tif,29,0.0666666666666667,0.0666666666666667,1.03333333333333,13272.163653375,13272.891018917,13,13272.232173125,13272.297628084,13272.92098625,13273.947691125,1,0.727365541999461
127,12,13,categorization,0,bathroom,SHINEd_sun_abapwbhyhkfixyex.tif,14,0.0666666666666667,0.0666666666666667,1.93333333333333,13273.9573645,13274.717180875,9,13274.022327875,13274.090729,13274.747580334,13276.674293542,0,0.75981637500081
127,13,13,categorization,0,kitchen,SHINEd_sun_avszsnwsbuqfgzbn.tif,105,0.0666666666666667,0.0666666666666667,0.966666666666667,13276.691902834,13280.816965334,13,13276.758907167,13276.825750875,13280.84505425,13281.805058084,0,4.12506249999933
127,14,13,categorization,0,kitchen,SHINEd_sun_auticobqsbwgoppi.tif,104,0.0666666666666667,0.0666666666666667,0.916666666666667,13281.810245667,13282.536842917,9,13281.871871334,13281.933039459,13282.551598625,13283.461605125,1,0.726597249999031
127,15,13,categorization,0,kitchen,SHINEd_labelme_kxvouciolcpqplr.tif,62,0.0666666666666667,0.0666666666666667,1.3,13283.467279625,13284.207968834,13,13283.528968167,13283.590087709,13284.225589959,13285.51895675,0,0.740689209000266
127,16,13,categorization,0,kitchen,SHINEd_sun_awcpdzzznmweyyhv.tif,106,0.0666666666666667,0.0666666666666667,0.75,13285.536263125,13286.173801667,9,13285.602865334,13285.670268209,13286.193128459,13286.936508,1,0.637538542001494
127,17,13,categorization,0,kitchen,SHINEd_labelme_brsyyvweiuaazfr.tif,61,0.0666666666666667,0.0666666666666667,1.03333333333333,13286.952320625,13287.464640875,13,13287.018394584,13287.085905292,13287.471616959,13288.498334917,0,0.512320249999902
127,18,13,categorization,0,kitchen,SHINEd_sun_azmutvzbxypaceni.tif,110,0.0666666666666667,0.0666666666666667,1.28333333333333,13288.507015167,13288.997204667,9,13288.5717845,13288.639252125,13289.011543792,13290.288258875,1,0.490189499998451
127,19,13,categorization,0,kitchen,SHINEd_sun_admlmbcdswaszruo.tif,79,0.0666666666666667,0.0666666666666667,1.25,13290.306735667,13290.792347625,9,13290.371370292,13290.439214917,13290.808122875,13292.051508042,1,0.485611957999936
127,20,13,categorization,0,kitchen,SHINEd_sun_ajkqhtgcbgpcwrwn.tif,97,0.0666666666666667,0.0666666666666667,1.75,13292.068594084,13292.930334084,13,13292.135209042,13292.202130292,13292.95830125,13294.701674959,0,0.861740000000282
127,21,13,categorization,0,kitchen,SHINEd_sun_abrcnpqqhmjwekyf.tif,73,0.0666666666666667,0.0666666666666667,1.76666666666667,13294.719833,13295.707929209,9,13294.786462625,13294.853383959,13295.72600575,13297.486056,1,0.988096209001014
127,22,13,categorization,0,bathroom,SHINEd_sun_aspsyogrekjtfozg.tif,50,0.0666666666666667,0.0666666666666667,0.733333333333333,13297.503979542,13298.408100542,13,13297.570621625,13297.637631084,13298.425708834,13299.1523805,1,0.904120999999577
127,23,13,categorization,0,bathroom,SHINEd_sun_apkruvsevgegsdwp.tif,44,0.0666666666666667,0.0666666666666667,1.43333333333333,13299.158371375,13300.208214917,13,13299.220069584,13299.281250709,13300.216876042,13301.643595334,1,1.04984354199951
127,24,13,categorization,0,kitchen,SHINEd_sun_acxkpeoqbwcxfvip.tif,77,0.0666666666666667,0.0666666666666667,1.81666666666667,13301.661467,13302.394573167,9,13301.728190917,13301.794968584,13302.416605875,13304.226649167,1,0.733106166999278
127,25,13,categorization,0,bathroom,SHINEd_sun_aofnryafpsjimzsb.tif,40,0.0666666666666667,0.0666666666666667,0.95,13304.244441417,13305.000585417,13,13304.3103175,13304.371518084,13305.028579875,13305.971917584,1,0.75614399999904
127,26,13,categorization,0,bathroom,SHINEd_sun_agguqiubmwhqqunb.tif,22,0.0666666666666667,0.0666666666666667,0.783333333333333,13305.977957375,13306.640010167,9,13306.039731084,13306.100946917,13306.652896,13307.429568959,0,0.662052792000395
127,27,13,categorization,0,kitchen,SHINEd_sun_aapllqyqlykszopd.tif,66,0.0666666666666667,0.0666666666666667,1.66666666666667,13307.435322792,13308.423856084,13,13307.496978667,13307.558085709,13308.443242209,13310.10329825,0,0.988533292000284
127,28,13,categorization,0,bathroom,SHINEd_sun_ahaulkltgpkeeemi.tif,26,0.0666666666666667,0.0666666666666667,1.18333333333333,13310.121035792,13311.1109315,13,13310.187879334,13310.254390917,13311.126606459,13312.303312584,1,0.989895707998585
127,29,13,categorization,0,kitchen,SHINEd_sun_aypmqwcualkenuoe.tif,109,0.0666666666666667,0.0666666666666667,1.58333333333333,13312.3123185,13313.043244875,9,13312.377094042,13312.444239959,13313.06713325,13314.643849292,1,0.730926374999399
127,30,13,categorization,0,kitchen,SHINEd_sun_afuyedyxivkhecmu.tif,85,0.0666666666666667,0.0666666666666667,1.1,13314.660777292,13315.244797084,13,13314.727108834,13314.794134125,13315.267220084,13316.36059075,0,0.584019792000618
127,31,13,categorization,0,kitchen,SHINEd_sun_aaxxjlsuzvqlgylf.tif,68,0.0666666666666667,0.0666666666666667,1.78333333333333,13316.369564459,13316.955898875,9,13316.434311334,13316.500314167,13316.972856917,13318.74957925,1,0.586334415998863
127,32,13,categorization,0,kitchen,SHINEd_sun_aenotlpyftoioydp.tif,82,0.0666666666666667,0.0666666666666667,1.78333333333333,13318.766856375,13319.420732167,13,13318.833222375,13318.900544459,13319.440972459,13321.21769225,0,0.65387579200069
127,33,13,categorization,0,kitchen,SHINEd_sun_abdenxonkemggwsq.tif,69,0.0666666666666667,0.0666666666666667,1.08333333333333,13321.235503917,13322.052119292,13,13321.302116875,13321.369658875,13322.076458625,13323.153163542,0,0.816615375000765
127,34,13,categorization,0,bathroom,SHINEd_sun_aggnnqpdorgxpvce.tif,21,0.0666666666666667,0.0666666666666667,1.66666666666667,13323.165017375,13323.920943375,9,13323.230146459,13323.29722525,13323.936932,13325.596983667,0,0.755925999999818
127,35,13,categorization,0,bathroom,SHINEd_sun_afcoljnjfoxjtgja.tif,20,0.0666666666666667,0.0666666666666667,1.58333333333333,13325.615833792,13326.202857959,9,13325.6826665,13325.749651709,13326.222802459,13327.799524875,0,0.587024166999981
127,36,13,categorization,0,bathroom,SHINEd_sun_aleqenyvunhactkl.tif,32,0.0666666666666667,0.0666666666666667,1.26666666666667,13327.818032875,13328.682214792,13,13327.884751042,13327.95184025,13328.708770042,13329.968809959,1,0.864181916998859
127,37,13,categorization,0,bathroom,SHINEd_sun_apeeialkgkuxddgh.tif,42,0.0666666666666667,0.0666666666666667,0.966666666666667,13329.986815875,13330.571435084,9,13330.053764667,13330.120937042,13330.594770084,13331.554800667,0,0.584619209001175
127,38,13,categorization,0,kitchen,SHINEd_sun_acwjdupvyjsugpay.tif,76,0.0666666666666667,0.0666666666666667,0.9,13331.572428625,13332.127957875,13,13331.639664417,13331.706769959,13332.142643,13333.03598375,0,0.555529249999381
127,39,13,categorization,0,kitchen,SHINEd_sun_agzzivivdpnawacl.tif,89,0.0666666666666667,0.0666666666666667,1.46666666666667,13333.041820417,13333.663737459,9,13333.103447792,13333.164694667,13333.683718334,13335.143757042,1,0.621917041999041
127,40,13,categorization,0,kitchen,SHINEd_sun_ajcbwwvdlsvjyzje.tif,96,0.0666666666666667,0.0666666666666667,1.5,13335.16161075,13335.635834834,13,13335.227805084,13335.294893334,13335.650423125,13337.143792542,0,0.474224084000525
127,41,13,categorization,0,kitchen,SHINEd_sun_axyyrmzcupyhlivc.tif,107,0.0666666666666667,0.0666666666666667,0.716666666666667,13337.162007292,13337.6876295,9,13337.2283505,13337.296270125,13337.702030334,13338.412081875,1,0.525622208000641
127,42,13,categorization,0,kitchen,SHINEd_sun_ahspylgoovwmwvgk.tif,93,0.0666666666666667,0.0666666666666667,1.5,13338.421621667,13338.975593084,13,13338.486641917,13338.55551025,13338.991563792,13340.484946292,0,0.553971417000866
127,43,13,categorization,0,bathroom,SHINEd_sun_amzlamotzwfkwjco.tif,37,0.0666666666666667,0.0666666666666667,0.866666666666667,13340.495322667,13340.990720542,9,13340.561656709,13340.629067584,13341.018976792,13341.879023834,0,0.495397874999981
127,44,13,categorization,0,bathroom,SHINEd_sun_anryaplzeujmzfkd.tif,39,0.0666666666666667,0.0666666666666667,0.933333333333333,13341.894816584,13342.416131917,9,13341.961083667,13342.028316042,13342.430129917,13343.356803167,0,0.52131533300053
127,45,13,categorization,0,bathroom,SHINEd_sun_abjtwfukuwddzted.tif,15,0.0666666666666667,0.0666666666666667,1.55,13343.36438875,13344.152165875,9,13343.426081834,13343.4872665,13344.155925875,13345.699314125,0,0.787777125000503
127,46,13,categorization,0,bathroom,SHINEd_sun_apjevzvycyhuqghb.tif,43,0.0666666666666667,0.0666666666666667,1.3,13345.71594125,13346.399798959,13,13345.782231125,13345.849852167,13346.421546542,13347.714930209,1,0.683857709000222
127,47,13,categorization,0,kitchen,SHINEd_sun_ahljzhgcdpomplvg.tif,91,0.0666666666666667,0.0666666666666667,1.78333333333333,13347.728207209,13348.560117334,9,13347.794451084,13347.861526167,13348.584962417,13350.361658625,1,0.831910124999922
127,48,13,categorization,0,kitchen,SHINEd_sun_acfmftudsenhrfhy.tif,74,0.0666666666666667,0.0666666666666667,1.8,13350.370862125,13351.236716584,9,13350.435653625,13350.503245709,13351.259913667,13353.053300167,1,0.86585445899982
127,49,13,categorization,0,bathroom,SHINEd_sun_apkxzenqapsujocq.tif,45,0.0666666666666667,0.0666666666666667,0.816666666666667,13353.07108375,13353.859927792,13,13353.137790125,13353.204679375,13353.877225542,13354.687231792,1,0.788844042001074
127,50,13,categorization,0,bathroom,SHINEd_sun_aunuadmjocsddsrl.tif,52,0.0666666666666667,0.0666666666666667,0.966666666666667,13354.69266825,13355.664582334,13,13354.754267959,13354.815525584,13355.684398375,13356.644403167,1,0.971914084000673
