sub_num,trial,block,task,is_practice,category,image,texture,duration,mask_dur,jitter,stim_time,time_of_resp,trial_response,mask_time,fix_time,jit_onset,trial_end,trial_accuracy,RT
127,1,0,categorization,1,bathroom,SHINEd_bathroom_practice3.tif,113,0.0666666666666667,0.0666666666666667,1.21666666666667,11737.059754,11740.078154834,13,11737.125815834,11737.185669459,11740.107631209,11741.318393667,1,3.0184008340002
127,2,0,categorization,1,kitchen,SHINEd_kitchen_practice2.tif,117,0.0666666666666667,0.0666666666666667,1.36666666666667,11741.356653834,11742.529449792,13,11741.429607375,11741.495279459,11742.571265209,11743.931454834,0,1.17279595800028
127,3,0,categorization,1,kitchen,SHINEd_kitchen_practice5.tif,120,0.0666666666666667,0.0666666666666667,1.85,11743.977318459,11745.053461792,13,11744.049268084,11744.109009709,11745.084013625,11746.92739475,0,1.0761433330008
127,4,0,categorization,1,kitchen,SHINEd_kitchen_practice3.tif,118,0.0666666666666667,0.0666666666666667,1.55,11746.950215125,11747.806591667,13,11747.017807584,11747.08423625,11747.823780542,11749.367300167,0,0.856376542000362
127,5,0,categorization,1,bathroom,SHINEd_bathroom_practice5.tif,115,0.0666666666666667,0.0666666666666667,1.48333333333333,11749.385948709,11750.489105875,13,11749.452416625,11749.520643875,11750.508921,11751.985636625,1,1.10315716600053
127,6,0,categorization,1,kitchen,SHINEd_kitchen_practice4.tif,119,0.0666666666666667,0.0666666666666667,1.15,11752.008063167,11752.944196542,13,11752.075317125,11752.142003584,11752.966270334,11754.109649667,0,0.936133374998462
127,7,0,categorization,1,bathroom,SHINEd_bathroom_practice2.tif,112,0.0666666666666667,0.0666666666666667,0.733333333333333,11754.122204542,11755.493971792,13,11754.18964625,11754.256071959,11755.514494834,11756.241166292,1,1.37176725000063
127,8,0,categorization,1,bathroom,SHINEd_bathroom_practice4.tif,114,0.0666666666666667,0.0666666666666667,1.6,11756.247146625,11756.870597625,9,11756.309002959,11756.370217625,11756.888701625,11758.48222325,0,0.623450999999477
127,9,0,categorization,1,bathroom,SHINEd_bathroom_practice1.tif,111,0.0666666666666667,0.0666666666666667,0.716666666666667,11758.492827792,11759.3774535,13,11758.55940825,11758.626474459,11759.399593417,11760.109597875,1,0.884625707998566
127,10,0,categorization,1,kitchen,SHINEd_kitchen_practice1.tif,116,0.0666666666666667,0.0666666666666667,1.21666666666667,11760.115560084,11760.757706875,9,11760.177295042,11760.238407792,11760.773671375,11761.983726792,1,0.642146791000414
127,1,0,categorization,1,bathroom,SHINEd_bathroom_practice3.tif,113,0.0666666666666667,0.0666666666666667,1.21666666666667,11779.916511,11780.974277,13,11779.978310042,11780.03937525,11780.991431625,11782.201484542,1,1.0577659999999
127,2,0,categorization,1,kitchen,SHINEd_kitchen_practice2.tif,117,0.0666666666666667,0.0666666666666667,1.36666666666667,11782.2188505,11783.3054165,13,11782.285134709,11782.35231125,11783.325502959,11784.685539125,0,1.08656599999995
127,3,0,categorization,1,kitchen,SHINEd_kitchen_practice5.tif,120,0.0666666666666667,0.0666666666666667,1.85,11784.702014917,11785.750645834,13,11784.768732209,11784.8353735,11785.77557,11787.618937584,0,1.04863091699917
127,4,0,categorization,1,kitchen,SHINEd_kitchen_practice3.tif,118,0.0666666666666667,0.0666666666666667,1.55,11787.636510709,11788.168373125,9,11787.703223,11787.770363417,11788.193554834,11789.7369435,1,0.531862415999058
127,5,0,categorization,1,bathroom,SHINEd_bathroom_practice5.tif,115,0.0666666666666667,0.0666666666666667,1.48333333333333,11789.756668875,11790.417573042,13,11789.823792584,11789.890210459,11790.445341334,11791.922062917,1,0.660904166999899
127,6,0,categorization,1,kitchen,SHINEd_kitchen_practice4.tif,119,0.0666666666666667,0.0666666666666667,1.15,11791.939985709,11792.939932459,13,11792.006581792,11792.07375875,11792.964097959,11794.107485584,0,0.999946750000163
127,7,0,categorization,1,bathroom,SHINEd_bathroom_practice2.tif,112,0.0666666666666667,0.0666666666666667,0.733333333333333,11794.117103084,11794.977414167,13,11794.183456292,11794.250978834,11795.007836375,11795.7345335,1,0.860311083000852
127,8,0,categorization,1,bathroom,SHINEd_bathroom_practice4.tif,114,0.0666666666666667,0.0666666666666667,1.6,11795.751284042,11796.446426125,9,11795.817817167,11795.884768875,11796.453462959,11798.046839667,0,0.695142082999155
127,9,0,categorization,1,bathroom,SHINEd_bathroom_practice1.tif,111,0.0666666666666667,0.0666666666666667,0.716666666666667,11798.064186875,11798.862682625,13,11798.130902792,11798.197725667,11798.888249334,11799.598255375,1,0.798495749999347
127,10,0,categorization,1,kitchen,SHINEd_kitchen_practice1.tif,116,0.0666666666666667,0.0666666666666667,1.21666666666667,11799.605153667,11800.566150209,13,11799.666924125,11799.728036959,11800.579783459,11801.789836959,0,0.96099654200043
127,1,1,categorization,0,bathroom,SHINEd_sun_aunuadmjocsddsrl.tif,52,0.0666666666666667,0.0666666666666667,1.23333333333333,11818.33555375,11819.150396792,13,11818.397564959,11818.458493167,11819.160916834,11820.387616709,1,0.814843042000575
127,2,1,categorization,0,bathroom,SHINEd_sun_aapitsgbtktqubfy.tif,12,0.0666666666666667,0.0666666666666667,0.783333333333333,11820.39619325,11821.297102625,13,11820.460952792,11820.527531834,11821.316952875,11822.093676792,1,0.900909374999173
127,3,1,categorization,0,kitchen,SHINEd_sun_ahpczsiumwwocjkv.tif,92,0.0666666666666667,0.0666666666666667,0.75,11822.109344209,11822.869500375,9,11822.174373542,11822.233038125,11822.884865,11823.628203084,1,0.760156165999433
127,4,1,categorization,0,bathroom,SHINEd_sun_alkosphxlxwjwgjd.tif,34,0.0666666666666667,0.0666666666666667,1.23333333333333,11823.633201292,11824.470051584,13,11823.694773584,11823.756215875,11824.474842084,11825.701563959,1,0.836850292000236
127,5,1,categorization,0,bathroom,SHINEd_sun_ahaulkltgpkeeemi.tif,26,0.0666666666666667,0.0666666666666667,1.13333333333333,11825.719562209,11826.587349459,13,11825.785537667,11825.853098167,11826.609584417,11827.736282959,1,0.86778724999931
127,6,1,categorization,0,bathroom,SHINEd_sun_acduarbnmmoglmiv.tif,16,0.0666666666666667,0.0666666666666667,0.95,11827.749217959,11828.812192084,13,11827.815460584,11827.882751167,11828.838881959,11829.782220292,1,1.06297412499953
127,7,1,categorization,0,bathroom,SHINEd_sun_agrwbmhcpmfuwmsg.tif,24,0.0666666666666667,0.0666666666666667,0.733333333333333,11829.788253542,11830.685535709,9,11829.849988167,11829.911066667,11830.696182375,11831.4228535,0,0.897282167001322
127,8,1,categorization,0,bathroom,SHINEd_sun_ahqjwnzgolcaoidx.tif,29,0.0666666666666667,0.0666666666666667,1.31666666666667,11831.42843875,11832.357654917,13,11831.49010075,11831.5512635,11832.369512,11833.679566792,1,0.92921616700005
127,9,1,categorization,0,bathroom,SHINEd_sun_agguqiubmwhqqunb.tif,22,0.0666666666666667,0.0666666666666667,0.8,11833.694640209,11834.55702625,9,11833.7610765,11833.827934625,11834.584476292,11835.377862292,0,0.862386041000718
127,10,1,categorization,0,bathroom,SHINEd_sun_azqyogdvyhahyram.tif,60,0.0666666666666667,0.0666666666666667,0.716666666666667,11835.388709125,11836.062439417,13,11835.4505985,11835.511613542,11836.080750792,11836.790757625,1,0.673730292000982
127,11,1,categorization,0,bathroom,SHINEd_sun_aljolscmmzydegqp.tif,33,0.0666666666666667,0.0666666666666667,0.916666666666667,11836.796478334,11837.622290625,9,11836.858301542,11836.919446709,11837.638085375,11838.548089792,0,0.825812291001057
127,12,1,categorization,0,kitchen,SHINEd_sun_acgtpgfybqjmzeyw.tif,75,0.0666666666666667,0.0666666666666667,0.95,11838.554010334,11839.205706959,13,11838.615747625,11838.677040209,11839.212654209,11840.155992,0,0.651696624998294
127,13,1,categorization,0,kitchen,SHINEd_labelme_brsyyvweiuaazfr.tif,61,0.0666666666666667,0.0666666666666667,0.833333333333333,11840.161695792,11840.766198334,13,11840.223420792,11840.284577584,11840.770059917,11841.596732459,0,0.604502542000773
127,14,1,categorization,0,bathroom,SHINEd_sun_aspsyogrekjtfozg.tif,50,0.0666666666666667,0.0666666666666667,0.75,11841.601689209,11842.893204084,13,11841.663307709,11841.724485875,11842.910226709,11843.65356475,1,1.29151487500167
127,15,1,categorization,0,kitchen,SHINEd_sun_abrcnpqqhmjwekyf.tif,73,0.0666666666666667,0.0666666666666667,1.53333333333333,11843.658134875,11844.485981917,13,11843.719786959,11843.780914667,11844.499354042,11846.026075875,0,0.827847041999121
127,16,1,categorization,0,kitchen,SHINEd_sun_ajkqhtgcbgpcwrwn.tif,97,0.0666666666666667,0.0666666666666667,1.05,11846.04294975,11846.717433959,9,11846.109212042,11846.176086792,11846.731533375,11847.774917667,1,0.674484208999274
127,17,1,categorization,0,kitchen,SHINEd_sun_aadbddgrdsjugojn.tif,64,0.0666666666666667,0.0666666666666667,0.9,11847.788499,11848.488636792,9,11847.853436334,11847.919211834,11848.507799792,11849.401184667,1,0.700137792000532
127,18,1,categorization,0,bathroom,SHINEd_sun_aghyqhbptboemmoq.tif,23,0.0666666666666667,0.0666666666666667,1.18333333333333,11849.417344584,11850.198333459,9,11849.483675959,11849.551079459,11850.203547542,11851.380266959,0,0.780988874999821
127,19,1,categorization,0,kitchen,SHINEd_sun_aypmqwcualkenuoe.tif,109,0.0666666666666667,0.0666666666666667,0.9,11851.390098209,11852.076897875,13,11851.456953084,11851.523863917,11852.096874167,11852.990249292,0,0.686799666000297
127,20,1,categorization,0,bathroom,SHINEd_sun_aavhrsfjbserjtht.tif,13,0.0666666666666667,0.0666666666666667,1.66666666666667,11853.006449959,11853.630418834,13,11853.073238792,11853.140310875,11853.642650834,11855.302682292,1,0.623968874999264
127,21,1,categorization,0,kitchen,SHINEd_sun_axyyrmzcupyhlivc.tif,107,0.0666666666666667,0.0666666666666667,1.13333333333333,11855.319712834,11855.974846875,13,11855.386834917,11855.453247,11855.992626084,11857.119335084,0,0.655134041000565
127,22,1,categorization,0,kitchen,SHINEd_sun_acwjdupvyjsugpay.tif,76,0.0666666666666667,0.0666666666666667,1.3,11857.129750417,11858.464550417,13,11857.19492175,11857.263652084,11858.487470834,11859.780849459,0,1.33480000000054
127,23,1,categorization,0,bathroom,SHINEd_sun_asfwthctfqerjvxr.tif,49,0.0666666666666667,0.0666666666666667,1.93333333333333,11859.797834292,11861.188077167,13,11859.864792042,11859.931891292,11861.208294959,11863.134993709,1,1.39024287500069
127,24,1,categorization,0,bathroom,SHINEd_sun_apmqjbnwghzuhhzh.tif,46,0.0666666666666667,0.0666666666666667,1,11863.15415275,11864.589463417,13,11863.221208417,11863.288027875,11864.606910375,11865.600249542,1,1.43531066700052
127,25,1,categorization,0,bathroom,SHINEd_sun_ambriybtogmepttm.tif,36,0.0666666666666667,0.0666666666666667,0.883333333333333,11865.605707334,11866.389508917,9,11865.667535375,11865.728619834,11866.396907209,11867.273580209,0,0.78380158300024
127,26,1,categorization,0,kitchen,SHINEd_sun_aymvwlarqodbwuoc.tif,108,0.0666666666666667,0.0666666666666667,1.95,11867.279265542,11868.31730425,9,11867.340949792,11867.402344959,11868.32110975,11870.264474625,1,1.03803870800039
127,27,1,categorization,0,kitchen,SHINEd_sun_acfmftudsenhrfhy.tif,74,0.0666666666666667,0.0666666666666667,1.25,11870.281393209,11871.989290084,13,11870.347753167,11870.413774417,11872.000108584,11873.24347525,0,1.7078968750011
127,28,1,categorization,0,bathroom,SHINEd_sun_anhioqovhscjqqwb.tif,38,0.0666666666666667,0.0666666666666667,1.95,11873.261921375,11874.45681325,13,11873.328842792,11873.395859667,11874.484423334,11876.427795417,1,1.19489187500039
127,29,1,categorization,0,bathroom,SHINEd_sun_awnqiikzaispgmwo.tif,56,0.0666666666666667,0.0666666666666667,1.91666666666667,11876.438715917,11877.235285375,9,11876.503214709,11876.570151542,11877.260274709,11879.170312042,0,0.796569457999794
127,30,1,categorization,0,kitchen,SHINEd_sun_admlmbcdswaszruo.tif,79,0.0666666666666667,0.0666666666666667,1.41666666666667,11879.18946875,11879.968646042,9,11879.256755167,11879.323315,11879.997231209,11881.407271667,1,0.779177291999076
127,31,1,categorization,0,bathroom,SHINEd_sun_akiytfaagpdsphgz.tif,31,0.0666666666666667,0.0666666666666667,0.716666666666667,11881.425102209,11882.340024167,9,11881.492419709,11881.55936,11882.364370417,11883.074422625,0,0.914921958001287
127,32,1,categorization,0,kitchen,SHINEd_sun_azmutvzbxypaceni.tif,110,0.0666666666666667,0.0666666666666667,1.28333333333333,11883.091584667,11884.149295292,9,11883.15435125,11883.214536959,11884.16714275,11885.443850375,1,1.05771062500025
127,33,1,categorization,0,kitchen,SHINEd_sun_adgqasybjyktddhj.tif,78,0.0666666666666667,0.0666666666666667,0.9,11885.461292959,11886.454739459,9,11885.528381292,11885.596366917,11886.467476459,11887.36081425,1,0.993446500000573
127,34,1,categorization,0,kitchen,SHINEd_sun_abdenxonkemggwsq.tif,69,0.0666666666666667,0.0666666666666667,0.8,11887.366761834,11888.221743917,9,11887.428519792,11887.489622834,11888.241404584,11889.034744167,1,0.854982082999413
127,35,1,categorization,0,kitchen,SHINEd_sun_agzzivivdpnawacl.tif,89,0.0666666666666667,0.0666666666666667,1.01666666666667,11889.040388959,11889.733269209,9,11889.10210525,11889.163215875,11889.748607167,11890.758662917,1,0.692880250000599
127,36,1,categorization,0,kitchen,SHINEd_sun_awcpdzzznmweyyhv.tif,106,0.0666666666666667,0.0666666666666667,0.85,11890.768352959,11891.896297292,9,11890.833133292,11890.900390209,11891.92360625,11892.766979417,1,1.12794433300041
127,37,1,categorization,0,kitchen,SHINEd_sun_abftihopvusyfakt.tif,71,0.0666666666666667,0.0666666666666667,1.51666666666667,11892.782220334,11893.605371834,9,11892.844850625,11892.90513875,11893.623703334,11895.133752334,1,0.823151500000677
127,38,1,categorization,0,kitchen,SHINEd_sun_ahdycvpopffkzzsu.tif,90,0.0666666666666667,0.0666666666666667,1.83333333333333,11895.1484265,11895.955010542,13,11895.214992792,11895.281734709,11895.970559917,11897.797265792,0,0.806584042000395
127,39,1,categorization,0,kitchen,SHINEd_sun_aegoxogugdkwpmpj.tif,80,0.0666666666666667,0.0666666666666667,0.716666666666667,11897.810884459,11898.634620375,9,11897.8777055,11897.944693459,11898.650690542,11899.360695334,1,0.82373591599935
127,40,1,categorization,0,bathroom,SHINEd_sun_aofnryafpsjimzsb.tif,40,0.0666666666666667,0.0666666666666667,0.9,11899.366608417,11900.045054584,9,11899.42828175,11899.489520667,11900.05838325,11900.951722542,0,0.678446166999493
127,41,1,categorization,0,kitchen,SHINEd_sun_abdxkyyxwfskuaqb.tif,70,0.0666666666666667,0.0666666666666667,0.916666666666667,11900.957479834,11901.598241917,9,11901.019230417,11901.080602584,11901.615622917,11902.525626667,1,0.640762082999572
127,42,1,categorization,0,bathroom,SHINEd_sun_apjevzvycyhuqghb.tif,43,0.0666666666666667,0.0666666666666667,0.816666666666667,11902.531187792,11903.1171675,9,11902.5928485,11902.654246709,11903.122909667,11903.932914167,0,0.585979708001105
127,43,1,categorization,0,bathroom,SHINEd_sun_avhrdrntsqrjzccq.tif,55,0.0666666666666667,0.0666666666666667,1.88333333333333,11903.938542667,11904.50915125,9,11904.000157334,11904.061507542,11904.513320084,11906.390015459,0,0.570608583000649
127,44,1,categorization,0,bathroom,SHINEd_sun_ausgutylgojavyoq.tif,53,0.0666666666666667,0.0666666666666667,0.9,11906.399648959,11907.518399625,13,11906.464621,11906.533250375,11907.539505667,11908.432842625,1,1.11875066599896
127,45,1,categorization,0,kitchen,SHINEd_sun_aqeaevwwwjoqhzvl.tif,101,0.0666666666666667,0.0666666666666667,1,11908.43739125,11909.237614209,13,11908.499157834,11908.56026725,11909.245360959,11910.238699,0,0.800222959000166
127,46,1,categorization,0,kitchen,SHINEd_sun_akchetnepxlcxhsu.tif,98,0.0666666666666667,0.0666666666666667,0.733333333333333,11910.244311625,11910.934103584,13,11910.305861792,11910.367223084,11910.95259575,11911.679268209,0,0.689791959001013
127,47,1,categorization,0,bathroom,SHINEd_sun_aqrpegblszgcoujh.tif,48,0.0666666666666667,0.0666666666666667,0.883333333333333,11911.684931542,11912.581417209,9,11911.74655175,11911.807894334,11912.593115084,11913.4697885,0,0.89648566699907
127,48,1,categorization,0,kitchen,SHINEd_sun_aamedkxepzlwuxes.tif,65,0.0666666666666667,0.0666666666666667,1.73333333333333,11913.475541417,11914.261718834,13,11913.537169875,11913.598353292,11914.267471167,11915.994175459,0,0.786177416999635
127,49,1,categorization,0,bathroom,SHINEd_sun_acegryoqftbzowsg.tif,17,0.0666666666666667,0.0666666666666667,1.91666666666667,11916.012432125,11916.607839125,9,11916.079423667,11916.146764459,11916.636688542,11918.546742417,0,0.595406999998886
127,50,1,categorization,0,bathroom,SHINEd_sun_ahcvzmoyaycdoftf.tif,27,0.0666666666666667,0.0666666666666667,1.35,11918.565016084,11919.238135042,9,11918.63166275,11918.699444709,11919.2547315,11920.598107417,0,0.673118958000487
127,1,2,categorization,0,kitchen,SHINEd_sun_ahywdevtimnqcsln.tif,94,0.0666666666666667,0.0666666666666667,0.95,11932.855106167,11933.597629667,13,11932.917770667,11932.978066292,11933.613319209,11934.5566565,0,0.742523499999152
127,2,2,categorization,0,bathroom,SHINEd_sun_afcoljnjfoxjtgja.tif,20,0.0666666666666667,0.0666666666666667,0.75,11934.562087042,11935.405150709,9,11934.6237655,11934.685073917,11935.420135459,11936.163474625,0,0.843063667000024
127,3,2,categorization,0,bathroom,SHINEd_sun_amzlamotzwfkwjco.tif,37,0.0666666666666667,0.0666666666666667,1.68333333333333,11936.171020167,11937.061988667,13,11936.232755875,11936.293782917,11937.07961975,11938.7563425,1,0.890968499999872
127,4,2,categorization,0,bathroom,SHINEd_sun_atstyziqcmkahyxk.tif,51,0.0666666666666667,0.0666666666666667,0.816666666666667,11938.774017584,11939.601794292,13,11938.840899542,11938.907818125,11939.631301709,11940.441307209,1,0.827776707999874
127,5,2,categorization,0,kitchen,SHINEd_sun_aeqdocilnnpuvuhx.tif,83,0.0666666666666667,0.0666666666666667,0.916666666666667,11940.446302917,11941.349256917,9,11940.507971209,11940.569386334,11941.354841542,11942.264845834,1,0.902953999999227
127,6,2,categorization,0,kitchen,SHINEd_sun_acxkpeoqbwcxfvip.tif,77,0.0666666666666667,0.0666666666666667,1.21666666666667,11942.271173584,11943.293149709,13,11942.332812917,11942.394062459,11943.312517917,11944.522574375,0,1.02197612499913
127,7,2,categorization,0,kitchen,SHINEd_sun_ajcbwwvdlsvjyzje.tif,96,0.0666666666666667,0.0666666666666667,0.9,11944.531538542,11945.344099209,13,11944.59847675,11944.666369917,11945.372856834,11946.266228459,0,0.812560667000071
127,8,2,categorization,0,kitchen,SHINEd_sun_aarfiyshqohlwkmo.tif,67,0.0666666666666667,0.0666666666666667,1.65,11946.282559417,11947.149780625,13,11946.349373584,11946.414764084,11947.167020042,11948.810406375,0,0.867221208000046
127,9,2,categorization,0,bathroom,SHINEd_labelme_sfxiulhjbhlyiyt.tif,11,0.0666666666666667,0.0666666666666667,1.15,11948.826978334,11949.588032,13,11948.893947375,11948.960811959,11949.61754775,11950.760925167,1,0.761053665999498
127,10,2,categorization,0,kitchen,SHINEd_labelme_rykdqxenmhulbdn.tif,63,0.0666666666666667,0.0666666666666667,1.13333333333333,11950.771193959,11951.412568209,9,11950.8387645,11950.905324959,11951.427417375,11952.5541275,1,0.641374249998989
127,11,2,categorization,0,bathroom,SHINEd_sun_abjtwfukuwddzted.tif,15,0.0666666666666667,0.0666666666666667,1.76666666666667,11952.572507584,11953.301798209,9,11952.639305709,11952.706806459,11953.3086085,11955.068683167,0,0.729290625000431
127,12,2,categorization,0,bathroom,SHINEd_sun_apynckhmoftszqoq.tif,47,0.0666666666666667,0.0666666666666667,1.8,11955.085578959,11955.857568834,13,11955.152409584,11955.21968225,11955.875922959,11957.66930025,1,0.771989875000145
127,13,2,categorization,0,bathroom,SHINEd_sun_apeeialkgkuxddgh.tif,42,0.0666666666666667,0.0666666666666667,0.9,11957.686539792,11958.334275667,13,11957.753350709,11957.820589625,11958.361018,11959.254358625,1,0.647735875001672
127,14,2,categorization,0,bathroom,SHINEd_sun_ajlawzvmubibwbpy.tif,30,0.0666666666666667,0.0666666666666667,0.716666666666667,11959.259964042,11959.909618334,13,11959.321939834,11959.382900709,11959.918279209,11960.62828525,1,0.649654292001287
127,15,2,categorization,0,bathroom,SHINEd_sun_apkruvsevgegsdwp.tif,44,0.0666666666666667,0.0666666666666667,1.36666666666667,11960.633434959,11961.292888792,13,11960.695155709,11960.756470292,11961.3087495,11962.66879725,1,0.659453833000953
127,16,2,categorization,0,kitchen,SHINEd_sun_aixorpehvfykdynp.tif,95,0.0666666666666667,0.0666666666666667,0.916666666666667,11962.686065959,11963.237983709,13,11962.753004,11962.819936334,11963.259693375,11964.169744209,0,0.55191774999912
127,17,2,categorization,0,bathroom,SHINEd_sun_agyqfjcfkdcydepw.tif,25,0.0666666666666667,0.0666666666666667,0.716666666666667,11964.1859575,11964.94183125,13,11964.252327584,11964.319568667,11964.955537125,11965.665542792,1,0.755873750000319
127,18,2,categorization,0,kitchen,SHINEd_sun_auaiucuqpdausiva.tif,102,0.0666666666666667,0.0666666666666667,0.766666666666667,11965.671221542,11966.253936542,13,11965.732868542,11965.7940595,11966.262951542,11967.022956084,0,0.582715000000462
127,19,2,categorization,0,bathroom,SHINEd_sun_aclfzgynxzxlbepz.tif,19,0.0666666666666667,0.0666666666666667,1.06666666666667,11967.028645375,11967.941381709,13,11967.090288875,11967.151643042,11967.9538805,11969.013919875,1,0.912736334001238
127,20,2,categorization,0,bathroom,SHINEd_sun_alotolagknyrgtsk.tif,35,0.0666666666666667,0.0666666666666667,0.8,11969.023283334,11969.800551667,9,11969.088770334,11969.156018,11969.8293025,11970.622670917,0,0.777268333000393
127,21,2,categorization,0,kitchen,SHINEd_sun_avszsnwsbuqfgzbn.tif,105,0.0666666666666667,0.0666666666666667,0.866666666666667,11970.639195584,11971.341848709,9,11970.705751709,11970.772917334,11971.358267167,11972.218273,1,0.702653124999415
127,22,2,categorization,0,kitchen,SHINEd_sun_ahljzhgcdpomplvg.tif,91,0.0666666666666667,0.0666666666666667,1.48333333333333,11972.224066542,11972.805486042,9,11972.2856685,11972.346980667,11972.815793417,11974.292512542,1,0.581419500000266
127,23,2,categorization,0,kitchen,SHINEd_sun_aexklacwqwezaorf.tif,84,0.0666666666666667,0.0666666666666667,1.1,11974.308334667,11974.914462167,9,11974.372806792,11974.44049775,11974.929297292,11976.022683667,1,0.606127500001094
127,24,2,categorization,0,kitchen,SHINEd_sun_aapllqyqlykszopd.tif,66,0.0666666666666667,0.0666666666666667,0.783333333333333,11976.032278834,11976.523128417,9,11976.098732084,11976.165663209,11976.538127875,11977.314852209,1,0.490849583000454
127,25,2,categorization,0,kitchen,SHINEd_sun_aenotlpyftoioydp.tif,82,0.0666666666666667,0.0666666666666667,0.866666666666667,11977.330616584,11978.077922875,9,11977.397026334,11977.464416459,11978.083396584,11978.94340275,1,0.747306290999404
127,26,2,categorization,0,kitchen,SHINEd_labelme_kxvouciolcpqplr.tif,62,0.0666666666666667,0.0666666666666667,1.83333333333333,11978.949170875,11979.564709459,9,11979.010789917,11979.072062167,11979.573935917,11981.400646875,1,0.615538584001115
127,27,2,categorization,0,kitchen,SHINEd_sun_aaxxjlsuzvqlgylf.tif,68,0.0666666666666667,0.0666666666666667,0.7,11981.419082292,11982.168795209,13,11981.485683584,11981.553052375,11982.193137209,11982.886477042,0,0.74971291699876
127,28,2,categorization,0,kitchen,SHINEd_sun_ahspylgoovwmwvgk.tif,93,0.0666666666666667,0.0666666666666667,1.33333333333333,11982.892373459,11983.492986417,9,11982.954002209,11983.015273125,11983.500585834,11984.827308417,1,0.600612958000056
127,29,2,categorization,0,bathroom,SHINEd_sun_acgyywnybuveqsro.tif,18,0.0666666666666667,0.0666666666666667,1.33333333333333,11984.844924375,11985.856589667,9,11984.9115865,11984.978730334,11985.885263834,11987.211988,0,1.01166529200054
127,30,2,categorization,0,kitchen,SHINEd_sun_abpwyqmlzafvklqo.tif,72,0.0666666666666667,0.0666666666666667,1.38333333333333,11987.229945459,11988.159331042,9,11987.296892834,11987.363729667,11988.187229084,11989.563940209,1,0.929385583000112
127,31,2,categorization,0,bathroom,SHINEd_sun_axxbkopsgyouuebh.tif,58,0.0666666666666667,0.0666666666666667,1.25,11989.581591375,11990.37596425,13,11989.648604292,11989.715574375,11990.404059125,11991.647437,1,0.7943728750015
127,32,2,categorization,0,kitchen,SHINEd_sun_aunzlwrbjumxhwdj.tif,103,0.0666666666666667,0.0666666666666667,1.55,11991.6627515,11992.897652917,9,11991.729617,11991.796401917,11992.922416209,11994.465788167,1,1.23490141699949
127,33,2,categorization,0,bathroom,SHINEd_sun_abapwbhyhkfixyex.tif,14,0.0666666666666667,0.0666666666666667,1.61666666666667,11994.477258667,11995.299802959,9,11994.544457459,11994.611237959,11995.317367667,11996.927409834,0,0.822544291999293
127,34,2,categorization,0,bathroom,SHINEd_sun_anryaplzeujmzfkd.tif,39,0.0666666666666667,0.0666666666666667,1.33333333333333,11996.945847792,11998.20643825,9,11997.012784,11997.079518209,11998.239529375,11999.566252667,0,1.26059045799957
127,35,2,categorization,0,kitchen,SHINEd_sun_auticobqsbwgoppi.tif,104,0.0666666666666667,0.0666666666666667,0.833333333333333,11999.583475417,12000.397911917,9,11999.650684834,11999.717247709,12000.422919209,12001.249643584,1,0.814436500000738
127,36,2,categorization,0,kitchen,SHINEd_sun_agubuxuukhzyzpdp.tif,88,0.0666666666666667,0.0666666666666667,1.45,12001.266590959,12002.069863084,13,12001.331304,12001.390826667,12002.075732959,12003.51910825,0,0.803272125000149
127,37,2,categorization,0,kitchen,SHINEd_sun_aggjlwcdjsjcaemh.tif,86,0.0666666666666667,0.0666666666666667,0.933333333333333,12003.538549042,12004.186859334,13,12003.605604209,12003.672115875,12004.212722042,12005.139394459,0,0.648310292001042
127,38,2,categorization,0,bathroom,SHINEd_sun_auzqhkafidnkrwmo.tif,54,0.0666666666666667,0.0666666666666667,1.65,12005.14554375,12005.901471709,9,12005.207234167,12005.268506209,12005.920862584,12007.564229334,0,0.755927958998655
127,39,2,categorization,0,kitchen,SHINEd_sun_amjjdeyrggfqgmom.tif,100,0.0666666666666667,0.0666666666666667,1.23333333333333,12007.581114667,12008.394625084,9,12007.647648917,12007.715230292,12008.419325667,12009.64602875,1,0.813510416999634
127,40,2,categorization,0,kitchen,SHINEd_sun_akcjzhbbjlbogpdi.tif,99,0.0666666666666667,0.0666666666666667,0.766666666666667,12009.663853584,12010.626185792,9,12009.729133375,12009.797179875,12010.654277167,12011.414322834,1,0.962332208000589
127,41,2,categorization,0,bathroom,SHINEd_sun_apkxzenqapsujocq.tif,45,0.0666666666666667,0.0666666666666667,1.78333333333333,12011.429911709,12012.517790167,9,12011.496521792,12011.554690834,12012.523183,12014.299900334,0,1.08787845799998
127,42,2,categorization,0,bathroom,SHINEd_sun_aggnnqpdorgxpvce.tif,21,0.0666666666666667,0.0666666666666667,1.11666666666667,12014.317218917,12015.082555625,9,12014.381861542,12014.449727959,12015.105966667,12016.216025084,0,0.765336708000177
127,43,2,categorization,0,bathroom,SHINEd_sun_ahijqszoswveeyji.tif,28,0.0666666666666667,0.0666666666666667,1.85,12016.224923792,12016.963893875,9,12016.2902055,12016.35760875,12016.979893334,12018.823265125,0,0.738970082999003
127,44,2,categorization,0,bathroom,SHINEd_sun_aleqenyvunhactkl.tif,32,0.0666666666666667,0.0666666666666667,0.733333333333333,12018.841218667,12019.708146917,13,12018.907682042,12018.97512975,12019.731657417,12020.458327625,1,0.866928250001365
127,45,2,categorization,0,kitchen,SHINEd_sun_afuyedyxivkhecmu.tif,85,0.0666666666666667,0.0666666666666667,0.783333333333333,12020.463433209,12021.3890045,9,12020.525077584,12020.586375625,12021.405439459,12022.182111,1,0.925571290999869
127,46,2,categorization,0,bathroom,SHINEd_sun_axldvoqbuvuggfmq.tif,57,0.0666666666666667,0.0666666666666667,1.5,12022.18768875,12023.085308084,13,12022.249414792,12022.310527292,12023.095934875,12024.589320334,1,0.89761933400041
127,47,2,categorization,0,bathroom,SHINEd_sun_aoybiabnpadelefl.tif,41,0.0666666666666667,0.0666666666666667,0.733333333333333,12024.607867,12025.285996709,9,12024.674425,12024.741370042,12025.3147575,12026.041480042,0,0.678129709000132
127,48,2,categorization,0,kitchen,SHINEd_sun_agorklincwxrdtga.tif,87,0.0666666666666667,0.0666666666666667,1.1,12026.057668084,12027.269783625,13,12026.122089584,12026.18098925,12027.283199875,12028.37656825,0,1.21211554100046
127,49,2,categorization,0,kitchen,SHINEd_sun_aehawpgmrlhlvcow.tif,81,0.0666666666666667,0.0666666666666667,1.6,12028.384692625,12029.085146,9,12028.448957292,12028.516702209,12029.106156584,12030.699527334,1,0.700453374998688
127,50,2,categorization,0,bathroom,SHINEd_sun_axyrejkiiaqiurjk.tif,59,0.0666666666666667,0.0666666666666667,1.06666666666667,12030.717045375,12031.435328917,9,12030.782314584,12030.8508335,12031.45696275,12032.51700825,0,0.718283541998971
127,1,3,categorization,0,bathroom,SHINEd_sun_apeeialkgkuxddgh.tif,42,0.0666666666666667,0.0666666666666667,0.85,12043.638268709,12044.51757225,13,12043.700914375,12043.761195625,12044.529668542,12045.373006542,1,0.879303540999899
127,2,3,categorization,0,bathroom,SHINEd_sun_ahqjwnzgolcaoidx.tif,29,0.0666666666666667,0.0666666666666667,1.65,12045.3787975,12046.333652,13,12045.440504,12045.501672167,12046.3540915,12047.9974595,1,0.954854499999783
127,3,3,categorization,0,kitchen,SHINEd_sun_aarfiyshqohlwkmo.tif,67,0.0666666666666667,0.0666666666666667,0.783333333333333,12048.01580975,12048.701960917,9,12048.082696709,12048.149758709,12048.722103042,12049.498778542,1,0.68615116699948
127,4,3,categorization,0,kitchen,SHINEd_sun_abrcnpqqhmjwekyf.tif,73,0.0666666666666667,0.0666666666666667,0.933333333333333,12049.505535125,12050.133639167,13,12049.567194959,12049.628389042,12050.14710175,12051.073773125,0,0.628104041999904
127,5,3,categorization,0,bathroom,SHINEd_sun_awnqiikzaispgmwo.tif,56,0.0666666666666667,0.0666666666666667,0.866666666666667,12051.079489209,12051.693444,13,12051.141085625,12051.202314125,12051.704479542,12052.56448275,1,0.613954791000651
127,6,3,categorization,0,kitchen,SHINEd_sun_aunzlwrbjumxhwdj.tif,103,0.0666666666666667,0.0666666666666667,1.11666666666667,12052.570668417,12053.253012584,13,12052.632393875,12052.69367925,12053.262661625,12054.372693292,0,0.682344167000338
127,7,3,categorization,0,kitchen,SHINEd_sun_aaxxjlsuzvqlgylf.tif,68,0.0666666666666667,0.0666666666666667,0.966666666666667,12054.381941834,12055.053710459,9,12054.445786667,12054.513911209,12055.069459834,12056.029512375,1,0.671768624999459
127,8,3,categorization,0,kitchen,SHINEd_sun_abpwyqmlzafvklqo.tif,72,0.0666666666666667,0.0666666666666667,1.78333333333333,12056.045782542,12057.092698167,9,12056.112077917,12056.179112042,12057.098432042,12058.8751365,1,1.04691562500011
127,9,3,categorization,0,kitchen,SHINEd_sun_aehawpgmrlhlvcow.tif,81,0.0666666666666667,0.0666666666666667,1.55,12058.89203675,12059.72481625,9,12058.958780417,12059.025997834,12059.749154459,12061.292540417,1,0.83277950000047
127,10,3,categorization,0,kitchen,SHINEd_sun_agorklincwxrdtga.tif,87,0.0666666666666667,0.0666666666666667,1.41666666666667,12061.310049375,12062.102652584,13,12061.376735209,12061.444109042,12062.134563167,12063.54459775,0,0.792603208999935
127,11,3,categorization,0,bathroom,SHINEd_sun_aapitsgbtktqubfy.tif,12,0.0666666666666667,0.0666666666666667,0.8,12063.563088375,12064.438226584,13,12063.631352584,12063.697241834,12064.451877292,12065.24521975,1,0.875138208999488
127,12,3,categorization,0,bathroom,SHINEd_sun_atstyziqcmkahyxk.tif,51,0.0666666666666667,0.0666666666666667,1.28333333333333,12065.251299709,12065.964476667,13,12065.313026084,12065.374228959,12065.976417917,12067.253122792,1,0.713176958000986
127,13,3,categorization,0,bathroom,SHINEd_sun_alotolagknyrgtsk.tif,35,0.0666666666666667,0.0666666666666667,1.66666666666667,12067.271986375,12068.031746375,9,12067.338644584,12067.405954167,12068.062942542,12069.722991709,0,0.759759999999005
127,14,3,categorization,0,kitchen,SHINEd_sun_abdenxonkemggwsq.tif,69,0.0666666666666667,0.0666666666666667,1.81666666666667,12069.740741584,12070.441315875,13,12069.807498459,12069.874849959,12070.463499709,12072.273533167,0,0.700574290998702
127,15,3,categorization,0,kitchen,SHINEd_sun_axyyrmzcupyhlivc.tif,107,0.0666666666666667,0.0666666666666667,1.35,12072.290819834,12073.231517375,13,12072.357728125,12072.421532375,12073.2622455,12074.605633875,0,0.940697541000191
127,16,3,categorization,0,kitchen,SHINEd_sun_aggjlwcdjsjcaemh.tif,86,0.0666666666666667,0.0666666666666667,0.916666666666667,12074.623594959,12075.447385959,9,12074.689637375,12074.757340584,12075.463491042,12076.373521084,1,0.82379100000071
127,17,3,categorization,0,bathroom,SHINEd_sun_ausgutylgojavyoq.tif,53,0.0666666666666667,0.0666666666666667,0.916666666666667,12076.382459875,12077.220442875,13,12076.444336875,12076.505410625,12077.224141292,12078.134145667,1,0.83798299999944
127,18,3,categorization,0,bathroom,SHINEd_sun_avhrdrntsqrjzccq.tif,55,0.0666666666666667,0.0666666666666667,1.31666666666667,12078.13981475,12078.884817709,13,12078.201516417,12078.262616834,12078.898133125,12080.208187584,1,0.745002958999976
127,19,3,categorization,0,kitchen,SHINEd_sun_auaiucuqpdausiva.tif,102,0.0666666666666667,0.0666666666666667,1.45,12080.224241542,12080.952571667,13,12080.290810042,12080.358195375,12080.981343709,12082.424711917,0,0.728330124999047
127,20,3,categorization,0,kitchen,SHINEd_sun_aexklacwqwezaorf.tif,84,0.0666666666666667,0.0666666666666667,0.95,12082.434408959,12083.318007,13,12082.49834975,12082.568165584,12083.341642334,12084.2849825,0,0.883598041000369
127,21,3,categorization,0,bathroom,SHINEd_labelme_sfxiulhjbhlyiyt.tif,11,0.0666666666666667,0.0666666666666667,1.38333333333333,12084.290792459,12085.20551425,13,12084.352487584,12084.413710125,12085.215718792,12086.592440334,1,0.914721790999465
127,22,3,categorization,0,bathroom,SHINEd_sun_apkruvsevgegsdwp.tif,44,0.0666666666666667,0.0666666666666667,1.16666666666667,12086.609808334,12087.525833375,13,12086.677087792,12086.74385425,12087.549554167,12088.709608959,1,0.916025041000466
127,23,3,categorization,0,bathroom,SHINEd_sun_abapwbhyhkfixyex.tif,14,0.0666666666666667,0.0666666666666667,1.61666666666667,12088.720083209,12089.834412209,13,12088.787345584,12088.853805292,12089.861203459,12091.471249792,1,1.114329
127,24,3,categorization,0,kitchen,SHINEd_sun_aegoxogugdkwpmpj.tif,80,0.0666666666666667,0.0666666666666667,1.38333333333333,12091.490230542,12092.277817667,9,12091.55731125,12091.624409917,12092.297674292,12093.674398584,1,0.787587124999845
127,25,3,categorization,0,kitchen,SHINEd_sun_ajcbwwvdlsvjyzje.tif,96,0.0666666666666667,0.0666666666666667,1.78333333333333,12093.688804125,12094.478629209,13,12093.756132334,12093.822752167,12094.494489667,12096.27120025,0,0.789825083998949
127,26,3,categorization,0,kitchen,SHINEd_sun_ahpczsiumwwocjkv.tif,92,0.0666666666666667,0.0666666666666667,0.783333333333333,12096.29005425,12097.113472417,9,12096.357688959,12096.422721125,12097.12896625,12097.905637917,1,0.823418167001364
127,27,3,categorization,0,kitchen,SHINEd_sun_aamedkxepzlwuxes.tif,65,0.0666666666666667,0.0666666666666667,1.65,12097.91167725,12098.796561334,13,12097.973334209,12098.034675459,12098.80336225,12100.446734625,0,0.884884084000078
127,28,3,categorization,0,kitchen,SHINEd_sun_agzzivivdpnawacl.tif,89,0.0666666666666667,0.0666666666666667,1.86666666666667,12100.457070459,12101.256582542,13,12100.522691834,12100.585546875,12101.275558917,12103.135589584,0,0.799512083000081
127,29,3,categorization,0,kitchen,SHINEd_sun_acgtpgfybqjmzeyw.tif,75,0.0666666666666667,0.0666666666666667,1.23333333333333,12103.155667584,12104.303511167,9,12103.222598875,12103.289270042,12104.327737334,12105.554456417,1,1.14784358299949
127,30,3,categorization,0,bathroom,SHINEd_sun_ahcvzmoyaycdoftf.tif,27,0.0666666666666667,0.0666666666666667,0.7,12105.574363084,12106.5163385,9,12105.641239834,12105.707884709,12106.529982959,12107.223364459,0,0.941975415998968
127,31,3,categorization,0,kitchen,SHINEd_sun_amjjdeyrggfqgmom.tif,100,0.0666666666666667,0.0666666666666667,0.716666666666667,12107.240079917,12107.932353792,9,12107.307118667,12107.369591125,12107.938324959,12108.648329167,1,0.692273875001774
127,32,3,categorization,0,kitchen,SHINEd_sun_ahywdevtimnqcsln.tif,94,0.0666666666666667,0.0666666666666667,1.05,12108.653575334,12109.253216584,9,12108.715276917,12108.776455,12109.261821834,12110.305203042,1,0.599641250000786
127,33,3,categorization,0,kitchen,SHINEd_sun_auticobqsbwgoppi.tif,104,0.0666666666666667,0.0666666666666667,1.1,12110.315333959,12111.032796792,9,12110.379583375,12110.446648584,12111.052514584,12112.145899417,1,0.717462832999445
127,34,3,categorization,0,bathroom,SHINEd_sun_ahijqszoswveeyji.tif,28,0.0666666666666667,0.0666666666666667,1.13333333333333,12112.1634225,12113.053117792,13,12112.229902042,12112.296548292,12113.065449959,12114.19215625,1,0.889695292000397
127,35,3,categorization,0,bathroom,SHINEd_sun_aavhrsfjbserjtht.tif,13,0.0666666666666667,0.0666666666666667,1.38333333333333,12114.204544375,12114.984451792,9,12114.269579459,12114.337917334,12115.011215084,12116.387912292,0,0.779907416999777
127,36,3,categorization,0,bathroom,SHINEd_sun_axxbkopsgyouuebh.tif,58,0.0666666666666667,0.0666666666666667,1.5,12116.397073292,12117.03337,9,12116.462013959,12116.530639834,12117.053720917,12118.547108792,0,0.636296707998554
127,37,3,categorization,0,kitchen,SHINEd_sun_agubuxuukhzyzpdp.tif,88,0.0666666666666667,0.0666666666666667,1.61666666666667,12118.563833417,12119.17157225,9,12118.630606917,12118.697621709,12119.186584709,12120.796626625,1,0.60773883299953
127,38,3,categorization,0,bathroom,SHINEd_sun_agyqfjcfkdcydepw.tif,25,0.0666666666666667,0.0666666666666667,0.983333333333333,12120.813518209,12121.683252417,13,12120.880013,12120.947219834,12121.703681209,12122.680357834,1,0.8697342079995
127,39,3,categorization,0,bathroom,SHINEd_sun_apjevzvycyhuqghb.tif,43,0.0666666666666667,0.0666666666666667,1.3,12122.686590709,12123.388663834,13,12122.748335375,12122.809464459,12123.394898584,12124.68828525,1,0.702073125001334
127,40,3,categorization,0,kitchen,SHINEd_sun_admlmbcdswaszruo.tif,79,0.0666666666666667,0.0666666666666667,1.03333333333333,12124.705430792,12125.551379209,9,12124.772354625,12124.839193834,12125.579080042,12126.605802542,1,0.845948416999818
127,41,3,categorization,0,bathroom,SHINEd_sun_anhioqovhscjqqwb.tif,38,0.0666666666666667,0.0666666666666667,1.45,12126.617125375,12127.401229792,13,12126.682049167,12126.749340875,12127.422671042,12128.866061959,1,0.78410441699998
127,42,3,categorization,0,bathroom,SHINEd_sun_aghyqhbptboemmoq.tif,23,0.0666666666666667,0.0666666666666667,1.23333333333333,12128.884691584,12129.483125709,9,12128.95110425,12129.01852,12129.509015709,12130.735722334,0,0.598434125000495
127,43,3,categorization,0,bathroom,SHINEd_sun_aoybiabnpadelefl.tif,41,0.0666666666666667,0.0666666666666667,1.26666666666667,12130.75486075,12131.372619375,9,12130.8175355,12130.87785975,12131.379641834,12132.639679084,0,0.617758625001443
127,44,3,categorization,0,bathroom,SHINEd_sun_aclfzgynxzxlbepz.tif,19,0.0666666666666667,0.0666666666666667,1.03333333333333,12132.657060167,12133.412262,9,12132.723932167,12132.7905865,12133.429900667,12134.456605792,0,0.755201833000683
127,45,3,categorization,0,bathroom,SHINEd_sun_anryaplzeujmzfkd.tif,39,0.0666666666666667,0.0666666666666667,1.31666666666667,12134.465798875,12135.474640959,9,12134.530875459,12134.599449292,12135.505903917,12136.815960084,0,1.00884208400021
127,46,3,categorization,0,kitchen,SHINEd_sun_ahdycvpopffkzzsu.tif,90,0.0666666666666667,0.0666666666666667,1.7,12136.832872792,12137.604989209,13,12136.899369709,12136.966515459,12137.622162792,12139.315549,0,0.772116416999779
127,47,3,categorization,0,kitchen,SHINEd_sun_aapllqyqlykszopd.tif,66,0.0666666666666667,0.0666666666666667,1.35,12139.32917075,12140.025297709,9,12139.396320042,12139.462823917,12140.052779959,12141.396146084,1,0.696126959001049
127,48,3,categorization,0,bathroom,SHINEd_sun_acgyywnybuveqsro.tif,18,0.0666666666666667,0.0666666666666667,0.8,12141.4132625,12142.301418375,13,12141.480248084,12141.547511125,12142.320508334,12143.113876084,1,0.888155874999939
127,49,3,categorization,0,kitchen,SHINEd_sun_afuyedyxivkhecmu.tif,85,0.0666666666666667,0.0666666666666667,0.766666666666667,12143.1208895,12143.94895325,13,12143.182670459,12143.243833167,12143.962521042,12144.722526959,0,0.828063749999274
127,50,3,categorization,0,bathroom,SHINEd_sun_apynckhmoftszqoq.tif,47,0.0666666666666667,0.0666666666666667,1.38333333333333,12144.728438875,12145.620928334,13,12144.79004675,12144.851377292,12145.637056417,12147.013755959,1,0.892489458999989
127,1,4,categorization,0,bathroom,SHINEd_sun_alkosphxlxwjwgjd.tif,34,0.0666666666666667,0.0666666666666667,1,12155.137651125,12155.852611584,13,12155.200268209,12155.260610792,12155.862378084,12156.85571725,1,0.714960458999485
127,2,4,categorization,0,bathroom,SHINEd_sun_aljolscmmzydegqp.tif,33,0.0666666666666667,0.0666666666666667,0.966666666666667,12156.860897167,12157.7244955,9,12156.922570667,12156.983822834,12157.735896459,12158.695901375,0,0.863598333000482
127,3,4,categorization,0,kitchen,SHINEd_sun_aqeaevwwwjoqhzvl.tif,101,0.0666666666666667,0.0666666666666667,1.75,12158.703455459,12159.47639625,9,12158.765167834,12158.826366209,12159.495307292,12161.238689542,1,0.772940790999201
127,4,4,categorization,0,bathroom,SHINEd_sun_axldvoqbuvuggfmq.tif,57,0.0666666666666667,0.0666666666666667,1.68333333333333,12161.255739875,12161.998163625,9,12161.323003417,12161.389854667,12162.012155792,12163.688868292,0,0.742423749999944
127,5,4,categorization,0,kitchen,SHINEd_sun_aypmqwcualkenuoe.tif,109,0.0666666666666667,0.0666666666666667,1.58333333333333,12163.707036959,12164.353424125,13,12163.774000875,12163.841047584,12164.379755417,12165.956478875,0,0.64638716599984
127,6,4,categorization,0,kitchen,SHINEd_sun_akcjzhbbjlbogpdi.tif,99,0.0666666666666667,0.0666666666666667,1,12165.970996417,12166.518871834,9,12166.0383775,12166.105382875,12166.546103209,12167.539442709,1,0.547875416999887
127,7,4,categorization,0,kitchen,SHINEd_labelme_brsyyvweiuaazfr.tif,61,0.0666666666666667,0.0666666666666667,1.33333333333333,12167.545671417,12168.116742084,13,12167.607354042,12167.668496667,12168.120464959,12169.447178167,0,0.571070666999731
127,8,4,categorization,0,bathroom,SHINEd_sun_apmqjbnwghzuhhzh.tif,46,0.0666666666666667,0.0666666666666667,1.26666666666667,12169.465390209,12170.266733209,13,12169.532118792,12169.59909425,12170.288790584,12171.548839834,1,0.801343000000998
127,9,4,categorization,0,kitchen,SHINEd_sun_acfmftudsenhrfhy.tif,74,0.0666666666666667,0.0666666666666667,0.883333333333333,12171.568288792,12172.365952459,13,12171.635216334,12171.702451792,12172.391022084,12173.267740042,0,0.797663667000961
127,10,4,categorization,0,bathroom,SHINEd_sun_axyrejkiiaqiurjk.tif,59,0.0666666666666667,0.0666666666666667,1.26666666666667,12173.285967209,12174.684992625,13,12173.349187042,12173.409028375,12174.694663,12175.954706834,1,1.39902541599986
127,11,4,categorization,0,kitchen,SHINEd_sun_aeqdocilnnpuvuhx.tif,83,0.0666666666666667,0.0666666666666667,2,12175.973795667,12176.7249425,13,12176.04022075,12176.107486834,12176.747110709,12178.740477292,0,0.751146833001258
127,12,4,categorization,0,kitchen,SHINEd_sun_avszsnwsbuqfgzbn.tif,105,0.0666666666666667,0.0666666666666667,0.733333333333333,12178.758091917,12179.406885959,13,12178.824641209,12178.891981,12179.432137417,12180.158810084,0,0.6487940420011
127,13,4,categorization,0,bathroom,SHINEd_sun_apkxzenqapsujocq.tif,45,0.0666666666666667,0.0666666666666667,0.883333333333333,12180.164545,12181.172779459,13,12180.226188917,12180.287524459,12181.189784917,12182.066458209,1,1.00823445900096
127,14,4,categorization,0,bathroom,SHINEd_sun_aleqenyvunhactkl.tif,32,0.0666666666666667,0.0666666666666667,0.983333333333333,12182.072109834,12182.81287075,13,12182.133908042,12182.194954125,12182.830381625,12183.80705325,1,0.740760915999999
127,15,4,categorization,0,kitchen,SHINEd_labelme_kxvouciolcpqplr.tif,62,0.0666666666666667,0.0666666666666667,1.56666666666667,12183.812708875,12184.668701209,9,12183.874391334,12183.935481917,12184.687466959,12186.247519667,1,0.855992333999893
127,16,4,categorization,0,bathroom,SHINEd_sun_aspsyogrekjtfozg.tif,50,0.0666666666666667,0.0666666666666667,1.08333333333333,12186.262317875,12187.063530459,9,12186.328752167,12186.393560792,12187.082144792,12188.158864417,0,0.801212583999586
127,17,4,categorization,0,bathroom,SHINEd_sun_aofnryafpsjimzsb.tif,40,0.0666666666666667,0.0666666666666667,0.75,12188.169372334,12189.070739375,9,12188.234713125,12188.30158175,12189.09107675,12189.834443334,0,0.901367041000412
127,18,4,categorization,0,bathroom,SHINEd_sun_aunuadmjocsddsrl.tif,52,0.0666666666666667,0.0666666666666667,0.966666666666667,12189.85100425,12190.732540542,9,12189.917422875,12189.984457,12190.736374584,12191.696379667,0,0.88153629199951
127,19,4,categorization,0,kitchen,SHINEd_sun_ahspylgoovwmwvgk.tif,93,0.0666666666666667,0.0666666666666667,1.63333333333333,12191.703755292,12192.500378459,9,12191.765459834,12191.826638584,12192.511848667,12194.138559459,1,0.796623167001599
127,20,4,categorization,0,bathroom,SHINEd_sun_akiytfaagpdsphgz.tif,31,0.0666666666666667,0.0666666666666667,1.46666666666667,12194.1558725,12195.226348125,13,12194.222529042,12194.289308167,12195.24584025,12196.705869917,1,1.07047562499974
127,21,4,categorization,0,bathroom,SHINEd_sun_ambriybtogmepttm.tif,36,0.0666666666666667,0.0666666666666667,0.933333333333333,12196.723537917,12197.648523417,13,12196.790345709,12196.857311542,12197.662947792,12198.589619209,1,0.924985499999821
127,22,4,categorization,0,kitchen,SHINEd_sun_ahljzhgcdpomplvg.tif,91,0.0666666666666667,0.0666666666666667,1.45,12198.594943417,12199.459975042,9,12198.6565405,12198.718208959,12199.469947625,12200.91331375,1,0.865031625000483
127,23,4,categorization,0,kitchen,SHINEd_sun_aenotlpyftoioydp.tif,82,0.0666666666666667,0.0666666666666667,0.966666666666667,12200.930785834,12201.645126125,9,12200.997173917,12201.064824834,12201.671408292,12202.631413042,1,0.714340291000553
127,24,4,categorization,0,bathroom,SHINEd_sun_ajlawzvmubibwbpy.tif,30,0.0666666666666667,0.0666666666666667,0.816666666666667,12202.636994042,12203.372591084,9,12202.698633417,12202.760026625,12203.378491417,12204.188497209,0,0.735597041999426
127,25,4,categorization,0,bathroom,SHINEd_sun_aggnnqpdorgxpvce.tif,21,0.0666666666666667,0.0666666666666667,1.96666666666667,12204.19435125,12204.996514959,9,12204.255969125,12204.317248084,12205.002691042,12206.962738417,0,0.802163709000524
127,26,4,categorization,0,bathroom,SHINEd_sun_agrwbmhcpmfuwmsg.tif,24,0.0666666666666667,0.0666666666666667,0.916666666666667,12206.979377167,12207.817385625,13,12207.045843125,12207.113655417,12207.836841375,12208.746846667,1,0.838008458000331
127,27,4,categorization,0,bathroom,SHINEd_sun_afcoljnjfoxjtgja.tif,20,0.0666666666666667,0.0666666666666667,1.28333333333333,12208.752706709,12209.772157709,9,12208.814383792,12208.875826792,12209.777819584,12211.054537792,0,1.01945100000012
127,28,4,categorization,0,bathroom,SHINEd_sun_acduarbnmmoglmiv.tif,16,0.0666666666666667,0.0666666666666667,1.8,12211.071765875,12212.028821167,9,12211.138381209,12211.20555725,12212.044865375,12213.838232292,0,0.957055291999495
127,29,4,categorization,0,bathroom,SHINEd_sun_azqyogdvyhahyram.tif,60,0.0666666666666667,0.0666666666666667,1.33333333333333,12213.856460084,12214.550162917,13,12213.9230465,12213.990212084,12214.580275167,12215.906989209,1,0.693702832999406
127,30,4,categorization,0,kitchen,SHINEd_sun_aixorpehvfykdynp.tif,95,0.0666666666666667,0.0666666666666667,1.06666666666667,12215.924725917,12216.693271792,9,12215.99042125,12216.055808792,12216.712075667,12217.772125667,1,0.7685458750002
127,31,4,categorization,0,kitchen,SHINEd_sun_acxkpeoqbwcxfvip.tif,77,0.0666666666666667,0.0666666666666667,1.03333333333333,12217.783806125,12218.917986292,9,12217.848537125,12217.915919584,12218.940313375,12219.967015542,1,1.1341801669987
127,32,4,categorization,0,bathroom,SHINEd_sun_auzqhkafidnkrwmo.tif,54,0.0666666666666667,0.0666666666666667,0.733333333333333,12219.978561584,12220.836406875,9,12220.04362875,12220.110649875,12220.867461292,12221.594157125,0,0.857845291000558
127,33,4,categorization,0,kitchen,SHINEd_sun_awcpdzzznmweyyhv.tif,106,0.0666666666666667,0.0666666666666667,0.766666666666667,12221.61104925,12226.188656625,9,12221.677982709,12221.744630375,12226.214033209,12226.974039917,1,4.5776073750003
127,34,4,categorization,0,kitchen,SHINEd_sun_adgqasybjyktddhj.tif,78,0.0666666666666667,0.0666666666666667,1.1,12226.979129292,12228.235794917,13,12227.040749292,12227.10203375,12228.25451325,12229.347894709,0,1.2566656250001
127,35,4,categorization,0,bathroom,SHINEd_sun_asfwthctfqerjvxr.tif,49,0.0666666666666667,0.0666666666666667,1.81666666666667,12229.35753275,12230.267559209,13,12229.422480125,12229.491071709,12230.297539417,12232.107606959,1,0.91002645899971
127,36,4,categorization,0,bathroom,SHINEd_sun_ahaulkltgpkeeemi.tif,26,0.0666666666666667,0.0666666666666667,0.883333333333333,12232.125692834,12232.815412375,13,12232.192382875,12232.259130417,12232.831433959,12233.708106084,1,0.68971954099834
127,37,4,categorization,0,kitchen,SHINEd_labelme_rykdqxenmhulbdn.tif,63,0.0666666666666667,0.0666666666666667,1.7,12233.714222375,12234.460444042,13,12233.775862084,12233.837117834,12234.472253,12236.16563325,0,0.746221667001009
127,38,4,categorization,0,bathroom,SHINEd_sun_abjtwfukuwddzted.tif,15,0.0666666666666667,0.0666666666666667,1.58333333333333,12236.182623625,12236.893343792,13,12236.248832875,12236.315977792,12236.922685209,12238.499392167,1,0.710720167000545
127,39,4,categorization,0,kitchen,SHINEd_sun_acwjdupvyjsugpay.tif,76,0.0666666666666667,0.0666666666666667,0.833333333333333,12238.511287417,12239.109665834,9,12238.578135667,12238.64493675,12239.1349895,12239.961697167,1,0.598378416998457
127,40,4,categorization,0,kitchen,SHINEd_sun_abdxkyyxwfskuaqb.tif,70,0.0666666666666667,0.0666666666666667,0.95,12239.978200834,12240.884748917,9,12240.041265875,12240.101445334,12240.903702417,12241.847041042,1,0.906548082999507
127,41,4,categorization,0,bathroom,SHINEd_sun_acegryoqftbzowsg.tif,17,0.0666666666666667,0.0666666666666667,1.06666666666667,12241.852810709,12242.491885459,9,12241.914549875,12241.975705875,12242.510853667,12243.570896459,0,0.639074749999054
127,42,4,categorization,0,kitchen,SHINEd_sun_abftihopvusyfakt.tif,71,0.0666666666666667,0.0666666666666667,1.68333333333333,12243.582678167,12244.120428542,9,12243.647733792,12243.714894209,12244.136872584,12245.813572875,1,0.537750375000542
127,43,4,categorization,0,bathroom,SHINEd_sun_agguqiubmwhqqunb.tif,22,0.0666666666666667,0.0666666666666667,1.31666666666667,12245.831781417,12246.397519084,9,12245.897974959,12245.96535775,12246.42021925,12247.730260334,0,0.565737666998757
127,44,4,categorization,0,bathroom,SHINEd_sun_amzlamotzwfkwjco.tif,37,0.0666666666666667,0.0666666666666667,1.61666666666667,12247.7479405,12248.279864542,13,12247.814529792,12247.881664334,12248.304583209,12249.914642334,1,0.531924042001265
127,45,4,categorization,0,bathroom,SHINEd_sun_aqrpegblszgcoujh.tif,48,0.0666666666666667,0.0666666666666667,1.15,12249.933193667,12250.406449125,9,12249.999388542,12250.066378375,12250.420823792,12251.564211209,0,0.473255457998675
127,46,4,categorization,0,kitchen,SHINEd_sun_aadbddgrdsjugojn.tif,64,0.0666666666666667,0.0666666666666667,1.25,12251.580651167,12252.076692209,13,12251.6470595,12251.71428,12252.083582792,12253.326948417,0,0.496041042000797
127,47,4,categorization,0,kitchen,SHINEd_sun_ajkqhtgcbgpcwrwn.tif,97,0.0666666666666667,0.0666666666666667,1.1,12253.345912125,12253.93847425,9,12253.411150125,12253.478893625,12253.968246792,12255.061621584,1,0.592562125000768
127,48,4,categorization,0,kitchen,SHINEd_sun_azmutvzbxypaceni.tif,110,0.0666666666666667,0.0666666666666667,0.9,12255.078464292,12255.580882417,9,12255.141259209,12255.201648042,12255.586662959,12256.48000225,1,0.502418124999167
127,49,4,categorization,0,kitchen,SHINEd_sun_akchetnepxlcxhsu.tif,98,0.0666666666666667,0.0666666666666667,1.3,12256.486133334,12257.03688425,9,12256.547879084,12256.609056667,12257.044227125,12258.337604167,1,0.550750915999743
127,50,4,categorization,0,kitchen,SHINEd_sun_aymvwlarqodbwuoc.tif,108,0.0666666666666667,0.0666666666666667,1.25,12258.354865667,12259.066527584,9,12258.419709084,12258.487007584,12259.093386834,12260.336759167,1,0.711661917001038
127,1,5,categorization,0,kitchen,SHINEd_sun_acwjdupvyjsugpay.tif,76,0.0666666666666667,0.0666666666666667,1.7,12269.410970917,12270.228632625,9,12269.473294917,12269.534160542,12270.236209709,12271.929602667,1,0.817661707998923
127,2,5,categorization,0,bathroom,SHINEd_sun_acegryoqftbzowsg.tif,17,0.0666666666666667,0.0666666666666667,1.81666666666667,12271.948318125,12272.6222345,9,12272.014923625,12272.0820385,12272.638223042,12274.44826925,0,0.673916375000772
127,3,5,categorization,0,bathroom,SHINEd_sun_aleqenyvunhactkl.tif,32,0.0666666666666667,0.0666666666666667,1.23333333333333,12274.459426167,12274.99168125,9,12274.525818084,12274.593460709,12275.016459875,12276.243181959,0,0.532255082998745
127,4,5,categorization,0,kitchen,SHINEd_labelme_brsyyvweiuaazfr.tif,61,0.0666666666666667,0.0666666666666667,1.4,12276.261867209,12277.136070584,9,12276.3289395,12276.393873959,12277.148401459,12278.541784417,1,0.874203375000434
127,5,5,categorization,0,bathroom,SHINEd_sun_alkosphxlxwjwgjd.tif,34,0.0666666666666667,0.0666666666666667,1.03333333333333,12278.559423459,12279.253358209,9,12278.626716542,12278.693409042,12279.264985625,12280.291681625,0,0.693934749999244
127,6,5,categorization,0,bathroom,SHINEd_sun_ahaulkltgpkeeemi.tif,26,0.0666666666666667,0.0666666666666667,1.38333333333333,12280.302923542,12281.050910167,9,12280.367799584,12280.435218209,12281.07512575,12282.451836,0,0.747986624999612
127,7,5,categorization,0,bathroom,SHINEd_sun_aapitsgbtktqubfy.tif,12,0.0666666666666667,0.0666666666666667,2,12282.462018084,12283.128122917,9,12282.528807584,12282.597083875,12283.153819209,12285.147203042,0,0.666104833000645
127,8,5,categorization,0,kitchen,SHINEd_sun_avszsnwsbuqfgzbn.tif,105,0.0666666666666667,0.0666666666666667,1.85,12285.165222917,12286.027555209,13,12285.23205975,12285.299032459,12286.055763875,12287.899137792,0,0.862332292001156
127,9,5,categorization,0,kitchen,SHINEd_sun_agubuxuukhzyzpdp.tif,88,0.0666666666666667,0.0666666666666667,0.816666666666667,12287.91854625,12289.54858125,9,12287.985525334,12288.05239075,12289.55531175,12290.365318792,1,1.63003499999832
127,10,5,categorization,0,kitchen,SHINEd_sun_agzzivivdpnawacl.tif,89,0.0666666666666667,0.0666666666666667,1.85,12290.370223375,12291.260157084,13,12290.431974459,12290.493139792,12291.278921667,12293.122304834,0,0.889933709000616
127,11,5,categorization,0,kitchen,SHINEd_sun_agorklincwxrdtga.tif,87,0.0666666666666667,0.0666666666666667,0.733333333333333,12293.139433959,12293.894181834,9,12293.206077084,12293.273045375,12293.912498125,12294.639170459,1,0.754747875000248
127,12,5,categorization,0,kitchen,SHINEd_sun_aggjlwcdjsjcaemh.tif,86,0.0666666666666667,0.0666666666666667,0.716666666666667,12294.644122042,12295.340156375,9,12294.705771375,12294.766991334,12295.352169125,12296.062174,1,0.696034332999261
127,13,5,categorization,0,kitchen,SHINEd_sun_akchetnepxlcxhsu.tif,98,0.0666666666666667,0.0666666666666667,0.833333333333333,12296.066875959,12296.8124785,13,12296.128590042,12296.189748292,12296.8252405,12297.651912417,0,0.745602540999244
127,14,5,categorization,0,bathroom,SHINEd_sun_amzlamotzwfkwjco.tif,37,0.0666666666666667,0.0666666666666667,0.95,12297.656699709,12298.364331584,13,12297.718339625,12297.779958209,12298.381569834,12299.324907292,1,0.707631875000516
127,15,5,categorization,0,bathroom,SHINEd_sun_anhioqovhscjqqwb.tif,38,0.0666666666666667,0.0666666666666667,1.96666666666667,12299.329675792,12299.948380542,13,12299.391232709,12299.453020792,12299.955213125,12301.915258959,1,0.618704750000688
127,16,5,categorization,0,bathroom,SHINEd_sun_acduarbnmmoglmiv.tif,16,0.0666666666666667,0.0666666666666667,1.86666666666667,12301.932927167,12302.690791209,13,12301.999067459,12302.066456167,12302.705278167,12304.565322125,1,0.75786404199971
127,17,5,categorization,0,bathroom,SHINEd_sun_aavhrsfjbserjtht.tif,13,0.0666666666666667,0.0666666666666667,1.51666666666667,12304.5832025,12305.356465542,13,12304.649426209,12304.716621417,12305.37176325,12306.881802959,1,0.773263041999598
127,18,5,categorization,0,bathroom,SHINEd_sun_aqrpegblszgcoujh.tif,48,0.0666666666666667,0.0666666666666667,1.3,12306.900231709,12307.885164042,9,12306.96639475,12307.033990459,12307.907831584,12309.201214375,0,0.984932332999961
127,19,5,categorization,0,kitchen,SHINEd_sun_aamedkxepzlwuxes.tif,65,0.0666666666666667,0.0666666666666667,1.91666666666667,12309.217910209,12310.044229084,9,12309.2848735,12309.351888875,12310.075285042,12311.985338125,1,0.826318875000652
127,20,5,categorization,0,kitchen,SHINEd_sun_abftihopvusyfakt.tif,71,0.0666666666666667,0.0666666666666667,1.23333333333333,12312.0044215,12312.804565084,9,12312.071287834,12312.138328417,12312.828642917,12314.055356334,1,0.80014358399967
127,21,5,categorization,0,kitchen,SHINEd_sun_abrcnpqqhmjwekyf.tif,73,0.0666666666666667,0.0666666666666667,0.866666666666667,12314.072940667,12314.712932375,9,12314.140154334,12314.206389667,12314.729302792,12315.589347709,1,0.639991707999798
127,22,5,categorization,0,kitchen,SHINEd_sun_abdenxonkemggwsq.tif,69,0.0666666666666667,0.0666666666666667,0.8,12315.605548125,12316.180580917,9,12315.672451792,12315.739480167,12316.191444417,12316.984782375,1,0.575032791999547
127,23,5,categorization,0,kitchen,SHINEd_sun_ahdycvpopffkzzsu.tif,90,0.0666666666666667,0.0666666666666667,1.51666666666667,12316.989828625,12319.468097834,13,12317.051445667,12317.112789375,12319.482125459,12320.992154292,0,2.47826920899934
127,24,5,categorization,0,kitchen,SHINEd_sun_aaxxjlsuzvqlgylf.tif,68,0.0666666666666667,0.0666666666666667,1.18333333333333,12321.009573292,12322.3095155,9,12321.076578917,12321.143389834,12322.335623834,12323.512319959,1,1.29994220799927
127,25,5,categorization,0,bathroom,SHINEd_sun_apynckhmoftszqoq.tif,47,0.0666666666666667,0.0666666666666667,1.6,12323.52320175,12324.38716,9,12323.589918667,12323.657281834,12324.412593959,12326.005967709,0,0.863958249999996
127,26,5,categorization,0,kitchen,SHINEd_sun_aegoxogugdkwpmpj.tif,80,0.0666666666666667,0.0666666666666667,1.56666666666667,12326.019480667,12326.908731167,13,12326.086124834,12326.153479042,12326.926088917,12328.486128209,0,0.889250499998525
127,27,5,categorization,0,bathroom,SHINEd_sun_ahijqszoswveeyji.tif,28,0.0666666666666667,0.0666666666666667,1.36666666666667,12328.496701042,12329.29750625,13,12328.563699792,12328.630286542,12329.320566167,12330.680618875,1,0.800805208000384
127,28,5,categorization,0,kitchen,SHINEd_sun_auaiucuqpdausiva.tif,102,0.0666666666666667,0.0666666666666667,1.53333333333333,12330.6989315,12331.663341709,9,12330.766702375,12330.832452292,12331.689345584,12333.216045834,1,0.964410209000562
127,29,5,categorization,0,kitchen,SHINEd_sun_acxkpeoqbwcxfvip.tif,77,0.0666666666666667,0.0666666666666667,1.4,12333.234030167,12334.724674,9,12333.300450584,12333.368245959,12334.737936959,12336.131337959,1,1.49064383299992
127,30,5,categorization,0,bathroom,SHINEd_sun_aclfzgynxzxlbepz.tif,19,0.0666666666666667,0.0666666666666667,1.06666666666667,12336.1479295,12336.967394667,13,12336.216041542,12336.281386125,12336.987709042,12338.047756959,1,0.81946516699827
127,31,5,categorization,0,kitchen,SHINEd_sun_ajkqhtgcbgpcwrwn.tif,97,0.0666666666666667,0.0666666666666667,1.63333333333333,12338.057748209,12339.176757042,9,12338.122872917,12338.190356334,12339.198694667,12340.825396834,1,1.11900883300041
127,32,5,categorization,0,bathroom,SHINEd_sun_aggnnqpdorgxpvce.tif,21,0.0666666666666667,0.0666666666666667,1.8,12340.841454167,12341.922609875,13,12340.910037,12340.9753995,12341.949309,12343.742690375,1,1.08115570799964
127,33,5,categorization,0,kitchen,SHINEd_sun_acgtpgfybqjmzeyw.tif,75,0.0666666666666667,0.0666666666666667,1.53333333333333,12343.759794292,12344.589900084,9,12343.827969667,12343.893512792,12344.616952834,12346.143674417,1,0.830105791999813
127,34,5,categorization,0,kitchen,SHINEd_sun_aymvwlarqodbwuoc.tif,108,0.0666666666666667,0.0666666666666667,0.766666666666667,12346.161309709,12346.990083792,9,12346.227907,12346.295296292,12347.018456459,12347.778461792,1,0.828774083000098
127,35,5,categorization,0,kitchen,SHINEd_sun_ajcbwwvdlsvjyzje.tif,96,0.0666666666666667,0.0666666666666667,1.86666666666667,12347.786191,12348.628268334,9,12347.847909375,12347.909078834,12348.6442255,12350.504277125,1,0.842077334000351
127,36,5,categorization,0,kitchen,SHINEd_sun_aadbddgrdsjugojn.tif,64,0.0666666666666667,0.0666666666666667,1.13333333333333,12350.515517417,12351.383235959,13,12350.581924959,12350.649141292,12351.405641834,12352.53235475,0,0.867718542000148
127,37,5,categorization,0,kitchen,SHINEd_sun_aapllqyqlykszopd.tif,66,0.0666666666666667,0.0666666666666667,1.73333333333333,12352.541991917,12353.361166959,9,12352.60732425,12352.67567075,12353.382224,12355.10895025,1,0.819175041999188
127,38,5,categorization,0,bathroom,SHINEd_sun_aghyqhbptboemmoq.tif,23,0.0666666666666667,0.0666666666666667,0.766666666666667,12355.127543709,12355.883084625,9,12355.194206959,12355.258892334,12355.898020625,12356.658026584,0,0.755540915999518
127,39,5,categorization,0,bathroom,SHINEd_sun_apkxzenqapsujocq.tif,45,0.0666666666666667,0.0666666666666667,1.85,12356.664206125,12357.484414584,13,12356.725863375,12356.787093375,12357.489117417,12359.332502625,1,0.820208458999332
127,40,5,categorization,0,bathroom,SHINEd_sun_ajlawzvmubibwbpy.tif,30,0.0666666666666667,0.0666666666666667,0.966666666666667,12359.350448417,12360.884237542,9,12359.416794917,12359.484229667,12360.90355175,12361.863556375,0,1.53378912500011
127,41,5,categorization,0,bathroom,SHINEd_sun_asfwthctfqerjvxr.tif,49,0.0666666666666667,0.0666666666666667,1.06666666666667,12361.8685945,12362.732098875,13,12361.930528084,12361.991403625,12362.743621417,12363.803662584,1,0.863504375000048
127,42,5,categorization,0,bathroom,SHINEd_sun_avhrdrntsqrjzccq.tif,55,0.0666666666666667,0.0666666666666667,1.38333333333333,12363.812417875,12364.71637025,13,12363.877080625,12363.943219,12364.732293667,12366.109010875,1,0.90395237499979
127,43,5,categorization,0,bathroom,SHINEd_sun_afcoljnjfoxjtgja.tif,20,0.0666666666666667,0.0666666666666667,0.766666666666667,12366.125895292,12367.033230959,9,12366.193960667,12366.259456209,12367.048422417,12367.808461125,0,0.907335666999643
127,44,5,categorization,0,bathroom,SHINEd_sun_aunuadmjocsddsrl.tif,52,0.0666666666666667,0.0666666666666667,0.866666666666667,12367.823857459,12369.035960542,13,12367.890442292,12367.94964775,12369.052097667,12369.91210175,1,1.21210308300033
127,45,5,categorization,0,bathroom,SHINEd_sun_anryaplzeujmzfkd.tif,39,0.0666666666666667,0.0666666666666667,1.25,12369.916704292,12370.779602209,13,12369.978476625,12370.039457334,12370.791486959,12372.034866667,1,0.862897917000737
127,46,5,categorization,0,bathroom,SHINEd_sun_aofnryafpsjimzsb.tif,40,0.0666666666666667,0.0666666666666667,1.03333333333333,12372.051691417,12372.859903209,13,12372.118018584,12372.185066959,12372.873990667,12373.900708292,1,0.808211792000293
127,47,5,categorization,0,kitchen,SHINEd_sun_aunzlwrbjumxhwdj.tif,103,0.0666666666666667,0.0666666666666667,0.783333333333333,12373.909881084,12375.069021875,13,12373.9761335,12374.04335775,12375.100426792,12375.877147417,0,1.15914079100003
127,48,5,categorization,0,bathroom,SHINEd_sun_agguqiubmwhqqunb.tif,22,0.0666666666666667,0.0666666666666667,0.7,12375.889018125,12376.787899709,9,12375.955580417,12376.014738959,12376.800652834,12377.493992167,0,0.898881583998445
127,49,5,categorization,0,bathroom,SHINEd_sun_apmqjbnwghzuhhzh.tif,46,0.0666666666666667,0.0666666666666667,1.75,12377.498651417,12378.500377834,13,12377.560335084,12377.621523375,12378.506719042,12380.250104375,1,1.0017264170001
127,50,5,categorization,0,bathroom,SHINEd_sun_axldvoqbuvuggfmq.tif,57,0.0666666666666667,0.0666666666666667,1.36666666666667,12380.267155917,12381.407937167,13,12380.334212625,12380.398703625,12381.438811167,12382.798858375,1,1.14078125000015
127,1,6,categorization,0,bathroom,SHINEd_sun_ahqjwnzgolcaoidx.tif,29,0.0666666666666667,0.0666666666666667,0.966666666666667,12388.686809459,12389.620369334,13,12388.749086959,12388.809601334,12389.628366125,12390.588372292,1,0.933559874998537
127,2,6,categorization,0,kitchen,SHINEd_sun_acfmftudsenhrfhy.tif,74,0.0666666666666667,0.0666666666666667,1.73333333333333,12390.593885542,12391.428089292,13,12390.655505292,12390.716764209,12391.435466917,12393.162166542,0,0.834203749998778
127,3,6,categorization,0,bathroom,SHINEd_sun_azqyogdvyhahyram.tif,60,0.0666666666666667,0.0666666666666667,1.91666666666667,12393.176588709,12393.820806625,13,12393.242805959,12393.310749417,12393.850417542,12395.760460667,1,0.644217916000343
127,4,6,categorization,0,bathroom,SHINEd_sun_abapwbhyhkfixyex.tif,14,0.0666666666666667,0.0666666666666667,0.766666666666667,12395.775657,12396.41377675,13,12395.842481209,12395.909086834,12396.430497792,12397.190501792,1,0.638119749999532
127,5,6,categorization,0,kitchen,SHINEd_sun_ahspylgoovwmwvgk.tif,93,0.0666666666666667,0.0666666666666667,0.916666666666667,12397.195463334,12398.275507875,9,12397.257197125,12397.318377084,12398.287643709,12399.197649917,1,1.08004454100046
127,6,6,categorization,0,kitchen,SHINEd_labelme_kxvouciolcpqplr.tif,62,0.0666666666666667,0.0666666666666667,1.18333333333333,12399.203359459,12399.771978334,9,12399.265018167,12399.326243167,12399.778257167,12400.954942417,1,0.568618875000539
127,7,6,categorization,0,bathroom,SHINEd_sun_apkruvsevgegsdwp.tif,44,0.0666666666666667,0.0666666666666667,1.8,12400.965249917,12401.572929542,9,12401.03164525,12401.098894167,12401.58801725,12403.381402,0,0.607679624999946
127,8,6,categorization,0,bathroom,SHINEd_sun_akiytfaagpdsphgz.tif,31,0.0666666666666667,0.0666666666666667,0.883333333333333,12403.399798042,12404.388537209,9,12403.465839042,12403.533753417,12404.405099959,12405.281771334,0,0.988739166999949
127,9,6,categorization,0,bathroom,SHINEd_sun_alotolagknyrgtsk.tif,35,0.0666666666666667,0.0666666666666667,1.83333333333333,12405.287855917,12406.043233834,9,12405.34967725,12405.410701667,12406.063100042,12407.889800709,0,0.75537791699935
127,10,6,categorization,0,bathroom,SHINEd_sun_awnqiikzaispgmwo.tif,56,0.0666666666666667,0.0666666666666667,1.76666666666667,12407.906834875,12408.941423667,9,12407.973688334,12408.040375542,12408.963268459,12410.723315,0,1.03458879199934
127,11,6,categorization,0,kitchen,SHINEd_sun_akcjzhbbjlbogpdi.tif,99,0.0666666666666667,0.0666666666666667,0.983333333333333,12410.741349917,12411.453080334,9,12410.808003875,12410.875292375,12411.482246209,12412.458917542,1,0.711730417000581
127,12,6,categorization,0,bathroom,SHINEd_sun_ausgutylgojavyoq.tif,53,0.0666666666666667,0.0666666666666667,0.883333333333333,12412.463999875,12413.283348167,13,12412.52571575,12412.586938042,12413.288949042,12414.165619,1,0.819348291999631
127,13,6,categorization,0,kitchen,SHINEd_sun_aypmqwcualkenuoe.tif,109,0.0666666666666667,0.0666666666666667,0.85,12414.170404917,12414.995732125,13,12414.2320905,12414.293331709,12415.012388459,12415.855728292,0,0.82532720800009
127,14,6,categorization,0,bathroom,SHINEd_sun_ambriybtogmepttm.tif,36,0.0666666666666667,0.0666666666666667,0.733333333333333,12415.861350334,12416.619446917,13,12415.92292575,12415.984162125,12416.636249,12417.362921125,1,0.758096583000224
127,15,6,categorization,0,bathroom,SHINEd_sun_apeeialkgkuxddgh.tif,42,0.0666666666666667,0.0666666666666667,1.88333333333333,12417.3683745,12418.244286917,13,12417.430003709,12417.491197917,12418.260378875,12420.137090459,1,0.875912417001018
127,16,6,categorization,0,bathroom,SHINEd_sun_aljolscmmzydegqp.tif,33,0.0666666666666667,0.0666666666666667,0.816666666666667,12420.154771542,12420.352431209,13,12420.2215715,12420.288376625,12420.376668292,12421.186699125,1,0.197659666999243
127,17,6,categorization,0,kitchen,SHINEd_sun_azmutvzbxypaceni.tif,110,0.0666666666666667,0.0666666666666667,1.9,12421.199181834,12423.347902875,9,12421.265609375,12421.33244075,12423.368806792,12425.262190917,1,2.14872104100141
127,18,6,categorization,0,bathroom,SHINEd_sun_abjtwfukuwddzted.tif,15,0.0666666666666667,0.0666666666666667,0.983333333333333,12425.279822,12427.667688542,9,12425.346562917,12425.413981417,12427.683706042,12428.660378542,0,2.38786654199976
127,19,6,categorization,0,kitchen,SHINEd_sun_auticobqsbwgoppi.tif,104,0.0666666666666667,0.0666666666666667,0.75,12428.665355667,12429.371412375,9,12428.727008959,12428.788229542,12429.390025375,12430.133365,1,0.706056707998869
127,20,6,categorization,0,kitchen,SHINEd_sun_adgqasybjyktddhj.tif,78,0.0666666666666667,0.0666666666666667,1.6,12430.138957792,12430.963211209,9,12430.200677542,12430.261761917,12430.980874,12432.574257209,1,0.824253417000364
127,21,6,categorization,0,kitchen,SHINEd_sun_ahpczsiumwwocjkv.tif,92,0.0666666666666667,0.0666666666666667,1.58333333333333,12432.591959334,12433.348557709,9,12432.65809,12432.72588175,12433.3653665,12434.9420785,1,0.756598374999157
127,22,6,categorization,0,bathroom,SHINEd_sun_aspsyogrekjtfozg.tif,50,0.0666666666666667,0.0666666666666667,1.11666666666667,12434.960519334,12435.743440792,13,12435.027357459,12435.094318542,12435.766455292,12436.876512459,1,0.782921457999691
127,23,6,categorization,0,kitchen,SHINEd_sun_aexklacwqwezaorf.tif,84,0.0666666666666667,0.0666666666666667,1.53333333333333,12436.886710542,12437.643133375,9,12436.951709709,12437.021146709,12437.660714084,12439.187420125,1,0.756422833001125
127,24,6,categorization,0,bathroom,SHINEd_sun_axxbkopsgyouuebh.tif,58,0.0666666666666667,0.0666666666666667,1.48333333333333,12439.204864959,12439.88884525,13,12439.272059417,12439.33868425,12439.912135459,12441.388855334,1,0.683980290999898
127,25,6,categorization,0,bathroom,SHINEd_sun_acgyywnybuveqsro.tif,18,0.0666666666666667,0.0666666666666667,1.1,12441.407029459,12442.009369625,13,12441.473904417,12441.541284792,12442.032021292,12443.125412792,1,0.602340166000431
127,26,6,categorization,0,kitchen,SHINEd_sun_afuyedyxivkhecmu.tif,85,0.0666666666666667,0.0666666666666667,0.933333333333333,12443.13467125,12443.907236417,9,12443.196528417,12443.2576245,12443.926041167,12444.852712459,1,0.772565167000721
127,27,6,categorization,0,kitchen,SHINEd_sun_amjjdeyrggfqgmom.tif,100,0.0666666666666667,0.0666666666666667,0.816666666666667,12444.858237917,12445.563608584,13,12444.91991325,12444.98109525,12445.582891209,12446.392895167,0,0.705370666999443
127,28,6,categorization,0,bathroom,SHINEd_sun_auzqhkafidnkrwmo.tif,54,0.0666666666666667,0.0666666666666667,1.78333333333333,12446.397581584,12450.43591475,13,12446.459267709,12446.52046725,12450.455632042,12452.23234075,1,4.03833316599957
127,29,6,categorization,0,bathroom,SHINEd_sun_apjevzvycyhuqghb.tif,43,0.0666666666666667,0.0666666666666667,0.766666666666667,12452.249712375,12453.121675417,13,12452.315917625,12452.381120459,12453.136540792,12453.896544,1,0.871963042000061
127,30,6,categorization,0,kitchen,SHINEd_sun_admlmbcdswaszruo.tif,79,0.0666666666666667,0.0666666666666667,1.45,12453.901626334,12454.643761542,13,12453.963295125,12454.024552375,12454.659549209,12456.10292875,0,0.742135208000036
127,31,6,categorization,0,kitchen,SHINEd_sun_aixorpehvfykdynp.tif,95,0.0666666666666667,0.0666666666666667,0.75,12456.120227125,12456.90078275,9,12456.186704792,12456.253790584,12456.927016125,12457.670382167,1,0.780555625000488
127,32,6,categorization,0,bathroom,SHINEd_sun_atstyziqcmkahyxk.tif,51,0.0666666666666667,0.0666666666666667,1.36666666666667,12457.686771334,12458.658990625,13,12457.749299417,12457.809527,12458.678246042,12460.038281167,1,0.972219290999419
127,33,6,categorization,0,bathroom,SHINEd_sun_axyrejkiiaqiurjk.tif,59,0.0666666666666667,0.0666666666666667,0.75,12460.055103042,12460.788393167,13,12460.121582625,12460.188530542,12460.810476709,12461.553845792,1,0.733290125001076
127,34,6,categorization,0,kitchen,SHINEd_sun_aehawpgmrlhlvcow.tif,81,0.0666666666666667,0.0666666666666667,0.783333333333333,12461.570071584,12462.259761667,13,12461.636302209,12461.703693042,12462.272715,12463.049387917,0,0.689690082999732
127,35,6,categorization,0,kitchen,SHINEd_sun_aeqdocilnnpuvuhx.tif,83,0.0666666666666667,0.0666666666666667,1.11666666666667,12463.054845709,12464.291959875,13,12463.11641675,12463.177688334,12464.296806292,12465.406840125,0,1.23711416599872
127,36,6,categorization,0,kitchen,SHINEd_sun_abdxkyyxwfskuaqb.tif,70,0.0666666666666667,0.0666666666666667,0.766666666666667,12465.415949167,12466.126176792,9,12465.480512625,12465.54946475,12466.15587975,12466.915910084,1,0.710227625000698
127,37,6,categorization,0,kitchen,SHINEd_sun_abpwyqmlzafvklqo.tif,72,0.0666666666666667,0.0666666666666667,0.716666666666667,12466.928101334,12467.675410084,9,12466.994743875,12467.061824209,12467.681136917,12468.391141917,1,0.747308750000229
127,38,6,categorization,0,bathroom,SHINEd_sun_aoybiabnpadelefl.tif,41,0.0666666666666667,0.0666666666666667,1.33333333333333,12468.396023667,12469.244032709,9,12468.457747292,12468.518809625,12469.253935834,12470.580655042,0,0.84800904200165
127,39,6,categorization,0,kitchen,SHINEd_sun_awcpdzzznmweyyhv.tif,106,0.0666666666666667,0.0666666666666667,1.75,12470.594125459,12471.525187625,9,12470.660863792,12470.728464417,12471.551976542,12473.29534325,1,0.931062166000629
127,40,6,categorization,0,bathroom,SHINEd_sun_ahcvzmoyaycdoftf.tif,27,0.0666666666666667,0.0666666666666667,1.13333333333333,12473.312060125,12473.9519275,13,12473.378347792,12473.445905167,12473.968477334,12475.09517675,1,0.639867375000904
127,41,6,categorization,0,bathroom,SHINEd_sun_agyqfjcfkdcydepw.tif,25,0.0666666666666667,0.0666666666666667,1.63333333333333,12475.105168625,12476.050832834,9,12475.170365959,12475.238645,12476.07925425,12477.705954584,0,0.945664209000824
127,42,6,categorization,0,kitchen,SHINEd_sun_aenotlpyftoioydp.tif,82,0.0666666666666667,0.0666666666666667,1.43333333333333,12477.722539584,12478.526108875,9,12477.789106417,12477.856652875,12478.546389542,12479.973099667,1,0.803569290999803
127,43,6,categorization,0,bathroom,SHINEd_labelme_sfxiulhjbhlyiyt.tif,11,0.0666666666666667,0.0666666666666667,1.83333333333333,12479.991647625,12480.721316875,13,12480.05854975,12480.125386917,12480.748711875,12482.57542825,1,0.72966925000037
127,44,6,categorization,0,kitchen,SHINEd_sun_aarfiyshqohlwkmo.tif,67,0.0666666666666667,0.0666666666666667,1.93333333333333,12482.593822042,12483.507360625,9,12482.660619,12482.727323709,12483.533191959,12485.459906917,1,0.913538583001355
127,45,6,categorization,0,kitchen,SHINEd_sun_aqeaevwwwjoqhzvl.tif,101,0.0666666666666667,0.0666666666666667,1.26666666666667,12485.477933792,12486.381621125,9,12485.544870334,12485.611884917,12486.40060725,12487.66064925,1,0.903687332998743
127,46,6,categorization,0,bathroom,SHINEd_sun_agrwbmhcpmfuwmsg.tif,24,0.0666666666666667,0.0666666666666667,1.86666666666667,12487.67914225,12488.661605375,13,12487.747128417,12487.813020667,12488.686739334,12490.546783792,1,0.982463125001232
127,47,6,categorization,0,kitchen,SHINEd_sun_ahywdevtimnqcsln.tif,94,0.0666666666666667,0.0666666666666667,1.41666666666667,12490.565030292,12491.388597584,9,12490.631567625,12490.698585584,12491.404232042,12492.814265709,1,0.823567292000007
127,48,6,categorization,0,kitchen,SHINEd_sun_axyyrmzcupyhlivc.tif,107,0.0666666666666667,0.0666666666666667,1.11666666666667,12492.832870792,12493.804918834,9,12492.89940475,12492.96739925,12493.824153542,12494.934194209,1,0.972048041998278
127,49,6,categorization,0,kitchen,SHINEd_labelme_rykdqxenmhulbdn.tif,63,0.0666666666666667,0.0666666666666667,1.8,12494.944597917,12495.807386917,9,12495.0097405,12495.078467042,12495.835481625,12497.628868542,1,0.862789000000703
127,50,6,categorization,0,kitchen,SHINEd_sun_ahljzhgcdpomplvg.tif,91,0.0666666666666667,0.0666666666666667,1.25,12497.647618459,12498.617655834,9,12497.714547667,12497.781339625,12498.63831375,12499.881683334,1,0.970037375000175
127,1,7,categorization,0,kitchen,SHINEd_sun_abdenxonkemggwsq.tif,69,0.0666666666666667,0.0666666666666667,0.883333333333333,12510.120279917,12511.05103,9,12510.182720417,12510.2431405,12511.061925,12511.938594834,1,0.930750083000021
127,2,7,categorization,0,kitchen,SHINEd_sun_avszsnwsbuqfgzbn.tif,105,0.0666666666666667,0.0666666666666667,1.03333333333333,12511.943393834,12512.683120042,13,12512.0050975,12512.066256334,12512.701419542,12513.728118959,0,0.739726207999411
127,3,7,categorization,0,kitchen,SHINEd_labelme_rykdqxenmhulbdn.tif,63,0.0666666666666667,0.0666666666666667,1.06666666666667,12513.738299709,12514.359688375,9,12513.802450334,12513.870324625,12514.374976625,12515.43501525,1,0.621388665998893
127,4,7,categorization,0,bathroom,SHINEd_sun_aggnnqpdorgxpvce.tif,21,0.0666666666666667,0.0666666666666667,0.833333333333333,12515.454771125,12516.603611042,9,12515.521506375,12515.587962959,12516.623235375,12517.449908292,0,1.14883991699935
127,5,7,categorization,0,kitchen,SHINEd_sun_aymvwlarqodbwuoc.tif,108,0.0666666666666667,0.0666666666666667,0.716666666666667,12517.454602167,12518.451478959,9,12517.516260042,12517.577449459,12518.462599209,12519.172602959,1,0.996876791999966
127,6,7,categorization,0,bathroom,SHINEd_sun_agguqiubmwhqqunb.tif,22,0.0666666666666667,0.0666666666666667,0.733333333333333,12519.177299625,12520.0598865,9,12519.239021209,12519.300184334,12520.069390542,12520.7960605,0,0.882586874999106
127,7,7,categorization,0,bathroom,SHINEd_sun_aapitsgbtktqubfy.tif,12,0.0666666666666667,0.0666666666666667,1.38333333333333,12520.801020834,12523.778892584,9,12520.862836584,12520.923864292,12523.793224334,12525.169933292,0,2.97787174999939
127,8,7,categorization,0,kitchen,SHINEd_sun_agubuxuukhzyzpdp.tif,88,0.0666666666666667,0.0666666666666667,0.9,12525.188114709,12526.131367167,13,12525.2546545,12525.321667334,12526.161578834,12527.05491675,0,0.943252457998824
127,9,7,categorization,0,bathroom,SHINEd_sun_ajlawzvmubibwbpy.tif,30,0.0666666666666667,0.0666666666666667,0.816666666666667,12527.0600005,12527.915655417,13,12527.121686375,12527.182842209,12527.93531925,12528.745322875,1,0.85565491700072
127,10,7,categorization,0,bathroom,SHINEd_sun_awnqiikzaispgmwo.tif,56,0.0666666666666667,0.0666666666666667,0.85,12528.751358292,12529.5078065,13,12528.813138709,12528.874333875,12529.526110625,12530.369449292,1,0.756448207999711
127,11,7,categorization,0,bathroom,SHINEd_sun_auzqhkafidnkrwmo.tif,54,0.0666666666666667,0.0666666666666667,1.6,12530.374078834,12531.675082834,9,12530.435651834,12530.49702825,12531.683203625,12533.2765825,0,1.30100399999901
127,12,7,categorization,0,kitchen,SHINEd_sun_akcjzhbbjlbogpdi.tif,99,0.0666666666666667,0.0666666666666667,1.75,12533.291251875,12534.175213667,9,12533.355234459,12533.423902292,12534.197663167,12535.941044459,1,0.883961792000264
127,13,7,categorization,0,bathroom,SHINEd_sun_asfwthctfqerjvxr.tif,49,0.0666666666666667,0.0666666666666667,1.1,12535.959031042,12536.912363292,13,12536.025919,12536.092791209,12536.932748542,12538.026115667,1,0.953332249999221
127,14,7,categorization,0,bathroom,SHINEd_sun_anryaplzeujmzfkd.tif,39,0.0666666666666667,0.0666666666666667,1.46666666666667,12538.035699459,12539.053515334,13,12538.101051042,12538.169141584,12539.076379,12540.536425459,1,1.01781587500045
127,15,7,categorization,0,bathroom,SHINEd_sun_aljolscmmzydegqp.tif,33,0.0666666666666667,0.0666666666666667,1.25,12540.554407292,12541.727421584,9,12540.621171667,12540.688037834,12541.744475959,12542.987843667,0,1.17301429200052
127,16,7,categorization,0,bathroom,SHINEd_sun_aclfzgynxzxlbepz.tif,19,0.0666666666666667,0.0666666666666667,1.13333333333333,12543.002706459,12543.805683334,13,12543.069945084,12543.13631575,12543.826256917,12544.95296525,1,0.80297687500024
127,17,7,categorization,0,kitchen,SHINEd_sun_abpwyqmlzafvklqo.tif,72,0.0666666666666667,0.0666666666666667,1.33333333333333,12544.965006584,12545.925697625,9,12545.031112042,12545.098611459,12545.955696542,12547.2823985,1,0.960691041000246
127,18,7,categorization,0,bathroom,SHINEd_sun_aleqenyvunhactkl.tif,32,0.0666666666666667,0.0666666666666667,1.86666666666667,12547.296743542,12548.300291375,13,12547.363690834,12547.430197667,12548.320136959,12550.180174125,1,1.00354783300099
127,19,7,categorization,0,kitchen,SHINEd_sun_amjjdeyrggfqgmom.tif,100,0.0666666666666667,0.0666666666666667,1.58333333333333,12550.199121417,12551.155904209,9,12550.265449875,12550.333072542,12551.173047542,12552.749750917,1,0.956782792000013
127,20,7,categorization,0,bathroom,SHINEd_sun_ausgutylgojavyoq.tif,53,0.0666666666666667,0.0666666666666667,1.05,12552.764097,12553.757388167,13,12552.8311455,12552.897535209,12553.787904375,12554.8312715,1,0.99329116700028
127,21,7,categorization,0,kitchen,SHINEd_sun_azmutvzbxypaceni.tif,110,0.0666666666666667,0.0666666666666667,0.9,12554.840033667,12555.684372292,9,12554.9048565,12554.972232084,12555.712171459,12556.605559417,1,0.844338625000091
127,22,7,categorization,0,bathroom,SHINEd_sun_apmqjbnwghzuhhzh.tif,46,0.0666666666666667,0.0666666666666667,0.7,12556.622507292,12557.49937325,13,12556.68944975,12556.756374,12557.508714334,12558.20205275,1,0.876865958000053
127,23,7,categorization,0,kitchen,SHINEd_labelme_brsyyvweiuaazfr.tif,61,0.0666666666666667,0.0666666666666667,0.933333333333333,12558.206794959,12559.075338875,9,12558.268548667,12558.329831125,12559.081836417,12560.008508917,1,0.868543915999908
127,24,7,categorization,0,bathroom,SHINEd_sun_apjevzvycyhuqghb.tif,43,0.0666666666666667,0.0666666666666667,1.95,12560.013379917,12560.9554945,9,12560.075071375,12560.1362105,12560.971780542,12562.915169792,0,0.942114583000148
127,25,7,categorization,0,kitchen,SHINEd_sun_aunzlwrbjumxhwdj.tif,103,0.0666666666666667,0.0666666666666667,1.06666666666667,12562.9331405,12563.620567667,9,12563.000078167,12563.066747209,12563.639462709,12564.699505709,1,0.687427167000351
127,26,7,categorization,0,kitchen,SHINEd_sun_aqeaevwwwjoqhzvl.tif,101,0.0666666666666667,0.0666666666666667,1.2,12564.708725292,12565.521628709,9,12564.773176084,12564.841097709,12565.547487625,12566.740870375,1,0.812903417001507
127,27,7,categorization,0,kitchen,SHINEd_sun_aixorpehvfykdynp.tif,95,0.0666666666666667,0.0666666666666667,0.75,12566.758034792,12567.483183875,9,12566.820696709,12566.880976084,12567.499402834,12568.242741667,1,0.72514908300036
127,28,7,categorization,0,kitchen,SHINEd_sun_aeqdocilnnpuvuhx.tif,83,0.0666666666666667,0.0666666666666667,0.816666666666667,12568.24829175,12569.083201709,9,12568.309889709,12568.371236834,12569.089740125,12569.899744292,1,0.83490995899956
127,29,7,categorization,0,bathroom,SHINEd_sun_anhioqovhscjqqwb.tif,38,0.0666666666666667,0.0666666666666667,1.96666666666667,12569.904535792,12570.818410875,13,12569.966201084,12570.027348459,12570.829570667,12572.789617875,1,0.913875082998857
127,30,7,categorization,0,kitchen,SHINEd_sun_aexklacwqwezaorf.tif,84,0.0666666666666667,0.0666666666666667,1.2,12572.807406875,12573.717908459,9,12572.874139334,12572.941195292,12573.747793042,12574.94118325,1,0.910501584001395
127,31,7,categorization,0,bathroom,SHINEd_sun_apkruvsevgegsdwp.tif,44,0.0666666666666667,0.0666666666666667,0.883333333333333,12574.952329959,12575.731551709,9,12575.018723667,12575.086060625,12575.759255334,12576.635957,0,0.779221749999124
127,32,7,categorization,0,bathroom,SHINEd_sun_acduarbnmmoglmiv.tif,16,0.0666666666666667,0.0666666666666667,1.33333333333333,12576.649321,12577.811454792,9,12576.71647825,12576.783197292,12577.819136375,12579.145845334,0,1.16213379199871
127,33,7,categorization,0,bathroom,SHINEd_sun_aghyqhbptboemmoq.tif,23,0.0666666666666667,0.0666666666666667,1.45,12579.163719917,12580.168255875,13,12579.231944,12579.297464167,12580.186467084,12581.62983475,1,1.00453595799991
127,34,7,categorization,0,kitchen,SHINEd_sun_auaiucuqpdausiva.tif,102,0.0666666666666667,0.0666666666666667,1.15,12581.646494834,12582.423217667,9,12581.713220584,12581.780007292,12582.451025834,12583.594431959,1,0.77672283299944
127,35,7,categorization,0,bathroom,SHINEd_sun_agyqfjcfkdcydepw.tif,25,0.0666666666666667,0.0666666666666667,0.966666666666667,12583.603590875,12584.19772825,9,12583.670845084,12583.7372745,12584.227506584,12585.187551875,0,0.594137374999264
127,36,7,categorization,0,kitchen,SHINEd_sun_ahdycvpopffkzzsu.tif,90,0.0666666666666667,0.0666666666666667,1.45,12585.204319417,12586.578765167,9,12585.271301209,12585.338259334,12586.590633709,12588.034018875,1,1.37444574999972
127,37,7,categorization,0,bathroom,SHINEd_sun_aofnryafpsjimzsb.tif,40,0.0666666666666667,0.0666666666666667,0.8,12588.055373584,12589.013461459,9,12588.121538125,12588.188977834,12589.045678584,12589.839017584,0,0.958087875000274
127,38,7,categorization,0,bathroom,SHINEd_sun_akiytfaagpdsphgz.tif,31,0.0666666666666667,0.0666666666666667,1.45,12589.844045084,12591.218745875,13,12589.905767209,12589.966878084,12591.23605125,12592.679436334,1,1.37470079099876
127,39,7,categorization,0,kitchen,SHINEd_sun_auticobqsbwgoppi.tif,104,0.0666666666666667,0.0666666666666667,1.1,12592.696447334,12593.559608625,13,12592.763038625,12592.830410042,12593.587144834,12594.680529042,0,0.863161291001234
127,40,7,categorization,0,bathroom,SHINEd_sun_azqyogdvyhahyram.tif,60,0.0666666666666667,0.0666666666666667,1.16666666666667,12594.689569375,12595.687530375,13,12594.754879417,12594.822883917,12595.712974667,12596.873019459,1,0.997961000000942
127,41,7,categorization,0,bathroom,SHINEd_sun_alotolagknyrgtsk.tif,35,0.0666666666666667,0.0666666666666667,1.31666666666667,12596.885216459,12597.766608792,9,12596.951784417,12597.018856042,12597.792176792,12599.102225042,0,0.881392332999894
127,42,7,categorization,0,kitchen,SHINEd_sun_ahljzhgcdpomplvg.tif,91,0.0666666666666667,0.0666666666666667,1.68333333333333,12599.120192709,12600.157631834,9,12599.187026,12599.253902959,12600.177653375,12601.85435525,1,1.03743912499885
127,43,7,categorization,0,bathroom,SHINEd_sun_axyrejkiiaqiurjk.tif,59,0.0666666666666667,0.0666666666666667,0.966666666666667,12601.871735125,12602.752516292,9,12601.938532709,12602.005332792,12602.779102792,12603.739107167,0,0.880781166999441
127,44,7,categorization,0,bathroom,SHINEd_sun_alkosphxlxwjwgjd.tif,34,0.0666666666666667,0.0666666666666667,1.4,12603.744171792,12604.714550834,13,12603.805791375,12603.86724925,12604.719171167,12606.112546917,1,0.970379042000786
127,45,7,categorization,0,kitchen,SHINEd_sun_ahywdevtimnqcsln.tif,94,0.0666666666666667,0.0666666666666667,0.783333333333333,12606.126832417,12607.0933225,13,12606.194510292,12606.259991084,12607.116358709,12607.893031,0,0.96649008300119
127,46,7,categorization,0,kitchen,SHINEd_sun_admlmbcdswaszruo.tif,79,0.0666666666666667,0.0666666666666667,1.08333333333333,12607.898514084,12608.754438167,9,12607.960235917,12608.021374375,12608.773247125,12609.849948875,1,0.855924082999991
127,47,7,categorization,0,bathroom,SHINEd_sun_apynckhmoftszqoq.tif,47,0.0666666666666667,0.0666666666666667,1.43333333333333,12609.857928167,12610.878447584,13,12609.922526084,12609.991345375,12610.897282167,12612.32399025,1,1.02051941699938
127,48,7,categorization,0,kitchen,SHINEd_sun_agorklincwxrdtga.tif,87,0.0666666666666667,0.0666666666666667,1.75,12612.342140584,12613.1253765,9,12612.407491625,12612.474542959,12613.1476355,12614.891015542,1,0.783235916000194
127,49,7,categorization,0,bathroom,SHINEd_sun_afcoljnjfoxjtgja.tif,20,0.0666666666666667,0.0666666666666667,1.21666666666667,12614.906822,12615.796741584,9,12614.973449875,12615.040072667,12615.812619875,12617.022656959,0,0.889919583998562
127,50,7,categorization,0,bathroom,SHINEd_sun_abapwbhyhkfixyex.tif,14,0.0666666666666667,0.0666666666666667,1.31666666666667,12617.037916417,12618.050255667,13,12617.104703334,12617.171393542,12618.077861709,12619.387906542,1,1.01233924999906
127,1,8,categorization,0,bathroom,SHINEd_sun_avhrdrntsqrjzccq.tif,55,0.0666666666666667,0.0666666666666667,1.18333333333333,12626.024303542,12626.850786167,9,12626.08677725,12626.147235959,12626.865997792,12628.042702459,0,0.826482624999699
127,2,8,categorization,0,bathroom,SHINEd_sun_acegryoqftbzowsg.tif,17,0.0666666666666667,0.0666666666666667,0.983333333333333,12628.054569042,12628.651100292,13,12628.1207785,12628.187863,12628.676925625,12629.653628875,1,0.596531249999316
127,3,8,categorization,0,bathroom,SHINEd_sun_ambriybtogmepttm.tif,36,0.0666666666666667,0.0666666666666667,1.65,12629.669243084,12630.203214,9,12629.73562425,12629.802901,12630.221715667,12631.865097292,0,0.533970915999816
127,4,8,categorization,0,kitchen,SHINEd_sun_aaxxjlsuzvqlgylf.tif,68,0.0666666666666667,0.0666666666666667,1.23333333333333,12631.883373292,12632.445410292,13,12631.950663709,12632.017151417,12632.472405667,12633.699116292,0,0.56203700000151
127,5,8,categorization,0,bathroom,SHINEd_sun_ahijqszoswveeyji.tif,28,0.0666666666666667,0.0666666666666667,0.916666666666667,12633.716755959,12634.234434709,13,12633.783728417,12633.850660209,12634.257563625,12635.167615167,1,0.517678750000414
127,6,8,categorization,0,kitchen,SHINEd_sun_acgtpgfybqjmzeyw.tif,75,0.0666666666666667,0.0666666666666667,1.56666666666667,12635.187342792,12635.939009625,9,12635.254503917,12635.321429375,12635.957119,12637.51717075,1,0.751666833000854
127,7,8,categorization,0,kitchen,SHINEd_sun_aggjlwcdjsjcaemh.tif,86,0.0666666666666667,0.0666666666666667,1.63333333333333,12637.535930667,12638.147883167,9,12637.602647292,12637.669267459,12638.176061709,12639.802770667,1,0.611952499999461
127,8,8,categorization,0,kitchen,SHINEd_sun_ahpczsiumwwocjkv.tif,92,0.0666666666666667,0.0666666666666667,1.1,12639.819491417,12640.454601417,9,12639.886559209,12639.95393775,12640.4759275,12641.569302875,1,0.635109999999258
127,9,8,categorization,0,bathroom,SHINEd_sun_aunuadmjocsddsrl.tif,52,0.0666666666666667,0.0666666666666667,1.38333333333333,12641.580027209,12642.373131292,13,12641.645229375,12641.714083667,12642.384667917,12643.761377292,1,0.793104083000799
127,10,8,categorization,0,kitchen,SHINEd_sun_afuyedyxivkhecmu.tif,85,0.0666666666666667,0.0666666666666667,0.766666666666667,12643.779015792,12644.381563917,9,12643.846925417,12643.912650417,12644.400818459,12645.160863375,1,0.602548124999885
127,11,8,categorization,0,kitchen,SHINEd_labelme_kxvouciolcpqplr.tif,62,0.0666666666666667,0.0666666666666667,1.45,12645.17653075,12646.034777292,9,12645.243285125,12645.310095584,12646.0459605,12647.489338125,1,0.858246541998597
127,12,8,categorization,0,bathroom,SHINEd_labelme_sfxiulhjbhlyiyt.tif,11,0.0666666666666667,0.0666666666666667,0.983333333333333,12647.506583834,12648.426516417,13,12647.57340525,12647.640230292,12648.444700084,12649.421371959,1,0.919932582999536
127,13,8,categorization,0,kitchen,SHINEd_sun_acxkpeoqbwcxfvip.tif,77,0.0666666666666667,0.0666666666666667,0.716666666666667,12649.427462209,12650.043356375,9,12649.489193292,12649.550326417,12650.05236,12650.762365209,1,0.615894165999634
127,14,8,categorization,0,bathroom,SHINEd_sun_ahcvzmoyaycdoftf.tif,27,0.0666666666666667,0.0666666666666667,1.41666666666667,12650.767718584,12651.426307625,13,12650.829375667,12650.8905095,12651.442346959,12652.852398042,1,0.658589041000596
127,15,8,categorization,0,kitchen,SHINEd_sun_awcpdzzznmweyyhv.tif,106,0.0666666666666667,0.0666666666666667,1.21666666666667,12652.869707167,12653.543959542,13,12652.936493042,12653.003879042,12653.559458167,12654.769495792,0,0.674252374999924
127,16,8,categorization,0,kitchen,SHINEd_sun_axyyrmzcupyhlivc.tif,107,0.0666666666666667,0.0666666666666667,1.61666666666667,12654.786402709,12655.250332584,13,12654.853019875,12654.92023825,12655.276791584,12656.8868295,0,0.463929875000758
127,17,8,categorization,0,kitchen,SHINEd_sun_aamedkxepzlwuxes.tif,65,0.0666666666666667,0.0666666666666667,0.783333333333333,12656.903849042,12657.491969,9,12656.970621584,12657.037734834,12657.510528,12658.287245209,1,0.588119957999879
127,18,8,categorization,0,kitchen,SHINEd_sun_ajkqhtgcbgpcwrwn.tif,97,0.0666666666666667,0.0666666666666667,1.98333333333333,12658.303028709,12658.914821,9,12658.367468709,12658.435249417,12658.921132542,12660.897858125,1,0.611792290999801
127,19,8,categorization,0,bathroom,SHINEd_sun_amzlamotzwfkwjco.tif,37,0.0666666666666667,0.0666666666666667,0.983333333333333,12660.915771875,12661.6668615,9,12660.982346625,12661.049526792,12661.689220292,12662.665893125,0,0.751089625000532
127,20,8,categorization,0,bathroom,SHINEd_sun_aqrpegblszgcoujh.tif,48,0.0666666666666667,0.0666666666666667,0.8,12662.67136725,12663.339262459,13,12662.733117792,12662.794221375,12663.3459505,12664.139289459,1,0.667895209000562
127,21,8,categorization,0,kitchen,SHINEd_sun_abrcnpqqhmjwekyf.tif,73,0.0666666666666667,0.0666666666666667,0.733333333333333,12664.14444225,12664.938645292,9,12664.206055667,12664.267255125,12664.952295709,12665.678968125,1,0.794203041999936
127,22,8,categorization,0,kitchen,SHINEd_sun_abdxkyyxwfskuaqb.tif,70,0.0666666666666667,0.0666666666666667,0.966666666666667,12665.684738209,12666.746229375,13,12665.746375667,12665.807631,12666.759503834,12667.719508917,0,1.06149116599954
127,23,8,categorization,0,bathroom,SHINEd_sun_axldvoqbuvuggfmq.tif,57,0.0666666666666667,0.0666666666666667,0.866666666666667,12667.725163417,12668.6753305,9,12667.786849875,12667.848082709,12668.683365917,12669.543372292,0,0.950167082999542
127,24,8,categorization,0,kitchen,SHINEd_sun_ajcbwwvdlsvjyzje.tif,96,0.0666666666666667,0.0666666666666667,1.23333333333333,12669.551166875,12670.307291292,13,12669.612791292,12669.674038084,12670.326323542,12671.553023042,0,0.756124416999228
127,25,8,categorization,0,kitchen,SHINEd_sun_aapllqyqlykszopd.tif,66,0.0666666666666667,0.0666666666666667,1.9,12671.569403417,12671.982446417,13,12671.636617792,12671.703170542,12672.009660375,12673.903027459,0,0.413043000000471
127,26,8,categorization,0,kitchen,SHINEd_sun_aenotlpyftoioydp.tif,82,0.0666666666666667,0.0666666666666667,0.866666666666667,12673.920360875,12675.069538584,13,12673.986907584,12674.0538295,12675.093818709,12675.953825084,0,1.14917770900138
127,27,8,categorization,0,bathroom,SHINEd_sun_abjtwfukuwddzted.tif,15,0.0666666666666667,0.0666666666666667,0.966666666666667,12675.959323459,12676.57122375,9,12676.021024292,12676.082136375,12676.583851584,12677.543858125,0,0.611900290999984
127,28,8,categorization,0,kitchen,SHINEd_sun_aehawpgmrlhlvcow.tif,81,0.0666666666666667,0.0666666666666667,0.916666666666667,12677.550283542,12678.11474325,13,12677.612157459,12677.673100917,12678.125097292,12679.035103459,0,0.564459708000868
127,29,8,categorization,0,kitchen,SHINEd_sun_akchetnepxlcxhsu.tif,98,0.0666666666666667,0.0666666666666667,0.916666666666667,12679.040789625,12679.715188,13,12679.102432709,12679.163624792,12679.732122459,12680.642128292,0,0.674398375000237
127,30,8,categorization,0,kitchen,SHINEd_sun_ahspylgoovwmwvgk.tif,93,0.0666666666666667,0.0666666666666667,1.4,12680.647230917,12681.56298125,9,12680.708866542,12680.770147375,12681.572012917,12682.965403209,1,0.915750332998869
127,31,8,categorization,0,bathroom,SHINEd_sun_aspsyogrekjtfozg.tif,50,0.0666666666666667,0.0666666666666667,1.75,12682.987122584,12684.105953209,13,12683.054055917,12683.120936209,12684.127066,12685.870430167,1,1.11883062500056
127,32,8,categorization,0,bathroom,SHINEd_sun_atstyziqcmkahyxk.tif,51,0.0666666666666667,0.0666666666666667,1.25,12685.887467709,12686.649988125,13,12685.954057125,12686.021238459,12686.6764115,12687.919795459,1,0.762520415999461
127,33,8,categorization,0,bathroom,SHINEd_sun_apeeialkgkuxddgh.tif,42,0.0666666666666667,0.0666666666666667,1.05,12687.93442275,12688.7474585,13,12688.0011245,12688.068108125,12688.77510825,12689.81849,1,0.813035749999472
127,34,8,categorization,0,kitchen,SHINEd_sun_aegoxogugdkwpmpj.tif,80,0.0666666666666667,0.0666666666666667,1.06666666666667,12689.828582709,12690.69996325,9,12689.893190042,12689.962529167,12690.718704875,12691.778747792,1,0.871380540998871
127,35,8,categorization,0,kitchen,SHINEd_sun_adgqasybjyktddhj.tif,78,0.0666666666666667,0.0666666666666667,1.21666666666667,12691.795903167,12692.338615375,13,12691.862535417,12691.928187584,12692.347523209,12693.557563209,0,0.542712208000012
127,36,8,categorization,0,bathroom,SHINEd_sun_ahqjwnzgolcaoidx.tif,29,0.0666666666666667,0.0666666666666667,0.95,12693.575129375,12694.091170584,9,12693.642280167,12693.709133,12694.115974959,12695.059354792,0,0.516041209000832
127,37,8,categorization,0,kitchen,SHINEd_sun_acfmftudsenhrfhy.tif,74,0.0666666666666667,0.0666666666666667,0.9,12695.076495042,12695.87467575,9,12695.143610042,12695.210282292,12695.879591625,12696.772931,1,0.798180707999563
127,38,8,categorization,0,kitchen,SHINEd_sun_acwjdupvyjsugpay.tif,76,0.0666666666666667,0.0666666666666667,1.78333333333333,12696.778363375,12697.523208084,9,12696.840008292,12696.901231,12697.536839375,12699.313545167,1,0.744844708999153
127,39,8,categorization,0,kitchen,SHINEd_sun_agzzivivdpnawacl.tif,89,0.0666666666666667,0.0666666666666667,1.16666666666667,12699.331025584,12700.245125042,13,12699.397225709,12699.464319167,12700.270397875,12701.430451417,0,0.914099457999328
127,40,8,categorization,0,bathroom,SHINEd_sun_aoybiabnpadelefl.tif,41,0.0666666666666667,0.0666666666666667,0.783333333333333,12701.440276209,12702.303102167,13,12701.505663125,12701.573927584,12702.330392917,12703.107110459,1,0.86282595800003
127,41,8,categorization,0,bathroom,SHINEd_sun_agrwbmhcpmfuwmsg.tif,24,0.0666666666666667,0.0666666666666667,1.23333333333333,12703.12336725,12703.834937709,13,12703.18988525,12703.257203875,12703.843015834,12705.069723167,1,0.711570458999631
127,42,8,categorization,0,kitchen,SHINEd_sun_abftihopvusyfakt.tif,71,0.0666666666666667,0.0666666666666667,0.9,12705.086129084,12705.814036584,9,12705.152999209,12705.219842959,12705.843203834,12706.736588292,1,0.727907500000583
127,43,8,categorization,0,bathroom,SHINEd_sun_axxbkopsgyouuebh.tif,58,0.0666666666666667,0.0666666666666667,0.7,12706.752667959,12707.466586792,13,12706.819281959,12706.886166625,12707.471991542,12708.165332042,1,0.713918833000207
127,44,8,categorization,0,kitchen,SHINEd_sun_aadbddgrdsjugojn.tif,64,0.0666666666666667,0.0666666666666667,1.23333333333333,12708.17096925,12708.898117167,9,12708.232585667,12708.293812917,12708.912882584,12710.139584084,1,0.727147916999456
127,45,8,categorization,0,bathroom,SHINEd_sun_ahaulkltgpkeeemi.tif,26,0.0666666666666667,0.0666666666666667,1,12710.156868959,12710.88036,13,12710.223480542,12710.290411,12710.896314375,12711.889701042,1,0.723491040998852
127,46,8,categorization,0,kitchen,SHINEd_sun_aypmqwcualkenuoe.tif,109,0.0666666666666667,0.0666666666666667,1.38333333333333,12711.905172584,12712.610118,13,12711.967800334,12712.028167,12712.613196209,12713.989912792,0,0.704945416000555
127,47,8,categorization,0,bathroom,SHINEd_sun_apkxzenqapsujocq.tif,45,0.0666666666666667,0.0666666666666667,1.3,12714.007738167,12714.968518667,13,12714.074470334,12714.141361875,12714.99792,12716.291305875,1,0.960780499999601
127,48,8,categorization,0,bathroom,SHINEd_sun_aavhrsfjbserjtht.tif,13,0.0666666666666667,0.0666666666666667,0.833333333333333,12716.30961575,12718.282068792,13,12716.374513084,12716.441657709,12718.294507792,12719.121180209,1,1.97245304199896
127,49,8,categorization,0,kitchen,SHINEd_sun_aarfiyshqohlwkmo.tif,67,0.0666666666666667,0.0666666666666667,0.95,12719.126735084,12721.410383625,9,12719.188645875,12719.249573834,12721.419040375,12722.362380417,1,2.28364854099891
127,50,8,categorization,0,bathroom,SHINEd_sun_acgyywnybuveqsro.tif,18,0.0666666666666667,0.0666666666666667,1.43333333333333,12722.367392792,12723.330163792,13,12722.429170209,12722.490177042,12723.341983792,12724.768702709,1,0.962770999998611
127,1,9,categorization,0,bathroom,SHINEd_sun_aleqenyvunhactkl.tif,32,0.0666666666666667,0.0666666666666667,1.08333333333333,12751.296409334,12751.858304417,13,12751.358962084,12751.419333,12751.870999834,12752.947714292,1,0.561895083001218
