sub_num,trial,block,task,is_practice,category,image,texture,duration,mask_dur,jitter,stim_time,time_of_resp,trial_response,mask_time,fix_time,jit_onset,trial_end,trial_accuracy,RT
127,1,23,categorization,0,kitchen,SHINEd_sun_aeqdocilnnpuvuhx.tif,83,0.0666666666666667,0.0666666666666667,0.916666666666667,14470.343963042,14474.34034025,13,14470.40591625,14470.466923875,14474.357007917,14475.267014167,0,3.99637720800092
127,2,23,categorization,0,bathroom,SHINEd_sun_agrwbmhcpmfuwmsg.tif,24,0.0666666666666667,0.0666666666666667,1.61666666666667,14475.272126417,14476.41149275,13,14475.333796584,14475.395003584,14476.430264334,14478.04030275,1,1.139366333
127,3,23,categorization,0,bathroom,SHINEd_sun_afcoljnjfoxjtgja.tif,20,0.0666666666666667,0.0666666666666667,1.05,14478.057697959,14479.073951667,13,14478.124163667,14478.191123667,14479.097413834,14480.140792042,1,1.01625370799957
127,4,23,categorization,0,kitchen,SHINEd_sun_avszsnwsbuqfgzbn.tif,105,0.0666666666666667,0.0666666666666667,1.76666666666667,14480.149451667,14481.630520542,13,14480.213599,14480.281434125,14481.656562542,14483.416611334,0,1.48106887499853
127,5,23,categorization,0,kitchen,SHINEd_sun_aggjlwcdjsjcaemh.tif,86,0.0666666666666667,0.0666666666666667,0.816666666666667,14483.434835,14484.119318042,9,14483.501813417,14483.568367084,14484.141346625,14484.951352459,1,0.684483041999556
127,6,23,categorization,0,bathroom,SHINEd_sun_aleqenyvunhactkl.tif,32,0.0666666666666667,0.0666666666666667,1.65,14484.958763792,14485.931894584,13,14485.02046975,14485.081882167,14485.950772167,14487.594155709,1,0.973130792001029
127,7,23,categorization,0,kitchen,SHINEd_sun_aegoxogugdkwpmpj.tif,80,0.0666666666666667,0.0666666666666667,1.65,14487.610866959,14488.270292667,9,14487.677807375,14487.744427084,14488.300962584,14489.944330834,1,0.659425708001436
127,8,23,categorization,0,bathroom,SHINEd_sun_aavhrsfjbserjtht.tif,13,0.0666666666666667,0.0666666666666667,1.21666666666667,14489.961414792,14490.695756834,9,14490.028151542,14490.095043125,14490.71872475,14491.928775417,0,0.734342042000208
127,9,23,categorization,0,kitchen,SHINEd_sun_aehawpgmrlhlvcow.tif,81,0.0666666666666667,0.0666666666666667,0.933333333333333,14491.944319625,14492.752201084,9,14492.010944292,14492.078147625,14492.767919625,14493.694619375,1,0.807881459000782
127,10,23,categorization,0,kitchen,SHINEd_sun_adgqasybjyktddhj.tif,78,0.0666666666666667,0.0666666666666667,0.933333333333333,14493.711033167,14494.331603667,9,14493.777946834,14493.83629625,14494.338113875,14495.264785584,1,0.620570500001122
127,11,23,categorization,0,bathroom,SHINEd_sun_aofnryafpsjimzsb.tif,40,0.0666666666666667,0.0666666666666667,0.983333333333333,14495.26968075,14496.084087125,9,14495.331444459,14495.392550292,14496.09457775,14497.071249334,0,0.814406375000544
127,12,23,categorization,0,bathroom,SHINEd_sun_aapitsgbtktqubfy.tif,12,0.0666666666666667,0.0666666666666667,1.03333333333333,14497.076249792,14497.690992209,9,14497.137858625,14497.199039292,14497.701196875,14498.727909959,0,0.614742416999434
127,13,23,categorization,0,kitchen,SHINEd_sun_aamedkxepzlwuxes.tif,65,0.0666666666666667,0.0666666666666667,1.35,14498.737915709,14499.341082959,9,14498.802684,14498.870714,14499.359993292,14500.703360584,1,0.603167249999387
127,14,23,categorization,0,kitchen,SHINEd_sun_aaxxjlsuzvqlgylf.tif,68,0.0666666666666667,0.0666666666666667,0.95,14500.720138875,14501.283233292,9,14500.782659334,14500.843026292,14501.294675,14502.238015667,1,0.563094417000684
127,15,23,categorization,0,kitchen,SHINEd_sun_admlmbcdswaszruo.tif,79,0.0666666666666667,0.0666666666666667,1.58333333333333,14502.2436755,14502.83526,9,14502.305255417,14502.366581084,14502.852050375,14504.428758,1,0.591584499999954
127,16,23,categorization,0,bathroom,SHINEd_sun_acduarbnmmoglmiv.tif,16,0.0666666666666667,0.0666666666666667,0.766666666666667,14504.437974042,14505.084245417,9,14504.502172417,14504.571352584,14505.111324875,14505.871378292,0,0.646271374998832
127,17,23,categorization,0,kitchen,SHINEd_sun_auaiucuqpdausiva.tif,102,0.0666666666666667,0.0666666666666667,1.8,14505.88395375,14506.628185792,9,14505.946475209,14506.006934792,14506.642115875,14508.435479667,1,0.744232041999567
127,18,23,categorization,0,bathroom,SHINEd_sun_azqyogdvyhahyram.tif,60,0.0666666666666667,0.0666666666666667,0.95,14508.445514584,14509.290905417,13,14508.509779584,14508.579548959,14509.319580709,14510.262917834,1,0.845390832999328
127,19,23,categorization,0,bathroom,SHINEd_sun_aunuadmjocsddsrl.tif,52,0.0666666666666667,0.0666666666666667,1.45,14510.267879,14510.987629709,9,14510.329459,14510.390738209,14510.992842792,14512.436213625,0,0.719750708998617
127,20,23,categorization,0,kitchen,SHINEd_sun_aadbddgrdsjugojn.tif,64,0.0666666666666667,0.0666666666666667,1.15,14512.446613584,14513.203151,9,14512.512486917,14512.580305459,14513.219117709,14514.362504209,1,0.756537416000356
127,21,23,categorization,0,kitchen,SHINEd_sun_aqeaevwwwjoqhzvl.tif,101,0.0666666666666667,0.0666666666666667,0.733333333333333,14514.370925875,14514.971032,9,14514.435776834,14514.503086667,14514.992193417,14515.71889225,1,0.600106124999002
127,22,23,categorization,0,bathroom,SHINEd_sun_apkruvsevgegsdwp.tif,44,0.0666666666666667,0.0666666666666667,0.933333333333333,14515.730347834,14516.603164625,13,14515.797088375,14515.864331042,14516.616334834,14517.543008459,1,0.872816790999423
127,23,23,categorization,0,bathroom,SHINEd_sun_abjtwfukuwddzted.tif,15,0.0666666666666667,0.0666666666666667,1.33333333333333,14517.548647709,14518.331875625,9,14517.610301667,14517.671603292,14518.340566167,14519.66727825,0,0.783227915999305
127,24,23,categorization,0,bathroom,SHINEd_sun_ahaulkltgpkeeemi.tif,26,0.0666666666666667,0.0666666666666667,1.91666666666667,14519.680200334,14520.508190459,13,14519.746708959,14519.814107959,14520.518326875,14522.42837225,1,0.827990125000724
127,25,23,categorization,0,kitchen,SHINEd_sun_acwjdupvyjsugpay.tif,76,0.0666666666666667,0.0666666666666667,1.6,14522.438349459,14523.124076375,9,14522.502936584,14522.571797917,14523.144533042,14524.737902084,1,0.685726915999112
127,26,23,categorization,0,kitchen,SHINEd_labelme_rykdqxenmhulbdn.tif,63,0.0666666666666667,0.0666666666666667,2,14524.755787584,14525.508073459,9,14524.822246917,14524.889242875,14525.529467667,14527.522866959,1,0.75228587499987
127,27,23,categorization,0,kitchen,SHINEd_sun_ahdycvpopffkzzsu.tif,90,0.0666666666666667,0.0666666666666667,1.06666666666667,14527.540998792,14528.303072625,9,14527.608009417,14527.674898875,14528.330844417,14529.390896292,1,0.762073833000613
127,28,23,categorization,0,bathroom,SHINEd_sun_anryaplzeujmzfkd.tif,39,0.0666666666666667,0.0666666666666667,1.28333333333333,14529.400211125,14530.275185084,9,14529.464883667,14529.531417875,14530.304891917,14531.581594334,0,0.874973959000272
127,29,23,categorization,0,bathroom,SHINEd_labelme_sfxiulhjbhlyiyt.tif,11,0.0666666666666667,0.0666666666666667,0.95,14531.599107625,14532.478749667,13,14531.665898209,14531.733169,14532.505432125,14533.448811625,1,0.879642042000341
127,30,23,categorization,0,kitchen,SHINEd_sun_ahljzhgcdpomplvg.tif,91,0.0666666666666667,0.0666666666666667,0.9,14533.466370334,14534.314923459,9,14533.533204875,14533.592096042,14534.327721709,14535.221060792,1,0.848553125000763
127,31,23,categorization,0,kitchen,SHINEd_sun_aenotlpyftoioydp.tif,82,0.0666666666666667,0.0666666666666667,0.716666666666667,14535.226359292,14538.275564,9,14535.28808475,14535.349224125,14538.285346667,14538.995352042,1,3.0492047079988
127,32,23,categorization,0,kitchen,SHINEd_sun_ahpczsiumwwocjkv.tif,92,0.0666666666666667,0.0666666666666667,0.866666666666667,14539.00103225,14539.828070042,9,14539.062692375,14539.123854292,14539.842587375,14540.702592584,1,0.827037791999828
127,33,23,categorization,0,kitchen,SHINEd_sun_abftihopvusyfakt.tif,71,0.0666666666666667,0.0666666666666667,1.11666666666667,14540.708851834,14541.291536917,9,14540.770491667,14540.831662375,14541.300111,14542.410157584,1,0.582685082999888
127,34,23,categorization,0,bathroom,SHINEd_sun_aspsyogrekjtfozg.tif,50,0.0666666666666667,0.0666666666666667,0.866666666666667,14542.417932334,14543.220568959,13,14542.481984209,14542.546616167,14543.235506542,14544.095548209,1,0.80263662499965
127,35,23,categorization,0,kitchen,SHINEd_sun_azmutvzbxypaceni.tif,110,0.0666666666666667,0.0666666666666667,1.83333333333333,14544.110961375,14544.843895959,9,14544.1774635,14544.244637292,14544.863635417,14546.690360959,1,0.732934584000759
127,36,23,categorization,0,kitchen,SHINEd_labelme_kxvouciolcpqplr.tif,62,0.0666666666666667,0.0666666666666667,0.85,14546.704546292,14547.539093417,9,14546.770719042,14546.838015042,14547.560793667,14548.404131125,1,0.834547124999517
127,37,23,categorization,0,bathroom,SHINEd_sun_alkosphxlxwjwgjd.tif,34,0.0666666666666667,0.0666666666666667,1.76666666666667,14548.409286375,14549.364037542,9,14548.470989375,14548.532213334,14549.367582834,14551.127617417,0,0.954751167000722
127,38,23,categorization,0,bathroom,SHINEd_sun_avhrdrntsqrjzccq.tif,55,0.0666666666666667,0.0666666666666667,1.9,14551.144228,14551.989056875,9,14551.210947959,14551.277981959,14552.017928334,14553.9113125,0,0.84482887500053
127,39,23,categorization,0,kitchen,SHINEd_labelme_brsyyvweiuaazfr.tif,61,0.0666666666666667,0.0666666666666667,1.61666666666667,14553.926016417,14554.740729959,9,14553.992532875,14554.059746,14554.766859875,14556.376906709,1,0.814713542000391
127,40,23,categorization,0,kitchen,SHINEd_sun_abdxkyyxwfskuaqb.tif,70,0.0666666666666667,0.0666666666666667,1.21666666666667,14556.386710125,14557.396277292,9,14556.451634459,14556.519411459,14557.426313459,14558.63634625,1,1.00956716700057
127,41,23,categorization,0,bathroom,SHINEd_sun_aqrpegblszgcoujh.tif,48,0.0666666666666667,0.0666666666666667,1.2,14558.654340334,14559.51278425,13,14558.722477375,14558.787942834,14559.526272334,14560.719640084,1,0.858443916000397
127,42,23,categorization,0,kitchen,SHINEd_sun_agorklincwxrdtga.tif,87,0.0666666666666667,0.0666666666666667,1.05,14560.737761042,14561.493794459,9,14560.804297959,14560.870960709,14561.510199792,14562.553577167,1,0.756033416999344
127,43,23,categorization,0,bathroom,SHINEd_sun_anhioqovhscjqqwb.tif,38,0.0666666666666667,0.0666666666666667,1.01666666666667,14562.570643542,14563.4194025,13,14562.637425375,14562.695934917,14563.431087125,14564.441128959,1,0.848758957999962
127,44,23,categorization,0,kitchen,SHINEd_sun_acxkpeoqbwcxfvip.tif,77,0.0666666666666667,0.0666666666666667,1.43333333333333,14564.449255292,14565.311505209,9,14564.513356334,14564.581046417,14565.337863875,14566.764575625,1,0.862249916999644
127,45,23,categorization,0,bathroom,SHINEd_sun_aljolscmmzydegqp.tif,33,0.0666666666666667,0.0666666666666667,1.5,14566.779308375,14567.704077584,9,14566.845830917,14566.91282075,14567.718598292,14569.211989042,0,0.924769208999351
127,46,23,categorization,0,bathroom,SHINEd_sun_auzqhkafidnkrwmo.tif,54,0.0666666666666667,0.0666666666666667,1.21666666666667,14569.228849292,14570.116244667,13,14569.295662,14569.362739375,14570.135659792,14571.345694292,1,0.887395375000779
127,47,23,categorization,0,kitchen,SHINEd_sun_aymvwlarqodbwuoc.tif,108,0.0666666666666667,0.0666666666666667,0.916666666666667,14571.363695875,14572.144429792,9,14571.430285709,14571.4976665,14572.171379959,14573.081428792,1,0.780733917001271
127,48,23,categorization,0,kitchen,SHINEd_sun_aypmqwcualkenuoe.tif,109,0.0666666666666667,0.0666666666666667,0.716666666666667,14573.098547625,14574.01143825,9,14573.165686834,14573.231076459,14574.016693875,14574.726698542,1,0.912890624998909
127,49,23,categorization,0,kitchen,SHINEd_sun_agzzivivdpnawacl.tif,89,0.0666666666666667,0.0666666666666667,1.18333333333333,14574.731699834,14575.491536292,9,14574.793335834,14574.85451975,14575.506864209,14576.683582459,1,0.759836458000791
127,50,23,categorization,0,bathroom,SHINEd_sun_apynckhmoftszqoq.tif,47,0.0666666666666667,0.0666666666666667,0.766666666666667,14576.693307875,14577.5370275,9,14576.759779375,14576.826987834,14577.566909875,14578.32696625,0,0.843719624999721
