sub_num,trial,block,task,is_practice,category,image,texture,duration,mask_dur,jitter,stim_time,time_of_resp,trial_response,mask_time,fix_time,jit_onset,trial_end,trial_accuracy,RT
127,1,8,categorization,0,bathroom,SHINEd_sun_avhrdrntsqrjzccq.tif,55,0.0666666666666667,0.0666666666666667,1.18333333333333,12626.024303542,12626.850786167,9,12626.08677725,12626.147235959,12626.865997792,12628.042702459,0,0.826482624999699
127,2,8,categorization,0,bathroom,SHINEd_sun_acegryoqftbzowsg.tif,17,0.0666666666666667,0.0666666666666667,0.983333333333333,12628.054569042,12628.651100292,13,12628.1207785,12628.187863,12628.676925625,12629.653628875,1,0.596531249999316
127,3,8,categorization,0,bathroom,SHINEd_sun_ambriybtogmepttm.tif,36,0.0666666666666667,0.0666666666666667,1.65,12629.669243084,12630.203214,9,12629.73562425,12629.802901,12630.221715667,12631.865097292,0,0.533970915999816
127,4,8,categorization,0,kitchen,SHINEd_sun_aaxxjlsuzvqlgylf.tif,68,0.0666666666666667,0.0666666666666667,1.23333333333333,12631.883373292,12632.445410292,13,12631.950663709,12632.017151417,12632.472405667,12633.699116292,0,0.56203700000151
127,5,8,categorization,0,bathroom,SHINEd_sun_ahijqszoswveeyji.tif,28,0.0666666666666667,0.0666666666666667,0.916666666666667,12633.716755959,12634.234434709,13,12633.783728417,12633.850660209,12634.257563625,12635.167615167,1,0.517678750000414
127,6,8,categorization,0,kitchen,SHINEd_sun_acgtpgfybqjmzeyw.tif,75,0.0666666666666667,0.0666666666666667,1.56666666666667,12635.187342792,12635.939009625,9,12635.254503917,12635.321429375,12635.957119,12637.51717075,1,0.751666833000854
127,7,8,categorization,0,kitchen,SHINEd_sun_aggjlwcdjsjcaemh.tif,86,0.0666666666666667,0.0666666666666667,1.63333333333333,12637.535930667,12638.147883167,9,12637.602647292,12637.669267459,12638.176061709,12639.802770667,1,0.611952499999461
127,8,8,categorization,0,kitchen,SHINEd_sun_ahpczsiumwwocjkv.tif,92,0.0666666666666667,0.0666666666666667,1.1,12639.819491417,12640.454601417,9,12639.886559209,12639.95393775,12640.4759275,12641.569302875,1,0.635109999999258
127,9,8,categorization,0,bathroom,SHINEd_sun_aunuadmjocsddsrl.tif,52,0.0666666666666667,0.0666666666666667,1.38333333333333,12641.580027209,12642.373131292,13,12641.645229375,12641.714083667,12642.384667917,12643.761377292,1,0.793104083000799
127,10,8,categorization,0,kitchen,SHINEd_sun_afuyedyxivkhecmu.tif,85,0.0666666666666667,0.0666666666666667,0.766666666666667,12643.779015792,12644.381563917,9,12643.846925417,12643.912650417,12644.400818459,12645.160863375,1,0.602548124999885
127,11,8,categorization,0,kitchen,SHINEd_labelme_kxvouciolcpqplr.tif,62,0.0666666666666667,0.0666666666666667,1.45,12645.17653075,12646.034777292,9,12645.243285125,12645.310095584,12646.0459605,12647.489338125,1,0.858246541998597
127,12,8,categorization,0,bathroom,SHINEd_labelme_sfxiulhjbhlyiyt.tif,11,0.0666666666666667,0.0666666666666667,0.983333333333333,12647.506583834,12648.426516417,13,12647.57340525,12647.640230292,12648.444700084,12649.421371959,1,0.919932582999536
127,13,8,categorization,0,kitchen,SHINEd_sun_acxkpeoqbwcxfvip.tif,77,0.0666666666666667,0.0666666666666667,0.716666666666667,12649.427462209,12650.043356375,9,12649.489193292,12649.550326417,12650.05236,12650.762365209,1,0.615894165999634
127,14,8,categorization,0,bathroom,SHINEd_sun_ahcvzmoyaycdoftf.tif,27,0.0666666666666667,0.0666666666666667,1.41666666666667,12650.767718584,12651.426307625,13,12650.829375667,12650.8905095,12651.442346959,12652.852398042,1,0.658589041000596
127,15,8,categorization,0,kitchen,SHINEd_sun_awcpdzzznmweyyhv.tif,106,0.0666666666666667,0.0666666666666667,1.21666666666667,12652.869707167,12653.543959542,13,12652.936493042,12653.003879042,12653.559458167,12654.769495792,0,0.674252374999924
127,16,8,categorization,0,kitchen,SHINEd_sun_axyyrmzcupyhlivc.tif,107,0.0666666666666667,0.0666666666666667,1.61666666666667,12654.786402709,12655.250332584,13,12654.853019875,12654.92023825,12655.276791584,12656.8868295,0,0.463929875000758
127,17,8,categorization,0,kitchen,SHINEd_sun_aamedkxepzlwuxes.tif,65,0.0666666666666667,0.0666666666666667,0.783333333333333,12656.903849042,12657.491969,9,12656.970621584,12657.037734834,12657.510528,12658.287245209,1,0.588119957999879
127,18,8,categorization,0,kitchen,SHINEd_sun_ajkqhtgcbgpcwrwn.tif,97,0.0666666666666667,0.0666666666666667,1.98333333333333,12658.303028709,12658.914821,9,12658.367468709,12658.435249417,12658.921132542,12660.897858125,1,0.611792290999801
127,19,8,categorization,0,bathroom,SHINEd_sun_amzlamotzwfkwjco.tif,37,0.0666666666666667,0.0666666666666667,0.983333333333333,12660.915771875,12661.6668615,9,12660.982346625,12661.049526792,12661.689220292,12662.665893125,0,0.751089625000532
127,20,8,categorization,0,bathroom,SHINEd_sun_aqrpegblszgcoujh.tif,48,0.0666666666666667,0.0666666666666667,0.8,12662.67136725,12663.339262459,13,12662.733117792,12662.794221375,12663.3459505,12664.139289459,1,0.667895209000562
127,21,8,categorization,0,kitchen,SHINEd_sun_abrcnpqqhmjwekyf.tif,73,0.0666666666666667,0.0666666666666667,0.733333333333333,12664.14444225,12664.938645292,9,12664.206055667,12664.267255125,12664.952295709,12665.678968125,1,0.794203041999936
127,22,8,categorization,0,kitchen,SHINEd_sun_abdxkyyxwfskuaqb.tif,70,0.0666666666666667,0.0666666666666667,0.966666666666667,12665.684738209,12666.746229375,13,12665.746375667,12665.807631,12666.759503834,12667.719508917,0,1.06149116599954
127,23,8,categorization,0,bathroom,SHINEd_sun_axldvoqbuvuggfmq.tif,57,0.0666666666666667,0.0666666666666667,0.866666666666667,12667.725163417,12668.6753305,9,12667.786849875,12667.848082709,12668.683365917,12669.543372292,0,0.950167082999542
127,24,8,categorization,0,kitchen,SHINEd_sun_ajcbwwvdlsvjyzje.tif,96,0.0666666666666667,0.0666666666666667,1.23333333333333,12669.551166875,12670.307291292,13,12669.612791292,12669.674038084,12670.326323542,12671.553023042,0,0.756124416999228
127,25,8,categorization,0,kitchen,SHINEd_sun_aapllqyqlykszopd.tif,66,0.0666666666666667,0.0666666666666667,1.9,12671.569403417,12671.982446417,13,12671.636617792,12671.703170542,12672.009660375,12673.903027459,0,0.413043000000471
127,26,8,categorization,0,kitchen,SHINEd_sun_aenotlpyftoioydp.tif,82,0.0666666666666667,0.0666666666666667,0.866666666666667,12673.920360875,12675.069538584,13,12673.986907584,12674.0538295,12675.093818709,12675.953825084,0,1.14917770900138
127,27,8,categorization,0,bathroom,SHINEd_sun_abjtwfukuwddzted.tif,15,0.0666666666666667,0.0666666666666667,0.966666666666667,12675.959323459,12676.57122375,9,12676.021024292,12676.082136375,12676.583851584,12677.543858125,0,0.611900290999984
127,28,8,categorization,0,kitchen,SHINEd_sun_aehawpgmrlhlvcow.tif,81,0.0666666666666667,0.0666666666666667,0.916666666666667,12677.550283542,12678.11474325,13,12677.612157459,12677.673100917,12678.125097292,12679.035103459,0,0.564459708000868
127,29,8,categorization,0,kitchen,SHINEd_sun_akchetnepxlcxhsu.tif,98,0.0666666666666667,0.0666666666666667,0.916666666666667,12679.040789625,12679.715188,13,12679.102432709,12679.163624792,12679.732122459,12680.642128292,0,0.674398375000237
127,30,8,categorization,0,kitchen,SHINEd_sun_ahspylgoovwmwvgk.tif,93,0.0666666666666667,0.0666666666666667,1.4,12680.647230917,12681.56298125,9,12680.708866542,12680.770147375,12681.572012917,12682.965403209,1,0.915750332998869
127,31,8,categorization,0,bathroom,SHINEd_sun_aspsyogrekjtfozg.tif,50,0.0666666666666667,0.0666666666666667,1.75,12682.987122584,12684.105953209,13,12683.054055917,12683.120936209,12684.127066,12685.870430167,1,1.11883062500056
127,32,8,categorization,0,bathroom,SHINEd_sun_atstyziqcmkahyxk.tif,51,0.0666666666666667,0.0666666666666667,1.25,12685.887467709,12686.649988125,13,12685.954057125,12686.021238459,12686.6764115,12687.919795459,1,0.762520415999461
127,33,8,categorization,0,bathroom,SHINEd_sun_apeeialkgkuxddgh.tif,42,0.0666666666666667,0.0666666666666667,1.05,12687.93442275,12688.7474585,13,12688.0011245,12688.068108125,12688.77510825,12689.81849,1,0.813035749999472
127,34,8,categorization,0,kitchen,SHINEd_sun_aegoxogugdkwpmpj.tif,80,0.0666666666666667,0.0666666666666667,1.06666666666667,12689.828582709,12690.69996325,9,12689.893190042,12689.962529167,12690.718704875,12691.778747792,1,0.871380540998871
127,35,8,categorization,0,kitchen,SHINEd_sun_adgqasybjyktddhj.tif,78,0.0666666666666667,0.0666666666666667,1.21666666666667,12691.795903167,12692.338615375,13,12691.862535417,12691.928187584,12692.347523209,12693.557563209,0,0.542712208000012
127,36,8,categorization,0,bathroom,SHINEd_sun_ahqjwnzgolcaoidx.tif,29,0.0666666666666667,0.0666666666666667,0.95,12693.575129375,12694.091170584,9,12693.642280167,12693.709133,12694.115974959,12695.059354792,0,0.516041209000832
127,37,8,categorization,0,kitchen,SHINEd_sun_acfmftudsenhrfhy.tif,74,0.0666666666666667,0.0666666666666667,0.9,12695.076495042,12695.87467575,9,12695.143610042,12695.210282292,12695.879591625,12696.772931,1,0.798180707999563
127,38,8,categorization,0,kitchen,SHINEd_sun_acwjdupvyjsugpay.tif,76,0.0666666666666667,0.0666666666666667,1.78333333333333,12696.778363375,12697.523208084,9,12696.840008292,12696.901231,12697.536839375,12699.313545167,1,0.744844708999153
127,39,8,categorization,0,kitchen,SHINEd_sun_agzzivivdpnawacl.tif,89,0.0666666666666667,0.0666666666666667,1.16666666666667,12699.331025584,12700.245125042,13,12699.397225709,12699.464319167,12700.270397875,12701.430451417,0,0.914099457999328
127,40,8,categorization,0,bathroom,SHINEd_sun_aoybiabnpadelefl.tif,41,0.0666666666666667,0.0666666666666667,0.783333333333333,12701.440276209,12702.303102167,13,12701.505663125,12701.573927584,12702.330392917,12703.107110459,1,0.86282595800003
127,41,8,categorization,0,bathroom,SHINEd_sun_agrwbmhcpmfuwmsg.tif,24,0.0666666666666667,0.0666666666666667,1.23333333333333,12703.12336725,12703.834937709,13,12703.18988525,12703.257203875,12703.843015834,12705.069723167,1,0.711570458999631
127,42,8,categorization,0,kitchen,SHINEd_sun_abftihopvusyfakt.tif,71,0.0666666666666667,0.0666666666666667,0.9,12705.086129084,12705.814036584,9,12705.152999209,12705.219842959,12705.843203834,12706.736588292,1,0.727907500000583
127,43,8,categorization,0,bathroom,SHINEd_sun_axxbkopsgyouuebh.tif,58,0.0666666666666667,0.0666666666666667,0.7,12706.752667959,12707.466586792,13,12706.819281959,12706.886166625,12707.471991542,12708.165332042,1,0.713918833000207
127,44,8,categorization,0,kitchen,SHINEd_sun_aadbddgrdsjugojn.tif,64,0.0666666666666667,0.0666666666666667,1.23333333333333,12708.17096925,12708.898117167,9,12708.232585667,12708.293812917,12708.912882584,12710.139584084,1,0.727147916999456
127,45,8,categorization,0,bathroom,SHINEd_sun_ahaulkltgpkeeemi.tif,26,0.0666666666666667,0.0666666666666667,1,12710.156868959,12710.88036,13,12710.223480542,12710.290411,12710.896314375,12711.889701042,1,0.723491040998852
127,46,8,categorization,0,kitchen,SHINEd_sun_aypmqwcualkenuoe.tif,109,0.0666666666666667,0.0666666666666667,1.38333333333333,12711.905172584,12712.610118,13,12711.967800334,12712.028167,12712.613196209,12713.989912792,0,0.704945416000555
127,47,8,categorization,0,bathroom,SHINEd_sun_apkxzenqapsujocq.tif,45,0.0666666666666667,0.0666666666666667,1.3,12714.007738167,12714.968518667,13,12714.074470334,12714.141361875,12714.99792,12716.291305875,1,0.960780499999601
127,48,8,categorization,0,bathroom,SHINEd_sun_aavhrsfjbserjtht.tif,13,0.0666666666666667,0.0666666666666667,0.833333333333333,12716.30961575,12718.282068792,13,12716.374513084,12716.441657709,12718.294507792,12719.121180209,1,1.97245304199896
127,49,8,categorization,0,kitchen,SHINEd_sun_aarfiyshqohlwkmo.tif,67,0.0666666666666667,0.0666666666666667,0.95,12719.126735084,12721.410383625,9,12719.188645875,12719.249573834,12721.419040375,12722.362380417,1,2.28364854099891
127,50,8,categorization,0,bathroom,SHINEd_sun_acgyywnybuveqsro.tif,18,0.0666666666666667,0.0666666666666667,1.43333333333333,12722.367392792,12723.330163792,13,12722.429170209,12722.490177042,12723.341983792,12724.768702709,1,0.962770999998611
