sub_num,trial,block,task,is_practice,category,image,texture,duration,mask_dur,jitter,stim_time,time_of_resp,trial_response,mask_time,fix_time,jit_onset,trial_end,trial_accuracy,RT
119,1,1,familiarity,0,bathroom,sun_ahcvzmoyaycdoftf.tif,137,1.5,0,2,1501852.0534908,1501853.5588026,53,NaN,1501853.5580077,1501853.5837516,1501855.5821995,NaN,NaN
119,2,1,familiarity,0,bathroom,sun_aggnnqpdorgxpvce.tif,131,1.5,0,1.81666666666667,1501855.5911674,NaN,NaN,NaN,1501857.0956507,NaN,NaN,NaN,NaN
119,3,1,familiarity,0,bathroom,sun_aclfzgynxzxlbepz.tif,129,1.5,0,0.75,NaN,NaN,NaN,NaN,NaN,NaN,NaN,NaN,NaN
119,4,1,familiarity,0,bathroom,sun_apmqjbnwghzuhhzh.tif,156,1.5,0,1.26666666666667,NaN,NaN,NaN,NaN,NaN,NaN,NaN,NaN,NaN
119,5,1,familiarity,0,bathroom,sun_acegryoqftbzowsg.tif,127,1.5,0,1.76666666666667,NaN,NaN,NaN,NaN,NaN,NaN,NaN,NaN,NaN
119,6,1,familiarity,0,bathroom,sun_alkosphxlxwjwgjd.tif,144,1.5,0,1.46666666666667,NaN,NaN,NaN,NaN,NaN,NaN,NaN,NaN,NaN
119,7,1,familiarity,0,bathroom,sun_acgyywnybuveqsro.tif,128,1.5,0,1.28333333333333,NaN,NaN,NaN,NaN,NaN,NaN,NaN,NaN,NaN
119,8,1,familiarity,0,bathroom,sun_anhioqovhscjqqwb.tif,148,1.5,0,0.966666666666667,NaN,NaN,NaN,NaN,NaN,NaN,NaN,NaN,NaN
119,9,1,familiarity,0,bathroom,sun_aspsyogrekjtfozg.tif,160,1.5,0,0.783333333333333,NaN,NaN,NaN,NaN,NaN,NaN,NaN,NaN,NaN
119,10,1,familiarity,0,bathroom,sun_ahqjwnzgolcaoidx.tif,139,1.5,0,1.21666666666667,NaN,NaN,NaN,NaN,NaN,NaN,NaN,NaN,NaN
119,11,1,familiarity,0,bathroom,sun_ausgutylgojavyoq.tif,163,1.5,0,1.4,NaN,NaN,NaN,NaN,NaN,NaN,NaN,NaN,NaN
119,12,1,familiarity,0,bathroom,sun_axyrejkiiaqiurjk.tif,169,1.5,0,1.3,NaN,NaN,NaN,NaN,NaN,NaN,NaN,NaN,NaN
119,13,1,familiarity,0,bathroom,sun_agrwbmhcpmfuwmsg.tif,134,1.5,0,0.95,NaN,NaN,NaN,NaN,NaN,NaN,NaN,NaN,NaN
119,14,1,familiarity,0,bathroom,sun_axxbkopsgyouuebh.tif,168,1.5,0,1.96666666666667,NaN,NaN,NaN,NaN,NaN,NaN,NaN,NaN,NaN
119,15,1,familiarity,0,bathroom,sun_akiytfaagpdsphgz.tif,141,1.5,0,1.13333333333333,NaN,NaN,NaN,NaN,NaN,NaN,NaN,NaN,NaN
119,16,1,familiarity,0,bathroom,sun_aavhrsfjbserjtht.tif,123,1.5,0,0.933333333333333,NaN,NaN,NaN,NaN,NaN,NaN,NaN,NaN,NaN
119,17,1,familiarity,0,bathroom,sun_auzqhkafidnkrwmo.tif,164,1.5,0,1.6,NaN,NaN,NaN,NaN,NaN,NaN,NaN,NaN,NaN
119,18,1,familiarity,0,bathroom,sun_amzlamotzwfkwjco.tif,147,1.5,0,1.38333333333333,NaN,NaN,NaN,NaN,NaN,NaN,NaN,NaN,NaN
119,19,1,familiarity,0,bathroom,sun_asfwthctfqerjvxr.tif,159,1.5,0,1.58333333333333,NaN,NaN,NaN,NaN,NaN,NaN,NaN,NaN,NaN
119,20,1,familiarity,0,bathroom,sun_apkxzenqapsujocq.tif,155,1.5,0,0.966666666666667,NaN,NaN,NaN,NaN,NaN,NaN,NaN,NaN,NaN
119,21,1,familiarity,0,bathroom,sun_anryaplzeujmzfkd.tif,149,1.5,0,0.983333333333333,NaN,NaN,NaN,NaN,NaN,NaN,NaN,NaN,NaN
119,22,1,familiarity,0,bathroom,sun_atstyziqcmkahyxk.tif,161,1.5,0,0.8,NaN,NaN,NaN,NaN,NaN,NaN,NaN,NaN,NaN
119,23,1,familiarity,0,bathroom,sun_ajlawzvmubibwbpy.tif,140,1.5,0,0.7,NaN,NaN,NaN,NaN,NaN,NaN,NaN,NaN,NaN
119,24,1,familiarity,0,bathroom,sun_aljolscmmzydegqp.tif,143,1.5,0,0.716666666666667,NaN,NaN,NaN,NaN,NaN,NaN,NaN,NaN,NaN
119,25,1,familiarity,0,bathroom,sun_afcoljnjfoxjtgja.tif,130,1.5,0,1.76666666666667,NaN,NaN,NaN,NaN,NaN,NaN,NaN,NaN,NaN
