sub_num,trial,block,task,is_practice,category,image,texture,duration,mask_dur,jitter,stim_time,time_of_resp,trial_response,mask_time,fix_time,jit_onset,trial_end,trial_accuracy,RT
121,1,0,familiarity,1,bathroom,bathroom_practice1.tif,221,1.5,0,0.916666666666667,7213.045963208,7221.404867833,4,NaN,7221.410540958,7221.428813125,7222.338822291,NaN,NaN
121,2,0,familiarity,1,bathroom,bathroom_practice2.tif,222,1.5,0,0.85,7222.345263125,7225.72512825,4,NaN,7225.7307885,7225.749278541,7226.592620458,NaN,NaN
121,3,0,familiarity,1,bathroom,bathroom_practice3.tif,223,1.5,0,0.883333333333333,7226.597261916,7229.726925208,3,NaN,7229.740311166,7229.758954166,7230.63563175,NaN,NaN
121,4,0,familiarity,1,bathroom,bathroom_practice5.tif,225,1.5,0,1.43333333333333,7230.640189583,7234.141025,3,NaN,7234.1466425,7234.164987708,7235.591752666,NaN,NaN
121,5,0,familiarity,1,bathroom,bathroom_practice4.tif,224,1.5,0,1.53333333333333,7235.610258375,7239.189326208,4,NaN,7239.194942083,7239.21321,7240.739949,NaN,NaN
121,1,1,familiarity,0,bathroom,sun_ahcvzmoyaycdoftf.tif,137,1.5,0,1.26666666666667,7245.59963775,7248.948258958,4,NaN,7248.955276291,7248.974288458,7250.2348895,NaN,NaN
121,2,1,familiarity,0,bathroom,sun_aggnnqpdorgxpvce.tif,131,1.5,0,1.76666666666667,7250.256175833,7253.492675583,2,NaN,7253.498599541,7253.517010791,7255.277253666,NaN,NaN
121,3,1,familiarity,0,bathroom,sun_aclfzgynxzxlbepz.tif,129,1.5,0,1.46666666666667,7255.296751708,7258.372799458,4,NaN,7258.402381041,7258.425964791,7259.886064916,NaN,NaN
121,4,1,familiarity,0,bathroom,sun_apmqjbnwghzuhhzh.tif,156,1.5,0,1.28333333333333,7259.904558708,7263.181154541,2,NaN,7263.186904791,7263.205333166,7264.482081708,NaN,NaN
121,5,1,familiarity,0,bathroom,sun_acegryoqftbzowsg.tif,127,1.5,0,0.966666666666667,7264.499170708,7267.021021375,1,NaN,7267.026624291,7267.044773208,7268.004781708,NaN,NaN
121,6,1,familiarity,0,bathroom,sun_alkosphxlxwjwgjd.tif,144,1.5,0,0.783333333333333,7268.009452958,7270.959810375,2,NaN,7270.988981875,7271.011988958,7271.788666125,NaN,NaN
121,7,1,familiarity,0,bathroom,sun_acgyywnybuveqsro.tif,128,1.5,0,1.21666666666667,7271.795000333,7274.989068916,4,NaN,7274.995057125,7275.013305083,7276.223395833,NaN,NaN
121,8,1,familiarity,0,bathroom,sun_anhioqovhscjqqwb.tif,148,1.5,0,1.4,7276.242869625,7279.348448083,7,NaN,7279.354379083,7279.372879625,7280.766288875,NaN,NaN
121,9,1,familiarity,0,bathroom,sun_aspsyogrekjtfozg.tif,160,1.5,0,1.3,7280.784358375,7283.325106041,2,NaN,7283.330786083,7283.349172458,7284.642601041,NaN,NaN
121,10,1,familiarity,0,bathroom,sun_ahqjwnzgolcaoidx.tif,139,1.5,0,0.95,7284.656800375,7287.43647775,4,NaN,7287.442067291,7287.460407958,7288.403749708,NaN,NaN
121,11,1,familiarity,0,bathroom,sun_ausgutylgojavyoq.tif,163,1.5,0,1.96666666666667,7288.4083035,7292.45205225,2,NaN,7292.45826075,7292.476586791,7294.436682041,NaN,NaN
121,12,1,familiarity,0,bathroom,sun_axyrejkiiaqiurjk.tif,169,1.5,0,1.13333333333333,7294.449814541,7297.821070625,2,NaN,7297.826699791,7297.844899291,7298.971662833,NaN,NaN
121,13,1,familiarity,0,bathroom,sun_agrwbmhcpmfuwmsg.tif,134,1.5,0,0.933333333333333,7298.981248291,7301.972189125,2,NaN,7301.977937458,7301.996098666,7302.92277325,NaN,NaN
121,14,1,familiarity,0,bathroom,sun_axxbkopsgyouuebh.tif,168,1.5,0,1.6,7302.927597583,7305.803608083,6,NaN,7305.83087325,7305.854477375,7307.447897333,NaN,NaN
121,15,1,familiarity,0,bathroom,sun_akiytfaagpdsphgz.tif,141,1.5,0,1.38333333333333,7307.463132583,7310.436270166,3,NaN,7310.466448375,7310.489684125,7311.866417833,NaN,NaN
121,16,1,familiarity,0,bathroom,sun_aavhrsfjbserjtht.tif,123,1.5,0,1.58333333333333,7311.883338125,7314.748161,3,NaN,7314.754448208,7314.772883916,7316.349616208,NaN,NaN
121,17,1,familiarity,0,bathroom,sun_auzqhkafidnkrwmo.tif,164,1.5,0,0.966666666666667,7316.364714208,7319.128132375,3,NaN,7319.154769333,7319.177352708,7320.137361708,NaN,NaN
121,18,1,familiarity,0,bathroom,sun_amzlamotzwfkwjco.tif,147,1.5,0,0.983333333333333,7320.142157083,7323.396701125,3,NaN,7323.402395958,7323.42073125,7324.397408666,NaN,NaN
121,19,1,familiarity,0,bathroom,sun_asfwthctfqerjvxr.tif,159,1.5,0,0.8,7324.401985041,7327.132547416,3,NaN,7327.156205666,7327.178360708,7327.971702791,NaN,NaN
121,20,1,familiarity,0,bathroom,sun_apkxzenqapsujocq.tif,155,1.5,0,0.7,7327.978112833,7331.027928375,7,NaN,7331.037272541,7331.056316333,7331.749660875,NaN,NaN
121,21,1,familiarity,0,bathroom,sun_anryaplzeujmzfkd.tif,149,1.5,0,0.716666666666667,7331.75412875,7334.796819333,4,NaN,7334.806059208,7334.825116583,7335.535124666,NaN,NaN
121,22,1,familiarity,0,bathroom,sun_atstyziqcmkahyxk.tif,161,1.5,0,1.76666666666667,7335.539725958,7339.044731583,4,NaN,7339.050311041,7339.06851325,7340.828600708,NaN,NaN
121,23,1,familiarity,0,bathroom,sun_ajlawzvmubibwbpy.tif,140,1.5,0,1.7,7340.846622833,7344.460773125,4,NaN,7344.466431375,7344.485102708,7346.178498625,NaN,NaN
121,24,1,familiarity,0,bathroom,sun_aljolscmmzydegqp.tif,143,1.5,0,1.38333333333333,7346.196536166,7349.224863333,2,NaN,7349.254049625,7349.277391166,7350.654116625,NaN,NaN
121,25,1,familiarity,0,bathroom,sun_afcoljnjfoxjtgja.tif,130,1.5,0,0.766666666666667,7350.669282291,7353.692505541,4,NaN,7353.698197625,7353.716468708,7354.476479583,NaN,NaN
121,1,2,familiarity,0,bathroom,sun_azqyogdvyhahyram.tif,170,1.5,0,0.85,7358.255825208,7361.572316583,4,NaN,7361.5780615,7361.596480208,7362.439824,NaN,NaN
121,2,2,familiarity,0,bathroom,sun_agguqiubmwhqqunb.tif,132,1.5,0,1.53333333333333,7362.444295166,7365.01669975,3,NaN,7365.041252416,7365.062646458,7366.589415166,NaN,NaN
121,3,2,familiarity,0,bathroom,sun_avhrdrntsqrjzccq.tif,165,1.5,0,0.7,7366.607633166,7369.4679945,2,NaN,7369.473910083,7369.492232208,7370.185574916,NaN,NaN
121,4,2,familiarity,0,bathroom,sun_aunuadmjocsddsrl.tif,162,1.5,0,1.36666666666667,7370.189846625,7373.215661458,5,NaN,7373.244551375,7373.267502916,7374.627594,NaN,NaN
121,5,2,familiarity,0,bathroom,sun_abapwbhyhkfixyex.tif,124,1.5,0,0.716666666666667,7374.640500583,7377.4847405,4,NaN,7377.490400375,7377.5089255,7378.21893475,NaN,NaN
121,6,2,familiarity,0,bathroom,sun_alotolagknyrgtsk.tif,145,1.5,0,1.38333333333333,7378.223263083,7381.652809875,2,NaN,7381.658615208,7381.677406958,7383.054160041,NaN,NaN
121,7,2,familiarity,0,bathroom,labelme_sfxiulhjbhlyiyt.tif,121,1.5,0,0.916666666666667,7383.065590833,7386.540046916,5,NaN,7386.5457495,7386.564127666,7387.474137166,NaN,NaN
121,8,2,familiarity,0,bathroom,sun_aqrpegblszgcoujh.tif,158,1.5,0,1.58333333333333,7387.47899875,7390.088805333,3,NaN,7390.117272291,7390.139085625,7391.715858416,NaN,NaN
121,9,2,familiarity,0,bathroom,sun_ahijqszoswveeyji.tif,138,1.5,0,1.25,7391.7326595,7394.655760166,6,NaN,7394.682776,7394.705934375,7395.949371375,NaN,NaN
121,10,2,familiarity,0,bathroom,sun_axldvoqbuvuggfmq.tif,167,1.5,0,0.95,7395.96832875,7398.988035958,4,NaN,7398.993911916,7399.012228291,7399.95557175,NaN,NaN
121,11,2,familiarity,0,bathroom,sun_ahaulkltgpkeeemi.tif,136,1.5,0,1.4,7399.960392916,7403.907967,5,NaN,7403.913798125,7403.932023958,7405.325437041,NaN,NaN
121,12,2,familiarity,0,bathroom,sun_aghyqhbptboemmoq.tif,133,1.5,0,0.766666666666667,7405.345768583,7409.419837875,6,NaN,7409.425546208,7409.44395925,7410.203969708,NaN,NaN
121,13,2,familiarity,0,bathroom,sun_apynckhmoftszqoq.tif,157,1.5,0,0.733333333333333,7410.208323166,7413.155740708,1,NaN,7413.171944625,7413.193721333,7413.920396833,NaN,NaN
121,14,2,familiarity,0,bathroom,sun_apeeialkgkuxddgh.tif,152,1.5,0,1.06666666666667,7413.925112541,7417.100594083,6,NaN,7417.107489333,7417.125943833,7418.186033458,NaN,NaN
121,15,2,familiarity,0,bathroom,sun_agyqfjcfkdcydepw.tif,135,1.5,0,1.33333333333333,7418.195040708,7421.859779958,2,NaN,7421.86572875,7421.884211958,7423.210937916,NaN,NaN
121,16,2,familiarity,0,bathroom,sun_aleqenyvunhactkl.tif,142,1.5,0,1.41666666666667,7423.229143625,7426.724412291,4,NaN,7426.730018166,7426.7482805,7428.158372083,NaN,NaN
121,17,2,familiarity,0,bathroom,sun_aapitsgbtktqubfy.tif,122,1.5,0,1.95,7428.17703875,7430.835593625,2,NaN,7430.8416565,7430.860250416,7432.803729291,NaN,NaN
121,18,2,familiarity,0,bathroom,sun_ambriybtogmepttm.tif,146,1.5,0,0.866666666666667,7432.822281541,7435.820560458,3,NaN,7435.845016416,7435.867831083,7436.727840291,NaN,NaN
121,19,2,familiarity,0,bathroom,sun_apkruvsevgegsdwp.tif,154,1.5,0,0.983333333333333,7436.73251425,7439.717957916,6,NaN,7439.74224775,7439.765602083,7440.742277333,NaN,NaN
121,20,2,familiarity,0,bathroom,sun_awnqiikzaispgmwo.tif,166,1.5,0,0.983333333333333,7440.7469375,7444.57214275,6,NaN,7444.577779583,7444.596232958,7445.572906791,NaN,NaN
121,21,2,familiarity,0,bathroom,sun_abjtwfukuwddzted.tif,125,1.5,0,0.766666666666667,7445.577223,7449.395750458,6,NaN,7449.401510708,7449.419915125,7450.179924583,NaN,NaN
121,22,2,familiarity,0,bathroom,sun_acduarbnmmoglmiv.tif,126,1.5,0,0.833333333333333,7450.184260791,7453.49170875,5,NaN,7453.497674083,7453.516129333,7454.342802791,NaN,NaN
121,23,2,familiarity,0,bathroom,sun_apjevzvycyhuqghb.tif,153,1.5,0,0.833333333333333,7454.347386666,7457.611848083,4,NaN,7457.617599083,7457.636005791,7458.462682833,NaN,NaN
121,24,2,familiarity,0,bathroom,sun_aofnryafpsjimzsb.tif,150,1.5,0,0.716666666666667,7458.467272833,7461.325103375,3,NaN,7461.35399425,7461.376889,7462.0868955,NaN,NaN
121,25,2,familiarity,0,bathroom,sun_aoybiabnpadelefl.tif,151,1.5,0,1.71666666666667,7462.091493916,7465.531892375,4,NaN,7465.537661916,7465.556080875,7467.266155291,NaN,NaN
