sub_num,trial,block,task,is_practice,category,image,texture,duration,mask_dur,jitter,stim_time,time_of_resp,trial_response,mask_time,fix_time,jit_onset,trial_end,trial_accuracy,RT
117,6,0,aesthetic,1,kitchen,kitchen_practice2.tif,227,1.5,0,1.08333333333333,3056.960241375,3061.343112625,5,NaN,3061.350161958,3061.368676166,3062.44540225,NaN,NaN
117,7,0,aesthetic,1,kitchen,kitchen_practice1.tif,226,1.5,0,1.06666666666667,3062.457770916,3064.951682375,5,NaN,3064.957060833,3064.975419541,3066.035496375,NaN,NaN
117,8,0,aesthetic,1,kitchen,kitchen_practice4.tif,229,1.5,0,1.11666666666667,3066.043915166,3068.870879333,5,NaN,3068.876618208,3068.894904375,3070.005000666,NaN,NaN
117,9,0,aesthetic,1,kitchen,kitchen_practice3.tif,228,1.5,0,0.95,3070.013675791,3072.639645875,4,NaN,3072.6448735,3072.663411625,3073.606752416,NaN,NaN
117,10,0,aesthetic,1,kitchen,kitchen_practice5.tif,230,1.5,0,0.9,3073.611123041,3076.287630916,3,NaN,3076.315597541,3076.338883208,3077.232226041,NaN,NaN
117,1,1,aesthetic,0,kitchen,sun_ahljzhgcdpomplvg.tif,201,1.5,0,1.48333333333333,3083.715929333,3086.394867916,2,NaN,3086.422234125,3086.445548458,3087.922291875,NaN,NaN
117,2,1,aesthetic,0,kitchen,sun_afuyedyxivkhecmu.tif,195,1.5,0,1.46666666666667,3087.93565625,3091.143795791,1,NaN,3091.149367583,3091.167801,3092.627881666,NaN,NaN
117,3,1,aesthetic,0,kitchen,sun_adgqasybjyktddhj.tif,188,1.5,0,0.766666666666667,3092.646591375,3095.735206,2,NaN,3095.740662333,3095.758864083,3096.518871583,NaN,NaN
117,4,1,aesthetic,0,kitchen,sun_ahpczsiumwwocjkv.tif,202,1.5,0,1.16666666666667,3096.540133458,3099.610666166,3,NaN,3099.634998708,3099.655313666,3100.815385291,NaN,NaN
117,5,1,aesthetic,0,kitchen,sun_agorklincwxrdtga.tif,197,1.5,0,1.6,3100.825670875,3103.391100208,4,NaN,3103.396588666,3103.415093083,3105.008524416,NaN,NaN
117,6,1,aesthetic,0,kitchen,sun_auaiucuqpdausiva.tif,212,1.5,0,1.68333333333333,3105.027619208,3107.735062125,5,NaN,3107.740676208,3107.758831958,3109.435577375,NaN,NaN
117,7,1,aesthetic,0,kitchen,sun_aapllqyqlykszopd.tif,176,1.5,0,1.5,3109.453939541,3112.378637833,3,NaN,3112.407190791,3112.430285083,3113.923703166,NaN,NaN
117,8,1,aesthetic,0,kitchen,sun_awcpdzzznmweyyhv.tif,216,1.5,0,0.833333333333333,3113.944772083,3116.670691958,4,NaN,3116.67617125,3116.694619875,3117.521294,NaN,NaN
117,9,1,aesthetic,0,kitchen,sun_aadbddgrdsjugojn.tif,174,1.5,0,0.9,3117.525907291,3120.894881666,3,NaN,3120.900535291,3120.918912958,3121.812253791,NaN,NaN
117,10,1,aesthetic,0,kitchen,sun_aegoxogugdkwpmpj.tif,190,1.5,0,0.933333333333333,3121.816668958,3124.635453,2,NaN,3124.65981575,3124.683746333,3125.610422458,NaN,NaN
117,11,1,aesthetic,0,kitchen,sun_abrcnpqqhmjwekyf.tif,183,1.5,0,0.9,3125.6233615,3129.503624125,3,NaN,3129.508913625,3129.527287541,3130.420629291,NaN,NaN
117,12,1,aesthetic,0,kitchen,sun_avszsnwsbuqfgzbn.tif,215,1.5,0,0.85,3130.425402208,3133.106543375,2,NaN,3133.134512708,3133.15806475,3134.001406916,NaN,NaN
117,13,1,aesthetic,0,kitchen,labelme_kxvouciolcpqplr.tif,172,1.5,0,1.83333333333333,3134.006460708,3137.3352445,1,NaN,3137.3407435,3137.358965125,3139.185731291,NaN,NaN
117,14,1,aesthetic,0,kitchen,sun_agzzivivdpnawacl.tif,199,1.5,0,0.733333333333333,3139.204014583,3142.711121625,2,NaN,3142.716831625,3142.735179833,3143.461853916,NaN,NaN
117,15,1,aesthetic,0,kitchen,sun_aunzlwrbjumxhwdj.tif,213,1.5,0,1.63333333333333,3143.473333541,3146.475093,1,NaN,3146.501639583,3146.522867291,3148.149626416,NaN,NaN
117,16,1,aesthetic,0,kitchen,sun_aymvwlarqodbwuoc.tif,218,1.5,0,0.766666666666667,3148.168994041,3151.000191166,4,NaN,3151.029922416,3151.054324958,3151.8143335,NaN,NaN
117,17,1,aesthetic,0,kitchen,sun_abpwyqmlzafvklqo.tif,182,1.5,0,1.71666666666667,3151.823270125,3154.643075333,2,NaN,3154.669764083,3154.693582333,3156.40366525,NaN,NaN
117,18,1,aesthetic,0,kitchen,sun_abdxkyyxwfskuaqb.tif,180,1.5,0,1.51666666666667,3156.42348325,3159.278063791,2,NaN,3159.307673708,3159.331009833,3160.841091875,NaN,NaN
117,19,1,aesthetic,0,kitchen,sun_aaxxjlsuzvqlgylf.tif,178,1.5,0,1.25,3160.860365625,3166.782760375,3,NaN,3166.788536416,3166.806869125,3168.050290541,NaN,NaN
117,20,1,aesthetic,0,kitchen,sun_azmutvzbxypaceni.tif,220,1.5,0,1.41666666666667,3168.066580083,3173.319352916,6,NaN,3173.324696291,3173.342938125,3174.753031375,NaN,NaN
117,21,1,aesthetic,0,kitchen,sun_axyyrmzcupyhlivc.tif,217,1.5,0,1.1,3174.771529291,3177.494616875,6,NaN,3177.500421208,3177.518717375,3178.612152541,NaN,NaN
117,22,1,aesthetic,0,kitchen,sun_ajkqhtgcbgpcwrwn.tif,207,1.5,0,0.95,3178.62152575,3181.055124833,5,NaN,3181.060599666,3181.078915458,3182.022260458,NaN,NaN
117,23,1,aesthetic,0,kitchen,sun_aamedkxepzlwuxes.tif,175,1.5,0,1.45,3182.026728125,3186.38291175,4,NaN,3186.388558083,3186.406905125,3187.850330541,NaN,NaN
117,24,1,aesthetic,0,kitchen,sun_akcjzhbbjlbogpdi.tif,209,1.5,0,0.883333333333333,3187.869915041,3190.727562166,3,NaN,3190.732918208,3190.75125175,3191.627926041,NaN,NaN
117,25,1,aesthetic,0,kitchen,sun_ahywdevtimnqcsln.tif,204,1.5,0,1.23333333333333,3191.632184291,3194.478361708,2,NaN,3194.497258333,3194.520793,3195.7475185,NaN,NaN
117,1,2,aesthetic,0,kitchen,sun_aeqdocilnnpuvuhx.tif,193,1.5,0,1.78333333333333,3202.920694625,3206.310644,5,NaN,3206.316019166,3206.334399375,3208.111154708,NaN,NaN
117,2,2,aesthetic,0,kitchen,sun_aggjlwcdjsjcaemh.tif,196,1.5,0,1.8,3208.128086,3210.577938625,4,NaN,3210.601504875,3210.624649291,3212.4180925,NaN,NaN
117,3,2,aesthetic,0,kitchen,sun_aixorpehvfykdynp.tif,205,1.5,0,0.8,3212.435969166,3217.182375,4,NaN,3217.187844625,3217.206501458,3217.999843375,NaN,NaN
117,4,2,aesthetic,0,kitchen,sun_acfmftudsenhrfhy.tif,184,1.5,0,1.01666666666667,3218.006213541,3220.695420166,3,NaN,3220.726361583,3220.750342125,3221.760351333,NaN,NaN
117,5,2,aesthetic,0,kitchen,sun_acxkpeoqbwcxfvip.tif,187,1.5,0,0.85,3221.765043833,3224.468140875,5,NaN,3224.495583291,3224.518896625,3225.362241041,NaN,NaN
117,6,2,aesthetic,0,kitchen,sun_admlmbcdswaszruo.tif,189,1.5,0,1.83333333333333,3225.36700325,3228.1230065,4,NaN,3228.150832625,3228.173715166,3230.000462416,NaN,NaN
117,7,2,aesthetic,0,kitchen,sun_aexklacwqwezaorf.tif,194,1.5,0,1.11666666666667,3230.016511416,3232.800634916,3,NaN,3232.828820625,3232.852089,3233.9621635,NaN,NaN
117,8,2,aesthetic,0,kitchen,sun_agubuxuukhzyzpdp.tif,198,1.5,0,1.88333333333333,3233.971029458,3236.582708583,4,NaN,3236.588094916,3236.606403,3238.483137,NaN,NaN
117,9,2,aesthetic,0,kitchen,sun_aypmqwcualkenuoe.tif,219,1.5,0,0.916666666666667,3238.500559416,3241.216112541,3,NaN,3241.243063875,3241.266740333,3242.1767495,NaN,NaN
117,10,2,aesthetic,0,kitchen,labelme_rykdqxenmhulbdn.tif,173,1.5,0,1.05,3242.181548583,3245.135215958,2,NaN,3245.160486875,3245.18410825,3246.227538166,NaN,NaN
117,11,2,aesthetic,0,kitchen,sun_aqeaevwwwjoqhzvl.tif,211,1.5,0,1.35,3246.236296416,3254.630919125,3,NaN,3254.636371916,3254.65462575,3255.998023625,NaN,NaN
117,12,2,aesthetic,0,kitchen,sun_ahspylgoovwmwvgk.tif,203,1.5,0,1.01666666666667,3256.013026166,3258.999307791,3,NaN,3259.004779916,3259.023146416,3260.033202041,NaN,NaN
117,13,2,aesthetic,0,kitchen,sun_aehawpgmrlhlvcow.tif,191,1.5,0,2,3260.04127425,3262.80626025,5,NaN,3262.812037916,3262.830479,3264.823914916,NaN,NaN
117,14,2,aesthetic,0,kitchen,sun_ahdycvpopffkzzsu.tif,200,1.5,0,0.9,3264.843459708,3267.522681416,1,NaN,3267.541228583,3267.562779083,3268.456120666,NaN,NaN
117,15,2,aesthetic,0,kitchen,sun_akchetnepxlcxhsu.tif,208,1.5,0,1.15,3268.4608995,3270.955886708,4,NaN,3270.983523958,3271.007426041,3272.150850166,NaN,NaN
117,16,2,aesthetic,0,kitchen,sun_abdenxonkemggwsq.tif,179,1.5,0,1.23333333333333,3272.15925175,3275.151058083,4,NaN,3275.156332208,3275.174576125,3276.401332583,NaN,NaN
117,17,2,aesthetic,0,kitchen,sun_ajcbwwvdlsvjyzje.tif,206,1.5,0,1.03333333333333,3276.416556458,3280.350518625,3,NaN,3280.356114333,3280.374406458,3281.4011775,NaN,NaN
117,18,2,aesthetic,0,kitchen,sun_acgtpgfybqjmzeyw.tif,185,1.5,0,0.783333333333333,3281.423020375,3284.007184125,1,NaN,3284.012462125,3284.030727916,3284.807400958,NaN,NaN
117,19,2,aesthetic,0,kitchen,sun_acwjdupvyjsugpay.tif,186,1.5,0,0.766666666666667,3284.811769125,3287.87117725,2,NaN,3287.879300083,3287.898235375,3288.658242791,NaN,NaN
117,20,2,aesthetic,0,kitchen,sun_auticobqsbwgoppi.tif,214,1.5,0,1.18333333333333,3288.662807833,3291.432133625,1,NaN,3291.455168666,3291.478403666,3292.655096916,NaN,NaN
117,21,2,aesthetic,0,kitchen,sun_aenotlpyftoioydp.tif,192,1.5,0,0.7,3292.665078416,3295.712426916,2,NaN,3295.717975166,3295.7363055,3296.4296485,NaN,NaN
117,22,2,aesthetic,0,kitchen,labelme_brsyyvweiuaazfr.tif,171,1.5,0,0.7,3296.439082083,3299.474262083,1,NaN,3299.5029715,3299.52418625,3300.217529041,NaN,NaN
117,23,2,aesthetic,0,kitchen,sun_abftihopvusyfakt.tif,181,1.5,0,1.55,3300.222049625,3303.034318666,3,NaN,3303.06242175,3303.085772333,3304.629199625,NaN,NaN
117,24,2,aesthetic,0,kitchen,sun_aarfiyshqohlwkmo.tif,177,1.5,0,1.16666666666667,3304.647202333,3307.542875708,2,NaN,3307.548077166,3307.566442708,3308.726529166,NaN,NaN
117,25,2,aesthetic,0,kitchen,sun_amjjdeyrggfqgmom.tif,210,1.5,0,1.68333333333333,3308.737270041,3311.318172125,3,NaN,3311.323848458,3311.342178833,3313.018904541,NaN,NaN
