sub_num,trial,block,task,is_practice,category,image,texture,duration,mask_dur,jitter,stim_time,time_of_resp,trial_response,mask_time,fix_time,jit_onset,trial_end,trial_accuracy,RT
130,1,22,categorization,0,bathroom,SHINEd_sun_axyrejkiiaqiurjk.tif,59,0.0666666666666667,0.0666666666666667,1.25,10082.37035,10083.089207208,13,10082.433123125,10082.493101666,10083.09487775,10084.338250625,1,0.718857208001282
130,2,22,categorization,0,kitchen,SHINEd_sun_agubuxuukhzyzpdp.tif,88,0.0666666666666667,0.0666666666666667,1.81666666666667,10084.355707333,10084.809438583,9,10084.422367083,10084.487711666,10084.826689458,10086.636724208,1,0.45373125000151
130,3,22,categorization,0,kitchen,SHINEd_sun_acwjdupvyjsugpay.tif,76,0.0666666666666667,0.0666666666666667,1.38333333333333,10086.648169708,10087.206328208,13,10086.714793958,10086.780765166,10087.219815,10088.596534125,0,0.55815849999999
130,4,22,categorization,0,bathroom,SHINEd_sun_apynckhmoftszqoq.tif,47,0.0666666666666667,0.0666666666666667,1.16666666666667,10088.606582125,10089.182168291,13,10088.673511458,10088.7392935,10089.212061083,10090.372110375,1,0.575586165999994
130,5,22,categorization,0,bathroom,SHINEd_labelme_sfxiulhjbhlyiyt.tif,11,0.0666666666666667,0.0666666666666667,1.28333333333333,10090.388649333,10091.000422833,13,10090.455823166,10090.51428375,10091.01611,10092.292821958,1,0.611773500000709
130,6,22,categorization,0,kitchen,SHINEd_sun_ahspylgoovwmwvgk.tif,93,0.0666666666666667,0.0666666666666667,0.716666666666667,10092.310346875,10092.810497375,9,10092.37659425,10092.443008458,10092.833100333,10093.543136083,1,0.500150500000018
130,7,22,categorization,0,bathroom,SHINEd_sun_ahaulkltgpkeeemi.tif,26,0.0666666666666667,0.0666666666666667,0.75,10093.556568666,10094.272264041,9,10093.623249916,10093.689235375,10094.291744208,10095.035084291,0,0.715695374999996
130,8,22,categorization,0,bathroom,SHINEd_sun_aapitsgbtktqubfy.tif,12,0.0666666666666667,0.0666666666666667,1.26666666666667,10095.040014083,10095.872776458,9,10095.101788041,10095.162763541,10095.881160166,10097.141200208,0,0.83276237499922
130,9,22,categorization,0,kitchen,SHINEd_sun_aymvwlarqodbwuoc.tif,108,0.0666666666666667,0.0666666666666667,1.31666666666667,10097.159786333,10097.761095625,9,10097.225127708,10097.292705541,10097.78293475,10099.092971875,1,0.601309291998405
130,10,22,categorization,0,bathroom,SHINEd_sun_ajlawzvmubibwbpy.tif,30,0.0666666666666667,0.0666666666666667,1.28333333333333,10099.11106825,10099.646555166,9,10099.17840675,10099.244202458,10099.668104166,10100.944810125,0,0.535486916000082
130,11,22,categorization,0,kitchen,SHINEd_labelme_kxvouciolcpqplr.tif,62,0.0666666666666667,0.0666666666666667,0.95,10100.962927333,10101.672480166,13,10101.029916916,10101.087860416,10101.689787958,10102.6331265,0,0.709552833000998
130,12,22,categorization,0,kitchen,SHINEd_sun_aehawpgmrlhlvcow.tif,81,0.0666666666666667,0.0666666666666667,1.21666666666667,10102.63994725,10103.193118458,9,10102.701901958,10102.762741416,10103.197849958,10104.407897958,1,0.553171208001004
130,13,22,categorization,0,kitchen,SHINEd_sun_amjjdeyrggfqgmom.tif,100,0.0666666666666667,0.0666666666666667,1.15,10104.420622166,10105.154152166,9,10104.485958041,10104.547101791,10105.169668208,10106.313051791,1,0.733529999999519
130,14,22,categorization,0,kitchen,SHINEd_sun_abftihopvusyfakt.tif,71,0.0666666666666667,0.0666666666666667,0.916666666666667,10106.328034041,10106.906884041,9,10106.394628125,10106.461076,10106.934436333,10107.844477791,1,0.578849999999875
130,15,22,categorization,0,kitchen,SHINEd_sun_abpwyqmlzafvklqo.tif,72,0.0666666666666667,0.0666666666666667,1.86666666666667,10107.860486416,10108.449173541,13,10107.927053583,10107.993515125,10108.462492791,10110.322528291,0,0.588687124998614
130,16,22,categorization,0,bathroom,SHINEd_sun_acegryoqftbzowsg.tif,17,0.0666666666666667,0.0666666666666667,0.766666666666667,10110.341820916,10111.316963125,9,10110.40824325,10110.471539583,10111.344948708,10112.104954166,0,0.975142208999387
130,17,22,categorization,0,kitchen,SHINEd_sun_akcjzhbbjlbogpdi.tif,99,0.0666666666666667,0.0666666666666667,1.96666666666667,10112.110842375,10112.784747375,9,10112.172633125,10112.233476666,10112.802025083,10114.762070333,1,0.673905000001469
130,18,22,categorization,0,bathroom,SHINEd_sun_atstyziqcmkahyxk.tif,51,0.0666666666666667,0.0666666666666667,0.716666666666667,10114.778400291,10115.233570208,13,10114.8449525,10114.911175625,10115.250502166,10115.960511708,1,0.455169917000603
130,19,22,categorization,0,bathroom,SHINEd_sun_agguqiubmwhqqunb.tif,22,0.0666666666666667,0.0666666666666667,0.9,10115.96605775,10116.8327915,13,10116.027771041,10116.088714333,10116.840659625,10117.733996583,1,0.866733750001004
130,20,22,categorization,0,bathroom,SHINEd_sun_axldvoqbuvuggfmq.tif,57,0.0666666666666667,0.0666666666666667,0.866666666666667,10117.73962175,10118.51286575,13,10117.801332166,10117.862281333,10118.530600916,10119.390605291,1,0.773243999999977
130,21,22,categorization,0,kitchen,SHINEd_sun_aypmqwcualkenuoe.tif,109,0.0666666666666667,0.0666666666666667,0.8,10119.395648708,10120.024133666,9,10119.457423458,10119.518404333,10120.036895583,10120.830233708,1,0.628484958000627
130,22,22,categorization,0,bathroom,SHINEd_sun_aggnnqpdorgxpvce.tif,21,0.0666666666666667,0.0666666666666667,0.966666666666667,10120.835457208,10121.376032916,9,10120.89716525,10120.958206208,10121.393395083,10122.353398583,0,0.540575707998869
130,23,22,categorization,0,kitchen,SHINEd_sun_ajcbwwvdlsvjyzje.tif,96,0.0666666666666667,0.0666666666666667,0.983333333333333,10122.358424375,10122.920692083,13,10122.420160208,10122.481069958,10122.932800208,10123.909470541,0,0.562267708000945
130,24,22,categorization,0,bathroom,SHINEd_sun_aqrpegblszgcoujh.tif,48,0.0666666666666667,0.0666666666666667,0.75,10123.914195166,10124.528274333,13,10123.975875,10124.036830833,10124.538583208,10125.28192275,1,0.614079167000455
130,25,22,categorization,0,bathroom,SHINEd_sun_auzqhkafidnkrwmo.tif,54,0.0666666666666667,0.0666666666666667,1.35,10125.287094541,10126.168357416,13,10125.349147583,10125.409891458,10126.178354375,10127.521739791,1,0.881262875000175
130,26,22,categorization,0,kitchen,SHINEd_sun_aegoxogugdkwpmpj.tif,80,0.0666666666666667,0.0666666666666667,0.7,10127.539159833,10128.076399791,9,10127.606249583,10127.670218166,10128.092797458,10128.786187375,1,0.537239957999191
130,27,22,categorization,0,bathroom,SHINEd_sun_apkruvsevgegsdwp.tif,44,0.0666666666666667,0.0666666666666667,1.36666666666667,10128.801683458,10129.536968541,13,10128.868331583,10128.93422825,10129.552946916,10130.912995041,1,0.735285083001145
130,28,22,categorization,0,kitchen,SHINEd_sun_agzzivivdpnawacl.tif,89,0.0666666666666667,0.0666666666666667,1.88333333333333,10130.930685041,10131.521542958,13,10130.997879,10131.063486958,10131.535316,10133.41202175,0,0.590857917000903
130,29,22,categorization,0,kitchen,SHINEd_sun_adgqasybjyktddhj.tif,78,0.0666666666666667,0.0666666666666667,1.76666666666667,10133.430203416,10134.014252,9,10133.497085041,10133.563206666,10134.036699208,10135.796745958,1,0.584048584001721
130,30,22,categorization,0,kitchen,SHINEd_sun_abdxkyyxwfskuaqb.tif,70,0.0666666666666667,0.0666666666666667,1.9,10135.814571291,10136.990437625,9,10135.881525625,10135.947436,10137.020761833,10138.914151166,1,1.17586633399878
130,31,22,categorization,0,bathroom,SHINEd_sun_akiytfaagpdsphgz.tif,31,0.0666666666666667,0.0666666666666667,1.05,10138.932672708,10139.467166333,13,10138.999813791,10139.065645791,10139.488941666,10140.532324875,1,0.534493624998504
130,32,22,categorization,0,bathroom,SHINEd_sun_alkosphxlxwjwgjd.tif,34,0.0666666666666667,0.0666666666666667,1.15,10140.541913666,10141.15368825,13,10140.606307125,10140.673075291,10141.180446708,10142.323823625,1,0.611774584000159
130,33,22,categorization,0,kitchen,SHINEd_sun_aapllqyqlykszopd.tif,66,0.0666666666666667,0.0666666666666667,1.5,10142.341215541,10143.152965875,9,10142.407974375,10142.470519916,10143.172592583,10144.66598425,1,0.811750333999953
130,34,22,categorization,0,kitchen,SHINEd_sun_aexklacwqwezaorf.tif,84,0.0666666666666667,0.0666666666666667,0.983333333333333,10144.683581583,10145.488743583,9,10144.750267625,10144.816292291,10145.505923625,10146.482594208,1,0.805162000000564
130,35,22,categorization,0,kitchen,SHINEd_sun_aunzlwrbjumxhwdj.tif,103,0.0666666666666667,0.0666666666666667,1.36666666666667,10146.489637875,10147.048974,9,10146.551508208,10146.612445916,10147.064214958,10148.424262375,1,0.55933612499939
130,36,22,categorization,0,kitchen,SHINEd_sun_ajkqhtgcbgpcwrwn.tif,97,0.0666666666666667,0.0666666666666667,1.28333333333333,10148.441225708,10149.436119291,9,10148.505496958,10148.56829925,10149.458432041,10150.735146916,1,0.994893582999794
130,37,22,categorization,0,bathroom,SHINEd_sun_agyqfjcfkdcydepw.tif,25,0.0666666666666667,0.0666666666666667,0.916666666666667,10150.752570875,10151.267113958,13,10150.820398,10150.885698791,10151.291684541,10152.201742125,1,0.514543082999808
130,38,22,categorization,0,kitchen,SHINEd_sun_aggjlwcdjsjcaemh.tif,86,0.0666666666666667,0.0666666666666667,0.883333333333333,10152.21787375,10153.047967791,9,10152.284500833,10152.35043775,10153.052447333,10153.92912025,1,0.830094041000848
130,39,22,categorization,0,kitchen,SHINEd_labelme_brsyyvweiuaazfr.tif,61,0.0666666666666667,0.0666666666666667,1.71666666666667,10153.934657458,10154.504347083,9,10153.996323291,10154.05734775,10154.509092,10156.219126833,1,0.569689625001047
130,40,22,categorization,0,bathroom,SHINEd_sun_alotolagknyrgtsk.tif,35,0.0666666666666667,0.0666666666666667,1.01666666666667,10156.23823275,10156.933021416,9,10156.305428458,10156.371495166,10156.962040916,10157.972047958,0,0.694788666000022
130,41,22,categorization,0,bathroom,SHINEd_sun_axxbkopsgyouuebh.tif,58,0.0666666666666667,0.0666666666666667,1.58333333333333,10157.977781458,10158.472189291,13,10158.039515416,10158.100672958,10158.485851791,10160.062573916,1,0.494407833000878
130,42,22,categorization,0,bathroom,SHINEd_sun_aoybiabnpadelefl.tif,41,0.0666666666666667,0.0666666666666667,0.783333333333333,10160.080738625,10160.896906458,9,10160.147331291,10160.213197583,10160.920181125,10161.696852875,0,0.816167832999781
130,43,22,categorization,0,kitchen,SHINEd_sun_aarfiyshqohlwkmo.tif,67,0.0666666666666667,0.0666666666666667,0.916666666666667,10161.702606833,10162.44078775,9,10161.764383958,10161.825311416,10162.460478333,10163.370482125,1,0.738180917000136
130,44,22,categorization,0,kitchen,SHINEd_sun_abrcnpqqhmjwekyf.tif,73,0.0666666666666667,0.0666666666666667,0.75,10163.375471916,10164.3365745,9,10163.437266,10163.498102958,10164.349993833,10165.093332958,1,0.961102583998581
130,45,22,categorization,0,bathroom,SHINEd_sun_apkxzenqapsujocq.tif,45,0.0666666666666667,0.0666666666666667,1.46666666666667,10165.098595916,10165.5446665,13,10165.160498875,10165.221314916,10165.556515541,10167.016550666,1,0.446070583999244
130,46,22,categorization,0,bathroom,SHINEd_sun_ahqjwnzgolcaoidx.tif,29,0.0666666666666667,0.0666666666666667,0.833333333333333,10167.032973416,10167.489157416,13,10167.099530708,10167.165712458,10167.505038541,10168.331754166,1,0.456183999998757
130,47,22,categorization,0,kitchen,SHINEd_sun_akchetnepxlcxhsu.tif,98,0.0666666666666667,0.0666666666666667,1.15,10168.34882775,10168.896673916,13,10168.415457416,10168.477962791,10168.913367291,10170.056742166,0,0.547846166000454
130,48,22,categorization,0,kitchen,SHINEd_sun_aqeaevwwwjoqhzvl.tif,101,0.0666666666666667,0.0666666666666667,1.1,10170.066437583,10170.515174083,9,10170.132723083,10170.199199666,10170.537386166,10171.630776541,1,0.44873650000045
130,49,22,categorization,0,bathroom,SHINEd_sun_aunuadmjocsddsrl.tif,52,0.0666666666666667,0.0666666666666667,1.15,10171.64746375,10172.256529416,13,10171.714020791,10171.77999925,10172.265623791,10173.40899325,1,0.609065665999879
130,50,22,categorization,0,kitchen,SHINEd_sun_aixorpehvfykdynp.tif,95,0.0666666666666667,0.0666666666666667,0.766666666666667,10173.419649875,10174.029423458,9,10173.486484916,10173.552032291,10174.059096708,10174.819152458,1,0.609773582998969
