sub_num,trial,block,task,is_practice,category,image,texture,duration,mask_dur,jitter,stim_time,time_of_resp,trial_response,mask_time,fix_time,jit_onset,trial_end,trial_accuracy,RT
130,1,17,categorization,0,kitchen,SHINEd_sun_ahljzhgcdpomplvg.tif,91,0.0666666666666667,0.0666666666666667,0.9,9514.349980958,9515.379342916,13,9514.41256475,9514.47276725,9515.391377708,9516.2847175,0,1.02936195799884
130,2,17,categorization,0,bathroom,SHINEd_sun_ambriybtogmepttm.tif,36,0.0666666666666667,0.0666666666666667,1.65,9516.290000833,9516.955553291,13,9516.352102958,9516.412707333,9516.964702416,9518.608071083,1,0.665552458000093
130,3,17,categorization,0,kitchen,SHINEd_sun_auaiucuqpdausiva.tif,102,0.0666666666666667,0.0666666666666667,1.18333333333333,9518.61790025,9519.358133791,9,9518.684873458,9518.750602083,9519.372593625,9520.54929575,1,0.740233541000634
130,4,17,categorization,0,kitchen,SHINEd_sun_aexklacwqwezaorf.tif,84,0.0666666666666667,0.0666666666666667,1.18333333333333,9520.5597575,9521.376599375,9,9520.624499083,9520.69234175,9521.39886125,9522.575567666,1,0.816841875001046
130,5,17,categorization,0,bathroom,SHINEd_sun_alkosphxlxwjwgjd.tif,34,0.0666666666666667,0.0666666666666667,0.766666666666667,9522.585243458,9523.371397375,9,9522.651567,9522.717876125,9523.390902916,9524.150948541,0,0.786153917000775
130,6,17,categorization,0,bathroom,SHINEd_sun_apmqjbnwghzuhhzh.tif,46,0.0666666666666667,0.0666666666666667,1.1,9524.167377,9524.706687541,13,9524.233893541,9524.300017083,9524.718653375,9525.812047125,1,0.539310541000305
130,7,17,categorization,0,kitchen,SHINEd_sun_aixorpehvfykdynp.tif,95,0.0666666666666667,0.0666666666666667,1.98333333333333,9525.822996083,9526.605201125,9,9525.887627958,9525.954978791,9526.626685791,9528.603387833,1,0.782205041999987
130,8,17,categorization,0,bathroom,SHINEd_sun_abapwbhyhkfixyex.tif,14,0.0666666666666667,0.0666666666666667,0.8,9528.614344541,9529.315595625,9,9528.6809845,9528.746843916,9529.336446958,9530.129786041,0,0.701251083999523
130,9,17,categorization,0,bathroom,SHINEd_sun_asfwthctfqerjvxr.tif,49,0.0666666666666667,0.0666666666666667,1.68333333333333,9530.135567583,9531.242906416,9,9530.19722425,9530.258286375,9531.26012825,9532.936830083,0,1.10733883300054
130,10,17,categorization,0,kitchen,SHINEd_labelme_rykdqxenmhulbdn.tif,63,0.0666666666666667,0.0666666666666667,1.73333333333333,9532.950805208,9533.924164916,9,9533.017300875,9533.083554541,9533.939738625,9535.666443208,1,0.973359707999407
130,11,17,categorization,0,kitchen,SHINEd_sun_abftihopvusyfakt.tif,71,0.0666666666666667,0.0666666666666667,0.766666666666667,9535.685228375,9536.39276625,13,9535.751806166,9535.818004916,9536.407244541,9537.167250875,0,0.707537874999616
130,12,17,categorization,0,kitchen,SHINEd_sun_ahpczsiumwwocjkv.tif,92,0.0666666666666667,0.0666666666666667,1.43333333333333,9537.173167666,9537.986480541,9,9537.234939458,9537.295900875,9537.997803291,9539.42451225,1,0.81331287499961
130,13,17,categorization,0,kitchen,SHINEd_sun_aegoxogugdkwpmpj.tif,80,0.0666666666666667,0.0666666666666667,0.7,9539.445332583,9540.096431208,9,9539.512424291,9539.578287083,9540.118292875,9540.811676833,1,0.651098624999577
130,14,17,categorization,0,kitchen,SHINEd_sun_abpwyqmlzafvklqo.tif,72,0.0666666666666667,0.0666666666666667,1.01666666666667,9540.828323708,9541.643375666,9,9540.8952165,9540.961387875,9541.646437083,9542.6564855,1,0.815051958001277
130,15,17,categorization,0,kitchen,SHINEd_sun_ahspylgoovwmwvgk.tif,93,0.0666666666666667,0.0666666666666667,1.71666666666667,9542.667340416,9543.406384125,9,9542.73223775,9542.798620625,9543.421060666,9545.131115291,1,0.739043709001635
130,16,17,categorization,0,bathroom,SHINEd_sun_aggnnqpdorgxpvce.tif,21,0.0666666666666667,0.0666666666666667,1.73333333333333,9545.144801041,9545.93997,9,9545.211526791,9545.27748575,9545.967789291,9547.694493291,0,0.795168958999056
130,17,17,categorization,0,bathroom,SHINEd_sun_agrwbmhcpmfuwmsg.tif,24,0.0666666666666667,0.0666666666666667,1.93333333333333,9547.712824625,9548.589671291,9,9547.77997925,9547.845740416,9548.600074166,9550.526767791,0,0.876846666000347
130,18,17,categorization,0,bathroom,SHINEd_sun_amzlamotzwfkwjco.tif,37,0.0666666666666667,0.0666666666666667,1.1,9550.537466875,9551.384168,9,9550.602716833,9550.67028925,9551.4106655,9552.504056125,0,0.846701125001346
130,19,17,categorization,0,kitchen,SHINEd_sun_aamedkxepzlwuxes.tif,65,0.0666666666666667,0.0666666666666667,0.933333333333333,9552.51552175,9553.742062041,13,9552.580397541,9552.64700025,9553.770567958,9554.697240208,0,1.22654029099976
130,20,17,categorization,0,kitchen,SHINEd_sun_aehawpgmrlhlvcow.tif,81,0.0666666666666667,0.0666666666666667,1.16666666666667,9554.702025708,9555.722511208,9,9554.76374025,9554.824707416,9555.726507666,9556.88654075,1,1.02048549999927
130,21,17,categorization,0,kitchen,SHINEd_sun_acfmftudsenhrfhy.tif,74,0.0666666666666667,0.0666666666666667,1.08333333333333,9556.896796083,9557.556825833,9,9556.963466375,9557.029607333,9557.586643208,9558.663367708,1,0.660029750000831
130,22,17,categorization,0,bathroom,SHINEd_sun_alotolagknyrgtsk.tif,35,0.0666666666666667,0.0666666666666667,1.36666666666667,9558.679491916,9559.435118791,13,9558.746062625,9558.804021416,9559.439231,9560.799282875,1,0.755626874999507
130,23,17,categorization,0,kitchen,SHINEd_sun_acwjdupvyjsugpay.tif,76,0.0666666666666667,0.0666666666666667,1.85,9560.816915041,9561.445365416,9,9560.883918625,9560.949814958,9561.473365541,9563.316745833,1,0.628450375001194
130,24,17,categorization,0,bathroom,SHINEd_sun_abjtwfukuwddzted.tif,15,0.0666666666666667,0.0666666666666667,1.1,9563.335072375,9564.023478666,13,9563.402033541,9563.467899166,9564.043923708,9565.137300708,1,0.68840629099941
130,25,17,categorization,0,kitchen,SHINEd_sun_ahywdevtimnqcsln.tif,94,0.0666666666666667,0.0666666666666667,1.71666666666667,9565.147855583,9565.808101458,9,9565.212964958,9565.2804415,9565.837210041,9567.547246166,1,0.660245875000328
130,26,17,categorization,0,bathroom,SHINEd_sun_ausgutylgojavyoq.tif,53,0.0666666666666667,0.0666666666666667,1.6,9567.565204666,9568.131612208,13,9567.631928166,9567.698149208,9568.154844416,9569.748228625,1,0.566407542000888
130,27,17,categorization,0,kitchen,SHINEd_sun_ajkqhtgcbgpcwrwn.tif,97,0.0666666666666667,0.0666666666666667,0.85,9569.765953458,9570.269349291,13,9569.832705791,9569.898962833,9570.288558708,9571.131941833,0,0.503395833000468
130,28,17,categorization,0,kitchen,SHINEd_sun_azmutvzbxypaceni.tif,110,0.0666666666666667,0.0666666666666667,1.35,9571.149476958,9571.803318791,9,9571.216368666,9571.282599083,9571.818091,9573.161480583,1,0.653841833000115
130,29,17,categorization,0,kitchen,SHINEd_sun_aunzlwrbjumxhwdj.tif,103,0.0666666666666667,0.0666666666666667,1.65,9573.178223458,9574.100937666,9,9573.245372458,9573.31110275,9574.11722325,9575.760614458,1,0.922714207999888
130,30,17,categorization,0,kitchen,SHINEd_sun_agorklincwxrdtga.tif,87,0.0666666666666667,0.0666666666666667,1.35,9575.777940083,9576.563450708,9,9575.844242541,9575.91106075,9576.582977333,9577.926347791,1,0.785510624999006
130,31,17,categorization,0,bathroom,SHINEd_sun_aghyqhbptboemmoq.tif,23,0.0666666666666667,0.0666666666666667,1.63333333333333,9577.944712625,9578.48446,13,9578.011759416,9578.077667,9578.4986575,9580.125363416,1,0.539747374999934
130,32,17,categorization,0,kitchen,SHINEd_sun_abdxkyyxwfskuaqb.tif,70,0.0666666666666667,0.0666666666666667,1.1,9580.143923625,9581.195563583,9,9580.210866333,9580.277138625,9581.217193041,9582.310563833,1,1.05163995799921
130,33,17,categorization,0,bathroom,SHINEd_sun_aoybiabnpadelefl.tif,41,0.0666666666666667,0.0666666666666667,1.11666666666667,9582.321229,9583.039259458,13,9582.386426875,9582.454006208,9583.060891791,9584.170952958,1,0.718030458001522
130,34,17,categorization,0,bathroom,SHINEd_sun_auzqhkafidnkrwmo.tif,54,0.0666666666666667,0.0666666666666667,1.5,9584.189580458,9584.71443225,13,9584.256044625,9584.322631458,9584.724656041,9586.218023416,1,0.524851792000845
130,35,17,categorization,0,bathroom,SHINEd_sun_anryaplzeujmzfkd.tif,39,0.0666666666666667,0.0666666666666667,1.28333333333333,9586.235481416,9586.803425125,13,9586.30207575,9586.368134666,9586.824246916,9588.1009515,1,0.567943708998428
130,36,17,categorization,0,kitchen,SHINEd_sun_aarfiyshqohlwkmo.tif,67,0.0666666666666667,0.0666666666666667,1.7,9588.11868675,9588.755337458,13,9588.185476541,9588.251496791,9588.773199375,9590.466557625,0,0.636650708000161
130,37,17,categorization,0,kitchen,SHINEd_sun_aymvwlarqodbwuoc.tif,108,0.0666666666666667,0.0666666666666667,1.08333333333333,9590.477850875,9591.15764575,9,9590.542410916,9590.609388583,9591.182430708,9592.259151625,1,0.679794874999061
130,38,17,categorization,0,kitchen,SHINEd_sun_axyyrmzcupyhlivc.tif,107,0.0666666666666667,0.0666666666666667,1.65,9592.269894291,9592.859155625,13,9592.334550041,9592.401289125,9592.871911916,9594.515304958,0,0.589261334000184
130,39,17,categorization,0,bathroom,SHINEd_sun_aofnryafpsjimzsb.tif,40,0.0666666666666667,0.0666666666666667,1.31666666666667,9594.529463958,9595.203381375,9,9594.594580083,9594.662167875,9595.217972333,9596.527990875,0,0.673917416999757
130,40,17,categorization,0,bathroom,SHINEd_sun_aavhrsfjbserjtht.tif,13,0.0666666666666667,0.0666666666666667,0.95,9596.53703525,9598.09350475,13,9596.6018305,9596.669660125,9598.1110005,9599.054339958,1,1.55646950000119
130,41,17,categorization,0,kitchen,SHINEd_sun_akchetnepxlcxhsu.tif,98,0.0666666666666667,0.0666666666666667,1.43333333333333,9599.059443833,9599.922180666,13,9599.121263416,9599.182066875,9599.933919166,9601.360632041,0,0.862736832999872
130,42,17,categorization,0,kitchen,SHINEd_sun_abrcnpqqhmjwekyf.tif,73,0.0666666666666667,0.0666666666666667,1.66666666666667,9601.379857958,9602.557197958,9,9601.44694675,9601.512738083,9602.567229166,9604.22726875,1,1.17734000000019
130,43,17,categorization,0,bathroom,SHINEd_sun_akiytfaagpdsphgz.tif,31,0.0666666666666667,0.0666666666666667,0.933333333333333,9604.244922958,9604.695148125,13,9604.312069333,9604.378160541,9604.718667666,9605.645341208,1,0.450225167000099
130,44,17,categorization,0,kitchen,SHINEd_sun_adgqasybjyktddhj.tif,78,0.0666666666666667,0.0666666666666667,0.833333333333333,9605.651504708,9606.275051625,9,9605.713293458,9605.774219416,9606.292708291,9607.119378708,1,0.623546917000567
130,45,17,categorization,0,bathroom,SHINEd_labelme_sfxiulhjbhlyiyt.tif,11,0.0666666666666667,0.0666666666666667,1.26666666666667,9607.125570875,9607.810193166,13,9607.1873865,9607.248362125,9607.81687625,9609.076921833,1,0.684622291000778
130,46,17,categorization,0,bathroom,SHINEd_sun_apeeialkgkuxddgh.tif,42,0.0666666666666667,0.0666666666666667,1.93333333333333,9609.094665041,9609.622160791,13,9609.161313166,9609.227057583,9609.63140425,9611.558113958,1,0.527495749998707
130,47,17,categorization,0,bathroom,SHINEd_sun_aspsyogrekjtfozg.tif,50,0.0666666666666667,0.0666666666666667,1.06666666666667,9611.57712,9612.228214375,13,9611.644017416,9611.709695166,9612.249543666,9613.309598333,1,0.651094374999957
130,48,17,categorization,0,bathroom,SHINEd_sun_acegryoqftbzowsg.tif,17,0.0666666666666667,0.0666666666666667,0.766666666666667,9613.321380541,9613.762477416,13,9613.3861135,9613.451291791,9613.791403791,9614.551420541,1,0.441096874999857
130,49,17,categorization,0,kitchen,SHINEd_labelme_brsyyvweiuaazfr.tif,61,0.0666666666666667,0.0666666666666667,0.833333333333333,9614.559404541,9615.086583583,13,9614.624344708,9614.6921865,9615.115394166,9615.942065958,0,0.52717904200108
130,50,17,categorization,0,bathroom,SHINEd_sun_axldvoqbuvuggfmq.tif,57,0.0666666666666667,0.0666666666666667,1.46666666666667,9615.947002958,9616.475198583,9,9616.008653416,9616.06969,9616.488039958,9617.948094666,0,0.52819562500008
