sub_num,trial,block,task,is_practice,category,image,texture,duration,mask_dur,jitter,stim_time,time_of_resp,trial_response,mask_time,fix_time,jit_onset,trial_end,trial_accuracy,RT
113,6,0,aesthetic,1,kitchen,kitchen_practice2.tif,227,1.5,0,1.08333333333333,2845.637708083,2851.708880625,4,NaN,2851.714843666,2851.733465916,2852.810197083,NaN,NaN
113,7,0,aesthetic,1,kitchen,kitchen_practice1.tif,226,1.5,0,1.06666666666667,2852.818632208,2856.348108916,3,NaN,2856.353954583,2856.372430875,2857.432522041,NaN,NaN
113,8,0,aesthetic,1,kitchen,kitchen_practice4.tif,229,1.5,0,1.11666666666667,2857.442883291,2860.3563225,4,NaN,2860.361989583,2860.380427166,2861.490523791,NaN,NaN
113,9,0,aesthetic,1,kitchen,kitchen_practice3.tif,228,1.5,0,0.95,2861.500487208,2865.060146291,5,NaN,2865.065965,2865.084170291,2866.02751475,NaN,NaN
113,10,0,aesthetic,1,kitchen,kitchen_practice5.tif,230,1.5,0,0.9,2866.033467583,2869.804294041,4,NaN,2869.809982833,2869.828275791,2870.721617,NaN,NaN
113,1,1,aesthetic,0,kitchen,sun_ahljzhgcdpomplvg.tif,201,1.5,0,1.48333333333333,2874.904742291,2877.792297041,3,NaN,2877.821221875,2877.844440583,2879.321202708,NaN,NaN
113,2,1,aesthetic,0,kitchen,sun_afuyedyxivkhecmu.tif,195,1.5,0,1.46666666666667,2879.340440416,2883.212754625,3,NaN,2883.218032208,2883.236483125,2884.696566875,NaN,NaN
113,3,1,aesthetic,0,kitchen,sun_adgqasybjyktddhj.tif,188,1.5,0,0.766666666666667,2884.71863625,2889.58001,2,NaN,2889.58604975,2889.604565708,2890.364571958,NaN,NaN
113,4,1,aesthetic,0,kitchen,sun_ahpczsiumwwocjkv.tif,202,1.5,0,1.16666666666667,2890.368896125,2894.524959208,5,NaN,2894.530234041,2894.548530583,2895.708629958,NaN,NaN
113,5,1,aesthetic,0,kitchen,sun_agorklincwxrdtga.tif,197,1.5,0,1.6,2895.719751291,2899.524446708,7,NaN,2899.529908416,2899.54834325,2901.141763916,NaN,NaN
113,6,1,aesthetic,0,kitchen,sun_auaiucuqpdausiva.tif,212,1.5,0,1.68333333333333,2901.162044208,2904.348158208,7,NaN,2904.353835541,2904.372238083,2906.0489605,NaN,NaN
113,7,1,aesthetic,0,kitchen,sun_aapllqyqlykszopd.tif,176,1.5,0,1.5,2906.068679666,2915.764854291,2,NaN,2915.770284208,2915.78865275,2917.282074083,NaN,NaN
113,8,1,aesthetic,0,kitchen,sun_awcpdzzznmweyyhv.tif,216,1.5,0,0.833333333333333,2917.301202041,2921.564295833,4,NaN,2921.569980208,2921.588171875,2922.41484875,NaN,NaN
113,9,1,aesthetic,0,kitchen,sun_aadbddgrdsjugojn.tif,174,1.5,0,0.9,2922.419418291,2928.572176416,4,NaN,2928.577812375,2928.596039666,2929.489383416,NaN,NaN
113,10,1,aesthetic,0,kitchen,sun_aegoxogugdkwpmpj.tif,190,1.5,0,0.933333333333333,2929.494078708,2932.5121165,6,NaN,2932.54076125,2932.561135583,2933.487808833,NaN,NaN
113,11,1,aesthetic,0,kitchen,sun_abrcnpqqhmjwekyf.tif,183,1.5,0,0.9,2933.492329166,2937.700696041,3,NaN,2937.706131791,2937.724513333,2938.617857875,NaN,NaN
113,12,1,aesthetic,0,kitchen,sun_avszsnwsbuqfgzbn.tif,215,1.5,0,0.85,2938.631258541,2942.907833333,6,NaN,2942.913501958,2942.931852333,2943.775196041,NaN,NaN
113,13,1,aesthetic,0,kitchen,labelme_kxvouciolcpqplr.tif,172,1.5,0,1.83333333333333,2943.779691583,2948.996163458,2,NaN,2949.001704666,2949.019973708,2950.846717666,NaN,NaN
113,14,1,aesthetic,0,kitchen,sun_agzzivivdpnawacl.tif,199,1.5,0,0.733333333333333,2950.86625375,2957.388277458,1,NaN,2957.393996916,2957.412415291,2958.13909225,NaN,NaN
113,15,1,aesthetic,0,kitchen,sun_aunzlwrbjumxhwdj.tif,213,1.5,0,1.63333333333333,2958.147781666,2964.572230333,2,NaN,2964.577920625,2964.596243208,2966.222981166,NaN,NaN
113,16,1,aesthetic,0,kitchen,sun_aymvwlarqodbwuoc.tif,218,1.5,0,0.766666666666667,2966.24365475,2970.947797791,5,NaN,2970.953602416,2970.97197975,2971.731987208,NaN,NaN
113,17,1,aesthetic,0,kitchen,sun_abpwyqmlzafvklqo.tif,182,1.5,0,1.71666666666667,2971.7363545,2979.603584708,2,NaN,2979.609702666,2979.628099,2981.338188,NaN,NaN
113,18,1,aesthetic,0,kitchen,sun_abdxkyyxwfskuaqb.tif,180,1.5,0,1.51666666666667,2981.356359416,2987.03622275,6,NaN,2987.04172975,2987.060380625,2988.570466833,NaN,NaN
113,19,1,aesthetic,0,kitchen,sun_aaxxjlsuzvqlgylf.tif,178,1.5,0,1.25,2988.588619875,2991.699873333,6,NaN,2991.7055805,2991.724004416,2992.967451708,NaN,NaN
113,20,1,aesthetic,0,kitchen,sun_azmutvzbxypaceni.tif,220,1.5,0,1.41666666666667,2992.985325166,2996.379759166,2,NaN,2996.385611625,2996.404037208,2997.814119458,NaN,NaN
113,21,1,aesthetic,0,kitchen,sun_axyyrmzcupyhlivc.tif,217,1.5,0,1.1,2997.83568875,3004.435794916,5,NaN,3004.441284208,3004.459729833,3005.553138333,NaN,NaN
113,22,1,aesthetic,0,kitchen,sun_ajkqhtgcbgpcwrwn.tif,207,1.5,0,0.95,3005.561210666,3011.45183675,2,NaN,3011.458062166,3011.476424416,3012.419766,NaN,NaN
113,23,1,aesthetic,0,kitchen,sun_aamedkxepzlwuxes.tif,175,1.5,0,1.45,3012.424726166,3017.307984041,2,NaN,3017.313343583,3017.331692333,3018.775090208,NaN,NaN
113,24,1,aesthetic,0,kitchen,sun_akcjzhbbjlbogpdi.tif,209,1.5,0,0.883333333333333,3018.794251166,3025.083494625,3,NaN,3025.089148583,3025.107643375,3025.984318916,NaN,NaN
113,25,1,aesthetic,0,kitchen,sun_ahywdevtimnqcsln.tif,204,1.5,0,1.23333333333333,3025.988769083,3030.69204775,3,NaN,3030.697917416,3030.716290875,3031.943038041,NaN,NaN
113,1,2,aesthetic,0,kitchen,sun_aeqdocilnnpuvuhx.tif,193,1.5,0,1.78333333333333,3035.95043375,3040.564065625,5,NaN,3040.569562125,3040.58802825,3042.364797625,NaN,NaN
113,2,2,aesthetic,0,kitchen,sun_aggjlwcdjsjcaemh.tif,196,1.5,0,1.8,3042.384349125,3046.756354833,4,NaN,3046.761653708,3046.780068166,3048.573487166,NaN,NaN
113,3,2,aesthetic,0,kitchen,sun_aixorpehvfykdynp.tif,205,1.5,0,0.8,3048.586075791,3054.859366958,4,NaN,3054.865240041,3054.883442458,3055.676785666,NaN,NaN
113,4,2,aesthetic,0,kitchen,sun_acfmftudsenhrfhy.tif,184,1.5,0,1.01666666666667,3055.682325666,3061.843669583,5,NaN,3061.849304625,3061.8675575,3062.877612125,NaN,NaN
113,5,2,aesthetic,0,kitchen,sun_acxkpeoqbwcxfvip.tif,187,1.5,0,0.85,3062.886990625,3071.371405166,5,NaN,3071.3771905,3071.395539791,3072.238880333,NaN,NaN
113,6,2,aesthetic,0,kitchen,sun_admlmbcdswaszruo.tif,189,1.5,0,1.83333333333333,3072.243383625,3075.499566125,7,NaN,3075.505169666,3075.523492791,3077.350247,NaN,NaN
113,7,2,aesthetic,0,kitchen,sun_aexklacwqwezaorf.tif,194,1.5,0,1.11666666666667,3077.366659708,3080.372609958,6,NaN,3080.402651458,3080.426568833,3081.536642416,NaN,NaN
113,8,2,aesthetic,0,kitchen,sun_agubuxuukhzyzpdp.tif,198,1.5,0,1.88333333333333,3081.54522025,3084.819680375,6,NaN,3084.825111916,3084.843468833,3086.72022975,NaN,NaN
113,9,2,aesthetic,0,kitchen,sun_aypmqwcualkenuoe.tif,219,1.5,0,0.916666666666667,3086.7401775,3089.685935666,6,NaN,3089.712000166,3089.734958333,3090.644971458,NaN,NaN
113,10,2,aesthetic,0,kitchen,labelme_rykdqxenmhulbdn.tif,173,1.5,0,1.05,3090.649892541,3093.931566416,5,NaN,3093.937033125,3093.955413708,3094.998827625,NaN,NaN
113,11,2,aesthetic,0,kitchen,sun_aqeaevwwwjoqhzvl.tif,211,1.5,0,1.35,3095.00724725,3097.891781083,7,NaN,3097.89725625,3097.915483708,3099.258899666,NaN,NaN
113,12,2,aesthetic,0,kitchen,sun_ahspylgoovwmwvgk.tif,203,1.5,0,1.01666666666667,3099.277698958,3101.93949875,6,NaN,3101.945106333,3101.96344375,3102.973503916,NaN,NaN
113,13,2,aesthetic,0,kitchen,sun_aehawpgmrlhlvcow.tif,191,1.5,0,2,3102.982895416,3105.955634291,7,NaN,3105.961046208,3105.979471666,3107.972857125,NaN,NaN
113,14,2,aesthetic,0,kitchen,sun_ahdycvpopffkzzsu.tif,200,1.5,0,0.9,3107.991248875,3110.726982083,1,NaN,3110.756263375,3110.779866625,3111.673210041,NaN,NaN
113,15,2,aesthetic,0,kitchen,sun_akchetnepxlcxhsu.tif,208,1.5,0,1.15,3111.678037916,3115.33944975,6,NaN,3115.344826666,3115.363301166,3116.506705625,NaN,NaN
113,16,2,aesthetic,0,kitchen,sun_abdenxonkemggwsq.tif,179,1.5,0,1.23333333333333,3116.516557833,3119.787568458,5,NaN,3119.79301375,3119.811425208,3121.038162333,NaN,NaN
113,17,2,aesthetic,0,kitchen,sun_ajcbwwvdlsvjyzje.tif,206,1.5,0,1.03333333333333,3121.054055291,3124.539336208,4,NaN,3124.544759,3124.563190791,3125.589957208,NaN,NaN
113,18,2,aesthetic,0,kitchen,sun_acgtpgfybqjmzeyw.tif,185,1.5,0,0.783333333333333,3125.600430583,3129.811068,4,NaN,3129.816927791,3129.835237583,3130.611910791,NaN,NaN
113,19,2,aesthetic,0,kitchen,sun_acwjdupvyjsugpay.tif,186,1.5,0,0.766666666666667,3130.616301666,3133.630775666,5,NaN,3133.6581745,3133.680047916,3134.440057625,NaN,NaN
113,20,2,aesthetic,0,kitchen,sun_auticobqsbwgoppi.tif,214,1.5,0,1.18333333333333,3134.444871,3137.462867541,2,NaN,3137.491592291,3137.513463666,3138.690192041,NaN,NaN
113,21,2,aesthetic,0,kitchen,sun_aenotlpyftoioydp.tif,192,1.5,0,0.7,3138.700036625,3143.947607125,2,NaN,3143.952962125,3143.9712705,3144.664611166,NaN,NaN
113,22,2,aesthetic,0,kitchen,labelme_brsyyvweiuaazfr.tif,171,1.5,0,0.7,3144.668986416,3149.730936833,3,NaN,3149.737503458,3149.755814208,3150.449157791,NaN,NaN
113,23,2,aesthetic,0,kitchen,sun_abftihopvusyfakt.tif,181,1.5,0,1.55,3150.463593083,3154.163246166,6,NaN,3154.168772291,3154.186961625,3155.730351041,NaN,NaN
113,24,2,aesthetic,0,kitchen,sun_aarfiyshqohlwkmo.tif,177,1.5,0,1.16666666666667,3155.749991916,3159.459259416,6,NaN,3159.464819416,3159.482989666,3160.6430875,NaN,NaN
113,25,2,aesthetic,0,kitchen,sun_amjjdeyrggfqgmom.tif,210,1.5,0,1.68333333333333,3160.656363958,3163.451390583,7,NaN,3163.456814666,3163.474993875,3165.151724041,NaN,NaN
