sub_num,trial,block,task,is_practice,category,image,texture,duration,mask_dur,jitter,stim_time,time_of_resp,trial_response,mask_time,fix_time,jit_onset,trial_end,trial_accuracy,RT
201,1,0,categorization,1,kitchen,SHINEd_kitchen_practice4.tif,119,0.0666666666666667,0.0666666666666667,1.21666666666667,3937.173927708,3937.9556695,9,3937.240153458,3937.299514958,3937.987171791,3939.1978145,1,0.781741792000048
201,2,0,categorization,1,kitchen,SHINEd_kitchen_practice3.tif,118,0.0666666666666667,0.0666666666666667,1.36666666666667,3939.233749791,3939.897672083,9,3939.305559458,3939.371536583,3939.932036583,3941.292234291,1,0.663922292000279
201,3,0,categorization,1,kitchen,SHINEd_kitchen_practice2.tif,117,0.0666666666666667,0.0666666666666667,1.85,3941.337228666,3941.935500125,9,3941.411698041,3941.472060458,3941.963595416,3943.806999333,1,0.598271458999989
201,4,0,categorization,1,bathroom,SHINEd_bathroom_practice5.tif,115,0.0666666666666667,0.0666666666666667,1.55,3943.828936708,3944.870458416,9,3943.89665225,3943.962419041,3944.903218291,3946.446650833,0,1.04152170799989
201,5,0,categorization,1,bathroom,SHINEd_bathroom_practice2.tif,112,0.0666666666666667,0.0666666666666667,1.48333333333333,3946.465982,3947.011129458,9,3946.534050375,3946.599700125,3947.040515125,3948.517285291,0,0.545147457999974
201,6,0,categorization,1,bathroom,SHINEd_bathroom_practice4.tif,114,0.0666666666666667,0.0666666666666667,1.15,3948.53735925,3949.019142958,13,3948.605866375,3948.670769125,3949.042254541,3950.185657333,1,0.481783707999966
201,7,0,categorization,1,kitchen,SHINEd_kitchen_practice1.tif,116,0.0666666666666667,0.0666666666666667,0.733333333333333,3950.196979625,3951.236734208,9,3950.264365208,3950.33032625,3951.25351,3951.980238333,1,1.0397545830001
201,8,0,categorization,1,bathroom,SHINEd_bathroom_practice3.tif,113,0.0666666666666667,0.0666666666666667,1.6,3951.990783791,3952.435121333,13,3952.058069916,3952.12406175,3952.442711458,3954.036098,1,0.444337542000085
201,9,0,categorization,1,bathroom,SHINEd_bathroom_practice1.tif,111,0.0666666666666667,0.0666666666666667,0.716666666666667,3954.05386575,3954.525872291,13,3954.121018083,3954.186845666,3954.542808458,3955.25287175,1,0.472006540999701
201,10,0,categorization,1,kitchen,SHINEd_kitchen_practice5.tif,120,0.0666666666666667,0.0666666666666667,1.21666666666667,3955.268046458,3955.97234475,9,3955.334790166,3955.400687791,3955.985963833,3957.196040166,1,0.704298292000203
201,1,1,categorization,0,kitchen,SHINEd_sun_aymvwlarqodbwuoc.tif,108,0.0666666666666667,0.0666666666666667,1.23333333333333,3971.008307875,3972.475774416,9,3971.070423833,3971.131085375,3972.483202458,3973.709933666,1,1.46746654100025
201,2,1,categorization,0,kitchen,SHINEd_sun_amjjdeyrggfqgmom.tif,100,0.0666666666666667,0.0666666666666667,0.783333333333333,3973.727853916,3974.356085583,9,3973.794578541,3973.860715958,3974.383541041,3975.160272166,1,0.628231666999909
201,3,1,categorization,0,bathroom,SHINEd_sun_asfwthctfqerjvxr.tif,49,0.0666666666666667,0.0666666666666667,0.75,3975.176531,3976.307199208,9,3975.243174166,3975.309542875,3976.311365125,3977.054704458,0,1.13066820799986
201,4,1,categorization,0,kitchen,SHINEd_sun_aehawpgmrlhlvcow.tif,81,0.0666666666666667,0.0666666666666667,1.23333333333333,3977.059308666,3977.547409833,9,3977.121183291,3977.18202575,3977.550317541,3978.777052041,1,0.488101166999968
201,5,1,categorization,0,kitchen,SHINEd_sun_afuyedyxivkhecmu.tif,85,0.0666666666666667,0.0666666666666667,1.13333333333333,3978.793790375,3979.461791875,9,3978.860340375,3978.926138708,3979.482756708,3980.609483666,1,0.668001500000173
201,6,1,categorization,0,bathroom,SHINEd_sun_apkruvsevgegsdwp.tif,44,0.0666666666666667,0.0666666666666667,0.95,3980.627659625,3981.224870416,13,3980.694115541,3980.760438708,3981.250315416,3982.193730666,1,0.59721079100018
201,7,1,categorization,0,kitchen,SHINEd_sun_aamedkxepzlwuxes.tif,65,0.0666666666666667,0.0666666666666667,0.733333333333333,3982.209617916,3982.883802208,9,3982.276521125,3982.342391291,3982.894992708,3983.621669375,1,0.674184292000064
201,8,1,categorization,0,kitchen,SHINEd_labelme_brsyyvweiuaazfr.tif,61,0.0666666666666667,0.0666666666666667,1.31666666666667,3983.626413166,3984.227836083,9,3983.688089083,3983.74919775,3984.234260666,3985.54433425,1,0.601422917000036
201,9,1,categorization,0,bathroom,SHINEd_sun_apkxzenqapsujocq.tif,45,0.0666666666666667,0.0666666666666667,0.8,3985.563538958,3986.249211958,13,3985.630487833,3985.696813083,3986.270363416,3987.063784083,1,0.685672999999952
201,10,1,categorization,0,bathroom,SHINEd_sun_agyqfjcfkdcydepw.tif,25,0.0666666666666667,0.0666666666666667,0.716666666666667,3987.078341541,3987.755588333,9,3987.145166458,3987.21125225,3987.763174958,3988.473183208,0,0.677246792000005
201,11,1,categorization,0,kitchen,SHINEd_sun_agzzivivdpnawacl.tif,89,0.0666666666666667,0.0666666666666667,0.916666666666667,3988.477876208,3989.259432416,13,3988.539558333,3988.600583375,3989.268984125,3990.178990208,0,0.781556207999984
201,12,1,categorization,0,kitchen,SHINEd_sun_ajcbwwvdlsvjyzje.tif,96,0.0666666666666667,0.0666666666666667,0.95,3990.185670166,3991.107510208,13,3990.247374,3990.30834675,3991.126775375,3992.070118791,0,0.921840041999985
201,13,1,categorization,0,bathroom,SHINEd_labelme_sfxiulhjbhlyiyt.tif,11,0.0666666666666667,0.0666666666666667,0.833333333333333,3992.0748195,3992.69192425,13,3992.136437708,3992.197531541,3992.699463208,3993.526138583,1,0.617104749999726
201,14,1,categorization,0,kitchen,SHINEd_sun_ahspylgoovwmwvgk.tif,93,0.0666666666666667,0.0666666666666667,0.75,3993.531040791,3994.083456041,9,3993.592708958,3993.653768375,3994.088942666,3994.832285708,1,0.55241524999974
201,15,1,categorization,0,bathroom,SHINEd_sun_acduarbnmmoglmiv.tif,16,0.0666666666666667,0.0666666666666667,1.53333333333333,3994.836863541,3995.579850375,13,3994.898614875,3994.959518166,3995.594666208,3997.121417666,1,0.742986834000021
201,16,1,categorization,0,bathroom,SHINEd_sun_acgyywnybuveqsro.tif,18,0.0666666666666667,0.0666666666666667,1.05,3997.139242291,3997.707055208,13,3997.206025458,3997.272318791,3997.729108708,3998.772522708,1,0.567812917000083
201,17,1,categorization,0,bathroom,SHINEd_sun_agguqiubmwhqqunb.tif,22,0.0666666666666667,0.0666666666666667,0.9,3998.783359,3999.571872333,13,3998.849815208,3998.916514333,3999.588956666,4000.482379166,1,0.788513333000083
201,18,1,categorization,0,bathroom,SHINEd_sun_ausgutylgojavyoq.tif,53,0.0666666666666667,0.0666666666666667,1.18333333333333,4000.499078291,4001.036079166,13,4000.565545875,4000.631914458,4001.05078025,4002.227536375,1,0.537000875000103
201,19,1,categorization,0,bathroom,SHINEd_sun_alotolagknyrgtsk.tif,35,0.0666666666666667,0.0666666666666667,0.9,4002.239320375,4003.192410333,13,4002.305755125,4002.372479916,4003.211650416,4004.105045041,1,0.953089958000419
201,20,1,categorization,0,kitchen,SHINEd_sun_agorklincwxrdtga.tif,87,0.0666666666666667,0.0666666666666667,1.66666666666667,4004.119651875,4004.619490666,9,4004.1815495,4004.24241125,4004.627569333,4006.287663458,1,0.499838791000002
201,21,1,categorization,0,bathroom,SHINEd_sun_apjevzvycyhuqghb.tif,43,0.0666666666666667,0.0666666666666667,1.13333333333333,4006.305150541,4006.909810708,9,4006.371825958,4006.438137041,4006.927152875,4008.053878333,0,0.60466016700002
201,22,1,categorization,0,kitchen,SHINEd_sun_ahdycvpopffkzzsu.tif,90,0.0666666666666667,0.0666666666666667,1.3,4008.062959791,4008.928675625,9,4008.127542583,4008.19559025,4008.952279458,4010.245719291,1,0.86571583399973
201,23,1,categorization,0,kitchen,SHINEd_sun_aarfiyshqohlwkmo.tif,67,0.0666666666666667,0.0666666666666667,1.93333333333333,4010.262612666,4011.02801675,9,4010.329914,4010.396423625,4011.05392,4012.980672291,1,0.765404083999783
201,24,1,categorization,0,bathroom,SHINEd_sun_aclfzgynxzxlbepz.tif,19,0.0666666666666667,0.0666666666666667,1,4012.999626541,4013.661139958,13,4013.066291083,4013.133456791,4013.689774541,4014.683116333,1,0.661513417000151
201,25,1,categorization,0,bathroom,SHINEd_sun_afcoljnjfoxjtgja.tif,20,0.0666666666666667,0.0666666666666667,0.883333333333333,4014.68822825,4015.283699,13,4014.749974625,4014.810971583,4015.295955666,4016.172629583,1,0.595470750000004
201,26,1,categorization,0,bathroom,SHINEd_sun_aoybiabnpadelefl.tif,41,0.0666666666666667,0.0666666666666667,1.95,4016.177383333,4016.715507791,13,4016.23913275,4016.300190291,4016.718405541,4018.66181725,1,0.538124458000311
201,27,1,categorization,0,kitchen,SHINEd_sun_acxkpeoqbwcxfvip.tif,77,0.0666666666666667,0.0666666666666667,1.25,4018.678423916,4019.309173833,9,4018.74490125,4018.811652833,4019.335391083,4020.578835333,1,0.630749916999775
201,28,1,categorization,0,bathroom,SHINEd_sun_acegryoqftbzowsg.tif,17,0.0666666666666667,0.0666666666666667,1.95,4020.595528416,4021.182811833,13,4020.661976875,4020.728634666,4021.201243583,4023.1446375,1,0.587283416999981
201,29,1,categorization,0,bathroom,SHINEd_sun_ahqjwnzgolcaoidx.tif,29,0.0666666666666667,0.0666666666666667,1.91666666666667,4023.161880125,4023.795118708,13,4023.228587625,4023.294701083,4023.817248708,4025.727322583,1,0.633238582999638
201,30,1,categorization,0,bathroom,SHINEd_sun_aspsyogrekjtfozg.tif,50,0.0666666666666667,0.0666666666666667,1.41666666666667,4025.740047875,4026.32782225,13,4025.80681975,4025.872834916,4026.345293375,4027.755376916,1,0.587774374999753
201,31,1,categorization,0,bathroom,SHINEd_sun_axyrejkiiaqiurjk.tif,59,0.0666666666666667,0.0666666666666667,0.716666666666667,4027.77235475,4028.924229083,13,4027.838633875,4027.90519875,4028.944849791,4029.654860083,1,1.1518743329998
201,32,1,categorization,0,bathroom,SHINEd_sun_atstyziqcmkahyxk.tif,51,0.0666666666666667,0.0666666666666667,1.28333333333333,4029.659401166,4030.243483708,13,4029.721310583,4029.78213225,4030.250633333,4031.527374625,1,0.584082542000033
201,33,1,categorization,0,kitchen,SHINEd_sun_aaxxjlsuzvqlgylf.tif,68,0.0666666666666667,0.0666666666666667,0.9,4031.544868875,4032.206901291,13,4031.611770166,4031.677627666,4032.23383775,4033.127239666,0,0.662032416000329
201,34,1,categorization,0,bathroom,SHINEd_sun_axxbkopsgyouuebh.tif,58,0.0666666666666667,0.0666666666666667,0.8,4033.143554166,4033.739554416,13,4033.210520375,4033.276439208,4033.745002583,4034.538341625,1,0.596000250000088
201,35,1,categorization,0,kitchen,SHINEd_sun_auaiucuqpdausiva.tif,102,0.0666666666666667,0.0666666666666667,1.01666666666667,4034.543170458,4035.307061708,9,4034.604851791,4034.665958458,4035.31813175,4036.328203125,1,0.763891250000142
201,36,1,categorization,0,kitchen,SHINEd_sun_aixorpehvfykdynp.tif,95,0.0666666666666667,0.0666666666666667,0.85,4036.336739291,4036.973142791,9,4036.400980833,4036.468112625,4036.99070875,4037.834126083,1,0.636403500000142
201,37,1,categorization,0,bathroom,SHINEd_sun_anhioqovhscjqqwb.tif,38,0.0666666666666667,0.0666666666666667,1.51666666666667,4037.850115041,4038.379228791,13,4037.916520916,4037.980443291,4038.399799333,4039.909896916,1,0.529113749999851
201,38,1,categorization,0,bathroom,SHINEd_sun_apmqjbnwghzuhhzh.tif,46,0.0666666666666667,0.0666666666666667,1.83333333333333,4039.928679083,4040.491343375,13,4039.994002375,4040.061608208,4040.518314833,4042.345077,1,0.562664291999681
201,39,1,categorization,0,bathroom,SHINEd_sun_ambriybtogmepttm.tif,36,0.0666666666666667,0.0666666666666667,0.716666666666667,4042.36271625,4042.972779833,13,4042.429598791,4042.495307833,4043.001569625,4043.71158175,1,0.610063582999828
201,40,1,categorization,0,kitchen,SHINEd_sun_acgtpgfybqjmzeyw.tif,75,0.0666666666666667,0.0666666666666667,0.9,4043.716444291,4044.31526925,9,4043.778042333,4043.83911775,4044.324220125,4045.21756225,1,0.598824959000012
201,41,1,categorization,0,kitchen,SHINEd_sun_avszsnwsbuqfgzbn.tif,105,0.0666666666666667,0.0666666666666667,0.916666666666667,4045.222249875,4045.8755115,9,4045.284031708,4045.3450085,4045.879989208,4046.789999791,1,0.653261624999686
201,42,1,categorization,0,kitchen,SHINEd_sun_ahljzhgcdpomplvg.tif,91,0.0666666666666667,0.0666666666666667,0.816666666666667,4046.794830708,4047.627314916,9,4046.856539291,4046.917531916,4047.636112833,4048.446124166,1,0.832484208000096
201,43,1,categorization,0,bathroom,SHINEd_sun_alkosphxlxwjwgjd.tif,34,0.0666666666666667,0.0666666666666667,1.88333333333333,4048.451975375,4049.819502375,9,4048.513626375,4048.574612958,4049.827526541,4051.704254833,0,1.36752699999988
201,44,1,categorization,0,kitchen,SHINEd_sun_admlmbcdswaszruo.tif,79,0.0666666666666667,0.0666666666666667,0.9,4051.7220585,4052.710328458,9,4051.78897725,4051.854990541,4052.727864166,4053.621207708,1,0.988269957999819
201,45,1,categorization,0,bathroom,SHINEd_sun_aghyqhbptboemmoq.tif,23,0.0666666666666667,0.0666666666666667,1,4053.625778583,4054.210791958,13,4053.687585166,4053.748463708,4054.21692625,4055.210269125,1,0.585013375000017
201,46,1,categorization,0,kitchen,SHINEd_sun_agubuxuukhzyzpdp.tif,88,0.0666666666666667,0.0666666666666667,0.733333333333333,4055.215021,4055.939790208,9,4055.276736125,4055.337806291,4055.956293541,4056.682968708,1,0.724769207999998
201,47,1,categorization,0,kitchen,SHINEd_sun_azmutvzbxypaceni.tif,110,0.0666666666666667,0.0666666666666667,0.883333333333333,4056.687767916,4057.571685041,9,4056.749492541,4056.810429833,4057.578848625,4058.455521083,1,0.883917124999698
201,48,1,categorization,0,kitchen,SHINEd_sun_auticobqsbwgoppi.tif,104,0.0666666666666667,0.0666666666666667,1.73333333333333,4058.460415541,4059.34716275,9,4058.521987583,4058.583162375,4059.35162975,4061.07838725,1,0.886747208999623
201,49,1,categorization,0,kitchen,SHINEd_sun_ahywdevtimnqcsln.tif,94,0.0666666666666667,0.0666666666666667,1.91666666666667,4061.095897125,4062.080815791,9,4061.160699583,4061.228485,4062.101160958,4064.011236125,1,0.984918665999885
201,50,1,categorization,0,kitchen,SHINEd_sun_acwjdupvyjsugpay.tif,76,0.0666666666666667,0.0666666666666667,1.35,4064.028350833,4064.674833083,9,4064.096611125,4064.161116166,4064.701119375,4066.044554791,1,0.64648225000019
201,1,2,categorization,0,bathroom,SHINEd_sun_aleqenyvunhactkl.tif,32,0.0666666666666667,0.0666666666666667,0.95,4120.892145,4121.578772833,13,4120.953857041,4121.015134041,4121.583711291,4122.527052708,1,0.686627832999875
201,2,2,categorization,0,kitchen,SHINEd_sun_aexklacwqwezaorf.tif,84,0.0666666666666667,0.0666666666666667,0.75,4122.5318955,4123.426719208,9,4122.5936925,4122.654564916,4123.44004125,4124.183385416,1,0.894823707999421
201,3,2,categorization,0,kitchen,SHINEd_sun_awcpdzzznmweyyhv.tif,106,0.0666666666666667,0.0666666666666667,1.68333333333333,4124.188126833,4125.387019833,9,4124.249768458,4124.310831333,4125.396045458,4127.072817541,1,1.19889299999977
201,4,2,categorization,0,bathroom,SHINEd_sun_anryaplzeujmzfkd.tif,39,0.0666666666666667,0.0666666666666667,0.816666666666667,4127.087657791,4127.869647,9,4127.154481083,4127.220776166,4127.894196791,4128.704206583,0,0.78198920900013
201,5,2,categorization,0,bathroom,SHINEd_sun_aofnryafpsjimzsb.tif,40,0.0666666666666667,0.0666666666666667,0.916666666666667,4128.709084083,4129.41877075,13,4128.770815083,4128.831812041,4129.433568458,4130.34357425,1,0.709686666999914
201,6,2,categorization,0,kitchen,SHINEd_sun_abrcnpqqhmjwekyf.tif,73,0.0666666666666667,0.0666666666666667,1.21666666666667,4130.348497041,4131.098917333,9,4130.410223041,4130.47113475,4131.106176166,4132.316235583,1,0.750420291999944
201,7,2,categorization,0,bathroom,SHINEd_sun_aavhrsfjbserjtht.tif,13,0.0666666666666667,0.0666666666666667,0.9,4132.332055916,4132.912758125,13,4132.398243,4132.464632291,4132.938064083,4133.831494833,1,0.580702209000265
201,8,2,categorization,0,kitchen,SHINEd_sun_abdenxonkemggwsq.tif,69,0.0666666666666667,0.0666666666666667,1.65,4133.848007958,4134.523356166,9,4133.914479458,4133.977754166,4134.529909125,4136.173343708,1,0.675348207999377
201,9,2,categorization,0,kitchen,SHINEd_sun_aggjlwcdjsjcaemh.tif,86,0.0666666666666667,0.0666666666666667,1.15,4136.190554958,4136.791437708,9,4136.255824541,4136.323487333,4136.813138041,4137.956570291,1,0.600882749999982
201,10,2,categorization,0,bathroom,SHINEd_sun_aqrpegblszgcoujh.tif,48,0.0666666666666667,0.0666666666666667,1.13333333333333,4137.966306,4138.654129833,13,4138.031414416,4138.09890675,4138.6715945,4139.798326958,1,0.687823833000039
201,11,2,categorization,0,bathroom,SHINEd_sun_aggnnqpdorgxpvce.tif,21,0.0666666666666667,0.0666666666666667,1.76666666666667,4139.815824208,4140.474842541,9,4139.878580791,4139.938620958,4140.49038425,4142.250539208,0,0.659018332999949
201,12,2,categorization,0,kitchen,SHINEd_labelme_kxvouciolcpqplr.tif,62,0.0666666666666667,0.0666666666666667,1.8,4142.261794916,4142.887493625,9,4142.328507791,4142.393096416,4142.916229875,4144.709640083,1,0.625698709000062
201,13,2,categorization,0,kitchen,SHINEd_sun_aegoxogugdkwpmpj.tif,80,0.0666666666666667,0.0666666666666667,0.9,4144.727668083,4145.51151325,9,4144.794591083,4144.860312875,4145.533855166,4146.427197166,1,0.783845166999527
201,14,2,categorization,0,bathroom,SHINEd_sun_agrwbmhcpmfuwmsg.tif,24,0.0666666666666667,0.0666666666666667,0.716666666666667,4146.431987375,4147.33897775,13,4146.493683125,4146.554958791,4147.356728041,4148.066738125,1,0.906990374999623
201,15,2,categorization,0,bathroom,SHINEd_sun_akiytfaagpdsphgz.tif,31,0.0666666666666667,0.0666666666666667,1.36666666666667,4148.071542791,4148.643062166,13,4148.133179583,4148.194236875,4148.662602541,4150.022692958,1,0.571519375000207
201,16,2,categorization,0,bathroom,SHINEd_sun_avhrdrntsqrjzccq.tif,55,0.0666666666666667,0.0666666666666667,0.916666666666667,4150.040030166,4150.733548291,9,4150.106499625,4150.173342541,4150.763116958,4151.673241375,0,0.693518125000082
201,17,2,categorization,0,bathroom,SHINEd_sun_awnqiikzaispgmwo.tif,56,0.0666666666666667,0.0666666666666667,0.716666666666667,4151.685085083,4152.298303208,13,4151.746898208,4151.807899583,4152.309713666,4153.019721541,1,0.613218125000458
201,18,2,categorization,0,bathroom,SHINEd_sun_abjtwfukuwddzted.tif,15,0.0666666666666667,0.0666666666666667,0.766666666666667,4153.024425375,4153.690629541,13,4153.086045625,4153.147044791,4153.698814166,4154.458823,1,0.666204166000171
201,19,2,categorization,0,kitchen,SHINEd_sun_aadbddgrdsjugojn.tif,64,0.0666666666666667,0.0666666666666667,1.06666666666667,4154.463652375,4155.307200125,9,4154.525492666,4154.586317,4155.321492958,4156.381584083,1,0.843547750000653
201,20,2,categorization,0,kitchen,SHINEd_sun_abdxkyyxwfskuaqb.tif,70,0.0666666666666667,0.0666666666666667,0.8,4156.39000225,4157.023048666,9,4156.454356916,4156.521488125,4157.044106958,4157.837505958,1,0.63304641600007
201,21,2,categorization,0,kitchen,SHINEd_sun_ahpczsiumwwocjkv.tif,92,0.0666666666666667,0.0666666666666667,0.866666666666667,4157.853176708,4158.45841425,9,4157.919933208,4157.981334125,4158.466798791,4159.326805791,1,0.605237541999486
201,22,2,categorization,0,bathroom,SHINEd_sun_aapitsgbtktqubfy.tif,12,0.0666666666666667,0.0666666666666667,1.48333333333333,4159.331404125,4159.97877125,13,4159.393113791,4159.454177416,4159.989502541,4161.466261041,1,0.647367125000528
201,23,2,categorization,0,kitchen,SHINEd_sun_abpwyqmlzafvklqo.tif,72,0.0666666666666667,0.0666666666666667,1.1,4161.486563125,4162.168498333,9,4161.553638041,4161.61982075,4162.192956375,4163.286356625,1,0.681935207999231
201,24,2,categorization,0,kitchen,SHINEd_sun_acfmftudsenhrfhy.tif,74,0.0666666666666667,0.0666666666666667,0.783333333333333,4163.295623416,4164.36077625,9,4163.360068,4163.4275855,4164.384087125,4165.160815291,1,1.06515283399949
201,25,2,categorization,0,kitchen,SHINEd_sun_aqeaevwwwjoqhzvl.tif,101,0.0666666666666667,0.0666666666666667,0.866666666666667,4165.17706975,4165.906929083,9,4165.244286125,4165.303223,4165.921716875,4166.781723791,1,0.729859333000604
201,26,2,categorization,0,kitchen,SHINEd_sun_akcjzhbbjlbogpdi.tif,99,0.0666666666666667,0.0666666666666667,1.83333333333333,4166.7864715,4167.458492083,9,4166.84826275,4166.909237791,4167.477727625,4169.304470041,1,0.672020583000631
201,27,2,categorization,0,bathroom,SHINEd_sun_apynckhmoftszqoq.tif,47,0.0666666666666667,0.0666666666666667,0.7,4169.318840916,4170.0299285,13,4169.385548708,4169.452274083,4170.058872375,4170.752212666,1,0.71108758399987
201,28,2,categorization,0,bathroom,SHINEd_sun_ajlawzvmubibwbpy.tif,30,0.0666666666666667,0.0666666666666667,1.33333333333333,4170.757027375,4171.810953375,13,4170.818691041,4170.879675,4171.815008,4173.141750416,1,1.0539260000005
201,29,2,categorization,0,kitchen,SHINEd_sun_akchetnepxlcxhsu.tif,98,0.0666666666666667,0.0666666666666667,1.33333333333333,4173.160091125,4174.239191791,9,4173.22667575,4173.293047333,4174.267560416,4175.5943085,1,1.07910066600016
201,30,2,categorization,0,bathroom,SHINEd_sun_abapwbhyhkfixyex.tif,14,0.0666666666666667,0.0666666666666667,1.38333333333333,4175.611611708,4176.646803583,9,4175.67822,4175.744363375,4176.667289166,4178.044025416,0,1.03519187500024
201,31,2,categorization,0,kitchen,SHINEd_sun_adgqasybjyktddhj.tif,78,0.0666666666666667,0.0666666666666667,1.25,4178.061599333,4178.79867025,9,4178.128245083,4178.194404166,4178.817294875,4180.060707875,1,0.737070916999983
201,32,2,categorization,0,bathroom,SHINEd_sun_apeeialkgkuxddgh.tif,42,0.0666666666666667,0.0666666666666667,1.55,4180.078995166,4180.706415583,13,4180.145792375,4180.212133458,4180.735234875,4182.278626375,1,0.627420417000394
201,33,2,categorization,0,kitchen,SHINEd_sun_abftihopvusyfakt.tif,71,0.0666666666666667,0.0666666666666667,1.61666666666667,4182.295793875,4182.951862083,9,4182.362719791,4182.42842075,4182.96755,4184.577623958,1,0.656068208000761
201,34,2,categorization,0,bathroom,SHINEd_sun_aljolscmmzydegqp.tif,33,0.0666666666666667,0.0666666666666667,1.33333333333333,4184.594803291,4186.019728416,9,4184.661842958,4184.727632166,4186.035615666,4187.362409625,0,1.4249251250003
201,35,2,categorization,0,bathroom,SHINEd_sun_ahijqszoswveeyji.tif,28,0.0666666666666667,0.0666666666666667,0.833333333333333,4187.375740166,4188.575745666,9,4187.442572791,4187.508790041,4188.598775416,4189.4254525,0,1.20000550000077
201,36,2,categorization,0,kitchen,SHINEd_sun_aenotlpyftoioydp.tif,82,0.0666666666666667,0.0666666666666667,1.45,4189.430136166,4190.194409666,9,4189.491910291,4189.55278975,4190.204685625,4191.648108375,1,0.764273499999945
201,37,2,categorization,0,kitchen,SHINEd_sun_aypmqwcualkenuoe.tif,109,0.0666666666666667,0.0666666666666667,0.933333333333333,4191.666898166,4192.998418166,9,4191.733664083,4191.79984375,4193.02454375,4193.951216791,1,1.33152000000064
201,38,2,categorization,0,bathroom,SHINEd_sun_ahcvzmoyaycdoftf.tif,27,0.0666666666666667,0.0666666666666667,1.65,4193.956046333,4194.475040083,13,4194.01780175,4194.078672,4194.480440375,4196.123911416,1,0.518993749999936
201,39,2,categorization,0,kitchen,SHINEd_sun_aunzlwrbjumxhwdj.tif,103,0.0666666666666667,0.0666666666666667,1.23333333333333,4196.14264325,4196.933883875,9,4196.209238333,4196.276091541,4196.948397833,4198.175152708,1,0.791240624999773
201,40,2,categorization,0,bathroom,SHINEd_sun_ahaulkltgpkeeemi.tif,26,0.0666666666666667,0.0666666666666667,0.766666666666667,4198.193320583,4198.780503583,13,4198.260149666,4198.326131833,4198.798916416,4199.559003583,1,0.587182999999641
201,41,2,categorization,0,bathroom,SHINEd_sun_axldvoqbuvuggfmq.tif,57,0.0666666666666667,0.0666666666666667,1.78333333333333,4199.575159416,4200.114742333,13,4199.641502125,4199.706323625,4200.125275083,4201.902012125,1,0.539582917000189
201,42,2,categorization,0,kitchen,SHINEd_sun_aapllqyqlykszopd.tif,66,0.0666666666666667,0.0666666666666667,1.11666666666667,4201.919697916,4202.491398375,13,4201.983597625,4202.052642333,4202.508497208,4203.618590916,0,0.571700459000567
201,43,2,categorization,0,kitchen,SHINEd_sun_aeqdocilnnpuvuhx.tif,83,0.0666666666666667,0.0666666666666667,1.85,4203.627232166,4204.507883291,9,4203.692350958,4203.759882291,4204.532734375,4206.376166208,1,0.880651125000441
201,44,2,categorization,0,kitchen,SHINEd_sun_ajkqhtgcbgpcwrwn.tif,97,0.0666666666666667,0.0666666666666667,0.733333333333333,4206.393364875,4207.274858958,9,4206.460106375,4206.526325041,4207.300429,4208.02710525,1,0.881494082999779
201,45,2,categorization,0,bathroom,SHINEd_sun_azqyogdvyhahyram.tif,60,0.0666666666666667,0.0666666666666667,0.783333333333333,4208.031931166,4208.666139,13,4208.093679666,4208.154735958,4208.673206666,4209.449879833,1,0.634207834000335
201,46,2,categorization,0,kitchen,SHINEd_sun_axyyrmzcupyhlivc.tif,107,0.0666666666666667,0.0666666666666667,1.5,4209.454626,4210.194724833,9,4209.516354291,4209.577446,4210.212363291,4211.705764333,1,0.740098833000047
201,47,2,categorization,0,kitchen,SHINEd_labelme_rykdqxenmhulbdn.tif,63,0.0666666666666667,0.0666666666666667,0.733333333333333,4211.723814791,4212.529822416,9,4211.790701166,4211.856581041,4212.544995166,4213.271677125,1,0.806007624999438
201,48,2,categorization,0,bathroom,SHINEd_sun_auzqhkafidnkrwmo.tif,54,0.0666666666666667,0.0666666666666667,1.1,4213.277287916,4213.834627125,13,4213.338943208,4213.400082083,4213.851902916,4214.94533475,1,0.55733920900002
201,49,2,categorization,0,bathroom,SHINEd_sun_aunuadmjocsddsrl.tif,52,0.0666666666666667,0.0666666666666667,1.6,4214.953511291,4215.4712175,13,4215.018224791,4215.086017291,4215.492914958,4217.086314083,1,0.517706209000607
201,50,2,categorization,0,bathroom,SHINEd_sun_amzlamotzwfkwjco.tif,37,0.0666666666666667,0.0666666666666667,1.06666666666667,4217.104203,4217.931123125,9,4217.171319166,4217.237279083,4217.960659375,4219.020724666,0,0.82692012500047
201,1,3,categorization,0,kitchen,SHINEd_sun_aenotlpyftoioydp.tif,82,0.0666666666666667,0.0666666666666667,0.85,4286.278368083,4287.097939291,9,4286.340160916,4286.401236083,4287.103076,4287.946415541,1,0.819571208000525
201,2,3,categorization,0,kitchen,SHINEd_sun_ahdycvpopffkzzsu.tif,90,0.0666666666666667,0.0666666666666667,1.65,4287.951216166,4288.674098666,9,4288.012878708,4288.073965541,4288.692485541,4290.335914416,1,0.722882499999287
201,3,3,categorization,0,bathroom,SHINEd_sun_ahcvzmoyaycdoftf.tif,27,0.0666666666666667,0.0666666666666667,0.783333333333333,4290.354594541,4290.895465083,13,4290.421240458,4290.486756041,4290.908367541,4291.685138791,1,0.540870542000448
201,4,3,categorization,0,kitchen,SHINEd_sun_ahpczsiumwwocjkv.tif,92,0.0666666666666667,0.0666666666666667,0.933333333333333,4291.702455166,4292.25783825,9,4291.768796833,4291.826319875,4292.261350875,4293.188025708,1,0.555383083999914
201,5,3,categorization,0,bathroom,SHINEd_sun_ahqjwnzgolcaoidx.tif,29,0.0666666666666667,0.0666666666666667,0.866666666666667,4293.192895791,4293.866407916,13,4293.254598416,4293.315645125,4293.884125708,4294.744131458,1,0.673512124999434
201,6,3,categorization,0,bathroom,SHINEd_sun_aqrpegblszgcoujh.tif,48,0.0666666666666667,0.0666666666666667,1.11666666666667,4294.75078775,4295.618725791,13,4294.812487583,4294.873512166,4295.625236083,4296.735300416,1,0.867938040999434
201,7,3,categorization,0,kitchen,SHINEd_sun_aadbddgrdsjugojn.tif,64,0.0666666666666667,0.0666666666666667,0.966666666666667,4296.744328125,4297.275611583,9,4296.8087055,4296.877179583,4297.301358875,4298.261448166,1,0.531283457999962
201,8,3,categorization,0,kitchen,SHINEd_labelme_rykdqxenmhulbdn.tif,63,0.0666666666666667,0.0666666666666667,1.78333333333333,4298.27707025,4298.842128833,9,4298.343916,4298.411405666,4298.847227333,4300.623983125,1,0.565058582999882
201,9,3,categorization,0,kitchen,SHINEd_sun_acfmftudsenhrfhy.tif,74,0.0666666666666667,0.0666666666666667,1.55,4300.641202708,4301.212919041,9,4300.708339375,4300.774154333,4301.229931083,4302.773363625,1,0.57171633300004
201,10,3,categorization,0,bathroom,SHINEd_sun_apkxzenqapsujocq.tif,45,0.0666666666666667,0.0666666666666667,1.41666666666667,4302.791348458,4303.327334833,13,4302.858424875,4302.924683166,4303.348038083,4304.758095375,1,0.535986374999993
201,11,3,categorization,0,kitchen,SHINEd_sun_afuyedyxivkhecmu.tif,85,0.0666666666666667,0.0666666666666667,0.8,4304.775515,4305.424442041,9,4304.842169125,4304.908658,4305.448706,4306.242133041,1,0.648927040999297
201,12,3,categorization,0,kitchen,SHINEd_sun_aunzlwrbjumxhwdj.tif,103,0.0666666666666667,0.0666666666666667,1.28333333333333,4306.258899958,4307.31414275,9,4306.325676833,4306.391663333,4307.327133625,4308.603873916,1,1.05524279200017
201,13,3,categorization,0,kitchen,SHINEd_sun_avszsnwsbuqfgzbn.tif,105,0.0666666666666667,0.0666666666666667,1.66666666666667,4308.620665875,4309.318910375,9,4308.68769825,4308.753416041,4309.343122208,4311.003183,1,0.698244500000328
201,14,3,categorization,0,kitchen,SHINEd_sun_auticobqsbwgoppi.tif,104,0.0666666666666667,0.0666666666666667,1.81666666666667,4311.020417708,4316.081700958,9,4311.087401166,4311.153544791,4316.089075,4317.899156,1,5.06128324999918
201,15,3,categorization,0,kitchen,SHINEd_sun_ahljzhgcdpomplvg.tif,91,0.0666666666666667,0.0666666666666667,1.35,4317.916243833,4318.791339833,9,4317.9809695,4318.049101583,4318.804756583,4320.148168166,1,0.875095999999758
201,16,3,categorization,0,bathroom,SHINEd_sun_apeeialkgkuxddgh.tif,42,0.0666666666666667,0.0666666666666667,0.916666666666667,4320.163351666,4320.738497166,13,4320.231960708,4320.2963465,4320.751829625,4321.6618935,1,0.575145499999962
201,17,3,categorization,0,kitchen,SHINEd_sun_ajcbwwvdlsvjyzje.tif,96,0.0666666666666667,0.0666666666666667,0.916666666666667,4321.677982625,4322.545730458,13,4321.744911666,4321.810589125,4322.562423708,4323.472433208,0,0.867747833000067
201,18,3,categorization,0,kitchen,SHINEd_sun_aegoxogugdkwpmpj.tif,80,0.0666666666666667,0.0666666666666667,1.31666666666667,4323.477226041,4323.946328375,9,4323.538905458,4323.599896958,4323.951510916,4325.261603666,1,0.469102334000127
201,19,3,categorization,0,bathroom,SHINEd_sun_awnqiikzaispgmwo.tif,56,0.0666666666666667,0.0666666666666667,1.45,4325.279115458,4325.859270375,13,4325.345936166,4325.411868666,4325.88514275,4327.328563041,1,0.580154917000073
201,20,3,categorization,0,kitchen,SHINEd_labelme_brsyyvweiuaazfr.tif,61,0.0666666666666667,0.0666666666666667,0.95,4327.346649875,4327.964861375,9,4327.412954083,4327.479252083,4327.984412333,4328.927810291,1,0.618211499999234
201,21,3,categorization,0,bathroom,SHINEd_sun_ausgutylgojavyoq.tif,53,0.0666666666666667,0.0666666666666667,1.38333333333333,4328.943311375,4329.530306625,13,4329.009956458,4329.076039625,4329.544936333,4330.921705416,1,0.586995249999745
201,22,3,categorization,0,bathroom,SHINEd_sun_abapwbhyhkfixyex.tif,14,0.0666666666666667,0.0666666666666667,1.16666666666667,4330.938159541,4331.958391625,13,4331.004775166,4331.071486083,4331.976637125,4333.136692458,1,1.02023208400078
201,23,3,categorization,0,bathroom,SHINEd_labelme_sfxiulhjbhlyiyt.tif,11,0.0666666666666667,0.0666666666666667,1.61666666666667,4333.14595775,4333.772205708,13,4333.21234225,4333.27984225,4333.785120333,4335.39518075,1,0.626247958000022
201,24,3,categorization,0,kitchen,SHINEd_sun_agzzivivdpnawacl.tif,89,0.0666666666666667,0.0666666666666667,1.38333333333333,4335.412277541,4336.043247958,13,4335.478946125,4335.545070041,4336.067322041,4337.444074625,0,0.630970417000754
201,25,3,categorization,0,kitchen,SHINEd_sun_aymvwlarqodbwuoc.tif,108,0.0666666666666667,0.0666666666666667,1.78333333333333,4337.460703041,4338.105730291,9,4337.527237041,4337.592111041,4338.1319575,4339.908682958,1,0.645027250000567
201,26,3,categorization,0,kitchen,SHINEd_sun_ahspylgoovwmwvgk.tif,93,0.0666666666666667,0.0666666666666667,0.783333333333333,4339.926310375,4340.589006666,9,4339.991321541,4340.059176916,4340.615604333,4341.392282333,1,0.662696291000429
201,27,3,categorization,0,bathroom,SHINEd_sun_apmqjbnwghzuhhzh.tif,46,0.0666666666666667,0.0666666666666667,1.65,4341.398196458,4341.962238791,13,4341.459885875,4341.521125791,4341.972684833,4343.616098875,1,0.564042333000543
201,28,3,categorization,0,bathroom,SHINEd_sun_aghyqhbptboemmoq.tif,23,0.0666666666666667,0.0666666666666667,1.86666666666667,4343.63559425,4344.35753225,13,4343.702261333,4343.768326666,4344.37411325,4346.234192458,1,0.721937999999682
201,29,3,categorization,0,bathroom,SHINEd_sun_agguqiubmwhqqunb.tif,22,0.0666666666666667,0.0666666666666667,1.23333333333333,4346.251975458,4346.759288541,13,4346.318587125,4346.384921458,4346.77398575,4348.000742333,1,0.507313083000554
201,30,3,categorization,0,bathroom,SHINEd_sun_avhrdrntsqrjzccq.tif,55,0.0666666666666667,0.0666666666666667,0.7,4348.01305825,4348.84619475,13,4348.080356291,4348.145978958,4348.869936166,4349.563342875,1,0.833136500000364
201,31,3,categorization,0,kitchen,SHINEd_sun_ajkqhtgcbgpcwrwn.tif,97,0.0666666666666667,0.0666666666666667,0.716666666666667,4349.58075975,4350.12989325,9,4349.647610791,4349.713823375,4350.1489785,4350.858987291,1,0.549133500000607
201,32,3,categorization,0,kitchen,SHINEd_sun_aixorpehvfykdynp.tif,95,0.0666666666666667,0.0666666666666667,1.05,4350.863754083,4351.409824791,9,4350.925461708,4350.986421875,4351.421636166,4352.465053583,1,0.546070708000116
201,33,3,categorization,0,bathroom,SHINEd_sun_acduarbnmmoglmiv.tif,16,0.0666666666666667,0.0666666666666667,1.1,4352.473253875,4353.178596791,13,4352.538372958,4352.604173791,4353.193620041,4354.287026916,1,0.705342915999609
201,34,3,categorization,0,kitchen,SHINEd_sun_aggjlwcdjsjcaemh.tif,86,0.0666666666666667,0.0666666666666667,1.13333333333333,4354.304331375,4355.754091541,9,4354.371238416,4354.437168083,4355.773372791,4356.90009675,1,1.44976016599958
201,35,3,categorization,0,bathroom,SHINEd_sun_amzlamotzwfkwjco.tif,37,0.0666666666666667,0.0666666666666667,1.38333333333333,4356.909538291,4357.526993625,9,4356.974678708,4357.042085,4357.548626458,4358.92534575,0,0.617455333999715
201,36,3,categorization,0,kitchen,SHINEd_sun_aapllqyqlykszopd.tif,66,0.0666666666666667,0.0666666666666667,1.5,4358.943134333,4359.62942925,9,4359.009839,4359.075686291,4359.648357375,4361.141750916,1,0.686294916999941
201,37,3,categorization,0,kitchen,SHINEd_sun_agorklincwxrdtga.tif,87,0.0666666666666667,0.0666666666666667,1.61666666666667,4361.159057083,4361.77931275,9,4361.225798375,4361.292022041,4361.798178,4363.408250666,1,0.620255666999583
201,38,3,categorization,0,bathroom,SHINEd_sun_aggnnqpdorgxpvce.tif,21,0.0666666666666667,0.0666666666666667,0.983333333333333,4363.425920375,4364.0368785,9,4363.493049625,4363.55892825,4364.0659695,4365.042707458,0,0.610958125000252
201,39,3,categorization,0,kitchen,SHINEd_sun_aehawpgmrlhlvcow.tif,81,0.0666666666666667,0.0666666666666667,1.3,4365.056226,4365.650562,9,4365.122980708,4365.181155125,4365.666342333,4366.959768541,1,0.594336000000112
201,40,3,categorization,0,kitchen,SHINEd_sun_akchetnepxlcxhsu.tif,98,0.0666666666666667,0.0666666666666667,1.03333333333333,4366.97800775,4367.575451208,13,4367.044897291,4367.111104041,4367.600922708,4368.627646458,0,0.597443458000271
201,41,3,categorization,0,bathroom,SHINEd_sun_akiytfaagpdsphgz.tif,31,0.0666666666666667,0.0666666666666667,1.45,4368.64358,4369.21819525,13,4368.70631725,4368.766614083,4369.235253916,4370.678686125,1,0.574615249999624
201,42,3,categorization,0,bathroom,SHINEd_sun_aoybiabnpadelefl.tif,41,0.0666666666666667,0.0666666666666667,1.23333333333333,4370.696447916,4371.858281916,13,4370.762926541,4370.8291165,4371.885159166,4373.111893958,1,1.16183400000045
201,43,3,categorization,0,kitchen,SHINEd_sun_aexklacwqwezaorf.tif,84,0.0666666666666667,0.0666666666666667,1.26666666666667,4373.129081291,4373.757433,9,4373.196441166,4373.261693958,4373.784451125,4375.044508791,1,0.628351708999617
201,44,3,categorization,0,kitchen,SHINEd_sun_akcjzhbbjlbogpdi.tif,99,0.0666666666666667,0.0666666666666667,1.03333333333333,4375.061189208,4375.574404291,9,4375.127716333,4375.194215166,4375.600595458,4376.627352541,1,0.513215083000432
201,45,3,categorization,0,kitchen,SHINEd_sun_agubuxuukhzyzpdp.tif,88,0.0666666666666667,0.0666666666666667,1.31666666666667,4376.638865041,4377.25770725,9,4376.705439208,4376.771717875,4377.274287291,4378.584370916,1,0.618842208999922
201,46,3,categorization,0,kitchen,SHINEd_sun_azmutvzbxypaceni.tif,110,0.0666666666666667,0.0666666666666667,1.7,4378.602241625,4379.274819041,9,4378.668797916,4378.735160416,4379.290994666,4380.984414916,1,0.672577416000422
201,47,3,categorization,0,bathroom,SHINEd_sun_afcoljnjfoxjtgja.tif,20,0.0666666666666667,0.0666666666666667,1.35,4381.002123916,4382.101864125,9,4381.068760708,4381.135102916,4382.12525725,4383.468649333,0,1.09974020900063
201,48,3,categorization,0,bathroom,SHINEd_sun_aavhrsfjbserjtht.tif,13,0.0666666666666667,0.0666666666666667,0.8,4383.487595291,4384.100156291,9,4383.554275708,4383.620578125,4384.127036875,4384.920447125,0,0.612560999999914
201,49,3,categorization,0,bathroom,SHINEd_sun_atstyziqcmkahyxk.tif,51,0.0666666666666667,0.0666666666666667,0.766666666666667,4384.936056625,4385.490273291,13,4385.002999916,4385.068525333,4385.503971458,4386.263978541,1,0.554216666000684
201,50,3,categorization,0,bathroom,SHINEd_sun_aspsyogrekjtfozg.tif,50,0.0666666666666667,0.0666666666666667,1.38333333333333,4386.268878666,4386.897623708,13,4386.330576541,4386.391745291,4386.910133166,4388.286859208,1,0.628745041999537
201,1,4,categorization,0,bathroom,SHINEd_sun_apynckhmoftszqoq.tif,47,0.0666666666666667,0.0666666666666667,1,4397.489430708,4405.369545833,13,4397.551192416,4405.374441083,4405.392824375,4406.38616425,1,7.88011512499997
201,2,4,categorization,0,bathroom,SHINEd_sun_abjtwfukuwddzted.tif,15,0.0666666666666667,0.0666666666666667,0.966666666666667,4406.390597125,4407.057254458,13,4406.452247625,4406.513254291,4407.065111041,4408.025119791,1,0.66665733300033
201,3,4,categorization,0,kitchen,SHINEd_sun_abrcnpqqhmjwekyf.tif,73,0.0666666666666667,0.0666666666666667,1.75,4408.029942875,4408.705591166,9,4408.091853583,4408.152664625,4408.721072208,4410.464509,1,0.675648290999561
201,4,4,categorization,0,kitchen,SHINEd_sun_acxkpeoqbwcxfvip.tif,77,0.0666666666666667,0.0666666666666667,1.68333333333333,4410.485495708,4411.217323,9,4410.55215375,4410.618530125,4411.241206,4412.917968958,1,0.731827292000162
201,5,4,categorization,0,bathroom,SHINEd_sun_aljolscmmzydegqp.tif,33,0.0666666666666667,0.0666666666666667,1.58333333333333,4412.937144083,4413.577627125,13,4413.00403375,4413.07043625,4413.593184041,4415.169911708,1,0.640483041999687
201,6,4,categorization,0,bathroom,SHINEd_sun_ajlawzvmubibwbpy.tif,30,0.0666666666666667,0.0666666666666667,1,4415.186846083,4415.831229875,13,4415.253898583,4415.319942833,4415.860145416,4416.853489333,1,0.644383791999644
201,7,4,categorization,0,bathroom,SHINEd_sun_aclfzgynxzxlbepz.tif,19,0.0666666666666667,0.0666666666666667,1.33333333333333,4416.858435375,4417.569694666,13,4416.920120916,4416.981253125,4417.582916291,4418.909640041,1,0.711259290999806
201,8,4,categorization,0,bathroom,SHINEd_sun_axxbkopsgyouuebh.tif,58,0.0666666666666667,0.0666666666666667,1.26666666666667,4418.924222541,4419.49908625,13,4418.991007875,4419.056938208,4419.512430666,4420.772513583,1,0.574863709000056
201,9,4,categorization,0,kitchen,SHINEd_sun_aypmqwcualkenuoe.tif,109,0.0666666666666667,0.0666666666666667,0.883333333333333,4420.790308958,4421.756114166,13,4420.857003375,4420.922883041,4421.779625583,4422.656367625,0,0.965805207999438
201,10,4,categorization,0,kitchen,SHINEd_sun_auaiucuqpdausiva.tif,102,0.0666666666666667,0.0666666666666667,1.26666666666667,4422.672083458,4423.185471833,9,4422.7383775,4422.796788666,4423.1986255,4424.45872675,1,0.513388374999522
201,11,4,categorization,0,bathroom,SHINEd_sun_axldvoqbuvuggfmq.tif,57,0.0666666666666667,0.0666666666666667,2,4424.478534666,4424.978936166,9,4424.545282625,4424.611416625,4425.001216625,4426.994633375,0,0.500401499999498
201,12,4,categorization,0,bathroom,SHINEd_sun_acgyywnybuveqsro.tif,18,0.0666666666666667,0.0666666666666667,0.733333333333333,4427.011964291,4427.657435125,13,4427.078523583,4427.144787875,4427.684982625,4428.411658333,1,0.645470833999752
201,13,4,categorization,0,bathroom,SHINEd_sun_aunuadmjocsddsrl.tif,52,0.0666666666666667,0.0666666666666667,0.883333333333333,4428.416455083,4429.145708958,13,4428.478401708,4428.539153333,4429.157817541,4430.034491708,1,0.729253874999813
201,14,4,categorization,0,bathroom,SHINEd_sun_alotolagknyrgtsk.tif,35,0.0666666666666667,0.0666666666666667,0.983333333333333,4430.039322208,4431.04943325,13,4430.100939125,4430.162046541,4431.0637525,4432.040428125,1,1.01011104200006
201,15,4,categorization,0,kitchen,SHINEd_sun_ahywdevtimnqcsln.tif,94,0.0666666666666667,0.0666666666666667,1.56666666666667,4432.045561041,4432.761414125,9,4432.107178333,4432.168203041,4432.77000875,4434.330073875,1,0.715853083999718
201,16,4,categorization,0,kitchen,SHINEd_sun_adgqasybjyktddhj.tif,78,0.0666666666666667,0.0666666666666667,1.08333333333333,4434.348012375,4435.21441025,9,4434.414402333,4434.481018041,4435.237604958,4436.314336375,1,0.866397875000075
201,17,4,categorization,0,kitchen,SHINEd_sun_axyyrmzcupyhlivc.tif,107,0.0666666666666667,0.0666666666666667,0.75,4436.322919416,4437.194134,9,4436.387489708,4436.45573425,4437.2121475,4437.955558416,1,0.871214583999972
201,18,4,categorization,0,bathroom,SHINEd_sun_ambriybtogmepttm.tif,36,0.0666666666666667,0.0666666666666667,0.966666666666667,4437.971654708,4438.6331975,9,4438.038240458,4438.10449275,4438.640157708,4439.600163791,0,0.661542792000546
201,19,4,categorization,0,bathroom,SHINEd_sun_ahaulkltgpkeeemi.tif,26,0.0666666666666667,0.0666666666666667,1.63333333333333,4439.604895375,4440.289405666,13,4439.666538958,4439.727725583,4440.296139583,4441.922876708,1,0.684510291000151
201,20,4,categorization,0,bathroom,SHINEd_sun_apjevzvycyhuqghb.tif,43,0.0666666666666667,0.0666666666666667,1.46666666666667,4441.940802375,4442.914852458,9,4442.005993375,4442.073563291,4442.929222125,4444.389325416,0,0.974050082999383
201,21,4,categorization,0,kitchen,SHINEd_sun_amjjdeyrggfqgmom.tif,100,0.0666666666666667,0.0666666666666667,0.933333333333333,4444.406727166,4445.017113958,9,4444.473445375,4444.539673708,4445.04639425,4445.973137,1,0.610386792000099
201,22,4,categorization,0,kitchen,SHINEd_sun_abdxkyyxwfskuaqb.tif,70,0.0666666666666667,0.0666666666666667,1.45,4445.983220375,4446.689121375,9,4446.048183791,4446.106376916,4446.708176333,4448.151583083,1,0.705900999999358
201,23,4,categorization,0,bathroom,SHINEd_sun_apkruvsevgegsdwp.tif,44,0.0666666666666667,0.0666666666666667,0.966666666666667,4448.170877041,4448.84204975,13,4448.237373125,4448.30358675,4448.859445291,4449.819511041,1,0.67117270900053
201,24,4,categorization,0,kitchen,SHINEd_sun_admlmbcdswaszruo.tif,79,0.0666666666666667,0.0666666666666667,0.816666666666667,4449.827289666,4450.450154666,9,4449.889122833,4449.949942875,4450.468322041,4451.278333083,1,0.622865000000274
201,25,4,categorization,0,bathroom,SHINEd_sun_ahijqszoswveeyji.tif,28,0.0666666666666667,0.0666666666666667,1.96666666666667,4451.283411666,4452.02541275,9,4451.345111,4451.406138666,4452.041119541,4454.00121775,0,0.742001084000549
201,26,4,categorization,0,bathroom,SHINEd_sun_azqyogdvyhahyram.tif,60,0.0666666666666667,0.0666666666666667,0.916666666666667,4454.011881541,4454.604847791,13,4454.07866875,4454.145299458,4454.635376041,4455.545382333,1,0.592966250000245
201,27,4,categorization,0,bathroom,SHINEd_sun_asfwthctfqerjvxr.tif,49,0.0666666666666667,0.0666666666666667,1.28333333333333,4455.550090958,4456.553766083,13,4455.6117045,4455.672771083,4456.557973958,4457.834703083,1,1.00367512499997
201,28,4,categorization,0,bathroom,SHINEd_sun_agyqfjcfkdcydepw.tif,25,0.0666666666666667,0.0666666666666667,1.8,4457.852094208,4458.460383875,9,4457.918654458,4457.981592666,4458.48794775,4460.281354666,0,0.608289666999553
201,29,4,categorization,0,bathroom,SHINEd_sun_auzqhkafidnkrwmo.tif,54,0.0666666666666667,0.0666666666666667,1.33333333333333,4460.30160325,4460.988860041,13,4460.3683035,4460.43461125,4461.007402166,4462.334139791,1,0.687256791000436
201,30,4,categorization,0,bathroom,SHINEd_sun_anryaplzeujmzfkd.tif,39,0.0666666666666667,0.0666666666666667,1.06666666666667,4462.351589208,4463.25602025,9,4462.418039916,4462.484452625,4463.2738605,4464.333952916,0,0.904431041999487
201,31,4,categorization,0,bathroom,SHINEd_sun_aapitsgbtktqubfy.tif,12,0.0666666666666667,0.0666666666666667,1.03333333333333,4464.342775833,4464.916856291,13,4464.407242333,4464.4742395,4464.947135833,4465.973884333,1,0.574080458000026
201,32,4,categorization,0,kitchen,SHINEd_sun_abdenxonkemggwsq.tif,69,0.0666666666666667,0.0666666666666667,0.733333333333333,4465.983214,4466.593483666,9,4466.05042575,4466.116058458,4466.601597416,4467.328270416,1,0.610269666000022
201,33,4,categorization,0,kitchen,SHINEd_sun_awcpdzzznmweyyhv.tif,106,0.0666666666666667,0.0666666666666667,0.766666666666667,4467.332877541,4467.953338083,9,4467.394524625,4467.455702,4467.957400708,4468.71740725,1,0.620460541999819
201,34,4,categorization,0,bathroom,SHINEd_sun_anhioqovhscjqqwb.tif,38,0.0666666666666667,0.0666666666666667,1.1,4468.722169125,4469.321915333,13,4468.783804583,4468.844830208,4469.329941,4470.4233365,1,0.599746208000397
201,35,4,categorization,0,bathroom,SHINEd_sun_alkosphxlxwjwgjd.tif,34,0.0666666666666667,0.0666666666666667,1.81666666666667,4470.434013333,4471.142235416,13,4470.498858208,4470.565842458,4471.172267541,4472.982343208,1,0.708222083000692
201,36,4,categorization,0,kitchen,SHINEd_sun_aarfiyshqohlwkmo.tif,67,0.0666666666666667,0.0666666666666667,0.883333333333333,4472.99804725,4473.559329041,9,4473.064337458,4473.131584666,4473.588436083,4474.465186,1,0.561281790999601
201,37,4,categorization,0,bathroom,SHINEd_sun_agrwbmhcpmfuwmsg.tif,24,0.0666666666666667,0.0666666666666667,1.7,4474.482293,4475.169392791,13,4474.545011375,4474.604998916,4475.173368541,4476.866762041,1,0.687099791000037
201,38,4,categorization,0,bathroom,SHINEd_sun_aleqenyvunhactkl.tif,32,0.0666666666666667,0.0666666666666667,1.58333333333333,4476.88463275,4477.510766958,13,4476.951426083,4477.017519291,4477.540798791,4479.117522291,1,0.626134208000622
201,39,4,categorization,0,bathroom,SHINEd_sun_axyrejkiiaqiurjk.tif,59,0.0666666666666667,0.0666666666666667,0.833333333333333,4479.130378291,4479.913777458,13,4479.196941333,4479.2630605,4479.93635725,4480.76303175,1,0.783399167000425
201,40,4,categorization,0,bathroom,SHINEd_sun_aofnryafpsjimzsb.tif,40,0.0666666666666667,0.0666666666666667,0.95,4480.767865125,4481.521351208,13,4480.829554541,4480.890982875,4481.526078333,4482.469420833,1,0.753486083000098
201,41,4,categorization,0,kitchen,SHINEd_sun_aamedkxepzlwuxes.tif,65,0.0666666666666667,0.0666666666666667,1.06666666666667,4482.474183875,4483.593955125,9,4482.535890916,4482.597048541,4483.598868666,4484.658949791,1,1.11977125000067
201,42,4,categorization,0,bathroom,SHINEd_sun_acegryoqftbzowsg.tif,17,0.0666666666666667,0.0666666666666667,1.68333333333333,4484.668429041,4485.379060666,13,4484.733147208,4484.798936541,4485.405207291,4487.081981791,1,0.710631625000133
201,43,4,categorization,0,kitchen,SHINEd_sun_abpwyqmlzafvklqo.tif,72,0.0666666666666667,0.0666666666666667,1.31666666666667,4487.101140958,4487.652791416,9,4487.168012875,4487.233767541,4487.67341875,4488.983515416,1,0.55165045800004
201,44,4,categorization,0,kitchen,SHINEd_sun_acwjdupvyjsugpay.tif,76,0.0666666666666667,0.0666666666666667,1.61666666666667,4489.001260416,4489.658334333,9,4489.067841666,4489.134013708,4489.672285208,4491.282385,1,0.657073917000162
201,45,4,categorization,0,kitchen,SHINEd_sun_acgtpgfybqjmzeyw.tif,75,0.0666666666666667,0.0666666666666667,1.15,4491.301930375,4491.830831083,9,4491.368114958,4491.434881416,4491.857795166,4493.001216666,1,0.528900708000037
201,46,4,categorization,0,kitchen,SHINEd_labelme_kxvouciolcpqplr.tif,62,0.0666666666666667,0.0666666666666667,1.25,4493.017972208,4493.585402875,9,4493.08460625,4493.14391375,4493.595607291,4494.839010958,1,0.567430666999826
201,47,4,categorization,0,kitchen,SHINEd_sun_aeqdocilnnpuvuhx.tif,83,0.0666666666666667,0.0666666666666667,1.1,4494.855317625,4495.434588666,9,4494.922112291,4494.988344708,4495.461152041,4496.554557666,1,0.579271041000538
201,48,4,categorization,0,kitchen,SHINEd_sun_aqeaevwwwjoqhzvl.tif,101,0.0666666666666667,0.0666666666666667,0.9,4496.570959375,4497.033460375,9,4496.637565791,4496.694530708,4497.046205333,4497.939548833,1,0.462500999999975
201,49,4,categorization,0,kitchen,SHINEd_sun_abftihopvusyfakt.tif,71,0.0666666666666667,0.0666666666666667,1.3,4497.944358125,4498.369477958,9,4498.005992958,4498.067104916,4498.385862166,4499.679280916,1,0.425119833000281
201,50,4,categorization,0,kitchen,SHINEd_sun_aaxxjlsuzvqlgylf.tif,68,0.0666666666666667,0.0666666666666667,1.25,4499.696306166,4500.106696291,9,4499.7626755,4499.8290245,4500.135689166,4501.379080583,1,0.410390125000049
