sub_num,trial,block,task,is_practice,category,image,texture,duration,mask_dur,jitter,stim_time,time_of_resp,trial_response,mask_time,fix_time,jit_onset,trial_end,trial_accuracy,RT
201,1,5,categorization,0,kitchen,SHINEd_sun_ajcbwwvdlsvjyzje.tif,96,0.0666666666666667,0.0666666666666667,1.7,4518.750143583,NaN,NaN,4518.811979208,NaN,NaN,NaN,NaN,NaN
201,2,5,categorization,0,bathroom,SHINEd_sun_atstyziqcmkahyxk.tif,51,0.0666666666666667,0.0666666666666667,1.81666666666667,NaN,NaN,NaN,NaN,NaN,NaN,NaN,NaN,NaN
201,3,5,categorization,0,bathroom,SHINEd_sun_apkruvsevgegsdwp.tif,44,0.0666666666666667,0.0666666666666667,1.23333333333333,NaN,NaN,NaN,NaN,NaN,NaN,NaN,NaN,NaN
201,4,5,categorization,0,bathroom,SHINEd_sun_aspsyogrekjtfozg.tif,50,0.0666666666666667,0.0666666666666667,1.4,NaN,NaN,NaN,NaN,NaN,NaN,NaN,NaN,NaN
201,5,5,categorization,0,bathroom,SHINEd_sun_aghyqhbptboemmoq.tif,23,0.0666666666666667,0.0666666666666667,1.03333333333333,NaN,NaN,NaN,NaN,NaN,NaN,NaN,NaN,NaN
201,6,5,categorization,0,bathroom,SHINEd_sun_acegryoqftbzowsg.tif,17,0.0666666666666667,0.0666666666666667,1.38333333333333,NaN,NaN,NaN,NaN,NaN,NaN,NaN,NaN,NaN
201,7,5,categorization,0,bathroom,SHINEd_sun_apeeialkgkuxddgh.tif,42,0.0666666666666667,0.0666666666666667,2,NaN,NaN,NaN,NaN,NaN,NaN,NaN,NaN,NaN
201,8,5,categorization,0,bathroom,SHINEd_sun_aunuadmjocsddsrl.tif,52,0.0666666666666667,0.0666666666666667,1.85,NaN,NaN,NaN,NaN,NaN,NaN,NaN,NaN,NaN
201,9,5,categorization,0,kitchen,SHINEd_sun_afuyedyxivkhecmu.tif,85,0.0666666666666667,0.0666666666666667,0.816666666666667,NaN,NaN,NaN,NaN,NaN,NaN,NaN,NaN,NaN
201,10,5,categorization,0,bathroom,SHINEd_labelme_sfxiulhjbhlyiyt.tif,11,0.0666666666666667,0.0666666666666667,1.85,NaN,NaN,NaN,NaN,NaN,NaN,NaN,NaN,NaN
201,11,5,categorization,0,bathroom,SHINEd_sun_ahijqszoswveeyji.tif,28,0.0666666666666667,0.0666666666666667,0.733333333333333,NaN,NaN,NaN,NaN,NaN,NaN,NaN,NaN,NaN
201,12,5,categorization,0,bathroom,SHINEd_sun_afcoljnjfoxjtgja.tif,20,0.0666666666666667,0.0666666666666667,0.716666666666667,NaN,NaN,NaN,NaN,NaN,NaN,NaN,NaN,NaN
201,13,5,categorization,0,bathroom,SHINEd_sun_axyrejkiiaqiurjk.tif,59,0.0666666666666667,0.0666666666666667,0.833333333333333,NaN,NaN,NaN,NaN,NaN,NaN,NaN,NaN,NaN
201,14,5,categorization,0,kitchen,SHINEd_sun_amjjdeyrggfqgmom.tif,100,0.0666666666666667,0.0666666666666667,0.95,NaN,NaN,NaN,NaN,NaN,NaN,NaN,NaN,NaN
201,15,5,categorization,0,kitchen,SHINEd_sun_akcjzhbbjlbogpdi.tif,99,0.0666666666666667,0.0666666666666667,1.96666666666667,NaN,NaN,NaN,NaN,NaN,NaN,NaN,NaN,NaN
201,16,5,categorization,0,bathroom,SHINEd_sun_abapwbhyhkfixyex.tif,14,0.0666666666666667,0.0666666666666667,1.86666666666667,NaN,NaN,NaN,NaN,NaN,NaN,NaN,NaN,NaN
201,17,5,categorization,0,kitchen,SHINEd_sun_aexklacwqwezaorf.tif,84,0.0666666666666667,0.0666666666666667,1.51666666666667,NaN,NaN,NaN,NaN,NaN,NaN,NaN,NaN,NaN
201,18,5,categorization,0,bathroom,SHINEd_sun_avhrdrntsqrjzccq.tif,55,0.0666666666666667,0.0666666666666667,1.3,NaN,NaN,NaN,NaN,NaN,NaN,NaN,NaN,NaN
201,19,5,categorization,0,bathroom,SHINEd_sun_ajlawzvmubibwbpy.tif,30,0.0666666666666667,0.0666666666666667,1.91666666666667,NaN,NaN,NaN,NaN,NaN,NaN,NaN,NaN,NaN
201,20,5,categorization,0,kitchen,SHINEd_sun_awcpdzzznmweyyhv.tif,106,0.0666666666666667,0.0666666666666667,1.23333333333333,NaN,NaN,NaN,NaN,NaN,NaN,NaN,NaN,NaN
201,21,5,categorization,0,bathroom,SHINEd_sun_alotolagknyrgtsk.tif,35,0.0666666666666667,0.0666666666666667,0.866666666666667,NaN,NaN,NaN,NaN,NaN,NaN,NaN,NaN,NaN
201,22,5,categorization,0,kitchen,SHINEd_sun_adgqasybjyktddhj.tif,78,0.0666666666666667,0.0666666666666667,0.8,NaN,NaN,NaN,NaN,NaN,NaN,NaN,NaN,NaN
201,23,5,categorization,0,kitchen,SHINEd_sun_aapllqyqlykszopd.tif,66,0.0666666666666667,0.0666666666666667,1.51666666666667,NaN,NaN,NaN,NaN,NaN,NaN,NaN,NaN,NaN
201,24,5,categorization,0,kitchen,SHINEd_sun_akchetnepxlcxhsu.tif,98,0.0666666666666667,0.0666666666666667,1.18333333333333,NaN,NaN,NaN,NaN,NaN,NaN,NaN,NaN,NaN
201,25,5,categorization,0,kitchen,SHINEd_sun_ajkqhtgcbgpcwrwn.tif,97,0.0666666666666667,0.0666666666666667,1.6,NaN,NaN,NaN,NaN,NaN,NaN,NaN,NaN,NaN
201,26,5,categorization,0,bathroom,SHINEd_sun_agrwbmhcpmfuwmsg.tif,24,0.0666666666666667,0.0666666666666667,1.56666666666667,NaN,NaN,NaN,NaN,NaN,NaN,NaN,NaN,NaN
201,27,5,categorization,0,kitchen,SHINEd_sun_ahljzhgcdpomplvg.tif,91,0.0666666666666667,0.0666666666666667,1.36666666666667,NaN,NaN,NaN,NaN,NaN,NaN,NaN,NaN,NaN
201,28,5,categorization,0,bathroom,SHINEd_sun_aggnnqpdorgxpvce.tif,21,0.0666666666666667,0.0666666666666667,1.53333333333333,NaN,NaN,NaN,NaN,NaN,NaN,NaN,NaN,NaN
201,29,5,categorization,0,kitchen,SHINEd_sun_aypmqwcualkenuoe.tif,109,0.0666666666666667,0.0666666666666667,1.4,NaN,NaN,NaN,NaN,NaN,NaN,NaN,NaN,NaN
201,30,5,categorization,0,bathroom,SHINEd_sun_anryaplzeujmzfkd.tif,39,0.0666666666666667,0.0666666666666667,1.06666666666667,NaN,NaN,NaN,NaN,NaN,NaN,NaN,NaN,NaN
201,31,5,categorization,0,bathroom,SHINEd_sun_ahcvzmoyaycdoftf.tif,27,0.0666666666666667,0.0666666666666667,1.63333333333333,NaN,NaN,NaN,NaN,NaN,NaN,NaN,NaN,NaN
201,32,5,categorization,0,kitchen,SHINEd_sun_aenotlpyftoioydp.tif,82,0.0666666666666667,0.0666666666666667,1.8,NaN,NaN,NaN,NaN,NaN,NaN,NaN,NaN,NaN
201,33,5,categorization,0,kitchen,SHINEd_sun_avszsnwsbuqfgzbn.tif,105,0.0666666666666667,0.0666666666666667,1.53333333333333,NaN,NaN,NaN,NaN,NaN,NaN,NaN,NaN,NaN
201,34,5,categorization,0,bathroom,SHINEd_sun_ahaulkltgpkeeemi.tif,26,0.0666666666666667,0.0666666666666667,0.766666666666667,NaN,NaN,NaN,NaN,NaN,NaN,NaN,NaN,NaN
201,35,5,categorization,0,kitchen,SHINEd_sun_acgtpgfybqjmzeyw.tif,75,0.0666666666666667,0.0666666666666667,1.86666666666667,NaN,NaN,NaN,NaN,NaN,NaN,NaN,NaN,NaN
201,36,5,categorization,0,bathroom,SHINEd_sun_acduarbnmmoglmiv.tif,16,0.0666666666666667,0.0666666666666667,1.13333333333333,NaN,NaN,NaN,NaN,NaN,NaN,NaN,NaN,NaN
201,37,5,categorization,0,kitchen,SHINEd_sun_aarfiyshqohlwkmo.tif,67,0.0666666666666667,0.0666666666666667,1.73333333333333,NaN,NaN,NaN,NaN,NaN,NaN,NaN,NaN,NaN
201,38,5,categorization,0,bathroom,SHINEd_sun_apynckhmoftszqoq.tif,47,0.0666666666666667,0.0666666666666667,0.766666666666667,NaN,NaN,NaN,NaN,NaN,NaN,NaN,NaN,NaN
201,39,5,categorization,0,bathroom,SHINEd_sun_ausgutylgojavyoq.tif,53,0.0666666666666667,0.0666666666666667,1.85,NaN,NaN,NaN,NaN,NaN,NaN,NaN,NaN,NaN
201,40,5,categorization,0,bathroom,SHINEd_sun_asfwthctfqerjvxr.tif,49,0.0666666666666667,0.0666666666666667,0.966666666666667,NaN,NaN,NaN,NaN,NaN,NaN,NaN,NaN,NaN
201,41,5,categorization,0,kitchen,SHINEd_sun_ahywdevtimnqcsln.tif,94,0.0666666666666667,0.0666666666666667,1.06666666666667,NaN,NaN,NaN,NaN,NaN,NaN,NaN,NaN,NaN
201,42,5,categorization,0,kitchen,SHINEd_sun_aunzlwrbjumxhwdj.tif,103,0.0666666666666667,0.0666666666666667,1.38333333333333,NaN,NaN,NaN,NaN,NaN,NaN,NaN,NaN,NaN
201,43,5,categorization,0,bathroom,SHINEd_sun_anhioqovhscjqqwb.tif,38,0.0666666666666667,0.0666666666666667,0.766666666666667,NaN,NaN,NaN,NaN,NaN,NaN,NaN,NaN,NaN
201,44,5,categorization,0,kitchen,SHINEd_labelme_rykdqxenmhulbdn.tif,63,0.0666666666666667,0.0666666666666667,0.866666666666667,NaN,NaN,NaN,NaN,NaN,NaN,NaN,NaN,NaN
201,45,5,categorization,0,kitchen,SHINEd_sun_aadbddgrdsjugojn.tif,64,0.0666666666666667,0.0666666666666667,1.25,NaN,NaN,NaN,NaN,NaN,NaN,NaN,NaN,NaN
201,46,5,categorization,0,bathroom,SHINEd_sun_apmqjbnwghzuhhzh.tif,46,0.0666666666666667,0.0666666666666667,1.03333333333333,NaN,NaN,NaN,NaN,NaN,NaN,NaN,NaN,NaN
201,47,5,categorization,0,bathroom,SHINEd_sun_aleqenyvunhactkl.tif,32,0.0666666666666667,0.0666666666666667,0.783333333333333,NaN,NaN,NaN,NaN,NaN,NaN,NaN,NaN,NaN
201,48,5,categorization,0,bathroom,SHINEd_sun_alkosphxlxwjwgjd.tif,34,0.0666666666666667,0.0666666666666667,0.7,NaN,NaN,NaN,NaN,NaN,NaN,NaN,NaN,NaN
201,49,5,categorization,0,bathroom,SHINEd_sun_apjevzvycyhuqghb.tif,43,0.0666666666666667,0.0666666666666667,1.75,NaN,NaN,NaN,NaN,NaN,NaN,NaN,NaN,NaN
201,50,5,categorization,0,bathroom,SHINEd_sun_agyqfjcfkdcydepw.tif,25,0.0666666666666667,0.0666666666666667,1.36666666666667,NaN,NaN,NaN,NaN,NaN,NaN,NaN,NaN,NaN
