sub_num,trial,block,task,is_practice,category,image,texture,duration,mask_dur,jitter,stim_time,time_of_resp,trial_response,mask_time,fix_time,jit_onset,trial_end,trial_accuracy,RT
201,1,3,categorization,0,kitchen,SHINEd_sun_aenotlpyftoioydp.tif,82,0.0666666666666667,0.0666666666666667,0.85,4286.278368083,4287.097939291,9,4286.340160916,4286.401236083,4287.103076,4287.946415541,NaN,NaN
201,2,3,categorization,0,kitchen,SHINEd_sun_ahdycvpopffkzzsu.tif,90,0.0666666666666667,0.0666666666666667,1.65,4287.951216166,4288.674098666,9,4288.012878708,4288.073965541,4288.692485541,4290.335914416,NaN,NaN
201,3,3,categorization,0,bathroom,SHINEd_sun_ahcvzmoyaycdoftf.tif,27,0.0666666666666667,0.0666666666666667,0.783333333333333,4290.354594541,4290.895465083,13,4290.421240458,4290.486756041,4290.908367541,4291.685138791,NaN,NaN
201,4,3,categorization,0,kitchen,SHINEd_sun_ahpczsiumwwocjkv.tif,92,0.0666666666666667,0.0666666666666667,0.933333333333333,4291.702455166,4292.25783825,9,4291.768796833,4291.826319875,4292.261350875,4293.188025708,NaN,NaN
201,5,3,categorization,0,bathroom,SHINEd_sun_ahqjwnzgolcaoidx.tif,29,0.0666666666666667,0.0666666666666667,0.866666666666667,4293.192895791,4293.866407916,13,4293.254598416,4293.315645125,4293.884125708,4294.744131458,NaN,NaN
201,6,3,categorization,0,bathroom,SHINEd_sun_aqrpegblszgcoujh.tif,48,0.0666666666666667,0.0666666666666667,1.11666666666667,4294.75078775,4295.618725791,13,4294.812487583,4294.873512166,4295.625236083,4296.735300416,NaN,NaN
201,7,3,categorization,0,kitchen,SHINEd_sun_aadbddgrdsjugojn.tif,64,0.0666666666666667,0.0666666666666667,0.966666666666667,4296.744328125,4297.275611583,9,4296.8087055,4296.877179583,4297.301358875,4298.261448166,NaN,NaN
201,8,3,categorization,0,kitchen,SHINEd_labelme_rykdqxenmhulbdn.tif,63,0.0666666666666667,0.0666666666666667,1.78333333333333,4298.27707025,4298.842128833,9,4298.343916,4298.411405666,4298.847227333,4300.623983125,NaN,NaN
201,9,3,categorization,0,kitchen,SHINEd_sun_acfmftudsenhrfhy.tif,74,0.0666666666666667,0.0666666666666667,1.55,4300.641202708,4301.212919041,9,4300.708339375,4300.774154333,4301.229931083,4302.773363625,NaN,NaN
201,10,3,categorization,0,bathroom,SHINEd_sun_apkxzenqapsujocq.tif,45,0.0666666666666667,0.0666666666666667,1.41666666666667,4302.791348458,4303.327334833,13,4302.858424875,4302.924683166,4303.348038083,4304.758095375,NaN,NaN
201,11,3,categorization,0,kitchen,SHINEd_sun_afuyedyxivkhecmu.tif,85,0.0666666666666667,0.0666666666666667,0.8,4304.775515,4305.424442041,9,4304.842169125,4304.908658,4305.448706,4306.242133041,NaN,NaN
201,12,3,categorization,0,kitchen,SHINEd_sun_aunzlwrbjumxhwdj.tif,103,0.0666666666666667,0.0666666666666667,1.28333333333333,4306.258899958,4307.31414275,9,4306.325676833,4306.391663333,4307.327133625,4308.603873916,NaN,NaN
201,13,3,categorization,0,kitchen,SHINEd_sun_avszsnwsbuqfgzbn.tif,105,0.0666666666666667,0.0666666666666667,1.66666666666667,4308.620665875,4309.318910375,9,4308.68769825,4308.753416041,4309.343122208,4311.003183,NaN,NaN
201,14,3,categorization,0,kitchen,SHINEd_sun_auticobqsbwgoppi.tif,104,0.0666666666666667,0.0666666666666667,1.81666666666667,4311.020417708,4316.081700958,9,4311.087401166,4311.153544791,4316.089075,4317.899156,NaN,NaN
201,15,3,categorization,0,kitchen,SHINEd_sun_ahljzhgcdpomplvg.tif,91,0.0666666666666667,0.0666666666666667,1.35,4317.916243833,4318.791339833,9,4317.9809695,4318.049101583,4318.804756583,4320.148168166,NaN,NaN
201,16,3,categorization,0,bathroom,SHINEd_sun_apeeialkgkuxddgh.tif,42,0.0666666666666667,0.0666666666666667,0.916666666666667,4320.163351666,4320.738497166,13,4320.231960708,4320.2963465,4320.751829625,4321.6618935,NaN,NaN
201,17,3,categorization,0,kitchen,SHINEd_sun_ajcbwwvdlsvjyzje.tif,96,0.0666666666666667,0.0666666666666667,0.916666666666667,4321.677982625,4322.545730458,13,4321.744911666,4321.810589125,4322.562423708,4323.472433208,NaN,NaN
201,18,3,categorization,0,kitchen,SHINEd_sun_aegoxogugdkwpmpj.tif,80,0.0666666666666667,0.0666666666666667,1.31666666666667,4323.477226041,4323.946328375,9,4323.538905458,4323.599896958,4323.951510916,4325.261603666,NaN,NaN
201,19,3,categorization,0,bathroom,SHINEd_sun_awnqiikzaispgmwo.tif,56,0.0666666666666667,0.0666666666666667,1.45,4325.279115458,4325.859270375,13,4325.345936166,4325.411868666,4325.88514275,4327.328563041,NaN,NaN
201,20,3,categorization,0,kitchen,SHINEd_labelme_brsyyvweiuaazfr.tif,61,0.0666666666666667,0.0666666666666667,0.95,4327.346649875,4327.964861375,9,4327.412954083,4327.479252083,4327.984412333,4328.927810291,NaN,NaN
201,21,3,categorization,0,bathroom,SHINEd_sun_ausgutylgojavyoq.tif,53,0.0666666666666667,0.0666666666666667,1.38333333333333,4328.943311375,4329.530306625,13,4329.009956458,4329.076039625,4329.544936333,4330.921705416,NaN,NaN
201,22,3,categorization,0,bathroom,SHINEd_sun_abapwbhyhkfixyex.tif,14,0.0666666666666667,0.0666666666666667,1.16666666666667,4330.938159541,4331.958391625,13,4331.004775166,4331.071486083,4331.976637125,4333.136692458,NaN,NaN
201,23,3,categorization,0,bathroom,SHINEd_labelme_sfxiulhjbhlyiyt.tif,11,0.0666666666666667,0.0666666666666667,1.61666666666667,4333.14595775,4333.772205708,13,4333.21234225,4333.27984225,4333.785120333,4335.39518075,NaN,NaN
201,24,3,categorization,0,kitchen,SHINEd_sun_agzzivivdpnawacl.tif,89,0.0666666666666667,0.0666666666666667,1.38333333333333,4335.412277541,4336.043247958,13,4335.478946125,4335.545070041,4336.067322041,4337.444074625,NaN,NaN
201,25,3,categorization,0,kitchen,SHINEd_sun_aymvwlarqodbwuoc.tif,108,0.0666666666666667,0.0666666666666667,1.78333333333333,4337.460703041,4338.105730291,9,4337.527237041,4337.592111041,4338.1319575,4339.908682958,NaN,NaN
201,26,3,categorization,0,kitchen,SHINEd_sun_ahspylgoovwmwvgk.tif,93,0.0666666666666667,0.0666666666666667,0.783333333333333,4339.926310375,4340.589006666,9,4339.991321541,4340.059176916,4340.615604333,4341.392282333,NaN,NaN
201,27,3,categorization,0,bathroom,SHINEd_sun_apmqjbnwghzuhhzh.tif,46,0.0666666666666667,0.0666666666666667,1.65,4341.398196458,4341.962238791,13,4341.459885875,4341.521125791,4341.972684833,4343.616098875,NaN,NaN
201,28,3,categorization,0,bathroom,SHINEd_sun_aghyqhbptboemmoq.tif,23,0.0666666666666667,0.0666666666666667,1.86666666666667,4343.63559425,4344.35753225,13,4343.702261333,4343.768326666,4344.37411325,4346.234192458,NaN,NaN
201,29,3,categorization,0,bathroom,SHINEd_sun_agguqiubmwhqqunb.tif,22,0.0666666666666667,0.0666666666666667,1.23333333333333,4346.251975458,4346.759288541,13,4346.318587125,4346.384921458,4346.77398575,4348.000742333,NaN,NaN
201,30,3,categorization,0,bathroom,SHINEd_sun_avhrdrntsqrjzccq.tif,55,0.0666666666666667,0.0666666666666667,0.7,4348.01305825,4348.84619475,13,4348.080356291,4348.145978958,4348.869936166,4349.563342875,NaN,NaN
201,31,3,categorization,0,kitchen,SHINEd_sun_ajkqhtgcbgpcwrwn.tif,97,0.0666666666666667,0.0666666666666667,0.716666666666667,4349.58075975,4350.12989325,9,4349.647610791,4349.713823375,4350.1489785,4350.858987291,NaN,NaN
201,32,3,categorization,0,kitchen,SHINEd_sun_aixorpehvfykdynp.tif,95,0.0666666666666667,0.0666666666666667,1.05,4350.863754083,4351.409824791,9,4350.925461708,4350.986421875,4351.421636166,4352.465053583,NaN,NaN
201,33,3,categorization,0,bathroom,SHINEd_sun_acduarbnmmoglmiv.tif,16,0.0666666666666667,0.0666666666666667,1.1,4352.473253875,4353.178596791,13,4352.538372958,4352.604173791,4353.193620041,4354.287026916,NaN,NaN
201,34,3,categorization,0,kitchen,SHINEd_sun_aggjlwcdjsjcaemh.tif,86,0.0666666666666667,0.0666666666666667,1.13333333333333,4354.304331375,4355.754091541,9,4354.371238416,4354.437168083,4355.773372791,4356.90009675,NaN,NaN
201,35,3,categorization,0,bathroom,SHINEd_sun_amzlamotzwfkwjco.tif,37,0.0666666666666667,0.0666666666666667,1.38333333333333,4356.909538291,4357.526993625,9,4356.974678708,4357.042085,4357.548626458,4358.92534575,NaN,NaN
201,36,3,categorization,0,kitchen,SHINEd_sun_aapllqyqlykszopd.tif,66,0.0666666666666667,0.0666666666666667,1.5,4358.943134333,4359.62942925,9,4359.009839,4359.075686291,4359.648357375,4361.141750916,NaN,NaN
201,37,3,categorization,0,kitchen,SHINEd_sun_agorklincwxrdtga.tif,87,0.0666666666666667,0.0666666666666667,1.61666666666667,4361.159057083,4361.77931275,9,4361.225798375,4361.292022041,4361.798178,4363.408250666,NaN,NaN
201,38,3,categorization,0,bathroom,SHINEd_sun_aggnnqpdorgxpvce.tif,21,0.0666666666666667,0.0666666666666667,0.983333333333333,4363.425920375,4364.0368785,9,4363.493049625,4363.55892825,4364.0659695,4365.042707458,NaN,NaN
201,39,3,categorization,0,kitchen,SHINEd_sun_aehawpgmrlhlvcow.tif,81,0.0666666666666667,0.0666666666666667,1.3,4365.056226,4365.650562,9,4365.122980708,4365.181155125,4365.666342333,4366.959768541,NaN,NaN
201,40,3,categorization,0,kitchen,SHINEd_sun_akchetnepxlcxhsu.tif,98,0.0666666666666667,0.0666666666666667,1.03333333333333,4366.97800775,4367.575451208,13,4367.044897291,4367.111104041,4367.600922708,4368.627646458,NaN,NaN
201,41,3,categorization,0,bathroom,SHINEd_sun_akiytfaagpdsphgz.tif,31,0.0666666666666667,0.0666666666666667,1.45,4368.64358,4369.21819525,13,4368.70631725,4368.766614083,4369.235253916,4370.678686125,NaN,NaN
201,42,3,categorization,0,bathroom,SHINEd_sun_aoybiabnpadelefl.tif,41,0.0666666666666667,0.0666666666666667,1.23333333333333,4370.696447916,4371.858281916,13,4370.762926541,4370.8291165,4371.885159166,4373.111893958,NaN,NaN
201,43,3,categorization,0,kitchen,SHINEd_sun_aexklacwqwezaorf.tif,84,0.0666666666666667,0.0666666666666667,1.26666666666667,4373.129081291,4373.757433,9,4373.196441166,4373.261693958,4373.784451125,4375.044508791,NaN,NaN
201,44,3,categorization,0,kitchen,SHINEd_sun_akcjzhbbjlbogpdi.tif,99,0.0666666666666667,0.0666666666666667,1.03333333333333,4375.061189208,4375.574404291,9,4375.127716333,4375.194215166,4375.600595458,4376.627352541,NaN,NaN
201,45,3,categorization,0,kitchen,SHINEd_sun_agubuxuukhzyzpdp.tif,88,0.0666666666666667,0.0666666666666667,1.31666666666667,4376.638865041,4377.25770725,9,4376.705439208,4376.771717875,4377.274287291,4378.584370916,NaN,NaN
201,46,3,categorization,0,kitchen,SHINEd_sun_azmutvzbxypaceni.tif,110,0.0666666666666667,0.0666666666666667,1.7,4378.602241625,4379.274819041,9,4378.668797916,4378.735160416,4379.290994666,4380.984414916,NaN,NaN
201,47,3,categorization,0,bathroom,SHINEd_sun_afcoljnjfoxjtgja.tif,20,0.0666666666666667,0.0666666666666667,1.35,4381.002123916,4382.101864125,9,4381.068760708,4381.135102916,4382.12525725,4383.468649333,NaN,NaN
201,48,3,categorization,0,bathroom,SHINEd_sun_aavhrsfjbserjtht.tif,13,0.0666666666666667,0.0666666666666667,0.8,4383.487595291,4384.100156291,9,4383.554275708,4383.620578125,4384.127036875,4384.920447125,NaN,NaN
201,49,3,categorization,0,bathroom,SHINEd_sun_atstyziqcmkahyxk.tif,51,0.0666666666666667,0.0666666666666667,0.766666666666667,4384.936056625,4385.490273291,13,4385.002999916,4385.068525333,4385.503971458,4386.263978541,NaN,NaN
201,50,3,categorization,0,bathroom,SHINEd_sun_aspsyogrekjtfozg.tif,50,0.0666666666666667,0.0666666666666667,1.38333333333333,4386.268878666,4386.897623708,13,4386.330576541,4386.391745291,4386.910133166,4388.286859208,NaN,NaN
