sub_num,trial,block,task,is_practice,category,image,texture,duration,mask_dur,jitter,stim_time,time_of_resp,trial_response,mask_time,fix_time,jit_onset,trial_end,trial_accuracy,RT
134,6,0,complexity,1,kitchen,kitchen_practice5.tif,230,1.5,0,1.46666666666667,18528.777219,18532.100015292,1,NaN,18532.1061345,18532.124533375,18533.58460425,NaN,NaN
134,7,0,complexity,1,kitchen,kitchen_practice2.tif,227,1.5,0,1.31666666666667,18533.607070959,18536.067024959,6,NaN,18536.073057209,18536.091352042,18537.401430834,NaN,NaN
134,8,0,complexity,1,kitchen,kitchen_practice4.tif,229,1.5,0,1.76666666666667,18537.413573667,18540.443121417,7,NaN,18540.448953292,18540.467332375,18542.227390042,NaN,NaN
134,9,0,complexity,1,kitchen,kitchen_practice1.tif,226,1.5,0,0.816666666666667,18542.248128167,18544.734429667,6,NaN,18544.757854125,18544.781262875,18545.591330834,NaN,NaN
134,10,0,complexity,1,kitchen,kitchen_practice3.tif,228,1.5,0,0.9,18545.607081542,18548.827971292,4,NaN,18548.833469417,18548.851877125,18549.745219667,NaN,NaN
134,1,1,complexity,0,kitchen,sun_avszsnwsbuqfgzbn.tif,215,1.5,0,1.15,18556.72795675,18559.085095542,7,NaN,18559.1121315,18559.13574625,18560.279152334,NaN,NaN
134,2,1,complexity,0,kitchen,sun_ahpczsiumwwocjkv.tif,202,1.5,0,1.33333333333333,18560.290081125,18562.435410375,2,NaN,18562.441018792,18562.459588334,18563.786316709,NaN,NaN
134,3,1,complexity,0,kitchen,sun_aeqdocilnnpuvuhx.tif,193,1.5,0,1.75,18563.807167959,18567.355116084,3,NaN,18567.360774417,18567.379012459,18569.122430334,NaN,NaN
134,4,1,complexity,0,kitchen,sun_ahywdevtimnqcsln.tif,204,1.5,0,1.2,18569.139139959,18572.271017959,4,NaN,18572.300028584,18572.323751375,18573.517148334,NaN,NaN
134,5,1,complexity,0,kitchen,sun_aqeaevwwwjoqhzvl.tif,211,1.5,0,1.46666666666667,18573.529182334,18578.330851959,4,NaN,18578.336774459,18578.355088167,18579.81514475,NaN,NaN
134,6,1,complexity,0,kitchen,sun_aehawpgmrlhlvcow.tif,191,1.5,0,1.01666666666667,18579.832892084,18582.691437584,2,NaN,18582.696927459,18582.715256459,18583.725323334,NaN,NaN
134,7,1,complexity,0,kitchen,sun_agorklincwxrdtga.tif,197,1.5,0,1.18333333333333,18583.732320209,18587.338774334,5,NaN,18587.344886125,18587.363226292,18588.539989167,NaN,NaN
134,8,1,complexity,0,kitchen,sun_agzzivivdpnawacl.tif,199,1.5,0,1.03333333333333,18588.551871417,18591.00302875,5,NaN,18591.008741459,18591.027017792,18592.053771417,NaN,NaN
134,9,1,complexity,0,kitchen,sun_acfmftudsenhrfhy.tif,184,1.5,0,1.25,18592.062142917,18594.987181292,6,NaN,18594.992831375,18595.011102125,18596.254502917,NaN,NaN
134,10,1,complexity,0,kitchen,sun_aarfiyshqohlwkmo.tif,177,1.5,0,0.733333333333333,18596.271753667,18599.578964792,5,NaN,18599.584797375,18599.603082334,18600.329758709,NaN,NaN
134,11,1,complexity,0,kitchen,labelme_rykdqxenmhulbdn.tif,173,1.5,0,1.01666666666667,18600.334179084,18603.128431125,4,NaN,18603.157059292,18603.180365084,18604.190418459,NaN,NaN
134,12,1,complexity,0,kitchen,sun_aexklacwqwezaorf.tif,194,1.5,0,1.53333333333333,18604.1985795,18606.787617792,7,NaN,18606.793080334,18606.811360834,18608.338099417,NaN,NaN
134,13,1,complexity,0,kitchen,sun_aunzlwrbjumxhwdj.tif,213,1.5,0,1.33333333333333,18608.357141334,18610.78746425,6,NaN,18610.792946209,18610.811290459,18612.138038834,NaN,NaN
134,14,1,complexity,0,kitchen,sun_ahljzhgcdpomplvg.tif,201,1.5,0,1.53333333333333,18612.156856167,18614.771723792,3,NaN,18614.7771565,18614.795620667,18616.322395459,NaN,NaN
134,15,1,complexity,0,kitchen,labelme_kxvouciolcpqplr.tif,172,1.5,0,1.01666666666667,18616.338862,18618.82013425,4,NaN,18618.829622959,18618.847900084,18619.857978084,NaN,NaN
134,16,1,complexity,0,kitchen,sun_awcpdzzznmweyyhv.tif,216,1.5,0,1.23333333333333,18619.866945584,18625.739453917,5,NaN,18625.745208542,18625.763637917,18626.990394125,NaN,NaN
134,17,1,complexity,0,kitchen,sun_aaxxjlsuzvqlgylf.tif,178,1.5,0,1.18333333333333,18627.006726209,18630.066822,7,NaN,18630.072578792,18630.090960792,18631.267721,NaN,NaN
134,18,1,complexity,0,kitchen,sun_aamedkxepzlwuxes.tif,175,1.5,0,0.783333333333333,18631.2766995,18634.195624125,7,NaN,18634.201049417,18634.219917125,18634.996591375,NaN,NaN
134,19,1,complexity,0,kitchen,sun_ajcbwwvdlsvjyzje.tif,206,1.5,0,1.73333333333333,18635.000881334,18638.314810417,5,NaN,18638.320492959,18638.338669334,18640.065423792,NaN,NaN
134,20,1,complexity,0,kitchen,sun_azmutvzbxypaceni.tif,220,1.5,0,1.21666666666667,18640.083024125,18643.826852375,5,NaN,18643.833500542,18643.851762459,18645.061846042,NaN,NaN
134,21,1,complexity,0,kitchen,sun_acxkpeoqbwcxfvip.tif,187,1.5,0,1.26666666666667,18645.079098959,18647.675203084,6,NaN,18647.680702542,18647.699041834,18648.959101792,NaN,NaN
134,22,1,complexity,0,kitchen,sun_aggjlwcdjsjcaemh.tif,196,1.5,0,0.783333333333333,18648.974140917,18651.755413959,6,NaN,18651.761291042,18651.779627042,18652.556300084,NaN,NaN
134,23,1,complexity,0,kitchen,sun_aadbddgrdsjugojn.tif,174,1.5,0,1.48333333333333,18652.560591917,18660.346208584,6,NaN,18660.3560465,18660.374387709,18661.851121417,NaN,NaN
134,24,1,complexity,0,kitchen,sun_acwjdupvyjsugpay.tif,186,1.5,0,1.36666666666667,18661.867437584,18664.643402167,3,NaN,18664.648909917,18664.667192167,18666.027267667,NaN,NaN
134,25,1,complexity,0,kitchen,sun_auticobqsbwgoppi.tif,214,1.5,0,0.983333333333333,18666.045631959,18668.578945625,4,NaN,18668.584708167,18668.603014584,18669.579691709,NaN,NaN
134,1,2,complexity,0,kitchen,sun_aixorpehvfykdynp.tif,205,1.5,0,1.26666666666667,18672.876155792,18676.858474792,5,NaN,18676.864511167,18676.882850125,18678.142953875,NaN,NaN
134,2,2,complexity,0,kitchen,sun_aypmqwcualkenuoe.tif,219,1.5,0,1.11666666666667,18678.162460459,18680.443154917,7,NaN,18680.448562125,18680.466832792,18681.576890292,NaN,NaN
134,3,2,complexity,0,kitchen,sun_aymvwlarqodbwuoc.tif,218,1.5,0,1.43333333333333,18681.587978625,18684.211246959,6,NaN,18684.2167755,18684.235127334,18685.661881542,NaN,NaN
134,4,2,complexity,0,kitchen,sun_amjjdeyrggfqgmom.tif,210,1.5,0,0.8,18685.67908875,18693.370398667,4,NaN,18693.376769834,18693.394924959,18694.188265625,NaN,NaN
134,5,2,complexity,0,kitchen,sun_akcjzhbbjlbogpdi.tif,209,1.5,0,0.733333333333333,18694.20237575,18697.627113375,6,NaN,18697.632899667,18697.651280042,18698.377953625,NaN,NaN
134,6,2,complexity,0,kitchen,sun_abdxkyyxwfskuaqb.tif,180,1.5,0,1.03333333333333,18698.382415209,18701.106234959,7,NaN,18701.134796209,18701.157911875,18702.184662792,NaN,NaN
134,7,2,complexity,0,kitchen,sun_acgtpgfybqjmzeyw.tif,185,1.5,0,1.56666666666667,18702.193841959,18704.962579417,5,NaN,18704.968387209,18704.98656475,18706.546633209,NaN,NaN
134,8,2,complexity,0,kitchen,sun_ahdycvpopffkzzsu.tif,200,1.5,0,0.866666666666667,18706.565515417,18709.110251667,3,NaN,18709.138654334,18709.161865292,18710.021924959,NaN,NaN
134,9,2,complexity,0,kitchen,sun_ajkqhtgcbgpcwrwn.tif,207,1.5,0,0.716666666666667,18710.038861542,18712.946974125,5,NaN,18712.97596025,18712.998717917,18713.7087285,NaN,NaN
134,10,2,complexity,0,kitchen,sun_agubuxuukhzyzpdp.tif,198,1.5,0,1.33333333333333,18713.713513667,18716.112624459,6,NaN,18716.158539,18716.182119917,18717.508861334,NaN,NaN
134,11,2,complexity,0,kitchen,sun_aegoxogugdkwpmpj.tif,190,1.5,0,1.01666666666667,18717.52745875,18719.968896459,7,NaN,18719.974935084,18719.99328375,18721.00336375,NaN,NaN
134,12,2,complexity,0,kitchen,sun_aenotlpyftoioydp.tif,192,1.5,0,0.733333333333333,18721.010323,18723.475068125,5,NaN,18723.480562417,18723.498897,18724.225574167,NaN,NaN
134,13,2,complexity,0,kitchen,sun_auaiucuqpdausiva.tif,212,1.5,0,1.38333333333333,18724.22983,18729.65023325,4,NaN,18729.656257625,18729.674541167,18731.051263459,NaN,NaN
134,14,2,complexity,0,kitchen,sun_aapllqyqlykszopd.tif,176,1.5,0,1.06666666666667,18731.069358167,18733.883017459,6,NaN,18733.888494584,18733.9068845,18734.966961334,NaN,NaN
134,15,2,complexity,0,kitchen,sun_adgqasybjyktddhj.tif,188,1.5,0,0.85,18734.97486925,18737.499137167,5,NaN,18737.504472375,18737.522742875,18738.366083125,NaN,NaN
134,16,2,complexity,0,kitchen,labelme_brsyyvweiuaazfr.tif,171,1.5,0,0.9,18738.370508667,18740.755337084,7,NaN,18740.808826834,18740.831747584,18741.725090625,NaN,NaN
134,17,2,complexity,0,kitchen,sun_admlmbcdswaszruo.tif,189,1.5,0,1.55,18741.729903209,18744.900104834,6,NaN,18744.911612542,18744.930249459,18746.473663459,NaN,NaN
134,18,2,complexity,0,kitchen,sun_abrcnpqqhmjwekyf.tif,183,1.5,0,0.7,18746.488531125,18749.461828667,6,NaN,18749.471398625,18749.489687167,18750.183029417,NaN,NaN
134,19,2,complexity,0,kitchen,sun_abdenxonkemggwsq.tif,179,1.5,0,0.716666666666667,18750.187768,18754.058256625,6,NaN,18754.064188584,18754.082629292,18754.792639292,NaN,NaN
134,20,2,complexity,0,kitchen,sun_akchetnepxlcxhsu.tif,208,1.5,0,0.85,18754.797030959,18757.453780167,7,NaN,18757.475582042,18757.497304875,18758.340646625,NaN,NaN
134,21,2,complexity,0,kitchen,sun_axyyrmzcupyhlivc.tif,217,1.5,0,1.35,18758.345330375,18761.319898417,5,NaN,18761.348757917,18761.370192417,18762.7135845,NaN,NaN
134,22,2,complexity,0,kitchen,sun_abftihopvusyfakt.tif,181,1.5,0,1.96666666666667,18762.731943709,18766.594973584,4,NaN,18766.600671917,18766.618987792,18768.579091209,NaN,NaN
134,23,2,complexity,0,kitchen,sun_afuyedyxivkhecmu.tif,195,1.5,0,0.933333333333333,18768.59943775,18771.387441959,7,NaN,18771.411184209,18771.432729334,18772.359402375,NaN,NaN
134,24,2,complexity,0,kitchen,sun_ahspylgoovwmwvgk.tif,203,1.5,0,1.33333333333333,18772.364200667,18775.546619,1,NaN,18775.553871959,18775.572042209,18776.898811625,NaN,NaN
134,25,2,complexity,0,kitchen,sun_abpwyqmlzafvklqo.tif,182,1.5,0,1.16666666666667,18776.912868792,18779.338696667,3,NaN,18779.344162084,18779.362458917,18780.5225115,NaN,NaN
