sub_num,trial,block,task,is_practice,category,image,texture,duration,mask_dur,jitter,stim_time,time_of_resp,trial_response,mask_time,fix_time,jit_onset,trial_end,trial_accuracy,RT
113,1,6,categorization,0,kitchen,SHINEd_sun_afuyedyxivkhecmu.tif,85,0.0666666666666667,0.0666666666666667,0.966666666666667,1543.304201666,1544.189122125,13,1543.366717916,1543.426930541,1544.195500125,1545.155503791,0,0.884920459000114
113,2,6,categorization,0,kitchen,SHINEd_sun_avszsnwsbuqfgzbn.tif,105,0.0666666666666667,0.0666666666666667,1.73333333333333,1545.160580583,1546.228918791,9,1545.222344791,1545.2833085,1546.2352135,1547.961915083,1,1.06833820800011
113,3,6,categorization,0,kitchen,SHINEd_sun_aqeaevwwwjoqhzvl.tif,101,0.0666666666666667,0.0666666666666667,1.91666666666667,1547.980360958,1548.625720791,9,1548.047368416,1548.113076458,1548.65275,1550.562786666,1,0.645359833000157
113,4,6,categorization,0,kitchen,SHINEd_sun_aamedkxepzlwuxes.tif,65,0.0666666666666667,0.0666666666666667,0.766666666666667,1550.580295875,1551.615741958,9,1550.646815375,1550.712971708,1551.634906083,1552.394909875,1,1.0354460829999
113,5,6,categorization,0,kitchen,SHINEd_sun_acxkpeoqbwcxfvip.tif,77,0.0666666666666667,0.0666666666666667,0.916666666666667,1552.399992291,1553.412963708,9,1552.461800958,1552.5226675,1553.424511208,1554.334516,1,1.01297141700002
113,6,6,categorization,0,bathroom,SHINEd_sun_atstyziqcmkahyxk.tif,51,0.0666666666666667,0.0666666666666667,1.18333333333333,1554.339406125,1555.516776791,13,1554.401160666,1554.462372375,1555.531123583,1556.707817166,1,1.17737066599989
113,7,6,categorization,0,bathroom,SHINEd_sun_apkruvsevgegsdwp.tif,44,0.0666666666666667,0.0666666666666667,1.8,1556.717640125,1557.645914583,13,1556.784646125,1556.850729875,1557.655139291,1559.448507666,1,0.928274458000033
113,8,6,categorization,0,bathroom,SHINEd_sun_ahqjwnzgolcaoidx.tif,29,0.0666666666666667,0.0666666666666667,0.883333333333333,1559.466685083,1560.117817208,13,1559.533614958,1559.59518025,1560.134752208,1561.011423708,1,0.651132125000004
113,9,6,categorization,0,bathroom,SHINEd_sun_aclfzgynxzxlbepz.tif,19,0.0666666666666667,0.0666666666666667,1.83333333333333,1561.016852375,1561.892775333,13,1561.078964625,1561.139580583,1561.908082666,1563.734772625,1,0.875922957999819
113,10,6,categorization,0,kitchen,SHINEd_sun_acwjdupvyjsugpay.tif,76,0.0666666666666667,0.0666666666666667,1.76666666666667,1563.746828541,1564.399611791,13,1563.814128125,1563.879737791,1564.419889541,1566.17994525,0,0.652783250000084
113,11,6,categorization,0,kitchen,SHINEd_sun_aymvwlarqodbwuoc.tif,108,0.0666666666666667,0.0666666666666667,0.983333333333333,1566.19795025,1566.318532375,9,1566.265433458,1566.33138575,1566.354756,1567.331461083,1,0.120582124999828
113,12,6,categorization,0,kitchen,SHINEd_sun_awcpdzzznmweyyhv.tif,106,0.0666666666666667,0.0666666666666667,0.883333333333333,1567.346451833,1568.252349,9,1567.414119875,1567.471055166,1568.256423875,1569.133094791,1,0.905897167000148
113,13,6,categorization,0,bathroom,SHINEd_sun_asfwthctfqerjvxr.tif,49,0.0666666666666667,0.0666666666666667,0.85,1569.137788958,1569.756998208,9,1569.199402875,1569.260497833,1569.762375416,1570.605712833,0,0.619209249999813
113,14,6,categorization,0,kitchen,SHINEd_sun_ajkqhtgcbgpcwrwn.tif,97,0.0666666666666667,0.0666666666666667,0.733333333333333,1570.610994958,1571.452844916,13,1570.672739416,1570.733699458,1571.469182375,1572.195854291,0,0.841849958000012
113,15,6,categorization,0,kitchen,SHINEd_sun_axyyrmzcupyhlivc.tif,107,0.0666666666666667,0.0666666666666667,1.88333333333333,1572.202265041,1572.956800583,9,1572.264102,1572.32492375,1572.959990791,1574.836703125,1,0.754535541999985
113,16,6,categorization,0,kitchen,SHINEd_sun_ahpczsiumwwocjkv.tif,92,0.0666666666666667,0.0666666666666667,0.816666666666667,1574.853901041,1575.56705175,9,1574.920509458,1574.987006833,1575.592306791,1576.402311458,1,0.713150709000047
113,17,6,categorization,0,bathroom,SHINEd_sun_agyqfjcfkdcydepw.tif,25,0.0666666666666667,0.0666666666666667,1.9,1576.407353458,1577.268731,13,1576.469060458,1576.530025458,1577.28186325,1579.175236208,1,0.8613775419999
113,18,6,categorization,0,bathroom,SHINEd_sun_aqrpegblszgcoujh.tif,48,0.0666666666666667,0.0666666666666667,0.983333333333333,1579.189607125,1579.310063041,13,1579.256619666,1579.323139166,1579.346121916,1580.322825958,1,0.120455915999855
113,19,6,categorization,0,bathroom,SHINEd_sun_ajlawzvmubibwbpy.tif,30,0.0666666666666667,0.0666666666666667,0.75,1580.337501208,1580.668170541,9,1580.403418875,1580.461482375,1580.680002583,1581.423339208,0,0.33066933300006
113,20,6,categorization,0,bathroom,SHINEd_sun_ahijqszoswveeyji.tif,28,0.0666666666666667,0.0666666666666667,1.6,1581.428707083,1582.757182166,13,1581.490374291,1581.551408083,1582.770825125,1584.364209,1,1.32847508299983
113,21,6,categorization,0,bathroom,SHINEd_sun_afcoljnjfoxjtgja.tif,20,0.0666666666666667,0.0666666666666667,1.58333333333333,1584.381296416,1585.369121416,13,1584.450072333,1584.513968208,1585.386641958,1586.963357125,1,0.987825000000157
113,22,6,categorization,0,kitchen,SHINEd_sun_acfmftudsenhrfhy.tif,74,0.0666666666666667,0.0666666666666667,1.11666666666667,1586.980800708,1587.686948541,13,1587.048692708,1587.113348833,1587.70218475,1588.812223625,0,0.706147832999932
113,23,6,categorization,0,bathroom,SHINEd_sun_abjtwfukuwddzted.tif,15,0.0666666666666667,0.0666666666666667,1.53333333333333,1588.8234305,1589.86859625,9,1588.888276291,1588.956276958,1589.896748041,1591.423468708,0,1.04516575000002
113,24,6,categorization,0,bathroom,SHINEd_sun_ahcvzmoyaycdoftf.tif,27,0.0666666666666667,0.0666666666666667,1.48333333333333,1591.440442291,1592.215456541,9,1591.507710333,1591.573495708,1592.229538875,1593.706252791,0,0.77501425000014
113,25,6,categorization,0,bathroom,SHINEd_sun_axldvoqbuvuggfmq.tif,57,0.0666666666666667,0.0666666666666667,1.1,1593.723610791,1594.414371583,9,1593.790435958,1593.856945875,1594.429550208,1595.522934416,0,0.690760791999992
113,26,6,categorization,0,bathroom,SHINEd_sun_aoybiabnpadelefl.tif,41,0.0666666666666667,0.0666666666666667,0.933333333333333,1595.535274166,1596.513765375,9,1595.600119416,1595.666526208,1596.53982075,1597.466521333,0,0.97849120900014
113,27,6,categorization,0,kitchen,SHINEd_sun_abftihopvusyfakt.tif,71,0.0666666666666667,0.0666666666666667,0.816666666666667,1597.483425291,1598.588975416,9,1597.545999041,1597.606156333,1598.608027666,1599.418031541,1,1.10555012500004
113,28,6,categorization,0,kitchen,SHINEd_sun_ahywdevtimnqcsln.tif,94,0.0666666666666667,0.0666666666666667,1.78333333333333,1599.422530583,1600.589055625,9,1599.484479625,1599.545138291,1600.597038083,1602.373752375,1,1.16652504199988
113,29,6,categorization,0,bathroom,SHINEd_sun_axyrejkiiaqiurjk.tif,59,0.0666666666666667,0.0666666666666667,0.766666666666667,1602.392935583,1603.168881708,13,1602.460218125,1602.526090958,1603.182294625,1603.942305416,1,0.775946125000019
113,30,6,categorization,0,kitchen,SHINEd_sun_aehawpgmrlhlvcow.tif,81,0.0666666666666667,0.0666666666666667,1.45,1603.948046,1605.380649,13,1604.0096975,1604.070720625,1605.389637833,1606.833009,0,1.43260299999997
113,31,6,categorization,0,bathroom,SHINEd_sun_ausgutylgojavyoq.tif,53,0.0666666666666667,0.0666666666666667,0.75,1606.851388875,1607.720567625,13,1606.918339,1606.98418975,1607.741104208,1608.484444166,1,0.869178749999946
113,32,6,categorization,0,kitchen,SHINEd_sun_agubuxuukhzyzpdp.tif,88,0.0666666666666667,0.0666666666666667,1.36666666666667,1608.490188708,1609.900419208,9,1608.551898833,1608.612897666,1609.915150416,1611.275205,1,1.4102304999999
113,33,6,categorization,0,kitchen,SHINEd_sun_auaiucuqpdausiva.tif,102,0.0666666666666667,0.0666666666666667,0.75,1611.292839125,1611.837042583,9,1611.359458625,1611.425695708,1611.865064916,1612.608436708,1,0.544203458000084
113,34,6,categorization,0,bathroom,SHINEd_sun_alotolagknyrgtsk.tif,35,0.0666666666666667,0.0666666666666667,0.783333333333333,1612.622001041,1613.452958333,9,1612.688409916,1612.754783041,1613.457243208,1614.233914416,0,0.830957291999994
113,35,6,categorization,0,kitchen,SHINEd_sun_auticobqsbwgoppi.tif,104,0.0666666666666667,0.0666666666666667,1.11666666666667,1614.238803,1615.116516375,13,1614.300598625,1614.3614655,1615.130149208,1616.240205,0,0.877713374999985
113,36,6,categorization,0,kitchen,SHINEd_sun_aaxxjlsuzvqlgylf.tif,68,0.0666666666666667,0.0666666666666667,0.766666666666667,1616.253372125,1617.015369875,13,1616.318157291,1616.386251041,1617.042806041,1617.802849333,0,0.761997750000091
113,37,6,categorization,0,bathroom,SHINEd_sun_aunuadmjocsddsrl.tif,52,0.0666666666666667,0.0666666666666667,0.716666666666667,1617.820432375,1618.764203708,13,1617.88752275,1617.953201666,1618.771830958,1619.481834708,1,0.943771332999859
113,38,6,categorization,0,kitchen,SHINEd_sun_akcjzhbbjlbogpdi.tif,99,0.0666666666666667,0.0666666666666667,1.33333333333333,1619.486932208,1620.508628541,13,1619.548731541,1619.609631833,1620.528205541,1621.854904166,0,1.02169633299991
113,39,6,categorization,0,bathroom,SHINEd_sun_ahaulkltgpkeeemi.tif,26,0.0666666666666667,0.0666666666666667,1.75,1621.872111916,1622.823062125,9,1621.938823125,1622.0057515,1622.845765333,1624.589143166,0,0.950950208999984
113,40,6,categorization,0,kitchen,SHINEd_sun_aarfiyshqohlwkmo.tif,67,0.0666666666666667,0.0666666666666667,1.13333333333333,1624.606150333,1625.206540666,9,1624.672915041,1624.739172625,1625.229563208,1626.356268166,1,0.60039033299995
113,41,6,categorization,0,bathroom,SHINEd_sun_acegryoqftbzowsg.tif,17,0.0666666666666667,0.0666666666666667,1.63333333333333,1626.366471666,1627.09754575,13,1626.431208791,1626.499244666,1627.121299041,1628.748021916,1,0.731074084000056
113,42,6,categorization,0,kitchen,SHINEd_sun_akchetnepxlcxhsu.tif,98,0.0666666666666667,0.0666666666666667,1.43333333333333,1628.7645915,1629.510000791,13,1628.831114208,1628.897343,1629.536350208,1630.963069583,0,0.745409290999987
113,43,6,categorization,0,kitchen,SHINEd_sun_agzzivivdpnawacl.tif,89,0.0666666666666667,0.0666666666666667,1.83333333333333,1630.980593791,1631.900221666,13,1631.048723958,1631.112861958,1631.919348375,1633.746071625,0,0.91962787500006
113,44,6,categorization,0,bathroom,SHINEd_sun_aofnryafpsjimzsb.tif,40,0.0666666666666667,0.0666666666666667,1.93333333333333,1633.764195375,1634.506267541,13,1633.831442958,1633.89678275,1634.535414916,1636.462128166,1,0.742072165999843
113,45,6,categorization,0,bathroom,SHINEd_sun_aggnnqpdorgxpvce.tif,21,0.0666666666666667,0.0666666666666667,1.26666666666667,1636.480467875,1637.13188275,9,1636.547219375,1636.613911583,1637.153940083,1638.413980541,0,0.651414875
113,46,6,categorization,0,bathroom,SHINEd_sun_acduarbnmmoglmiv.tif,16,0.0666666666666667,0.0666666666666667,1.86666666666667,1638.433827958,1639.125141416,9,1638.500366708,1638.566735375,1639.13912325,1640.99918075,0,0.691313457999968
113,47,6,categorization,0,bathroom,SHINEd_sun_auzqhkafidnkrwmo.tif,54,0.0666666666666667,0.0666666666666667,1.41666666666667,1641.020468166,1642.077667375,13,1641.08732725,1641.153100333,1642.094338416,1643.504391541,1,1.05719920899992
113,48,6,categorization,0,kitchen,SHINEd_sun_ajcbwwvdlsvjyzje.tif,96,0.0666666666666667,0.0666666666666667,1.11666666666667,1643.521893166,1644.333781958,13,1643.588533041,1643.653063458,1644.360155041,1645.470196333,0,0.811888791999991
113,49,6,categorization,0,bathroom,SHINEd_sun_avhrdrntsqrjzccq.tif,55,0.0666666666666667,0.0666666666666667,1.8,1645.480851166,1646.480230291,13,1645.546128583,1645.610815375,1646.501113333,1648.29448375,1,0.999379124999905
113,50,6,categorization,0,kitchen,SHINEd_sun_aexklacwqwezaorf.tif,84,0.0666666666666667,0.0666666666666667,1.25,1648.312421375,1649.031972875,13,1648.379443666,1648.445617333,1649.052314583,1650.295687833,0,0.71955150000008
