sub_num,trial,block,task,is_practice,category,image,texture,duration,mask_dur,jitter,stim_time,time_of_resp,trial_response,mask_time,fix_time,jit_onset,trial_end,trial_accuracy,RT
113,1,0,categorization,1,bathroom,SHINEd_bathroom_practice5.tif,115,0.0666666666666667,0.0666666666666667,1.21666666666667,840.5095205,848.904587458,13,840.574988916,840.636350625,848.940530916,850.150775375,1,8.39506695800003
113,2,0,categorization,1,bathroom,SHINEd_bathroom_practice3.tif,113,0.0666666666666667,0.0666666666666667,1.36666666666667,850.2087475,852.120447041,13,850.281339458,850.342399375,852.145643916,853.505815958,1,1.91169954100008
113,3,0,categorization,1,kitchen,SHINEd_kitchen_practice3.tif,118,0.0666666666666667,0.0666666666666667,1.85,853.548400041,854.973787416,9,853.617572875,853.680653333,855.009662708,856.853164166,1,1.42538737500001
113,4,0,categorization,1,kitchen,SHINEd_kitchen_practice4.tif,119,0.0666666666666667,0.0666666666666667,1.55,856.878561333,858.864095,9,856.948398416,857.012325833,858.881792,860.425288416,1,1.98553366700003
113,5,0,categorization,1,kitchen,SHINEd_kitchen_practice5.tif,120,0.0666666666666667,0.0666666666666667,1.48333333333333,860.459590916,862.751638125,13,860.53240425,860.593551208,862.764386583,864.241902625,0,2.29204720899997
113,6,0,categorization,1,bathroom,SHINEd_bathroom_practice4.tif,114,0.0666666666666667,0.0666666666666667,1.15,864.26813325,865.545023166,9,864.337349833,864.403465,865.561105083,866.704607541,0,1.27688991599996
113,7,0,categorization,1,kitchen,SHINEd_kitchen_practice2.tif,117,0.0666666666666667,0.0666666666666667,0.733333333333333,866.716645833,868.720242083,13,866.784833666,866.850683458,868.737129875,869.4638025,0,2.00359624999999
113,8,0,categorization,1,bathroom,SHINEd_bathroom_practice2.tif,112,0.0666666666666667,0.0666666666666667,1.6,869.469551458,870.719339333,13,869.531399375,869.592266791,870.727468166,872.32085825,1,1.24978787500004
113,9,0,categorization,1,kitchen,SHINEd_kitchen_practice1.tif,116,0.0666666666666667,0.0666666666666667,0.716666666666667,872.342133,873.741903333,13,872.4094125,872.475486708,873.768201375,874.478207041,0,1.39977033299999
113,10,0,categorization,1,bathroom,SHINEd_bathroom_practice1.tif,111,0.0666666666666667,0.0666666666666667,1.21666666666667,874.483759458,875.600363458,9,874.545579666,874.606600375,875.608638833,876.818669583,0,1.11660399999994
113,1,0,categorization,1,bathroom,SHINEd_bathroom_practice5.tif,115,0.0666666666666667,0.0666666666666667,1.21666666666667,903.542590375,905.839439666,13,903.604499208,903.665358958,905.85082625,907.060862166,1,2.29684929099994
113,2,0,categorization,1,bathroom,SHINEd_bathroom_practice3.tif,113,0.0666666666666667,0.0666666666666667,1.36666666666667,907.078175541,908.84946225,13,907.144235083,907.211173416,908.869450375,910.229497625,1,1.77128670900004
113,3,0,categorization,1,kitchen,SHINEd_kitchen_practice3.tif,118,0.0666666666666667,0.0666666666666667,1.85,910.246903416,911.076784375,9,910.314509125,910.379490208,911.102722166,912.946097166,1,0.829880958999979
113,4,0,categorization,1,kitchen,SHINEd_kitchen_practice4.tif,119,0.0666666666666667,0.0666666666666667,1.55,912.964315291,914.871424125,9,913.031232083,913.097342708,914.883400958,916.4267925,1,1.90710883399993
113,5,0,categorization,1,kitchen,SHINEd_kitchen_practice5.tif,120,0.0666666666666667,0.0666666666666667,1.48333333333333,916.445440958,917.330504458,9,916.512404083,916.578620375,917.352276333,918.828977583,1,0.885063500000001
113,6,0,categorization,1,bathroom,SHINEd_bathroom_practice4.tif,114,0.0666666666666667,0.0666666666666667,1.15,918.847451125,919.687771375,9,918.914363625,918.980435458,919.702707916,920.846089916,0,0.840320249999991
113,7,0,categorization,1,kitchen,SHINEd_kitchen_practice2.tif,117,0.0666666666666667,0.0666666666666667,0.733333333333333,920.856246708,923.167276083,9,920.923528,920.988995083,923.174984083,923.90165525,1,2.31102937500009
113,8,0,categorization,1,bathroom,SHINEd_bathroom_practice2.tif,112,0.0666666666666667,0.0666666666666667,1.6,923.906576583,924.776014291,13,923.968341208,924.029228375,924.781134958,926.374511,1,0.869437708000078
113,9,0,categorization,1,kitchen,SHINEd_kitchen_practice1.tif,116,0.0666666666666667,0.0666666666666667,0.716666666666667,926.391627208,927.61602975,13,926.458578125,926.524444666,927.628703166,928.338708541,0,1.22440254200001
113,10,0,categorization,1,bathroom,SHINEd_bathroom_practice1.tif,111,0.0666666666666667,0.0666666666666667,1.21666666666667,928.343443333,930.191755833,13,928.405236208,928.466259541,930.201846583,931.411902041,1,1.84831250000002
113,1,1,categorization,0,bathroom,SHINEd_sun_avhrdrntsqrjzccq.tif,55,0.0666666666666667,0.0666666666666667,1.23333333333333,945.116427458,946.399274625,9,945.178928458,945.239224833,946.408286541,947.634975333,0,1.282847167
113,2,1,categorization,0,kitchen,SHINEd_sun_aarfiyshqohlwkmo.tif,67,0.0666666666666667,0.0666666666666667,0.783333333333333,947.655120333,948.795807125,13,947.720090625,947.7879545,948.8104205,949.587092791,0,1.140686792
113,3,1,categorization,0,kitchen,SHINEd_sun_auaiucuqpdausiva.tif,102,0.0666666666666667,0.0666666666666667,0.75,949.592278791,951.711372416,13,949.654062625,949.715051208,951.717336125,952.460675375,0,2.119093625
113,4,1,categorization,0,bathroom,SHINEd_sun_aapitsgbtktqubfy.tif,12,0.0666666666666667,0.0666666666666667,1.23333333333333,952.466572291,953.455951083,13,952.528430375,952.589300583,953.47509225,954.701799375,1,0.989378791999911
113,5,1,categorization,0,kitchen,SHINEd_sun_aapllqyqlykszopd.tif,66,0.0666666666666667,0.0666666666666667,1.13333333333333,954.71551775,956.45926125,9,954.783667291,954.84878275,956.491044458,957.617767333,1,1.74374350000005
113,6,1,categorization,0,kitchen,SHINEd_sun_ajcbwwvdlsvjyzje.tif,96,0.0666666666666667,0.0666666666666667,0.95,957.628968083,959.127371708,9,957.69435625,957.762081916,959.156148458,960.099487541,1,1.49840362500004
113,7,1,categorization,0,kitchen,SHINEd_sun_ahywdevtimnqcsln.tif,94,0.0666666666666667,0.0666666666666667,0.733333333333333,960.105492583,961.270895916,9,960.167334625,960.228193875,961.280389208,962.007060291,1,1.16540333299997
113,8,1,categorization,0,bathroom,SHINEd_sun_asfwthctfqerjvxr.tif,49,0.0666666666666667,0.0666666666666667,1.31666666666667,962.012455208,963.023631083,9,962.074190291,962.135174458,963.037823958,964.347868541,0,1.01117587500005
113,9,1,categorization,0,bathroom,SHINEd_sun_aleqenyvunhactkl.tif,32,0.0666666666666667,0.0666666666666667,0.8,964.365153375,965.576122458,13,964.432079791,964.497765708,965.603397916,966.396735958,1,1.21096908300001
113,10,1,categorization,0,bathroom,SHINEd_sun_agyqfjcfkdcydepw.tif,25,0.0666666666666667,0.0666666666666667,0.716666666666667,966.402390375,967.5033575,9,966.464240958,966.525189,967.510466416,968.22047025,0,1.10096712500001
113,11,1,categorization,0,kitchen,SHINEd_sun_aehawpgmrlhlvcow.tif,81,0.0666666666666667,0.0666666666666667,0.916666666666667,968.225804,969.687668208,13,968.28760175,968.348587708,969.700723166,970.610729083,0,1.46186420799995
113,12,1,categorization,0,bathroom,SHINEd_sun_abjtwfukuwddzted.tif,15,0.0666666666666667,0.0666666666666667,0.95,970.61622725,971.663777166,13,970.677961458,970.738710791,971.673937541,972.617274666,1,1.04754991600009
113,13,1,categorization,0,kitchen,SHINEd_sun_adgqasybjyktddhj.tif,78,0.0666666666666667,0.0666666666666667,0.833333333333333,972.622839208,974.055403541,9,972.684691291,972.745495708,974.064354333,974.891025583,1,1.43256433300007
113,14,1,categorization,0,bathroom,SHINEd_sun_atstyziqcmkahyxk.tif,51,0.0666666666666667,0.0666666666666667,0.75,974.896357333,975.951611666,13,974.95816,975.019024208,975.970931166,976.714270666,1,1.05525433299999
113,15,1,categorization,0,bathroom,SHINEd_sun_alotolagknyrgtsk.tif,35,0.0666666666666667,0.0666666666666667,1.53333333333333,976.719863791,979.294848875,9,976.781715625,976.842580583,979.311616041,980.838328,0,2.57498508399999
113,16,1,categorization,0,kitchen,SHINEd_sun_aqeaevwwwjoqhzvl.tif,101,0.0666666666666667,0.0666666666666667,1.05,980.858270541,982.193287458,9,980.925274916,980.991188958,982.217475166,983.260858291,1,1.33501691699996
113,17,1,categorization,0,kitchen,SHINEd_sun_admlmbcdswaszruo.tif,79,0.0666666666666667,0.0666666666666667,0.9,983.273739958,984.918576458,9,983.338832958,983.405276708,984.947764708,985.841103083,1,1.6448365
113,18,1,categorization,0,bathroom,SHINEd_sun_aspsyogrekjtfozg.tif,50,0.0666666666666667,0.0666666666666667,1.18333333333333,985.846686208,987.222733,13,985.908423916,985.969407041,987.23808225,988.414804041,1,1.3760467919999
113,19,1,categorization,0,kitchen,SHINEd_sun_abrcnpqqhmjwekyf.tif,73,0.0666666666666667,0.0666666666666667,0.9,988.42488275,989.394306125,9,988.493030541,988.557652541,989.414468625,990.307822958,1,0.969423374999906
113,20,1,categorization,0,kitchen,SHINEd_sun_awcpdzzznmweyyhv.tif,106,0.0666666666666667,0.0666666666666667,1.66666666666667,990.315103833,991.359492958,9,990.377058208,990.437844583,991.37308475,993.033133916,1,1.04438912500007
113,21,1,categorization,0,bathroom,SHINEd_sun_ambriybtogmepttm.tif,36,0.0666666666666667,0.0666666666666667,1.13333333333333,993.046245666,993.997149916,13,993.11349975,993.1792095,994.018607416,995.145321625,1,0.950904250000008
113,22,1,categorization,0,bathroom,SHINEd_sun_aofnryafpsjimzsb.tif,40,0.0666666666666667,0.0666666666666667,1.3,995.156138541,996.128755583,9,995.221458708,995.289068958,996.145323791,997.438816083,0,0.972617042000024
113,23,1,categorization,0,bathroom,SHINEd_sun_aqrpegblszgcoujh.tif,48,0.0666666666666667,0.0666666666666667,1.93333333333333,997.457018541,999.086857625,9,997.523729125,997.588282541,999.113984333,1001.040697958,0,1.62983908399997
113,24,1,categorization,0,kitchen,SHINEd_sun_akchetnepxlcxhsu.tif,98,0.0666666666666667,0.0666666666666667,1,1001.052977291,1002.65544175,13,1001.119752958,1001.186545916,1002.67237,1003.665708791,0,1.60246445899998
113,25,1,categorization,0,bathroom,SHINEd_sun_apkruvsevgegsdwp.tif,44,0.0666666666666667,0.0666666666666667,0.883333333333333,1003.67224275,1004.959027166,13,1003.733972791,1003.794940416,1004.963978833,1005.8406505,1,1.28678441600005
113,26,1,categorization,0,kitchen,SHINEd_sun_aaxxjlsuzvqlgylf.tif,68,0.0666666666666667,0.0666666666666667,1.95,1005.84580175,1006.943012041,13,1005.907555166,1005.968755541,1006.954950166,1008.898332,0,1.09721029100001
113,27,1,categorization,0,bathroom,SHINEd_sun_ahijqszoswveeyji.tif,28,0.0666666666666667,0.0666666666666667,1.25,1008.915413541,1009.924424541,13,1008.982163625,1009.048498541,1009.937781875,1011.181158208,1,1.00901099999999
113,28,1,categorization,0,bathroom,SHINEd_sun_auzqhkafidnkrwmo.tif,54,0.0666666666666667,0.0666666666666667,1.95,1011.197612625,1012.31385125,9,1011.264446333,1011.330438083,1012.337758541,1014.28113025,0,1.11623862499994
113,29,1,categorization,0,bathroom,SHINEd_sun_apeeialkgkuxddgh.tif,42,0.0666666666666667,0.0666666666666667,1.91666666666667,1014.298411833,1016.174687791,13,1014.364826125,1014.4317055,1016.184328833,1018.094382708,1,1.87627595799995
113,30,1,categorization,0,kitchen,SHINEd_sun_agubuxuukhzyzpdp.tif,88,0.0666666666666667,0.0666666666666667,1.41666666666667,1018.114616458,1019.49475625,9,1018.181713625,1018.247449458,1019.500348666,1020.910381333,1,1.38013979200002
113,31,1,categorization,0,kitchen,SHINEd_sun_ahpczsiumwwocjkv.tif,92,0.0666666666666667,0.0666666666666667,0.716666666666667,1020.926088375,1022.064218208,9,1020.99270825,1021.058957541,1022.080844541,1022.790850625,1,1.13812983300011
113,32,1,categorization,0,bathroom,SHINEd_sun_ausgutylgojavyoq.tif,53,0.0666666666666667,0.0666666666666667,1.28333333333333,1022.796212625,1024.350894791,9,1022.857983,1022.918938333,1024.354390541,1025.631097625,0,1.55468216600002
113,33,1,categorization,0,bathroom,SHINEd_sun_apmqjbnwghzuhhzh.tif,46,0.0666666666666667,0.0666666666666667,0.9,1025.640873583,1026.683966375,9,1025.706465333,1025.7735105,1026.694939041,1027.588278041,0,1.04309279199992
113,34,1,categorization,0,kitchen,SHINEd_sun_abftihopvusyfakt.tif,71,0.0666666666666667,0.0666666666666667,0.8,1027.593308625,1029.071494541,9,1027.65511275,1027.716070291,1029.0848415,1029.87817925,1,1.47818591600003
113,35,1,categorization,0,kitchen,SHINEd_sun_acxkpeoqbwcxfvip.tif,77,0.0666666666666667,0.0666666666666667,1.01666666666667,1029.882853041,1031.158787333,9,1029.944618583,1030.005500625,1031.174525833,1032.1845755,1,1.27593429199987
113,36,1,categorization,0,kitchen,SHINEd_sun_azmutvzbxypaceni.tif,110,0.0666666666666667,0.0666666666666667,0.85,1032.195982375,1033.138893916,9,1032.261599416,1032.327717041,1033.148677625,1033.992042875,1,0.94291154099983
113,37,1,categorization,0,kitchen,SHINEd_sun_aixorpehvfykdynp.tif,95,0.0666666666666667,0.0666666666666667,1.51666666666667,1034.00867725,1035.519344125,9,1034.075301041,1034.141230833,1035.527124333,1037.037157083,1,1.5106668750002
113,38,1,categorization,0,kitchen,SHINEd_sun_ahdycvpopffkzzsu.tif,90,0.0666666666666667,0.0666666666666667,1.83333333333333,1037.057781791,1037.999185166,13,1037.124626208,1037.190549458,1038.013196166,1039.839893541,0,0.941403374999936
113,39,1,categorization,0,bathroom,SHINEd_sun_acgyywnybuveqsro.tif,18,0.0666666666666667,0.0666666666666667,0.716666666666667,1039.855803083,1040.569058666,13,1039.922691458,1039.988723875,1040.595837,1041.305843625,1,0.713255583000091
113,40,1,categorization,0,bathroom,SHINEd_sun_anhioqovhscjqqwb.tif,38,0.0666666666666667,0.0666666666666667,0.9,1041.3117905,1042.278742416,9,1041.37353725,1041.434456583,1042.286547875,1043.179885875,0,0.966951915999971
113,41,1,categorization,0,bathroom,SHINEd_sun_abapwbhyhkfixyex.tif,14,0.0666666666666667,0.0666666666666667,0.916666666666667,1043.185589916,1043.822660875,13,1043.2473515,1043.308279208,1043.826809958,1044.736815541,1,0.637070959000084
113,42,1,categorization,0,kitchen,SHINEd_sun_aymvwlarqodbwuoc.tif,108,0.0666666666666667,0.0666666666666667,0.816666666666667,1044.742267708,1045.415297333,9,1044.803957041,1044.865059416,1045.4335605,1046.243564958,1,0.673029624999799
113,43,1,categorization,0,bathroom,SHINEd_sun_amzlamotzwfkwjco.tif,37,0.0666666666666667,0.0666666666666667,1.88333333333333,1046.249334833,1047.158462375,13,1046.311098833,1046.372240416,1047.174196958,1049.050911583,1,0.909127542000078
113,44,1,categorization,0,kitchen,SHINEd_sun_ajkqhtgcbgpcwrwn.tif,97,0.0666666666666667,0.0666666666666667,0.9,1049.06812175,1051.951156583,13,1049.134968041,1049.200905833,1051.970066,1052.863403208,0,2.88303483300001
113,45,1,categorization,0,kitchen,SHINEd_sun_abpwyqmlzafvklqo.tif,72,0.0666666666666667,0.0666666666666667,1,1052.869121833,1053.967431,9,1052.930927083,1052.991802833,1053.977323333,1054.970662375,1,1.09830916700002
113,46,1,categorization,0,bathroom,SHINEd_sun_akiytfaagpdsphgz.tif,31,0.0666666666666667,0.0666666666666667,0.733333333333333,1054.976014125,1056.1428545,13,1055.037825458,1055.098718625,1056.15060725,1056.877279041,1,1.16684037500022
113,47,1,categorization,0,kitchen,SHINEd_sun_aadbddgrdsjugojn.tif,64,0.0666666666666667,0.0666666666666667,0.883333333333333,1056.882684708,1057.758880375,9,1056.944474041,1057.005341291,1057.773944458,1058.65061525,1,0.876195667000047
113,48,1,categorization,0,bathroom,SHINEd_sun_apjevzvycyhuqghb.tif,43,0.0666666666666667,0.0666666666666667,1.73333333333333,1058.656346125,1059.367001041,13,1058.718064208,1058.779073666,1059.381019958,1061.107725291,1,0.710654916000067
113,49,1,categorization,0,bathroom,SHINEd_sun_apkxzenqapsujocq.tif,45,0.0666666666666667,0.0666666666666667,1.91666666666667,1061.125570833,1061.675066333,9,1061.192191833,1061.258642916,1061.697442875,1063.607492833,0,0.549495499999921
113,50,1,categorization,0,bathroom,SHINEd_sun_ajlawzvmubibwbpy.tif,30,0.0666666666666667,0.0666666666666667,1.35,1063.618351416,1064.681437166,13,1063.683648791,1063.751266958,1064.705867541,1066.049256833,1,1.06308575000003
113,1,2,categorization,0,kitchen,SHINEd_sun_aamedkxepzlwuxes.tif,65,0.0666666666666667,0.0666666666666667,0.95,1072.339309291,1073.438735625,13,1072.401992583,1072.462077666,1073.447174916,1074.390514083,0,1.09942633399987
113,2,2,categorization,0,bathroom,SHINEd_sun_apynckhmoftszqoq.tif,47,0.0666666666666667,0.0666666666666667,0.75,1074.39580675,1075.36691475,13,1074.457614625,1074.518486333,1075.370292833,1076.113630708,1,0.971107999999958
113,3,2,categorization,0,bathroom,SHINEd_sun_acduarbnmmoglmiv.tif,16,0.0666666666666667,0.0666666666666667,1.68333333333333,1076.119074458,1076.9670865,9,1076.180837958,1076.241792166,1076.976877458,1078.653594375,0,0.848012042000164
113,4,2,categorization,0,bathroom,SHINEd_sun_aoybiabnpadelefl.tif,41,0.0666666666666667,0.0666666666666667,0.816666666666667,1078.674021916,1079.602437,13,1078.741117458,1078.808179458,1079.629404208,1080.439410666,1,0.928415084000108
113,5,2,categorization,0,bathroom,SHINEd_sun_awnqiikzaispgmwo.tif,56,0.0666666666666667,0.0666666666666667,0.916666666666667,1080.445516541,1081.958621458,13,1080.507305625,1080.568286,1081.970625833,1082.880630833,1,1.51310491699996
113,6,2,categorization,0,bathroom,SHINEd_sun_axxbkopsgyouuebh.tif,58,0.0666666666666667,0.0666666666666667,1.21666666666667,1082.886261958,1083.775268791,13,1082.947977583,1083.009003,1083.794161791,1085.004196833,1,0.889006832999939
113,7,2,categorization,0,bathroom,SHINEd_sun_axyrejkiiaqiurjk.tif,59,0.0666666666666667,0.0666666666666667,0.9,1085.023418916,1085.665475625,13,1085.089992541,1085.155606875,1085.676582291,1086.569968541,1,0.642056708999917
113,8,2,categorization,0,kitchen,SHINEd_sun_aypmqwcualkenuoe.tif,109,0.0666666666666667,0.0666666666666667,1.65,1086.586644916,1087.278900041,13,1086.653138041,1086.719952625,1087.289223041,1088.932608666,0,0.692255124999974
113,9,2,categorization,0,bathroom,SHINEd_sun_aghyqhbptboemmoq.tif,23,0.0666666666666667,0.0666666666666667,1.15,1088.951760333,1089.681205375,13,1089.018575083,1089.084079166,1089.707470791,1090.850844,1,0.729445041999952
113,10,2,categorization,0,kitchen,SHINEd_sun_afuyedyxivkhecmu.tif,85,0.0666666666666667,0.0666666666666667,1.13333333333333,1090.861618791,1092.096515125,13,1090.928463416,1090.994873916,1092.119850833,1093.246553125,0,1.23489633400004
113,11,2,categorization,0,bathroom,SHINEd_sun_alkosphxlxwjwgjd.tif,34,0.0666666666666667,0.0666666666666667,1.76666666666667,1093.2572,1093.873459416,9,1093.323446833,1093.390485833,1093.897674958,1095.65770775,0,0.616259416000048
113,12,2,categorization,0,kitchen,SHINEd_sun_akcjzhbbjlbogpdi.tif,99,0.0666666666666667,0.0666666666666667,1.8,1095.668679416,1096.395741291,9,1095.735458625,1095.801299416,1096.42442025,1098.217789958,1,0.72706187499989
113,13,2,categorization,0,kitchen,SHINEd_sun_auticobqsbwgoppi.tif,104,0.0666666666666667,0.0666666666666667,0.9,1098.232694166,1099.020567958,9,1098.299776791,1098.365686875,1099.038617875,1099.93195675,1,0.7878737919998
113,14,2,categorization,0,kitchen,SHINEd_sun_acfmftudsenhrfhy.tif,74,0.0666666666666667,0.0666666666666667,0.716666666666667,1099.938541541,1100.686624375,9,1100.000309583,1100.06127125,1100.696254041,1101.406257041,1,0.748082834000115
113,15,2,categorization,0,bathroom,SHINEd_sun_afcoljnjfoxjtgja.tif,20,0.0666666666666667,0.0666666666666667,1.36666666666667,1101.411833958,1102.351053666,13,1101.473565708,1101.534519625,1102.369952708,1103.72999625,1,0.93921970800011
113,16,2,categorization,0,kitchen,SHINEd_sun_aexklacwqwezaorf.tif,84,0.0666666666666667,0.0666666666666667,0.916666666666667,1103.745069958,1104.332719875,9,1103.813325291,1103.877875,1104.350556375,1105.260608,1,0.587649917000135
113,17,2,categorization,0,bathroom,SHINEd_sun_aclfzgynxzxlbepz.tif,19,0.0666666666666667,0.0666666666666667,0.716666666666667,1105.277233125,1106.150756708,9,1105.344005291,1105.402084166,1106.153987833,1106.863993541,0,0.873523582999951
113,18,2,categorization,0,kitchen,SHINEd_sun_aeqdocilnnpuvuhx.tif,83,0.0666666666666667,0.0666666666666667,0.766666666666667,1106.872092416,1108.878737666,9,1106.933856166,1106.994743458,1108.897149875,1109.657154291,1,2.00664525000002
113,19,2,categorization,0,bathroom,SHINEd_sun_aggnnqpdorgxpvce.tif,21,0.0666666666666667,0.0666666666666667,1.06666666666667,1109.662180291,1110.558720916,9,1109.72394075,1109.784828708,1110.570036708,1111.630069166,0,0.896540625000171
113,20,2,categorization,0,kitchen,SHINEd_sun_ahspylgoovwmwvgk.tif,93,0.0666666666666667,0.0666666666666667,0.8,1111.638444958,1112.984546666,9,1111.703171916,1111.769854791,1113.013072166,1113.806411916,1,1.34610170799988
113,21,2,categorization,0,kitchen,SHINEd_sun_ahljzhgcdpomplvg.tif,91,0.0666666666666667,0.0666666666666667,0.866666666666667,1113.811779583,1114.702689791,13,1113.873579416,1113.934545541,1114.719765041,1115.579768625,0,0.890910207999923
113,22,2,categorization,0,kitchen,SHINEd_sun_agzzivivdpnawacl.tif,89,0.0666666666666667,0.0666666666666667,1.48333333333333,1115.584455166,1116.878633833,9,1115.646165958,1115.7071885,1116.893282083,1118.369981583,1,1.2941786670001
113,23,2,categorization,0,kitchen,SHINEd_labelme_brsyyvweiuaazfr.tif,61,0.0666666666666667,0.0666666666666667,1.1,1118.387941333,1119.883080333,9,1118.455447833,1118.521038666,1119.914386375,1121.007757791,1,1.49513899999988
113,24,2,categorization,0,kitchen,SHINEd_sun_aunzlwrbjumxhwdj.tif,103,0.0666666666666667,0.0666666666666667,0.783333333333333,1121.023970875,1122.023463166,9,1121.088827,1121.156381458,1122.04670475,1122.82342875,1,0.999492291000024
113,25,2,categorization,0,kitchen,SHINEd_labelme_kxvouciolcpqplr.tif,62,0.0666666666666667,0.0666666666666667,0.866666666666667,1122.840537708,1123.742961166,9,1122.907790041,1122.973078041,1123.758369875,1124.618374458,1,0.90242345799993
113,26,2,categorization,0,kitchen,SHINEd_sun_abdenxonkemggwsq.tif,69,0.0666666666666667,0.0666666666666667,1.83333333333333,1124.624140291,1125.510984708,9,1124.686024375,1124.746796625,1125.515244791,1127.341961458,1,0.88684441700002
113,27,2,categorization,0,kitchen,SHINEd_sun_aegoxogugdkwpmpj.tif,80,0.0666666666666667,0.0666666666666667,0.7,1127.359160333,1128.187261291,9,1127.426195958,1127.492237125,1128.216254375,1128.909595,1,0.828100957999823
113,28,2,categorization,0,kitchen,SHINEd_sun_acwjdupvyjsugpay.tif,76,0.0666666666666667,0.0666666666666667,1.33333333333333,1128.915296166,1130.1510595,13,1128.977089625,1129.038054416,1130.156968083,1131.483669375,0,1.23576333400001
113,29,2,categorization,0,bathroom,SHINEd_sun_agguqiubmwhqqunb.tif,22,0.0666666666666667,0.0666666666666667,1.33333333333333,1131.49816275,1132.482538875,13,1131.563306666,1131.628577833,1132.501633333,1133.828343166,1,0.984376125000153
113,30,2,categorization,0,bathroom,SHINEd_sun_axldvoqbuvuggfmq.tif,57,0.0666666666666667,0.0666666666666667,1.38333333333333,1133.845944875,1134.816030791,9,1133.912851625,1133.979043208,1134.835349958,1136.21206275,0,0.970085916000016
113,31,2,categorization,0,bathroom,SHINEd_sun_ahaulkltgpkeeemi.tif,26,0.0666666666666667,0.0666666666666667,1.25,1136.231828791,1137.322969708,13,1136.29861975,1136.364853541,1137.337315875,1138.580703208,1,1.09114091700008
113,32,2,categorization,0,kitchen,SHINEd_sun_avszsnwsbuqfgzbn.tif,105,0.0666666666666667,0.0666666666666667,1.55,1138.598630791,1139.680348541,9,1138.66558525,1138.731501,1139.703968625,1141.24734025,1,1.08171775000005
113,33,2,categorization,0,kitchen,SHINEd_sun_aenotlpyftoioydp.tif,82,0.0666666666666667,0.0666666666666667,1.61666666666667,1141.262858458,1141.991991125,9,1141.330508416,1141.395509916,1142.018371625,1143.628402416,1,0.729132666999931
113,34,2,categorization,0,kitchen,SHINEd_sun_amjjdeyrggfqgmom.tif,100,0.0666666666666667,0.0666666666666667,1.33333333333333,1143.640324625,1144.303788666,9,1143.706668,1143.772997291,1144.329915625,1145.656614,1,0.663464040999997
113,35,2,categorization,0,bathroom,SHINEd_sun_ahcvzmoyaycdoftf.tif,27,0.0666666666666667,0.0666666666666667,0.833333333333333,1145.66675675,1146.513634333,13,1145.732453083,1145.799677833,1146.539698791,1147.366426791,1,0.846877582999923
113,36,2,categorization,0,bathroom,SHINEd_sun_ahqjwnzgolcaoidx.tif,29,0.0666666666666667,0.0666666666666667,1.45,1147.383535375,1148.1106015,13,1147.446349625,1147.506326958,1148.124791166,1149.568152833,1,0.727066124999965
113,37,2,categorization,0,kitchen,SHINEd_sun_acgtpgfybqjmzeyw.tif,75,0.0666666666666667,0.0666666666666667,0.933333333333333,1149.579601833,1150.233859041,9,1149.644520041,1149.70907725,1150.247988416,1151.174700958,1,0.65425720799999
113,38,2,categorization,0,bathroom,SHINEd_sun_acegryoqftbzowsg.tif,17,0.0666666666666667,0.0666666666666667,1.65,1151.190148416,1152.310430916,9,1151.252958583,1151.312843791,1152.314958708,1153.958338791,0,1.12028250000003
113,39,2,categorization,0,kitchen,SHINEd_sun_agorklincwxrdtga.tif,87,0.0666666666666667,0.0666666666666667,1.23333333333333,1153.976264416,1155.096954833,9,1154.043311166,1154.109084458,1155.114781416,1156.341495333,1,1.12069041699988
113,40,2,categorization,0,bathroom,SHINEd_labelme_sfxiulhjbhlyiyt.tif,11,0.0666666666666667,0.0666666666666667,0.766666666666667,1156.359730125,1157.671959708,13,1156.426729083,1156.492672958,1157.699171708,1158.459177375,1,1.31222958300009
113,41,2,categorization,0,bathroom,SHINEd_sun_azqyogdvyhahyram.tif,60,0.0666666666666667,0.0666666666666667,1.78333333333333,1158.464775583,1159.550765916,13,1158.526660416,1158.58753475,1159.556133208,1161.33283125,1,1.08599033300015
113,42,2,categorization,0,bathroom,SHINEd_sun_anryaplzeujmzfkd.tif,39,0.0666666666666667,0.0666666666666667,1.11666666666667,1161.352224708,1161.97398,13,1161.418931916,1161.485110708,1161.990989625,1163.101032041,1,0.621755291999989
113,43,2,categorization,0,bathroom,SHINEd_sun_aunuadmjocsddsrl.tif,52,0.0666666666666667,0.0666666666666667,1.85,1163.112445416,1163.718409958,13,1163.177396333,1163.2447485,1163.732472375,1165.575843041,1,0.605964542000038
113,44,2,categorization,0,bathroom,SHINEd_sun_aavhrsfjbserjtht.tif,13,0.0666666666666667,0.0666666666666667,0.733333333333333,1165.588109291,1166.286216333,13,1165.653292166,1165.719891666,1166.310296333,1167.036999416,1,0.698107042000174
113,45,2,categorization,0,bathroom,SHINEd_sun_aljolscmmzydegqp.tif,33,0.0666666666666667,0.0666666666666667,0.783333333333333,1167.053061916,1167.73410325,13,1167.120189875,1167.180313125,1167.74887825,1168.525548958,1,0.681041334000156
113,46,2,categorization,0,kitchen,SHINEd_sun_aggjlwcdjsjcaemh.tif,86,0.0666666666666667,0.0666666666666667,1.5,1168.531116875,1169.014864125,13,1168.592920583,1168.65386825,1169.022310458,1170.515677,0,0.483747250000079
113,47,2,categorization,0,bathroom,SHINEd_sun_agrwbmhcpmfuwmsg.tif,24,0.0666666666666667,0.0666666666666667,0.733333333333333,1170.533875,1171.094297291,13,1170.600893416,1170.666345708,1171.123172083,1171.849877416,1,0.560422290999895
113,48,2,categorization,0,kitchen,SHINEd_sun_abdxkyyxwfskuaqb.tif,70,0.0666666666666667,0.0666666666666667,1.1,1171.865676541,1172.589981416,13,1171.932528583,1171.998419125,1172.600751166,1173.694115,0,0.724304874999916
113,49,2,categorization,0,kitchen,SHINEd_labelme_rykdqxenmhulbdn.tif,63,0.0666666666666667,0.0666666666666667,1.6,1173.705128958,1173.825595333,13,1173.770056458,1173.83740175,1173.860086875,1175.453485958,0,0.120466374999978
113,50,2,categorization,0,kitchen,SHINEd_sun_axyyrmzcupyhlivc.tif,107,0.0666666666666667,0.0666666666666667,1.06666666666667,1175.473154166,1176.022267208,13,1175.538198375,1175.600646583,1176.036087416,1177.096120041,0,0.549113041999817
113,1,3,categorization,0,bathroom,SHINEd_sun_akiytfaagpdsphgz.tif,31,0.0666666666666667,0.0666666666666667,0.85,1183.090153708,1183.210209375,9,1183.152434708,1183.213017083,1183.231335375,1184.07467375,0,0.120055667000088
113,2,3,categorization,0,kitchen,SHINEd_sun_ajkqhtgcbgpcwrwn.tif,97,0.0666666666666667,0.0666666666666667,1.65,1184.07966675,1184.981964875,9,1184.141333625,1184.202449916,1184.987863333,1186.631228708,1,0.902298125000016
113,3,3,categorization,0,bathroom,SHINEd_sun_asfwthctfqerjvxr.tif,49,0.0666666666666667,0.0666666666666667,0.783333333333333,1186.646194916,1186.847537166,9,1186.712857875,1186.779065666,1186.869372375,1187.646058333,0,0.201342249999925
113,4,3,categorization,0,bathroom,SHINEd_sun_aoybiabnpadelefl.tif,41,0.0666666666666667,0.0666666666666667,0.933333333333333,1187.655563541,1188.590069375,13,1187.722406125,1187.788580666,1188.607529791,1189.534201583,1,0.934505833999992
113,5,3,categorization,0,kitchen,SHINEd_sun_aqeaevwwwjoqhzvl.tif,101,0.0666666666666667,0.0666666666666667,0.866666666666667,1189.539687291,1190.181886458,13,1189.601477208,1189.662459541,1190.197512708,1191.057518791,0,0.642199166999944
113,6,3,categorization,0,kitchen,SHINEd_sun_auaiucuqpdausiva.tif,102,0.0666666666666667,0.0666666666666667,1.11666666666667,1191.063119375,1191.766910916,13,1191.124720958,1191.185828833,1191.770930375,1192.880984125,0,0.703791540999873
113,7,3,categorization,0,kitchen,SHINEd_sun_abdenxonkemggwsq.tif,69,0.0666666666666667,0.0666666666666667,0.966666666666667,1192.891158333,1193.626085083,13,1192.955659875,1193.024227541,1193.645712083,1194.605773583,0,0.734926749999886
113,8,3,categorization,0,bathroom,SHINEd_sun_aljolscmmzydegqp.tif,33,0.0666666666666667,0.0666666666666667,1.78333333333333,1194.622806708,1195.518495833,13,1194.689535916,1194.755583,1195.524286958,1197.300992833,1,0.89568912499999
113,9,3,categorization,0,kitchen,SHINEd_sun_aexklacwqwezaorf.tif,84,0.0666666666666667,0.0666666666666667,1.55,1197.318174083,1197.438637708,13,1197.385265166,1197.451684166,1197.474400625,1199.017785791,0,0.120463624999957
113,10,3,categorization,0,kitchen,SHINEd_sun_aadbddgrdsjugojn.tif,64,0.0666666666666667,0.0666666666666667,1.41666666666667,1199.036000833,1199.156442625,13,1199.10224475,1199.170248875,1199.19365075,1200.603693625,0,0.120441792000065
113,11,3,categorization,0,bathroom,SHINEd_sun_aggnnqpdorgxpvce.tif,21,0.0666666666666667,0.0666666666666667,0.8,1200.622768,1201.014614041,13,1200.689275625,1200.748801458,1201.033989833,1201.827328125,1,0.391846041000008
113,12,3,categorization,0,bathroom,SHINEd_sun_amzlamotzwfkwjco.tif,37,0.0666666666666667,0.0666666666666667,1.28333333333333,1201.832086708,1202.629894125,13,1201.893859125,1201.954816833,1202.639917708,1203.916638166,1,0.797807417000058
113,13,3,categorization,0,bathroom,SHINEd_sun_alkosphxlxwjwgjd.tif,34,0.0666666666666667,0.0666666666666667,1.66666666666667,1203.93499625,1204.633701291,13,1204.001868625,1204.068207875,1204.65827675,1206.31831,1,0.698705041000039
113,14,3,categorization,0,kitchen,SHINEd_sun_aaxxjlsuzvqlgylf.tif,68,0.0666666666666667,0.0666666666666667,1.81666666666667,1206.337043916,1206.566486375,13,1206.40540625,1206.470038416,1206.593892333,1208.403926291,0,0.229442458999984
113,15,3,categorization,0,bathroom,SHINEd_sun_agguqiubmwhqqunb.tif,22,0.0666666666666667,0.0666666666666667,1.35,1208.424727083,1209.112123375,13,1208.492134166,1208.558007416,1209.131036458,1210.474420291,1,0.687396291999903
113,16,3,categorization,0,bathroom,SHINEd_sun_azqyogdvyhahyram.tif,60,0.0666666666666667,0.0666666666666667,0.916666666666667,1210.493722208,1211.312810458,13,1210.561117958,1210.627320791,1211.334859333,1212.244864833,1,0.81908825000005
113,17,3,categorization,0,bathroom,SHINEd_sun_ausgutylgojavyoq.tif,53,0.0666666666666667,0.0666666666666667,0.916666666666667,1212.251017708,1213.014479583,9,1212.312801291,1212.373674791,1213.025558416,1213.935564458,0,0.763461874999848
113,18,3,categorization,0,kitchen,SHINEd_sun_avszsnwsbuqfgzbn.tif,105,0.0666666666666667,0.0666666666666667,1.31666666666667,1213.940974416,1214.790329041,9,1214.002741541,1214.063673166,1214.799211708,1216.109263916,1,0.849354624999933
113,19,3,categorization,0,kitchen,SHINEd_sun_abrcnpqqhmjwekyf.tif,73,0.0666666666666667,0.0666666666666667,1.45,1216.128437083,1217.622750166,9,1216.195628333,1216.261797541,1217.634529583,1219.077919833,1,1.49431308299995
113,20,3,categorization,0,kitchen,SHINEd_sun_abdxkyyxwfskuaqb.tif,70,0.0666666666666667,0.0666666666666667,0.95,1219.09613,1219.808535333,9,1219.16322075,1219.229245791,1219.836556666,1220.779896041,1,0.712405333000106
113,21,3,categorization,0,bathroom,SHINEd_sun_abjtwfukuwddzted.tif,15,0.0666666666666667,0.0666666666666667,1.38333333333333,1220.788369416,1221.598563375,9,1220.850255583,1220.911025708,1221.612591458,1222.989296,0,0.810193958999889
113,22,3,categorization,0,bathroom,SHINEd_sun_agrwbmhcpmfuwmsg.tif,24,0.0666666666666667,0.0666666666666667,1.16666666666667,1223.007376125,1223.768753916,9,1223.074335333,1223.140087791,1223.797016166,1224.95706575,0,0.761377790999859
113,23,3,categorization,0,kitchen,SHINEd_sun_aehawpgmrlhlvcow.tif,81,0.0666666666666667,0.0666666666666667,1.61666666666667,1224.967319291,1225.972080666,9,1225.034456583,1225.09976825,1225.989896125,1227.599935666,1,1.00476137500004
113,24,3,categorization,0,kitchen,SHINEd_sun_awcpdzzznmweyyhv.tif,106,0.0666666666666667,0.0666666666666667,1.38333333333333,1227.611535833,1228.327374708,9,1227.676974791,1227.741927875,1228.348569,1229.725275125,1,0.715838874999918
113,25,3,categorization,0,bathroom,SHINEd_sun_aunuadmjocsddsrl.tif,52,0.0666666666666667,0.0666666666666667,1.78333333333333,1229.741218916,1230.569714958,9,1229.808232125,1229.874099916,1230.597684208,1232.374388625,0,0.828496042000097
113,26,3,categorization,0,kitchen,SHINEd_sun_acfmftudsenhrfhy.tif,74,0.0666666666666667,0.0666666666666667,0.783333333333333,1232.391753708,1233.425358791,13,1232.458935333,1232.524908666,1233.449043458,1234.225716458,0,1.03360508300011
113,27,3,categorization,0,kitchen,SHINEd_labelme_brsyyvweiuaazfr.tif,61,0.0666666666666667,0.0666666666666667,1.65,1234.231571291,1235.238747166,13,1234.293371458,1234.354306375,1235.25597225,1236.899354041,0,1.00717587500003
113,28,3,categorization,0,kitchen,SHINEd_sun_adgqasybjyktddhj.tif,78,0.0666666666666667,0.0666666666666667,1.86666666666667,1236.913230625,1237.839030333,13,1236.980286208,1237.046102291,1237.869556375,1239.729608916,0,0.925799707999886
113,29,3,categorization,0,bathroom,SHINEd_sun_apkxzenqapsujocq.tif,45,0.0666666666666667,0.0666666666666667,1.23333333333333,1239.742002916,1240.350150916,13,1239.80935925,1239.874797166,1240.362133333,1241.588836166,1,0.608148000000028
113,30,3,categorization,0,bathroom,SHINEd_sun_apynckhmoftszqoq.tif,47,0.0666666666666667,0.0666666666666667,0.7,1241.602262708,1242.224252625,13,1241.667438875,1241.73459375,1242.240173,1242.933548083,1,0.621989917000064
113,31,3,categorization,0,bathroom,SHINEd_sun_acegryoqftbzowsg.tif,17,0.0666666666666667,0.0666666666666667,0.716666666666667,1242.951422125,1243.645912375,9,1243.0182595,1243.083940958,1243.652868875,1244.362872791,0,0.694490250000172
113,32,3,categorization,0,kitchen,SHINEd_sun_ahywdevtimnqcsln.tif,94,0.0666666666666667,0.0666666666666667,1.05,1244.368539208,1245.093579791,9,1244.430344291,1244.491262583,1245.109711208,1246.153084625,1,0.725040583000009
113,33,3,categorization,0,bathroom,SHINEd_sun_aqrpegblszgcoujh.tif,48,0.0666666666666667,0.0666666666666667,1.1,1246.165241125,1246.985024625,9,1246.230718125,1246.295935958,1247.001931708,1248.095323041,0,0.819783500000085
113,34,3,categorization,0,kitchen,SHINEd_sun_agorklincwxrdtga.tif,87,0.0666666666666667,0.0666666666666667,1.13333333333333,1248.11421475,1248.90970525,9,1248.1791095,1248.237657541,1248.92302575,1250.049729875,1,0.795490499999914
113,35,3,categorization,0,kitchen,SHINEd_sun_aamedkxepzlwuxes.tif,65,0.0666666666666667,0.0666666666666667,1.38333333333333,1250.060761416,1250.810972291,9,1250.12587475,1250.193878208,1250.834006583,1252.210718958,1,0.750210874999993
113,36,3,categorization,0,bathroom,SHINEd_sun_aapitsgbtktqubfy.tif,12,0.0666666666666667,0.0666666666666667,1.5,1252.230088958,1252.954453458,9,1252.296936583,1252.363068,1252.968992958,1254.462363208,0,0.724364500000092
113,37,3,categorization,0,kitchen,SHINEd_sun_aenotlpyftoioydp.tif,82,0.0666666666666667,0.0666666666666667,1.61666666666667,1254.48038025,1255.163407916,9,1254.547485291,1254.613636125,1255.18726525,1256.797305375,1,0.683027666000044
113,38,3,categorization,0,bathroom,SHINEd_sun_apkruvsevgegsdwp.tif,44,0.0666666666666667,0.0666666666666667,0.983333333333333,1256.814730333,1257.468330791,9,1256.882110875,1256.948390541,1257.488963208,1258.46563425,0,0.653600458000028
113,39,3,categorization,0,bathroom,SHINEd_sun_aghyqhbptboemmoq.tif,23,0.0666666666666667,0.0666666666666667,1.3,1258.471508958,1259.981928708,13,1258.533289416,1258.594260416,1259.996609791,1261.289988125,1,1.51041974999998
113,40,3,categorization,0,bathroom,SHINEd_sun_ahaulkltgpkeeemi.tif,26,0.0666666666666667,0.0666666666666667,1.03333333333333,1261.307708416,1262.226987458,13,1261.37436175,1261.440619625,1262.24725325,1263.273954125,1,0.919279041999971
113,41,3,categorization,0,bathroom,SHINEd_sun_apmqjbnwghzuhhzh.tif,46,0.0666666666666667,0.0666666666666667,1.45,1263.288160583,1265.542571541,13,1263.353222,1263.419868041,1265.555570458,1266.998944041,1,2.25441095799988
113,42,3,categorization,0,kitchen,SHINEd_sun_aypmqwcualkenuoe.tif,109,0.0666666666666667,0.0666666666666667,1.23333333333333,1267.018040333,1267.726715333,9,1267.084586541,1267.150869,1267.739340333,1268.966062875,1,0.708674999999857
113,43,3,categorization,0,bathroom,SHINEd_sun_aclfzgynxzxlbepz.tif,19,0.0666666666666667,0.0666666666666667,1.26666666666667,1268.981744916,1269.656009708,9,1269.049113791,1269.114726791,1269.669832375,1270.929886083,0,0.674264792000031
113,44,3,categorization,0,bathroom,SHINEd_sun_anryaplzeujmzfkd.tif,39,0.0666666666666667,0.0666666666666667,1.03333333333333,1270.942251958,1271.805619208,9,1271.009271791,1271.075248208,1271.832198166,1272.858913708,0,0.86336725000001
113,45,3,categorization,0,kitchen,SHINEd_sun_agzzivivdpnawacl.tif,89,0.0666666666666667,0.0666666666666667,1.31666666666667,1272.878014625,1273.686039125,9,1272.945017416,1273.002855833,1273.704693958,1275.014750375,1,0.808024499999874
113,46,3,categorization,0,bathroom,SHINEd_labelme_sfxiulhjbhlyiyt.tif,11,0.0666666666666667,0.0666666666666667,1.7,1275.03204825,1275.922848833,9,1275.098869541,1275.165287541,1275.937990541,1277.63134125,0,0.8908005830001
113,47,3,categorization,0,kitchen,SHINEd_sun_akchetnepxlcxhsu.tif,98,0.0666666666666667,0.0666666666666667,1.35,1277.642804083,1278.431042,9,1277.709803083,1277.775510375,1278.448003083,1279.791368958,1,0.788237916999833
113,48,3,categorization,0,bathroom,SHINEd_sun_aspsyogrekjtfozg.tif,50,0.0666666666666667,0.0666666666666667,0.8,1279.810111125,1280.750764333,13,1279.876699583,1279.943051375,1280.765850625,1281.559197166,1,0.940653207999958
113,49,3,categorization,0,kitchen,SHINEd_sun_auticobqsbwgoppi.tif,104,0.0666666666666667,0.0666666666666667,0.766666666666667,1281.565359791,1282.886350083,13,1281.627198541,1281.688168583,1282.890145625,1283.65015075,0,1.32099029200003
113,50,3,categorization,0,bathroom,SHINEd_sun_axyrejkiiaqiurjk.tif,59,0.0666666666666667,0.0666666666666667,1.38333333333333,1283.654631291,1284.446119833,9,1283.716507875,1283.77739025,1284.462535,1285.839249916,0,0.791488542000025
113,1,4,categorization,0,bathroom,SHINEd_sun_ahqjwnzgolcaoidx.tif,29,0.0666666666666667,0.0666666666666667,1,1291.226647166,1292.014437708,9,1291.288528666,1291.349515833,1292.018152541,1293.011490875,0,0.787790542000039
113,2,4,categorization,0,kitchen,SHINEd_labelme_rykdqxenmhulbdn.tif,63,0.0666666666666667,0.0666666666666667,0.966666666666667,1293.016298916,1294.054049875,9,1293.078059958,1293.138993041,1294.057635166,1295.017639083,1,1.03775095899982
113,3,4,categorization,0,bathroom,SHINEd_sun_atstyziqcmkahyxk.tif,51,0.0666666666666667,0.0666666666666667,1.75,1295.022491708,1295.974112,13,1295.084373708,1295.145027625,1295.980364541,1297.723742791,1,0.951620292000143
113,4,4,categorization,0,kitchen,SHINEd_sun_ajcbwwvdlsvjyzje.tif,96,0.0666666666666667,0.0666666666666667,1.68333333333333,1297.741481666,1298.914654875,13,1297.808161291,1297.874663125,1298.930856333,1300.607558,0,1.17317320899997
113,5,4,categorization,0,kitchen,SHINEd_sun_aunzlwrbjumxhwdj.tif,103,0.0666666666666667,0.0666666666666667,1.58333333333333,1300.626825666,1301.514636791,9,1300.693902416,1300.76075875,1301.534347,1303.111069625,1,0.887811124999871
113,6,4,categorization,0,bathroom,SHINEd_sun_anhioqovhscjqqwb.tif,38,0.0666666666666667,0.0666666666666667,1,1303.129764458,1303.751291333,9,1303.196573583,1303.26294175,1303.767880166,1304.761218833,0,0.621526874999972
113,7,4,categorization,0,kitchen,SHINEd_sun_aggjlwcdjsjcaemh.tif,86,0.0666666666666667,0.0666666666666667,1.33333333333333,1304.766467166,1305.413691375,9,1304.8282335,1304.889109541,1305.424244375,1306.750965333,1,0.647224209000115
113,8,4,categorization,0,bathroom,SHINEd_sun_avhrdrntsqrjzccq.tif,55,0.0666666666666667,0.0666666666666667,1.26666666666667,1306.768626041,1307.497978583,9,1306.835020958,1306.901512875,1307.525007958,1308.785046208,0,0.729352542000015
113,9,4,categorization,0,kitchen,SHINEd_sun_aeqdocilnnpuvuhx.tif,83,0.0666666666666667,0.0666666666666667,0.883333333333333,1308.802699,1309.664266458,13,1308.86991075,1308.935964875,1309.691397208,1310.568099125,0,0.861567457999854
113,10,4,categorization,0,kitchen,SHINEd_sun_aapllqyqlykszopd.tif,66,0.0666666666666667,0.0666666666666667,1.26666666666667,1310.58482225,1311.741751125,13,1310.648850625,1310.708121875,1311.759914791,1313.01994925,0,1.15692887500018
113,11,4,categorization,0,bathroom,SHINEd_sun_aofnryafpsjimzsb.tif,40,0.0666666666666667,0.0666666666666667,2,1313.039129708,1313.887589208,13,1313.105748666,1313.1718055,1313.912131833,1315.905500875,1,0.84845949999999
113,12,4,categorization,0,kitchen,SHINEd_sun_admlmbcdswaszruo.tif,79,0.0666666666666667,0.0666666666666667,0.733333333333333,1315.924067833,1316.912423958,9,1315.990819333,1316.057278416,1316.9293685,1317.656040333,1,0.988356125000109
113,13,4,categorization,0,bathroom,SHINEd_sun_aavhrsfjbserjtht.tif,13,0.0666666666666667,0.0666666666666667,0.883333333333333,1317.660956958,1318.661840041,9,1317.722828875,1317.783916041,1318.669213958,1319.545884333,0,1.00088308299996
113,14,4,categorization,0,kitchen,SHINEd_sun_agubuxuukhzyzpdp.tif,88,0.0666666666666667,0.0666666666666667,0.983333333333333,1319.550651958,1320.797748125,13,1319.612481541,1319.673405791,1320.809274458,1321.7859445,0,1.24709616700011
113,15,4,categorization,0,kitchen,SHINEd_sun_ahljzhgcdpomplvg.tif,91,0.0666666666666667,0.0666666666666667,1.56666666666667,1321.790820041,1322.709783041,9,1321.852377125,1321.913516958,1322.715329875,1324.275379791,1,0.918963000000076
113,16,4,categorization,0,kitchen,SHINEd_sun_aymvwlarqodbwuoc.tif,108,0.0666666666666667,0.0666666666666667,1.08333333333333,1324.293889625,1325.149833125,9,1324.3610585,1324.427389333,1325.167510666,1326.244208333,1,0.855943499999967
113,17,4,categorization,0,bathroom,SHINEd_sun_axxbkopsgyouuebh.tif,58,0.0666666666666667,0.0666666666666667,0.75,1326.255249666,1328.220831041,9,1326.320166,1326.385738208,1328.244489333,1328.987826416,0,1.96558137500006
113,18,4,categorization,0,bathroom,SHINEd_sun_apeeialkgkuxddgh.tif,42,0.0666666666666667,0.0666666666666667,0.966666666666667,1328.992726875,1330.101456625,9,1329.054512375,1329.115500708,1330.117383416,1331.077388375,0,1.10872975000007
113,19,4,categorization,0,kitchen,SHINEd_labelme_kxvouciolcpqplr.tif,62,0.0666666666666667,0.0666666666666667,1.63333333333333,1331.08193375,1331.653230083,9,1331.143802958,1331.2046405,1331.656194,1333.282902458,1,0.571296332999964
113,20,4,categorization,0,bathroom,SHINEd_sun_ahcvzmoyaycdoftf.tif,27,0.0666666666666667,0.0666666666666667,1.46666666666667,1333.295126541,1333.882066041,9,1333.36191125,1333.427829416,1333.900847041,1335.360884708,0,0.586939499999971
113,21,4,categorization,0,kitchen,SHINEd_sun_axyyrmzcupyhlivc.tif,107,0.0666666666666667,0.0666666666666667,0.933333333333333,1335.378375166,1336.014796208,9,1335.44522075,1335.512023916,1336.035139166,1336.961837666,1,0.636421041999938
113,22,4,categorization,0,bathroom,SHINEd_sun_acgyywnybuveqsro.tif,18,0.0666666666666667,0.0666666666666667,1.45,1336.970585875,1337.9252115,9,1337.032496416,1337.093323041,1337.928238916,1339.371611125,0,0.954625624999835
113,23,4,categorization,0,bathroom,SHINEd_sun_ajlawzvmubibwbpy.tif,30,0.0666666666666667,0.0666666666666667,0.966666666666667,1339.389957208,1340.024418208,9,1339.456795791,1339.522606625,1340.047957125,1341.007963875,0,0.634461000000101
113,24,4,categorization,0,bathroom,SHINEd_sun_auzqhkafidnkrwmo.tif,54,0.0666666666666667,0.0666666666666667,0.816666666666667,1341.014112791,1341.81382875,9,1341.075751166,1341.136786166,1341.82206475,1342.632068166,0,0.799715959000196
113,25,4,categorization,0,kitchen,SHINEd_sun_acxkpeoqbwcxfvip.tif,77,0.0666666666666667,0.0666666666666667,1.96666666666667,1342.636740625,1343.66164675,9,1342.698481708,1342.759544791,1343.67810275,1345.638132541,1,1.02490612500014
113,26,4,categorization,0,kitchen,SHINEd_sun_abpwyqmlzafvklqo.tif,72,0.0666666666666667,0.0666666666666667,0.916666666666667,1345.647922,1346.137990625,13,1345.714625125,1345.780703291,1346.153235916,1347.063240416,0,0.490068624999822
113,27,4,categorization,0,bathroom,SHINEd_sun_awnqiikzaispgmwo.tif,56,0.0666666666666667,0.0666666666666667,1.28333333333333,1347.068108291,1348.789548791,13,1347.1298905,1347.190999333,1348.793546208,1350.070253625,1,1.72144049999997
113,28,4,categorization,0,kitchen,SHINEd_sun_akcjzhbbjlbogpdi.tif,99,0.0666666666666667,0.0666666666666667,1.8,1350.089475166,1350.8155745,13,1350.156381375,1350.222521208,1350.846212208,1352.639602833,0,0.726099333999855
113,29,4,categorization,0,bathroom,SHINEd_sun_alotolagknyrgtsk.tif,35,0.0666666666666667,0.0666666666666667,1.33333333333333,1352.655101,1352.865272625,9,1352.722181208,1352.788026083,1352.876374625,1354.20309625,0,0.21017162499993
113,30,4,categorization,0,kitchen,SHINEd_sun_azmutvzbxypaceni.tif,110,0.0666666666666667,0.0666666666666667,1.06666666666667,1354.220838625,1355.006311791,13,1354.28665675,1354.351264625,1355.024312875,1356.084370958,0,0.785473165999974
113,31,4,categorization,0,bathroom,SHINEd_sun_abapwbhyhkfixyex.tif,14,0.0666666666666667,0.0666666666666667,1.03333333333333,1356.097259125,1357.080691916,13,1356.162450875,1356.229945458,1357.10337075,1358.130048041,1,0.983432791000041
113,32,4,categorization,0,bathroom,SHINEd_sun_acduarbnmmoglmiv.tif,16,0.0666666666666667,0.0666666666666667,0.733333333333333,1358.137106125,1359.405189041,13,1358.199059875,1358.259883666,1359.412093,1360.1387635,1,1.26808291600014
113,33,4,categorization,0,kitchen,SHINEd_sun_aarfiyshqohlwkmo.tif,67,0.0666666666666667,0.0666666666666667,0.766666666666667,1360.1433985,1360.814093291,13,1360.205229916,1360.266179125,1360.818017375,1361.578021666,0,0.67069479099996
113,34,4,categorization,0,bathroom,SHINEd_sun_ahijqszoswveeyji.tif,28,0.0666666666666667,0.0666666666666667,1.1,1361.582841583,1362.477795791,13,1361.644517916,1361.705510416,1362.490970041,1363.584337958,1,0.894954208000172
113,35,4,categorization,0,bathroom,SHINEd_sun_afcoljnjfoxjtgja.tif,20,0.0666666666666667,0.0666666666666667,1.81666666666667,1363.594074541,1364.897522041,13,1363.6589775,1363.723176166,1364.914391625,1366.724431583,1,1.30344749999995
113,36,4,categorization,0,kitchen,SHINEd_sun_ahspylgoovwmwvgk.tif,93,0.0666666666666667,0.0666666666666667,0.883333333333333,1366.742070625,1367.853408208,9,1366.808881,1366.872548791,1367.879543125,1368.75621425,1,1.11133758300002
113,37,4,categorization,0,kitchen,SHINEd_sun_ahpczsiumwwocjkv.tif,92,0.0666666666666667,0.0666666666666667,1.7,1368.761076166,1369.54937125,9,1368.822991875,1368.883819541,1369.568983791,1371.262369958,1,0.788295083999856
113,38,4,categorization,0,kitchen,SHINEd_sun_acwjdupvyjsugpay.tif,76,0.0666666666666667,0.0666666666666667,1.58333333333333,1371.279390833,1371.936260125,9,1371.346071916,1371.412377083,1371.951219458,1373.527928541,1,0.65686929200001
113,39,4,categorization,0,bathroom,SHINEd_sun_aleqenyvunhactkl.tif,32,0.0666666666666667,0.0666666666666667,0.833333333333333,1373.542218,1374.268828083,9,1373.607555458,1373.673760958,1374.296917375,1375.123591333,0,0.726610082999969
113,40,4,categorization,0,kitchen,SHINEd_sun_afuyedyxivkhecmu.tif,85,0.0666666666666667,0.0666666666666667,0.95,1375.129413583,1375.741715458,9,1375.191192625,1375.25215275,1375.753946875,1376.697286291,1,0.612301874999957
113,41,4,categorization,0,kitchen,SHINEd_sun_aixorpehvfykdynp.tif,95,0.0666666666666667,0.0666666666666667,1.06666666666667,1376.702976458,1377.325156833,9,1376.764705916,1376.825662875,1377.3442245,1378.404280458,1,0.622180374999971
113,42,4,categorization,0,kitchen,SHINEd_sun_ahdycvpopffkzzsu.tif,90,0.0666666666666667,0.0666666666666667,1.68333333333333,1378.413864625,1379.16634675,9,1378.478182708,1378.544997916,1379.184744791,1380.861454041,1,0.752482124999915
113,43,4,categorization,0,kitchen,SHINEd_sun_abftihopvusyfakt.tif,71,0.0666666666666667,0.0666666666666667,1.31666666666667,1380.878840041,1381.387255416,9,1380.945342041,1381.011552541,1381.400347958,1382.710392375,1,0.508415374999913
113,44,4,categorization,0,kitchen,SHINEd_sun_aegoxogugdkwpmpj.tif,80,0.0666666666666667,0.0666666666666667,1.61666666666667,1382.727632958,1383.433946833,9,1382.794377333,1382.860346125,1383.449592166,1385.059627958,1,0.706313874999978
113,45,4,categorization,0,kitchen,SHINEd_sun_acgtpgfybqjmzeyw.tif,75,0.0666666666666667,0.0666666666666667,1.15,1385.077480416,1385.889210125,9,1385.14418075,1385.210324833,1385.91700075,1387.060382583,1,0.811729709000019
113,46,4,categorization,0,bathroom,SHINEd_sun_axldvoqbuvuggfmq.tif,57,0.0666666666666667,0.0666666666666667,1.25,1387.070518958,1387.8557825,13,1387.137362541,1387.203294708,1387.876624458,1389.119988041,1,0.785263541999939
113,47,4,categorization,0,bathroom,SHINEd_sun_apjevzvycyhuqghb.tif,43,0.0666666666666667,0.0666666666666667,1.1,1389.1324165,1390.431717208,9,1389.197653208,1389.264947291,1390.458026,1391.551413583,0,1.29930070799992
113,48,4,categorization,0,kitchen,SHINEd_sun_amjjdeyrggfqgmom.tif,100,0.0666666666666667,0.0666666666666667,0.9,1391.562280416,1392.282920708,9,1391.627281583,1391.69387825,1392.299920583,1393.193287875,1,0.720640291999871
113,49,4,categorization,0,bathroom,SHINEd_sun_agyqfjcfkdcydepw.tif,25,0.0666666666666667,0.0666666666666667,1.3,1393.211109083,1394.044908083,13,1393.279166125,1393.344165291,1394.06306475,1395.356430666,1,0.833798999999999
113,50,4,categorization,0,bathroom,SHINEd_sun_ambriybtogmepttm.tif,36,0.0666666666666667,0.0666666666666667,1.25,1395.374682916,1396.297629208,9,1395.441477625,1395.506115791,1396.312562041,1397.555922291,0,0.922946292000006
113,1,5,categorization,0,bathroom,SHINEd_sun_agguqiubmwhqqunb.tif,22,0.0666666666666667,0.0666666666666667,1.7,1402.307884041,1403.061628583,9,1402.37030125,1402.430640916,1403.065853333,1404.759225958,0,0.753744541999822
113,2,5,categorization,0,kitchen,SHINEd_sun_ahdycvpopffkzzsu.tif,90,0.0666666666666667,0.0666666666666667,1.81666666666667,1404.776947208,1405.15242275,9,1404.843805083,1404.909861333,1405.16537675,1406.975425208,1,0.375475542000004
113,3,5,categorization,0,bathroom,SHINEd_sun_apmqjbnwghzuhhzh.tif,46,0.0666666666666667,0.0666666666666667,1.23333333333333,1406.992743208,1407.792640916,13,1407.059435916,1407.125249,1407.815611708,1409.042325333,1,0.799897707999889
113,4,5,categorization,0,kitchen,SHINEd_sun_abdenxonkemggwsq.tif,69,0.0666666666666667,0.0666666666666667,1.4,1409.060305583,1409.733021041,13,1409.127416,1409.193063833,1409.749130291,1411.142522083,0,0.672715458000084
113,5,5,categorization,0,bathroom,SHINEd_sun_anhioqovhscjqqwb.tif,38,0.0666666666666667,0.0666666666666667,1.03333333333333,1411.159899291,1411.929245208,9,1411.226746208,1411.29326775,1411.949926416,1412.976630416,0,0.76934591700001
113,6,5,categorization,0,kitchen,SHINEd_sun_adgqasybjyktddhj.tif,78,0.0666666666666667,0.0666666666666667,1.38333333333333,1412.984751875,1414.149290416,9,1413.047100166,1413.107527291,1414.159323208,1415.536018875,1,1.16453854099996
113,7,5,categorization,0,bathroom,SHINEd_sun_apeeialkgkuxddgh.tif,42,0.0666666666666667,0.0666666666666667,2,1415.546224,1416.343252666,9,1415.610673666,1415.678192166,1416.367836583,1418.361210666,0,0.79702866599996
113,8,5,categorization,0,bathroom,SHINEd_sun_acgyywnybuveqsro.tif,18,0.0666666666666667,0.0666666666666667,1.85,1418.377184125,1419.062355583,13,1418.444029583,1418.509993958,1419.082876541,1420.926264291,1,0.685171458000013
113,9,5,categorization,0,bathroom,SHINEd_sun_apjevzvycyhuqghb.tif,43,0.0666666666666667,0.0666666666666667,0.816666666666667,1420.943331,1421.462737375,13,1421.010572,1421.076043041,1421.482550541,1422.292557125,1,0.519406375000017
113,10,5,categorization,0,kitchen,SHINEd_sun_aixorpehvfykdynp.tif,95,0.0666666666666667,0.0666666666666667,1.85,1422.298357041,1422.997526208,13,1422.360121,1422.421109,1423.006473875,1424.849852791,0,0.699169167000036
113,11,5,categorization,0,kitchen,SHINEd_sun_amjjdeyrggfqgmom.tif,100,0.0666666666666667,0.0666666666666667,0.733333333333333,1424.867673416,1425.486182,13,1424.934283833,1425.000897416,1425.507499333,1426.234170458,0,0.61850858400021
113,12,5,categorization,0,bathroom,SHINEd_sun_apkxzenqapsujocq.tif,45,0.0666666666666667,0.0666666666666667,0.716666666666667,1426.240028083,1427.461574791,9,1426.301684,1426.36274025,1427.481839291,1428.191844208,0,1.22154670800001
113,13,5,categorization,0,bathroom,SHINEd_sun_amzlamotzwfkwjco.tif,37,0.0666666666666667,0.0666666666666667,0.833333333333333,1428.19727475,1429.437065375,13,1428.258998625,1428.319966833,1429.455488833,1430.282161666,1,1.23979062500007
113,14,5,categorization,0,kitchen,SHINEd_sun_abpwyqmlzafvklqo.tif,72,0.0666666666666667,0.0666666666666667,0.95,1430.287305958,1431.308982583,13,1430.349132125,1430.410416791,1431.312544375,1432.255881458,0,1.02167662500005
113,15,5,categorization,0,kitchen,SHINEd_sun_aadbddgrdsjugojn.tif,64,0.0666666666666667,0.0666666666666667,1.96666666666667,1432.261176166,1433.204950208,9,1432.322942208,1432.383889041,1433.219034,1435.179071916,1,0.943774041999859
113,16,5,categorization,0,bathroom,SHINEd_sun_aavhrsfjbserjtht.tif,13,0.0666666666666667,0.0666666666666667,1.86666666666667,1435.196435666,1435.990638583,13,1435.2634375,1435.329709375,1436.019637166,1437.879678541,1,0.794202916999893
113,17,5,categorization,0,kitchen,SHINEd_sun_ahljzhgcdpomplvg.tif,91,0.0666666666666667,0.0666666666666667,1.51666666666667,1437.897636875,1438.877532708,9,1437.964252208,1438.030587583,1438.904371541,1440.41441125,1,0.979895833
113,18,5,categorization,0,kitchen,SHINEd_sun_aegoxogugdkwpmpj.tif,80,0.0666666666666667,0.0666666666666667,1.3,1440.432176041,1441.087611416,9,1440.499026541,1440.564935541,1441.104755958,1442.398131583,1,0.655435375000025
113,19,5,categorization,0,kitchen,SHINEd_sun_aeqdocilnnpuvuhx.tif,83,0.0666666666666667,0.0666666666666667,1.91666666666667,1442.417227625,1442.976674666,9,1442.48374975,1442.550276875,1443.006765583,1444.916803208,1,0.559447041000112
113,20,5,categorization,0,kitchen,SHINEd_sun_aggjlwcdjsjcaemh.tif,86,0.0666666666666667,0.0666666666666667,1.23333333333333,1444.93500375,1445.729510625,9,1445.000108958,1445.065549541,1445.755637,1446.98234925,1,0.794506875000025
113,21,5,categorization,0,kitchen,SHINEd_sun_aypmqwcualkenuoe.tif,109,0.0666666666666667,0.0666666666666667,0.866666666666667,1447.000903708,1447.747205916,9,1447.067957541,1447.134558541,1447.773919416,1448.6339555,1,0.746302208000088
113,22,5,categorization,0,kitchen,SHINEd_labelme_brsyyvweiuaazfr.tif,61,0.0666666666666667,0.0666666666666667,0.8,1448.650974416,1449.556989125,9,1448.71728075,1448.783719583,1449.568918708,1450.362256583,1,0.906014708999919
113,23,5,categorization,0,kitchen,SHINEd_labelme_kxvouciolcpqplr.tif,62,0.0666666666666667,0.0666666666666667,1.51666666666667,1450.370205333,1451.293127666,9,1450.432024291,1450.492832458,1451.311248625,1452.821282333,1,0.92292233299986
113,24,5,categorization,0,kitchen,SHINEd_sun_abdxkyyxwfskuaqb.tif,70,0.0666666666666667,0.0666666666666667,1.18333333333333,1452.838995166,1453.599702833,9,1452.90574775,1452.971804958,1453.609701708,1454.786407041,1,0.760707667000133
113,25,5,categorization,0,kitchen,SHINEd_sun_aenotlpyftoioydp.tif,82,0.0666666666666667,0.0666666666666667,1.6,1454.796243541,1455.509289666,9,1454.863136541,1454.928684833,1455.536034083,1457.129405666,1,0.713046125000119
113,26,5,categorization,0,kitchen,SHINEd_labelme_rykdqxenmhulbdn.tif,63,0.0666666666666667,0.0666666666666667,1.56666666666667,1457.147759333,1458.077346041,9,1457.214508916,1457.280752291,1458.104649791,1459.664706666,1,0.929586707999988
113,27,5,categorization,0,kitchen,SHINEd_sun_abrcnpqqhmjwekyf.tif,73,0.0666666666666667,0.0666666666666667,1.36666666666667,1459.675134875,1460.763408833,9,1459.742356458,1459.808074458,1460.781157375,1462.141196458,1,1.08827395800017
113,28,5,categorization,0,bathroom,SHINEd_sun_aljolscmmzydegqp.tif,33,0.0666666666666667,0.0666666666666667,1.53333333333333,1462.160147666,1462.833623416,13,1462.22735975,1462.293022375,1462.848880875,1464.375593416,1,0.673475749999852
113,29,5,categorization,0,kitchen,SHINEd_sun_acgtpgfybqjmzeyw.tif,75,0.0666666666666667,0.0666666666666667,1.4,1464.393379208,1465.039153333,9,1464.460316208,1464.526105458,1465.066274958,1466.459651916,1,0.645774125000116
113,30,5,categorization,0,kitchen,SHINEd_sun_ahspylgoovwmwvgk.tif,93,0.0666666666666667,0.0666666666666667,1.06666666666667,1466.478712833,1467.122948916,13,1466.545809833,1466.611699875,1467.152401458,1468.212434833,0,0.644236083000123
113,31,5,categorization,0,bathroom,SHINEd_sun_aspsyogrekjtfozg.tif,50,0.0666666666666667,0.0666666666666667,1.63333333333333,1468.224897083,1468.919292416,13,1468.289985166,1468.357929458,1468.948076666,1470.574791833,1,0.694395332999875
113,32,5,categorization,0,bathroom,SHINEd_sun_apynckhmoftszqoq.tif,47,0.0666666666666667,0.0666666666666667,1.8,1470.587440666,1471.399214333,13,1470.654220875,1470.720890958,1471.42775025,1473.221117666,1,0.811773666999898
113,33,5,categorization,0,kitchen,SHINEd_sun_aunzlwrbjumxhwdj.tif,103,0.0666666666666667,0.0666666666666667,1.53333333333333,1473.238318666,1474.139263791,9,1473.305294625,1473.371461583,1474.161760541,1475.688463958,1,0.900945125000135
113,34,5,categorization,0,bathroom,SHINEd_sun_aghyqhbptboemmoq.tif,23,0.0666666666666667,0.0666666666666667,0.766666666666667,1475.699627458,1476.577883541,9,1475.766843166,1475.832337375,1476.60596775,1477.365973541,0,0.878256082999997
113,35,5,categorization,0,bathroom,SHINEd_sun_azqyogdvyhahyram.tif,60,0.0666666666666667,0.0666666666666667,1.86666666666667,1477.371973916,1478.340883875,13,1477.433728375,1477.494772125,1478.346659291,1480.206691916,1,0.96890995900003
113,36,5,categorization,0,bathroom,SHINEd_sun_aapitsgbtktqubfy.tif,12,0.0666666666666667,0.0666666666666667,1.13333333333333,1480.223914333,1481.185181041,13,1480.290491208,1480.356921083,1481.213265833,1482.339975708,1,0.961266708000039
113,37,5,categorization,0,bathroom,SHINEd_sun_awnqiikzaispgmwo.tif,56,0.0666666666666667,0.0666666666666667,1.73333333333333,1482.350772291,1483.244428375,13,1482.415557875,1482.484420375,1483.274187333,1485.000891,1,0.893656083999986
113,38,5,categorization,0,bathroom,SHINEd_labelme_sfxiulhjbhlyiyt.tif,11,0.0666666666666667,0.0666666666666667,0.766666666666667,1485.021560208,1485.1420225,13,1485.088412791,1485.155373916,1485.177887583,1485.93792925,1,0.120462291999957
113,39,5,categorization,0,bathroom,SHINEd_sun_alkosphxlxwjwgjd.tif,34,0.0666666666666667,0.0666666666666667,1.85,1485.95329925,1486.732775375,13,1486.019732416,1486.086116833,1486.7383065,1488.581679916,1,0.779476124999974
113,40,5,categorization,0,kitchen,SHINEd_sun_admlmbcdswaszruo.tif,79,0.0666666666666667,0.0666666666666667,0.966666666666667,1488.6014975,1490.436565916,9,1488.668451416,1488.73455475,1490.453787166,1491.4137915,1,1.83506841600001
113,41,5,categorization,0,kitchen,SHINEd_sun_aapllqyqlykszopd.tif,66,0.0666666666666667,0.0666666666666667,1.06666666666667,1491.41958825,1492.237206291,13,1491.481443958,1491.542340583,1492.244208166,1493.304251916,0,0.817618040999832
113,42,5,categorization,0,bathroom,SHINEd_sun_axxbkopsgyouuebh.tif,58,0.0666666666666667,0.0666666666666667,1.38333333333333,1493.317231541,1494.008749916,13,1493.381966416,1493.446674791,1494.036634916,1495.413358916,1,0.691518374999987
113,43,5,categorization,0,bathroom,SHINEd_sun_anryaplzeujmzfkd.tif,39,0.0666666666666667,0.0666666666666667,0.766666666666667,1495.426232708,1496.314137833,13,1495.492718541,1495.5561405,1496.32866475,1497.0887095,1,0.887905124999861
113,44,5,categorization,0,bathroom,SHINEd_sun_akiytfaagpdsphgz.tif,31,0.0666666666666667,0.0666666666666667,0.866666666666667,1497.104563166,1498.204634208,13,1497.171018708,1497.237430583,1498.222637708,1499.082642041,1,1.10007104200008
113,45,5,categorization,0,bathroom,SHINEd_sun_abapwbhyhkfixyex.tif,14,0.0666666666666667,0.0666666666666667,1.25,1499.087578375,1499.900536875,9,1499.149323583,1499.210268125,1499.912273583,1501.1556395,0,0.812958499999922
113,46,5,categorization,0,bathroom,SHINEd_sun_agrwbmhcpmfuwmsg.tif,24,0.0666666666666667,0.0666666666666667,1.03333333333333,1501.172958875,1501.847708333,9,1501.239634083,1501.305561875,1501.861396,1502.888100375,0,0.674749457999951
113,47,5,categorization,0,bathroom,SHINEd_sun_aleqenyvunhactkl.tif,32,0.0666666666666667,0.0666666666666667,0.783333333333333,1502.904555625,1503.73304275,9,1502.969299958,1503.028753375,1503.7472325,1504.523904541,0,0.828487125000038
113,48,5,categorization,0,kitchen,SHINEd_sun_azmutvzbxypaceni.tif,110,0.0666666666666667,0.0666666666666667,0.7,1504.529606041,1505.708628541,13,1504.591343791,1504.652284666,1505.720938041,1506.414276708,0,1.17902249999997
113,49,5,categorization,0,kitchen,SHINEd_sun_agorklincwxrdtga.tif,87,0.0666666666666667,0.0666666666666667,1.75,1506.419616375,1507.349022041,13,1506.481461791,1506.542750041,1507.361310125,1509.10468875,0,0.929405665999866
113,50,5,categorization,0,bathroom,SHINEd_sun_ambriybtogmepttm.tif,36,0.0666666666666667,0.0666666666666667,1.36666666666667,1509.1224395,1509.687365416,13,1509.189580291,1509.255537958,1509.710797041,1511.070841875,1,0.564925915999993
113,1,6,categorization,0,kitchen,SHINEd_sun_afuyedyxivkhecmu.tif,85,0.0666666666666667,0.0666666666666667,0.966666666666667,1543.304201666,1544.189122125,13,1543.366717916,1543.426930541,1544.195500125,1545.155503791,0,0.884920459000114
113,2,6,categorization,0,kitchen,SHINEd_sun_avszsnwsbuqfgzbn.tif,105,0.0666666666666667,0.0666666666666667,1.73333333333333,1545.160580583,1546.228918791,9,1545.222344791,1545.2833085,1546.2352135,1547.961915083,1,1.06833820800011
113,3,6,categorization,0,kitchen,SHINEd_sun_aqeaevwwwjoqhzvl.tif,101,0.0666666666666667,0.0666666666666667,1.91666666666667,1547.980360958,1548.625720791,9,1548.047368416,1548.113076458,1548.65275,1550.562786666,1,0.645359833000157
113,4,6,categorization,0,kitchen,SHINEd_sun_aamedkxepzlwuxes.tif,65,0.0666666666666667,0.0666666666666667,0.766666666666667,1550.580295875,1551.615741958,9,1550.646815375,1550.712971708,1551.634906083,1552.394909875,1,1.0354460829999
113,5,6,categorization,0,kitchen,SHINEd_sun_acxkpeoqbwcxfvip.tif,77,0.0666666666666667,0.0666666666666667,0.916666666666667,1552.399992291,1553.412963708,9,1552.461800958,1552.5226675,1553.424511208,1554.334516,1,1.01297141700002
113,6,6,categorization,0,bathroom,SHINEd_sun_atstyziqcmkahyxk.tif,51,0.0666666666666667,0.0666666666666667,1.18333333333333,1554.339406125,1555.516776791,13,1554.401160666,1554.462372375,1555.531123583,1556.707817166,1,1.17737066599989
113,7,6,categorization,0,bathroom,SHINEd_sun_apkruvsevgegsdwp.tif,44,0.0666666666666667,0.0666666666666667,1.8,1556.717640125,1557.645914583,13,1556.784646125,1556.850729875,1557.655139291,1559.448507666,1,0.928274458000033
113,8,6,categorization,0,bathroom,SHINEd_sun_ahqjwnzgolcaoidx.tif,29,0.0666666666666667,0.0666666666666667,0.883333333333333,1559.466685083,1560.117817208,13,1559.533614958,1559.59518025,1560.134752208,1561.011423708,1,0.651132125000004
113,9,6,categorization,0,bathroom,SHINEd_sun_aclfzgynxzxlbepz.tif,19,0.0666666666666667,0.0666666666666667,1.83333333333333,1561.016852375,1561.892775333,13,1561.078964625,1561.139580583,1561.908082666,1563.734772625,1,0.875922957999819
113,10,6,categorization,0,kitchen,SHINEd_sun_acwjdupvyjsugpay.tif,76,0.0666666666666667,0.0666666666666667,1.76666666666667,1563.746828541,1564.399611791,13,1563.814128125,1563.879737791,1564.419889541,1566.17994525,0,0.652783250000084
113,11,6,categorization,0,kitchen,SHINEd_sun_aymvwlarqodbwuoc.tif,108,0.0666666666666667,0.0666666666666667,0.983333333333333,1566.19795025,1566.318532375,9,1566.265433458,1566.33138575,1566.354756,1567.331461083,1,0.120582124999828
113,12,6,categorization,0,kitchen,SHINEd_sun_awcpdzzznmweyyhv.tif,106,0.0666666666666667,0.0666666666666667,0.883333333333333,1567.346451833,1568.252349,9,1567.414119875,1567.471055166,1568.256423875,1569.133094791,1,0.905897167000148
113,13,6,categorization,0,bathroom,SHINEd_sun_asfwthctfqerjvxr.tif,49,0.0666666666666667,0.0666666666666667,0.85,1569.137788958,1569.756998208,9,1569.199402875,1569.260497833,1569.762375416,1570.605712833,0,0.619209249999813
113,14,6,categorization,0,kitchen,SHINEd_sun_ajkqhtgcbgpcwrwn.tif,97,0.0666666666666667,0.0666666666666667,0.733333333333333,1570.610994958,1571.452844916,13,1570.672739416,1570.733699458,1571.469182375,1572.195854291,0,0.841849958000012
113,15,6,categorization,0,kitchen,SHINEd_sun_axyyrmzcupyhlivc.tif,107,0.0666666666666667,0.0666666666666667,1.88333333333333,1572.202265041,1572.956800583,9,1572.264102,1572.32492375,1572.959990791,1574.836703125,1,0.754535541999985
113,16,6,categorization,0,kitchen,SHINEd_sun_ahpczsiumwwocjkv.tif,92,0.0666666666666667,0.0666666666666667,0.816666666666667,1574.853901041,1575.56705175,9,1574.920509458,1574.987006833,1575.592306791,1576.402311458,1,0.713150709000047
113,17,6,categorization,0,bathroom,SHINEd_sun_agyqfjcfkdcydepw.tif,25,0.0666666666666667,0.0666666666666667,1.9,1576.407353458,1577.268731,13,1576.469060458,1576.530025458,1577.28186325,1579.175236208,1,0.8613775419999
113,18,6,categorization,0,bathroom,SHINEd_sun_aqrpegblszgcoujh.tif,48,0.0666666666666667,0.0666666666666667,0.983333333333333,1579.189607125,1579.310063041,13,1579.256619666,1579.323139166,1579.346121916,1580.322825958,1,0.120455915999855
113,19,6,categorization,0,bathroom,SHINEd_sun_ajlawzvmubibwbpy.tif,30,0.0666666666666667,0.0666666666666667,0.75,1580.337501208,1580.668170541,9,1580.403418875,1580.461482375,1580.680002583,1581.423339208,0,0.33066933300006
113,20,6,categorization,0,bathroom,SHINEd_sun_ahijqszoswveeyji.tif,28,0.0666666666666667,0.0666666666666667,1.6,1581.428707083,1582.757182166,13,1581.490374291,1581.551408083,1582.770825125,1584.364209,1,1.32847508299983
113,21,6,categorization,0,bathroom,SHINEd_sun_afcoljnjfoxjtgja.tif,20,0.0666666666666667,0.0666666666666667,1.58333333333333,1584.381296416,1585.369121416,13,1584.450072333,1584.513968208,1585.386641958,1586.963357125,1,0.987825000000157
113,22,6,categorization,0,kitchen,SHINEd_sun_acfmftudsenhrfhy.tif,74,0.0666666666666667,0.0666666666666667,1.11666666666667,1586.980800708,1587.686948541,13,1587.048692708,1587.113348833,1587.70218475,1588.812223625,0,0.706147832999932
113,23,6,categorization,0,bathroom,SHINEd_sun_abjtwfukuwddzted.tif,15,0.0666666666666667,0.0666666666666667,1.53333333333333,1588.8234305,1589.86859625,9,1588.888276291,1588.956276958,1589.896748041,1591.423468708,0,1.04516575000002
113,24,6,categorization,0,bathroom,SHINEd_sun_ahcvzmoyaycdoftf.tif,27,0.0666666666666667,0.0666666666666667,1.48333333333333,1591.440442291,1592.215456541,9,1591.507710333,1591.573495708,1592.229538875,1593.706252791,0,0.77501425000014
113,25,6,categorization,0,bathroom,SHINEd_sun_axldvoqbuvuggfmq.tif,57,0.0666666666666667,0.0666666666666667,1.1,1593.723610791,1594.414371583,9,1593.790435958,1593.856945875,1594.429550208,1595.522934416,0,0.690760791999992
113,26,6,categorization,0,bathroom,SHINEd_sun_aoybiabnpadelefl.tif,41,0.0666666666666667,0.0666666666666667,0.933333333333333,1595.535274166,1596.513765375,9,1595.600119416,1595.666526208,1596.53982075,1597.466521333,0,0.97849120900014
113,27,6,categorization,0,kitchen,SHINEd_sun_abftihopvusyfakt.tif,71,0.0666666666666667,0.0666666666666667,0.816666666666667,1597.483425291,1598.588975416,9,1597.545999041,1597.606156333,1598.608027666,1599.418031541,1,1.10555012500004
113,28,6,categorization,0,kitchen,SHINEd_sun_ahywdevtimnqcsln.tif,94,0.0666666666666667,0.0666666666666667,1.78333333333333,1599.422530583,1600.589055625,9,1599.484479625,1599.545138291,1600.597038083,1602.373752375,1,1.16652504199988
113,29,6,categorization,0,bathroom,SHINEd_sun_axyrejkiiaqiurjk.tif,59,0.0666666666666667,0.0666666666666667,0.766666666666667,1602.392935583,1603.168881708,13,1602.460218125,1602.526090958,1603.182294625,1603.942305416,1,0.775946125000019
113,30,6,categorization,0,kitchen,SHINEd_sun_aehawpgmrlhlvcow.tif,81,0.0666666666666667,0.0666666666666667,1.45,1603.948046,1605.380649,13,1604.0096975,1604.070720625,1605.389637833,1606.833009,0,1.43260299999997
113,31,6,categorization,0,bathroom,SHINEd_sun_ausgutylgojavyoq.tif,53,0.0666666666666667,0.0666666666666667,0.75,1606.851388875,1607.720567625,13,1606.918339,1606.98418975,1607.741104208,1608.484444166,1,0.869178749999946
113,32,6,categorization,0,kitchen,SHINEd_sun_agubuxuukhzyzpdp.tif,88,0.0666666666666667,0.0666666666666667,1.36666666666667,1608.490188708,1609.900419208,9,1608.551898833,1608.612897666,1609.915150416,1611.275205,1,1.4102304999999
113,33,6,categorization,0,kitchen,SHINEd_sun_auaiucuqpdausiva.tif,102,0.0666666666666667,0.0666666666666667,0.75,1611.292839125,1611.837042583,9,1611.359458625,1611.425695708,1611.865064916,1612.608436708,1,0.544203458000084
113,34,6,categorization,0,bathroom,SHINEd_sun_alotolagknyrgtsk.tif,35,0.0666666666666667,0.0666666666666667,0.783333333333333,1612.622001041,1613.452958333,9,1612.688409916,1612.754783041,1613.457243208,1614.233914416,0,0.830957291999994
113,35,6,categorization,0,kitchen,SHINEd_sun_auticobqsbwgoppi.tif,104,0.0666666666666667,0.0666666666666667,1.11666666666667,1614.238803,1615.116516375,13,1614.300598625,1614.3614655,1615.130149208,1616.240205,0,0.877713374999985
113,36,6,categorization,0,kitchen,SHINEd_sun_aaxxjlsuzvqlgylf.tif,68,0.0666666666666667,0.0666666666666667,0.766666666666667,1616.253372125,1617.015369875,13,1616.318157291,1616.386251041,1617.042806041,1617.802849333,0,0.761997750000091
113,37,6,categorization,0,bathroom,SHINEd_sun_aunuadmjocsddsrl.tif,52,0.0666666666666667,0.0666666666666667,0.716666666666667,1617.820432375,1618.764203708,13,1617.88752275,1617.953201666,1618.771830958,1619.481834708,1,0.943771332999859
113,38,6,categorization,0,kitchen,SHINEd_sun_akcjzhbbjlbogpdi.tif,99,0.0666666666666667,0.0666666666666667,1.33333333333333,1619.486932208,1620.508628541,13,1619.548731541,1619.609631833,1620.528205541,1621.854904166,0,1.02169633299991
113,39,6,categorization,0,bathroom,SHINEd_sun_ahaulkltgpkeeemi.tif,26,0.0666666666666667,0.0666666666666667,1.75,1621.872111916,1622.823062125,9,1621.938823125,1622.0057515,1622.845765333,1624.589143166,0,0.950950208999984
113,40,6,categorization,0,kitchen,SHINEd_sun_aarfiyshqohlwkmo.tif,67,0.0666666666666667,0.0666666666666667,1.13333333333333,1624.606150333,1625.206540666,9,1624.672915041,1624.739172625,1625.229563208,1626.356268166,1,0.60039033299995
113,41,6,categorization,0,bathroom,SHINEd_sun_acegryoqftbzowsg.tif,17,0.0666666666666667,0.0666666666666667,1.63333333333333,1626.366471666,1627.09754575,13,1626.431208791,1626.499244666,1627.121299041,1628.748021916,1,0.731074084000056
113,42,6,categorization,0,kitchen,SHINEd_sun_akchetnepxlcxhsu.tif,98,0.0666666666666667,0.0666666666666667,1.43333333333333,1628.7645915,1629.510000791,13,1628.831114208,1628.897343,1629.536350208,1630.963069583,0,0.745409290999987
113,43,6,categorization,0,kitchen,SHINEd_sun_agzzivivdpnawacl.tif,89,0.0666666666666667,0.0666666666666667,1.83333333333333,1630.980593791,1631.900221666,13,1631.048723958,1631.112861958,1631.919348375,1633.746071625,0,0.91962787500006
113,44,6,categorization,0,bathroom,SHINEd_sun_aofnryafpsjimzsb.tif,40,0.0666666666666667,0.0666666666666667,1.93333333333333,1633.764195375,1634.506267541,13,1633.831442958,1633.89678275,1634.535414916,1636.462128166,1,0.742072165999843
113,45,6,categorization,0,bathroom,SHINEd_sun_aggnnqpdorgxpvce.tif,21,0.0666666666666667,0.0666666666666667,1.26666666666667,1636.480467875,1637.13188275,9,1636.547219375,1636.613911583,1637.153940083,1638.413980541,0,0.651414875
113,46,6,categorization,0,bathroom,SHINEd_sun_acduarbnmmoglmiv.tif,16,0.0666666666666667,0.0666666666666667,1.86666666666667,1638.433827958,1639.125141416,9,1638.500366708,1638.566735375,1639.13912325,1640.99918075,0,0.691313457999968
113,47,6,categorization,0,bathroom,SHINEd_sun_auzqhkafidnkrwmo.tif,54,0.0666666666666667,0.0666666666666667,1.41666666666667,1641.020468166,1642.077667375,13,1641.08732725,1641.153100333,1642.094338416,1643.504391541,1,1.05719920899992
113,48,6,categorization,0,kitchen,SHINEd_sun_ajcbwwvdlsvjyzje.tif,96,0.0666666666666667,0.0666666666666667,1.11666666666667,1643.521893166,1644.333781958,13,1643.588533041,1643.653063458,1644.360155041,1645.470196333,0,0.811888791999991
113,49,6,categorization,0,bathroom,SHINEd_sun_avhrdrntsqrjzccq.tif,55,0.0666666666666667,0.0666666666666667,1.8,1645.480851166,1646.480230291,13,1645.546128583,1645.610815375,1646.501113333,1648.29448375,1,0.999379124999905
113,50,6,categorization,0,kitchen,SHINEd_sun_aexklacwqwezaorf.tif,84,0.0666666666666667,0.0666666666666667,1.25,1648.312421375,1649.031972875,13,1648.379443666,1648.445617333,1649.052314583,1650.295687833,0,0.71955150000008
113,1,7,categorization,0,bathroom,SHINEd_sun_apeeialkgkuxddgh.tif,42,0.0666666666666667,0.0666666666666667,0.883333333333333,1655.326660333,1656.516936083,9,1655.389069666,1655.449465958,1656.535153916,1657.411826166,0,1.19027574999996
113,2,7,categorization,0,kitchen,SHINEd_sun_azmutvzbxypaceni.tif,110,0.0666666666666667,0.0666666666666667,1.03333333333333,1657.416480625,1658.260429875,13,1657.478157125,1657.539058666,1658.274247666,1659.300959708,0,0.843949249999923
113,3,7,categorization,0,kitchen,SHINEd_sun_akcjzhbbjlbogpdi.tif,99,0.0666666666666667,0.0666666666666667,1.06666666666667,1659.311483208,1660.089363708,13,1659.376851875,1659.442806083,1660.1161195,1661.176167458,0,0.777880500000038
113,4,7,categorization,0,kitchen,SHINEd_sun_aeqdocilnnpuvuhx.tif,83,0.0666666666666667,0.0666666666666667,0.833333333333333,1661.1899075,1662.331958125,9,1661.256528708,1661.315161833,1662.350720166,1663.177393458,1,1.14205062500014
113,5,7,categorization,0,kitchen,SHINEd_sun_auticobqsbwgoppi.tif,104,0.0666666666666667,0.0666666666666667,0.716666666666667,1663.182880083,1664.46781875,9,1663.244697333,1663.30557375,1664.474369875,1665.184373333,1,1.28493866700001
113,6,7,categorization,0,kitchen,SHINEd_sun_afuyedyxivkhecmu.tif,85,0.0666666666666667,0.0666666666666667,0.733333333333333,1665.189013833,1665.94826275,9,1665.25077225,1665.311743458,1665.96366075,1666.6903315,1,0.759248916999923
113,7,7,categorization,0,kitchen,SHINEd_sun_adgqasybjyktddhj.tif,78,0.0666666666666667,0.0666666666666667,1.38333333333333,1666.695916041,1667.364183583,9,1666.757808708,1666.81860825,1667.370328625,1668.747041291,1,0.668267542000194
113,8,7,categorization,0,kitchen,SHINEd_sun_aymvwlarqodbwuoc.tif,108,0.0666666666666667,0.0666666666666667,0.9,1668.765161541,1669.417758166,9,1668.831891416,1668.897900416,1669.437582791,1670.330965041,1,0.652596625000115
113,9,7,categorization,0,kitchen,SHINEd_sun_aggjlwcdjsjcaemh.tif,86,0.0666666666666667,0.0666666666666667,0.816666666666667,1670.34727,1671.156814083,9,1670.414051291,1670.476936375,1671.162381875,1671.972386583,1,0.809544082999992
113,10,7,categorization,0,bathroom,SHINEd_sun_ajlawzvmubibwbpy.tif,30,0.0666666666666667,0.0666666666666667,0.85,1671.97788575,1673.196492791,13,1672.039597625,1672.101043083,1673.203069666,1674.046407708,1,1.21860704100004
113,11,7,categorization,0,bathroom,SHINEd_sun_ahcvzmoyaycdoftf.tif,27,0.0666666666666667,0.0666666666666667,1.6,1674.051912958,1674.8123285,13,1674.11385375,1674.174602,1674.826574666,1676.419943833,1,0.760415541999919
113,12,7,categorization,0,bathroom,SHINEd_sun_aggnnqpdorgxpvce.tif,21,0.0666666666666667,0.0666666666666667,1.75,1676.432764791,1677.190094041,13,1676.496755166,1676.563810708,1677.219098583,1678.962476458,1,0.757329250000112
113,13,7,categorization,0,bathroom,SHINEd_sun_aunuadmjocsddsrl.tif,52,0.0666666666666667,0.0666666666666667,1.1,1678.981559291,1679.7722145,13,1679.04827725,1679.114274916,1679.80523925,1680.898607166,1,0.790655209000079
113,14,7,categorization,0,kitchen,SHINEd_sun_aypmqwcualkenuoe.tif,109,0.0666666666666667,0.0666666666666667,1.46666666666667,1680.910917458,1681.615503333,13,1680.976211041,1681.044044791,1681.632853375,1683.092908333,0,0.704585875000021
113,15,7,categorization,0,kitchen,SHINEd_sun_axyyrmzcupyhlivc.tif,107,0.0666666666666667,0.0666666666666667,1.25,1683.1124825,1683.631542541,13,1683.179872458,1683.245835791,1683.651314083,1684.894689666,0,0.519060041000103
113,16,7,categorization,0,bathroom,SHINEd_sun_azqyogdvyhahyram.tif,60,0.0666666666666667,0.0666666666666667,1.13333333333333,1684.912270791,1685.596597,13,1684.979408083,1685.045333041,1685.614021958,1686.740745041,1,0.684326208999892
113,17,7,categorization,0,kitchen,SHINEd_sun_aegoxogugdkwpmpj.tif,80,0.0666666666666667,0.0666666666666667,1.33333333333333,1686.75139675,1687.695792791,13,1686.816827458,1686.884056291,1687.723556833,1689.050265083,0,0.944396041000118
113,18,7,categorization,0,bathroom,SHINEd_sun_awnqiikzaispgmwo.tif,56,0.0666666666666667,0.0666666666666667,1.86666666666667,1689.068156833,1689.969518625,13,1689.135441375,1689.202208958,1689.992230208,1691.852277458,1,0.901361791999989
113,19,7,categorization,0,kitchen,SHINEd_sun_aqeaevwwwjoqhzvl.tif,101,0.0666666666666667,0.0666666666666667,1.58333333333333,1691.870274916,1692.540526625,9,1691.93707225,1692.003035458,1692.558985583,1694.135690166,1,0.670251709000013
113,20,7,categorization,0,kitchen,SHINEd_sun_aapllqyqlykszopd.tif,66,0.0666666666666667,0.0666666666666667,1.05,1694.153413916,1694.964495125,9,1694.22055675,1694.286049333,1694.99302375,1696.03641325,1,0.811081208999894
113,21,7,categorization,0,kitchen,SHINEd_sun_abdxkyyxwfskuaqb.tif,70,0.0666666666666667,0.0666666666666667,0.9,1696.04723675,1696.865984083,9,1696.112469916,1696.178454666,1696.885128833,1697.778517791,1,0.818747333000147
113,22,7,categorization,0,bathroom,SHINEd_sun_avhrdrntsqrjzccq.tif,55,0.0666666666666667,0.0666666666666667,0.7,1697.794397583,1698.732647708,9,1697.860975708,1697.926988458,1698.745957166,1699.439296708,0,0.938250124999968
113,23,7,categorization,0,bathroom,SHINEd_sun_atstyziqcmkahyxk.tif,51,0.0666666666666667,0.0666666666666667,0.933333333333333,1699.445149,1700.739830166,13,1699.506848208,1699.567767958,1700.753480041,1701.680150375,1,1.29468116600015
113,24,7,categorization,0,kitchen,SHINEd_sun_agorklincwxrdtga.tif,87,0.0666666666666667,0.0666666666666667,1.95,1701.6850685,1702.587942291,9,1701.746882875,1701.807845083,1702.593465791,1704.536845666,1,0.902873791000047
113,25,7,categorization,0,bathroom,SHINEd_sun_aoybiabnpadelefl.tif,41,0.0666666666666667,0.0666666666666667,1.06666666666667,1704.554737916,1705.572984708,9,1704.621699541,1704.687543583,1705.593011625,1706.653055333,0,1.0182467919999
113,26,7,categorization,0,bathroom,SHINEd_sun_ausgutylgojavyoq.tif,53,0.0666666666666667,0.0666666666666667,1.2,1706.66517825,1707.486354083,13,1706.731056916,1706.794286458,1707.498732791,1708.692119625,1,0.82117583299987
113,27,7,categorization,0,bathroom,SHINEd_sun_aclfzgynxzxlbepz.tif,19,0.0666666666666667,0.0666666666666667,0.75,1708.710376875,1709.531935375,13,1708.772959416,1708.83308275,1709.551601166,1710.294938416,1,0.821558500000037
113,28,7,categorization,0,kitchen,SHINEd_sun_awcpdzzznmweyyhv.tif,106,0.0666666666666667,0.0666666666666667,0.816666666666667,1710.301796416,1711.268648333,13,1710.363641625,1710.424428,1711.276305083,1712.086309083,0,0.966851917000213
113,29,7,categorization,0,bathroom,SHINEd_sun_afcoljnjfoxjtgja.tif,20,0.0666666666666667,0.0666666666666667,1.96666666666667,1712.091705916,1713.268275958,9,1712.153508625,1712.214407916,1713.283045833,1715.243077416,0,1.17657004200009
113,30,7,categorization,0,kitchen,SHINEd_sun_aaxxjlsuzvqlgylf.tif,68,0.0666666666666667,0.0666666666666667,1.2,1715.259350125,1716.014312833,9,1715.326062541,1715.390994625,1716.030333375,1717.223707666,1,0.754962707999994
113,31,7,categorization,0,kitchen,SHINEd_sun_aadbddgrdsjugojn.tif,64,0.0666666666666667,0.0666666666666667,0.883333333333333,1717.236533333,1718.137962041,9,1717.303629458,1717.36957275,1718.159916666,1719.036631166,1,0.90142870800014
113,32,7,categorization,0,kitchen,SHINEd_sun_akchetnepxlcxhsu.tif,98,0.0666666666666667,0.0666666666666667,1.33333333333333,1719.04423125,1720.292397541,9,1719.106128375,1719.166917083,1720.302539625,1721.629229833,1,1.24816629099996
113,33,7,categorization,0,bathroom,SHINEd_sun_aapitsgbtktqubfy.tif,12,0.0666666666666667,0.0666666666666667,1.45,1721.637979791,1722.48424575,13,1721.703657208,1721.770597833,1722.510816375,1723.954203875,1,0.846265958999993
113,34,7,categorization,0,kitchen,SHINEd_sun_ahpczsiumwwocjkv.tif,92,0.0666666666666667,0.0666666666666667,1.15,1723.97238475,1725.121556791,9,1724.0390505,1724.105355208,1725.145342458,1726.288730125,1,1.14917204100016
113,35,7,categorization,0,bathroom,SHINEd_sun_aofnryafpsjimzsb.tif,40,0.0666666666666667,0.0666666666666667,0.966666666666667,1726.29831825,1727.066054041,13,1726.364685666,1726.432259916,1727.088580916,1728.048634208,1,0.76773579099995
113,36,7,categorization,0,bathroom,SHINEd_sun_apjevzvycyhuqghb.tif,43,0.0666666666666667,0.0666666666666667,1.45,1728.065379666,1728.89171925,9,1728.132193958,1728.198009833,1728.900188375,1730.343573,0,0.826339584000152
113,37,7,categorization,0,kitchen,SHINEd_sun_aarfiyshqohlwkmo.tif,67,0.0666666666666667,0.0666666666666667,0.8,1730.361930833,1731.232093958,9,1730.427475208,1730.494639916,1731.250390291,1732.043729916,1,0.870163124999863
113,38,7,categorization,0,bathroom,SHINEd_sun_acegryoqftbzowsg.tif,17,0.0666666666666667,0.0666666666666667,1.45,1732.052372791,1732.803705083,9,1732.114191583,1732.175090791,1732.810224791,1734.253607375,0,0.751332292000143
113,39,7,categorization,0,bathroom,SHINEd_sun_abapwbhyhkfixyex.tif,14,0.0666666666666667,0.0666666666666667,1.1,1734.272049791,1735.04645875,9,1734.33882175,1734.404927916,1735.060228666,1736.153599458,0,0.774408959000084
113,40,7,categorization,0,kitchen,SHINEd_labelme_rykdqxenmhulbdn.tif,63,0.0666666666666667,0.0666666666666667,1.16666666666667,1736.165401791,1737.101170041,9,1736.230138125,1736.298181541,1737.120726333,1738.280754125,1,0.93576824999991
113,41,7,categorization,0,bathroom,SHINEd_sun_anhioqovhscjqqwb.tif,38,0.0666666666666667,0.0666666666666667,1.31666666666667,1738.297777333,1739.128277416,13,1738.364511125,1738.430408666,1739.153491708,1740.463548166,1,0.830500082999833
113,42,7,categorization,0,bathroom,SHINEd_sun_auzqhkafidnkrwmo.tif,54,0.0666666666666667,0.0666666666666667,1.68333333333333,1740.481507541,1741.471155333,13,1740.548539333,1740.61414275,1741.4866395,1743.163362458,1,0.989647792000142
113,43,7,categorization,0,bathroom,SHINEd_sun_apynckhmoftszqoq.tif,47,0.0666666666666667,0.0666666666666667,0.966666666666667,1743.181012083,1743.931938166,13,1743.247650833,1743.313652916,1743.953781041,1744.913785958,1,0.750926082999968
113,44,7,categorization,0,kitchen,SHINEd_sun_ajcbwwvdlsvjyzje.tif,96,0.0666666666666667,0.0666666666666667,1.4,1744.919421583,1746.043837291,13,1744.98114975,1745.042224541,1746.06086775,1747.454238791,0,1.12441570800002
113,45,7,categorization,0,bathroom,SHINEd_sun_axxbkopsgyouuebh.tif,58,0.0666666666666667,0.0666666666666667,0.783333333333333,1747.473223458,1748.554322583,13,1747.537580375,1747.601779375,1748.574940708,1749.351612833,1,1.08109912500004
113,46,7,categorization,0,kitchen,SHINEd_sun_avszsnwsbuqfgzbn.tif,105,0.0666666666666667,0.0666666666666667,1.08333333333333,1749.357375416,1750.268444833,9,1749.419191708,1749.480082625,1750.282600458,1751.359300708,1,0.911069417000135
113,47,7,categorization,0,kitchen,SHINEd_sun_ahywdevtimnqcsln.tif,94,0.0666666666666667,0.0666666666666667,1.43333333333333,1751.370285875,1752.358025,9,1751.43496175,1751.502223791,1752.37509425,1753.801810458,1,0.987739124999962
113,48,7,categorization,0,kitchen,SHINEd_sun_amjjdeyrggfqgmom.tif,100,0.0666666666666667,0.0666666666666667,1.75,1753.819747041,1755.004691708,13,1753.886341791,1753.952126375,1755.025113333,1756.768501875,0,1.18494466700008
113,49,7,categorization,0,bathroom,SHINEd_sun_apkruvsevgegsdwp.tif,44,0.0666666666666667,0.0666666666666667,1.21666666666667,1756.785196916,1757.590504458,13,1756.851796708,1756.918028375,1757.607089333,1758.817122083,1,0.805307542000037
113,50,7,categorization,0,kitchen,SHINEd_sun_aexklacwqwezaorf.tif,84,0.0666666666666667,0.0666666666666667,1.31666666666667,1758.836554791,1759.900492,13,1758.903446333,1758.969273458,1759.926037375,1761.236082875,0,1.06393720899996
113,1,8,categorization,0,bathroom,SHINEd_sun_ambriybtogmepttm.tif,36,0.0666666666666667,0.0666666666666667,1.18333333333333,1766.209196416,1766.724241875,9,1766.271274416,1766.3319,1766.7337215,1767.910415208,0,0.515045459000021
113,2,8,categorization,0,bathroom,SHINEd_sun_ahijqszoswveeyji.tif,28,0.0666666666666667,0.0666666666666667,0.983333333333333,1767.91971125,1769.048033333,9,1767.987020666,1768.052814625,1769.076584041,1770.053256791,0,1.12832208299983
113,3,8,categorization,0,kitchen,SHINEd_sun_acgtpgfybqjmzeyw.tif,75,0.0666666666666667,0.0666666666666667,1.65,1770.059004333,1770.916021,9,1770.120755625,1770.181771416,1770.934129166,1772.577507916,1,0.857016666999925
113,4,8,categorization,0,bathroom,SHINEd_sun_axyrejkiiaqiurjk.tif,59,0.0666666666666667,0.0666666666666667,1.23333333333333,1772.595580291,1773.859860916,13,1772.662861666,1772.728394541,1773.888470375,1775.115183541,1,1.26428062499986
113,5,8,categorization,0,bathroom,SHINEd_sun_anryaplzeujmzfkd.tif,39,0.0666666666666667,0.0666666666666667,0.916666666666667,1775.132163541,1775.828274958,13,1775.198490791,1775.264461166,1775.854979625,1776.765036625,1,0.696111417000111
113,6,8,categorization,0,kitchen,SHINEd_sun_aenotlpyftoioydp.tif,82,0.0666666666666667,0.0666666666666667,1.56666666666667,1776.781399791,1777.587511791,9,1776.847917541,1776.913897625,1777.599169916,1779.159223416,1,0.806111999999985
113,7,8,categorization,0,kitchen,SHINEd_sun_abdenxonkemggwsq.tif,69,0.0666666666666667,0.0666666666666667,1.63333333333333,1779.176668,1780.092113958,13,1779.24382325,1779.309382291,1780.116404083,1781.743122666,0,0.915445957999964
113,8,8,categorization,0,bathroom,SHINEd_sun_aljolscmmzydegqp.tif,33,0.0666666666666667,0.0666666666666667,1.1,1781.762267041,1782.451141375,9,1781.82913475,1781.894755166,1782.467483208,1783.560861458,0,0.68887433399982
113,9,8,categorization,0,bathroom,SHINEd_sun_ahaulkltgpkeeemi.tif,26,0.0666666666666667,0.0666666666666667,1.38333333333333,1783.575094208,1784.198378583,13,1783.63973175,1783.705374625,1784.210354916,1785.587054041,1,0.623284374999912
113,10,8,categorization,0,kitchen,SHINEd_labelme_brsyyvweiuaazfr.tif,61,0.0666666666666667,0.0666666666666667,0.766666666666667,1785.597711458,1786.240747875,9,1785.662725375,1785.729920708,1786.26971375,1787.029749541,1,0.643036416999848
113,11,8,categorization,0,bathroom,SHINEd_sun_apmqjbnwghzuhhzh.tif,46,0.0666666666666667,0.0666666666666667,1.45,1787.046051125,1788.01952825,9,1787.11292375,1787.178458166,1788.030705,1789.474090458,0,0.973477124999818
113,12,8,categorization,0,kitchen,SHINEd_sun_abrcnpqqhmjwekyf.tif,73,0.0666666666666667,0.0666666666666667,0.983333333333333,1789.491736708,1790.09423325,9,1789.5568525,1789.6205275,1790.109815875,1791.086488416,1,0.602496541999926
113,13,8,categorization,0,kitchen,SHINEd_sun_aamedkxepzlwuxes.tif,65,0.0666666666666667,0.0666666666666667,0.716666666666667,1791.092477,1791.819511583,9,1791.15422575,1791.21512275,1791.833679583,1792.543686375,1,0.727034582999977
113,14,8,categorization,0,bathroom,SHINEd_sun_akiytfaagpdsphgz.tif,31,0.0666666666666667,0.0666666666666667,1.41666666666667,1792.551816458,1793.635440083,9,1792.613640333,1792.674659291,1793.642862125,1795.052895625,0,1.08362362499997
113,15,8,categorization,0,bathroom,SHINEd_sun_aleqenyvunhactkl.tif,32,0.0666666666666667,0.0666666666666667,1.21666666666667,1795.0703855,1796.497029041,13,1795.137185166,1795.203412333,1796.50969175,1797.719728333,1,1.42664354099998
113,16,8,categorization,0,bathroom,SHINEd_sun_abjtwfukuwddzted.tif,15,0.0666666666666667,0.0666666666666667,1.61666666666667,1797.729201375,1798.793636208,13,1797.797333875,1797.861853625,1798.818469208,1800.428501208,1,1.06443483299995
113,17,8,categorization,0,bathroom,SHINEd_sun_aavhrsfjbserjtht.tif,13,0.0666666666666667,0.0666666666666667,0.783333333333333,1800.445584416,1801.185024041,9,1800.513242083,1800.57861825,1801.201316541,1801.977988291,0,0.739439624999932
113,18,8,categorization,0,kitchen,SHINEd_sun_abftihopvusyfakt.tif,71,0.0666666666666667,0.0666666666666667,1.98333333333333,1801.984739833,1802.724149916,9,1802.04651325,1802.107390833,1802.742628041,1804.719342666,1,0.739410082999939
113,19,8,categorization,0,kitchen,SHINEd_sun_aehawpgmrlhlvcow.tif,81,0.0666666666666667,0.0666666666666667,0.983333333333333,1804.736949375,1805.374338583,9,1804.803692791,1804.869510416,1805.392201208,1806.368873458,1,0.637389208000059
113,20,8,categorization,0,bathroom,SHINEd_sun_agyqfjcfkdcydepw.tif,25,0.0666666666666667,0.0666666666666667,0.8,1806.374589666,1807.22800325,9,1806.436297791,1806.497267291,1807.232540583,1808.02587825,0,0.853413584000009
113,21,8,categorization,0,kitchen,SHINEd_sun_agubuxuukhzyzpdp.tif,88,0.0666666666666667,0.0666666666666667,0.733333333333333,1808.031604458,1809.004037,13,1808.093329333,1808.154292375,1809.022976666,1809.749648708,0,0.972432541999979
113,22,8,categorization,0,kitchen,SHINEd_sun_acfmftudsenhrfhy.tif,74,0.0666666666666667,0.0666666666666667,0.966666666666667,1809.754805125,1810.955280416,13,1809.816508416,1809.877516958,1810.962623041,1811.922628916,0,1.20047529099998
113,23,8,categorization,0,bathroom,SHINEd_sun_aghyqhbptboemmoq.tif,23,0.0666666666666667,0.0666666666666667,0.866666666666667,1811.92806075,1813.147285208,9,1811.989887208,1812.05077725,1813.153152791,1814.013159166,0,1.2192244580001
113,24,8,categorization,0,bathroom,SHINEd_sun_ahqjwnzgolcaoidx.tif,29,0.0666666666666667,0.0666666666666667,1.23333333333333,1814.018565125,1815.571744125,9,1814.080391166,1814.141295583,1815.576733,1816.803434833,0,1.553179
113,25,8,categorization,0,kitchen,SHINEd_sun_abpwyqmlzafvklqo.tif,72,0.0666666666666667,0.0666666666666667,1.9,1816.815962583,1817.896658958,9,1816.883738541,1816.948635,1817.921833208,1819.81520775,1,1.08069637499989
113,26,8,categorization,0,kitchen,SHINEd_sun_acwjdupvyjsugpay.tif,76,0.0666666666666667,0.0666666666666667,0.866666666666667,1819.832935583,1819.95340025,9,1819.899511916,1819.966474375,1819.989138125,1820.849174458,1,0.120464666999851
113,27,8,categorization,0,kitchen,SHINEd_sun_acxkpeoqbwcxfvip.tif,77,0.0666666666666667,0.0666666666666667,0.966666666666667,1820.86290925,1821.7960835,9,1820.92921725,1820.995498,1821.813857375,1822.773863458,1,0.933174249999865
113,28,8,categorization,0,bathroom,SHINEd_labelme_sfxiulhjbhlyiyt.tif,11,0.0666666666666667,0.0666666666666667,0.916666666666667,1822.779494375,1823.547805416,13,1822.841230791,1822.902131125,1823.553929083,1824.463934708,1,0.768311041000061
113,29,8,categorization,0,bathroom,SHINEd_sun_acgyywnybuveqsro.tif,18,0.0666666666666667,0.0666666666666667,0.916666666666667,1824.469604875,1825.515593666,13,1824.531302333,1824.592247625,1825.52757575,1826.437581416,1,1.04598879100013
113,30,8,categorization,0,bathroom,SHINEd_sun_aspsyogrekjtfozg.tif,50,0.0666666666666667,0.0666666666666667,1.4,1826.443290875,1827.483293166,9,1826.505001291,1826.565986666,1827.501167375,1828.894551541,0,1.04000229100006
113,31,8,categorization,0,bathroom,SHINEd_sun_asfwthctfqerjvxr.tif,49,0.0666666666666667,0.0666666666666667,1.75,1828.912044666,1830.795412875,9,1828.978484583,1829.0449405,1830.814186083,1832.557564041,0,1.88336820900008
113,32,8,categorization,0,kitchen,SHINEd_sun_agzzivivdpnawacl.tif,89,0.0666666666666667,0.0666666666666667,1.25,1832.5753465,1833.549865083,9,1832.642571833,1832.708515875,1833.563205083,1834.806579833,1,0.974518582999963
113,33,8,categorization,0,bathroom,SHINEd_sun_agguqiubmwhqqunb.tif,22,0.0666666666666667,0.0666666666666667,1.05,1834.826163208,1836.971358291,9,1834.894558,1834.959375791,1836.978614875,1838.02199425,0,2.14519508299986
113,34,8,categorization,0,kitchen,SHINEd_sun_aixorpehvfykdynp.tif,95,0.0666666666666667,0.0666666666666667,1.06666666666667,1838.03231925,1839.835426041,9,1838.097542166,1838.163721833,1839.8573155,1840.917349083,1,1.80310679099989
113,35,8,categorization,0,kitchen,SHINEd_sun_ahspylgoovwmwvgk.tif,93,0.0666666666666667,0.0666666666666667,1.21666666666667,1840.929349333,1842.083557041,13,1840.994458291,1841.058550666,1842.098045416,1843.308095958,0,1.15420770800006
113,36,8,categorization,0,kitchen,SHINEd_sun_ahljzhgcdpomplvg.tif,91,0.0666666666666667,0.0666666666666667,0.95,1843.32642675,1844.710376875,9,1843.393566916,1843.459499083,1844.735270041,1845.678607833,1,1.38395012499996
113,37,8,categorization,0,kitchen,SHINEd_sun_admlmbcdswaszruo.tif,79,0.0666666666666667,0.0666666666666667,0.9,1845.684556833,1846.979632875,9,1845.746460958,1845.807193625,1846.993043541,1847.886381291,1,1.29507604200012
113,38,8,categorization,0,bathroom,SHINEd_sun_aqrpegblszgcoujh.tif,48,0.0666666666666667,0.0666666666666667,1.78333333333333,1847.891430708,1849.227582125,9,1847.953330416,1848.014200333,1849.233642666,1851.010346833,0,1.33615141700011
113,39,8,categorization,0,bathroom,SHINEd_sun_agrwbmhcpmfuwmsg.tif,24,0.0666666666666667,0.0666666666666667,1.16666666666667,1851.027871583,1852.101942916,9,1851.096278833,1851.160658958,1852.116953875,1853.276992708,0,1.07407133300012
113,40,8,categorization,0,kitchen,SHINEd_sun_ajkqhtgcbgpcwrwn.tif,97,0.0666666666666667,0.0666666666666667,0.783333333333333,1853.288427166,1855.088735375,13,1853.355586541,1853.422358291,1855.11542175,1855.892094583,0,1.80030820899992
113,41,8,categorization,0,kitchen,SHINEd_sun_auaiucuqpdausiva.tif,102,0.0666666666666667,0.0666666666666667,1.23333333333333,1855.8979255,1856.683362333,13,1855.959859666,1856.020696791,1856.689158125,1857.915876458,0,0.785436833000176
113,42,8,categorization,0,bathroom,SHINEd_sun_amzlamotzwfkwjco.tif,37,0.0666666666666667,0.0666666666666667,0.9,1857.936035916,1859.071701166,13,1858.002606291,1858.069117666,1859.092523541,1859.985863666,1,1.13566524999987
113,43,8,categorization,0,bathroom,SHINEd_sun_alotolagknyrgtsk.tif,35,0.0666666666666667,0.0666666666666667,0.7,1859.991507875,1861.652050333,13,1860.053337833,1860.114210541,1861.6662925,1862.359631208,1,1.66054245800001
113,44,8,categorization,0,bathroom,SHINEd_sun_alkosphxlxwjwgjd.tif,34,0.0666666666666667,0.0666666666666667,1.23333333333333,1862.365188708,1863.491629666,13,1862.426949875,1862.487893416,1863.506450083,1864.733152958,1,1.1264409580001
113,45,8,categorization,0,bathroom,SHINEd_sun_acduarbnmmoglmiv.tif,16,0.0666666666666667,0.0666666666666667,1,1864.753294791,1866.30300525,13,1864.820277125,1864.886071333,1866.329349333,1867.322688,1,1.54971045900015
113,46,8,categorization,0,kitchen,SHINEd_sun_ahdycvpopffkzzsu.tif,90,0.0666666666666667,0.0666666666666667,1.38333333333333,1867.328339083,1868.259893708,13,1867.390099833,1867.451132333,1868.269978125,1869.646667125,0,0.93155462499999
113,47,8,categorization,0,kitchen,SHINEd_sun_aunzlwrbjumxhwdj.tif,103,0.0666666666666667,0.0666666666666667,1.3,1869.656056208,1870.827053291,13,1869.721858791,1869.78906325,1870.845778541,1872.139159333,0,1.17099708299997
113,48,8,categorization,0,kitchen,SHINEd_labelme_kxvouciolcpqplr.tif,62,0.0666666666666667,0.0666666666666667,0.833333333333333,1872.156020166,1873.068107833,9,1872.222915916,1872.288979833,1873.095914416,1873.922608333,1,0.912087667000151
113,49,8,categorization,0,bathroom,SHINEd_sun_axldvoqbuvuggfmq.tif,57,0.0666666666666667,0.0666666666666667,0.95,1873.929009416,1875.339921833,9,1873.990791666,1874.051768166,1875.35407025,1876.297407125,0,1.41091241699996
113,50,8,categorization,0,bathroom,SHINEd_sun_apkxzenqapsujocq.tif,45,0.0666666666666667,0.0666666666666667,1.43333333333333,1876.302203,1878.539739875,9,1876.364049666,1876.424903375,1878.543987958,1879.970694625,0,2.23753687499993
113,1,9,categorization,0,kitchen,SHINEd_sun_amjjdeyrggfqgmom.tif,100,0.0666666666666667,0.0666666666666667,1.08333333333333,1884.643618916,1885.387498583,13,1884.70620925,1884.766337875,1885.401449291,1886.478156416,0,0.743879667000101
113,2,9,categorization,0,kitchen,SHINEd_sun_acgtpgfybqjmzeyw.tif,75,0.0666666666666667,0.0666666666666667,0.8,1886.489468333,1887.38226675,9,1886.554501375,1886.62135775,1887.411207583,1888.204579916,1,0.892798416999995
113,3,9,categorization,0,bathroom,SHINEd_sun_aavhrsfjbserjtht.tif,13,0.0666666666666667,0.0666666666666667,0.833333333333333,1888.221174875,1889.043869125,13,1888.287917875,1888.353908416,1889.056155916,1889.88282725,1,0.822694249999813
113,4,9,categorization,0,kitchen,SHINEd_sun_ahywdevtimnqcsln.tif,94,0.0666666666666667,0.0666666666666667,1.45,1889.888385083,1890.787005791,9,1889.950177083,1890.011107583,1890.79669375,1892.240066708,1,0.898620707999953
113,5,9,categorization,0,kitchen,SHINEd_sun_ahpczsiumwwocjkv.tif,92,0.0666666666666667,0.0666666666666667,1.3,1892.25771275,1893.207687416,9,1892.324340083,1892.390891333,1893.232166125,1894.525548583,1,0.949974665999889
113,6,9,categorization,0,bathroom,SHINEd_sun_apeeialkgkuxddgh.tif,42,0.0666666666666667,0.0666666666666667,1.21666666666667,1894.543342875,1895.312486041,9,1894.609740666,1894.6761095,1895.332731375,1896.542767291,0,0.769143166000049
113,7,9,categorization,0,kitchen,SHINEd_labelme_brsyyvweiuaazfr.tif,61,0.0666666666666667,0.0666666666666667,0.733333333333333,1896.557988833,1897.346817291,9,1896.62476275,1896.690830375,1897.36366525,1898.090369416,1,0.788828457999898
113,8,9,categorization,0,bathroom,SHINEd_sun_abjtwfukuwddzted.tif,15,0.0666666666666667,0.0666666666666667,1.03333333333333,1898.10718075,1898.803799625,13,1898.174272875,1898.240051625,1898.808645208,1899.835356041,1,0.696618875000013
113,9,9,categorization,0,kitchen,SHINEd_sun_auaiucuqpdausiva.tif,102,0.0666666666666667,0.0666666666666667,1.1,1899.847047333,1900.461600083,9,1899.912510666,1899.97874075,1900.485338625,1901.578706291,1,0.614552749999802
113,10,9,categorization,0,kitchen,SHINEd_sun_admlmbcdswaszruo.tif,79,0.0666666666666667,0.0666666666666667,1.25,1901.589553875,1902.371071875,9,1901.6544785,1901.722252416,1902.374460583,1903.617844458,1,0.781518000000005
113,11,9,categorization,0,kitchen,SHINEd_sun_abdenxonkemggwsq.tif,69,0.0666666666666667,0.0666666666666667,1.4,1903.630959291,1904.300159875,13,1903.696225791,1903.763503375,1904.319549791,1905.712927583,0,0.669200584000009
113,12,9,categorization,0,bathroom,SHINEd_sun_asfwthctfqerjvxr.tif,49,0.0666666666666667,0.0666666666666667,1.43333333333333,1905.730238583,1906.4150985,13,1905.7968235,1905.862684416,1906.435830916,1907.862540791,1,0.68485991700004
113,13,9,categorization,0,bathroom,SHINEd_sun_agguqiubmwhqqunb.tif,22,0.0666666666666667,0.0666666666666667,1.26666666666667,1907.881216,1908.459566458,9,1907.948177958,1908.01393475,1908.487307291,1909.747360166,0,0.578350457999932
