sub_num,trial,block,task,is_practice,category,image,texture,duration,mask_dur,jitter,stim_time,time_of_resp,trial_response,mask_time,fix_time,jit_onset,trial_end,trial_accuracy,RT
117,1,8,categorization,0,kitchen,SHINEd_sun_awcpdzzznmweyyhv.tif,106,0.0666666666666667,0.0666666666666667,1.18333333333333,14611.578097458,14612.366265041,9,14611.640616833,14611.700734458,14612.385874625,14613.562592,1,0.788167583001268
117,2,8,categorization,0,kitchen,SHINEd_sun_ahdycvpopffkzzsu.tif,90,0.0666666666666667,0.0666666666666667,0.983333333333333,14613.571861375,14614.21076225,13,14613.638736583,14613.704870875,14614.227308833,14615.204028208,0,0.638900875001127
117,3,8,categorization,0,bathroom,SHINEd_sun_apjevzvycyhuqghb.tif,43,0.0666666666666667,0.0666666666666667,1.65,14615.220876458,14615.845557125,13,14615.286389375,14615.353757875,14615.8558075,14617.499178416,1,0.624680667000575
117,4,8,categorization,0,bathroom,SHINEd_sun_axyrejkiiaqiurjk.tif,59,0.0666666666666667,0.0666666666666667,1.23333333333333,14617.517412625,14618.138162833,13,14617.583454625,14617.650088625,14618.156047666,14619.382746208,1,0.620750207999663
117,5,8,categorization,0,bathroom,SHINEd_sun_akiytfaagpdsphgz.tif,31,0.0666666666666667,0.0666666666666667,0.916666666666667,14619.39425075,14620.227924916,13,14619.460855875,14619.526974208,14620.250175541,14621.16020925,1,0.833674166000492
117,6,8,categorization,0,kitchen,SHINEd_sun_akchetnepxlcxhsu.tif,98,0.0666666666666667,0.0666666666666667,1.56666666666667,14621.1756565,14621.861588375,13,14621.2405735,14621.299746416,14621.868164541,14623.428217083,0,0.685931875001188
117,7,8,categorization,0,bathroom,SHINEd_sun_axldvoqbuvuggfmq.tif,57,0.0666666666666667,0.0666666666666667,1.63333333333333,14623.445963208,14624.207505375,13,14623.512626083,14623.5787275,14624.235268666,14625.861967625,1,0.761542166999789
117,8,8,categorization,0,kitchen,SHINEd_sun_aehawpgmrlhlvcow.tif,81,0.0666666666666667,0.0666666666666667,1.1,14625.880013833,14626.450902875,9,14625.947005625,14626.01332475,14626.469802333,14627.563190958,1,0.57088904199918
117,9,8,categorization,0,kitchen,SHINEd_sun_auticobqsbwgoppi.tif,104,0.0666666666666667,0.0666666666666667,1.38333333333333,14627.573465041,14628.146419916,9,14627.63863225,14627.706389541,14628.162188375,14629.5388995,1,0.572954875000505
117,10,8,categorization,0,kitchen,SHINEd_sun_aexklacwqwezaorf.tif,84,0.0666666666666667,0.0666666666666667,0.766666666666667,14629.556912833,14630.006027041,9,14629.619771166,14629.679746083,14630.014857708,14630.774862375,1,0.449114207998718
117,11,8,categorization,0,kitchen,SHINEd_sun_aymvwlarqodbwuoc.tif,108,0.0666666666666667,0.0666666666666667,1.45,14630.779906416,14632.30971475,9,14630.841561416,14630.902553375,14632.321642416,14633.76502675,1,1.52980833399852
117,12,8,categorization,0,bathroom,SHINEd_sun_azqyogdvyhahyram.tif,60,0.0666666666666667,0.0666666666666667,0.983333333333333,14633.781841666,14634.791572666,13,14633.849559791,14633.914571458,14634.8210155,14635.797688291,1,1.0097310000001
117,13,8,categorization,0,kitchen,SHINEd_sun_afuyedyxivkhecmu.tif,85,0.0666666666666667,0.0666666666666667,0.716666666666667,14635.804204208,14636.830455541,13,14635.86601925,14635.92682275,14636.845337125,14637.555342291,0,1.02625133299989
117,14,8,categorization,0,bathroom,SHINEd_sun_abapwbhyhkfixyex.tif,14,0.0666666666666667,0.0666666666666667,1.41666666666667,14637.560676833,14638.317794291,13,14637.622393833,14637.683330291,14638.33515625,14639.745203791,1,0.757117458000721
117,15,8,categorization,0,bathroom,SHINEd_sun_acegryoqftbzowsg.tif,17,0.0666666666666667,0.0666666666666667,1.21666666666667,14639.762706041,14640.649264083,13,14639.830867,14639.895665333,14640.667923083,14641.877959625,1,0.886558042000615
117,16,8,categorization,0,kitchen,SHINEd_sun_aaxxjlsuzvqlgylf.tif,68,0.0666666666666667,0.0666666666666667,1.61666666666667,14641.895918791,14642.979151041,9,14641.962582333,14642.028941166,14643.001671833,14644.611725458,1,1.08323224999913
117,17,8,categorization,0,bathroom,SHINEd_sun_apynckhmoftszqoq.tif,47,0.0666666666666667,0.0666666666666667,0.783333333333333,14644.629902875,14645.727212875,13,14644.696624875,14644.762956833,14645.752157208,14646.528829791,1,1.0973099999992
117,18,8,categorization,0,bathroom,SHINEd_sun_aghyqhbptboemmoq.tif,23,0.0666666666666667,0.0666666666666667,1.98333333333333,14646.534140416,14647.57402175,13,14646.595918,14646.656865,14647.591940083,14649.568640041,1,1.0398813339998
117,19,8,categorization,0,kitchen,SHINEd_sun_aeqdocilnnpuvuhx.tif,83,0.0666666666666667,0.0666666666666667,0.983333333333333,14649.589698833,14650.563767625,13,14649.656013375,14649.722367916,14650.578044,14651.554716458,0,0.974068792000253
117,20,8,categorization,0,kitchen,SHINEd_sun_abftihopvusyfakt.tif,71,0.0666666666666667,0.0666666666666667,0.8,14651.559744375,14652.501466916,9,14651.621568958,14651.682527041,14652.517612041,14653.310950416,1,0.941722540999763
117,21,8,categorization,0,kitchen,SHINEd_sun_aixorpehvfykdynp.tif,95,0.0666666666666667,0.0666666666666667,0.733333333333333,14653.315785375,14655.573538291,13,14653.377507541,14653.438880125,14655.591079791,14656.317750791,0,2.25775291600075
117,22,8,categorization,0,bathroom,SHINEd_sun_aggnnqpdorgxpvce.tif,21,0.0666666666666667,0.0666666666666667,0.966666666666667,14656.323286583,14657.429672416,13,14656.385110916,14656.4459565,14657.447781208,14658.407786,1,1.10638583299988
117,23,8,categorization,0,bathroom,SHINEd_sun_aavhrsfjbserjtht.tif,13,0.0666666666666667,0.0666666666666667,0.866666666666667,14658.413372541,14659.509616041,9,14658.475159166,14658.535967041,14659.521182041,14660.381186791,0,1.09624350000013
117,24,8,categorization,0,kitchen,SHINEd_sun_agubuxuukhzyzpdp.tif,88,0.0666666666666667,0.0666666666666667,1.23333333333333,14660.387825833,14662.414041541,9,14660.449510541,14660.510435291,14662.430050083,14663.65675275,1,2.02621570799965
117,25,8,categorization,0,bathroom,SHINEd_sun_axxbkopsgyouuebh.tif,58,0.0666666666666667,0.0666666666666667,1.9,14663.672731125,14665.015154833,13,14663.739352041,14663.805226458,14665.048173125,14666.941538375,1,1.34242370799984
117,26,8,categorization,0,bathroom,SHINEd_sun_aoybiabnpadelefl.tif,41,0.0666666666666667,0.0666666666666667,0.866666666666667,14666.958314958,14668.845671625,13,14667.025036541,14667.091199416,14668.860552541,14669.720558166,1,1.88735666700086
117,27,8,categorization,0,kitchen,SHINEd_sun_axyyrmzcupyhlivc.tif,107,0.0666666666666667,0.0666666666666667,0.966666666666667,14669.725800708,14671.541569333,9,14669.787567791,14669.848523791,14671.5507275,14672.510732875,1,1.81576862499969
117,28,8,categorization,0,bathroom,SHINEd_sun_anhioqovhscjqqwb.tif,38,0.0666666666666667,0.0666666666666667,0.916666666666667,14672.515526583,14673.517943375,13,14672.577144166,14672.638224208,14673.523273291,14674.433278,1,1.00241679200008
117,29,8,categorization,0,bathroom,SHINEd_sun_apmqjbnwghzuhhzh.tif,46,0.0666666666666667,0.0666666666666667,0.916666666666667,14674.438939791,14675.414112833,13,14674.500693541,14674.561563458,14675.429964375,14676.3399675,1,0.975173041999369
117,30,8,categorization,0,kitchen,SHINEd_sun_aqeaevwwwjoqhzvl.tif,101,0.0666666666666667,0.0666666666666667,1.4,14676.345178541,14677.293879875,13,14676.406836541,14676.468015333,14677.303267541,14678.696637916,0,0.948701334000361
117,31,8,categorization,0,bathroom,SHINEd_sun_acgyywnybuveqsro.tif,18,0.0666666666666667,0.0666666666666667,1.75,14678.713762666,14679.592002208,13,14678.780406166,14678.846416041,14679.619641791,14681.363032166,1,0.878239542000301
117,32,8,categorization,0,bathroom,SHINEd_sun_afcoljnjfoxjtgja.tif,20,0.0666666666666667,0.0666666666666667,1.25,14681.381545583,14682.261429,9,14681.447864416,14681.514237166,14682.2871695,14683.530557958,0,0.879883416999292
117,33,8,categorization,0,kitchen,SHINEd_sun_ahywdevtimnqcsln.tif,94,0.0666666666666667,0.0666666666666667,1.05,14683.549181291,14684.242372083,9,14683.615904916,14683.681969,14684.27168725,14685.315052666,1,0.693190791998859
117,34,8,categorization,0,bathroom,SHINEd_sun_ajlawzvmubibwbpy.tif,30,0.0666666666666667,0.0666666666666667,1.06666666666667,14685.326084166,14686.142118,9,14685.38843325,14685.448904583,14686.150669041,14687.210699041,0,0.816033834000336
117,35,8,categorization,0,bathroom,SHINEd_sun_ahqjwnzgolcaoidx.tif,29,0.0666666666666667,0.0666666666666667,1.21666666666667,14687.221730041,14687.993591375,9,14687.286379375,14687.353469875,14688.008922458,14689.218956541,0,0.771861334000278
117,36,8,categorization,0,bathroom,SHINEd_sun_ahcvzmoyaycdoftf.tif,27,0.0666666666666667,0.0666666666666667,0.95,14689.23051025,14689.861448541,13,14689.29229,14689.353170625,14689.871741583,14690.815080875,1,0.630938291000348
117,37,8,categorization,0,bathroom,SHINEd_sun_apkxzenqapsujocq.tif,45,0.0666666666666667,0.0666666666666667,0.9,14690.821017708,14691.390265125,13,14690.882795166,14690.943722166,14691.395475791,14692.288812708,1,0.569247416999133
117,38,8,categorization,0,kitchen,SHINEd_sun_acgtpgfybqjmzeyw.tif,75,0.0666666666666667,0.0666666666666667,1.78333333333333,14692.293982208,14692.981985041,9,14692.355750833,14692.416540125,14692.984881875,14694.7615935,1,0.6880028329997
117,39,8,categorization,0,bathroom,SHINEd_sun_aleqenyvunhactkl.tif,32,0.0666666666666667,0.0666666666666667,1.16666666666667,14694.77953825,14695.53949625,13,14694.846237875,14694.91239975,14695.568711958,14696.72874975,1,0.759957999998733
117,40,8,categorization,0,bathroom,SHINEd_sun_apeeialkgkuxddgh.tif,42,0.0666666666666667,0.0666666666666667,0.783333333333333,14696.737771583,14697.504318166,13,14696.804216,14696.870141166,14697.526749666,14698.303473333,1,0.766546582999581
117,41,8,categorization,0,bathroom,SHINEd_sun_acduarbnmmoglmiv.tif,16,0.0666666666666667,0.0666666666666667,1.23333333333333,14698.320140083,14699.254095333,9,14698.386777708,14698.452860958,14699.271241416,14700.497956458,0,0.933955250000508
117,42,8,categorization,0,kitchen,SHINEd_sun_abdxkyyxwfskuaqb.tif,70,0.0666666666666667,0.0666666666666667,0.9,14700.515951083,14700.983167375,9,14700.584221125,14700.648629333,14701.004963041,14701.898350833,1,0.467216291999648
117,43,8,categorization,0,kitchen,SHINEd_sun_abdenxonkemggwsq.tif,69,0.0666666666666667,0.0666666666666667,0.7,14701.911676291,14702.957391958,13,14701.978816,14702.044668208,14702.963310833,14703.65664775,0,1.04571566699997
117,44,8,categorization,0,kitchen,SHINEd_sun_ahspylgoovwmwvgk.tif,93,0.0666666666666667,0.0666666666666667,1.23333333333333,14703.661490208,14704.725490958,9,14703.723267666,14703.784128375,14704.735922125,14705.962619375,1,1.06400075000056
117,45,8,categorization,0,bathroom,SHINEd_sun_avhrdrntsqrjzccq.tif,55,0.0666666666666667,0.0666666666666667,1,14705.979871,14706.578957291,13,14706.046908041,14706.113154958,14706.602941125,14707.596311625,1,0.599086291000276
117,46,8,categorization,0,bathroom,SHINEd_sun_amzlamotzwfkwjco.tif,37,0.0666666666666667,0.0666666666666667,1.38333333333333,14707.609845,14708.501401375,13,14707.676378208,14707.742397208,14708.511082833,14709.887787958,1,0.891556374999709
117,47,8,categorization,0,kitchen,SHINEd_sun_akcjzhbbjlbogpdi.tif,99,0.0666666666666667,0.0666666666666667,1.3,14709.906447666,14710.348889458,9,14709.97320175,14710.040884125,14710.363148541,14711.656522708,1,0.442441791999954
117,48,8,categorization,0,kitchen,SHINEd_sun_amjjdeyrggfqgmom.tif,100,0.0666666666666667,0.0666666666666667,0.833333333333333,14711.666955291,14712.110155583,13,14711.731609,14711.79950575,14712.139270041,14712.965985,0,0.443200291998437
117,49,8,categorization,0,kitchen,SHINEd_sun_ahpczsiumwwocjkv.tif,92,0.0666666666666667,0.0666666666666667,0.95,14712.979417916,14713.617021708,9,14713.0463215,14713.111991333,14713.634542166,14714.577881833,1,0.637603791999936
117,50,8,categorization,0,bathroom,SHINEd_sun_agyqfjcfkdcydepw.tif,25,0.0666666666666667,0.0666666666666667,1.43333333333333,14714.58381425,14715.325966583,9,14714.645570916,14714.70650425,14715.341693625,14716.768412958,0,0.742152332999467
