sub_num,trial,block,task,is_practice,category,image,texture,duration,mask_dur,jitter,stim_time,time_of_resp,trial_response,mask_time,fix_time,jit_onset,trial_end,trial_accuracy,RT
117,1,0,categorization,1,bathroom,SHINEd_bathroom_practice2.tif,112,0.0666666666666667,0.0666666666666667,1.21666666666667,13650.75135975,13652.401385291,9,13650.817682833,13650.876917166,13652.432202833,13653.642887833,0,1.6500255409992
117,2,0,categorization,1,bathroom,SHINEd_bathroom_practice1.tif,111,0.0666666666666667,0.0666666666666667,1.36666666666667,13653.691459125,13655.393064333,13,13653.764864375,13653.829371208,13655.439117916,13656.799313291,1,1.70160520799982
117,3,0,categorization,1,bathroom,SHINEd_bathroom_practice3.tif,113,0.0666666666666667,0.0666666666666667,1.85,13656.8457345,13657.894497708,13,13656.915611208,13656.976220208,13657.917886208,13659.761257083,1,1.04876320799849
117,4,0,categorization,1,bathroom,SHINEd_bathroom_practice5.tif,115,0.0666666666666667,0.0666666666666667,1.55,13659.784634708,13661.018249166,13,13659.852202541,13659.918623916,13661.038586583,13662.5819595,1,1.23361445800037
117,5,0,categorization,1,kitchen,SHINEd_kitchen_practice4.tif,119,0.0666666666666667,0.0666666666666667,1.48333333333333,13662.600717791,13663.372560166,9,13662.669646791,13662.734503291,13663.390830458,13664.867534375,1,0.771842375001142
117,6,0,categorization,1,kitchen,SHINEd_kitchen_practice2.tif,117,0.0666666666666667,0.0666666666666667,1.15,13664.88833975,13665.958507375,9,13664.955687208,13665.020892791,13665.978101833,13667.121473958,1,1.07016762500098
117,7,0,categorization,1,kitchen,SHINEd_kitchen_practice3.tif,118,0.0666666666666667,0.0666666666666667,0.733333333333333,13667.133491583,13668.541493291,9,13667.202353083,13667.264599583,13668.574834416,13669.3015055,1,1.40800170800139
117,8,0,categorization,1,bathroom,SHINEd_bathroom_practice4.tif,114,0.0666666666666667,0.0666666666666667,1.6,13669.306600041,13671.169800458,13,13669.368794125,13669.429169166,13671.181446208,13672.774829541,1,1.86320041699946
117,9,0,categorization,1,kitchen,SHINEd_kitchen_practice5.tif,120,0.0666666666666667,0.0666666666666667,0.716666666666667,13672.796283666,13674.106097458,13,13672.862941416,13672.928605125,13674.137610583,13674.847615291,0,1.30981379199875
117,10,0,categorization,1,kitchen,SHINEd_kitchen_practice1.tif,116,0.0666666666666667,0.0666666666666667,1.21666666666667,13674.853094166,13676.53785175,9,13674.914859708,13674.975739916,13676.54512725,13677.755158875,1,1.68475758400018
117,1,1,categorization,0,kitchen,SHINEd_sun_ajkqhtgcbgpcwrwn.tif,97,0.0666666666666667,0.0666666666666667,1.23333333333333,13707.026514375,13708.009369625,9,13707.089252625,13707.149143291,13708.017578833,13709.244297666,1,0.982855250000284
117,2,1,categorization,0,bathroom,SHINEd_sun_aljolscmmzydegqp.tif,33,0.0666666666666667,0.0666666666666667,0.783333333333333,13709.255563541,13709.9380195,13,13709.323253541,13709.387950583,13709.960443125,13710.737158583,1,0.682455958998617
117,3,1,categorization,0,bathroom,SHINEd_sun_akiytfaagpdsphgz.tif,31,0.0666666666666667,0.0666666666666667,0.75,13710.753778791,13711.505925,9,13710.820414375,13710.886069666,13711.521239083,13712.264576791,0,0.752146208998965
117,4,1,categorization,0,bathroom,SHINEd_sun_aleqenyvunhactkl.tif,32,0.0666666666666667,0.0666666666666667,1.23333333333333,13712.270277625,13713.24913075,9,13712.331959333,13712.39286325,13713.2612705,13714.487978708,0,0.978853124999659
117,5,1,categorization,0,bathroom,SHINEd_sun_aqrpegblszgcoujh.tif,48,0.0666666666666667,0.0666666666666667,1.13333333333333,13714.505402666,13715.545260916,13,13714.573445083,13714.637989958,13715.560100291,13716.686820333,1,1.03985825000018
117,6,1,categorization,0,kitchen,SHINEd_sun_ahspylgoovwmwvgk.tif,93,0.0666666666666667,0.0666666666666667,0.95,13716.696853166,13717.739043125,9,13716.761412416,13716.829175375,13717.769222375,13718.712561208,1,1.0421899590001
117,7,1,categorization,0,bathroom,SHINEd_sun_acegryoqftbzowsg.tif,17,0.0666666666666667,0.0666666666666667,0.733333333333333,13718.71837375,13720.002002708,13,13718.780162041,13718.841060083,13720.010071666,13720.736743958,1,1.28362895800092
117,8,1,categorization,0,bathroom,SHINEd_sun_atstyziqcmkahyxk.tif,51,0.0666666666666667,0.0666666666666667,1.31666666666667,13720.742234791,13722.169917125,13,13720.8040665,13720.864706625,13722.183603541,13723.49364975,1,1.42768233400056
117,9,1,categorization,0,kitchen,SHINEd_sun_abrcnpqqhmjwekyf.tif,73,0.0666666666666667,0.0666666666666667,0.8,13723.512435833,13724.612087416,13,13723.579483333,13723.64499125,13724.634834791,13725.428171875,0,1.0996515830011
117,10,1,categorization,0,bathroom,SHINEd_sun_avhrdrntsqrjzccq.tif,55,0.0666666666666667,0.0666666666666667,0.716666666666667,13725.433709,13726.385753375,13,13725.495621958,13725.556521,13726.391643916,13727.101649166,1,0.952044374998877
117,11,1,categorization,0,bathroom,SHINEd_sun_alotolagknyrgtsk.tif,35,0.0666666666666667,0.0666666666666667,0.916666666666667,13727.109362208,13728.23354675,13,13727.1711025,13727.231908291,13728.25031,13729.160314833,1,1.12418454199906
117,12,1,categorization,0,bathroom,SHINEd_sun_aclfzgynxzxlbepz.tif,19,0.0666666666666667,0.0666666666666667,0.95,13729.165756,13730.729520125,13,13729.227367875,13729.288602625,13730.740899666,13731.684237416,1,1.56376412499958
117,13,1,categorization,0,bathroom,SHINEd_sun_apynckhmoftszqoq.tif,47,0.0666666666666667,0.0666666666666667,0.833333333333333,13731.68991375,13733.145976291,13,13731.751569833,13731.812491875,13733.164998208,13733.99167025,1,1.45606254099948
117,14,1,categorization,0,kitchen,SHINEd_sun_ahdycvpopffkzzsu.tif,90,0.0666666666666667,0.0666666666666667,0.75,13733.996309125,13734.8974545,9,13734.05804825,13734.118860875,13734.903834916,13735.647173666,1,0.901145375000851
117,15,1,categorization,0,bathroom,SHINEd_sun_afcoljnjfoxjtgja.tif,20,0.0666666666666667,0.0666666666666667,1.53333333333333,13735.65292775,13737.449981708,13,13735.714709708,13735.775554375,13737.46134175,13738.988051208,1,1.79705395800011
117,16,1,categorization,0,kitchen,SHINEd_sun_aexklacwqwezaorf.tif,84,0.0666666666666667,0.0666666666666667,1.05,13739.005289458,13740.223290208,13,13739.073429041,13739.137915375,13740.244657375,13741.288045041,0,1.21800074999919
117,17,1,categorization,0,bathroom,SHINEd_sun_ahcvzmoyaycdoftf.tif,27,0.0666666666666667,0.0666666666666667,0.9,13741.30067225,13742.548325041,13,13741.366160666,13741.431899541,13742.573755708,13743.467094333,1,1.24765279100029
117,18,1,categorization,0,bathroom,SHINEd_sun_azqyogdvyhahyram.tif,60,0.0666666666666667,0.0666666666666667,1.18333333333333,13743.472688541,13744.569489583,13,13743.534575166,13743.595336541,13744.580408541,13745.757122541,1,1.09680104200015
117,19,1,categorization,0,bathroom,SHINEd_sun_abjtwfukuwddzted.tif,15,0.0666666666666667,0.0666666666666667,0.9,13745.766344958,13746.859294083,13,13745.835459541,13745.899422,13746.890618458,13747.783958416,1,1.09294912500081
117,20,1,categorization,0,kitchen,SHINEd_sun_aamedkxepzlwuxes.tif,65,0.0666666666666667,0.0666666666666667,1.66666666666667,13747.789719958,13748.745746291,13,13747.851546125,13747.912333083,13748.764098041,13750.42413,0,0.956026333000409
117,21,1,categorization,0,kitchen,SHINEd_sun_aaxxjlsuzvqlgylf.tif,68,0.0666666666666667,0.0666666666666667,1.13333333333333,13750.443816125,13752.45749225,13,13750.510428708,13750.576413416,13752.462516291,13753.589223458,0,2.01367612499962
117,22,1,categorization,0,bathroom,SHINEd_sun_aavhrsfjbserjtht.tif,13,0.0666666666666667,0.0666666666666667,1.3,13753.598294708,13754.92500275,13,13753.66346425,13753.732460666,13754.93936425,13756.232746333,1,1.32670804200097
117,23,1,categorization,0,bathroom,SHINEd_sun_ahqjwnzgolcaoidx.tif,29,0.0666666666666667,0.0666666666666667,1.93333333333333,13756.250184208,13757.353507833,13,13756.317004375,13756.38298775,13757.372768416,13759.299489791,1,1.10332362500048
117,24,1,categorization,0,bathroom,SHINEd_sun_aapitsgbtktqubfy.tif,12,0.0666666666666667,0.0666666666666667,1,13759.311135166,13760.437047083,13,13759.377841375,13759.443771708,13760.466205125,13761.45954225,1,1.12591191699903
117,25,1,categorization,0,bathroom,SHINEd_sun_aunuadmjocsddsrl.tif,52,0.0666666666666667,0.0666666666666667,0.883333333333333,13761.464251166,13762.153411,9,13761.526003375,13761.587204791,13762.172386416,13763.049058041,0,0.689159833998929
117,26,1,categorization,0,bathroom,SHINEd_sun_aspsyogrekjtfozg.tif,50,0.0666666666666667,0.0666666666666667,1.95,13763.054811291,13764.216992875,13,13763.116615041,13763.177355291,13764.229320625,13766.172695333,1,1.16218158400079
117,27,1,categorization,0,kitchen,SHINEd_sun_agubuxuukhzyzpdp.tif,88,0.0666666666666667,0.0666666666666667,1.25,13766.189907041,13767.086824791,13,13766.255917958,13766.322577916,13767.112526291,13768.355893208,0,0.896917750000284
117,28,1,categorization,0,kitchen,SHINEd_sun_aegoxogugdkwpmpj.tif,80,0.0666666666666667,0.0666666666666667,1.95,13768.37469275,13769.243209,13,13768.44257975,13768.5076025,13769.262456791,13771.205822125,0,0.868516250000539
117,29,1,categorization,0,kitchen,SHINEd_sun_abpwyqmlzafvklqo.tif,72,0.0666666666666667,0.0666666666666667,1.91666666666667,13771.2228195,13772.099066416,13,13771.287845333,13771.355351458,13772.128079208,13774.038117583,0,0.876246915999218
117,30,1,categorization,0,bathroom,SHINEd_sun_awnqiikzaispgmwo.tif,56,0.0666666666666667,0.0666666666666667,1.41666666666667,13774.0554505,13774.954732083,13,13774.121869541,13774.187937333,13774.977749833,13776.387805708,1,0.899281583000629
117,31,1,categorization,0,bathroom,SHINEd_labelme_sfxiulhjbhlyiyt.tif,11,0.0666666666666667,0.0666666666666667,0.716666666666667,13776.405725458,13777.126419,13,13776.472108583,13776.538096416,13777.144348125,13777.854398208,1,0.720693541999935
117,32,1,categorization,0,kitchen,SHINEd_sun_ahywdevtimnqcsln.tif,94,0.0666666666666667,0.0666666666666667,1.28333333333333,13777.871026083,13778.993743041,9,13777.937474708,13778.003774,13779.005837041,13780.282536583,1,1.12271695799973
117,33,1,categorization,0,kitchen,SHINEd_sun_aunzlwrbjumxhwdj.tif,103,0.0666666666666667,0.0666666666666667,0.9,13780.300180958,13781.240729083,9,13780.367298083,13780.432526958,13781.2537665,13782.1471085,1,0.940548124999623
117,34,1,categorization,0,kitchen,SHINEd_sun_aggjlwcdjsjcaemh.tif,86,0.0666666666666667,0.0666666666666667,0.8,13782.15318725,13783.113181,9,13782.214960166,13782.275865125,13783.127930041,13783.921267666,1,0.959993750000649
117,35,1,categorization,0,kitchen,SHINEd_sun_adgqasybjyktddhj.tif,78,0.0666666666666667,0.0666666666666667,1.01666666666667,13783.926899583,13785.049563416,9,13783.988641833,13784.049669583,13785.06875775,13786.078803,1,1.12266383299902
117,36,1,categorization,0,kitchen,SHINEd_sun_axyyrmzcupyhlivc.tif,107,0.0666666666666667,0.0666666666666667,0.85,13786.093283833,13786.859510625,13,13786.158962333,13786.224418875,13786.880920875,13787.724288625,0,0.766226791998633
117,37,1,categorization,0,kitchen,SHINEd_labelme_kxvouciolcpqplr.tif,62,0.0666666666666667,0.0666666666666667,1.51666666666667,13787.741306166,13788.681042916,13,13787.808601083,13787.873921208,13788.693043416,13790.203079125,0,0.939736749998701
117,38,1,categorization,0,bathroom,SHINEd_sun_apeeialkgkuxddgh.tif,42,0.0666666666666667,0.0666666666666667,1.83333333333333,13790.219344625,13791.11443575,13,13790.286028041,13790.352283,13791.142547041,13792.969270416,1,0.895091124999453
117,39,1,categorization,0,kitchen,SHINEd_sun_amjjdeyrggfqgmom.tif,100,0.0666666666666667,0.0666666666666667,0.716666666666667,13792.985968083,13793.957664166,13,13793.052316666,13793.115567875,13793.971458083,13794.681462416,0,0.971696083001007
117,40,1,categorization,0,bathroom,SHINEd_sun_alkosphxlxwjwgjd.tif,34,0.0666666666666667,0.0666666666666667,0.9,13794.687001083,13796.225009625,13,13794.748700166,13794.809712875,13796.228785541,13797.12212375,1,1.53800854200017
117,41,1,categorization,0,bathroom,SHINEd_sun_apkxzenqapsujocq.tif,45,0.0666666666666667,0.0666666666666667,0.916666666666667,13797.127159875,13798.601305625,13,13797.189114291,13797.249736416,13798.619338458,13799.52934475,1,1.47414574999857
117,42,1,categorization,0,kitchen,SHINEd_sun_abftihopvusyfakt.tif,71,0.0666666666666667,0.0666666666666667,0.816666666666667,13799.535143625,13800.809029875,13,13799.59695325,13799.657602833,13800.826926,13801.636932041,0,1.27388624999912
117,43,1,categorization,0,kitchen,SHINEd_sun_auticobqsbwgoppi.tif,104,0.0666666666666667,0.0666666666666667,1.88333333333333,13801.642028625,13803.256730083,13,13801.703799416,13801.764768875,13803.267615916,13805.144334916,0,1.61470145800013
117,44,1,categorization,0,kitchen,SHINEd_sun_aqeaevwwwjoqhzvl.tif,101,0.0666666666666667,0.0666666666666667,0.9,13805.164645458,13806.49683325,9,13805.229143291,13805.296134208,13806.515519083,13807.408857791,1,1.33218779199888
117,45,1,categorization,0,bathroom,SHINEd_sun_ajlawzvmubibwbpy.tif,30,0.0666666666666667,0.0666666666666667,1,13807.413672583,13808.369683791,13,13807.475453125,13807.536384375,13808.388231625,13809.381570291,1,0.956011207999836
117,46,1,categorization,0,bathroom,SHINEd_sun_apkruvsevgegsdwp.tif,44,0.0666666666666667,0.0666666666666667,0.733333333333333,13809.386726333,13810.249485625,9,13809.448458125,13809.509683416,13810.261755791,13810.988427541,0,0.862759292000192
117,47,1,categorization,0,kitchen,SHINEd_sun_aehawpgmrlhlvcow.tif,81,0.0666666666666667,0.0666666666666667,0.883333333333333,13810.994116208,13811.809321083,9,13811.05567475,13811.116698583,13811.818419916,13812.695090958,1,0.815204874999836
117,48,1,categorization,0,kitchen,SHINEd_sun_aapllqyqlykszopd.tif,66,0.0666666666666667,0.0666666666666667,1.73333333333333,13812.700702208,13813.480867791,9,13812.762426958,13812.823325833,13813.491808166,13815.218527333,1,0.78016558300078
117,49,1,categorization,0,kitchen,SHINEd_sun_aypmqwcualkenuoe.tif,109,0.0666666666666667,0.0666666666666667,1.91666666666667,13815.232444958,13816.290074541,9,13815.297126916,13815.365028375,13816.304000833,13818.214043333,1,1.05762958300147
117,50,1,categorization,0,kitchen,SHINEd_sun_akcjzhbbjlbogpdi.tif,99,0.0666666666666667,0.0666666666666667,1.35,13818.22891875,13819.593092083,13,13818.295442333,13818.361496958,13819.597446416,13820.940838791,0,1.36417333300051
117,1,2,categorization,0,kitchen,SHINEd_sun_aymvwlarqodbwuoc.tif,108,0.0666666666666667,0.0666666666666667,0.95,13831.002245125,13832.376697916,13,13831.064749083,13831.1249205,13832.394064416,13833.33740225,0,1.37445279099848
117,2,2,categorization,0,kitchen,SHINEd_sun_aixorpehvfykdynp.tif,95,0.0666666666666667,0.0666666666666667,0.75,13833.342379083,13834.713170166,9,13833.404130583,13833.465307375,13834.718025083,13835.461361916,1,1.37079108299986
117,3,2,categorization,0,kitchen,SHINEd_sun_aenotlpyftoioydp.tif,82,0.0666666666666667,0.0666666666666667,1.68333333333333,13835.466624416,13836.593408583,9,13835.528566625,13835.589251541,13836.607899916,13838.284613166,1,1.12678416699964
117,4,2,categorization,0,bathroom,SHINEd_sun_aggnnqpdorgxpvce.tif,21,0.0666666666666667,0.0666666666666667,0.816666666666667,13838.30292975,13839.484190208,9,13838.36973325,13838.435362875,13839.50902325,13840.319028708,0,1.18126045800091
117,5,2,categorization,0,kitchen,SHINEd_sun_acfmftudsenhrfhy.tif,74,0.0666666666666667,0.0666666666666667,0.916666666666667,13840.325183291,13841.065480416,13,13840.387102416,13840.44813975,13841.083588708,13841.993592833,0,0.740297125001234
117,6,2,categorization,0,bathroom,SHINEd_sun_axldvoqbuvuggfmq.tif,57,0.0666666666666667,0.0666666666666667,1.21666666666667,13841.999291,13843.793278375,13,13842.0610755,13842.121921208,13843.807540791,13845.017595416,1,1.79398737500014
117,7,2,categorization,0,bathroom,SHINEd_sun_ausgutylgojavyoq.tif,53,0.0666666666666667,0.0666666666666667,0.9,13845.033639375,13846.133611291,13,13845.101970041,13845.166121291,13846.156235333,13847.04957475,1,1.09997191599905
117,8,2,categorization,0,kitchen,SHINEd_labelme_brsyyvweiuaazfr.tif,61,0.0666666666666667,0.0666666666666667,1.65,13847.05506575,13848.040974833,13,13847.116837125,13847.177870833,13848.0463065,13849.689671875,0,0.985909082999569
117,9,2,categorization,0,kitchen,SHINEd_sun_ahpczsiumwwocjkv.tif,92,0.0666666666666667,0.0666666666666667,1.15,13849.711490833,13850.723239666,9,13849.778572,13849.844101833,13850.750058125,13851.893442541,1,1.01174883299973
117,10,2,categorization,0,kitchen,SHINEd_sun_abdxkyyxwfskuaqb.tif,70,0.0666666666666667,0.0666666666666667,1.13333333333333,13851.902597958,13853.048359833,9,13851.970764833,13852.03490675,13853.075002041,13854.20172275,1,1.14576187499915
117,11,2,categorization,0,kitchen,SHINEd_sun_aadbddgrdsjugojn.tif,64,0.0666666666666667,0.0666666666666667,1.76666666666667,13854.21120325,13855.792500833,13,13854.276743583,13854.343992791,13855.820873416,13857.580923083,0,1.58129758299947
117,12,2,categorization,0,bathroom,SHINEd_sun_ahaulkltgpkeeemi.tif,26,0.0666666666666667,0.0666666666666667,1.8,13857.599054083,13858.4975715,13,13857.666191333,13857.73219325,13858.522038,13860.315405166,1,0.898517416999312
117,13,2,categorization,0,kitchen,SHINEd_labelme_rykdqxenmhulbdn.tif,63,0.0666666666666667,0.0666666666666667,0.9,13860.3344385,13861.242433125,9,13860.401436875,13860.467112,13861.254579583,13862.147918833,1,0.907994625000356
117,14,2,categorization,0,kitchen,SHINEd_sun_aeqdocilnnpuvuhx.tif,83,0.0666666666666667,0.0666666666666667,0.716666666666667,13862.153989875,13863.153229875,9,13862.215706333,13862.2768,13863.161975,13863.871979,1,0.999240000001009
117,15,2,categorization,0,bathroom,SHINEd_sun_aofnryafpsjimzsb.tif,40,0.0666666666666667,0.0666666666666667,1.36666666666667,13863.87768175,13865.080648708,13,13863.939546458,13864.0002985,13865.086020208,13866.446057083,1,1.20296695800062
117,16,2,categorization,0,bathroom,SHINEd_sun_ahijqszoswveeyji.tif,28,0.0666666666666667,0.0666666666666667,0.916666666666667,13866.4637495,13867.608220625,9,13866.53050525,13866.596605958,13867.636505666,13868.546509625,0,1.14447112499874
117,17,2,categorization,0,kitchen,SHINEd_sun_auaiucuqpdausiva.tif,102,0.0666666666666667,0.0666666666666667,0.716666666666667,13868.552091208,13869.753482541,9,13868.613818583,13868.674564583,13869.759985375,13870.469988583,1,1.20139133300108
117,18,2,categorization,0,bathroom,SHINEd_sun_agyqfjcfkdcydepw.tif,25,0.0666666666666667,0.0666666666666667,0.766666666666667,13870.475036166,13871.9052525,9,13870.536874125,13870.597680625,13871.916497041,13872.676500666,0,1.43021633399985
117,19,2,categorization,0,bathroom,SHINEd_sun_asfwthctfqerjvxr.tif,49,0.0666666666666667,0.0666666666666667,1.06666666666667,13872.681905833,13873.776908708,9,13872.743550583,13872.804471208,13873.790489875,13874.850527,0,1.09500287499941
117,20,2,categorization,0,bathroom,SHINEd_sun_apmqjbnwghzuhhzh.tif,46,0.0666666666666667,0.0666666666666667,0.8,13874.860166958,13875.72628975,13,13874.924939083,13874.9899865,13875.746454416,13876.539832208,1,0.866122792000169
117,21,2,categorization,0,kitchen,SHINEd_sun_acxkpeoqbwcxfvip.tif,77,0.0666666666666667,0.0666666666666667,0.866666666666667,13876.55646875,13878.224715541,13,13876.622622458,13876.689066833,13878.241337875,13879.101341958,0,1.66824679100137
117,22,2,categorization,0,kitchen,SHINEd_sun_acgtpgfybqjmzeyw.tif,75,0.0666666666666667,0.0666666666666667,1.48333333333333,13879.108115833,13880.193122,9,13879.169862666,13879.230676125,13880.199434291,13881.6761485,1,1.08500616700076
117,23,2,categorization,0,bathroom,SHINEd_sun_acgyywnybuveqsro.tif,18,0.0666666666666667,0.0666666666666667,1.1,13881.694974375,13882.553320208,13,13881.761741833,13881.827925208,13882.566928125,13883.66029825,1,0.858345833001295
117,24,2,categorization,0,kitchen,SHINEd_sun_aarfiyshqohlwkmo.tif,67,0.0666666666666667,0.0666666666666667,0.783333333333333,13883.670248083,13884.745165875,9,13883.734996875,13883.803009,13884.775401833,13885.552116041,1,1.07491779199881
117,25,2,categorization,0,kitchen,SHINEd_sun_admlmbcdswaszruo.tif,79,0.0666666666666667,0.0666666666666667,0.866666666666667,13885.566882708,13886.536878875,9,13885.629685708,13885.69011075,13886.542695541,13887.402700291,1,0.969996166999408
117,26,2,categorization,0,bathroom,SHINEd_sun_anryaplzeujmzfkd.tif,39,0.0666666666666667,0.0666666666666667,1.83333333333333,13887.408135166,13888.376723958,9,13887.46982875,13887.530681666,13888.382285,13890.208986625,0,0.968588791998627
117,27,2,categorization,0,kitchen,SHINEd_sun_acwjdupvyjsugpay.tif,76,0.0666666666666667,0.0666666666666667,0.7,13890.226741791,13891.106232083,9,13890.293333166,13890.359368541,13891.132655041,13891.825993041,1,0.8794902919999
117,28,2,categorization,0,kitchen,SHINEd_sun_agzzivivdpnawacl.tif,89,0.0666666666666667,0.0666666666666667,1.33333333333333,13891.831881666,13893.096922125,9,13891.893516583,13891.954651375,13893.106851125,13894.433567125,1,1.26504045900037
117,29,2,categorization,0,bathroom,SHINEd_sun_axxbkopsgyouuebh.tif,58,0.0666666666666667,0.0666666666666667,1.33333333333333,13894.448026916,13895.852074375,13,13894.514680916,13894.580706708,13895.873248125,13897.199946541,1,1.40404745900014
117,30,2,categorization,0,bathroom,SHINEd_sun_aghyqhbptboemmoq.tif,23,0.0666666666666667,0.0666666666666667,1.38333333333333,13897.213451041,13899.2804985,13,13897.277745333,13897.34662675,13899.298804208,13900.675518083,1,2.06704745900061
117,31,2,categorization,0,bathroom,SHINEd_sun_anhioqovhscjqqwb.tif,38,0.0666666666666667,0.0666666666666667,1.25,13900.693929166,13901.6938305,13,13900.760628583,13900.826924125,13901.716816791,13902.960188958,1,0.999901334000242
117,32,2,categorization,0,kitchen,SHINEd_sun_afuyedyxivkhecmu.tif,85,0.0666666666666667,0.0666666666666667,1.55,13902.977659833,13904.725889375,9,13903.044139375,13903.110215416,13904.752232,13906.295622166,1,1.74822954199954
117,33,2,categorization,0,bathroom,SHINEd_sun_axyrejkiiaqiurjk.tif,59,0.0666666666666667,0.0666666666666667,1.61666666666667,13906.31332075,13907.172540166,13,13906.380136833,13906.446048666,13907.202500416,13908.812531083,1,0.859219416000997
117,34,2,categorization,0,bathroom,SHINEd_sun_auzqhkafidnkrwmo.tif,54,0.0666666666666667,0.0666666666666667,1.33333333333333,13908.829272333,13909.678520375,9,13908.896024833,13908.962152958,13909.700811125,13911.027519958,0,0.849248042000909
117,35,2,categorization,0,kitchen,SHINEd_sun_avszsnwsbuqfgzbn.tif,105,0.0666666666666667,0.0666666666666667,0.833333333333333,13911.045274,13911.726362791,9,13911.112015166,13911.178193333,13911.751514541,13912.578235833,1,0.681088790999638
117,36,2,categorization,0,bathroom,SHINEd_sun_abapwbhyhkfixyex.tif,14,0.0666666666666667,0.0666666666666667,1.45,13912.595833083,13913.568683458,9,13912.662908291,13912.728619875,13913.580890666,13915.024259166,0,0.972850374999325
117,37,2,categorization,0,bathroom,SHINEd_sun_ambriybtogmepttm.tif,36,0.0666666666666667,0.0666666666666667,0.933333333333333,13915.042938208,13915.857914708,9,13915.1098,13915.17546075,13915.882614541,13916.80928725,0,0.81497649999983
117,38,2,categorization,0,bathroom,SHINEd_sun_agrwbmhcpmfuwmsg.tif,24,0.0666666666666667,0.0666666666666667,1.65,13916.814954791,13917.672707208,9,13916.876744291,13916.937682875,13917.689507583,13919.332878916,0,0.857752416999574
117,39,2,categorization,0,bathroom,SHINEd_sun_apjevzvycyhuqghb.tif,43,0.0666666666666667,0.0666666666666667,1.23333333333333,13919.351579708,13920.065767416,9,13919.418291833,13919.484178666,13920.090831833,13921.317555416,0,0.714187707999372
117,40,2,categorization,0,kitchen,SHINEd_sun_azmutvzbxypaceni.tif,110,0.0666666666666667,0.0666666666666667,0.766666666666667,13921.328397416,13922.364296791,9,13921.395043208,13921.460976833,13922.383923833,13923.143945166,1,1.03589937499964
117,41,2,categorization,0,kitchen,SHINEd_sun_ajcbwwvdlsvjyzje.tif,96,0.0666666666666667,0.0666666666666667,1.78333333333333,13923.151202125,13923.824529125,13,13923.213332666,13923.273861041,13923.84231425,13925.619016083,0,0.673327000000427
117,42,2,categorization,0,kitchen,SHINEd_sun_ahljzhgcdpomplvg.tif,91,0.0666666666666667,0.0666666666666667,1.11666666666667,13925.63718325,13927.6092525,13,13925.703776125,13925.769921791,13927.622340583,13928.732384375,0,1.97206924999955
117,43,2,categorization,0,bathroom,SHINEd_sun_acduarbnmmoglmiv.tif,16,0.0666666666666667,0.0666666666666667,1.85,13928.742543,13929.745139166,9,13928.807198125,13928.874839666,13929.764564708,13931.607933458,0,1.00259616599942
117,44,2,categorization,0,bathroom,SHINEd_sun_agguqiubmwhqqunb.tif,22,0.0666666666666667,0.0666666666666667,0.733333333333333,13931.626414375,13932.278071791,13,13931.693126041,13931.759100625,13932.29876375,13933.025434541,1,0.65165741599958
117,45,2,categorization,0,bathroom,SHINEd_sun_amzlamotzwfkwjco.tif,37,0.0666666666666667,0.0666666666666667,0.783333333333333,13933.031196875,13934.416584083,13,13933.092927958,13933.153828958,13934.422787583,13935.199459333,1,1.38538720799988
117,46,2,categorization,0,kitchen,SHINEd_sun_agorklincwxrdtga.tif,87,0.0666666666666667,0.0666666666666667,1.5,13935.204915458,13936.40024375,9,13935.266623333,13935.327524291,13936.413215416,13937.906584708,1,1.19532829200034
117,47,2,categorization,0,kitchen,SHINEd_sun_awcpdzzznmweyyhv.tif,106,0.0666666666666667,0.0666666666666667,0.733333333333333,13937.9283685,13939.664272666,9,13937.994978458,13938.061512958,13939.680820833,13940.407492458,1,1.73590416600018
117,48,2,categorization,0,kitchen,SHINEd_sun_akchetnepxlcxhsu.tif,98,0.0666666666666667,0.0666666666666667,1.1,13940.413034833,13941.873161666,13,13940.47481875,13940.535696875,13941.888071958,13942.9814605,0,1.46012683300069
117,49,2,categorization,0,kitchen,SHINEd_sun_abdenxonkemggwsq.tif,69,0.0666666666666667,0.0666666666666667,1.6,13942.993053958,13944.0453885,9,13943.05848325,13943.12563125,13944.065096125,13945.658483666,1,1.05233454200061
117,50,2,categorization,0,bathroom,SHINEd_sun_aoybiabnpadelefl.tif,41,0.0666666666666667,0.0666666666666667,1.06666666666667,13945.677164833,13946.694305458,13,13945.744400583,13945.810207375,13946.717245208,13947.777287375,1,1.01714062500105
117,1,3,categorization,0,kitchen,SHINEd_sun_abftihopvusyfakt.tif,71,0.0666666666666667,0.0666666666666667,0.85,13989.632796458,13990.608119333,13,13989.695281166,13989.755424958,13990.624083916,13991.467421083,0,0.97532287499962
117,2,3,categorization,0,bathroom,SHINEd_sun_abapwbhyhkfixyex.tif,14,0.0666666666666667,0.0666666666666667,1.65,13991.47468775,13992.320585666,13,13991.536483791,13991.59725,13992.332355083,13993.975730083,1,0.845897916000467
117,3,3,categorization,0,kitchen,SHINEd_sun_acwjdupvyjsugpay.tif,76,0.0666666666666667,0.0666666666666667,0.783333333333333,13993.994228583,13994.668426375,9,13994.060443125,13994.126522875,13994.682241333,13995.458911958,1,0.674197791999177
117,4,3,categorization,0,bathroom,SHINEd_sun_ahqjwnzgolcaoidx.tif,29,0.0666666666666667,0.0666666666666667,0.933333333333333,13995.464712541,13996.248451333,13,13995.526472375,13995.58738,13996.255834791,13997.182505625,1,0.783738792000804
117,5,3,categorization,0,bathroom,SHINEd_labelme_sfxiulhjbhlyiyt.tif,11,0.0666666666666667,0.0666666666666667,0.866666666666667,13997.188242,13997.920253083,13,13997.249912541,13997.310882333,13997.92931075,13998.78931475,1,0.732011083000543
117,6,3,categorization,0,bathroom,SHINEd_sun_axyrejkiiaqiurjk.tif,59,0.0666666666666667,0.0666666666666667,1.11666666666667,13998.795034916,13999.880605916,9,13998.856861333,13998.917700666,13999.886455916,14000.996491375,0,1.08557099999962
117,7,3,categorization,0,kitchen,SHINEd_sun_afuyedyxivkhecmu.tif,85,0.0666666666666667,0.0666666666666667,0.966666666666667,14001.005386,14002.049595083,13,14001.07044225,14001.138101333,14002.077480833,14003.037485125,0,1.04420908300017
117,8,3,categorization,0,bathroom,SHINEd_sun_azqyogdvyhahyram.tif,60,0.0666666666666667,0.0666666666666667,1.78333333333333,14003.0432925,14003.77691675,13,14003.105146916,14003.165962791,14003.784435166,14005.561141166,1,0.733624249998684
117,9,3,categorization,0,bathroom,SHINEd_sun_apkruvsevgegsdwp.tif,44,0.0666666666666667,0.0666666666666667,1.55,14005.57962425,14006.480151541,13,14005.646131833,14005.712849625,14006.50310225,14008.046488541,1,0.900527290999889
117,10,3,categorization,0,bathroom,SHINEd_sun_ambriybtogmepttm.tif,36,0.0666666666666667,0.0666666666666667,1.41666666666667,14008.06489775,14009.019058083,13,14008.131751916,14008.197696208,14009.03731725,14010.447366,1,0.954160332999891
117,11,3,categorization,0,bathroom,SHINEd_sun_acgyywnybuveqsro.tif,18,0.0666666666666667,0.0666666666666667,0.8,14010.465665708,14011.370935833,13,14010.532396125,14010.598842125,14011.388317583,14012.181657666,1,0.905270125000243
117,12,3,categorization,0,kitchen,SHINEd_sun_akcjzhbbjlbogpdi.tif,99,0.0666666666666667,0.0666666666666667,1.28333333333333,14012.187335166,14013.072100791,13,14012.249168416,14012.309969,14013.078467541,14014.355165958,0,0.884765625
117,13,3,categorization,0,kitchen,SHINEd_sun_aegoxogugdkwpmpj.tif,80,0.0666666666666667,0.0666666666666667,1.66666666666667,14014.373300666,14015.021144208,9,14014.440191666,14014.506033,14015.045928041,14016.705974083,1,0.647843541999464
117,14,3,categorization,0,kitchen,SHINEd_sun_aeqdocilnnpuvuhx.tif,83,0.0666666666666667,0.0666666666666667,1.81666666666667,14016.723408583,14017.819880166,9,14016.790009125,14016.856174125,14017.846475458,14019.656530125,1,1.09647158299958
117,15,3,categorization,0,kitchen,SHINEd_sun_aadbddgrdsjugojn.tif,64,0.0666666666666667,0.0666666666666667,1.35,14019.677853583,14020.437985291,9,14019.744328041,14019.810715833,14020.467030291,14021.810408541,1,0.760131708000699
117,16,3,categorization,0,kitchen,SHINEd_sun_ajkqhtgcbgpcwrwn.tif,97,0.0666666666666667,0.0666666666666667,0.916666666666667,14021.828008666,14022.616953583,9,14021.894853458,14021.960712291,14022.634021041,14023.544068,1,0.788944916999753
117,17,3,categorization,0,bathroom,SHINEd_sun_aggnnqpdorgxpvce.tif,21,0.0666666666666667,0.0666666666666667,0.916666666666667,14023.557641916,14024.343987083,9,14023.619617791,14023.680321166,14024.348910208,14025.258913666,0,0.786345167000036
117,18,3,categorization,0,bathroom,SHINEd_sun_aunuadmjocsddsrl.tif,52,0.0666666666666667,0.0666666666666667,1.31666666666667,14025.263740666,14026.064693,13,14025.325516625,14025.386343041,14026.07187025,14027.381922375,1,0.800952334000613
117,19,3,categorization,0,bathroom,SHINEd_sun_alotolagknyrgtsk.tif,35,0.0666666666666667,0.0666666666666667,1.45,14027.399481166,14028.346699208,13,14027.467492125,14027.532321291,14028.37199825,14029.815387708,1,0.947218041999804
117,20,3,categorization,0,kitchen,SHINEd_sun_acfmftudsenhrfhy.tif,74,0.0666666666666667,0.0666666666666667,0.95,14029.833215875,14030.970090583,9,14029.899864208,14029.965866458,14030.988410625,14031.931747875,1,1.1368747079996
117,21,3,categorization,0,kitchen,SHINEd_sun_aenotlpyftoioydp.tif,82,0.0666666666666667,0.0666666666666667,1.38333333333333,14031.937064625,14032.656184541,9,14031.998797166,14032.059632375,14032.661670958,14034.038380208,1,0.719119915998817
117,22,3,categorization,0,bathroom,SHINEd_sun_asfwthctfqerjvxr.tif,49,0.0666666666666667,0.0666666666666667,1.16666666666667,14034.0568045,14035.517957458,9,14034.12352275,14034.189562208,14035.55008525,14036.7101275,0,1.46115295799973
117,23,3,categorization,0,kitchen,SHINEd_sun_agzzivivdpnawacl.tif,89,0.0666666666666667,0.0666666666666667,1.61666666666667,14036.71998025,14037.956849125,9,14036.78746425,14036.852305625,14037.977803541,14039.587851541,1,1.23686887499935
117,24,3,categorization,0,kitchen,SHINEd_sun_ahpczsiumwwocjkv.tif,92,0.0666666666666667,0.0666666666666667,1.38333333333333,14039.605042166,14040.394689458,9,14039.672813125,14039.737755708,14040.409757166,14041.786465916,1,0.789647292000154
117,25,3,categorization,0,kitchen,SHINEd_sun_ahdycvpopffkzzsu.tif,90,0.0666666666666667,0.0666666666666667,1.78333333333333,14041.805898833,14042.924814666,9,14041.873908708,14041.938823916,14042.945597916,14044.72230475,1,1.11891583299985
117,26,3,categorization,0,bathroom,SHINEd_sun_aoybiabnpadelefl.tif,41,0.0666666666666667,0.0666666666666667,0.783333333333333,14044.738957833,14045.532575,13,14044.805750875,14044.871910958,14045.562116541,14046.338786875,1,0.793617166998956
117,27,3,categorization,0,bathroom,SHINEd_sun_agguqiubmwhqqunb.tif,22,0.0666666666666667,0.0666666666666667,1.65,14046.344590125,14047.104778416,13,14046.406263875,14046.467245833,14047.119007166,14048.762394458,1,0.760188291000304
117,28,3,categorization,0,bathroom,SHINEd_sun_akiytfaagpdsphgz.tif,31,0.0666666666666667,0.0666666666666667,1.86666666666667,14048.780644375,14049.833549458,13,14048.848006041,14048.913530708,14049.853128583,14051.713176333,1,1.05290508300095
117,29,3,categorization,0,bathroom,SHINEd_sun_ahaulkltgpkeeemi.tif,26,0.0666666666666667,0.0666666666666667,1.23333333333333,14051.7302445,14052.635072666,13,14051.796835833,14051.862797708,14052.652198875,14053.878913333,1,0.904828165999788
117,30,3,categorization,0,kitchen,SHINEd_sun_aapllqyqlykszopd.tif,66,0.0666666666666667,0.0666666666666667,0.7,14053.896666708,14055.6897365,13,14053.963226375,14054.029812666,14055.722986916,14056.416325916,0,1.7930697920001
117,31,3,categorization,0,kitchen,SHINEd_sun_akchetnepxlcxhsu.tif,98,0.0666666666666667,0.0666666666666667,0.716666666666667,14056.421710166,14057.2324215,13,14056.483572666,14056.544424333,14057.246159291,14057.956164916,0,0.810711334001098
117,32,3,categorization,0,bathroom,SHINEd_sun_amzlamotzwfkwjco.tif,37,0.0666666666666667,0.0666666666666667,1.05,14057.961920541,14059.120158708,9,14058.023629166,14058.084566791,14059.136483,14060.179853041,0,1.15823816699958
117,33,3,categorization,0,bathroom,SHINEd_sun_aleqenyvunhactkl.tif,32,0.0666666666666667,0.0666666666666667,1.1,14060.191935875,14062.624145083,13,14060.256882125,14060.323227416,14062.642470875,14063.735845833,1,2.43220920800013
117,34,3,categorization,0,bathroom,SHINEd_sun_aqrpegblszgcoujh.tif,48,0.0666666666666667,0.0666666666666667,1.13333333333333,14063.745111333,14064.765477,9,14063.81031775,14063.877995541,14064.785429541,14065.912125541,0,1.02036566700008
117,35,3,categorization,0,kitchen,SHINEd_sun_ajcbwwvdlsvjyzje.tif,96,0.0666666666666667,0.0666666666666667,1.38333333333333,14065.9240335,14066.733447166,13,14065.9907135,14066.057758041,14066.747148541,14068.123874916,0,0.809413666000182
117,36,3,categorization,0,bathroom,SHINEd_sun_ajlawzvmubibwbpy.tif,30,0.0666666666666667,0.0666666666666667,1.5,14068.142437791,14069.265815375,9,14068.20979175,14068.275758791,14069.280859916,14070.774234083,0,1.12337758399917
117,37,3,categorization,0,kitchen,SHINEd_sun_ahspylgoovwmwvgk.tif,93,0.0666666666666667,0.0666666666666667,1.61666666666667,14070.790622,14071.715377041,9,14070.858914333,14070.92345225,14071.729530333,14073.339562125,1,0.924755041000026
117,38,3,categorization,0,bathroom,SHINEd_sun_auzqhkafidnkrwmo.tif,54,0.0666666666666667,0.0666666666666667,0.983333333333333,14073.358162583,14074.265073291,9,14073.425250541,14073.491447791,14074.281178166,14075.257848375,0,0.906910708001305
117,39,3,categorization,0,kitchen,SHINEd_sun_ahywdevtimnqcsln.tif,94,0.0666666666666667,0.0666666666666667,1.3,14075.262971541,14076.272290875,9,14075.324771208,14075.385656791,14076.287852916,14077.581220666,1,1.00931933399988
117,40,3,categorization,0,bathroom,SHINEd_sun_acduarbnmmoglmiv.tif,16,0.0666666666666667,0.0666666666666667,1.03333333333333,14077.599883333,14078.668240166,9,14077.666919375,14077.732964333,14078.689606166,14079.716313666,0,1.06835683300051
117,41,3,categorization,0,kitchen,SHINEd_sun_abrcnpqqhmjwekyf.tif,73,0.0666666666666667,0.0666666666666667,1.45,14079.729855875,14080.99575525,9,14079.795379875,14079.860975791,14081.02146475,14082.464843041,1,1.26589937499921
117,42,3,categorization,0,kitchen,SHINEd_sun_abdxkyyxwfskuaqb.tif,70,0.0666666666666667,0.0666666666666667,1.23333333333333,14082.482892208,14083.468488833,9,14082.550127375,14082.616114833,14083.489204458,14084.715914333,1,0.985596624999744
117,43,3,categorization,0,bathroom,SHINEd_sun_agrwbmhcpmfuwmsg.tif,24,0.0666666666666667,0.0666666666666667,1.26666666666667,14084.732813333,14085.632957666,9,14084.80105275,14084.865476791,14085.655861583,14086.915895291,0,0.900144332999844
117,44,3,categorization,0,bathroom,SHINEd_sun_anhioqovhscjqqwb.tif,38,0.0666666666666667,0.0666666666666667,1.03333333333333,14086.934071375,14087.897428875,9,14087.002380708,14087.066637125,14087.923852916,14088.950563458,0,0.963357499998892
117,45,3,categorization,0,bathroom,SHINEd_sun_ausgutylgojavyoq.tif,53,0.0666666666666667,0.0666666666666667,1.31666666666667,14088.96240925,14089.714563083,13,14089.027423041,14089.093654708,14089.733100166,14091.043140208,1,0.752153833000193
117,46,3,categorization,0,kitchen,SHINEd_labelme_brsyyvweiuaazfr.tif,61,0.0666666666666667,0.0666666666666667,1.7,14091.051141208,14091.824133416,9,14091.112934333,14091.1738,14091.842329291,14093.535697,1,0.772992207999778
117,47,3,categorization,0,kitchen,SHINEd_sun_aamedkxepzlwuxes.tif,65,0.0666666666666667,0.0666666666666667,1.35,14093.551092125,14094.288712583,9,14093.618089833,14093.683722083,14094.306385291,14095.649761458,1,0.737620457999583
117,48,3,categorization,0,kitchen,SHINEd_sun_ahljzhgcdpomplvg.tif,91,0.0666666666666667,0.0666666666666667,0.8,14095.664908375,14096.512432291,13,14095.731666666,14095.79752,14096.537782541,14097.331153958,0,0.847523915999773
117,49,3,categorization,0,bathroom,SHINEd_sun_apynckhmoftszqoq.tif,47,0.0666666666666667,0.0666666666666667,0.766666666666667,14097.341068708,14098.5677775,13,14097.403043958,14097.463784708,14098.582686458,14099.342689583,1,1.22670879200086
117,50,3,categorization,0,bathroom,SHINEd_sun_abjtwfukuwddzted.tif,15,0.0666666666666667,0.0666666666666667,1.38333333333333,14099.347257125,14100.872088375,13,14099.408961333,14099.469922625,14100.888841583,14102.265560833,1,1.5248312499989
117,1,4,categorization,0,bathroom,SHINEd_sun_avhrdrntsqrjzccq.tif,55,0.0666666666666667,0.0666666666666667,1,14116.046937791,14116.975960583,13,14116.109543208,14116.169700541,14116.988356541,14117.981694666,1,0.929022792000978
117,2,4,categorization,0,kitchen,SHINEd_sun_auticobqsbwgoppi.tif,104,0.0666666666666667,0.0666666666666667,0.966666666666667,14117.987563333,14118.775993875,13,14118.049382166,14118.110300083,14118.795511375,14119.755517,0,0.788430542001151
117,3,4,categorization,0,bathroom,SHINEd_sun_alkosphxlxwjwgjd.tif,34,0.0666666666666667,0.0666666666666667,1.75,14119.761312541,14120.743736458,13,14119.823085875,14119.884031375,14120.752657125,14122.496035125,1,0.982423916999323
117,4,4,categorization,0,kitchen,SHINEd_sun_auaiucuqpdausiva.tif,102,0.0666666666666667,0.0666666666666667,1.68333333333333,14122.514687083,14123.247419083,13,14122.581912666,14122.647947416,14123.27038375,14124.947091375,0,0.732732000000397
117,5,4,categorization,0,bathroom,SHINEd_sun_aghyqhbptboemmoq.tif,23,0.0666666666666667,0.0666666666666667,1.58333333333333,14124.96553675,14125.655553333,13,14125.033631708,14125.09853875,14125.671854375,14127.248547125,1,0.690016582999306
117,6,4,categorization,0,bathroom,SHINEd_sun_agyqfjcfkdcydepw.tif,25,0.0666666666666667,0.0666666666666667,1,14127.260378208,14127.891880833,13,14127.327355833,14127.39354875,14127.917856375,14128.911196666,1,0.631502624999484
117,7,4,categorization,0,kitchen,SHINEd_sun_awcpdzzznmweyyhv.tif,106,0.0666666666666667,0.0666666666666667,1.33333333333333,14128.917243291,14129.54448025,9,14128.978954333,14129.039856583,14129.558353083,14130.885059541,1,0.627236959000584
117,8,4,categorization,0,bathroom,SHINEd_sun_ahijqszoswveeyji.tif,28,0.0666666666666667,0.0666666666666667,1.26666666666667,14130.903128666,14131.75770075,9,14130.969941333,14131.035851375,14131.774538291,14133.034589208,0,0.85457208400112
117,9,4,categorization,0,kitchen,SHINEd_sun_abpwyqmlzafvklqo.tif,72,0.0666666666666667,0.0666666666666667,0.883333333333333,14133.054194625,14133.746286583,9,14133.120837875,14133.186381541,14133.7763685,14134.653087791,1,0.692091958000674
117,10,4,categorization,0,kitchen,SHINEd_sun_aarfiyshqohlwkmo.tif,67,0.0666666666666667,0.0666666666666667,1.26666666666667,14134.669633958,14135.327995833,9,14134.736179416,14134.802257166,14135.337382583,14136.597413375,1,0.658361875000992
117,11,4,categorization,0,kitchen,SHINEd_sun_admlmbcdswaszruo.tif,79,0.0666666666666667,0.0666666666666667,2,14136.615634833,14137.41037225,9,14136.682141833,14136.747916083,14137.437612916,14139.430984708,1,0.794737416999851
117,12,4,categorization,0,bathroom,SHINEd_sun_awnqiikzaispgmwo.tif,56,0.0666666666666667,0.0666666666666667,0.733333333333333,14139.4497115,14140.474338,13,14139.516565708,14139.582300583,14140.487989666,14141.214661625,1,1.02462650000052
117,13,4,categorization,0,kitchen,SHINEd_sun_azmutvzbxypaceni.tif,110,0.0666666666666667,0.0666666666666667,0.883333333333333,14141.220428375,14141.95228175,9,14141.282273,14141.343039541,14141.961572208,14142.838243041,1,0.731853375000355
117,14,4,categorization,0,kitchen,SHINEd_sun_aehawpgmrlhlvcow.tif,81,0.0666666666666667,0.0666666666666667,0.983333333333333,14142.843957291,14143.59223575,9,14142.905940333,14142.966781541,14143.601810625,14144.578480666,1,0.748278459001085
117,15,4,categorization,0,bathroom,SHINEd_sun_aapitsgbtktqubfy.tif,12,0.0666666666666667,0.0666666666666667,1.56666666666667,14144.583970541,14145.351507083,13,14144.645629458,14144.706653541,14145.358398916,14146.918446,1,0.767536542000016
117,16,4,categorization,0,bathroom,SHINEd_sun_aclfzgynxzxlbepz.tif,19,0.0666666666666667,0.0666666666666667,1.08333333333333,14146.93436725,14147.715167666,13,14147.001273041,14147.0668285,14147.739937458,14148.816656333,1,0.780800415999693
117,17,4,categorization,0,kitchen,SHINEd_sun_aunzlwrbjumxhwdj.tif,103,0.0666666666666667,0.0666666666666667,0.75,14148.829284625,14149.539019833,9,14148.894340125,14148.960598625,14149.566957958,14150.310345416,1,0.709735207999984
117,18,4,categorization,0,bathroom,SHINEd_sun_apkxzenqapsujocq.tif,45,0.0666666666666667,0.0666666666666667,0.966666666666667,14150.325853375,14151.05604825,13,14150.392103541,14150.458293458,14151.060822083,14152.0208285,1,0.730194875000961
117,19,4,categorization,0,kitchen,SHINEd_labelme_kxvouciolcpqplr.tif,62,0.0666666666666667,0.0666666666666667,1.63333333333333,14152.026538416,14152.823441833,13,14152.088227041,14152.149231333,14152.834340166,14154.461058,0,0.796903417000067
117,20,4,categorization,0,kitchen,SHINEd_sun_aexklacwqwezaorf.tif,84,0.0666666666666667,0.0666666666666667,1.46666666666667,14154.478113416,14155.377979583,9,14154.545028833,14154.610763333,14155.400899125,14156.860940666,1,0.899866166999345
117,21,4,categorization,0,kitchen,SHINEd_sun_amjjdeyrggfqgmom.tif,100,0.0666666666666667,0.0666666666666667,0.933333333333333,14156.878077416,14157.5777815,9,14156.944791958,14157.010869458,14157.600840416,14158.527559208,1,0.699704083999677
117,22,4,categorization,0,bathroom,SHINEd_sun_aofnryafpsjimzsb.tif,40,0.0666666666666667,0.0666666666666667,1.45,14158.534704083,14159.351767458,9,14158.596522375,14158.657462666,14159.359265041,14160.802643166,0,0.817063374999634
117,23,4,categorization,0,kitchen,SHINEd_sun_aymvwlarqodbwuoc.tif,108,0.0666666666666667,0.0666666666666667,0.966666666666667,14160.819351958,14161.519701208,9,14160.885801541,14160.951755625,14161.541512583,14162.501519166,1,0.700349250000727
117,24,4,categorization,0,bathroom,SHINEd_sun_aljolscmmzydegqp.tif,33,0.0666666666666667,0.0666666666666667,0.816666666666667,14162.507269583,14163.271465916,9,14162.568947666,14162.629905875,14163.281836166,14164.091840083,0,0.764196332998836
117,25,4,categorization,0,bathroom,SHINEd_sun_apjevzvycyhuqghb.tif,43,0.0666666666666667,0.0666666666666667,1.96666666666667,14164.09736075,14165.6396355,9,14164.159028583,14164.219984916,14165.655466791,14167.615520541,0,1.54227474999971
117,26,4,categorization,0,bathroom,SHINEd_sun_aspsyogrekjtfozg.tif,50,0.0666666666666667,0.0666666666666667,0.916666666666667,14167.632367958,14168.269329458,13,14167.700526083,14167.764834916,14168.2873655,14169.19737125,1,0.636961500000325
117,27,4,categorization,0,kitchen,SHINEd_sun_aixorpehvfykdynp.tif,95,0.0666666666666667,0.0666666666666667,1.28333333333333,14169.203205416,14169.959699333,13,14169.264928541,14169.325836625,14169.97767475,14171.254390583,0,0.756493916998807
117,28,4,categorization,0,kitchen,SHINEd_sun_avszsnwsbuqfgzbn.tif,105,0.0666666666666667,0.0666666666666667,1.8,14171.26373875,14172.069536958,13,14171.330439333,14171.396063416,14172.085175333,14173.878541458,0,0.805798208000851
117,29,4,categorization,0,kitchen,SHINEd_sun_agubuxuukhzyzpdp.tif,88,0.0666666666666667,0.0666666666666667,1.33333333333333,14173.896357041,14174.908489208,13,14173.962662916,14174.028904625,14174.935644125,14176.262357416,0,1.01213216700125
117,30,4,categorization,0,kitchen,SHINEd_sun_acgtpgfybqjmzeyw.tif,75,0.0666666666666667,0.0666666666666667,1.06666666666667,14176.279275625,14176.94930225,9,14176.345975,14176.412063208,14176.967895208,14178.027951375,1,0.670026624999082
117,31,4,categorization,0,bathroom,SHINEd_sun_aavhrsfjbserjtht.tif,13,0.0666666666666667,0.0666666666666667,1.03333333333333,14178.040269041,14178.727834166,9,14178.10295125,14178.162976333,14178.731468666,14179.758189375,0,0.687565125001129
117,32,4,categorization,0,bathroom,SHINEd_sun_acegryoqftbzowsg.tif,17,0.0666666666666667,0.0666666666666667,0.733333333333333,14179.772145625,14180.618237125,13,14179.837202791,14179.903584625,14180.643932208,14181.370630916,1,0.846091499999602
117,33,4,categorization,0,kitchen,SHINEd_sun_aqeaevwwwjoqhzvl.tif,101,0.0666666666666667,0.0666666666666667,0.766666666666667,14181.388014708,14183.303690875,9,14181.45435825,14181.520961958,14183.323319041,14184.083324291,1,1.91567616700013
117,34,4,categorization,0,bathroom,SHINEd_sun_apmqjbnwghzuhhzh.tif,46,0.0666666666666667,0.0666666666666667,1.1,14184.090106458,14184.807691083,13,14184.1520135,14184.212716875,14184.814542333,14185.907912083,1,0.717584625001109
117,35,4,categorization,0,kitchen,SHINEd_sun_aaxxjlsuzvqlgylf.tif,68,0.0666666666666667,0.0666666666666667,1.81666666666667,14185.917420041,14186.924860333,9,14185.982291708,14186.050073875,14186.939364791,14188.749396291,1,1.00744029199996
117,36,4,categorization,0,kitchen,SHINEd_sun_abdenxonkemggwsq.tif,69,0.0666666666666667,0.0666666666666667,0.883333333333333,14188.766988208,14189.552436708,9,14188.833455958,14188.899452416,14189.572482666,14190.449154416,1,0.785448499998893
117,37,4,categorization,0,kitchen,SHINEd_sun_aggjlwcdjsjcaemh.tif,86,0.0666666666666667,0.0666666666666667,1.7,14190.457103625,14191.855967166,9,14190.518880833,14190.579671166,14191.865808416,14193.559188791,1,1.39886354100054
117,38,4,categorization,0,bathroom,SHINEd_sun_ahcvzmoyaycdoftf.tif,27,0.0666666666666667,0.0666666666666667,1.58333333333333,14193.577278125,14194.0848115,13,14193.643861208,14193.710104333,14194.099178625,14195.675878708,1,0.507533375001003
117,39,4,categorization,0,bathroom,SHINEd_sun_apeeialkgkuxddgh.tif,42,0.0666666666666667,0.0666666666666667,0.833333333333333,14195.6935525,14196.42753725,13,14195.760185208,14195.825916291,14196.449171458,14197.275842,1,0.733984749998854
117,40,4,categorization,0,kitchen,SHINEd_sun_agorklincwxrdtga.tif,87,0.0666666666666667,0.0666666666666667,0.95,14197.280798,14198.103688125,13,14197.342607041,14197.403710958,14198.122182083,14199.06551875,0,0.822890125000413
117,41,4,categorization,0,kitchen,SHINEd_sun_adgqasybjyktddhj.tif,78,0.0666666666666667,0.0666666666666667,1.06666666666667,14199.071204833,14200.135692041,9,14199.132991208,14199.193941958,14200.145774291,14201.205818,1,1.06448720799926
117,42,4,categorization,0,bathroom,SHINEd_sun_atstyziqcmkahyxk.tif,51,0.0666666666666667,0.0666666666666667,1.68333333333333,14201.215370916,14202.216427416,13,14201.279972,14201.346496958,14202.236009875,14203.912726083,1,1.00105650000114
117,43,4,categorization,0,kitchen,SHINEd_labelme_rykdqxenmhulbdn.tif,63,0.0666666666666667,0.0666666666666667,1.31666666666667,14203.930442416,14204.778067,9,14203.997239791,14204.06278975,14204.802670083,14206.112709958,1,0.847624583999277
117,44,4,categorization,0,bathroom,SHINEd_sun_anryaplzeujmzfkd.tif,39,0.0666666666666667,0.0666666666666667,1.61666666666667,14206.130122208,14206.839239791,13,14206.198145,14206.262832791,14206.869179166,14208.479209,1,0.70911758299917
117,45,4,categorization,0,kitchen,SHINEd_sun_acxkpeoqbwcxfvip.tif,77,0.0666666666666667,0.0666666666666667,1.15,14208.496904458,14209.588917583,9,14208.563499291,14208.629418875,14209.619247958,14210.76261275,1,1.09201312500045
117,46,4,categorization,0,kitchen,SHINEd_sun_axyyrmzcupyhlivc.tif,107,0.0666666666666667,0.0666666666666667,1.25,14210.774535916,14211.471275875,13,14210.841054375,14210.906855916,14211.497029916,14212.740412833,0,0.696739958999387
117,47,4,categorization,0,bathroom,SHINEd_sun_axxbkopsgyouuebh.tif,58,0.0666666666666667,0.0666666666666667,1.1,14212.753163791,14218.771501125,13,14212.819651541,14212.885632708,14218.789309291,14219.882674291,1,6.01833733400053
117,48,4,categorization,0,bathroom,SHINEd_sun_axldvoqbuvuggfmq.tif,57,0.0666666666666667,0.0666666666666667,0.9,14219.89116975,14220.931252,9,14219.956746791,14220.023995625,14220.946712041,14221.840077,0,1.04008224999961
117,49,4,categorization,0,kitchen,SHINEd_sun_aypmqwcualkenuoe.tif,109,0.0666666666666667,0.0666666666666667,1.3,14221.8497105,14222.615387375,9,14221.912225416,14221.972351958,14222.624160666,14223.917544833,1,0.765676875000281
117,50,4,categorization,0,bathroom,SHINEd_sun_afcoljnjfoxjtgja.tif,20,0.0666666666666667,0.0666666666666667,1.25,14223.935594666,14224.621019541,13,14224.0021695,14224.068192125,14224.641090833,14225.884465833,1,0.685424875000535
117,1,5,categorization,0,kitchen,SHINEd_sun_afuyedyxivkhecmu.tif,85,0.0666666666666667,0.0666666666666667,1.7,14235.594965625,14236.391484166,9,14235.657585625,14235.717578041,14236.402753,14238.096125375,1,0.796518541001205
117,2,5,categorization,0,bathroom,SHINEd_sun_aofnryafpsjimzsb.tif,40,0.0666666666666667,0.0666666666666667,1.81666666666667,14238.115691125,14238.784568541,9,14238.182462458,14238.248491833,14238.805446708,14240.615497666,0,0.668877415999305
117,3,5,categorization,0,bathroom,SHINEd_sun_aleqenyvunhactkl.tif,32,0.0666666666666667,0.0666666666666667,1.23333333333333,14240.634002083,14241.291272458,9,14240.700710166,14240.766555208,14241.304212083,14242.530928416,0,0.657270375000735
117,4,5,categorization,0,kitchen,SHINEd_sun_ajcbwwvdlsvjyzje.tif,96,0.0666666666666667,0.0666666666666667,1.4,14242.549827583,14243.51427125,13,14242.616570083,14242.682110666,14243.538652,14244.932037708,0,0.964443667000523
117,5,5,categorization,0,bathroom,SHINEd_sun_agyqfjcfkdcydepw.tif,25,0.0666666666666667,0.0666666666666667,1.03333333333333,14244.951316375,14245.577851375,9,14245.018237583,14245.083927166,14245.607228708,14246.633933541,0,0.626534999999421
117,6,5,categorization,0,bathroom,SHINEd_sun_ahijqszoswveeyji.tif,28,0.0666666666666667,0.0666666666666667,1.38333333333333,14246.643442583,14247.514481958,9,14246.708278583,14246.776381625,14247.532562916,14248.90927075,0,0.871039375000692
117,7,5,categorization,0,bathroom,SHINEd_sun_acegryoqftbzowsg.tif,17,0.0666666666666667,0.0666666666666667,2,14248.926179208,14249.717350666,13,14248.992977083,14249.058806583,14249.73119675,14251.724564083,1,0.791171458000463
117,8,5,categorization,0,bathroom,SHINEd_sun_agrwbmhcpmfuwmsg.tif,24,0.0666666666666667,0.0666666666666667,1.85,14251.74337725,14252.370303,13,14251.810162625,14251.876636375,14252.399896333,14254.243285916,1,0.626925749998918
117,9,5,categorization,0,bathroom,SHINEd_sun_acduarbnmmoglmiv.tif,16,0.0666666666666667,0.0666666666666667,0.816666666666667,14254.258771333,14255.095311541,13,14254.32558375,14254.391471708,14255.114601708,14255.924607666,1,0.83654020799986
117,10,5,categorization,0,bathroom,SHINEd_sun_aqrpegblszgcoujh.tif,48,0.0666666666666667,0.0666666666666667,1.85,14255.930534041,14256.807389041,9,14255.992200416,14256.053269333,14256.821896916,14258.665275833,0,0.876855000000432
117,11,5,categorization,0,bathroom,SHINEd_sun_aapitsgbtktqubfy.tif,12,0.0666666666666667,0.0666666666666667,0.733333333333333,14258.683080083,14259.663040333,13,14258.749482291,14258.815670541,14259.689201541,14260.415874833,1,0.979960250000659
117,12,5,categorization,0,kitchen,SHINEd_sun_auaiucuqpdausiva.tif,102,0.0666666666666667,0.0666666666666667,0.716666666666667,14260.423285875,14261.335789083,9,14260.48497125,14260.54599775,14261.347770958,14262.057776083,1,0.91250320799918
117,13,5,categorization,0,bathroom,SHINEd_labelme_sfxiulhjbhlyiyt.tif,11,0.0666666666666667,0.0666666666666667,0.833333333333333,14262.063552541,14262.855616791,13,14262.125331625,14262.186104958,14262.871225666,14263.697896333,1,0.792064249999385
117,14,5,categorization,0,kitchen,SHINEd_sun_aypmqwcualkenuoe.tif,109,0.0666666666666667,0.0666666666666667,0.95,14263.703506375,14264.518940666,13,14263.765200083,14263.826215375,14264.528203041,14265.471540708,0,0.815434290998382
117,15,5,categorization,0,kitchen,SHINEd_sun_ahdycvpopffkzzsu.tif,90,0.0666666666666667,0.0666666666666667,1.96666666666667,14265.476594958,14266.183174625,13,14265.53840725,14265.59912175,14266.200919208,14268.160955166,0,0.706579667001279
117,16,5,categorization,0,bathroom,SHINEd_sun_ahaulkltgpkeeemi.tif,26,0.0666666666666667,0.0666666666666667,1.86666666666667,14268.179306083,14268.952742375,13,14268.245788958,14268.311804125,14268.967670791,14270.827707416,1,0.773436292000042
117,17,5,categorization,0,bathroom,SHINEd_sun_afcoljnjfoxjtgja.tif,20,0.0666666666666667,0.0666666666666667,1.51666666666667,14270.846423625,14271.324056791,9,14270.913233583,14270.979306833,14271.352968416,14272.86302475,0,0.477633165999578
117,18,5,categorization,0,bathroom,SHINEd_sun_atstyziqcmkahyxk.tif,51,0.0666666666666667,0.0666666666666667,1.3,14272.881402583,14273.864036708,13,14272.948324166,14273.014293541,14273.887895708,14275.18127625,1,0.982634125000914
117,19,5,categorization,0,bathroom,SHINEd_sun_agguqiubmwhqqunb.tif,22,0.0666666666666667,0.0666666666666667,1.91666666666667,14275.199102166,14275.826931833,13,14275.2637185,14275.327896708,14275.851506708,14277.761552833,1,0.627829667000697
117,20,5,categorization,0,bathroom,SHINEd_sun_aavhrsfjbserjtht.tif,13,0.0666666666666667,0.0666666666666667,1.23333333333333,14277.779303458,14278.492528083,13,14277.846372625,14277.912444416,14278.519195958,14279.745903291,1,0.713224624998475
117,21,5,categorization,0,bathroom,SHINEd_sun_anhioqovhscjqqwb.tif,38,0.0666666666666667,0.0666666666666667,0.866666666666667,14279.759675041,14280.346739416,9,14279.826571083,14279.892575541,14280.3659575,14281.225972,0,0.587064375000409
117,22,5,categorization,0,kitchen,SHINEd_sun_axyyrmzcupyhlivc.tif,107,0.0666666666666667,0.0666666666666667,0.8,14281.234657375,14282.462803916,13,14281.300027125,14281.36767775,14282.469928708,14283.2632675,0,1.22814654099966
117,23,5,categorization,0,bathroom,SHINEd_sun_axyrejkiiaqiurjk.tif,59,0.0666666666666667,0.0666666666666667,1.51666666666667,14283.267937083,14284.111139166,13,14283.329600875,14283.39063825,14284.125843416,14285.635900708,1,0.843202083000506
117,24,5,categorization,0,kitchen,SHINEd_sun_aegoxogugdkwpmpj.tif,80,0.0666666666666667,0.0666666666666667,1.18333333333333,14285.65425525,14286.306653833,13,14285.720422083,14285.787222791,14286.326791083,14287.503497291,0,0.652398583000831
117,25,5,categorization,0,kitchen,SHINEd_sun_aehawpgmrlhlvcow.tif,81,0.0666666666666667,0.0666666666666667,1.6,14287.514443041,14288.271488416,9,14287.581091041,14287.647375791,14288.28630625,14289.879683333,1,0.757045374999507
117,26,5,categorization,0,kitchen,SHINEd_sun_auticobqsbwgoppi.tif,104,0.0666666666666667,0.0666666666666667,1.56666666666667,14289.897619,14290.93056775,9,14289.964454416,14290.030415291,14290.953943833,14292.514001291,1,1.03294875000029
117,27,5,categorization,0,kitchen,SHINEd_sun_aapllqyqlykszopd.tif,66,0.0666666666666667,0.0666666666666667,1.36666666666667,14292.532034791,14293.218277958,9,14292.59874125,14292.664833458,14293.236961166,14294.597015375,1,0.686243166999702
117,28,5,categorization,0,bathroom,SHINEd_sun_ajlawzvmubibwbpy.tif,30,0.0666666666666667,0.0666666666666667,1.53333333333333,14294.613333,14295.710705041,9,14294.68000775,14294.746115041,14295.736211166,14297.262922458,0,1.0973720410002
117,29,5,categorization,0,kitchen,SHINEd_sun_abdxkyyxwfskuaqb.tif,70,0.0666666666666667,0.0666666666666667,1.4,14297.273497416,14299.0150845,9,14297.340437416,14297.406500375,14299.026048958,14300.419441083,1,1.74158708400137
117,30,5,categorization,0,kitchen,SHINEd_sun_awcpdzzznmweyyhv.tif,106,0.0666666666666667,0.0666666666666667,1.06666666666667,14300.43845675,14301.336588833,9,14300.505545291,14300.571690541,14301.362062708,14302.422105958,1,0.898132083000746
117,31,5,categorization,0,kitchen,SHINEd_sun_aexklacwqwezaorf.tif,84,0.0666666666666667,0.0666666666666667,1.63333333333333,14302.432740208,14303.254584875,9,14302.497365916,14302.563366625,14303.267867958,14304.894588208,1,0.821844666999823
117,32,5,categorization,0,kitchen,SHINEd_sun_aadbddgrdsjugojn.tif,64,0.0666666666666667,0.0666666666666667,1.8,14304.91276425,14305.736925833,9,14304.979679,14305.047127583,14305.753229583,14307.546603375,1,0.824161582999295
117,33,5,categorization,0,kitchen,SHINEd_sun_agzzivivdpnawacl.tif,89,0.0666666666666667,0.0666666666666667,1.53333333333333,14307.56189275,14308.682729125,9,14307.628934791,14307.694771208,14308.701267125,14310.227993625,1,1.12083637499927
117,34,5,categorization,0,kitchen,SHINEd_sun_aunzlwrbjumxhwdj.tif,103,0.0666666666666667,0.0666666666666667,0.766666666666667,14310.244648875,14310.963737125,9,14310.311670291,14310.377968833,14310.98469425,14311.744749625,1,0.719088249999913
117,35,5,categorization,0,kitchen,SHINEd_sun_agorklincwxrdtga.tif,87,0.0666666666666667,0.0666666666666667,1.86666666666667,14311.753264708,14312.478902041,13,14311.815208291,14311.8759925,14312.494524708,14314.354571666,0,0.725637333000122
117,36,5,categorization,0,bathroom,SHINEd_sun_aspsyogrekjtfozg.tif,50,0.0666666666666667,0.0666666666666667,1.13333333333333,14314.374423333,14315.319967625,9,14314.441193833,14314.507342166,14315.347427166,14316.47412825,0,0.945544292000704
117,37,5,categorization,0,kitchen,SHINEd_sun_ahspylgoovwmwvgk.tif,93,0.0666666666666667,0.0666666666666667,1.73333333333333,14316.484176875,14317.627039958,9,14316.549094875,14316.617101458,14317.659910416,14319.386624625,1,1.14286308300143
117,38,5,categorization,0,kitchen,SHINEd_sun_aenotlpyftoioydp.tif,82,0.0666666666666667,0.0666666666666667,0.766666666666667,14319.403676791,14320.110540041,9,14319.471362958,14319.536452375,14320.12535325,14320.885357125,1,0.706863249999515
117,39,5,categorization,0,bathroom,SHINEd_sun_apeeialkgkuxddgh.tif,42,0.0666666666666667,0.0666666666666667,1.85,14320.89092425,14321.911392625,13,14320.952642166,14321.013628,14321.915789958,14323.759155333,1,1.02046837499984
117,40,5,categorization,0,bathroom,SHINEd_sun_akiytfaagpdsphgz.tif,31,0.0666666666666667,0.0666666666666667,0.966666666666667,14323.777922625,14324.676377041,13,14323.844356166,14323.910798041,14324.700040875,14325.660046041,1,0.898454415999367
117,41,5,categorization,0,kitchen,SHINEd_sun_adgqasybjyktddhj.tif,78,0.0666666666666667,0.0666666666666667,1.06666666666667,14325.665676416,14326.590780458,9,14325.727398333,14325.788339625,14326.607396416,14327.667432083,1,0.925104042000385
117,42,5,categorization,0,kitchen,SHINEd_sun_aggjlwcdjsjcaemh.tif,86,0.0666666666666667,0.0666666666666667,1.38333333333333,14327.67870125,14328.370056208,13,14327.743322708,14327.810163208,14328.399868291,14329.776577541,0,0.691354957998556
117,43,5,categorization,0,bathroom,SHINEd_sun_ausgutylgojavyoq.tif,53,0.0666666666666667,0.0666666666666667,0.766666666666667,14329.7937115,14330.665351125,13,14329.85968125,14329.926874416,14330.682981375,14331.443025666,1,0.871639625000171
117,44,5,categorization,0,kitchen,SHINEd_sun_aixorpehvfykdynp.tif,95,0.0666666666666667,0.0666666666666667,0.866666666666667,14331.459225625,14332.582768458,13,14331.526009958,14331.592209375,14332.594618416,14333.454622625,0,1.1235428330001
117,45,5,categorization,0,kitchen,SHINEd_sun_acgtpgfybqjmzeyw.tif,75,0.0666666666666667,0.0666666666666667,1.25,14333.459519333,14335.214987125,9,14333.521255666,14333.582226541,14335.234448208,14336.477823041,1,1.75546779199976
117,46,5,categorization,0,kitchen,SHINEd_sun_abdenxonkemggwsq.tif,69,0.0666666666666667,0.0666666666666667,1.03333333333333,14336.492928291,14337.297357416,13,14336.559827416,14336.625639875,14337.315076708,14338.34175475,0,0.804429125000752
117,47,5,categorization,0,kitchen,SHINEd_sun_acxkpeoqbwcxfvip.tif,77,0.0666666666666667,0.0666666666666667,0.783333333333333,14338.347713,14339.087588708,9,14338.409434666,14338.470384833,14339.105740083,14339.882411166,1,0.739875708000909
117,48,5,categorization,0,kitchen,SHINEd_sun_acwjdupvyjsugpay.tif,76,0.0666666666666667,0.0666666666666667,0.7,14339.888893583,14340.671635291,9,14339.950581,14340.011560083,14340.679934583,14341.373273041,1,0.782741708000685
117,49,5,categorization,0,bathroom,SHINEd_sun_aljolscmmzydegqp.tif,33,0.0666666666666667,0.0666666666666667,1.75,14341.378186208,14342.031435291,13,14341.439754,14341.500876708,14342.036040625,14343.779419291,1,0.653249083001356
117,50,5,categorization,0,bathroom,SHINEd_sun_apkxzenqapsujocq.tif,45,0.0666666666666667,0.0666666666666667,1.36666666666667,14343.79640375,14344.492355041,13,14343.863272708,14343.929677791,14344.519723541,14345.879772,1,0.695951290999801
117,1,6,categorization,0,bathroom,SHINEd_sun_avhrdrntsqrjzccq.tif,55,0.0666666666666667,0.0666666666666667,0.966666666666667,14360.808293333,14361.678976958,13,14360.870912416,14360.931027041,14361.683251583,14362.643257041,1,0.870683624998492
117,2,6,categorization,0,bathroom,SHINEd_sun_alotolagknyrgtsk.tif,35,0.0666666666666667,0.0666666666666667,1.73333333333333,14362.649129208,14363.182861375,13,14362.71075625,14362.771953458,14363.190405375,14364.917127666,1,0.533732166999471
117,3,6,categorization,0,bathroom,SHINEd_sun_awnqiikzaispgmwo.tif,56,0.0666666666666667,0.0666666666666667,1.91666666666667,14364.935853958,14365.474843458,13,14365.002339458,14365.068595208,14365.491320958,14367.401373291,1,0.538989499998934
117,4,6,categorization,0,kitchen,SHINEd_sun_ahpczsiumwwocjkv.tif,92,0.0666666666666667,0.0666666666666667,0.766666666666667,14367.4164985,14368.099635333,13,14367.483257708,14367.549388708,14368.122507125,14368.8825125,0,0.683136832998571
117,5,6,categorization,0,kitchen,SHINEd_sun_amjjdeyrggfqgmom.tif,100,0.0666666666666667,0.0666666666666667,0.916666666666667,14368.889270333,14369.559506333,9,14368.950937,14369.0120885,14369.563881,14370.473884458,1,0.670235999999932
117,6,6,categorization,0,bathroom,SHINEd_sun_amzlamotzwfkwjco.tif,37,0.0666666666666667,0.0666666666666667,1.18333333333333,14370.479324083,14371.142605416,13,14370.54107,14370.602080416,14371.153835958,14372.330532458,1,0.663281332999759
117,7,6,categorization,0,bathroom,SHINEd_sun_aoybiabnpadelefl.tif,41,0.0666666666666667,0.0666666666666667,1.8,14372.3420345,14373.007669041,13,14372.408705,14372.474995333,14373.031454416,14374.824826291,1,0.665634541001054
117,8,6,categorization,0,bathroom,SHINEd_sun_apmqjbnwghzuhhzh.tif,46,0.0666666666666667,0.0666666666666667,0.883333333333333,14374.842535666,14375.454950375,13,14374.908880291,14374.97579875,14375.482440708,14376.359111791,1,0.612414709001314
117,9,6,categorization,0,kitchen,SHINEd_sun_aaxxjlsuzvqlgylf.tif,68,0.0666666666666667,0.0666666666666667,1.83333333333333,14376.3648205,14376.998969791,13,14376.426453583,14376.48756125,14377.005999625,14378.832704291,0,0.63414929099963
117,10,6,categorization,0,bathroom,SHINEd_sun_ahqjwnzgolcaoidx.tif,29,0.0666666666666667,0.0666666666666667,1.76666666666667,14378.847577875,14379.446475833,13,14378.914254833,14378.98054275,14379.470435875,14381.230487333,1,0.598897957999725
117,11,6,categorization,0,kitchen,SHINEd_sun_admlmbcdswaszruo.tif,79,0.0666666666666667,0.0666666666666667,0.983333333333333,14381.2400055,14381.83468925,9,14381.304594166,14381.372970458,14381.8627235,14382.839395375,1,0.594683749999604
117,12,6,categorization,0,kitchen,SHINEd_sun_acfmftudsenhrfhy.tif,74,0.0666666666666667,0.0666666666666667,0.883333333333333,14382.845211958,14383.83095975,9,14382.906884208,14382.967928916,14383.836499666,14384.713170458,1,0.985747791999529
117,13,6,categorization,0,kitchen,SHINEd_sun_ajkqhtgcbgpcwrwn.tif,97,0.0666666666666667,0.0666666666666667,0.85,14384.718679083,14385.542463458,9,14384.780328541,14384.841328666,14385.55968775,14386.403024916,1,0.823784374999377
117,14,6,categorization,0,bathroom,SHINEd_sun_axldvoqbuvuggfmq.tif,57,0.0666666666666667,0.0666666666666667,0.733333333333333,14386.407709666,14387.14282925,9,14386.469382375,14386.53032675,14387.149121083,14387.875791791,0,0.735119584000131
117,15,6,categorization,0,bathroom,SHINEd_sun_alkosphxlxwjwgjd.tif,34,0.0666666666666667,0.0666666666666667,1.88333333333333,14387.88090975,14388.974676416,9,14387.942654041,14388.003642458,14388.988929083,14390.865644041,0,1.0937666660011
117,16,6,categorization,0,kitchen,SHINEd_sun_aqeaevwwwjoqhzvl.tif,101,0.0666666666666667,0.0666666666666667,0.816666666666667,14390.883351541,14391.769999583,9,14390.950040916,14391.016290041,14391.789064875,14392.59907025,1,0.886648042000161
117,17,6,categorization,0,bathroom,SHINEd_sun_apynckhmoftszqoq.tif,47,0.0666666666666667,0.0666666666666667,1.9,14392.605827916,14393.486554458,9,14392.667625708,14392.728494625,14393.497017083,14395.390396125,0,0.880726542000048
117,18,6,categorization,0,kitchen,SHINEd_sun_abrcnpqqhmjwekyf.tif,73,0.0666666666666667,0.0666666666666667,0.983333333333333,14395.407760916,14396.16761025,13,14395.474214666,14395.540437666,14396.196961916,14397.173633625,0,0.759849334001046
117,19,6,categorization,0,bathroom,SHINEd_sun_aghyqhbptboemmoq.tif,23,0.0666666666666667,0.0666666666666667,0.75,14397.179434125,14398.071340416,13,14397.2410535,14397.302087666,14398.0873265,14398.830664541,1,0.891906290999032
117,20,6,categorization,0,bathroom,SHINEd_sun_ahcvzmoyaycdoftf.tif,27,0.0666666666666667,0.0666666666666667,1.6,14398.835940541,14399.543346,13,14398.897789791,14398.958635083,14399.560504541,14401.153885583,1,0.707405459001166
117,21,6,categorization,0,kitchen,SHINEd_sun_abpwyqmlzafvklqo.tif,72,0.0666666666666667,0.0666666666666667,1.58333333333333,14401.171570708,14402.332781875,9,14401.23608925,14401.300126416,14402.356028,14403.932745083,1,1.16121116700015
117,22,6,categorization,0,kitchen,SHINEd_sun_aamedkxepzlwuxes.tif,65,0.0666666666666667,0.0666666666666667,1.11666666666667,14403.949704708,14404.762909791,13,14404.016631416,14404.082678541,14404.78907575,14405.899132708,0,0.813205082999048
117,23,6,categorization,0,bathroom,SHINEd_sun_azqyogdvyhahyram.tif,60,0.0666666666666667,0.0666666666666667,1.53333333333333,14405.90920125,14406.530345708,13,14405.973915333,14406.041840916,14406.547671666,14408.074390416,1,0.621144458000344
117,24,6,categorization,0,bathroom,SHINEd_sun_auzqhkafidnkrwmo.tif,54,0.0666666666666667,0.0666666666666667,1.48333333333333,14408.092224166,14408.772991041,13,14408.158980791,14408.22522275,14408.798585166,14410.27530575,1,0.6807668750007
117,25,6,categorization,0,bathroom,SHINEd_sun_acgyywnybuveqsro.tif,18,0.0666666666666667,0.0666666666666667,1.1,14410.292024166,14411.355250166,13,14410.358706083,14410.425298833,14411.381979708,14412.475360833,1,1.06322600000021
117,26,6,categorization,0,bathroom,SHINEd_sun_anryaplzeujmzfkd.tif,39,0.0666666666666667,0.0666666666666667,0.933333333333333,14412.484487541,14413.306566041,13,14412.550084791,14412.617295291,14413.323377541,14414.250094958,1,0.822078499999407
117,27,6,categorization,0,bathroom,SHINEd_sun_asfwthctfqerjvxr.tif,49,0.0666666666666667,0.0666666666666667,0.816666666666667,14414.265846833,14417.007083708,13,14414.332427666,14414.398735291,14417.018104958,14417.828109,1,2.74123687500105
117,28,6,categorization,0,kitchen,SHINEd_sun_ahywdevtimnqcsln.tif,94,0.0666666666666667,0.0666666666666667,1.78333333333333,14417.833624083,14418.719096166,9,14417.895394166,14417.956356916,14418.724758291,14420.501457,1,0.885472083000423
117,29,6,categorization,0,bathroom,SHINEd_sun_abjtwfukuwddzted.tif,15,0.0666666666666667,0.0666666666666667,0.766666666666667,14420.521096625,14421.340336,9,14420.586176541,14420.653113125,14421.359841458,14422.119845791,0,0.819239374999597
117,30,6,categorization,0,kitchen,SHINEd_sun_akcjzhbbjlbogpdi.tif,99,0.0666666666666667,0.0666666666666667,1.45,14422.125745375,14423.007194333,9,14422.187404583,14422.248611166,14423.017005666,14424.460375125,1,0.881448957999964
117,31,6,categorization,0,kitchen,SHINEd_sun_aeqdocilnnpuvuhx.tif,83,0.0666666666666667,0.0666666666666667,0.75,14424.479209041,14425.354917083,9,14424.545903166,14424.612277583,14425.386211166,14426.129550291,1,0.875708042000042
117,32,6,categorization,0,bathroom,SHINEd_sun_aunuadmjocsddsrl.tif,52,0.0666666666666667,0.0666666666666667,1.36666666666667,14426.135238125,14427.086535,13,14426.196990875,14426.258045083,14427.093147958,14428.45317925,1,0.95129687500048
117,33,6,categorization,0,bathroom,SHINEd_sun_apjevzvycyhuqghb.tif,43,0.0666666666666667,0.0666666666666667,0.75,14428.471568833,14429.506950875,9,14428.540099041,14428.604450833,14429.527850958,14430.271191041,0,1.03538204200049
117,34,6,categorization,0,kitchen,SHINEd_labelme_rykdqxenmhulbdn.tif,63,0.0666666666666667,0.0666666666666667,0.783333333333333,14430.277080041,14431.518326916,9,14430.338908333,14430.399710166,14431.535352041,14432.312023333,1,1.2412468750008
117,35,6,categorization,0,bathroom,SHINEd_sun_ambriybtogmepttm.tif,36,0.0666666666666667,0.0666666666666667,1.11666666666667,14432.3168295,14433.110437416,9,14432.3787575,14432.439508416,14433.124620125,14434.2346725,0,0.793607916000838
117,36,6,categorization,0,kitchen,SHINEd_sun_aymvwlarqodbwuoc.tif,108,0.0666666666666667,0.0666666666666667,0.766666666666667,14434.243478791,14435.711088625,13,14434.308176625,14434.376561333,14435.736731541,14436.496737,0,1.46760983399872
117,37,6,categorization,0,bathroom,SHINEd_sun_apkruvsevgegsdwp.tif,44,0.0666666666666667,0.0666666666666667,0.716666666666667,14436.502242041,14437.494608291,13,14436.563954625,14436.624953583,14437.510069458,14438.220074583,1,0.992366249998668
117,38,6,categorization,0,kitchen,SHINEd_sun_abftihopvusyfakt.tif,71,0.0666666666666667,0.0666666666666667,1.33333333333333,14438.225147166,14439.063247,9,14438.286968083,14438.347761291,14439.066323875,14440.393033666,1,0.838099833999877
117,39,6,categorization,0,kitchen,SHINEd_sun_agubuxuukhzyzpdp.tif,88,0.0666666666666667,0.0666666666666667,1.75,14440.410967583,14441.162178875,9,14440.477678166,14440.544357666,14441.184197,14442.927562125,1,0.751211291999425
117,40,6,categorization,0,bathroom,SHINEd_sun_aggnnqpdorgxpvce.tif,21,0.0666666666666667,0.0666666666666667,1.13333333333333,14442.944718833,14443.626471708,9,14443.011851958,14443.077623416,14443.651027625,14444.777736583,0,0.681752874999802
117,41,6,categorization,0,kitchen,SHINEd_sun_ahljzhgcdpomplvg.tif,91,0.0666666666666667,0.0666666666666667,1.63333333333333,14444.789424916,14445.473575,9,14444.854460833,14444.92205825,14445.495125458,14447.121838,1,0.684150084000066
117,42,6,categorization,0,kitchen,SHINEd_sun_akchetnepxlcxhsu.tif,98,0.0666666666666667,0.0666666666666667,1.43333333333333,14447.141044125,14447.777865375,13,14447.208252,14447.272284125,14447.795080208,14449.221799958,0,0.636821250000139
117,43,6,categorization,0,bathroom,SHINEd_sun_aclfzgynxzxlbepz.tif,19,0.0666666666666667,0.0666666666666667,1.83333333333333,14449.233794083,14449.720255958,13,14449.299064333,14449.366841291,14449.739747666,14451.566464583,1,0.486461874999804
117,44,6,categorization,0,bathroom,SHINEd_sun_abapwbhyhkfixyex.tif,14,0.0666666666666667,0.0666666666666667,1.93333333333333,14451.586166958,14451.980070708,13,14451.652953208,14451.718956333,14452.008175833,14453.934875125,1,0.393903749998572
117,45,6,categorization,0,bathroom,SHINEd_sun_axxbkopsgyouuebh.tif,58,0.0666666666666667,0.0666666666666667,1.26666666666667,14453.954035541,14454.538241791,13,14454.02123975,14454.087243375,14454.56058925,14455.820628333,1,0.584206249999625
117,46,6,categorization,0,kitchen,SHINEd_labelme_kxvouciolcpqplr.tif,62,0.0666666666666667,0.0666666666666667,1.86666666666667,14455.840347791,14456.513607458,9,14455.907253583,14455.973512666,14456.528786541,14458.388841583,1,0.673259667000821
117,47,6,categorization,0,kitchen,SHINEd_sun_avszsnwsbuqfgzbn.tif,105,0.0666666666666667,0.0666666666666667,1.41666666666667,14458.407434791,14459.166128791,13,14458.474578583,14458.540268666,14459.196839541,14460.606874041,0,0.758694000000105
117,48,6,categorization,0,kitchen,SHINEd_sun_aarfiyshqohlwkmo.tif,67,0.0666666666666667,0.0666666666666667,1.11666666666667,14460.62383925,14461.398517333,13,14460.690543666,14460.756832833,14461.412373333,14462.522415333,0,0.774678083000254
117,49,6,categorization,0,kitchen,SHINEd_sun_azmutvzbxypaceni.tif,110,0.0666666666666667,0.0666666666666667,1.8,14462.531584583,14463.417863166,13,14462.596817,14462.664457916,14463.437529333,14465.230880583,0,0.886278583000603
117,50,6,categorization,0,kitchen,SHINEd_labelme_brsyyvweiuaazfr.tif,61,0.0666666666666667,0.0666666666666667,1.25,14465.24290575,14465.951797208,13,14465.310235875,14465.375745541,14465.982244583,14467.22563075,0,0.708891457999925
117,1,7,categorization,0,kitchen,SHINEd_sun_acwjdupvyjsugpay.tif,76,0.0666666666666667,0.0666666666666667,0.883333333333333,14481.890875583,14482.838718208,9,14481.953610833,14482.013626416,14482.848671916,14483.725344333,1,0.947842625000703
117,2,7,categorization,0,kitchen,SHINEd_sun_adgqasybjyktddhj.tif,78,0.0666666666666667,0.0666666666666667,1.03333333333333,14483.73048475,14484.470177625,9,14483.792210541,14483.8531405,14484.488231958,14485.514936833,1,0.739692875000401
117,3,7,categorization,0,bathroom,SHINEd_sun_ausgutylgojavyoq.tif,53,0.0666666666666667,0.0666666666666667,1.06666666666667,14485.527701125,14486.333908833,13,14485.592312833,14485.659394,14486.348502083,14487.40854575,1,0.80620770799942
117,4,7,categorization,0,bathroom,SHINEd_sun_atstyziqcmkahyxk.tif,51,0.0666666666666667,0.0666666666666667,0.833333333333333,14487.426329,14487.998464208,13,14487.493041333,14487.551162166,14488.002984791,14488.829656583,1,0.572135207999963
117,5,7,categorization,0,bathroom,SHINEd_sun_aclfzgynxzxlbepz.tif,19,0.0666666666666667,0.0666666666666667,0.716666666666667,14488.835488708,14489.510474458,13,14488.897255166,14488.958113916,14489.526610958,14490.236614458,1,0.674985749999905
117,6,7,categorization,0,kitchen,SHINEd_sun_aenotlpyftoioydp.tif,82,0.0666666666666667,0.0666666666666667,0.733333333333333,14490.242298916,14490.942635166,9,14490.303984791,14490.364888208,14490.950002125,14491.676672541,1,0.700336249999964
117,7,7,categorization,0,kitchen,SHINEd_labelme_kxvouciolcpqplr.tif,62,0.0666666666666667,0.0666666666666667,1.38333333333333,14491.682113333,14492.374135291,13,14491.743751958,14491.804754,14492.389864875,14493.766571708,0,0.692021958000623
117,8,7,categorization,0,bathroom,SHINEd_labelme_sfxiulhjbhlyiyt.tif,11,0.0666666666666667,0.0666666666666667,0.9,14493.783944916,14494.398721791,13,14493.850478875,14493.916753458,14494.42342325,14495.316811916,1,0.614776874999734
117,9,7,categorization,0,bathroom,SHINEd_sun_aofnryafpsjimzsb.tif,40,0.0666666666666667,0.0666666666666667,0.816666666666667,14495.328468083,14496.206592041,13,14495.395054541,14495.459801166,14496.212256208,14497.022260166,1,0.878123958000288
117,10,7,categorization,0,kitchen,SHINEd_sun_aggjlwcdjsjcaemh.tif,86,0.0666666666666667,0.0666666666666667,0.85,14497.027866,14497.750771541,13,14497.08957025,14497.150576583,14497.769041916,14498.612379833,0,0.722905540998909
117,11,7,categorization,0,bathroom,SHINEd_sun_ambriybtogmepttm.tif,36,0.0666666666666667,0.0666666666666667,1.6,14498.617907625,14499.3190275,13,14498.679680166,14498.740549041,14499.325545458,14500.918923833,1,0.701119875000586
117,12,7,categorization,0,bathroom,SHINEd_sun_aunuadmjocsddsrl.tif,52,0.0666666666666667,0.0666666666666667,1.75,14500.936521916,14501.610094166,13,14501.002759083,14501.069228125,14501.625043125,14503.368432833,1,0.673572249999779
117,13,7,categorization,0,kitchen,SHINEd_sun_ahljzhgcdpomplvg.tif,91,0.0666666666666667,0.0666666666666667,1.1,14503.387693583,14503.988523791,13,14503.4563395,14503.5214955,14504.011290125,14505.104676166,0,0.600830208000843
117,14,7,categorization,0,kitchen,SHINEd_sun_abpwyqmlzafvklqo.tif,72,0.0666666666666667,0.0666666666666667,1.46666666666667,14505.11357,14505.817026208,13,14505.177794041,14505.242891416,14505.832669208,14507.29272075,0,0.703456208000716
117,15,7,categorization,0,kitchen,SHINEd_sun_aypmqwcualkenuoe.tif,109,0.0666666666666667,0.0666666666666667,1.25,14507.301599041,14507.937099416,9,14507.366719916,14507.4348175,14507.958495791,14509.201883666,1,0.635500374999538
117,16,7,categorization,0,bathroom,SHINEd_sun_alotolagknyrgtsk.tif,35,0.0666666666666667,0.0666666666666667,1.13333333333333,14509.22056875,14509.807480958,9,14509.2867285,14509.354045583,14509.827505291,14510.954207,0,0.586912207998466
117,17,7,categorization,0,kitchen,SHINEd_sun_abrcnpqqhmjwekyf.tif,73,0.0666666666666667,0.0666666666666667,1.33333333333333,14510.973677458,14511.798693041,9,14511.040537291,14511.107099208,14511.809213125,14513.1359275,1,0.825015583001004
117,18,7,categorization,0,kitchen,SHINEd_labelme_rykdqxenmhulbdn.tif,63,0.0666666666666667,0.0666666666666667,1.86666666666667,14513.153736833,14514.034229958,13,14513.22057175,14513.286000458,14514.059181166,14515.919227,0,0.880493125001522
117,19,7,categorization,0,bathroom,SHINEd_sun_aqrpegblszgcoujh.tif,48,0.0666666666666667,0.0666666666666667,1.58333333333333,14515.940178375,14516.753728333,13,14516.007323458,14516.073634416,14516.78109,14518.357789333,1,0.813549958000294
117,20,7,categorization,0,kitchen,SHINEd_sun_aegoxogugdkwpmpj.tif,80,0.0666666666666667,0.0666666666666667,1.05,14518.37659875,14519.672187333,9,14518.44395325,14518.510308,14519.703481541,14520.746864708,1,1.29558858300152
117,21,7,categorization,0,kitchen,SHINEd_sun_ajcbwwvdlsvjyzje.tif,96,0.0666666666666667,0.0666666666666667,0.9,14520.758944708,14521.510240208,13,14520.824621416,14520.891181083,14521.531562,14522.424926916,0,0.751295499998378
117,22,7,categorization,0,bathroom,SHINEd_sun_auzqhkafidnkrwmo.tif,54,0.0666666666666667,0.0666666666666667,0.7,14522.43926475,14523.190122125,13,14522.507140208,14522.572775583,14523.208557333,14523.901893875,1,0.750857374998304
117,23,7,categorization,0,kitchen,SHINEd_sun_ajkqhtgcbgpcwrwn.tif,97,0.0666666666666667,0.0666666666666667,0.933333333333333,14523.906899416,14525.870067916,9,14523.968672541,14524.029646916,14525.882126625,14526.808798958,1,1.96316849999857
117,24,7,categorization,0,bathroom,SHINEd_sun_alkosphxlxwjwgjd.tif,34,0.0666666666666667,0.0666666666666667,1.95,14526.814514583,14527.886127333,13,14526.876215833,14526.936999333,14527.905419041,14529.84880675,1,1.07161274999999
117,25,7,categorization,0,bathroom,SHINEd_sun_awnqiikzaispgmwo.tif,56,0.0666666666666667,0.0666666666666667,1.06666666666667,14529.865992083,14530.80592,9,14529.934455208,14529.998770083,14530.821154083,14531.881194083,0,0.939927917001114
117,26,7,categorization,0,kitchen,SHINEd_sun_acxkpeoqbwcxfvip.tif,77,0.0666666666666667,0.0666666666666667,1.2,14531.895690041,14533.255094541,9,14531.960392958,14532.026502083,14533.264802833,14534.458181041,1,1.35940450000089
117,27,7,categorization,0,kitchen,SHINEd_sun_avszsnwsbuqfgzbn.tif,105,0.0666666666666667,0.0666666666666667,0.75,14534.46875475,14536.056259125,13,14534.535474708,14534.601322333,14536.076925333,14536.820264666,0,1.58750437500021
117,28,7,categorization,0,kitchen,SHINEd_labelme_brsyyvweiuaazfr.tif,61,0.0666666666666667,0.0666666666666667,0.816666666666667,14536.825815958,14538.598858291,9,14536.887590416,14536.948504833,14538.617757083,14539.427760625,1,1.77304233299947
117,29,7,categorization,0,kitchen,SHINEd_sun_aunzlwrbjumxhwdj.tif,103,0.0666666666666667,0.0666666666666667,1.96666666666667,14539.432904125,14540.262444166,9,14539.494662666,14539.555635041,14540.274144,14542.23419525,1,0.829540040998836
117,30,7,categorization,0,bathroom,SHINEd_sun_aapitsgbtktqubfy.tif,12,0.0666666666666667,0.0666666666666667,1.2,14542.252784875,14543.614583541,13,14542.319306958,14542.385617541,14543.621834416,14544.815212833,1,1.36179866600105
117,31,7,categorization,0,kitchen,SHINEd_sun_aamedkxepzlwuxes.tif,65,0.0666666666666667,0.0666666666666667,0.883333333333333,14544.828632791,14545.752833666,9,14544.896607666,14544.961532166,14545.767244083,14546.643955208,1,0.924200875000679
117,32,7,categorization,0,kitchen,SHINEd_sun_agorklincwxrdtga.tif,87,0.0666666666666667,0.0666666666666667,1.33333333333333,14546.660797916,14547.750733541,9,14546.723469958,14546.783521666,14547.768817458,14549.095531625,1,1.08993562499927
117,33,7,categorization,0,bathroom,SHINEd_sun_aljolscmmzydegqp.tif,33,0.0666666666666667,0.0666666666666667,1.45,14549.112890666,14549.737653791,13,14549.179600666,14549.242074458,14549.765090583,14551.20845775,1,0.624763125000754
117,34,7,categorization,0,bathroom,SHINEd_sun_abjtwfukuwddzted.tif,15,0.0666666666666667,0.0666666666666667,1.15,14551.223784041,14552.834198666,13,14551.288853083,14551.356480083,14552.861436166,14554.004800291,1,1.61041462499998
117,35,7,categorization,0,bathroom,SHINEd_sun_asfwthctfqerjvxr.tif,49,0.0666666666666667,0.0666666666666667,0.966666666666667,14554.013411916,14554.651445875,9,14554.080498708,14554.1473125,14554.669875708,14555.629910416,0,0.638033959001405
117,36,7,categorization,0,kitchen,SHINEd_sun_auaiucuqpdausiva.tif,102,0.0666666666666667,0.0666666666666667,1.45,14555.646177916,14556.350003791,9,14555.712941541,14555.778957375,14556.364186458,14557.807574458,1,0.703825874999893
117,37,7,categorization,0,bathroom,SHINEd_sun_agguqiubmwhqqunb.tif,22,0.0666666666666667,0.0666666666666667,0.8,14557.824664916,14558.76300025,13,14557.891179,14557.957665541,14558.779142,14559.572481166,1,0.93833533399993
117,38,7,categorization,0,bathroom,SHINEd_sun_ahijqszoswveeyji.tif,28,0.0666666666666667,0.0666666666666667,1.45,14559.578086666,14560.341901208,9,14559.639889666,14559.700872166,14560.3527605,14561.796141958,0,0.763814541998727
117,39,7,categorization,0,bathroom,SHINEd_sun_anryaplzeujmzfkd.tif,39,0.0666666666666667,0.0666666666666667,1.1,14561.813709208,14562.909444,9,14561.882086333,14561.946780458,14562.93714625,14564.030521875,0,1.09573479200117
117,40,7,categorization,0,kitchen,SHINEd_sun_aarfiyshqohlwkmo.tif,67,0.0666666666666667,0.0666666666666667,1.16666666666667,14564.040193333,14566.830505041,9,14564.1059755,14564.173453625,14566.84309825,14568.00312775,1,2.79031170800044
117,41,7,categorization,0,bathroom,SHINEd_sun_apkruvsevgegsdwp.tif,44,0.0666666666666667,0.0666666666666667,1.31666666666667,14568.01256275,14568.888455166,13,14568.079697041,14568.145249291,14568.918221458,14570.22826075,1,0.87589241599926
117,42,7,categorization,0,bathroom,SHINEd_sun_aspsyogrekjtfozg.tif,50,0.0666666666666667,0.0666666666666667,1.68333333333333,14570.247349125,14570.879564208,13,14570.314222833,14570.380222708,14570.902932291,14572.579648166,1,0.632215083000119
117,43,7,categorization,0,kitchen,SHINEd_sun_admlmbcdswaszruo.tif,79,0.0666666666666667,0.0666666666666667,0.966666666666667,14572.596035041,14573.480464291,13,14572.663032041,14572.728680833,14573.502308458,14574.462314666,0,0.884429249999812
117,44,7,categorization,0,kitchen,SHINEd_sun_agzzivivdpnawacl.tif,89,0.0666666666666667,0.0666666666666667,1.4,14574.468048083,14575.854638291,13,14574.529897791,14574.590703958,14575.860347916,14577.253705791,0,1.38659020800151
117,45,7,categorization,0,kitchen,SHINEd_sun_azmutvzbxypaceni.tif,110,0.0666666666666667,0.0666666666666667,0.783333333333333,14577.263247458,14577.981966791,13,14577.331293083,14577.3961255,14578.00218525,14578.778884875,0,0.718719332999171
117,46,7,categorization,0,bathroom,SHINEd_sun_agrwbmhcpmfuwmsg.tif,24,0.0666666666666667,0.0666666666666667,1.08333333333333,14578.795444916,14579.557834,9,14578.86209675,14578.919604083,14579.571564708,14580.64827,0,0.762389083998642
117,47,7,categorization,0,kitchen,SHINEd_sun_acfmftudsenhrfhy.tif,74,0.0666666666666667,0.0666666666666667,1.43333333333333,14580.659212,14581.640595708,13,14580.723833208,14580.791890541,14581.665228291,14583.091934666,0,0.981383708000067
117,48,7,categorization,0,kitchen,SHINEd_sun_aadbddgrdsjugojn.tif,64,0.0666666666666667,0.0666666666666667,1.75,14583.109115125,14583.794653583,13,14583.176117291,14583.237121166,14583.809472958,14585.552858208,0,0.685538457999428
117,49,7,categorization,0,bathroom,SHINEd_sun_ahaulkltgpkeeemi.tif,26,0.0666666666666667,0.0666666666666667,1.21666666666667,14585.570899916,14586.714110916,13,14585.637666375,14585.703632,14586.743503166,14587.953556791,1,1.14321100000052
117,50,7,categorization,0,kitchen,SHINEd_sun_aapllqyqlykszopd.tif,66,0.0666666666666667,0.0666666666666667,1.31666666666667,14587.969095125,14588.84712675,13,14588.036798333,14588.101928708,14588.875053041,14590.185097625,0,0.878031625001313
117,1,8,categorization,0,kitchen,SHINEd_sun_awcpdzzznmweyyhv.tif,106,0.0666666666666667,0.0666666666666667,1.18333333333333,14611.578097458,14612.366265041,9,14611.640616833,14611.700734458,14612.385874625,14613.562592,1,0.788167583001268
117,2,8,categorization,0,kitchen,SHINEd_sun_ahdycvpopffkzzsu.tif,90,0.0666666666666667,0.0666666666666667,0.983333333333333,14613.571861375,14614.21076225,13,14613.638736583,14613.704870875,14614.227308833,14615.204028208,0,0.638900875001127
117,3,8,categorization,0,bathroom,SHINEd_sun_apjevzvycyhuqghb.tif,43,0.0666666666666667,0.0666666666666667,1.65,14615.220876458,14615.845557125,13,14615.286389375,14615.353757875,14615.8558075,14617.499178416,1,0.624680667000575
117,4,8,categorization,0,bathroom,SHINEd_sun_axyrejkiiaqiurjk.tif,59,0.0666666666666667,0.0666666666666667,1.23333333333333,14617.517412625,14618.138162833,13,14617.583454625,14617.650088625,14618.156047666,14619.382746208,1,0.620750207999663
117,5,8,categorization,0,bathroom,SHINEd_sun_akiytfaagpdsphgz.tif,31,0.0666666666666667,0.0666666666666667,0.916666666666667,14619.39425075,14620.227924916,13,14619.460855875,14619.526974208,14620.250175541,14621.16020925,1,0.833674166000492
117,6,8,categorization,0,kitchen,SHINEd_sun_akchetnepxlcxhsu.tif,98,0.0666666666666667,0.0666666666666667,1.56666666666667,14621.1756565,14621.861588375,13,14621.2405735,14621.299746416,14621.868164541,14623.428217083,0,0.685931875001188
117,7,8,categorization,0,bathroom,SHINEd_sun_axldvoqbuvuggfmq.tif,57,0.0666666666666667,0.0666666666666667,1.63333333333333,14623.445963208,14624.207505375,13,14623.512626083,14623.5787275,14624.235268666,14625.861967625,1,0.761542166999789
117,8,8,categorization,0,kitchen,SHINEd_sun_aehawpgmrlhlvcow.tif,81,0.0666666666666667,0.0666666666666667,1.1,14625.880013833,14626.450902875,9,14625.947005625,14626.01332475,14626.469802333,14627.563190958,1,0.57088904199918
117,9,8,categorization,0,kitchen,SHINEd_sun_auticobqsbwgoppi.tif,104,0.0666666666666667,0.0666666666666667,1.38333333333333,14627.573465041,14628.146419916,9,14627.63863225,14627.706389541,14628.162188375,14629.5388995,1,0.572954875000505
117,10,8,categorization,0,kitchen,SHINEd_sun_aexklacwqwezaorf.tif,84,0.0666666666666667,0.0666666666666667,0.766666666666667,14629.556912833,14630.006027041,9,14629.619771166,14629.679746083,14630.014857708,14630.774862375,1,0.449114207998718
117,11,8,categorization,0,kitchen,SHINEd_sun_aymvwlarqodbwuoc.tif,108,0.0666666666666667,0.0666666666666667,1.45,14630.779906416,14632.30971475,9,14630.841561416,14630.902553375,14632.321642416,14633.76502675,1,1.52980833399852
117,12,8,categorization,0,bathroom,SHINEd_sun_azqyogdvyhahyram.tif,60,0.0666666666666667,0.0666666666666667,0.983333333333333,14633.781841666,14634.791572666,13,14633.849559791,14633.914571458,14634.8210155,14635.797688291,1,1.0097310000001
117,13,8,categorization,0,kitchen,SHINEd_sun_afuyedyxivkhecmu.tif,85,0.0666666666666667,0.0666666666666667,0.716666666666667,14635.804204208,14636.830455541,13,14635.86601925,14635.92682275,14636.845337125,14637.555342291,0,1.02625133299989
117,14,8,categorization,0,bathroom,SHINEd_sun_abapwbhyhkfixyex.tif,14,0.0666666666666667,0.0666666666666667,1.41666666666667,14637.560676833,14638.317794291,13,14637.622393833,14637.683330291,14638.33515625,14639.745203791,1,0.757117458000721
117,15,8,categorization,0,bathroom,SHINEd_sun_acegryoqftbzowsg.tif,17,0.0666666666666667,0.0666666666666667,1.21666666666667,14639.762706041,14640.649264083,13,14639.830867,14639.895665333,14640.667923083,14641.877959625,1,0.886558042000615
117,16,8,categorization,0,kitchen,SHINEd_sun_aaxxjlsuzvqlgylf.tif,68,0.0666666666666667,0.0666666666666667,1.61666666666667,14641.895918791,14642.979151041,9,14641.962582333,14642.028941166,14643.001671833,14644.611725458,1,1.08323224999913
117,17,8,categorization,0,bathroom,SHINEd_sun_apynckhmoftszqoq.tif,47,0.0666666666666667,0.0666666666666667,0.783333333333333,14644.629902875,14645.727212875,13,14644.696624875,14644.762956833,14645.752157208,14646.528829791,1,1.0973099999992
117,18,8,categorization,0,bathroom,SHINEd_sun_aghyqhbptboemmoq.tif,23,0.0666666666666667,0.0666666666666667,1.98333333333333,14646.534140416,14647.57402175,13,14646.595918,14646.656865,14647.591940083,14649.568640041,1,1.0398813339998
117,19,8,categorization,0,kitchen,SHINEd_sun_aeqdocilnnpuvuhx.tif,83,0.0666666666666667,0.0666666666666667,0.983333333333333,14649.589698833,14650.563767625,13,14649.656013375,14649.722367916,14650.578044,14651.554716458,0,0.974068792000253
117,20,8,categorization,0,kitchen,SHINEd_sun_abftihopvusyfakt.tif,71,0.0666666666666667,0.0666666666666667,0.8,14651.559744375,14652.501466916,9,14651.621568958,14651.682527041,14652.517612041,14653.310950416,1,0.941722540999763
117,21,8,categorization,0,kitchen,SHINEd_sun_aixorpehvfykdynp.tif,95,0.0666666666666667,0.0666666666666667,0.733333333333333,14653.315785375,14655.573538291,13,14653.377507541,14653.438880125,14655.591079791,14656.317750791,0,2.25775291600075
117,22,8,categorization,0,bathroom,SHINEd_sun_aggnnqpdorgxpvce.tif,21,0.0666666666666667,0.0666666666666667,0.966666666666667,14656.323286583,14657.429672416,13,14656.385110916,14656.4459565,14657.447781208,14658.407786,1,1.10638583299988
117,23,8,categorization,0,bathroom,SHINEd_sun_aavhrsfjbserjtht.tif,13,0.0666666666666667,0.0666666666666667,0.866666666666667,14658.413372541,14659.509616041,9,14658.475159166,14658.535967041,14659.521182041,14660.381186791,0,1.09624350000013
117,24,8,categorization,0,kitchen,SHINEd_sun_agubuxuukhzyzpdp.tif,88,0.0666666666666667,0.0666666666666667,1.23333333333333,14660.387825833,14662.414041541,9,14660.449510541,14660.510435291,14662.430050083,14663.65675275,1,2.02621570799965
117,25,8,categorization,0,bathroom,SHINEd_sun_axxbkopsgyouuebh.tif,58,0.0666666666666667,0.0666666666666667,1.9,14663.672731125,14665.015154833,13,14663.739352041,14663.805226458,14665.048173125,14666.941538375,1,1.34242370799984
117,26,8,categorization,0,bathroom,SHINEd_sun_aoybiabnpadelefl.tif,41,0.0666666666666667,0.0666666666666667,0.866666666666667,14666.958314958,14668.845671625,13,14667.025036541,14667.091199416,14668.860552541,14669.720558166,1,1.88735666700086
117,27,8,categorization,0,kitchen,SHINEd_sun_axyyrmzcupyhlivc.tif,107,0.0666666666666667,0.0666666666666667,0.966666666666667,14669.725800708,14671.541569333,9,14669.787567791,14669.848523791,14671.5507275,14672.510732875,1,1.81576862499969
117,28,8,categorization,0,bathroom,SHINEd_sun_anhioqovhscjqqwb.tif,38,0.0666666666666667,0.0666666666666667,0.916666666666667,14672.515526583,14673.517943375,13,14672.577144166,14672.638224208,14673.523273291,14674.433278,1,1.00241679200008
117,29,8,categorization,0,bathroom,SHINEd_sun_apmqjbnwghzuhhzh.tif,46,0.0666666666666667,0.0666666666666667,0.916666666666667,14674.438939791,14675.414112833,13,14674.500693541,14674.561563458,14675.429964375,14676.3399675,1,0.975173041999369
117,30,8,categorization,0,kitchen,SHINEd_sun_aqeaevwwwjoqhzvl.tif,101,0.0666666666666667,0.0666666666666667,1.4,14676.345178541,14677.293879875,13,14676.406836541,14676.468015333,14677.303267541,14678.696637916,0,0.948701334000361
117,31,8,categorization,0,bathroom,SHINEd_sun_acgyywnybuveqsro.tif,18,0.0666666666666667,0.0666666666666667,1.75,14678.713762666,14679.592002208,13,14678.780406166,14678.846416041,14679.619641791,14681.363032166,1,0.878239542000301
117,32,8,categorization,0,bathroom,SHINEd_sun_afcoljnjfoxjtgja.tif,20,0.0666666666666667,0.0666666666666667,1.25,14681.381545583,14682.261429,9,14681.447864416,14681.514237166,14682.2871695,14683.530557958,0,0.879883416999292
117,33,8,categorization,0,kitchen,SHINEd_sun_ahywdevtimnqcsln.tif,94,0.0666666666666667,0.0666666666666667,1.05,14683.549181291,14684.242372083,9,14683.615904916,14683.681969,14684.27168725,14685.315052666,1,0.693190791998859
117,34,8,categorization,0,bathroom,SHINEd_sun_ajlawzvmubibwbpy.tif,30,0.0666666666666667,0.0666666666666667,1.06666666666667,14685.326084166,14686.142118,9,14685.38843325,14685.448904583,14686.150669041,14687.210699041,0,0.816033834000336
117,35,8,categorization,0,bathroom,SHINEd_sun_ahqjwnzgolcaoidx.tif,29,0.0666666666666667,0.0666666666666667,1.21666666666667,14687.221730041,14687.993591375,9,14687.286379375,14687.353469875,14688.008922458,14689.218956541,0,0.771861334000278
117,36,8,categorization,0,bathroom,SHINEd_sun_ahcvzmoyaycdoftf.tif,27,0.0666666666666667,0.0666666666666667,0.95,14689.23051025,14689.861448541,13,14689.29229,14689.353170625,14689.871741583,14690.815080875,1,0.630938291000348
117,37,8,categorization,0,bathroom,SHINEd_sun_apkxzenqapsujocq.tif,45,0.0666666666666667,0.0666666666666667,0.9,14690.821017708,14691.390265125,13,14690.882795166,14690.943722166,14691.395475791,14692.288812708,1,0.569247416999133
117,38,8,categorization,0,kitchen,SHINEd_sun_acgtpgfybqjmzeyw.tif,75,0.0666666666666667,0.0666666666666667,1.78333333333333,14692.293982208,14692.981985041,9,14692.355750833,14692.416540125,14692.984881875,14694.7615935,1,0.6880028329997
117,39,8,categorization,0,bathroom,SHINEd_sun_aleqenyvunhactkl.tif,32,0.0666666666666667,0.0666666666666667,1.16666666666667,14694.77953825,14695.53949625,13,14694.846237875,14694.91239975,14695.568711958,14696.72874975,1,0.759957999998733
117,40,8,categorization,0,bathroom,SHINEd_sun_apeeialkgkuxddgh.tif,42,0.0666666666666667,0.0666666666666667,0.783333333333333,14696.737771583,14697.504318166,13,14696.804216,14696.870141166,14697.526749666,14698.303473333,1,0.766546582999581
117,41,8,categorization,0,bathroom,SHINEd_sun_acduarbnmmoglmiv.tif,16,0.0666666666666667,0.0666666666666667,1.23333333333333,14698.320140083,14699.254095333,9,14698.386777708,14698.452860958,14699.271241416,14700.497956458,0,0.933955250000508
117,42,8,categorization,0,kitchen,SHINEd_sun_abdxkyyxwfskuaqb.tif,70,0.0666666666666667,0.0666666666666667,0.9,14700.515951083,14700.983167375,9,14700.584221125,14700.648629333,14701.004963041,14701.898350833,1,0.467216291999648
117,43,8,categorization,0,kitchen,SHINEd_sun_abdenxonkemggwsq.tif,69,0.0666666666666667,0.0666666666666667,0.7,14701.911676291,14702.957391958,13,14701.978816,14702.044668208,14702.963310833,14703.65664775,0,1.04571566699997
117,44,8,categorization,0,kitchen,SHINEd_sun_ahspylgoovwmwvgk.tif,93,0.0666666666666667,0.0666666666666667,1.23333333333333,14703.661490208,14704.725490958,9,14703.723267666,14703.784128375,14704.735922125,14705.962619375,1,1.06400075000056
117,45,8,categorization,0,bathroom,SHINEd_sun_avhrdrntsqrjzccq.tif,55,0.0666666666666667,0.0666666666666667,1,14705.979871,14706.578957291,13,14706.046908041,14706.113154958,14706.602941125,14707.596311625,1,0.599086291000276
117,46,8,categorization,0,bathroom,SHINEd_sun_amzlamotzwfkwjco.tif,37,0.0666666666666667,0.0666666666666667,1.38333333333333,14707.609845,14708.501401375,13,14707.676378208,14707.742397208,14708.511082833,14709.887787958,1,0.891556374999709
117,47,8,categorization,0,kitchen,SHINEd_sun_akcjzhbbjlbogpdi.tif,99,0.0666666666666667,0.0666666666666667,1.3,14709.906447666,14710.348889458,9,14709.97320175,14710.040884125,14710.363148541,14711.656522708,1,0.442441791999954
117,48,8,categorization,0,kitchen,SHINEd_sun_amjjdeyrggfqgmom.tif,100,0.0666666666666667,0.0666666666666667,0.833333333333333,14711.666955291,14712.110155583,13,14711.731609,14711.79950575,14712.139270041,14712.965985,0,0.443200291998437
117,49,8,categorization,0,kitchen,SHINEd_sun_ahpczsiumwwocjkv.tif,92,0.0666666666666667,0.0666666666666667,0.95,14712.979417916,14713.617021708,9,14713.0463215,14713.111991333,14713.634542166,14714.577881833,1,0.637603791999936
117,50,8,categorization,0,bathroom,SHINEd_sun_agyqfjcfkdcydepw.tif,25,0.0666666666666667,0.0666666666666667,1.43333333333333,14714.58381425,14715.325966583,9,14714.645570916,14714.70650425,14715.341693625,14716.768412958,0,0.742152332999467
117,1,9,categorization,0,kitchen,SHINEd_sun_aeqdocilnnpuvuhx.tif,83,0.0666666666666667,0.0666666666666667,1.08333333333333,14727.074851083,14727.96582,9,14727.137253791,14727.197568416,14727.983033875,14729.059749041,1,0.890968916999554
117,2,9,categorization,0,bathroom,SHINEd_sun_apmqjbnwghzuhhzh.tif,46,0.0666666666666667,0.0666666666666667,0.8,14729.070573833,14729.706827041,13,14729.13559725,14729.203452166,14729.726816875,14730.520182041,1,0.636253208000198
117,3,9,categorization,0,bathroom,SHINEd_sun_apeeialkgkuxddgh.tif,42,0.0666666666666667,0.0666666666666667,0.833333333333333,14730.536534083,14731.237679208,13,14730.603271375,14730.669471,14731.254931625,14732.081603875,1,0.701145125000039
117,4,9,categorization,0,bathroom,SHINEd_sun_azqyogdvyhahyram.tif,60,0.0666666666666667,0.0666666666666667,1.45,14732.087557958,14732.6936625,13,14732.149270208,14732.210308166,14732.712066458,14734.155456583,1,0.60610454199923
117,5,9,categorization,0,kitchen,SHINEd_sun_aapllqyqlykszopd.tif,66,0.0666666666666667,0.0666666666666667,1.3,14734.173019708,14734.874407541,13,14734.23924,14734.30597075,14734.895869166,14736.189242583,0,0.701387832999899
117,6,9,categorization,0,bathroom,SHINEd_sun_agrwbmhcpmfuwmsg.tif,24,0.0666666666666667,0.0666666666666667,1.21666666666667,14736.207072916,14736.941144833,9,14736.273676625,14736.339602416,14736.962789583,14738.172857625,0,0.734071916998801
117,7,9,categorization,0,kitchen,SHINEd_sun_abpwyqmlzafvklqo.tif,72,0.0666666666666667,0.0666666666666667,0.733333333333333,14738.189293416,14738.847402583,9,14738.256032,14738.322101291,14738.860608208,14739.587326625,1,0.658109166999566
117,8,9,categorization,0,bathroom,SHINEd_sun_aljolscmmzydegqp.tif,33,0.0666666666666667,0.0666666666666667,1.03333333333333,14739.600419333,14740.59767925,9,14739.667044666,14739.733141458,14740.60207325,14741.628776708,0,0.99725991699961
117,9,9,categorization,0,kitchen,SHINEd_sun_auaiucuqpdausiva.tif,102,0.0666666666666667,0.0666666666666667,1.1,14741.64189525,14742.4253585,13,14741.706517666,14741.773691875,14742.446825833,14743.540212791,0,0.783463249999841
117,10,9,categorization,0,bathroom,SHINEd_sun_abapwbhyhkfixyex.tif,14,0.0666666666666667,0.0666666666666667,1.25,14743.557756875,14744.669940875,9,14743.624487916,14743.6820815,14744.68373975,14745.927102625,0,1.11218399999962
117,11,9,categorization,0,bathroom,SHINEd_sun_anhioqovhscjqqwb.tif,38,0.0666666666666667,0.0666666666666667,1.4,14745.944188166,14746.594292041,13,14746.011151291,14746.077268333,14746.617575333,14748.010941416,1,0.650103874999331
