sub_num,trial,block,task,is_practice,category,image,texture,duration,mask_dur,jitter,stim_time,time_of_resp,trial_response,mask_time,fix_time,jit_onset,trial_end,trial_accuracy,RT
131,1,24,categorization,0,kitchen,SHINEd_sun_avszsnwsbuqfgzbn.tif,105,0.0666666666666667,0.0666666666666667,0.733333333333333,8967.128463375,8967.785366083,9,8967.190187625,8967.251217958,8967.803279083,8968.529951458,1,0.656902708000416
131,2,24,categorization,0,bathroom,SHINEd_sun_avhrdrntsqrjzccq.tif,55,0.0666666666666667,0.0666666666666667,1.26666666666667,8968.535664875,8969.329114875,9,8968.597259208,8968.658401833,8969.343675708,8970.603728666,0,0.793449999999211
131,3,24,categorization,0,kitchen,SHINEd_sun_aqeaevwwwjoqhzvl.tif,101,0.0666666666666667,0.0666666666666667,0.75,8970.6213265,8971.210551041,9,8970.687552708,8970.754307875,8971.2258635,8971.969249291,1,0.589224540999567
131,4,24,categorization,0,bathroom,SHINEd_sun_anhioqovhscjqqwb.tif,38,0.0666666666666667,0.0666666666666667,1.08333333333333,8971.985907583,8972.721066666,13,8972.052880291,8972.118487583,8972.737817708,8973.814530958,1,0.735159082998507
131,5,24,categorization,0,bathroom,SHINEd_sun_axldvoqbuvuggfmq.tif,57,0.0666666666666667,0.0666666666666667,1.28333333333333,8973.825549375,8974.715868583,13,8973.890442666,8973.957440791,8974.72965125,8976.006355666,1,0.89031920799971
131,6,24,categorization,0,kitchen,SHINEd_sun_auticobqsbwgoppi.tif,104,0.0666666666666667,0.0666666666666667,0.9,8976.024865458,8976.861675125,13,8976.091249375,8976.157734041,8976.880565416,8977.77395225,0,0.836809667000125
131,7,24,categorization,0,kitchen,SHINEd_labelme_rykdqxenmhulbdn.tif,63,0.0666666666666667,0.0666666666666667,1.8,8977.787935041,8978.634099541,9,8977.850252,8977.910570833,8978.645984583,8980.439364166,1,0.846164499998849
131,8,24,categorization,0,bathroom,SHINEd_sun_awnqiikzaispgmwo.tif,56,0.0666666666666667,0.0666666666666667,1.06666666666667,8980.458606,8981.220968708,13,8980.525363166,8980.591576958,8981.246932166,8982.306977625,1,0.762362707999273
131,9,24,categorization,0,kitchen,SHINEd_sun_ahljzhgcdpomplvg.tif,91,0.0666666666666667,0.0666666666666667,0.783333333333333,8982.318717041,8983.133479208,9,8982.383803416,8982.448949583,8983.155370541,8983.932077541,1,0.814762166999571
131,10,24,categorization,0,bathroom,SHINEd_sun_akiytfaagpdsphgz.tif,31,0.0666666666666667,0.0666666666666667,0.966666666666667,8983.948272666,8984.865400041,9,8984.014895916,8984.081084291,8984.883467125,8985.843473625,0,0.917127374999836
131,11,24,categorization,0,kitchen,SHINEd_sun_azmutvzbxypaceni.tif,110,0.0666666666666667,0.0666666666666667,0.95,8985.849288208,8986.513960166,9,8985.911073666,8985.972048958,8986.523929375,8987.467268416,1,0.664671957998507
131,12,24,categorization,0,kitchen,SHINEd_sun_agubuxuukhzyzpdp.tif,88,0.0666666666666667,0.0666666666666667,0.966666666666667,8987.473517833,8988.281774375,9,8987.535390541,8987.596316458,8988.298689083,8989.258692666,1,0.80825654200089
131,13,24,categorization,0,bathroom,SHINEd_sun_ahqjwnzgolcaoidx.tif,29,0.0666666666666667,0.0666666666666667,1.31666666666667,8989.263741625,8990.329646083,13,8989.325407833,8989.386527875,8990.33894675,8991.649005916,1,1.06590445800066
131,14,24,categorization,0,bathroom,SHINEd_sun_aofnryafpsjimzsb.tif,40,0.0666666666666667,0.0666666666666667,0.766666666666667,8991.66693225,8992.384959541,13,8991.733647208,8991.799505375,8992.405841,8993.16589,1,0.718027290999089
131,15,24,categorization,0,bathroom,SHINEd_sun_alotolagknyrgtsk.tif,35,0.0666666666666667,0.0666666666666667,1.61666666666667,8993.174720916,8993.865911875,13,8993.239801,8993.303986458,8993.873230666,8995.483288583,1,0.691190958999869
131,16,24,categorization,0,bathroom,SHINEd_sun_alkosphxlxwjwgjd.tif,34,0.0666666666666667,0.0666666666666667,1.93333333333333,8995.500369333,8996.30764425,13,8995.566683833,8995.633602708,8996.322775583,8998.249481666,1,0.807274917000541
131,17,24,categorization,0,kitchen,SHINEd_sun_aegoxogugdkwpmpj.tif,80,0.0666666666666667,0.0666666666666667,0.733333333333333,8998.262311833,8999.044290625,9,8998.329280166,8998.395332541,8999.068852666,8999.795526583,1,0.781978791999791
131,18,24,categorization,0,bathroom,SHINEd_sun_anryaplzeujmzfkd.tif,39,0.0666666666666667,0.0666666666666667,1.63333333333333,8999.801467583,9000.769028,9,8999.863197291,8999.924181041,9000.776493916,9002.403201458,0,0.967560417000641
131,19,24,categorization,0,kitchen,SHINEd_sun_admlmbcdswaszruo.tif,79,0.0666666666666667,0.0666666666666667,1.51666666666667,9002.425734666,9003.090506083,9,9002.492935458,9002.559175208,9003.116719541,9004.626765208,1,0.664771416999429
131,20,24,categorization,0,kitchen,SHINEd_sun_acxkpeoqbwcxfvip.tif,77,0.0666666666666667,0.0666666666666667,1.68333333333333,9004.6461995,9005.379932416,13,9004.713504333,9004.779322,9005.402605,9007.079323541,0,0.733732916000008
131,21,24,categorization,0,kitchen,SHINEd_sun_akchetnepxlcxhsu.tif,98,0.0666666666666667,0.0666666666666667,1.28333333333333,9007.097990291,9007.758986125,13,9007.163002625,9007.229719583,9007.787240916,9009.063945208,0,0.66099583399955
131,22,24,categorization,0,kitchen,SHINEd_sun_afuyedyxivkhecmu.tif,85,0.0666666666666667,0.0666666666666667,0.766666666666667,9009.082680041,9009.781219291,13,9009.150463333,9009.213346291,9009.804185666,9010.564228458,0,0.698539250000977
131,23,24,categorization,0,bathroom,SHINEd_sun_ahcvzmoyaycdoftf.tif,27,0.0666666666666667,0.0666666666666667,1.1,9010.582167625,9011.617560666,9,9010.650105541,9010.715104875,9011.634136916,9012.727506666,0,1.03539304100013
131,24,24,categorization,0,bathroom,SHINEd_sun_asfwthctfqerjvxr.tif,49,0.0666666666666667,0.0666666666666667,1.55,9012.737750625,9013.490729625,9,9012.80297425,9012.871063875,9013.510952875,9015.054334833,0,0.752979000000778
131,25,24,categorization,0,kitchen,SHINEd_sun_ahdycvpopffkzzsu.tif,90,0.0666666666666667,0.0666666666666667,1.88333333333333,9015.072089041,9015.803415375,9,9015.139232375,9015.202164416,9015.825541708,9017.702251958,1,0.731326334000187
131,26,24,categorization,0,bathroom,SHINEd_sun_amzlamotzwfkwjco.tif,37,0.0666666666666667,0.0666666666666667,1.05,9017.720825125,9018.676787666,9,9017.7873865,9017.854010291,9018.693532541,9019.736905416,0,0.95596254100019
131,27,24,categorization,0,kitchen,SHINEd_sun_abdenxonkemggwsq.tif,69,0.0666666666666667,0.0666666666666667,0.933333333333333,9019.749855375,9020.569716375,13,9019.814859625,9019.8821495,9020.58929475,9021.51600675,0,0.819860999999946
131,28,24,categorization,0,bathroom,SHINEd_sun_acgyywnybuveqsro.tif,18,0.0666666666666667,0.0666666666666667,1.4,9021.53248175,9022.145418916,13,9021.599405583,9021.665459208,9022.150675958,9023.544061666,1,0.612937165999028
131,29,24,categorization,0,kitchen,SHINEd_sun_aaxxjlsuzvqlgylf.tif,68,0.0666666666666667,0.0666666666666667,1.85,9023.557417791,9024.277861166,9,9023.624268166,9023.690332541,9024.296889958,9026.140283166,1,0.720443374999377
131,30,24,categorization,0,kitchen,SHINEd_sun_ajcbwwvdlsvjyzje.tif,96,0.0666666666666667,0.0666666666666667,1.2,9026.156881166,9026.949251791,13,9026.224030875,9026.2898535,9026.979908125,9028.173295666,0,0.792370625000331
131,31,24,categorization,0,kitchen,SHINEd_sun_agzzivivdpnawacl.tif,89,0.0666666666666667,0.0666666666666667,1.33333333333333,9028.186140041,9028.945319041,9,9028.253025375,9028.318836125,9028.975648125,9030.302351,1,0.759179000000586
131,32,24,categorization,0,bathroom,SHINEd_sun_apkruvsevgegsdwp.tif,44,0.0666666666666667,0.0666666666666667,0.8,9030.321205625,9030.98056275,13,9030.388041625,9030.454458583,9031.011201375,9031.804576875,1,0.659357125001407
131,33,24,categorization,0,kitchen,SHINEd_sun_aadbddgrdsjugojn.tif,64,0.0666666666666667,0.0666666666666667,0.7,9031.821338125,9032.681018375,9,9031.887773333,9031.954513666,9032.690364333,9033.383702083,1,0.859680249999656
131,34,24,categorization,0,bathroom,SHINEd_sun_afcoljnjfoxjtgja.tif,20,0.0666666666666667,0.0666666666666667,1.26666666666667,9033.389888916,9034.0579605,9,9033.451692083,9033.512686208,9034.0644875,9035.324537208,0,0.668071584001154
131,35,24,categorization,0,bathroom,SHINEd_sun_aunuadmjocsddsrl.tif,52,0.0666666666666667,0.0666666666666667,1.98333333333333,9035.341795583,9035.975222833,13,9035.408522416,9035.474829583,9035.997629458,9037.974333166,1,0.63342725000075
131,36,24,categorization,0,bathroom,SHINEd_sun_aoybiabnpadelefl.tif,41,0.0666666666666667,0.0666666666666667,1.18333333333333,9037.993695166,9038.759189625,9,9038.060795333,9038.126262375,9038.782921583,9039.959640875,0,0.765494458999456
131,37,24,categorization,0,bathroom,SHINEd_sun_abapwbhyhkfixyex.tif,14,0.0666666666666667,0.0666666666666667,0.916666666666667,9039.969050958,9040.645195125,13,9040.035950791,9040.10183,9040.674831666,9041.584887833,1,0.67614416700053
131,38,24,categorization,0,kitchen,SHINEd_sun_aarfiyshqohlwkmo.tif,67,0.0666666666666667,0.0666666666666667,1,9041.601161,9042.377841916,13,9041.667948708,9041.734029416,9042.386204,9043.379541375,0,0.776680916000259
131,39,24,categorization,0,bathroom,SHINEd_labelme_sfxiulhjbhlyiyt.tif,11,0.0666666666666667,0.0666666666666667,1.63333333333333,9043.384783125,9044.096909166,13,9043.446361125,9043.507571541,9044.109884833,9045.736601666,1,0.712126041000374
131,40,24,categorization,0,kitchen,SHINEd_sun_axyyrmzcupyhlivc.tif,107,0.0666666666666667,0.0666666666666667,1.36666666666667,9045.751311416,9046.471095583,9,9045.8180555,9045.884319291,9046.490669041,9047.850706833,1,0.719784167000398
131,41,24,categorization,0,bathroom,SHINEd_sun_aavhrsfjbserjtht.tif,13,0.0666666666666667,0.0666666666666667,1.1,9047.866353583,9048.791284708,13,9047.933075041,9047.999341125,9048.8053655,9049.898753083,1,0.924931125000512
131,42,24,categorization,0,kitchen,SHINEd_sun_adgqasybjyktddhj.tif,78,0.0666666666666667,0.0666666666666667,1.43333333333333,9049.910562625,9050.848687541,9,9049.975783375,9050.043563041,9050.866306375,9052.293010875,1,0.938124915999651
131,43,24,categorization,0,bathroom,SHINEd_sun_ajlawzvmubibwbpy.tif,30,0.0666666666666667,0.0666666666666667,0.883333333333333,9052.310886375,9053.113791416,13,9052.377741,9052.444126041,9053.133832083,9054.01053725,1,0.802905041000486
131,44,24,categorization,0,kitchen,SHINEd_sun_acfmftudsenhrfhy.tif,74,0.0666666666666667,0.0666666666666667,1.86666666666667,9054.026601625,9054.640934,13,9054.089207,9054.149522125,9054.651299208,9056.511340375,0,0.614332374998412
131,45,24,categorization,0,kitchen,SHINEd_sun_acgtpgfybqjmzeyw.tif,75,0.0666666666666667,0.0666666666666667,0.966666666666667,9056.529057958,9057.242376916,9,9056.595689041,9056.661783916,9057.267183291,9058.227187791,1,0.713318957999945
131,46,24,categorization,0,bathroom,SHINEd_sun_aleqenyvunhactkl.tif,32,0.0666666666666667,0.0666666666666667,1.86666666666667,9058.233026208,9058.961457208,9,9058.294768666,9058.355778541,9058.974562166,9060.83461925,0,0.728431000001365
131,47,24,categorization,0,kitchen,SHINEd_sun_abftihopvusyfakt.tif,71,0.0666666666666667,0.0666666666666667,1.33333333333333,9060.853342666,9061.804731833,13,9060.919909333,9060.985793333,9061.825336041,9063.152043,0,0.951389166999434
131,48,24,categorization,0,bathroom,SHINEd_sun_aqrpegblszgcoujh.tif,48,0.0666666666666667,0.0666666666666667,0.766666666666667,9063.163646791,9063.908141583,9,9063.228797541,9063.296554458,9063.936426125,9064.69648175,0,0.744494792001205
131,49,24,categorization,0,bathroom,SHINEd_sun_atstyziqcmkahyxk.tif,51,0.0666666666666667,0.0666666666666667,1,9064.713715708,9065.464992791,9,9064.7808535,9064.84632675,9065.481672708,9066.475012541,0,0.751277082999877
131,50,24,categorization,0,bathroom,SHINEd_sun_aspsyogrekjtfozg.tif,50,0.0666666666666667,0.0666666666666667,0.716666666666667,9066.480714208,9067.120947666,13,9066.542334,9066.603705,9067.138925291,9067.84893025,1,0.640233457999784
