sub_num,trial,block,task,is_practice,category,image,texture,duration,mask_dur,jitter,stim_time,time_of_resp,trial_response,mask_time,fix_time,jit_onset,trial_end,trial_accuracy,RT
101,1,6,categorization,0,kitchen,SHINEd_sun_ahljzhgcdpomplvg.tif,91,0.0833333333333333,0.0666666666666667,0.966666666666667,1264.173484458,1264.879607166,9,1264.252591791,1264.313123541,1264.898753958,1265.85875975,NaN,NaN
101,2,6,categorization,0,bathroom,SHINEd_sun_auzqhkafidnkrwmo.tif,54,0.0833333333333333,0.0666666666666667,1.73333333333333,1265.866036583,1266.527297541,13,1265.944471,1266.005354958,1266.540730583,1268.267439666,NaN,NaN
101,3,6,categorization,0,bathroom,SHINEd_sun_agrwbmhcpmfuwmsg.tif,24,0.0833333333333333,0.0666666666666667,1.91666666666667,1268.284563916,1269.299686416,13,1268.368310625,1268.432503291,1269.323535291,1271.233572583,NaN,NaN
101,4,6,categorization,0,kitchen,SHINEd_sun_axyyrmzcupyhlivc.tif,107,0.0833333333333333,0.0666666666666667,0.766666666666667,1271.252274416,1274.070573541,13,1271.336229125,1271.402155958,1274.088369625,1274.848376291,NaN,NaN
101,5,6,categorization,0,bathroom,SHINEd_sun_akiytfaagpdsphgz.tif,31,0.0833333333333333,0.0666666666666667,0.916666666666667,1274.853763458,1275.631073583,13,1274.932167083,1274.993213583,1275.645189208,1276.555194375,NaN,NaN
101,6,6,categorization,0,kitchen,SHINEd_sun_acfmftudsenhrfhy.tif,74,0.0833333333333333,0.0666666666666667,1.18333333333333,1276.560744375,1277.326509083,9,1276.639150125,1276.699949583,1277.335265958,1278.511980333,NaN,NaN
101,7,6,categorization,0,kitchen,SHINEd_sun_afuyedyxivkhecmu.tif,85,0.0833333333333333,0.0666666666666667,1.8,1278.522673791,1279.172732958,9,1278.605927291,1278.672057625,1279.195102416,1280.988469375,NaN,NaN
101,8,6,categorization,0,bathroom,SHINEd_labelme_sfxiulhjbhlyiyt.tif,11,0.0833333333333333,0.0666666666666667,0.883333333333333,1281.00545525,1281.702357958,13,1281.087072166,1281.154754375,1281.728082208,1282.604755,NaN,NaN
101,9,6,categorization,0,kitchen,SHINEd_sun_aadbddgrdsjugojn.tif,64,0.0833333333333333,0.0666666666666667,1.83333333333333,1282.610497708,1283.374754375,9,1282.688851125,1282.749869416,1283.384984375,1285.211689333,NaN,NaN
101,10,6,categorization,0,bathroom,SHINEd_sun_aleqenyvunhactkl.tif,32,0.0833333333333333,0.0666666666666667,1.76666666666667,1285.224753791,1285.966557333,13,1285.308133833,1285.374507166,1285.978425,1287.738476541,NaN,NaN
101,11,6,categorization,0,kitchen,SHINEd_sun_abdxkyyxwfskuaqb.tif,70,0.0833333333333333,0.0666666666666667,0.983333333333333,1287.755786,1288.550485208,9,1287.838896,1287.904850833,1288.578164208,1289.554836,NaN,NaN
101,12,6,categorization,0,kitchen,SHINEd_sun_akcjzhbbjlbogpdi.tif,99,0.0833333333333333,0.0666666666666667,0.883333333333333,1289.560488791,1290.366838083,9,1289.638824625,1289.699895125,1290.384973,1291.261646041,NaN,NaN
101,13,6,categorization,0,bathroom,SHINEd_sun_ausgutylgojavyoq.tif,53,0.0833333333333333,0.0666666666666667,0.85,1291.267173,1291.951367375,13,1291.345582958,1291.406491583,1291.958511208,1292.80184925,NaN,NaN
101,14,6,categorization,0,bathroom,SHINEd_sun_aghyqhbptboemmoq.tif,23,0.0833333333333333,0.0666666666666667,0.733333333333333,1292.807310375,1294.087162041,13,1292.885681291,1292.94670875,1294.098771333,1294.825442208,NaN,NaN
101,15,6,categorization,0,bathroom,SHINEd_sun_agguqiubmwhqqunb.tif,22,0.0833333333333333,0.0666666666666667,1.88333333333333,1294.832607666,1295.535366875,9,1294.910980791,1294.97190975,1295.540724583,1297.417431666,NaN,NaN
101,16,6,categorization,0,bathroom,SHINEd_sun_asfwthctfqerjvxr.tif,49,0.0833333333333333,0.0666666666666667,0.816666666666667,1297.429521,1298.551455541,13,1297.512929333,1297.578682166,1298.568369166,1299.37837625,NaN,NaN
101,17,6,categorization,0,bathroom,SHINEd_sun_acduarbnmmoglmiv.tif,16,0.0833333333333333,0.0666666666666667,1.9,1299.383820541,1300.566436833,13,1299.462266291,1299.523217958,1300.575375708,1302.468764166,NaN,NaN
101,18,6,categorization,0,kitchen,SHINEd_sun_aapllqyqlykszopd.tif,66,0.0833333333333333,0.0666666666666667,0.983333333333333,1302.485110041,1303.887187666,9,1302.568321083,1302.634419541,1303.903676833,1304.880350166,NaN,NaN
101,19,6,categorization,0,bathroom,SHINEd_sun_ambriybtogmepttm.tif,36,0.0833333333333333,0.0666666666666667,0.75,1304.885798958,1305.66290975,13,1304.964153458,1305.025367208,1305.677548208,1306.420887125,NaN,NaN
101,20,6,categorization,0,kitchen,SHINEd_sun_abpwyqmlzafvklqo.tif,72,0.0833333333333333,0.0666666666666667,1.6,1306.426349666,1307.302599625,9,1306.504618625,1306.565734208,1307.318045541,1308.911424583,NaN,NaN
101,21,6,categorization,0,kitchen,SHINEd_sun_azmutvzbxypaceni.tif,110,0.0833333333333333,0.0666666666666667,1.58333333333333,1308.927962333,1309.983582708,9,1309.011022458,1309.077304541,1309.998208416,1311.574909125,NaN,NaN
101,22,6,categorization,0,kitchen,SHINEd_labelme_kxvouciolcpqplr.tif,62,0.0833333333333333,0.0666666666666667,1.11666666666667,1311.591608541,1312.37012675,9,1311.67509425,1311.740976666,1312.397260291,1313.507315875,NaN,NaN
101,23,6,categorization,0,bathroom,SHINEd_sun_avhrdrntsqrjzccq.tif,55,0.0833333333333333,0.0666666666666667,1.53333333333333,1313.516359583,1314.393200875,9,1313.597839208,1313.665837916,1314.421886791,1315.948594208,NaN,NaN
101,24,6,categorization,0,bathroom,SHINEd_sun_aljolscmmzydegqp.tif,33,0.0833333333333333,0.0666666666666667,1.48333333333333,1315.962780583,1316.587414833,13,1316.045663375,1316.111985625,1316.600893458,1318.07760825,NaN,NaN
101,25,6,categorization,0,kitchen,SHINEd_sun_abdenxonkemggwsq.tif,69,0.0833333333333333,0.0666666666666667,1.1,1318.094961916,1318.787850041,9,1318.178982875,1318.243989708,1318.816981875,1319.910351833,NaN,NaN
101,26,6,categorization,0,bathroom,SHINEd_sun_abapwbhyhkfixyex.tif,14,0.0833333333333333,0.0666666666666667,0.933333333333333,1319.919831625,1320.655989,9,1320.00136,1320.069165291,1320.675591166,1321.60229125,NaN,NaN
101,27,6,categorization,0,kitchen,SHINEd_sun_auaiucuqpdausiva.tif,102,0.0833333333333333,0.0666666666666667,0.816666666666667,1321.618000333,1322.175010166,9,1321.701102291,1321.767267166,1322.186381625,1322.996388166,NaN,NaN
101,28,6,categorization,0,kitchen,SHINEd_sun_aunzlwrbjumxhwdj.tif,103,0.0833333333333333,0.0666666666666667,1.78333333333333,1323.001911083,1323.902299958,9,1323.080414458,1323.14123225,1323.909784625,1325.686486875,NaN,NaN
101,29,6,categorization,0,bathroom,SHINEd_sun_anryaplzeujmzfkd.tif,39,0.0833333333333333,0.0666666666666667,0.766666666666667,1325.702512958,1326.744866583,9,1325.785830583,1325.852286833,1326.757664458,1327.517669,NaN,NaN
101,30,6,categorization,0,kitchen,SHINEd_sun_aypmqwcualkenuoe.tif,109,0.0833333333333333,0.0666666666666667,1.45,1327.523345666,1328.294771666,9,1327.601855666,1327.6628115,1328.297878833,1329.741251708,NaN,NaN
101,31,6,categorization,0,bathroom,SHINEd_sun_alkosphxlxwjwgjd.tif,34,0.0833333333333333,0.0666666666666667,0.75,1329.758047958,1330.274620375,13,1329.84189825,1329.90739525,1330.29710175,1331.040477291,NaN,NaN
101,32,6,categorization,0,kitchen,SHINEd_labelme_rykdqxenmhulbdn.tif,63,0.0833333333333333,0.0666666666666667,1.36666666666667,1331.056226708,1331.790577708,9,1331.139429125,1331.205467083,1331.808044875,1333.168085916,NaN,NaN
101,33,6,categorization,0,kitchen,SHINEd_sun_aarfiyshqohlwkmo.tif,67,0.0833333333333333,0.0666666666666667,0.75,1333.183993083,1333.94740525,9,1333.26734175,1333.333181291,1333.9730445,1334.716432291,NaN,NaN
101,34,6,categorization,0,kitchen,SHINEd_sun_aaxxjlsuzvqlgylf.tif,68,0.0833333333333333,0.0666666666666667,0.783333333333333,1334.73433025,1335.406380791,9,1334.817613041,1334.883377375,1335.419250666,1336.195921666,NaN,NaN
101,35,6,categorization,0,bathroom,SHINEd_sun_abjtwfukuwddzted.tif,15,0.0833333333333333,0.0666666666666667,1.11666666666667,1336.201485083,1336.7429855,13,1336.279844625,1336.340800416,1336.759462291,1337.869516541,NaN,NaN
101,36,6,categorization,0,kitchen,SHINEd_sun_adgqasybjyktddhj.tif,78,0.0833333333333333,0.0666666666666667,0.766666666666667,1337.87862025,1338.862178625,9,1337.959744625,1338.027778291,1338.884394708,1339.644444,NaN,NaN
101,37,6,categorization,0,bathroom,SHINEd_sun_ajlawzvmubibwbpy.tif,30,0.0833333333333333,0.0666666666666667,0.716666666666667,1339.659767041,1340.262930541,13,1339.742942458,1339.809042375,1340.277824583,1340.987829583,NaN,NaN
101,38,6,categorization,0,bathroom,SHINEd_sun_ahijqszoswveeyji.tif,28,0.0833333333333333,0.0666666666666667,1.33333333333333,1340.993283791,1341.591117875,13,1341.071619541,1341.132583833,1341.601106833,1342.927818416,NaN,NaN
101,39,6,categorization,0,kitchen,SHINEd_sun_aenotlpyftoioydp.tif,82,0.0833333333333333,0.0666666666666667,1.75,1342.944259833,1343.658838625,9,1343.029352416,1343.093206416,1343.682812291,1345.426179125,NaN,NaN
101,40,6,categorization,0,kitchen,SHINEd_sun_agubuxuukhzyzpdp.tif,88,0.0833333333333333,0.0666666666666667,1.13333333333333,1345.443389125,1346.1979995,9,1345.526562666,1345.592764208,1346.215368208,1347.3420705,NaN,NaN
101,41,6,categorization,0,bathroom,SHINEd_sun_ahaulkltgpkeeemi.tif,26,0.0833333333333333,0.0666666666666667,1.63333333333333,1347.351022625,1348.023902666,13,1347.434199458,1347.500333541,1348.039539416,1349.666254833,NaN,NaN
101,42,6,categorization,0,kitchen,SHINEd_sun_ajcbwwvdlsvjyzje.tif,96,0.0833333333333333,0.0666666666666667,1.43333333333333,1349.6838135,1350.334070083,13,1349.766866416,1349.832958333,1350.356152791,1351.782865375,NaN,NaN
101,43,6,categorization,0,bathroom,SHINEd_sun_apynckhmoftszqoq.tif,47,0.0833333333333333,0.0666666666666667,1.83333333333333,1351.799276666,1352.408483083,13,1351.8823145,1351.948428416,1352.438312541,1354.265028875,NaN,NaN
101,44,6,categorization,0,bathroom,SHINEd_sun_awnqiikzaispgmwo.tif,56,0.0833333333333333,0.0666666666666667,1.93333333333333,1354.285378291,1354.833206666,13,1354.368408125,1354.435085875,1354.858562458,1356.78528675,NaN,NaN
101,45,6,categorization,0,bathroom,SHINEd_sun_aunuadmjocsddsrl.tif,52,0.0833333333333333,0.0666666666666667,1.26666666666667,1356.802237291,1357.585174666,13,1356.885642,1356.951611291,1357.608334708,1358.868376541,NaN,NaN
101,46,6,categorization,0,kitchen,SHINEd_sun_aegoxogugdkwpmpj.tif,80,0.0833333333333333,0.0666666666666667,1.86666666666667,1358.885375708,1359.891827625,9,1358.968601,1359.034840333,1359.907270833,1361.767314291,NaN,NaN
101,47,6,categorization,0,bathroom,SHINEd_sun_aggnnqpdorgxpvce.tif,21,0.0833333333333333,0.0666666666666667,1.41666666666667,1361.7843495,1363.086979833,9,1361.867646875,1361.933677375,1363.1028,1364.512849291,NaN,NaN
101,48,6,categorization,0,kitchen,SHINEd_sun_ajkqhtgcbgpcwrwn.tif,97,0.0833333333333333,0.0666666666666667,1.11666666666667,1364.529960333,1365.515113791,9,1364.61436725,1364.679227833,1365.535519708,1366.64555125,NaN,NaN
101,49,6,categorization,0,bathroom,SHINEd_sun_apkxzenqapsujocq.tif,45,0.0833333333333333,0.0666666666666667,1.8,1366.654605,1367.154447208,13,1366.735583458,1366.803973125,1367.177050375,1368.970421916,NaN,NaN
101,50,6,categorization,0,kitchen,SHINEd_sun_awcpdzzznmweyyhv.tif,106,0.0833333333333333,0.0666666666666667,1.25,1368.984334916,1369.902563416,9,1369.06761375,1369.133587166,1369.922798041,1371.166182625,NaN,NaN
