sub_num,trial,block,task,is_practice,category,image,texture,duration,mask_dur,jitter,stim_time,time_of_resp,trial_response,mask_time,fix_time,jit_onset,trial_end,trial_accuracy,RT
101,1,2,categorization,0,kitchen,SHINEd_sun_agubuxuukhzyzpdp.tif,88,0.0833333333333333,0.0666666666666667,0.95,700.829490375,701.682055666,9,700.908683666,700.969119166,701.687656041,702.630995041,NaN,NaN
101,2,2,categorization,0,bathroom,SHINEd_sun_asfwthctfqerjvxr.tif,49,0.0833333333333333,0.0666666666666667,0.75,702.636484541,703.289434708,13,702.7149735,702.775888916,703.294537416,704.037874041,NaN,NaN
101,3,2,categorization,0,bathroom,SHINEd_sun_aofnryafpsjimzsb.tif,40,0.0833333333333333,0.0666666666666667,1.68333333333333,704.04314325,705.10574,9,704.121483375,704.182550416,705.117935958,706.794637,NaN,NaN
101,4,2,categorization,0,kitchen,SHINEd_sun_aymvwlarqodbwuoc.tif,108,0.0833333333333333,0.0666666666666667,0.816666666666667,706.810759041,708.242067541,9,706.895011083,706.959817166,708.262504291,709.07250925,NaN,NaN
101,5,2,categorization,0,bathroom,SHINEd_sun_aggnnqpdorgxpvce.tif,21,0.0833333333333333,0.0666666666666667,0.916666666666667,709.077920416,709.72188025,13,709.156271291,709.217259416,709.735923458,710.645929,NaN,NaN
101,6,2,categorization,0,bathroom,SHINEd_sun_aapitsgbtktqubfy.tif,12,0.0833333333333333,0.0666666666666667,1.21666666666667,710.6521675,711.473274541,13,710.730649291,710.7915665,711.477039625,712.687078666,NaN,NaN
101,7,2,categorization,0,kitchen,SHINEd_sun_aamedkxepzlwuxes.tif,65,0.0833333333333333,0.0666666666666667,0.9,712.704229083,713.710069125,9,712.787413833,712.85365375,713.725187083,714.618528583,NaN,NaN
101,8,2,categorization,0,bathroom,SHINEd_sun_anhioqovhscjqqwb.tif,38,0.0833333333333333,0.0666666666666667,1.65,714.62436425,715.233477916,13,714.702743625,714.763684375,715.249250666,716.892617166,NaN,NaN
101,9,2,categorization,0,bathroom,SHINEd_sun_ahijqszoswveeyji.tif,28,0.0833333333333333,0.0666666666666667,1.15,716.911232541,717.988565916,13,716.994675208,717.060751833,718.01567625,719.159063583,NaN,NaN
101,10,2,categorization,0,kitchen,SHINEd_sun_auaiucuqpdausiva.tif,102,0.0833333333333333,0.0666666666666667,1.13333333333333,719.168836083,720.03294775,13,719.25042625,719.318104041,720.057838833,721.184541083,NaN,NaN
101,11,2,categorization,0,kitchen,SHINEd_sun_aunzlwrbjumxhwdj.tif,103,0.0833333333333333,0.0666666666666667,1.76666666666667,721.204222458,722.402622041,9,721.2874595,721.353481708,722.427070666,724.187109458,NaN,NaN
101,12,2,categorization,0,kitchen,SHINEd_sun_acwjdupvyjsugpay.tif,76,0.0833333333333333,0.0666666666666667,1.8,724.204506166,724.952764541,9,724.287247916,724.353934833,724.977211583,726.770582083,NaN,NaN
101,13,2,categorization,0,kitchen,SHINEd_sun_aegoxogugdkwpmpj.tif,80,0.0833333333333333,0.0666666666666667,0.9,726.788107041,727.582033833,9,726.871028041,726.937118166,727.610167041,728.503505,NaN,NaN
101,14,2,categorization,0,kitchen,SHINEd_sun_aeqdocilnnpuvuhx.tif,83,0.0833333333333333,0.0666666666666667,0.716666666666667,728.508953958,729.689940208,9,728.587413083,728.648295958,729.700393708,730.410398291,NaN,NaN
101,15,2,categorization,0,kitchen,SHINEd_sun_afuyedyxivkhecmu.tif,85,0.0833333333333333,0.0666666666666667,1.36666666666667,730.415696833,731.129706166,9,730.494101166,730.555093708,731.14021725,732.500252666,NaN,NaN
101,16,2,categorization,0,kitchen,SHINEd_sun_agorklincwxrdtga.tif,87,0.0833333333333333,0.0666666666666667,0.916666666666667,732.517700583,733.157064916,9,732.600501875,732.666544291,733.172673291,734.082707916,NaN,NaN
101,17,2,categorization,0,kitchen,SHINEd_sun_aenotlpyftoioydp.tif,82,0.0833333333333333,0.0666666666666667,0.716666666666667,734.098472666,734.88141975,9,734.181353625,734.24747975,734.899959375,735.609964,NaN,NaN
101,18,2,categorization,0,bathroom,SHINEd_sun_axldvoqbuvuggfmq.tif,57,0.0833333333333333,0.0666666666666667,0.766666666666667,735.615463541,736.281261791,9,735.693803166,735.754874791,736.289936875,737.049941,NaN,NaN
101,19,2,categorization,0,kitchen,SHINEd_sun_azmutvzbxypaceni.tif,110,0.0833333333333333,0.0666666666666667,1.06666666666667,737.055574791,737.761697583,9,737.133970291,737.194937125,737.780359791,738.840414291,NaN,NaN
101,20,2,categorization,0,kitchen,SHINEd_labelme_brsyyvweiuaazfr.tif,61,0.0833333333333333,0.0666666666666667,0.8,738.849707666,739.787788,9,738.930922791,738.998182416,739.804305083,740.597693791,NaN,NaN
101,21,2,categorization,0,bathroom,SHINEd_sun_abjtwfukuwddzted.tif,15,0.0833333333333333,0.0666666666666667,0.866666666666667,740.613127458,741.233465458,13,740.696105916,740.762167416,741.247777416,742.107782125,NaN,NaN
101,22,2,categorization,0,bathroom,SHINEd_sun_akiytfaagpdsphgz.tif,31,0.0833333333333333,0.0666666666666667,1.48333333333333,742.113224791,742.729352125,13,742.191656583,742.252995666,742.738190708,744.214895416,NaN,NaN
101,23,2,categorization,0,kitchen,SHINEd_sun_ahpczsiumwwocjkv.tif,92,0.0833333333333333,0.0666666666666667,1.1,744.231667208,745.007172291,9,744.314715583,744.381205125,745.019990333,746.113360625,NaN,NaN
101,24,2,categorization,0,kitchen,SHINEd_sun_ahspylgoovwmwvgk.tif,93,0.0833333333333333,0.0666666666666667,0.783333333333333,746.121937125,746.914161791,9,746.202980375,746.269908416,746.943036708,747.719756333,NaN,NaN
101,25,2,categorization,0,bathroom,SHINEd_sun_axyrejkiiaqiurjk.tif,59,0.0833333333333333,0.0666666666666667,0.866666666666667,747.737129791,748.457578166,9,747.820406666,747.886292083,748.471710125,749.331714375,NaN,NaN
101,26,2,categorization,0,bathroom,SHINEd_sun_ausgutylgojavyoq.tif,53,0.0833333333333333,0.0666666666666667,1.83333333333333,749.337050083,750.337689375,9,749.415733458,749.47643325,750.344998958,752.171718291,NaN,NaN
101,27,2,categorization,0,kitchen,SHINEd_sun_aypmqwcualkenuoe.tif,109,0.0833333333333333,0.0666666666666667,0.7,752.188754791,753.577646625,9,752.2716625,752.338382333,753.591029125,754.284367125,NaN,NaN
101,28,2,categorization,0,bathroom,SHINEd_sun_aclfzgynxzxlbepz.tif,19,0.0833333333333333,0.0666666666666667,1.33333333333333,754.289558833,754.857721208,13,754.367978708,754.428849583,754.864200208,756.190912541,NaN,NaN
101,29,2,categorization,0,bathroom,SHINEd_sun_ahqjwnzgolcaoidx.tif,29,0.0833333333333333,0.0666666666666667,1.33333333333333,756.209132791,756.795037416,13,756.29224225,756.3581895,756.814658875,758.141371083,NaN,NaN
101,30,2,categorization,0,bathroom,SHINEd_sun_anryaplzeujmzfkd.tif,39,0.0833333333333333,0.0666666666666667,1.38333333333333,758.158845708,758.988917208,13,758.2423585,758.307067125,759.013990083,760.39069725,NaN,NaN
101,31,2,categorization,0,kitchen,SHINEd_sun_agzzivivdpnawacl.tif,89,0.0833333333333333,0.0666666666666667,1.25,760.407991291,761.269626625,13,760.49146875,760.557923375,761.297620625,762.540995041,NaN,NaN
101,32,2,categorization,0,kitchen,SHINEd_sun_ahljzhgcdpomplvg.tif,91,0.0833333333333333,0.0666666666666667,1.55,762.558058166,763.282967583,9,762.641682333,762.707903375,763.297105666,764.840470625,NaN,NaN
101,33,2,categorization,0,bathroom,SHINEd_sun_agrwbmhcpmfuwmsg.tif,24,0.0833333333333333,0.0666666666666667,1.61666666666667,764.8571425,766.381754875,9,764.940663666,765.006596791,766.39733325,768.007383875,NaN,NaN
101,34,2,categorization,0,bathroom,SHINEd_sun_apeeialkgkuxddgh.tif,42,0.0833333333333333,0.0666666666666667,1.33333333333333,768.019479708,768.868393833,13,768.102605166,768.168578875,768.891631708,770.218348125,NaN,NaN
101,35,2,categorization,0,kitchen,SHINEd_sun_aehawpgmrlhlvcow.tif,81,0.0833333333333333,0.0666666666666667,0.833333333333333,770.236842458,770.916243125,9,770.320012333,770.386332,770.943018166,771.769742458,NaN,NaN
101,36,2,categorization,0,bathroom,SHINEd_sun_aqrpegblszgcoujh.tif,48,0.0833333333333333,0.0666666666666667,1.45,771.786885041,772.393166958,13,771.870127,771.934322666,772.402806458,773.846186125,NaN,NaN
101,37,2,categorization,0,bathroom,SHINEd_sun_acduarbnmmoglmiv.tif,16,0.0833333333333333,0.0666666666666667,0.933333333333333,773.862362583,774.601439833,13,773.945575583,774.012124416,774.618123041,775.544796416,NaN,NaN
101,38,2,categorization,0,kitchen,SHINEd_sun_awcpdzzznmweyyhv.tif,106,0.0833333333333333,0.0666666666666667,1.65,775.552346625,776.14522975,9,775.630919833,775.691718416,776.16017925,777.803545416,NaN,NaN
101,39,2,categorization,0,bathroom,SHINEd_sun_apynckhmoftszqoq.tif,47,0.0833333333333333,0.0666666666666667,1.23333333333333,777.820559875,778.313945083,13,777.903734208,777.970067333,778.343170291,779.569887125,NaN,NaN
101,40,2,categorization,0,kitchen,SHINEd_sun_abpwyqmlzafvklqo.tif,72,0.0833333333333333,0.0666666666666667,0.766666666666667,779.5867135,780.063684625,9,779.669762458,779.735770583,780.073328708,780.833372125,NaN,NaN
101,41,2,categorization,0,bathroom,SHINEd_sun_auzqhkafidnkrwmo.tif,54,0.0833333333333333,0.0666666666666667,1.78333333333333,780.849112833,781.601024666,9,780.931911333,780.9977405,781.61665125,783.39337075,NaN,NaN
101,42,2,categorization,0,bathroom,SHINEd_sun_acgyywnybuveqsro.tif,18,0.0833333333333333,0.0666666666666667,1.11666666666667,783.410314041,783.962029583,13,783.493528375,783.560182375,783.981203916,785.091239041,NaN,NaN
101,43,2,categorization,0,kitchen,SHINEd_sun_amjjdeyrggfqgmom.tif,100,0.0833333333333333,0.0666666666666667,1.85,785.101562041,785.851936791,9,785.183488916,785.250706791,785.873931166,787.71730675,NaN,NaN
101,44,2,categorization,0,bathroom,SHINEd_sun_aoybiabnpadelefl.tif,41,0.0833333333333333,0.0666666666666667,0.733333333333333,787.734038083,788.881518541,13,787.817745416,787.883404541,788.905374083,789.632047375,NaN,NaN
101,45,2,categorization,0,bathroom,SHINEd_sun_aspsyogrekjtfozg.tif,50,0.0833333333333333,0.0666666666666667,0.783333333333333,789.637388125,790.384737791,13,789.715871,789.776667916,790.395126333,791.17179675,NaN,NaN
101,46,2,categorization,0,kitchen,SHINEd_sun_abrcnpqqhmjwekyf.tif,73,0.0833333333333333,0.0666666666666667,1.5,791.1773315,791.720817458,9,791.255768666,791.316706208,791.735343083,793.228715458,NaN,NaN
101,47,2,categorization,0,bathroom,SHINEd_sun_apkxzenqapsujocq.tif,45,0.0833333333333333,0.0666666666666667,0.733333333333333,793.245377208,793.910303,13,793.328314333,793.394979875,793.934769916,794.661479166,NaN,NaN
101,48,2,categorization,0,bathroom,SHINEd_sun_agyqfjcfkdcydepw.tif,25,0.0833333333333333,0.0666666666666667,1.1,794.677842333,795.617536333,13,794.760820958,794.827145875,795.629519708,796.722906875,NaN,NaN
101,49,2,categorization,0,kitchen,SHINEd_sun_aixorpehvfykdynp.tif,95,0.0833333333333333,0.0666666666666667,1.6,796.731402583,797.146026458,9,796.81284625,796.880840375,797.169339458,798.762688166,NaN,NaN
101,50,2,categorization,0,bathroom,SHINEd_sun_ambriybtogmepttm.tif,36,0.0833333333333333,0.0666666666666667,1.06666666666667,798.7687155,799.289424625,13,798.847165333,798.908154875,799.293301791,800.353340958,NaN,NaN
