sub_num,trial,block,task,is_practice,category,image,texture,duration,mask_dur,jitter,stim_time,time_of_resp,trial_response,mask_time,fix_time,jit_onset,trial_end,trial_accuracy,RT
101,1,0,categorization,1,kitchen,SHINEd_kitchen_practice1.tif,116,0.0666666666666667,0.0666666666666667,1.21666666666667,4099.868621208,4101.421776666,13,4099.930364416,4099.997664333,4101.438515458,4102.647739041,0,1.55315545800022
101,2,0,categorization,1,kitchen,SHINEd_kitchen_practice2.tif,117,0.0666666666666667,0.0666666666666667,1.36666666666667,4102.689166041,4103.306301791,9,4102.766171708,4102.831344125,4103.342203833,4104.700796125,1,0.617135749999761
101,3,0,categorization,1,bathroom,SHINEd_bathroom_practice1.tif,111,0.0666666666666667,0.0666666666666667,1.85,4104.735932,4105.176148458,9,4104.809525416,4104.868479666,4105.193827583,4107.035571708,0,0.440216458000577
101,4,0,categorization,1,kitchen,SHINEd_kitchen_practice5.tif,120,0.0666666666666667,0.0666666666666667,1.55,4107.048565416,4107.530202166,13,4107.113517083,4107.176316875,4107.549256625,4109.090992333,0,0.48163674999978
101,5,0,categorization,1,bathroom,SHINEd_bathroom_practice5.tif,115,0.0666666666666667,0.0666666666666667,1.48333333333333,4109.102854958,4109.550387083,9,4109.176294375,4109.23405175,4109.573670083,4111.048734166,0,0.44753212500018
101,6,0,categorization,1,bathroom,SHINEd_bathroom_practice3.tif,113,0.0666666666666667,0.0666666666666667,1.15,4111.059395458,4111.899787333,9,4111.126904708,4111.188570208,4111.915890833,4113.05763375,0,0.840391875000023
101,7,0,categorization,1,bathroom,SHINEd_bathroom_practice4.tif,114,0.0666666666666667,0.0666666666666667,0.733333333333333,4113.062912833,4113.781752166,9,4113.123096375,4113.182467416,4113.78465075,4114.509657291,0,0.718839332999778
101,8,0,categorization,1,kitchen,SHINEd_kitchen_practice3.tif,118,0.0666666666666667,0.0666666666666667,1.6,4114.511877458,4115.901072583,13,4114.57198,4114.631285875,4115.904428375,4117.496158625,0,1.3891951250007
101,9,0,categorization,1,kitchen,SHINEd_kitchen_practice4.tif,119,0.0666666666666667,0.0666666666666667,0.716666666666667,4117.507189041,4118.514648375,9,4117.57282275,4117.636856958,4118.528050083,4119.23639375,1,1.00745933400049
101,10,0,categorization,1,bathroom,SHINEd_bathroom_practice2.tif,112,0.0666666666666667,0.0666666666666667,1.21666666666667,4119.238763458,4120.453836125,13,4119.299014958,4119.358172041,4120.456782375,4121.665213,1,1.21507266699973
101,1,1,categorization,0,kitchen,SHINEd_sun_avszsnwsbuqfgzbn.tif,105,0.0666666666666667,0.0666666666666667,1.23333333333333,4127.6481415,4128.389882708,9,4127.708298041,4127.767679291,4128.3929645,4129.618022791,1,0.741741208000349
101,2,1,categorization,0,bathroom,SHINEd_sun_aavhrsfjbserjtht.tif,13,0.0666666666666667,0.0666666666666667,0.783333333333333,4129.628007958,4130.826920666,9,4129.694867958,4129.757861333,4130.84101275,4131.61602,0,1.19891270799963
101,3,1,categorization,0,kitchen,SHINEd_labelme_rykdqxenmhulbdn.tif,63,0.0666666666666667,0.0666666666666667,0.75,4131.617961041,4132.734017458,9,4131.678128833,4131.737299541,4132.737011083,4133.478688125,1,1.11605641700044
101,4,1,categorization,0,kitchen,SHINEd_sun_akcjzhbbjlbogpdi.tif,99,0.0666666666666667,0.0666666666666667,1.23333333333333,4133.480544166,4134.332971333,9,4133.540527958,4133.599914166,4134.335838708,4135.560905875,1,0.852427167000315
101,5,1,categorization,0,bathroom,SHINEd_sun_aljolscmmzydegqp.tif,33,0.0666666666666667,0.0666666666666667,1.13333333333333,4135.571946458,4136.793504416,9,4135.638249333,4135.702051041,4136.808449375,4137.93352425,0,1.22155795800063
101,6,1,categorization,0,kitchen,SHINEd_sun_admlmbcdswaszruo.tif,79,0.0666666666666667,0.0666666666666667,0.95,4137.939292333,4138.884923791,9,4138.003328916,4138.068730708,4138.896117208,4139.837888208,1,0.945631458000207
101,7,1,categorization,0,kitchen,SHINEd_sun_abdenxonkemggwsq.tif,69,0.0666666666666667,0.0666666666666667,0.733333333333333,4139.847577083,4140.781278333,13,4139.913609958,4139.968069666,4140.784135333,4141.509146291,0,0.933701250000013
101,8,1,categorization,0,kitchen,SHINEd_sun_aqeaevwwwjoqhzvl.tif,101,0.0666666666666667,0.0666666666666667,1.31666666666667,4141.511279083,4142.469832916,9,4141.571390583,4141.630699958,4142.472686458,4143.781101958,1,0.958553833000224
101,9,1,categorization,0,bathroom,SHINEd_sun_ahcvzmoyaycdoftf.tif,27,0.0666666666666667,0.0666666666666667,0.8,4143.790896583,4144.436893125,13,4143.856476666,4143.92088775,4144.450328083,4145.242076375,1,0.645996541999921
101,10,1,categorization,0,kitchen,SHINEd_sun_ahdycvpopffkzzsu.tif,90,0.0666666666666667,0.0666666666666667,0.716666666666667,4145.251154666,4146.317516291,13,4145.316263958,4145.380468333,4146.320451708,4147.028794291,0,1.06636162500035
101,11,1,categorization,0,bathroom,SHINEd_sun_atstyziqcmkahyxk.tif,51,0.0666666666666667,0.0666666666666667,0.916666666666667,4147.030983333,4147.709079708,13,4147.09111975,4147.150344875,4147.712002958,4148.620344791,1,0.678096374999768
101,12,1,categorization,0,bathroom,SHINEd_sun_aunuadmjocsddsrl.tif,52,0.0666666666666667,0.0666666666666667,0.95,4148.622807458,4149.588847416,13,4148.683165625,4148.742318125,4149.591747083,4150.533422625,1,0.966039957999783
101,13,1,categorization,0,kitchen,SHINEd_sun_adgqasybjyktddhj.tif,78,0.0666666666666667,0.0666666666666667,0.833333333333333,4150.535753166,4151.213341083,9,4150.595966625,4150.655282708,4151.216102,4152.041108791,1,0.677587916999983
101,14,1,categorization,0,kitchen,SHINEd_sun_aapllqyqlykszopd.tif,66,0.0666666666666667,0.0666666666666667,0.75,4152.043261625,4152.797881333,9,4152.103341166,4152.162653833,4152.800751375,4153.542427375,1,0.754619708000064
101,15,1,categorization,0,bathroom,SHINEd_sun_alkosphxlxwjwgjd.tif,34,0.0666666666666667,0.0666666666666667,1.53333333333333,4153.544733208,4154.300749916,13,4153.604851541,4153.664217333,4154.303687416,4155.828803208,1,0.756016708000061
101,16,1,categorization,0,kitchen,SHINEd_sun_aaxxjlsuzvqlgylf.tif,68,0.0666666666666667,0.0666666666666667,1.05,4155.838793041,4156.685769416,9,4155.904827333,4155.968853416,4156.698313666,4157.740065416,1,0.84697637499994
101,17,1,categorization,0,bathroom,SHINEd_sun_avhrdrntsqrjzccq.tif,55,0.0666666666666667,0.0666666666666667,0.9,4157.745266166,4158.52806125,13,4157.808400833,4157.873684833,4158.541662625,4159.43341575,1,0.782795084000099
101,18,1,categorization,0,bathroom,SHINEd_sun_axxbkopsgyouuebh.tif,58,0.0666666666666667,0.0666666666666667,1.18333333333333,4159.442630208,4160.101474125,13,4159.507489291,4159.572415208,4160.104963666,4161.28004725,1,0.658843917000013
101,19,1,categorization,0,bathroom,SHINEd_sun_abapwbhyhkfixyex.tif,14,0.0666666666666667,0.0666666666666667,0.9,4161.286430458,4162.017937125,9,4161.351421958,4161.416393166,4162.030658416,4162.922403458,0,0.731506666999849
101,20,1,categorization,0,kitchen,SHINEd_sun_abdxkyyxwfskuaqb.tif,70,0.0666666666666667,0.0666666666666667,1.66666666666667,4162.932072041,4163.661331583,13,4162.997272125,4163.061735875,4163.664846875,4165.3232705,0,0.729259542000364
101,21,1,categorization,0,bathroom,SHINEd_sun_aghyqhbptboemmoq.tif,23,0.0666666666666667,0.0666666666666667,1.13333333333333,4165.334585583,4165.799912583,13,4165.399836166,4165.464468583,4165.810223583,4166.935280791,1,0.465326999999888
101,22,1,categorization,0,bathroom,SHINEd_sun_alotolagknyrgtsk.tif,35,0.0666666666666667,0.0666666666666667,1.3,4166.942893833,4167.637218125,13,4167.008259375,4167.072960583,4167.65109275,4168.942818166,1,0.694324291999692
101,23,1,categorization,0,bathroom,SHINEd_sun_afcoljnjfoxjtgja.tif,20,0.0666666666666667,0.0666666666666667,1.93333333333333,4168.955249916,4169.591354625,13,4169.021522541,4169.085771375,4169.603413958,4171.528498833,1,0.636104709000392
101,24,1,categorization,0,kitchen,SHINEd_sun_ajcbwwvdlsvjyzje.tif,96,0.0666666666666667,0.0666666666666667,1,4171.540891916,4172.215344666,13,4171.6069685,4171.671656458,4172.226011541,4173.217686375,0,0.674452750000455
101,25,1,categorization,0,kitchen,SHINEd_sun_aggjlwcdjsjcaemh.tif,86,0.0666666666666667,0.0666666666666667,0.883333333333333,4173.220406333,4174.021531041,13,4173.280677208,4173.339928166,4174.024494875,4174.899503041,0,0.801124708000316
101,26,1,categorization,0,kitchen,SHINEd_sun_aadbddgrdsjugojn.tif,64,0.0666666666666667,0.0666666666666667,1.95,4174.90173325,4175.501426958,9,4174.96184775,4175.021113708,4175.504275416,4177.446015166,1,0.599693707999904
101,27,1,categorization,0,kitchen,SHINEd_sun_akchetnepxlcxhsu.tif,98,0.0666666666666667,0.0666666666666667,1.25,4177.457929541,4178.035269166,13,4177.523443625,4177.587645791,4178.048496,4179.290245,0,0.577339624999695
101,28,1,categorization,0,bathroom,SHINEd_sun_ahaulkltgpkeeemi.tif,26,0.0666666666666667,0.0666666666666667,1.95,4179.301279958,4193.132669083,13,4179.36633,4179.430898,4193.137620958,4195.079366166,1,13.831389125
101,29,1,categorization,0,bathroom,SHINEd_sun_awnqiikzaispgmwo.tif,56,0.0666666666666667,0.0666666666666667,1.91666666666667,4195.090242875,4195.728426083,13,4195.157287208,4195.220245083,4195.74207975,4197.650488625,1,0.638183208000555
101,30,1,categorization,0,bathroom,SHINEd_sun_ajlawzvmubibwbpy.tif,30,0.0666666666666667,0.0666666666666667,1.41666666666667,4197.662010541,4198.206548541,13,4197.727153125,4197.792989083,4198.220049458,4199.628454333,1,0.544538000000102
101,31,1,categorization,0,kitchen,SHINEd_sun_ajkqhtgcbgpcwrwn.tif,97,0.0666666666666667,0.0666666666666667,0.716666666666667,4199.639933541,4200.334399916,13,4199.705358291,4199.7702475,4200.345808708,4201.054204583,0,0.694466375000047
101,32,1,categorization,0,bathroom,SHINEd_sun_acegryoqftbzowsg.tif,17,0.0666666666666667,0.0666666666666667,1.28333333333333,4201.063969541,4201.693454166,13,4201.129747291,4201.193552375,4201.696540833,4202.971598375,1,0.629484625000259
101,33,1,categorization,0,kitchen,SHINEd_sun_acxkpeoqbwcxfvip.tif,77,0.0666666666666667,0.0666666666666667,0.9,4202.984482041,4203.587250125,9,4203.049746916,4203.114469625,4203.600781916,4204.492529541,1,0.602768083999763
101,34,1,categorization,0,bathroom,SHINEd_sun_apmqjbnwghzuhhzh.tif,46,0.0666666666666667,0.0666666666666667,0.8,4204.501913875,4205.052612083,13,4204.567515291,4204.631286833,4205.056225958,4205.847900333,1,0.550698207999631
101,35,1,categorization,0,bathroom,SHINEd_sun_agguqiubmwhqqunb.tif,22,0.0666666666666667,0.0666666666666667,1.01666666666667,4205.850184583,4206.380807458,13,4205.91026575,4205.969676083,4206.3836345,4207.392037583,1,0.530622875000518
101,36,1,categorization,0,bathroom,SHINEd_sun_apkruvsevgegsdwp.tif,44,0.0666666666666667,0.0666666666666667,0.85,4207.397591958,4207.961278125,13,4207.460577083,4207.525504833,4207.974840041,4208.816562458,1,0.563686167000014
101,37,1,categorization,0,kitchen,SHINEd_sun_auticobqsbwgoppi.tif,104,0.0666666666666667,0.0666666666666667,1.51666666666667,4208.823998958,4209.524598458,9,4208.889160791,4208.954173625,4209.528218166,4211.036632041,1,0.700599499999953
101,38,1,categorization,0,kitchen,SHINEd_sun_axyyrmzcupyhlivc.tif,107,0.0666666666666667,0.0666666666666667,1.83333333333333,4211.048956625,4211.927692083,9,4211.115302125,4211.17944825,4211.942556166,4213.767634166,1,0.878735457999937
101,39,1,categorization,0,bathroom,SHINEd_sun_apjevzvycyhuqghb.tif,43,0.0666666666666667,0.0666666666666667,0.716666666666667,4213.78010075,4214.421395875,13,4213.846691625,4213.911054958,4214.433174333,4215.141514625,1,0.641295124999488
101,40,1,categorization,0,kitchen,SHINEd_sun_aexklacwqwezaorf.tif,84,0.0666666666666667,0.0666666666666667,0.9,4215.144050291,4215.748916333,13,4215.204338041,4215.263570208,4215.751800333,4216.643472916,0,0.60486604200014
101,41,1,categorization,0,kitchen,SHINEd_sun_abftihopvusyfakt.tif,71,0.0666666666666667,0.0666666666666667,0.916666666666667,4216.645708541,4217.356745,9,4216.705762708,4216.765198625,4217.359587791,4218.267930333,1,0.711036458999843
101,42,1,categorization,0,kitchen,SHINEd_sun_acgtpgfybqjmzeyw.tif,75,0.0666666666666667,0.0666666666666667,0.816666666666667,4218.270148833,4218.893202041,9,4218.33018375,4218.389673833,4218.896409166,4219.704752208,1,0.623053207999874
101,43,1,categorization,0,kitchen,SHINEd_sun_acfmftudsenhrfhy.tif,74,0.0666666666666667,0.0666666666666667,1.88333333333333,4219.706986208,4220.4294805,9,4219.767003791,4219.826497,4220.432345041,4222.307439541,1,0.722494292000192
101,44,1,categorization,0,bathroom,SHINEd_sun_azqyogdvyhahyram.tif,60,0.0666666666666667,0.0666666666666667,0.9,4222.318509875,4222.945673125,13,4222.383888916,4222.448105875,4222.958670041,4223.850342583,1,0.627163250000194
101,45,1,categorization,0,kitchen,SHINEd_sun_ahywdevtimnqcsln.tif,94,0.0666666666666667,0.0666666666666667,1,4223.852640833,4224.485378166,9,4223.912723083,4223.972018416,4224.488388833,4225.480064875,1,0.632737333000478
101,46,1,categorization,0,kitchen,SHINEd_sun_aarfiyshqohlwkmo.tif,67,0.0666666666666667,0.0666666666666667,0.733333333333333,4225.482225833,4226.085349958,9,4225.542336916,4225.601578416,4226.088339708,4226.813349541,1,0.603124125000249
101,47,1,categorization,0,bathroom,SHINEd_labelme_sfxiulhjbhlyiyt.tif,11,0.0666666666666667,0.0666666666666667,0.883333333333333,4226.815307583,4227.3330985,13,4226.875296833,4226.934721583,4227.336073791,4228.211080833,1,0.517790917000639
101,48,1,categorization,0,bathroom,SHINEd_sun_aleqenyvunhactkl.tif,32,0.0666666666666667,0.0666666666666667,1.73333333333333,4228.213266416,4228.773390083,13,4228.273230458,4228.332677291,4228.776761958,4230.501850833,1,0.560123666999971
101,49,1,categorization,0,bathroom,SHINEd_sun_amzlamotzwfkwjco.tif,37,0.0666666666666667,0.0666666666666667,1.91666666666667,4230.513278041,4231.102595375,9,4230.578586916,4230.643231875,4231.115503416,4233.023912291,0,0.589317334000043
101,50,1,categorization,0,kitchen,SHINEd_labelme_kxvouciolcpqplr.tif,62,0.0666666666666667,0.0666666666666667,1.35,4233.035639708,4233.731028416,9,4233.101375875,4233.1656105,4233.743922375,4235.085689833,1,0.695388707999882
