sub_num,trial,block,task,is_practice,category,image,texture,duration,mask_dur,jitter,stim_time,time_of_resp,trial_response,mask_time,fix_time,jit_onset,trial_end,trial_accuracy,RT
101,1,1,categorization,0,kitchen,SHINEd_sun_avszsnwsbuqfgzbn.tif,105,0.0666666666666667,0.0666666666666667,1.23333333333333,4127.6481415,4128.389882708,9,4127.708298041,4127.767679291,4128.3929645,4129.618022791,NaN,NaN
101,2,1,categorization,0,bathroom,SHINEd_sun_aavhrsfjbserjtht.tif,13,0.0666666666666667,0.0666666666666667,0.783333333333333,4129.628007958,4130.826920666,9,4129.694867958,4129.757861333,4130.84101275,4131.61602,NaN,NaN
101,3,1,categorization,0,kitchen,SHINEd_labelme_rykdqxenmhulbdn.tif,63,0.0666666666666667,0.0666666666666667,0.75,4131.617961041,4132.734017458,9,4131.678128833,4131.737299541,4132.737011083,4133.478688125,NaN,NaN
101,4,1,categorization,0,kitchen,SHINEd_sun_akcjzhbbjlbogpdi.tif,99,0.0666666666666667,0.0666666666666667,1.23333333333333,4133.480544166,4134.332971333,9,4133.540527958,4133.599914166,4134.335838708,4135.560905875,NaN,NaN
101,5,1,categorization,0,bathroom,SHINEd_sun_aljolscmmzydegqp.tif,33,0.0666666666666667,0.0666666666666667,1.13333333333333,4135.571946458,4136.793504416,9,4135.638249333,4135.702051041,4136.808449375,4137.93352425,NaN,NaN
101,6,1,categorization,0,kitchen,SHINEd_sun_admlmbcdswaszruo.tif,79,0.0666666666666667,0.0666666666666667,0.95,4137.939292333,4138.884923791,9,4138.003328916,4138.068730708,4138.896117208,4139.837888208,NaN,NaN
101,7,1,categorization,0,kitchen,SHINEd_sun_abdenxonkemggwsq.tif,69,0.0666666666666667,0.0666666666666667,0.733333333333333,4139.847577083,4140.781278333,13,4139.913609958,4139.968069666,4140.784135333,4141.509146291,NaN,NaN
101,8,1,categorization,0,kitchen,SHINEd_sun_aqeaevwwwjoqhzvl.tif,101,0.0666666666666667,0.0666666666666667,1.31666666666667,4141.511279083,4142.469832916,9,4141.571390583,4141.630699958,4142.472686458,4143.781101958,NaN,NaN
101,9,1,categorization,0,bathroom,SHINEd_sun_ahcvzmoyaycdoftf.tif,27,0.0666666666666667,0.0666666666666667,0.8,4143.790896583,4144.436893125,13,4143.856476666,4143.92088775,4144.450328083,4145.242076375,NaN,NaN
101,10,1,categorization,0,kitchen,SHINEd_sun_ahdycvpopffkzzsu.tif,90,0.0666666666666667,0.0666666666666667,0.716666666666667,4145.251154666,4146.317516291,13,4145.316263958,4145.380468333,4146.320451708,4147.028794291,NaN,NaN
101,11,1,categorization,0,bathroom,SHINEd_sun_atstyziqcmkahyxk.tif,51,0.0666666666666667,0.0666666666666667,0.916666666666667,4147.030983333,4147.709079708,13,4147.09111975,4147.150344875,4147.712002958,4148.620344791,NaN,NaN
101,12,1,categorization,0,bathroom,SHINEd_sun_aunuadmjocsddsrl.tif,52,0.0666666666666667,0.0666666666666667,0.95,4148.622807458,4149.588847416,13,4148.683165625,4148.742318125,4149.591747083,4150.533422625,NaN,NaN
101,13,1,categorization,0,kitchen,SHINEd_sun_adgqasybjyktddhj.tif,78,0.0666666666666667,0.0666666666666667,0.833333333333333,4150.535753166,4151.213341083,9,4150.595966625,4150.655282708,4151.216102,4152.041108791,NaN,NaN
101,14,1,categorization,0,kitchen,SHINEd_sun_aapllqyqlykszopd.tif,66,0.0666666666666667,0.0666666666666667,0.75,4152.043261625,4152.797881333,9,4152.103341166,4152.162653833,4152.800751375,4153.542427375,NaN,NaN
101,15,1,categorization,0,bathroom,SHINEd_sun_alkosphxlxwjwgjd.tif,34,0.0666666666666667,0.0666666666666667,1.53333333333333,4153.544733208,4154.300749916,13,4153.604851541,4153.664217333,4154.303687416,4155.828803208,NaN,NaN
101,16,1,categorization,0,kitchen,SHINEd_sun_aaxxjlsuzvqlgylf.tif,68,0.0666666666666667,0.0666666666666667,1.05,4155.838793041,4156.685769416,9,4155.904827333,4155.968853416,4156.698313666,4157.740065416,NaN,NaN
101,17,1,categorization,0,bathroom,SHINEd_sun_avhrdrntsqrjzccq.tif,55,0.0666666666666667,0.0666666666666667,0.9,4157.745266166,4158.52806125,13,4157.808400833,4157.873684833,4158.541662625,4159.43341575,NaN,NaN
101,18,1,categorization,0,bathroom,SHINEd_sun_axxbkopsgyouuebh.tif,58,0.0666666666666667,0.0666666666666667,1.18333333333333,4159.442630208,4160.101474125,13,4159.507489291,4159.572415208,4160.104963666,4161.28004725,NaN,NaN
101,19,1,categorization,0,bathroom,SHINEd_sun_abapwbhyhkfixyex.tif,14,0.0666666666666667,0.0666666666666667,0.9,4161.286430458,4162.017937125,9,4161.351421958,4161.416393166,4162.030658416,4162.922403458,NaN,NaN
101,20,1,categorization,0,kitchen,SHINEd_sun_abdxkyyxwfskuaqb.tif,70,0.0666666666666667,0.0666666666666667,1.66666666666667,4162.932072041,4163.661331583,13,4162.997272125,4163.061735875,4163.664846875,4165.3232705,NaN,NaN
101,21,1,categorization,0,bathroom,SHINEd_sun_aghyqhbptboemmoq.tif,23,0.0666666666666667,0.0666666666666667,1.13333333333333,4165.334585583,4165.799912583,13,4165.399836166,4165.464468583,4165.810223583,4166.935280791,NaN,NaN
101,22,1,categorization,0,bathroom,SHINEd_sun_alotolagknyrgtsk.tif,35,0.0666666666666667,0.0666666666666667,1.3,4166.942893833,4167.637218125,13,4167.008259375,4167.072960583,4167.65109275,4168.942818166,NaN,NaN
101,23,1,categorization,0,bathroom,SHINEd_sun_afcoljnjfoxjtgja.tif,20,0.0666666666666667,0.0666666666666667,1.93333333333333,4168.955249916,4169.591354625,13,4169.021522541,4169.085771375,4169.603413958,4171.528498833,NaN,NaN
101,24,1,categorization,0,kitchen,SHINEd_sun_ajcbwwvdlsvjyzje.tif,96,0.0666666666666667,0.0666666666666667,1,4171.540891916,4172.215344666,13,4171.6069685,4171.671656458,4172.226011541,4173.217686375,NaN,NaN
101,25,1,categorization,0,kitchen,SHINEd_sun_aggjlwcdjsjcaemh.tif,86,0.0666666666666667,0.0666666666666667,0.883333333333333,4173.220406333,4174.021531041,13,4173.280677208,4173.339928166,4174.024494875,4174.899503041,NaN,NaN
101,26,1,categorization,0,kitchen,SHINEd_sun_aadbddgrdsjugojn.tif,64,0.0666666666666667,0.0666666666666667,1.95,4174.90173325,4175.501426958,9,4174.96184775,4175.021113708,4175.504275416,4177.446015166,NaN,NaN
101,27,1,categorization,0,kitchen,SHINEd_sun_akchetnepxlcxhsu.tif,98,0.0666666666666667,0.0666666666666667,1.25,4177.457929541,4178.035269166,13,4177.523443625,4177.587645791,4178.048496,4179.290245,NaN,NaN
101,28,1,categorization,0,bathroom,SHINEd_sun_ahaulkltgpkeeemi.tif,26,0.0666666666666667,0.0666666666666667,1.95,4179.301279958,4193.132669083,13,4179.36633,4179.430898,4193.137620958,4195.079366166,NaN,NaN
101,29,1,categorization,0,bathroom,SHINEd_sun_awnqiikzaispgmwo.tif,56,0.0666666666666667,0.0666666666666667,1.91666666666667,4195.090242875,4195.728426083,13,4195.157287208,4195.220245083,4195.74207975,4197.650488625,NaN,NaN
101,30,1,categorization,0,bathroom,SHINEd_sun_ajlawzvmubibwbpy.tif,30,0.0666666666666667,0.0666666666666667,1.41666666666667,4197.662010541,4198.206548541,13,4197.727153125,4197.792989083,4198.220049458,4199.628454333,NaN,NaN
101,31,1,categorization,0,kitchen,SHINEd_sun_ajkqhtgcbgpcwrwn.tif,97,0.0666666666666667,0.0666666666666667,0.716666666666667,4199.639933541,4200.334399916,13,4199.705358291,4199.7702475,4200.345808708,4201.054204583,NaN,NaN
101,32,1,categorization,0,bathroom,SHINEd_sun_acegryoqftbzowsg.tif,17,0.0666666666666667,0.0666666666666667,1.28333333333333,4201.063969541,4201.693454166,13,4201.129747291,4201.193552375,4201.696540833,4202.971598375,NaN,NaN
101,33,1,categorization,0,kitchen,SHINEd_sun_acxkpeoqbwcxfvip.tif,77,0.0666666666666667,0.0666666666666667,0.9,4202.984482041,4203.587250125,9,4203.049746916,4203.114469625,4203.600781916,4204.492529541,NaN,NaN
101,34,1,categorization,0,bathroom,SHINEd_sun_apmqjbnwghzuhhzh.tif,46,0.0666666666666667,0.0666666666666667,0.8,4204.501913875,4205.052612083,13,4204.567515291,4204.631286833,4205.056225958,4205.847900333,NaN,NaN
101,35,1,categorization,0,bathroom,SHINEd_sun_agguqiubmwhqqunb.tif,22,0.0666666666666667,0.0666666666666667,1.01666666666667,4205.850184583,4206.380807458,13,4205.91026575,4205.969676083,4206.3836345,4207.392037583,NaN,NaN
101,36,1,categorization,0,bathroom,SHINEd_sun_apkruvsevgegsdwp.tif,44,0.0666666666666667,0.0666666666666667,0.85,4207.397591958,4207.961278125,13,4207.460577083,4207.525504833,4207.974840041,4208.816562458,NaN,NaN
101,37,1,categorization,0,kitchen,SHINEd_sun_auticobqsbwgoppi.tif,104,0.0666666666666667,0.0666666666666667,1.51666666666667,4208.823998958,4209.524598458,9,4208.889160791,4208.954173625,4209.528218166,4211.036632041,NaN,NaN
101,38,1,categorization,0,kitchen,SHINEd_sun_axyyrmzcupyhlivc.tif,107,0.0666666666666667,0.0666666666666667,1.83333333333333,4211.048956625,4211.927692083,9,4211.115302125,4211.17944825,4211.942556166,4213.767634166,NaN,NaN
101,39,1,categorization,0,bathroom,SHINEd_sun_apjevzvycyhuqghb.tif,43,0.0666666666666667,0.0666666666666667,0.716666666666667,4213.78010075,4214.421395875,13,4213.846691625,4213.911054958,4214.433174333,4215.141514625,NaN,NaN
101,40,1,categorization,0,kitchen,SHINEd_sun_aexklacwqwezaorf.tif,84,0.0666666666666667,0.0666666666666667,0.9,4215.144050291,4215.748916333,13,4215.204338041,4215.263570208,4215.751800333,4216.643472916,NaN,NaN
101,41,1,categorization,0,kitchen,SHINEd_sun_abftihopvusyfakt.tif,71,0.0666666666666667,0.0666666666666667,0.916666666666667,4216.645708541,4217.356745,9,4216.705762708,4216.765198625,4217.359587791,4218.267930333,NaN,NaN
101,42,1,categorization,0,kitchen,SHINEd_sun_acgtpgfybqjmzeyw.tif,75,0.0666666666666667,0.0666666666666667,0.816666666666667,4218.270148833,4218.893202041,9,4218.33018375,4218.389673833,4218.896409166,4219.704752208,NaN,NaN
101,43,1,categorization,0,kitchen,SHINEd_sun_acfmftudsenhrfhy.tif,74,0.0666666666666667,0.0666666666666667,1.88333333333333,4219.706986208,4220.4294805,9,4219.767003791,4219.826497,4220.432345041,4222.307439541,NaN,NaN
101,44,1,categorization,0,bathroom,SHINEd_sun_azqyogdvyhahyram.tif,60,0.0666666666666667,0.0666666666666667,0.9,4222.318509875,4222.945673125,13,4222.383888916,4222.448105875,4222.958670041,4223.850342583,NaN,NaN
101,45,1,categorization,0,kitchen,SHINEd_sun_ahywdevtimnqcsln.tif,94,0.0666666666666667,0.0666666666666667,1,4223.852640833,4224.485378166,9,4223.912723083,4223.972018416,4224.488388833,4225.480064875,NaN,NaN
101,46,1,categorization,0,kitchen,SHINEd_sun_aarfiyshqohlwkmo.tif,67,0.0666666666666667,0.0666666666666667,0.733333333333333,4225.482225833,4226.085349958,9,4225.542336916,4225.601578416,4226.088339708,4226.813349541,NaN,NaN
101,47,1,categorization,0,bathroom,SHINEd_labelme_sfxiulhjbhlyiyt.tif,11,0.0666666666666667,0.0666666666666667,0.883333333333333,4226.815307583,4227.3330985,13,4226.875296833,4226.934721583,4227.336073791,4228.211080833,NaN,NaN
101,48,1,categorization,0,bathroom,SHINEd_sun_aleqenyvunhactkl.tif,32,0.0666666666666667,0.0666666666666667,1.73333333333333,4228.213266416,4228.773390083,13,4228.273230458,4228.332677291,4228.776761958,4230.501850833,NaN,NaN
101,49,1,categorization,0,bathroom,SHINEd_sun_amzlamotzwfkwjco.tif,37,0.0666666666666667,0.0666666666666667,1.91666666666667,4230.513278041,4231.102595375,9,4230.578586916,4230.643231875,4231.115503416,4233.023912291,NaN,NaN
101,50,1,categorization,0,kitchen,SHINEd_labelme_kxvouciolcpqplr.tif,62,0.0666666666666667,0.0666666666666667,1.35,4233.035639708,4233.731028416,9,4233.101375875,4233.1656105,4233.743922375,4235.085689833,NaN,NaN
