sub_num,trial,block,task,is_practice,category,image,texture,duration,mask_dur,jitter,stim_time,time_of_resp,trial_response,mask_time,fix_time,jit_onset,trial_end,trial_accuracy,RT
101,1,5,categorization,0,kitchen,SHINEd_sun_aeqdocilnnpuvuhx.tif,83,0.0833333333333333,0.0666666666666667,1.7,1067.686134791,1068.583532833,9,1067.764912166,1067.825509,1068.594098083,1070.287589291,NaN,NaN
101,2,5,categorization,0,bathroom,SHINEd_sun_agyqfjcfkdcydepw.tif,25,0.0833333333333333,0.0666666666666667,1.81666666666667,1070.304631916,1071.101639,9,1070.387863958,1070.453886541,1071.127188041,1072.937233166,NaN,NaN
101,3,5,categorization,0,bathroom,SHINEd_sun_azqyogdvyhahyram.tif,60,0.0833333333333333,0.0666666666666667,1.23333333333333,1072.954535416,1073.580639375,13,1073.037689708,1073.105454208,1073.594516041,1074.821223375,NaN,NaN
101,4,5,categorization,0,bathroom,SHINEd_sun_aofnryafpsjimzsb.tif,40,0.0833333333333333,0.0666666666666667,1.4,1074.837418333,1075.48218075,13,1074.921415458,1074.987007041,1075.510429166,1076.903799083,NaN,NaN
101,5,5,categorization,0,kitchen,SHINEd_sun_ahspylgoovwmwvgk.tif,93,0.0833333333333333,0.0666666666666667,1.03333333333333,1076.920801375,1078.345910875,13,1077.004676416,1077.070746875,1078.361822666,1079.38854,NaN,NaN
101,6,5,categorization,0,kitchen,SHINEd_sun_auticobqsbwgoppi.tif,104,0.0833333333333333,0.0666666666666667,1.38333333333333,1079.40112875,1080.043213375,9,1079.482914708,1079.548930958,1080.072467,1081.4491685,NaN,NaN
101,7,5,categorization,0,kitchen,SHINEd_sun_abrcnpqqhmjwekyf.tif,73,0.0833333333333333,0.0666666666666667,2,1081.461456583,1082.039707791,9,1081.540762625,1081.600820083,1082.05281125,1084.046188375,NaN,NaN
101,8,5,categorization,0,bathroom,SHINEd_sun_axxbkopsgyouuebh.tif,58,0.0833333333333333,0.0666666666666667,1.85,1084.063605,1084.786513791,13,1084.146527916,1084.21272975,1084.801671958,1086.645045333,NaN,NaN
101,9,5,categorization,0,kitchen,SHINEd_sun_acxkpeoqbwcxfvip.tif,77,0.0833333333333333,0.0666666666666667,0.816666666666667,1086.662199125,1087.509019458,9,1086.745488083,1086.811212541,1087.534557833,1088.344563625,NaN,NaN
101,10,5,categorization,0,kitchen,SHINEd_sun_aymvwlarqodbwuoc.tif,108,0.0833333333333333,0.0666666666666667,1.85,1088.350247458,1089.207720833,9,1088.428626125,1088.489652916,1089.224907333,1091.068289208,NaN,NaN
101,11,5,categorization,0,kitchen,SHINEd_sun_admlmbcdswaszruo.tif,79,0.0833333333333333,0.0666666666666667,0.733333333333333,1091.085272666,1091.781834625,9,1091.168618166,1091.234611333,1091.807909416,1092.534579875,NaN,NaN
101,12,5,categorization,0,bathroom,SHINEd_sun_aoybiabnpadelefl.tif,41,0.0833333333333333,0.0666666666666667,0.716666666666667,1092.540138833,1093.247409583,9,1092.618609958,1092.679536083,1093.264987541,1093.974993208,NaN,NaN
101,13,5,categorization,0,bathroom,SHINEd_sun_afcoljnjfoxjtgja.tif,20,0.0833333333333333,0.0666666666666667,0.833333333333333,1093.980437875,1094.671893708,9,1094.058879916,1094.119972666,1094.688611666,1095.515284833,NaN,NaN
101,14,5,categorization,0,bathroom,SHINEd_sun_ahqjwnzgolcaoidx.tif,29,0.0833333333333333,0.0666666666666667,0.95,1095.520765083,1096.224170708,13,1095.599326333,1095.660078208,1096.228798291,1097.17213775,NaN,NaN
101,15,5,categorization,0,kitchen,SHINEd_sun_akchetnepxlcxhsu.tif,98,0.0833333333333333,0.0666666666666667,1.96666666666667,1097.177546083,1097.82343175,13,1097.255859458,1097.316905541,1097.835339125,1099.79539375,NaN,NaN
101,16,5,categorization,0,kitchen,SHINEd_sun_aggjlwcdjsjcaemh.tif,86,0.0833333333333333,0.0666666666666667,1.86666666666667,1099.813678791,1100.553966083,9,1099.897369,1099.962852083,1100.568168916,1102.428212875,NaN,NaN
101,17,5,categorization,0,bathroom,SHINEd_sun_amzlamotzwfkwjco.tif,37,0.0833333333333333,0.0666666666666667,1.51666666666667,1102.443983458,1103.180757125,9,1102.526916,1102.593386208,1103.199565375,1104.7096075,NaN,NaN
101,18,5,categorization,0,kitchen,SHINEd_sun_aixorpehvfykdynp.tif,95,0.0833333333333333,0.0666666666666667,1.3,1104.726893583,1105.265123125,13,1104.810092375,1104.876196333,1105.282311583,1106.575683916,NaN,NaN
101,19,5,categorization,0,kitchen,SHINEd_sun_aamedkxepzlwuxes.tif,65,0.0833333333333333,0.0666666666666667,1.91666666666667,1106.593024666,1107.650431333,9,1106.676221458,1106.742318875,1107.664378916,1109.574423458,NaN,NaN
101,20,5,categorization,0,bathroom,SHINEd_sun_axldvoqbuvuggfmq.tif,57,0.0833333333333333,0.0666666666666667,1.23333333333333,1109.591910833,1110.935986625,9,1109.67494875,1109.741201083,1110.943736791,1112.170442083,NaN,NaN
101,21,5,categorization,0,bathroom,SHINEd_sun_alotolagknyrgtsk.tif,35,0.0833333333333333,0.0666666666666667,0.866666666666667,1112.185256208,1113.016527916,9,1112.268440125,1112.334439041,1113.040567125,1113.900599875,NaN,NaN
101,22,5,categorization,0,bathroom,SHINEd_sun_aclfzgynxzxlbepz.tif,19,0.0833333333333333,0.0666666666666667,0.8,1113.919149541,1114.656262291,13,1113.99846775,1114.058473833,1114.660451458,1115.453788458,NaN,NaN
101,23,5,categorization,0,kitchen,SHINEd_sun_agorklincwxrdtga.tif,87,0.0833333333333333,0.0666666666666667,1.51666666666667,1115.459246458,1116.200034625,9,1115.537595,1115.598536416,1116.217033875,1117.727078375,NaN,NaN
101,24,5,categorization,0,kitchen,SHINEd_sun_agzzivivdpnawacl.tif,89,0.0833333333333333,0.0666666666666667,1.18333333333333,1117.74381875,1118.315832041,13,1117.827239708,1117.89321275,1118.334662166,1119.51137775,NaN,NaN
101,25,5,categorization,0,kitchen,SHINEd_sun_aexklacwqwezaorf.tif,84,0.0833333333333333,0.0666666666666667,1.6,1119.5211155,1121.464298541,9,1119.604425208,1119.670124291,1121.472657708,1123.066047791,NaN,NaN
101,26,5,categorization,0,kitchen,SHINEd_sun_avszsnwsbuqfgzbn.tif,105,0.0833333333333333,0.0666666666666667,1.56666666666667,1123.079294916,1123.755835625,9,1123.1632355,1123.228351916,1123.78458475,1125.344615916,NaN,NaN
101,27,5,categorization,0,kitchen,SHINEd_sun_ahywdevtimnqcsln.tif,94,0.0833333333333333,0.0666666666666667,1.36666666666667,1125.36163125,1126.94538925,9,1125.444805583,1125.510720791,1126.962931125,1128.322978666,NaN,NaN
101,28,5,categorization,0,bathroom,SHINEd_sun_acegryoqftbzowsg.tif,17,0.0833333333333333,0.0666666666666667,1.53333333333333,1128.3399015,1129.091207541,13,1128.423729625,1128.489586041,1129.112711375,1130.639416291,NaN,NaN
101,29,5,categorization,0,kitchen,SHINEd_sun_abftihopvusyfakt.tif,71,0.0833333333333333,0.0666666666666667,1.4,1130.656272125,1131.467461083,9,1130.739859125,1130.805869916,1131.496299208,1132.889665541,NaN,NaN
101,30,5,categorization,0,bathroom,SHINEd_sun_apmqjbnwghzuhhzh.tif,46,0.0833333333333333,0.0666666666666667,1.06666666666667,1132.907074166,1133.633321458,13,1132.993604458,1133.056164166,1133.662910333,1134.722944791,NaN,NaN
101,31,5,categorization,0,bathroom,SHINEd_sun_atstyziqcmkahyxk.tif,51,0.0833333333333333,0.0666666666666667,1.63333333333333,1134.733664666,1135.435333625,13,1134.815351958,1134.883050458,1135.457104708,1137.083816583,NaN,NaN
101,32,5,categorization,0,kitchen,SHINEd_sun_acwjdupvyjsugpay.tif,76,0.0833333333333333,0.0666666666666667,1.8,1137.101828583,1138.188072416,9,1137.185626666,1137.251850875,1138.208889333,1140.002260541,NaN,NaN
101,33,5,categorization,0,bathroom,SHINEd_sun_aapitsgbtktqubfy.tif,12,0.0833333333333333,0.0666666666666667,1.53333333333333,1140.011920541,1140.623448708,13,1140.096615333,1140.161059625,1140.651110708,1142.177824125,NaN,NaN
101,34,5,categorization,0,bathroom,SHINEd_sun_apjevzvycyhuqghb.tif,43,0.0833333333333333,0.0666666666666667,0.766666666666667,1142.19578725,1143.259447083,9,1142.279350958,1142.344929666,1143.285121208,1144.045127666,NaN,NaN
101,35,5,categorization,0,bathroom,SHINEd_sun_acgyywnybuveqsro.tif,18,0.0833333333333333,0.0666666666666667,1.86666666666667,1144.050826583,1144.607652083,13,1144.129472375,1144.190235666,1144.625518541,1146.485570958,NaN,NaN
101,36,5,categorization,0,bathroom,SHINEd_sun_ahcvzmoyaycdoftf.tif,27,0.0833333333333333,0.0666666666666667,1.13333333333333,1146.501328791,1147.159576541,13,1146.584148875,1146.650516375,1147.172495208,1148.299211291,NaN,NaN
101,37,5,categorization,0,bathroom,SHINEd_sun_aavhrsfjbserjtht.tif,13,0.0833333333333333,0.0666666666666667,1.73333333333333,1148.308258625,1149.178827541,13,1148.392614291,1148.457524583,1149.197014708,1150.9237225,NaN,NaN
101,38,5,categorization,0,bathroom,SHINEd_sun_axyrejkiiaqiurjk.tif,59,0.0833333333333333,0.0666666666666667,0.766666666666667,1150.941614583,1152.158907333,9,1151.024838916,1151.090955875,1152.180844375,1152.940849125,NaN,NaN
101,39,5,categorization,0,bathroom,SHINEd_sun_anhioqovhscjqqwb.tif,38,0.0833333333333333,0.0666666666666667,1.85,1152.9461965,1153.527373041,13,1153.024643333,1153.0855575,1153.537767333,1155.381142583,NaN,NaN
101,40,5,categorization,0,kitchen,SHINEd_labelme_brsyyvweiuaazfr.tif,61,0.0833333333333333,0.0666666666666667,0.966666666666667,1155.397998166,1156.4947965,13,1155.480923583,1155.5473405,1156.519933458,1157.479939125,NaN,NaN
101,41,5,categorization,0,kitchen,SHINEd_sun_ahdycvpopffkzzsu.tif,90,0.0833333333333333,0.0666666666666667,1.06666666666667,1157.48559225,1158.543727583,9,1157.564045958,1157.624988916,1158.560374041,1159.620427916,NaN,NaN
101,42,5,categorization,0,bathroom,SHINEd_sun_aspsyogrekjtfozg.tif,50,0.0833333333333333,0.0666666666666667,1.38333333333333,1159.629511041,1160.226350208,13,1159.710763666,1159.778414875,1160.252117083,1161.6288175,NaN,NaN
101,43,5,categorization,0,kitchen,SHINEd_sun_acgtpgfybqjmzeyw.tif,75,0.0833333333333333,0.0666666666666667,0.766666666666667,1161.643387125,1162.287976958,9,1161.722534666,1161.782814083,1162.301305333,1163.06131175,NaN,NaN
101,44,5,categorization,0,kitchen,SHINEd_sun_amjjdeyrggfqgmom.tif,100,0.0833333333333333,0.0666666666666667,0.866666666666667,1163.06686075,1163.83130375,13,1163.145325166,1163.20631625,1163.841774375,1164.701779458,NaN,NaN
101,45,5,categorization,0,kitchen,SHINEd_sun_aqeaevwwwjoqhzvl.tif,101,0.0833333333333333,0.0666666666666667,1.25,1164.7071965,1165.76002925,9,1164.785688333,1164.84651825,1165.7653905,1167.008773875,NaN,NaN
101,46,5,categorization,0,kitchen,SHINEd_sun_ahpczsiumwwocjkv.tif,92,0.0833333333333333,0.0666666666666667,1.03333333333333,1167.025290291,1167.641216416,9,1167.108585583,1167.174723625,1167.664602,1168.691305541,NaN,NaN
101,47,5,categorization,0,kitchen,SHINEd_sun_aehawpgmrlhlvcow.tif,81,0.0833333333333333,0.0666666666666667,0.783333333333333,1168.706755541,1169.384043375,9,1168.790076041,1168.855897708,1169.391756833,1170.168428041,NaN,NaN
101,48,5,categorization,0,bathroom,SHINEd_sun_aqrpegblszgcoujh.tif,48,0.0833333333333333,0.0666666666666667,0.7,1170.173918458,1171.087731875,9,1170.252243458,1170.313428291,1171.099103291,1171.79244125,NaN,NaN
101,49,5,categorization,0,bathroom,SHINEd_sun_apeeialkgkuxddgh.tif,42,0.0833333333333333,0.0666666666666667,1.75,1171.800188541,1172.47983325,13,1171.878457458,1171.939525708,1172.491604791,1174.234988083,NaN,NaN
101,50,5,categorization,0,bathroom,SHINEd_sun_apkruvsevgegsdwp.tif,44,0.0833333333333333,0.0666666666666667,1.36666666666667,1174.252729916,1175.679122958,13,1174.33598475,1174.402269333,1175.688090875,1177.048130708,NaN,NaN
