sub_num,trial,block,task,is_practice,category,image,texture,duration,mask_dur,jitter,stim_time,time_of_resp,trial_response,mask_time,fix_time,jit_onset,trial_end,trial_accuracy,RT
101,1,2,categorization,0,kitchen,SHINEd_sun_agubuxuukhzyzpdp.tif,88,0.0833333333333333,0.0666666666666667,0.95,1172.386410791,1173.057702208,9,1172.465215625,1172.525929708,1173.061025916,1174.004363375,NaN,NaN
101,2,2,categorization,0,bathroom,SHINEd_sun_asfwthctfqerjvxr.tif,49,0.0833333333333333,0.0666666666666667,0.75,1174.010104083,1174.770620583,13,1174.088859291,1174.149441333,1174.784613291,1175.527952041,NaN,NaN
101,3,2,categorization,0,bathroom,SHINEd_sun_aofnryafpsjimzsb.tif,40,0.0833333333333333,0.0666666666666667,1.68333333333333,1175.535801208,1176.274360375,9,1175.614126708,1175.675159666,1176.29381,1177.970527083,NaN,NaN
101,4,2,categorization,0,kitchen,SHINEd_sun_aymvwlarqodbwuoc.tif,108,0.0833333333333333,0.0666666666666667,0.816666666666667,1177.988424875,1178.68280675,13,1178.072457333,1178.138288375,1178.710939125,1179.52094375,NaN,NaN
101,5,2,categorization,0,bathroom,SHINEd_sun_aggnnqpdorgxpvce.tif,21,0.0833333333333333,0.0666666666666667,0.916666666666667,1179.5265165,1180.345479291,9,1179.604992833,1179.665954791,1180.35103175,1181.261036541,NaN,NaN
101,6,2,categorization,0,bathroom,SHINEd_sun_aapitsgbtktqubfy.tif,12,0.0833333333333333,0.0666666666666667,1.21666666666667,1181.265948333,1182.026370208,9,1181.344334666,1181.405274375,1182.04045975,1183.25051575,NaN,NaN
101,7,2,categorization,0,kitchen,SHINEd_sun_aamedkxepzlwuxes.tif,65,0.0833333333333333,0.0666666666666667,0.9,1183.262958291,1183.900594375,9,1183.34651025,1183.412993666,1183.919186458,1184.812559166,NaN,NaN
101,8,2,categorization,0,bathroom,SHINEd_sun_anhioqovhscjqqwb.tif,38,0.0833333333333333,0.0666666666666667,1.65,1184.822683583,1185.449485,13,1184.90624475,1184.972658333,1185.457850791,1187.101233166,NaN,NaN
101,9,2,categorization,0,bathroom,SHINEd_sun_ahijqszoswveeyji.tif,28,0.0833333333333333,0.0666666666666667,1.15,1187.122391708,1187.898209,13,1187.205848958,1187.270476166,1187.926971583,1189.070353708,NaN,NaN
101,10,2,categorization,0,kitchen,SHINEd_sun_auaiucuqpdausiva.tif,102,0.0833333333333333,0.0666666666666667,1.13333333333333,1189.081625625,1189.667742958,9,1189.165561375,1189.2288105,1189.684591625,1190.81130225,NaN,NaN
101,11,2,categorization,0,kitchen,SHINEd_sun_aunzlwrbjumxhwdj.tif,103,0.0833333333333333,0.0666666666666667,1.76666666666667,1190.8286305,1191.641991333,9,1190.912051208,1190.976480625,1191.661575666,1193.421614416,NaN,NaN
101,12,2,categorization,0,kitchen,SHINEd_sun_acwjdupvyjsugpay.tif,76,0.0833333333333333,0.0666666666666667,1.8,1193.441317291,1194.069232666,9,1193.524858375,1193.591343166,1194.097899416,1195.891267708,NaN,NaN
101,13,2,categorization,0,kitchen,SHINEd_sun_aegoxogugdkwpmpj.tif,80,0.0833333333333333,0.0666666666666667,0.9,1195.912140458,1196.539238125,9,1195.996467625,1196.062037625,1196.569053041,1197.46239125,NaN,NaN
101,14,2,categorization,0,kitchen,SHINEd_sun_aeqdocilnnpuvuhx.tif,83,0.0833333333333333,0.0666666666666667,0.716666666666667,1197.46995925,1198.218122875,9,1197.548391791,1197.609394708,1198.227890375,1198.9378955,NaN,NaN
101,15,2,categorization,0,kitchen,SHINEd_sun_afuyedyxivkhecmu.tif,85,0.0833333333333333,0.0666666666666667,1.36666666666667,1198.943540958,1199.593856166,9,1199.021975208,1199.082962208,1199.601330083,1200.961379708,NaN,NaN
101,16,2,categorization,0,kitchen,SHINEd_sun_agorklincwxrdtga.tif,87,0.0833333333333333,0.0666666666666667,0.916666666666667,1200.979977291,1201.623628208,9,1201.063158333,1201.129700875,1201.652903708,1202.562957791,NaN,NaN
101,17,2,categorization,0,kitchen,SHINEd_sun_aenotlpyftoioydp.tif,82,0.0833333333333333,0.0666666666666667,0.716666666666667,1202.585065208,1203.145521666,9,1202.668587625,1202.733116625,1203.151698791,1203.8617035,NaN,NaN
101,18,2,categorization,0,bathroom,SHINEd_sun_axldvoqbuvuggfmq.tif,57,0.0833333333333333,0.0666666666666667,0.766666666666667,1203.869502291,1204.5536695,9,1203.947975041,1204.009192291,1204.561257541,1205.32126175,NaN,NaN
101,19,2,categorization,0,kitchen,SHINEd_sun_azmutvzbxypaceni.tif,110,0.0833333333333333,0.0666666666666667,1.06666666666667,1205.326471791,1206.066382916,9,1205.404900916,1205.465948291,1206.084409791,1207.144439666,NaN,NaN
101,20,2,categorization,0,kitchen,SHINEd_labelme_brsyyvweiuaazfr.tif,61,0.0833333333333333,0.0666666666666667,0.8,1207.154796916,1207.839527375,9,1207.236077875,1207.302434375,1207.858624708,1208.652005916,NaN,NaN
101,21,2,categorization,0,bathroom,SHINEd_sun_abjtwfukuwddzted.tif,15,0.0833333333333333,0.0666666666666667,0.866666666666667,1208.671492541,1209.273992375,13,1208.755020791,1208.818991083,1209.287623125,1210.147628541,NaN,NaN
101,22,2,categorization,0,bathroom,SHINEd_sun_akiytfaagpdsphgz.tif,31,0.0833333333333333,0.0666666666666667,1.48333333333333,1210.153298125,1210.66621675,13,1210.231607375,1210.292686541,1210.677790333,1212.154493916,NaN,NaN
101,23,2,categorization,0,kitchen,SHINEd_sun_ahpczsiumwwocjkv.tif,92,0.0833333333333333,0.0666666666666667,1.1,1212.171820125,1212.814065375,9,1212.255500583,1212.32162425,1212.827285125,1213.920669666,NaN,NaN
101,24,2,categorization,0,kitchen,SHINEd_sun_ahspylgoovwmwvgk.tif,93,0.0833333333333333,0.0666666666666667,0.783333333333333,1213.929581458,1214.519574541,9,1214.013206791,1214.079112625,1214.534846458,1215.311564458,NaN,NaN
101,25,2,categorization,0,bathroom,SHINEd_sun_axyrejkiiaqiurjk.tif,59,0.0833333333333333,0.0666666666666667,0.866666666666667,1215.328419916,1215.939424208,13,1215.412101666,1215.477863875,1215.965544375,1216.825549916,NaN,NaN
101,26,2,categorization,0,bathroom,SHINEd_sun_ausgutylgojavyoq.tif,53,0.0833333333333333,0.0666666666666667,1.83333333333333,1216.830587916,1217.442116791,13,1216.908963208,1216.970010666,1217.455165166,1219.281875583,NaN,NaN
101,27,2,categorization,0,kitchen,SHINEd_sun_aypmqwcualkenuoe.tif,109,0.0833333333333333,0.0666666666666667,0.7,1219.300302791,1220.139378541,9,1219.383953291,1219.449846791,1220.154240791,1220.847578625,NaN,NaN
101,28,2,categorization,0,bathroom,SHINEd_sun_aclfzgynxzxlbepz.tif,19,0.0833333333333333,0.0666666666666667,1.33333333333333,1220.853200458,1221.649343666,13,1220.931666041,1220.992556666,1221.660957833,1222.9876755,NaN,NaN
101,29,2,categorization,0,bathroom,SHINEd_sun_ahqjwnzgolcaoidx.tif,29,0.0833333333333333,0.0666666666666667,1.33333333333333,1223.007891666,1223.619325416,13,1223.091809583,1223.154787916,1223.644717333,1224.971440791,NaN,NaN
101,30,2,categorization,0,bathroom,SHINEd_sun_anryaplzeujmzfkd.tif,39,0.0833333333333333,0.0666666666666667,1.38333333333333,1224.99021075,1225.628469875,13,1225.073847458,1225.139957166,1225.646385458,1227.02309225,NaN,NaN
101,31,2,categorization,0,kitchen,SHINEd_sun_agzzivivdpnawacl.tif,89,0.0833333333333333,0.0666666666666667,1.25,1227.042401208,1228.158004541,9,1227.1259685,1227.191843833,1228.180177416,1229.42355925,NaN,NaN
101,32,2,categorization,0,kitchen,SHINEd_sun_ahljzhgcdpomplvg.tif,91,0.0833333333333333,0.0666666666666667,1.55,1229.44331025,1230.148710291,9,1229.528115666,1229.5931385,1230.165902833,1231.70928075,NaN,NaN
101,33,2,categorization,0,bathroom,SHINEd_sun_agrwbmhcpmfuwmsg.tif,24,0.0833333333333333,0.0666666666666667,1.61666666666667,1231.730393958,1232.324154333,13,1231.813799625,1231.879857333,1232.353120416,1233.963163291,NaN,NaN
101,34,2,categorization,0,bathroom,SHINEd_sun_apeeialkgkuxddgh.tif,42,0.0833333333333333,0.0666666666666667,1.33333333333333,1233.983159208,1234.536970958,13,1234.066763458,1234.132856375,1234.555894791,1235.882603541,NaN,NaN
101,35,2,categorization,0,kitchen,SHINEd_sun_aehawpgmrlhlvcow.tif,81,0.0833333333333333,0.0666666666666667,0.833333333333333,1235.895628666,1236.549749166,9,1235.979406541,1236.045194375,1236.567394083,1237.394092875,NaN,NaN
101,36,2,categorization,0,bathroom,SHINEd_sun_aqrpegblszgcoujh.tif,48,0.0833333333333333,0.0666666666666667,1.45,1237.410759208,1238.105905,13,1237.494468041,1237.560296791,1238.1123715,1239.55575975,NaN,NaN
101,37,2,categorization,0,bathroom,SHINEd_sun_acduarbnmmoglmiv.tif,16,0.0833333333333333,0.0666666666666667,0.933333333333333,1239.573615375,1240.355952416,13,1239.657593583,1239.723199916,1240.380236041,1241.306908,NaN,NaN
101,38,2,categorization,0,kitchen,SHINEd_sun_awcpdzzznmweyyhv.tif,106,0.0833333333333333,0.0666666666666667,1.65,1241.316732125,1241.985838958,9,1241.395274916,1241.456250083,1241.991486583,1243.634875541,NaN,NaN
101,39,2,categorization,0,bathroom,SHINEd_sun_apynckhmoftszqoq.tif,47,0.0833333333333333,0.0666666666666667,1.23333333333333,1243.655321458,1244.242984791,13,1243.739225583,1243.804995708,1244.26124475,1245.487942166,NaN,NaN
101,40,2,categorization,0,kitchen,SHINEd_sun_abpwyqmlzafvklqo.tif,72,0.0833333333333333,0.0666666666666667,0.766666666666667,1245.505256333,1246.143681208,9,1245.589086166,1245.655091,1246.160890333,1246.920935666,NaN,NaN
101,41,2,categorization,0,bathroom,SHINEd_sun_auzqhkafidnkrwmo.tif,54,0.0833333333333333,0.0666666666666667,1.78333333333333,1246.936907958,1247.497456833,13,1247.020570416,1247.086604166,1247.505692333,1249.282402041,NaN,NaN
101,42,2,categorization,0,bathroom,SHINEd_sun_acgyywnybuveqsro.tif,18,0.0833333333333333,0.0666666666666667,1.11666666666667,1249.304097583,1249.920333458,13,1249.387825,1249.454078916,1249.944135375,1251.054176708,NaN,NaN
101,43,2,categorization,0,kitchen,SHINEd_sun_amjjdeyrggfqgmom.tif,100,0.0833333333333333,0.0666666666666667,1.85,1251.065297,1251.726302333,9,1251.146396666,1251.215147666,1251.75525325,1253.598622833,NaN,NaN
101,44,2,categorization,0,bathroom,SHINEd_sun_aoybiabnpadelefl.tif,41,0.0833333333333333,0.0666666666666667,0.733333333333333,1253.62026425,1254.362151291,9,1253.70390075,1253.770132583,1254.37479975,1255.101474666,NaN,NaN
101,45,2,categorization,0,bathroom,SHINEd_sun_aspsyogrekjtfozg.tif,50,0.0833333333333333,0.0666666666666667,0.783333333333333,1255.107750041,1255.76141975,13,1255.186300583,1255.247158666,1255.765968041,1256.542639083,NaN,NaN
101,46,2,categorization,0,kitchen,SHINEd_sun_abrcnpqqhmjwekyf.tif,73,0.0833333333333333,0.0666666666666667,1.5,1256.548250666,1257.273184458,9,1256.626717541,1256.687745583,1257.289667791,1258.783057833,NaN,NaN
101,47,2,categorization,0,bathroom,SHINEd_sun_apkxzenqapsujocq.tif,45,0.0833333333333333,0.0666666666666667,0.733333333333333,1258.804950125,1259.381906625,13,1258.888567583,1258.95504925,1259.39262725,1260.11932825,NaN,NaN
101,48,2,categorization,0,bathroom,SHINEd_sun_agyqfjcfkdcydepw.tif,25,0.0833333333333333,0.0666666666666667,1.1,1260.138691125,1261.209698916,13,1260.222453833,1260.288387916,1261.223415416,1262.316793,NaN,NaN
101,49,2,categorization,0,kitchen,SHINEd_sun_aixorpehvfykdynp.tif,95,0.0833333333333333,0.0666666666666667,1.6,1262.32617025,1263.038942291,9,1262.408319666,1262.474838666,1263.064845791,1264.658213416,NaN,NaN
101,50,2,categorization,0,bathroom,SHINEd_sun_ambriybtogmepttm.tif,36,0.0833333333333333,0.0666666666666667,1.06666666666667,1264.678103708,1265.338532375,9,1264.761849083,1264.827413666,1265.367350416,1266.42739475,NaN,NaN
