sub_num,trial,block,task,is_practice,category,image,texture,duration,mask_dur,jitter,stim_time,time_of_resp,trial_response,mask_time,fix_time,jit_onset,trial_end,trial_accuracy,RT
101,1,17,categorization,0,bathroom,SHINEd_sun_akiytfaagpdsphgz.tif,31,0.0833333333333333,0.0666666666666667,0.9,2715.148841958,2716.072493125,13,2715.228080416,2715.288413541,2716.09022725,2716.983565833,NaN,NaN
101,2,17,categorization,0,bathroom,SHINEd_sun_axyrejkiiaqiurjk.tif,59,0.0833333333333333,0.0666666666666667,1.65,2716.989087041,2717.761140333,13,2717.067350458,2717.128416458,2717.780425333,2719.423797291,NaN,NaN
101,3,17,categorization,0,kitchen,SHINEd_sun_abftihopvusyfakt.tif,71,0.0833333333333333,0.0666666666666667,1.18333333333333,2719.441403083,2720.113995875,9,2719.524913708,2719.590960583,2720.130021666,2721.306737083,NaN,NaN
101,4,17,categorization,0,bathroom,SHINEd_sun_apeeialkgkuxddgh.tif,42,0.0833333333333333,0.0666666666666667,1.18333333333333,2721.317318,2721.883618958,13,2721.400462166,2721.466692791,2721.906007,2723.082725958,NaN,NaN
101,5,17,categorization,0,bathroom,SHINEd_sun_apmqjbnwghzuhhzh.tif,46,0.0833333333333333,0.0666666666666667,0.766666666666667,2723.100391666,2723.705051708,13,2723.183291416,2723.246211125,2723.715296583,2724.475300375,NaN,NaN
101,6,17,categorization,0,bathroom,SHINEd_sun_asfwthctfqerjvxr.tif,49,0.0833333333333333,0.0666666666666667,1.1,2724.4808775,2724.984735125,13,2724.559218208,2724.62019425,2724.988804458,2726.082173708,NaN,NaN
101,7,17,categorization,0,kitchen,SHINEd_sun_aarfiyshqohlwkmo.tif,67,0.0833333333333333,0.0666666666666667,1.98333333333333,2726.091672041,2726.994435291,9,2726.1727955,2726.240837083,2727.014050833,2728.990751541,NaN,NaN
101,8,17,categorization,0,bathroom,SHINEd_sun_abapwbhyhkfixyex.tif,14,0.0833333333333333,0.0666666666666667,0.8,2729.010837833,2729.617377166,9,2729.093972541,2729.160295708,2729.6325185,2730.425856583,NaN,NaN
101,9,17,categorization,0,bathroom,SHINEd_sun_aggnnqpdorgxpvce.tif,21,0.0833333333333333,0.0666666666666667,1.68333333333333,2730.431397583,2731.192263875,13,2730.50977075,2730.570855666,2731.206444375,2732.883142125,NaN,NaN
101,10,17,categorization,0,bathroom,SHINEd_sun_ajlawzvmubibwbpy.tif,30,0.0833333333333333,0.0666666666666667,1.73333333333333,2732.8999775,2733.777059083,13,2732.982882708,2733.049547833,2733.805361083,2735.532062125,NaN,NaN
101,11,17,categorization,0,kitchen,SHINEd_sun_amjjdeyrggfqgmom.tif,100,0.0833333333333333,0.0666666666666667,0.766666666666667,2735.548986916,2736.166094041,9,2735.63201675,2735.698184541,2736.188132583,2736.948138291,NaN,NaN
101,12,17,categorization,0,bathroom,SHINEd_sun_axldvoqbuvuggfmq.tif,57,0.0833333333333333,0.0666666666666667,1.43333333333333,2736.953761333,2737.713142708,13,2737.032153833,2737.093107958,2737.728607958,2739.155327083,NaN,NaN
101,13,17,categorization,0,bathroom,SHINEd_sun_ahijqszoswveeyji.tif,28,0.0833333333333333,0.0666666666666667,0.7,2739.17245275,2740.459602708,13,2739.255164708,2739.321328,2740.479034291,2741.172374208,NaN,NaN
101,14,17,categorization,0,kitchen,SHINEd_sun_afuyedyxivkhecmu.tif,85,0.0833333333333333,0.0666666666666667,1.01666666666667,2741.177835541,2741.720265083,9,2741.256422208,2741.317143083,2741.735707041,2742.745745291,NaN,NaN
101,15,17,categorization,0,kitchen,SHINEd_sun_agorklincwxrdtga.tif,87,0.0833333333333333,0.0666666666666667,1.71666666666667,2742.755427833,2743.25339425,9,2742.836455583,2742.903432875,2743.276320791,2744.986363166,NaN,NaN
101,16,17,categorization,0,kitchen,SHINEd_sun_azmutvzbxypaceni.tif,110,0.0833333333333333,0.0666666666666667,1.73333333333333,2745.003499,2745.530194333,9,2745.086489458,2745.152698,2745.558688166,2747.285386791,NaN,NaN
101,17,17,categorization,0,bathroom,SHINEd_sun_abjtwfukuwddzted.tif,15,0.0833333333333333,0.0666666666666667,1.93333333333333,2747.301844291,2747.993218333,13,2747.384718625,2747.451244875,2748.00538025,2749.932093125,NaN,NaN
101,18,17,categorization,0,bathroom,SHINEd_sun_aapitsgbtktqubfy.tif,12,0.0833333333333333,0.0666666666666667,1.1,2749.949467833,2750.598263583,13,2750.032736541,2750.098596416,2750.621668083,2751.71504875,NaN,NaN
101,19,17,categorization,0,bathroom,SHINEd_sun_aspsyogrekjtfozg.tif,50,0.0833333333333333,0.0666666666666667,0.933333333333333,2751.725342833,2752.229046833,13,2751.806605208,2751.874202458,2752.246770625,2753.17348125,NaN,NaN
101,20,17,categorization,0,bathroom,SHINEd_sun_awnqiikzaispgmwo.tif,56,0.0833333333333333,0.0666666666666667,1.16666666666667,2753.188959708,2753.832658708,13,2753.271283541,2753.338141833,2753.84057825,2755.000634625,NaN,NaN
101,21,17,categorization,0,kitchen,SHINEd_sun_acxkpeoqbwcxfvip.tif,77,0.0833333333333333,0.0666666666666667,1.08333333333333,2755.01020825,2755.737797708,9,2755.093083291,2755.159363833,2755.765609875,2756.842331625,NaN,NaN
101,22,17,categorization,0,kitchen,SHINEd_sun_abdenxonkemggwsq.tif,69,0.0833333333333333,0.0666666666666667,1.36666666666667,2756.860135375,2757.568469291,9,2756.939265708,2756.99956875,2757.584747291,2758.944792041,NaN,NaN
101,23,17,categorization,0,bathroom,SHINEd_sun_acgyywnybuveqsro.tif,18,0.0833333333333333,0.0666666666666667,1.85,2758.961281583,2759.723134,13,2759.044521458,2759.110793333,2759.750424666,2761.593810541,NaN,NaN
101,24,17,categorization,0,kitchen,SHINEd_sun_aapllqyqlykszopd.tif,66,0.0833333333333333,0.0666666666666667,1.1,2761.610241541,2762.240456458,9,2761.693493,2761.75931475,2762.265676458,2763.359054416,NaN,NaN
101,25,17,categorization,0,bathroom,SHINEd_sun_anryaplzeujmzfkd.tif,39,0.0833333333333333,0.0666666666666667,1.71666666666667,2763.368344291,2763.986423958,13,2763.449580375,2763.5174185,2764.005573833,2765.715605041,NaN,NaN
101,26,17,categorization,0,kitchen,SHINEd_sun_acgtpgfybqjmzeyw.tif,75,0.0833333333333333,0.0666666666666667,1.6,2765.7328405,2766.889203875,9,2765.816432916,2765.882144041,2766.904168541,2768.497548958,NaN,NaN
101,27,17,categorization,0,bathroom,SHINEd_sun_atstyziqcmkahyxk.tif,51,0.0833333333333333,0.0666666666666667,0.85,2768.514302833,2769.09805975,13,2768.597394333,2768.663339625,2769.119948333,2769.963322625,NaN,NaN
101,28,17,categorization,0,bathroom,SHINEd_sun_alotolagknyrgtsk.tif,35,0.0833333333333333,0.0666666666666667,1.35,2769.9703185,2770.672111541,13,2770.04897875,2770.109697208,2770.678612916,2772.0219855,NaN,NaN
101,29,17,categorization,0,bathroom,SHINEd_sun_ausgutylgojavyoq.tif,53,0.0833333333333333,0.0666666666666667,1.65,2772.044910708,2772.667719583,13,2772.128957875,2772.194648458,2772.684459083,2774.327834666,NaN,NaN
101,30,17,categorization,0,kitchen,SHINEd_sun_agubuxuukhzyzpdp.tif,88,0.0833333333333333,0.0666666666666667,1.35,2774.347687833,2774.946260125,9,2774.431428833,2774.497144375,2774.971320166,2776.314696541,NaN,NaN
101,31,17,categorization,0,bathroom,SHINEd_sun_apjevzvycyhuqghb.tif,43,0.0833333333333333,0.0666666666666667,1.63333333333333,2776.32929975,2777.176423833,9,2776.413185625,2776.478653458,2777.20280625,2778.829522333,NaN,NaN
101,32,17,categorization,0,bathroom,SHINEd_sun_axxbkopsgyouuebh.tif,58,0.0833333333333333,0.0666666666666667,1.1,2778.84819875,2779.476836083,13,2778.932497291,2778.9977495,2779.505681958,2780.59906625,NaN,NaN
101,33,17,categorization,0,kitchen,SHINEd_sun_adgqasybjyktddhj.tif,78,0.0833333333333333,0.0666666666666667,1.11666666666667,2780.609638875,2781.356128291,9,2780.692195791,2780.759239125,2781.38323825,2782.493293041,NaN,NaN
101,34,17,categorization,0,bathroom,SHINEd_sun_amzlamotzwfkwjco.tif,37,0.0833333333333333,0.0666666666666667,1.5,2782.510399583,2783.2167945,13,2782.590036291,2782.649792166,2783.235043166,2784.728433208,NaN,NaN
101,35,17,categorization,0,bathroom,SHINEd_sun_avhrdrntsqrjzccq.tif,55,0.0833333333333333,0.0666666666666667,1.28333333333333,2784.742212708,2785.307278375,13,2784.826138125,2784.891383041,2785.331524333,2786.608244958,NaN,NaN
101,36,17,categorization,0,kitchen,SHINEd_sun_abdxkyyxwfskuaqb.tif,70,0.0833333333333333,0.0666666666666667,1.7,2786.626439291,2787.292407541,9,2786.709632458,2786.776093666,2787.31607425,2789.009449583,NaN,NaN
101,37,17,categorization,0,bathroom,SHINEd_sun_aleqenyvunhactkl.tif,32,0.0833333333333333,0.0666666666666667,1.08333333333333,2789.026732083,2789.683802083,13,2789.109750458,2789.176222833,2789.698717333,2790.775419125,NaN,NaN
101,38,17,categorization,0,kitchen,SHINEd_labelme_rykdqxenmhulbdn.tif,63,0.0833333333333333,0.0666666666666667,1.65,2790.785345583,2791.34995125,9,2790.867022625,2790.934175666,2791.373894708,2793.017277583,NaN,NaN
101,39,17,categorization,0,bathroom,SHINEd_sun_anhioqovhscjqqwb.tif,38,0.0833333333333333,0.0666666666666667,1.31666666666667,2793.034340541,2793.757734458,13,2793.117677583,2793.183896375,2793.7728645,2795.082905916,NaN,NaN
101,40,17,categorization,0,bathroom,SHINEd_sun_aunuadmjocsddsrl.tif,52,0.0833333333333333,0.0666666666666667,0.95,2795.101101083,2796.356916291,13,2795.184480208,2795.25023125,2796.376337791,2797.31967575,NaN,NaN
101,41,17,categorization,0,kitchen,SHINEd_sun_ahpczsiumwwocjkv.tif,92,0.0833333333333333,0.0666666666666667,1.43333333333333,2797.32517875,2798.088229125,9,2797.403536625,2797.464547208,2798.099585875,2799.526301375,NaN,NaN
101,42,17,categorization,0,bathroom,SHINEd_sun_aclfzgynxzxlbepz.tif,19,0.0833333333333333,0.0666666666666667,1.66666666666667,2799.543519458,2800.234519958,13,2799.62685225,2799.692785583,2800.248277375,2801.908319166,NaN,NaN
101,43,17,categorization,0,bathroom,SHINEd_sun_ahqjwnzgolcaoidx.tif,29,0.0833333333333333,0.0666666666666667,0.933333333333333,2801.926304583,2802.713464333,13,2802.007319416,2802.07579225,2802.731691708,2803.658365916,NaN,NaN
101,44,17,categorization,0,kitchen,SHINEd_sun_axyyrmzcupyhlivc.tif,107,0.0833333333333333,0.0666666666666667,0.833333333333333,2803.664057458,2804.76896375,13,2803.742432625,2803.803370458,2804.78883725,2805.615508666,NaN,NaN
101,45,17,categorization,0,kitchen,SHINEd_sun_acwjdupvyjsugpay.tif,76,0.0833333333333333,0.0666666666666667,1.26666666666667,2805.620773625,2806.8725085,9,2805.6993765,2805.760206833,2806.879347333,2808.139397291,NaN,NaN
101,46,17,categorization,0,kitchen,SHINEd_sun_aadbddgrdsjugojn.tif,64,0.0833333333333333,0.0666666666666667,1.93333333333333,2808.156153875,2808.898382041,9,2808.23957,2808.305459666,2808.92884125,2810.855556625,NaN,NaN
101,47,17,categorization,0,bathroom,SHINEd_sun_azqyogdvyhahyram.tif,60,0.0833333333333333,0.0666666666666667,1.06666666666667,2810.873470333,2811.460581541,13,2810.957055916,2811.023068166,2811.479291708,2812.539332458,NaN,NaN
101,48,17,categorization,0,kitchen,SHINEd_sun_aexklacwqwezaorf.tif,84,0.0833333333333333,0.0666666666666667,0.766666666666667,2812.548398291,2813.215820375,9,2812.630198708,2812.696501,2813.236540416,2813.996577875,NaN,NaN
101,49,17,categorization,0,bathroom,SHINEd_sun_apkxzenqapsujocq.tif,45,0.0833333333333333,0.0666666666666667,0.833333333333333,2814.00605675,2814.536963791,13,2814.0897935,2814.155448583,2814.558075166,2815.384746458,NaN,NaN
101,50,17,categorization,0,kitchen,SHINEd_sun_avszsnwsbuqfgzbn.tif,105,0.0833333333333333,0.0666666666666667,1.46666666666667,2815.391267541,2815.984454166,9,2815.469674458,2815.530619625,2815.99909325,2817.459124291,NaN,NaN
