sub_num,trial,block,task,is_practice,category,image,texture,duration,mask_dur,jitter,stim_time,time_of_resp,trial_response,mask_time,fix_time,jit_onset,trial_end,trial_accuracy,RT
101,1,1,categorization,0,kitchen,SHINEd_sun_avszsnwsbuqfgzbn.tif,105,0.0666666666666667,0.0333333333333333,1.23333333333333,963.439024041,NaN,NaN,963.505430666,NaN,NaN,NaN,NaN,NaN
101,2,1,categorization,0,bathroom,SHINEd_sun_aavhrsfjbserjtht.tif,13,0.0666666666666667,0.0333333333333333,0.783333333333333,NaN,NaN,NaN,NaN,NaN,NaN,NaN,NaN,NaN
101,3,1,categorization,0,kitchen,SHINEd_labelme_rykdqxenmhulbdn.tif,63,0.0666666666666667,0.0333333333333333,0.75,NaN,NaN,NaN,NaN,NaN,NaN,NaN,NaN,NaN
101,4,1,categorization,0,kitchen,SHINEd_sun_akcjzhbbjlbogpdi.tif,99,0.0666666666666667,0.0333333333333333,1.23333333333333,NaN,NaN,NaN,NaN,NaN,NaN,NaN,NaN,NaN
101,5,1,categorization,0,bathroom,SHINEd_sun_aljolscmmzydegqp.tif,33,0.0666666666666667,0.0333333333333333,1.13333333333333,NaN,NaN,NaN,NaN,NaN,NaN,NaN,NaN,NaN
101,6,1,categorization,0,kitchen,SHINEd_sun_admlmbcdswaszruo.tif,79,0.0666666666666667,0.0333333333333333,0.95,NaN,NaN,NaN,NaN,NaN,NaN,NaN,NaN,NaN
101,7,1,categorization,0,kitchen,SHINEd_sun_abdenxonkemggwsq.tif,69,0.0666666666666667,0.0333333333333333,0.733333333333333,NaN,NaN,NaN,NaN,NaN,NaN,NaN,NaN,NaN
101,8,1,categorization,0,kitchen,SHINEd_sun_aqeaevwwwjoqhzvl.tif,101,0.0666666666666667,0.0333333333333333,1.31666666666667,NaN,NaN,NaN,NaN,NaN,NaN,NaN,NaN,NaN
101,9,1,categorization,0,bathroom,SHINEd_sun_ahcvzmoyaycdoftf.tif,27,0.0666666666666667,0.0333333333333333,0.8,NaN,NaN,NaN,NaN,NaN,NaN,NaN,NaN,NaN
101,10,1,categorization,0,kitchen,SHINEd_sun_ahdycvpopffkzzsu.tif,90,0.0666666666666667,0.0333333333333333,0.716666666666667,NaN,NaN,NaN,NaN,NaN,NaN,NaN,NaN,NaN
101,11,1,categorization,0,bathroom,SHINEd_sun_atstyziqcmkahyxk.tif,51,0.0666666666666667,0.0333333333333333,0.916666666666667,NaN,NaN,NaN,NaN,NaN,NaN,NaN,NaN,NaN
101,12,1,categorization,0,bathroom,SHINEd_sun_aunuadmjocsddsrl.tif,52,0.0666666666666667,0.0333333333333333,0.95,NaN,NaN,NaN,NaN,NaN,NaN,NaN,NaN,NaN
101,13,1,categorization,0,kitchen,SHINEd_sun_adgqasybjyktddhj.tif,78,0.0666666666666667,0.0333333333333333,0.833333333333333,NaN,NaN,NaN,NaN,NaN,NaN,NaN,NaN,NaN
101,14,1,categorization,0,kitchen,SHINEd_sun_aapllqyqlykszopd.tif,66,0.0666666666666667,0.0333333333333333,0.75,NaN,NaN,NaN,NaN,NaN,NaN,NaN,NaN,NaN
101,15,1,categorization,0,bathroom,SHINEd_sun_alkosphxlxwjwgjd.tif,34,0.0666666666666667,0.0333333333333333,1.53333333333333,NaN,NaN,NaN,NaN,NaN,NaN,NaN,NaN,NaN
101,16,1,categorization,0,kitchen,SHINEd_sun_aaxxjlsuzvqlgylf.tif,68,0.0666666666666667,0.0333333333333333,1.05,NaN,NaN,NaN,NaN,NaN,NaN,NaN,NaN,NaN
101,17,1,categorization,0,bathroom,SHINEd_sun_avhrdrntsqrjzccq.tif,55,0.0666666666666667,0.0333333333333333,0.9,NaN,NaN,NaN,NaN,NaN,NaN,NaN,NaN,NaN
101,18,1,categorization,0,bathroom,SHINEd_sun_axxbkopsgyouuebh.tif,58,0.0666666666666667,0.0333333333333333,1.18333333333333,NaN,NaN,NaN,NaN,NaN,NaN,NaN,NaN,NaN
101,19,1,categorization,0,bathroom,SHINEd_sun_abapwbhyhkfixyex.tif,14,0.0666666666666667,0.0333333333333333,0.9,NaN,NaN,NaN,NaN,NaN,NaN,NaN,NaN,NaN
101,20,1,categorization,0,kitchen,SHINEd_sun_abdxkyyxwfskuaqb.tif,70,0.0666666666666667,0.0333333333333333,1.66666666666667,NaN,NaN,NaN,NaN,NaN,NaN,NaN,NaN,NaN
101,21,1,categorization,0,bathroom,SHINEd_sun_aghyqhbptboemmoq.tif,23,0.0666666666666667,0.0333333333333333,1.13333333333333,NaN,NaN,NaN,NaN,NaN,NaN,NaN,NaN,NaN
101,22,1,categorization,0,bathroom,SHINEd_sun_alotolagknyrgtsk.tif,35,0.0666666666666667,0.0333333333333333,1.3,NaN,NaN,NaN,NaN,NaN,NaN,NaN,NaN,NaN
101,23,1,categorization,0,bathroom,SHINEd_sun_afcoljnjfoxjtgja.tif,20,0.0666666666666667,0.0333333333333333,1.93333333333333,NaN,NaN,NaN,NaN,NaN,NaN,NaN,NaN,NaN
101,24,1,categorization,0,kitchen,SHINEd_sun_ajcbwwvdlsvjyzje.tif,96,0.0666666666666667,0.0333333333333333,1,NaN,NaN,NaN,NaN,NaN,NaN,NaN,NaN,NaN
101,25,1,categorization,0,kitchen,SHINEd_sun_aggjlwcdjsjcaemh.tif,86,0.0666666666666667,0.0333333333333333,0.883333333333333,NaN,NaN,NaN,NaN,NaN,NaN,NaN,NaN,NaN
101,26,1,categorization,0,kitchen,SHINEd_sun_aadbddgrdsjugojn.tif,64,0.0666666666666667,0.0333333333333333,1.95,NaN,NaN,NaN,NaN,NaN,NaN,NaN,NaN,NaN
101,27,1,categorization,0,kitchen,SHINEd_sun_akchetnepxlcxhsu.tif,98,0.0666666666666667,0.0333333333333333,1.25,NaN,NaN,NaN,NaN,NaN,NaN,NaN,NaN,NaN
101,28,1,categorization,0,bathroom,SHINEd_sun_ahaulkltgpkeeemi.tif,26,0.0666666666666667,0.0333333333333333,1.95,NaN,NaN,NaN,NaN,NaN,NaN,NaN,NaN,NaN
101,29,1,categorization,0,bathroom,SHINEd_sun_awnqiikzaispgmwo.tif,56,0.0666666666666667,0.0333333333333333,1.91666666666667,NaN,NaN,NaN,NaN,NaN,NaN,NaN,NaN,NaN
101,30,1,categorization,0,bathroom,SHINEd_sun_ajlawzvmubibwbpy.tif,30,0.0666666666666667,0.0333333333333333,1.41666666666667,NaN,NaN,NaN,NaN,NaN,NaN,NaN,NaN,NaN
101,31,1,categorization,0,kitchen,SHINEd_sun_ajkqhtgcbgpcwrwn.tif,97,0.0666666666666667,0.0333333333333333,0.716666666666667,NaN,NaN,NaN,NaN,NaN,NaN,NaN,NaN,NaN
101,32,1,categorization,0,bathroom,SHINEd_sun_acegryoqftbzowsg.tif,17,0.0666666666666667,0.0333333333333333,1.28333333333333,NaN,NaN,NaN,NaN,NaN,NaN,NaN,NaN,NaN
101,33,1,categorization,0,kitchen,SHINEd_sun_acxkpeoqbwcxfvip.tif,77,0.0666666666666667,0.0333333333333333,0.9,NaN,NaN,NaN,NaN,NaN,NaN,NaN,NaN,NaN
101,34,1,categorization,0,bathroom,SHINEd_sun_apmqjbnwghzuhhzh.tif,46,0.0666666666666667,0.0333333333333333,0.8,NaN,NaN,NaN,NaN,NaN,NaN,NaN,NaN,NaN
101,35,1,categorization,0,bathroom,SHINEd_sun_agguqiubmwhqqunb.tif,22,0.0666666666666667,0.0333333333333333,1.01666666666667,NaN,NaN,NaN,NaN,NaN,NaN,NaN,NaN,NaN
101,36,1,categorization,0,bathroom,SHINEd_sun_apkruvsevgegsdwp.tif,44,0.0666666666666667,0.0333333333333333,0.85,NaN,NaN,NaN,NaN,NaN,NaN,NaN,NaN,NaN
101,37,1,categorization,0,kitchen,SHINEd_sun_auticobqsbwgoppi.tif,104,0.0666666666666667,0.0333333333333333,1.51666666666667,NaN,NaN,NaN,NaN,NaN,NaN,NaN,NaN,NaN
101,38,1,categorization,0,kitchen,SHINEd_sun_axyyrmzcupyhlivc.tif,107,0.0666666666666667,0.0333333333333333,1.83333333333333,NaN,NaN,NaN,NaN,NaN,NaN,NaN,NaN,NaN
101,39,1,categorization,0,bathroom,SHINEd_sun_apjevzvycyhuqghb.tif,43,0.0666666666666667,0.0333333333333333,0.716666666666667,NaN,NaN,NaN,NaN,NaN,NaN,NaN,NaN,NaN
101,40,1,categorization,0,kitchen,SHINEd_sun_aexklacwqwezaorf.tif,84,0.0666666666666667,0.0333333333333333,0.9,NaN,NaN,NaN,NaN,NaN,NaN,NaN,NaN,NaN
101,41,1,categorization,0,kitchen,SHINEd_sun_abftihopvusyfakt.tif,71,0.0666666666666667,0.0333333333333333,0.916666666666667,NaN,NaN,NaN,NaN,NaN,NaN,NaN,NaN,NaN
101,42,1,categorization,0,kitchen,SHINEd_sun_acgtpgfybqjmzeyw.tif,75,0.0666666666666667,0.0333333333333333,0.816666666666667,NaN,NaN,NaN,NaN,NaN,NaN,NaN,NaN,NaN
101,43,1,categorization,0,kitchen,SHINEd_sun_acfmftudsenhrfhy.tif,74,0.0666666666666667,0.0333333333333333,1.88333333333333,NaN,NaN,NaN,NaN,NaN,NaN,NaN,NaN,NaN
101,44,1,categorization,0,bathroom,SHINEd_sun_azqyogdvyhahyram.tif,60,0.0666666666666667,0.0333333333333333,0.9,NaN,NaN,NaN,NaN,NaN,NaN,NaN,NaN,NaN
101,45,1,categorization,0,kitchen,SHINEd_sun_ahywdevtimnqcsln.tif,94,0.0666666666666667,0.0333333333333333,1,NaN,NaN,NaN,NaN,NaN,NaN,NaN,NaN,NaN
101,46,1,categorization,0,kitchen,SHINEd_sun_aarfiyshqohlwkmo.tif,67,0.0666666666666667,0.0333333333333333,0.733333333333333,NaN,NaN,NaN,NaN,NaN,NaN,NaN,NaN,NaN
101,47,1,categorization,0,bathroom,SHINEd_labelme_sfxiulhjbhlyiyt.tif,11,0.0666666666666667,0.0333333333333333,0.883333333333333,NaN,NaN,NaN,NaN,NaN,NaN,NaN,NaN,NaN
101,48,1,categorization,0,bathroom,SHINEd_sun_aleqenyvunhactkl.tif,32,0.0666666666666667,0.0333333333333333,1.73333333333333,NaN,NaN,NaN,NaN,NaN,NaN,NaN,NaN,NaN
101,49,1,categorization,0,bathroom,SHINEd_sun_amzlamotzwfkwjco.tif,37,0.0666666666666667,0.0333333333333333,1.91666666666667,NaN,NaN,NaN,NaN,NaN,NaN,NaN,NaN,NaN
101,50,1,categorization,0,kitchen,SHINEd_labelme_kxvouciolcpqplr.tif,62,0.0666666666666667,0.0333333333333333,1.35,NaN,NaN,NaN,NaN,NaN,NaN,NaN,NaN,NaN
