sub_num,trial,block,task,is_practice,category,image,texture,duration,jitter,stim_time,time_of_resp,trial_response,fix_time,jit_onset,trial_end,trial_accuracy,RT
101,1,0,categorization,1,kitchen,kitchen_practice3.jpg,118,83.33,1.6,692459.9849,692460.7189388,70,692460.065913,692460.728921,692462.3207389,1,0.734038800001144
101,2,0,categorization,1,kitchen,kitchen_practice1.jpg,116,83.33,1.03333333333333,692462.3286739,692463.3353756,70,692462.4097579,692463.3420693,692464.3670785,1,1.00670170004014
101,3,0,categorization,1,bathroom,bathroom_practice4.jpg,114,83.33,0.866666666666667,692464.3750056,692465.0229139,74,692464.4553438,692465.0292225,692465.8875652,1,0.647908299928531
101,4,0,categorization,1,kitchen,kitchen_practice5.jpg,120,83.33,0.866666666666667,692465.8945178,692466.7756739,70,692465.9748996,692466.7814754,692467.6398213,1,0.881156100076623
101,5,0,categorization,1,kitchen,kitchen_practice2.jpg,117,83.33,1.86666666666667,692467.648738,692468.8388853,70,692467.7292196,692468.8459887,692470.7043335,1,1.190147300018
101,6,0,categorization,1,kitchen,kitchen_practice4.jpg,119,83.33,0.716666666666667,692470.7106528,692471.3430146,70,692470.791519,692471.3499268,692472.0582697,1,0.632361799944192
101,7,0,categorization,1,bathroom,bathroom_practice3.jpg,113,83.33,1.43333333333333,692472.06477,692472.8549815,74,692472.1457238,692472.861841,692474.2868501,1,0.790211499901488
101,8,0,categorization,1,bathroom,bathroom_practice1.jpg,111,83.33,1.46666666666667,692474.2938042,692474.9188815,74,692474.3742038,692474.9253639,692476.3837041,1,0.625077300006524
101,9,0,categorization,1,bathroom,bathroom_practice5.jpg,115,83.33,1.66666666666667,692476.3898675,692477.1668934,74,692476.4705041,692477.1736247,692478.8319657,1,0.777025899966247
101,10,0,categorization,1,bathroom,bathroom_practice2.jpg,112,83.33,1.03333333333333,692478.8368939,692479.878976,74,692478.9157802,692479.8841505,692480.9091607,1,1.04208210005891
101,1,1,categorization,0,bathroom,sun_anhioqovhscjqqwb.jpg,89,83.33,1.96666666666667,692492.0308829,692492.7114761,74,692492.1101264,692492.7162898,692494.6746326,1,0.680593200027943
101,2,1,categorization,0,bathroom,sun_atstyziqcmkahyxk.jpg,101,83.33,0.816666666666667,692494.6809573,692495.3436668,74,692494.7598707,692495.3484724,692496.1568185,1,0.662709499942139
101,3,1,categorization,0,kitchen,sun_aadbddgrdsjugojn.jpg,12,83.33,0.816666666666667,692496.1616123,692496.8789497,70,692496.2407114,692496.8842994,692497.6926424,1,0.717337400070392
101,4,1,categorization,0,kitchen,sun_agzzivivdpnawacl.jpg,37,83.33,1.71666666666667,692497.6979345,692498.4149719,70,692497.7773755,692498.4201969,692500.1285411,1,0.717037399997935
101,5,1,categorization,0,bathroom,sun_ausgutylgojavyoq.jpg,103,83.33,0.883333333333333,692500.1346006,692500.7030259,74,692500.2138221,692500.708446,692501.583455,1,0.568425299949013
101,6,1,categorization,0,bathroom,sun_aovflwamhlwzwvxs.jpg,92,83.33,0.866666666666667,692501.5889482,692502.1829367,74,692501.6685986,692502.1882117,692503.0465587,1,0.593988499953412
101,7,1,categorization,0,kitchen,sun_aehawpgmrlhlvcow.jpg,28,83.33,1.11666666666667,692503.0514098,692503.8000418,70,692503.1306495,692503.8046293,692504.9129736,1,0.748632000060752
101,8,1,categorization,0,bathroom,sun_abtukhmkjdzyfxhr.jpg,68,83.33,1.05,692504.9184899,692505.4798355,74,692504.9975209,692505.4847013,692506.5263799,1,0.561345600057393
101,9,1,categorization,0,kitchen,sun_ahljzhgcdpomplvg.jpg,39,83.33,1.03333333333333,692506.5314777,692507.2309847,70,692506.610712,692507.2365637,692508.261609,1,0.699507000041194
101,10,1,categorization,0,kitchen,sun_alazdvaixpjtegwg.jpg,47,83.33,0.933333333333333,692508.2669988,692508.9517029,70,692508.3462057,692508.9560963,692509.8811074,1,0.684704100014642
101,11,1,categorization,0,kitchen,sun_abpwyqmlzafvklqo.jpg,19,83.33,0.766666666666667,692509.8862446,692510.6950088,70,692509.966085,692510.7002038,692511.458545,1,0.808764199959114
101,12,1,categorization,0,kitchen,labelme_rykdqxenmhulbdn.jpg,11,83.33,1.25,692511.464157,692512.2235138,70,692511.5433298,692512.2285947,692513.470271,1,0.759356800001115
101,13,1,categorization,0,kitchen,sun_agubuxuukhzyzpdp.jpg,36,83.33,0.816666666666667,692513.4751191,692514.1275894,70,692513.5542464,692514.1323432,692514.9406825,1,0.652470300090499
101,14,1,categorization,0,kitchen,sun_aeqbewejiovwrhhc.jpg,30,83.33,1.73333333333333,692514.9454925,692515.5518071,70,692515.0245501,692515.5563684,692517.2813796,1,0.606314599979669
101,15,1,categorization,0,bathroom,sun_agyqfjcfkdcydepw.jpg,77,83.33,1.1,692517.2867997,692517.7996835,74,692517.3660591,692517.8042544,692518.8959293,1,0.512883799965493
101,16,1,categorization,0,kitchen,sun_abrcnpqqhmjwekyf.jpg,20,83.33,0.766666666666667,692518.901757,692519.5270328,70,692518.9811543,692519.5325825,692520.2909234,1,0.625275800004601
101,17,1,categorization,0,kitchen,sun_ahdycvpopffkzzsu.jpg,38,83.33,0.9,692520.2957547,692520.9829696,70,692520.3749462,692520.9885405,692521.8802425,1,0.687214900040999
101,18,1,categorization,0,kitchen,sun_aqeaevwwwjoqhzvl.jpg,51,83.33,1.16666666666667,692521.8855994,692522.8879145,70,692521.9650903,692522.8926374,692524.0509822,1,1.00231509993318
101,19,1,categorization,0,bathroom,sun_acsgbuurtwghzjel.jpg,71,83.33,1.8,692524.0561544,692524.6230514,74,692524.1352253,692524.6278845,692526.4195579,1,0.566896999953315
101,20,1,categorization,0,kitchen,sun_ajcbwwvdlsvjyzje.jpg,44,83.33,1.48333333333333,692526.4264429,692527.1589953,70,692526.5058186,692527.1639432,692528.6389565,1,0.732552399975248
101,21,1,categorization,0,bathroom,sun_ammzpemadwrjdfzl.jpg,87,83.33,1.78333333333333,692528.6439309,692529.2470682,74,692528.7240671,692529.2523737,692531.0273822,1,0.603137300000526
101,22,1,categorization,0,bathroom,sun_aamrfepkhweyewue.jpg,63,83.33,1.7,692531.0321581,692531.7349953,74,692531.1113469,692531.7402276,692533.4319046,1,0.702837199904025
101,23,1,categorization,0,bathroom,sun_auzqhkafidnkrwmo.jpg,104,83.33,0.8,692533.4375912,692534.0478586,74,692533.5166987,692534.0529332,692534.8446091,1,0.610267400043085
101,24,1,categorization,0,kitchen,sun_aaxxjlsuzvqlgylf.jpg,16,83.33,0.783333333333333,692534.8494531,692535.5438405,70,692534.9283308,692535.5484258,692536.3234342,1,0.694387399940751
101,25,1,categorization,0,bathroom,sun_aqrpegblszgcoujh.jpg,97,83.33,1.41666666666667,692536.3282658,692536.8549781,74,692536.4078213,692536.8602407,692538.2685824,1,0.526712300023064
101,26,1,categorization,0,bathroom,sun_aspsyogrekjtfozg.jpg,100,83.33,0.933333333333333,692538.2735557,692539.039783,74,692538.3527315,692539.0443289,692539.9693381,1,0.766227300046012
101,27,1,categorization,0,bathroom,sun_awnqiikzaispgmwo.jpg,106,83.33,1.1,692539.9744714,692540.5030721,74,692540.053512,692540.5090457,692541.6007224,1,0.528600699966773
101,28,1,categorization,0,kitchen,sun_agorklincwxrdtga.jpg,35,83.33,1.6,692541.6065778,692542.2229838,70,692541.6855785,692542.2280263,692543.8197019,1,0.616405999986455
101,29,1,categorization,0,kitchen,sun_adgqasybjyktddhj.jpg,25,83.33,1.15,692543.8254178,692544.3990432,70,692543.9045908,692544.4041526,692545.5458278,1,0.57362539996393
101,30,1,categorization,0,bathroom,sun_avhrdrntsqrjzccq.jpg,105,83.33,1.91666666666667,692545.5510107,692546.199138,74,692545.6300456,692546.2040231,692548.1123703,1,0.648127300082706
101,31,1,categorization,0,bathroom,labelme_xbsnnlvmskdknsb.jpg,62,83.33,1.76666666666667,692548.1180519,692548.7198991,74,692548.1971326,692548.724578,692550.4829231,1,0.60184720007237
101,32,1,categorization,0,bathroom,sun_aleqenyvunhactkl.jpg,83,83.33,1.51666666666667,692550.4882252,692550.9598744,74,692550.5675287,692550.9645761,692552.472918,1,0.471649200073443
101,33,1,categorization,0,bathroom,sun_axyrejkiiaqiurjk.jpg,109,83.33,0.716666666666667,692552.4785536,692553.270958,74,692552.557741,692553.2758438,692553.9842033,1,0.79240439995192
101,34,1,categorization,0,kitchen,sun_ataniphupyuxeowc.jpg,52,83.33,1.16666666666667,692553.9895725,692554.6310654,70,692554.0687515,692554.6367455,692555.7950874,1,0.641492899972945
101,35,1,categorization,0,bathroom,sun_apkxzenqapsujocq.jpg,95,83.33,1.78333333333333,692555.8004605,692556.3915112,74,692555.8795599,692556.3957075,692558.1707323,1,0.59105070005171
101,36,1,categorization,0,bathroom,sun_axxbkopsgyouuebh.jpg,108,83.33,0.866666666666667,692558.1761813,692558.7511055,74,692558.2556759,692558.7564566,692559.6147988,1,0.574924200074747
101,37,1,categorization,0,bathroom,sun_arzkwskvsrwimlwo.jpg,98,83.33,1.53333333333333,692559.6197708,692560.3670853,74,692559.7000141,692560.3721605,692561.8971702,1,0.747314500040375
101,38,1,categorization,0,bathroom,sun_apynckhmoftszqoq.jpg,96,83.33,0.8,692561.9026619,692562.4070878,74,692561.9816143,692562.4124822,692563.2041604,1,0.504425899940543
101,39,1,categorization,0,bathroom,sun_acgyywnybuveqsro.jpg,69,83.33,1.16666666666667,692563.2086872,692563.847986,74,692563.2878889,692563.8530213,692565.0113656,1,0.639298800029792
101,40,1,categorization,0,kitchen,sun_auticobqsbwgoppi.jpg,54,83.33,1.16666666666667,692565.0168835,692565.6798786,70,692565.0960135,692565.6841287,692566.8424728,1,0.662995100021362
101,41,1,categorization,0,kitchen,sun_aglwoufpxbtxqecp.jpg,34,83.33,1.61666666666667,692566.8475216,692567.4644498,70,692566.9266127,692567.4689206,692569.0772845,1,0.616928200004622
101,42,1,categorization,0,kitchen,sun_acfmftudsenhrfhy.jpg,22,83.33,1.13333333333333,692569.082713,692569.6950601,70,692569.162808,692569.7003782,692570.825425,1,0.612347100046463
101,43,1,categorization,0,bathroom,sun_amzlamotzwfkwjco.jpg,88,83.33,0.816666666666667,692570.8310727,692571.4550934,70,692570.9103365,692571.4604415,692572.2687821,0,0.624020699993707
101,44,1,categorization,0,kitchen,sun_ahpczsiumwwocjkv.jpg,40,83.33,1.81666666666667,692572.2739445,692573.2790802,70,692572.3540604,692573.2840345,692575.0923771,1,1.00513569999021
101,45,1,categorization,0,bathroom,sun_alkosphxlxwjwgjd.jpg,85,83.33,0.833333333333333,692575.0975648,692575.7195499,74,692575.1770211,692575.7247934,692576.549802,1,0.621985100093298
101,46,1,categorization,0,kitchen,sun_aypmqwcualkenuoe.jpg,60,83.33,1.61666666666667,692576.5556226,692577.7040002,70,692576.6348899,692577.7085747,692579.3169201,1,1.14837760000955
101,47,1,categorization,0,kitchen,sun_axaiaptzctpidqzg.jpg,58,83.33,0.783333333333333,692579.3218561,692579.9683062,70,692579.4010278,692579.9728625,692580.7478713,1,0.646450100000948
101,48,1,categorization,0,bathroom,sun_aoybiabnpadelefl.jpg,93,83.33,1.31666666666667,692580.7540491,692581.4151343,74,692580.833167,692581.4204097,692582.7287542,1,0.661085200030357
101,49,1,categorization,0,kitchen,sun_aamedkxepzlwuxes.jpg,13,83.33,1.35,692582.734058,692583.3351142,70,692582.8131659,692583.3399968,692584.681698,1,0.601056199986488
101,50,1,categorization,0,kitchen,sun_aexklacwqwezaorf.jpg,31,83.33,1.13333333333333,692584.6866004,692585.2958291,70,692584.7661098,692585.300764,692586.4257742,1,0.609228699933738
101,1,2,categorization,0,kitchen,sun_acxkpeoqbwcxfvip.jpg,24,83.33,1.05,692594.3605276,692595.0076325,70,692594.4394138,692595.0119429,692596.0536234,1,0.647104899981059
101,2,2,categorization,0,bathroom,sun_asfwthctfqerjvxr.jpg,99,83.33,0.85,692596.0588872,692596.6794269,74,692596.1377942,692596.6837421,692597.5254161,1,0.620539700030349
101,3,2,categorization,0,kitchen,sun_abdxkyyxwfskuaqb.jpg,18,83.33,1.85,692597.530259,692598.1751556,70,692597.6092815,692598.1802972,692600.0219704,1,0.64489659992978
101,4,2,categorization,0,bathroom,sun_axbqssteryzzlcop.jpg,107,83.33,0.95,692600.0273069,692600.5357904,74,692600.1063648,692600.5403848,692601.4820628,1,0.508483499987051
101,5,2,categorization,0,bathroom,labelme_sfxiulhjbhlyiyt.jpg,61,83.33,0.983333333333333,692601.4868073,692602.319144,74,692601.5658849,692602.3242536,692603.299264,1,0.832336699939333
101,6,2,categorization,0,kitchen,sun_amjjdeyrggfqgmom.jpg,49,83.33,1.13333333333333,692603.3039043,692604.0950404,70,692603.3831379,692604.1005087,692605.2255174,1,0.791136100073345
101,7,2,categorization,0,bathroom,sun_apeeialkgkuxddgh.jpg,94,83.33,1.81666666666667,692605.2307034,692605.8071593,74,692605.310067,692605.8127497,692607.6210959,1,0.576455899979919
101,8,2,categorization,0,bathroom,sun_afcoljnjfoxjtgja.jpg,74,83.33,1.83333333333333,692607.625828,692608.2638436,74,692607.7049086,692608.2688622,692610.0938986,1,0.638015600037761
101,9,2,categorization,0,kitchen,sun_ahywdevtimnqcsln.jpg,42,83.33,0.75,692610.099664,692610.8231333,70,692610.1788447,692610.8283292,692611.5700036,1,0.723469299962744
101,10,2,categorization,0,kitchen,sun_aaofphpvkeqlhwgu.jpg,14,83.33,0.833333333333333,692611.5756077,692612.1351601,70,692611.6547326,692612.1404935,692612.9655012,1,0.559552399907261
101,11,2,categorization,0,kitchen,sun_admlmbcdswaszruo.jpg,26,83.33,0.95,692612.9701722,692613.4871679,70,692613.0493273,692613.492935,692614.4346093,1,0.516995699959807
101,12,2,categorization,0,bathroom,sun_anlddfvefwvocyae.jpg,90,83.33,0.883333333333333,692614.4405565,692615.0157639,74,692614.5198468,692615.0200765,692615.895085,1,0.575207400019281
101,13,2,categorization,0,kitchen,sun_axyyrmzcupyhlivc.jpg,59,83.33,1.53333333333333,692615.9013304,692616.5518752,70,692615.980343,692616.5565271,692618.0815364,1,0.650544799980707
101,14,2,categorization,0,bathroom,sun_adbqksnwuqqwdpxc.jpg,72,83.33,1.1,692618.0872908,692618.5916128,74,692618.1665324,692618.5960776,692619.687754,1,0.50432200008072
101,15,2,categorization,0,kitchen,sun_ahvszpwjtodgwusx.jpg,41,83.33,0.933333333333333,692619.6926712,692620.3520166,70,692619.7718292,692620.3564551,692621.2814661,1,0.659345399937592
101,16,2,categorization,0,bathroom,sun_ambriybtogmepttm.jpg,86,83.33,1.48333333333333,692621.2864233,692621.9111704,70,692621.3658329,692621.9164427,692623.3914548,0,0.62474709993694
101,17,2,categorization,0,bathroom,sun_ajlpekbqvytdohqb.jpg,81,83.33,0.816666666666667,692623.3964102,692623.9751705,74,692623.4754919,692623.9802342,692624.7885743,1,0.578760299948044
101,18,2,categorization,0,kitchen,sun_aegoxogugdkwpmpj.jpg,27,83.33,1.45,692624.7943239,692625.3992059,70,692624.8737578,692625.4044176,692626.8460941,1,0.604882000014186
101,19,2,categorization,0,bathroom,sun_ahqjwnzgolcaoidx.jpg,79,83.33,1.83333333333333,692626.8515555,692627.3759721,74,692626.9307402,692627.3809614,692629.2059675,1,0.52441660000477
101,20,2,categorization,0,kitchen,sun_aiffeoqzngslhzfi.jpg,43,83.33,1.06666666666667,692629.2117287,692629.887194,70,692629.2907921,692629.8925422,692630.9508829,1,0.675465299980715
101,21,2,categorization,0,kitchen,sun_anbcmfjhobvmedkq.jpg,50,83.33,1.31666666666667,692630.9555183,692631.4799654,70,692631.0343617,692631.4846233,692632.7929662,1,0.524447100004181
101,22,2,categorization,0,kitchen,sun_aeikbkmhphqzxdkv.jpg,29,83.33,1.45,692632.7980359,692633.5198664,70,692632.8770919,692633.5244307,692634.9661094,1,0.721830500056967
101,23,2,categorization,0,kitchen,sun_aapllqyqlykszopd.jpg,15,83.33,1.21666666666667,692634.9716509,692635.5838728,70,692635.05083,692635.5885287,692636.7968688,1,0.612221900024451
101,24,2,categorization,0,bathroom,sun_aavhrsfjbserjtht.jpg,65,83.33,1.1,692636.8018246,692637.4323937,74,692636.8814038,692637.4373826,692638.5290628,1,0.630569100030698
101,25,2,categorization,0,kitchen,sun_acwjdupvyjsugpay.jpg,23,83.33,1.83333333333333,692638.5337479,692639.2799317,70,692638.6128059,692639.2849472,692641.1099553,1,0.746183799928986
101,26,2,categorization,0,bathroom,sun_adwvsndpdsgzeste.jpg,73,83.33,1.26666666666667,692641.1156696,692641.7599663,74,692641.1945633,692641.7645282,692643.0228714,1,0.644296700018458
101,27,2,categorization,0,bathroom,sun_aclfzgynxzxlbepz.jpg,70,83.33,1.3,692643.0281669,692643.5910979,74,692643.1073258,692643.5962849,692644.887964,1,0.562930999905802
101,28,2,categorization,0,bathroom,sun_aiskgiwswewisvph.jpg,80,83.33,1.06666666666667,692644.8929535,692645.9911987,74,692644.9719473,692645.9958642,692647.0542068,1,1.09824520000257
101,29,2,categorization,0,kitchen,sun_awcpdzzznmweyyhv.jpg,57,83.33,1.06666666666667,692647.0591385,692647.711193,70,692647.1382116,692647.7163443,692648.7746843,1,0.652054499951191
101,30,2,categorization,0,bathroom,sun_aapitsgbtktqubfy.jpg,64,83.33,1.7,692648.7802278,692649.3591238,74,692648.8593733,692649.3639548,692651.0556331,1,0.578895999933593
101,31,2,categorization,0,kitchen,sun_alpduwskzkgbcfui.jpg,48,83.33,1.36666666666667,692651.0602615,692651.647209,70,692651.1392597,692651.6528475,692653.0111944,1,0.586947500007227
101,32,2,categorization,0,kitchen,sun_auaiucuqpdausiva.jpg,53,83.33,0.833333333333333,692653.0161722,692653.6636958,70,692653.0960404,692653.6682394,692654.4932527,1,0.647523600026034
101,33,2,categorization,0,kitchen,sun_acfluyeqiftljamq.jpg,21,83.33,1.01666666666667,692654.4978783,692655.1031448,70,692654.5769231,692655.108806,692656.1171503,1,0.605266500031576
101,34,2,categorization,0,kitchen,sun_abdenxonkemggwsq.jpg,17,83.33,0.783333333333333,692656.1229226,692656.7912224,70,692656.2035468,692656.7962351,692657.57125,1,0.668299800017849
101,35,2,categorization,0,bathroom,sun_aghyqhbptboemmoq.jpg,75,83.33,1.05,692657.5772467,692658.1600559,74,692657.6563469,692658.1651112,692659.2067874,1,0.582809200044721
101,36,2,categorization,0,bathroom,sun_azqyogdvyhahyram.jpg,110,83.33,0.95,692659.2124073,692659.775864,74,692659.2914873,692659.7807744,692660.7224495,1,0.563456699950621
101,37,2,categorization,0,bathroom,sun_ahcvzmoyaycdoftf.jpg,78,83.33,1.45,692660.7271886,692661.3192135,74,692660.8061941,692661.3244862,692662.7661592,1,0.592024900019169
101,38,2,categorization,0,bathroom,sun_aunuadmjocsddsrl.jpg,102,83.33,1.08333333333333,692662.7718088,692663.3432304,74,692662.8519601,692663.3480408,692664.4230487,1,0.571421599946916
101,39,2,categorization,0,bathroom,sun_abeymlrfgckenfyk.jpg,66,83.33,1.08333333333333,692664.4291614,692665.039207,74,692664.5082836,692665.0452977,692666.1203091,1,0.61004560010042
101,40,2,categorization,0,kitchen,sun_alalhpqajafvlnho.jpg,46,83.33,1.1,692666.125,692666.7599389,70,692666.2039719,692666.7645846,692667.8562633,1,0.634938900009729
101,41,2,categorization,0,kitchen,sun_avszsnwsbuqfgzbn.jpg,55,83.33,0.7,692667.8611817,692668.4311545,70,692667.9402268,692668.4363098,692669.1279867,1,0.569972799974494
101,42,2,categorization,0,bathroom,sun_agrwbmhcpmfuwmsg.jpg,76,83.33,1.43333333333333,692669.1334621,692669.7592116,74,692669.2126049,692669.7644564,692671.1894655,1,0.625749499886297
101,43,2,categorization,0,bathroom,sun_akbyysnpwewzraii.jpg,82,83.33,0.983333333333333,692671.1945809,692671.7756594,74,692671.2734897,692671.7798904,692672.7549007,1,0.581078500021249
101,44,2,categorization,0,bathroom,sun_aljolscmmzydegqp.jpg,84,83.33,0.9,692672.7600479,692673.2559142,74,692672.8395917,692673.2601998,692674.1519085,1,0.495866299956106
101,45,2,categorization,0,bathroom,sun_abjtwfukuwddzted.jpg,67,83.33,1.13333333333333,692674.157648,692674.6872396,74,692674.2369722,692674.6925165,692675.8175479,1,0.529591599944979
101,46,2,categorization,0,kitchen,sun_awbyfefkbcrlrqws.jpg,56,83.33,1.3,692675.8235678,692676.7112397,70,692675.9027315,692676.7166575,692678.0083367,1,0.887671899981797
101,47,2,categorization,0,kitchen,sun_akcjzhbbjlbogpdi.jpg,45,83.33,1.23333333333333,692678.0135269,692678.5438993,70,692678.0925314,692678.5482268,692679.7732372,1,0.530372400069609
101,48,2,categorization,0,bathroom,sun_anltpptcpfdrhlks.jpg,91,83.33,1.71666666666667,692679.7780914,692680.3832033,74,692679.857246,692680.3881212,692682.0964658,1,0.605111899902113
101,49,2,categorization,0,kitchen,sun_aggjlwcdjsjcaemh.jpg,33,83.33,0.75,692682.1020833,692682.9278739,70,692682.1810855,692682.9324886,692683.6741619,1,0.825790600036271
101,50,2,categorization,0,kitchen,sun_agfmsmojwptjoava.jpg,32,83.33,0.816666666666667,692683.6790129,692684.2726516,70,692683.7582891,692684.277495,692685.085837,1,0.593638699967414
101,1,3,categorization,0,bathroom,sun_anhioqovhscjqqwb.jpg,89,83.33,1.23333333333333,692692.0132064,692692.7672431,74,692692.0920966,692692.7724797,692693.9974874,1,0.75403670000378
101,2,3,categorization,0,bathroom,sun_atstyziqcmkahyxk.jpg,101,83.33,0.9,692694.0038179,692694.5838773,74,692694.0829255,692694.5882521,692695.479929,1,0.580059400061145
101,3,3,categorization,0,kitchen,sun_aadbddgrdsjugojn.jpg,12,83.33,1.31666666666667,692695.4848739,692696.1520807,70,692695.5643898,692696.1565913,692697.4649352,1,0.667206800077111
101,4,3,categorization,0,kitchen,sun_agzzivivdpnawacl.jpg,37,83.33,1.48333333333333,692697.4704406,692698.183246,70,692697.5495535,692698.1888863,692699.6638959,1,0.712805400020443
101,5,3,categorization,0,bathroom,sun_ausgutylgojavyoq.jpg,103,83.33,1,692699.6700268,692700.2952207,74,692699.7491579,692700.3002506,692701.2919584,1,0.625193899963051
101,6,3,categorization,0,bathroom,sun_aovflwamhlwzwvxs.jpg,92,83.33,0.716666666666667,692701.2980274,692701.8640628,74,692701.3773675,692701.8684954,692702.5768391,1,0.566035399911925
101,7,3,categorization,0,kitchen,sun_aehawpgmrlhlvcow.jpg,28,83.33,0.833333333333333,692702.5817382,692703.1753187,74,692702.6610702,692703.1804257,692704.0054371,0,0.593580499989912
101,8,3,categorization,0,bathroom,sun_abtukhmkjdzyfxhr.jpg,68,83.33,0.7,692704.011028,692704.5431872,74,692704.0900473,692704.5486886,692705.2403641,1,0.532159199938178
101,9,3,categorization,0,kitchen,sun_ahljzhgcdpomplvg.jpg,39,83.33,0.766666666666667,692705.2450852,692705.8392699,70,692705.324199,692705.8456413,692706.6039856,1,0.594184700050391
101,10,3,categorization,0,kitchen,sun_alazdvaixpjtegwg.jpg,47,83.33,1.23333333333333,692706.6092022,692707.2159994,70,692706.6883815,692707.2209822,692708.4459945,1,0.606797200045548
101,11,3,categorization,0,kitchen,sun_abpwyqmlzafvklqo.jpg,19,83.33,1.53333333333333,692708.4511826,692708.9672446,70,692708.5304579,692708.9720935,692710.497105,1,0.516061999951489
101,12,3,categorization,0,kitchen,labelme_rykdqxenmhulbdn.jpg,11,83.33,1.66666666666667,692710.5024893,692710.9923401,70,692710.5813874,692710.9968129,692712.6551576,1,0.489850800018758
101,13,3,categorization,0,kitchen,sun_agubuxuukhzyzpdp.jpg,36,83.33,1.01666666666667,692712.6597854,692713.2401212,70,692712.7388878,692713.2447669,692714.2531099,1,0.5803357999539
101,14,3,categorization,0,kitchen,sun_aeqbewejiovwrhhc.jpg,30,83.33,1.26666666666667,692714.2583766,692714.7912273,70,692714.3375738,692714.796667,692716.0550089,1,0.532850699964911
101,15,3,categorization,0,bathroom,sun_agyqfjcfkdcydepw.jpg,77,83.33,0.9,692716.0604999,692716.6632851,74,692716.1396449,692716.6691327,692717.5608076,1,0.602785199997015
101,16,3,categorization,0,kitchen,sun_abrcnpqqhmjwekyf.jpg,20,83.33,1.38333333333333,692717.5663236,692718.2072464,70,692717.6453391,692718.2125624,692719.5875976,1,0.64092279993929
101,17,3,categorization,0,kitchen,sun_ahdycvpopffkzzsu.jpg,38,83.33,1.41666666666667,692719.5937148,692720.2873344,70,692719.6728844,692720.2926762,692721.7010197,1,0.693619600031525
101,18,3,categorization,0,kitchen,sun_aqeaevwwwjoqhzvl.jpg,51,83.33,0.916666666666667,692721.7069768,692722.2560509,70,692721.7860053,692722.2604609,692723.1688043,1,0.549074099981226
101,19,3,categorization,0,bathroom,sun_acsgbuurtwghzjel.jpg,71,83.33,0.95,692723.1743092,692723.7271845,74,692723.2534156,692723.7318623,692724.6735364,1,0.552875299938023
101,20,3,categorization,0,kitchen,sun_ajcbwwvdlsvjyzje.jpg,44,83.33,1.43333333333333,692724.6784435,692725.2161552,74,692724.7575771,692725.2206347,692726.6456427,0,0.537711700075306
101,21,3,categorization,0,bathroom,sun_ammzpemadwrjdfzl.jpg,87,83.33,1.25,692726.6507625,692727.4473089,74,692726.7298693,692727.4527592,692728.6944331,1,0.796546399942599
101,22,3,categorization,0,bathroom,sun_aamrfepkhweyewue.jpg,63,83.33,1.08333333333333,692728.7002679,692729.2633164,74,692728.7792672,692729.2682733,692730.3432809,1,0.563048499985598
101,23,3,categorization,0,bathroom,sun_auzqhkafidnkrwmo.jpg,104,83.33,1.23333333333333,692730.3492831,692730.8800274,74,692730.4282619,692730.8846895,692732.109699,1,0.530744299991056
101,24,3,categorization,0,kitchen,sun_aaxxjlsuzvqlgylf.jpg,16,83.33,1.66666666666667,692732.1157059,692732.7993025,70,692732.1948883,692732.8047711,692734.4631163,1,0.683596599963494
101,25,3,categorization,0,bathroom,sun_aqrpegblszgcoujh.jpg,97,83.33,1.25,692734.4683297,692735.1193132,74,692734.5474708,692735.124968,692736.3666416,1,0.650983500061557
101,26,3,categorization,0,bathroom,sun_aspsyogrekjtfozg.jpg,100,83.33,0.733333333333333,692736.3718093,692737.0232662,74,692736.450865,692737.0287677,692737.7537809,1,0.651456899940968
101,27,3,categorization,0,bathroom,sun_awnqiikzaispgmwo.jpg,106,83.33,1.85,692737.7587311,692738.5673177,74,692737.8378434,692738.5728052,692740.4144858,1,0.808586600003764
101,28,3,categorization,0,kitchen,sun_agorklincwxrdtga.jpg,35,83.33,1.21666666666667,692740.420499,692741.2478816,70,692740.4996223,692741.2525013,692742.4608451,1,0.827382600051351
101,29,3,categorization,0,kitchen,sun_adgqasybjyktddhj.jpg,25,83.33,1.21666666666667,692742.4663224,692743.2313404,70,692742.5459653,692743.2367263,692744.4450677,1,0.7650179999182
101,30,3,categorization,0,bathroom,sun_avhrdrntsqrjzccq.jpg,105,83.33,1.48333333333333,692744.4497302,692745.0873352,74,692744.528681,692745.0929764,692746.5679877,1,0.637605000054464
101,31,3,categorization,0,bathroom,labelme_xbsnnlvmskdknsb.jpg,62,83.33,1.58333333333333,692746.5734386,692747.2480894,74,692746.6522853,692747.2527422,692748.8277533,1,0.674650799948722
101,32,3,categorization,0,bathroom,sun_aleqenyvunhactkl.jpg,83,83.33,1.66666666666667,692748.8337754,692749.6872593,74,692748.9127225,692749.69234,692751.3507127,1,0.853483900078572
101,33,3,categorization,0,bathroom,sun_axyrejkiiaqiurjk.jpg,109,83.33,0.733333333333333,692751.3564253,692752.3432148,74,692751.4356162,692752.3484428,692753.0734554,1,0.986789499991573
101,34,3,categorization,0,kitchen,sun_ataniphupyuxeowc.jpg,52,83.33,0.75,692753.0790563,692753.7433358,70,692753.1582381,692753.7485562,692754.4902369,1,0.664279500022531
101,35,3,categorization,0,bathroom,sun_apkxzenqapsujocq.jpg,95,83.33,1.11666666666667,692754.4949425,692755.1119626,74,692754.5737111,692755.1161698,692756.2245142,1,0.617020100005902
101,36,3,categorization,0,bathroom,sun_axxbkopsgyouuebh.jpg,108,83.33,1.3,692756.2295315,692756.8000568,74,692756.308578,692756.8051059,692758.0967813,1,0.57052529999055
101,37,3,categorization,0,bathroom,sun_arzkwskvsrwimlwo.jpg,98,83.33,1.1,692758.1019609,692758.8153669,74,692758.182419,692758.820545,692759.9122239,1,0.713405999937095
101,38,3,categorization,0,bathroom,sun_apynckhmoftszqoq.jpg,96,83.33,0.966666666666667,692759.9176627,692760.47138,74,692759.996796,692760.4763328,692761.4346796,1,0.553717299946584
101,39,3,categorization,0,bathroom,sun_acgyywnybuveqsro.jpg,69,83.33,1.28333333333333,692761.4400024,692762.1037113,74,692761.5201281,692762.108251,692763.3832587,1,0.663708899985068
101,40,3,categorization,0,kitchen,sun_auticobqsbwgoppi.jpg,54,83.33,0.95,692763.3888636,692764.0553502,70,692763.4686609,692764.0602195,692765.0018975,1,0.666486600064673
101,41,3,categorization,0,kitchen,sun_aglwoufpxbtxqecp.jpg,34,83.33,0.983333333333333,692765.0068182,692765.7286615,70,692765.0861686,692765.733594,692766.7086037,1,0.721843300038017
101,42,3,categorization,0,kitchen,sun_acfmftudsenhrfhy.jpg,22,83.33,1.25,692766.713306,692767.4170723,70,692766.7939273,692767.4215892,692768.6632654,1,0.703766299993731
101,43,3,categorization,0,bathroom,sun_amzlamotzwfkwjco.jpg,88,83.33,0.733333333333333,692768.6688224,692769.5673836,74,692768.7480189,692769.5728489,692770.2978611,1,0.89856120001059
101,44,3,categorization,0,kitchen,sun_ahpczsiumwwocjkv.jpg,40,83.33,1.25,692770.3027886,692771.3513812,70,692770.3817828,692771.3564464,692772.5981212,1,1.04859260004014
101,45,3,categorization,0,bathroom,sun_alkosphxlxwjwgjd.jpg,85,83.33,1.21666666666667,692772.6027782,692773.3272876,74,692772.6821705,692773.3322139,692774.5405574,1,0.724509400082752
101,46,3,categorization,0,kitchen,sun_aypmqwcualkenuoe.jpg,60,83.33,1.13333333333333,692774.5461914,692775.2477646,70,692774.6254071,692775.2521964,692776.3772059,1,0.701573199941777
101,47,3,categorization,0,kitchen,sun_axaiaptzctpidqzg.jpg,58,83.33,1.45,692776.3824234,692777.0073716,70,692776.4614403,692777.0127625,692778.4544389,1,0.624948200071231
101,48,3,categorization,0,bathroom,sun_aoybiabnpadelefl.jpg,93,83.33,1.81666666666667,692778.4602413,692779.2156956,74,692778.5394486,692779.2200852,692781.0284273,1,0.755454299971461
101,49,3,categorization,0,kitchen,sun_aamedkxepzlwuxes.jpg,13,83.33,1.16666666666667,692781.0336487,692781.6953232,70,692781.1131121,692781.7005759,692782.8589187,1,0.66167449997738
101,50,3,categorization,0,kitchen,sun_aexklacwqwezaorf.jpg,31,83.33,1.36666666666667,692782.8636524,692783.5361644,70,692782.9426578,692783.5409845,692784.899326,1,0.672512000077404
101,1,4,categorization,0,kitchen,sun_acxkpeoqbwcxfvip.jpg,24,83.33,0.966666666666667,692794.8845055,692795.5114103,70,692794.9638397,692795.5176543,692796.4759958,1,0.626904800068587
101,2,4,categorization,0,bathroom,sun_asfwthctfqerjvxr.jpg,99,83.33,0.95,692796.4817098,692797.1838696,74,692796.5608787,692797.1882179,692798.1298949,1,0.702159799984656
101,3,4,categorization,0,kitchen,sun_abdxkyyxwfskuaqb.jpg,18,83.33,0.883333333333333,692798.1348208,692798.8245458,70,692798.2140461,692798.8290574,692799.7040702,1,0.689724999945611
101,4,4,categorization,0,bathroom,sun_axbqssteryzzlcop.jpg,107,83.33,0.9,692799.7095133,692800.4320903,74,692799.7886502,692800.4367079,692801.3283821,1,0.722577000036836
101,5,4,categorization,0,bathroom,labelme_sfxiulhjbhlyiyt.jpg,61,83.33,1.01666666666667,692801.3332298,692803.0006257,74,692801.4124086,692803.0050094,692804.0133532,1,1.66739590000361
101,6,4,categorization,0,kitchen,sun_amjjdeyrggfqgmom.jpg,49,83.33,0.966666666666667,692804.0189466,692804.6954098,70,692804.0981056,692804.7006637,692805.6590063,1,0.676463200012222
101,7,4,categorization,0,bathroom,sun_apeeialkgkuxddgh.jpg,94,83.33,1.3,692805.6644169,692806.3520349,74,692805.7438741,692806.3565897,692807.648288,1,0.687617999967188
101,8,4,categorization,0,bathroom,sun_afcoljnjfoxjtgja.jpg,74,83.33,1.13333333333333,692807.6531349,692808.9360721,74,692807.7326359,692808.9405195,692810.0655292,1,1.28293719992507
101,9,4,categorization,0,kitchen,sun_ahywdevtimnqcsln.jpg,42,83.33,1.01666666666667,692810.0707638,692810.8560857,70,692810.1502539,692810.8607617,692811.8691049,1,0.78532190003898
101,10,4,categorization,0,kitchen,sun_aaofphpvkeqlhwgu.jpg,14,83.33,0.783333333333333,692811.8746693,692812.5354527,70,692811.9537747,692812.5408098,692813.3158178,1,0.660783399944194
101,11,4,categorization,0,kitchen,sun_admlmbcdswaszruo.jpg,26,83.33,1.08333333333333,692813.3207889,692813.8714172,70,692813.3999209,692813.8767404,692814.951822,1,0.550628299941309
101,12,4,categorization,0,bathroom,sun_anlddfvefwvocyae.jpg,90,83.33,0.883333333333333,692814.9582737,692815.7280174,74,692815.0373525,692815.7327696,692816.6077811,1,0.769743700046092
101,13,4,categorization,0,kitchen,sun_axyyrmzcupyhlivc.jpg,59,83.33,1.28333333333333,692816.6127697,692817.4562873,70,692816.6920111,692817.461244,692818.7362565,1,0.843517599976622
101,14,4,categorization,0,bathroom,sun_adbqksnwuqqwdpxc.jpg,72,83.33,0.716666666666667,692818.742154,692819.3674526,74,692818.8216157,692819.3728939,692820.081237,1,0.625298600061797
101,15,4,categorization,0,kitchen,sun_ahvszpwjtodgwusx.jpg,41,83.33,0.816666666666667,692820.0863021,692821.3438875,70,692820.1655397,692821.3482998,692822.1566429,1,1.25758540001698
101,16,4,categorization,0,bathroom,sun_ambriybtogmepttm.jpg,86,83.33,0.933333333333333,692822.1628282,692823.0634409,74,692822.2419004,692823.0688851,692823.993893,1,0.900612699915655
101,17,4,categorization,0,bathroom,sun_ajlpekbqvytdohqb.jpg,81,83.33,1.76666666666667,692823.9990888,692824.7033788,74,692824.0789723,692824.7088239,692826.4671684,1,0.704289999906905
101,18,4,categorization,0,kitchen,sun_aegoxogugdkwpmpj.jpg,27,83.33,1.7,692826.4720156,692827.1434284,70,692826.5511118,692827.1485565,692828.8402356,1,0.671412800089456
101,19,4,categorization,0,bathroom,sun_ahqjwnzgolcaoidx.jpg,79,83.33,0.95,692828.8458159,692829.7838927,74,692828.924709,692829.7883266,692830.7300039,1,0.938076799968258
101,20,4,categorization,0,kitchen,sun_aiffeoqzngslhzfi.jpg,43,83.33,0.883333333333333,692830.7356304,692831.6560921,70,692830.8146572,692831.6606566,692832.5356681,1,0.920461699948646
101,21,4,categorization,0,kitchen,sun_anbcmfjhobvmedkq.jpg,50,83.33,1.91666666666667,692832.5406733,692833.1273914,70,692832.6198471,692833.1326364,692835.0410065,1,0.586718100006692
101,22,4,categorization,0,kitchen,sun_aeikbkmhphqzxdkv.jpg,29,83.33,1.15,692835.0466048,692835.7034745,70,692835.125861,692835.7087149,692836.8503891,1,0.656869699945673
101,23,4,categorization,0,kitchen,sun_aapllqyqlykszopd.jpg,15,83.33,1.26666666666667,692836.8559909,692837.3913579,70,692836.9351337,692837.3961722,692838.6545147,1,0.535367000033148
101,24,4,categorization,0,bathroom,sun_aavhrsfjbserjtht.jpg,65,83.33,1.93333333333333,692838.6595259,692839.2794404,74,692838.7385133,692839.2847437,692841.2097559,1,0.619914499926381
101,25,4,categorization,0,kitchen,sun_acwjdupvyjsugpay.jpg,23,83.33,1.73333333333333,692841.2150472,692842.2554727,70,692841.2939805,692842.2611472,692843.9861579,1,1.04042550001759
101,26,4,categorization,0,bathroom,sun_adwvsndpdsgzeste.jpg,73,83.33,0.75,692843.9909024,692844.6161057,74,692844.06996,692844.6204786,692845.3621546,1,0.625203300034627
101,27,4,categorization,0,bathroom,sun_aclfzgynxzxlbepz.jpg,70,83.33,1.21666666666667,692845.3674239,692845.8955077,74,692845.4466775,692845.9005785,692847.1089193,1,0.528083799988963
101,28,4,categorization,0,bathroom,sun_aiskgiwswewisvph.jpg,80,83.33,1.91666666666667,692847.1147296,692847.9282028,74,692847.1955041,692847.9330245,692849.8413694,1,0.813473199959844
101,29,4,categorization,0,kitchen,sun_awcpdzzznmweyyhv.jpg,57,83.33,1.08333333333333,692849.846206,692850.5434389,70,692849.9252488,692850.5492315,692851.6242418,1,0.697232900070958
101,30,4,categorization,0,bathroom,sun_aapitsgbtktqubfy.jpg,64,83.33,0.95,692851.6296621,692852.1674479,74,692851.7090617,692852.1727958,692853.1144737,1,0.537785800057463
101,31,4,categorization,0,kitchen,sun_alpduwskzkgbcfui.jpg,48,83.33,1.35,692853.1194643,692854.0321105,70,692853.1985546,692854.0367549,692855.3784332,1,0.912646200042218
101,32,4,categorization,0,kitchen,sun_auaiucuqpdausiva.jpg,53,83.33,0.833333333333333,692855.3834826,692856.0721252,70,692855.4627938,692856.0765752,692856.9015833,1,0.688642599969171
101,33,4,categorization,0,kitchen,sun_acfluyeqiftljamq.jpg,21,83.33,1.85,692856.9065152,692857.6074921,70,692856.985748,692857.6127179,692859.4543935,1,0.700976899941452
101,34,4,categorization,0,kitchen,sun_abdenxonkemggwsq.jpg,17,83.33,1.13333333333333,692859.4591042,692860.1034957,70,692859.5383405,692860.1087151,692861.2337266,1,0.64439150004182
101,35,4,categorization,0,bathroom,sun_aghyqhbptboemmoq.jpg,75,83.33,0.783333333333333,692861.2398952,692861.7594659,74,692861.318861,692861.7648702,692862.5398773,1,0.519570700009353
101,36,4,categorization,0,bathroom,sun_azqyogdvyhahyram.jpg,110,83.33,1.15,692862.5455986,692863.0319789,74,692862.6249865,692863.0365147,692864.1781939,1,0.486380300018936
101,37,4,categorization,0,bathroom,sun_ahcvzmoyaycdoftf.jpg,78,83.33,1.05,692864.183293,692864.7194945,74,692864.2633484,692864.7247141,692865.7663886,1,0.5362014999846
101,38,4,categorization,0,bathroom,sun_aunuadmjocsddsrl.jpg,102,83.33,1.11666666666667,692865.7716595,692866.1914274,74,692865.8506093,692866.1961765,692867.3045228,1,0.419767900020815
101,39,4,categorization,0,bathroom,sun_abeymlrfgckenfyk.jpg,66,83.33,1.73333333333333,692867.3102687,692867.976101,74,692867.3893006,692867.9807281,692869.7057411,1,0.665832299971953
101,40,4,categorization,0,kitchen,sun_alalhpqajafvlnho.jpg,46,83.33,1.81666666666667,692869.7103998,692870.3674968,70,692869.7897607,692870.3730051,692872.181347,1,0.657097000046633
101,41,4,categorization,0,kitchen,sun_avszsnwsbuqfgzbn.jpg,55,83.33,0.916666666666667,692872.1860879,692872.7995387,70,692872.2650867,692872.8047817,692873.7131246,1,0.613450800068676
101,42,4,categorization,0,bathroom,sun_agrwbmhcpmfuwmsg.jpg,76,83.33,1.55,692873.7187538,692874.38354,74,692873.7981078,692874.3888364,692875.9305128,1,0.664786199922673
101,43,4,categorization,0,bathroom,sun_akbyysnpwewzraii.jpg,82,83.33,1.63333333333333,692875.9364721,692876.5994936,74,692876.0154927,692876.604599,692878.2296115,1,0.663021499989554
101,44,4,categorization,0,bathroom,sun_aljolscmmzydegqp.jpg,84,83.33,0.766666666666667,692878.2347178,692879.2000336,74,692878.3138689,692879.2048782,692879.9632225,1,0.965315799927339
101,45,4,categorization,0,bathroom,sun_abjtwfukuwddzted.jpg,67,83.33,0.766666666666667,692879.9689966,692880.5115294,74,692880.0482166,692880.5172369,692881.2755783,1,0.542532799998298
101,46,4,categorization,0,kitchen,sun_awbyfefkbcrlrqws.jpg,56,83.33,0.966666666666667,692881.2808393,692882.0801565,70,692881.3599433,692882.0848391,692883.0431808,1,0.799317199969664
101,47,4,categorization,0,kitchen,sun_akcjzhbbjlbogpdi.jpg,45,83.33,1.23333333333333,692883.0483881,692883.7122303,70,692883.127624,692883.7167114,692884.9417196,1,0.663842199952342
101,48,4,categorization,0,bathroom,sun_anltpptcpfdrhlks.jpg,91,83.33,1.5,692884.946881,692885.479543,74,692885.0259589,692885.485808,692886.9774861,1,0.532662000041455
101,49,4,categorization,0,kitchen,sun_aggjlwcdjsjcaemh.jpg,33,83.33,1.06666666666667,692886.9831033,692887.5929014,70,692887.0622828,692887.5973953,692888.6557376,1,0.609798100078478
101,50,4,categorization,0,kitchen,sun_agfmsmojwptjoava.jpg,32,83.33,1.35,692888.6609713,692889.3922404,70,692888.7400775,692889.3968958,692890.7385732,1,0.731269099982455
101,1,5,categorization,0,bathroom,sun_anhioqovhscjqqwb.jpg,89,83.33,1.5,692899.0825981,692899.6874344,74,692899.1616072,692899.6924884,692901.1841629,1,0.60483630001545
101,2,5,categorization,0,bathroom,sun_atstyziqcmkahyxk.jpg,101,83.33,1.31666666666667,692901.1899916,692901.7282082,74,692901.2690555,692901.7327498,692903.0410917,1,0.538216599961743
101,3,5,categorization,0,kitchen,sun_aadbddgrdsjugojn.jpg,12,83.33,1.58333333333333,692903.0460474,692903.7201616,70,692903.1252297,692903.724591,692905.2996027,1,0.674114200053737
101,4,5,categorization,0,kitchen,sun_agzzivivdpnawacl.jpg,37,83.33,1.33333333333333,692905.3051141,692905.9602651,70,692905.3841918,692905.9654897,692907.2905016,1,0.655151000013575
101,5,5,categorization,0,bathroom,sun_ausgutylgojavyoq.jpg,103,83.33,0.7,692907.2966865,692907.9035804,74,692907.3758591,692907.9089338,692908.6006117,1,0.606893900083378
101,6,5,categorization,0,bathroom,sun_aovflwamhlwzwvxs.jpg,92,83.33,1.81666666666667,692908.6062137,692909.1435017,74,692908.6856567,692909.1491545,692910.9574994,1,0.537287999992259
101,7,5,categorization,0,kitchen,sun_aehawpgmrlhlvcow.jpg,28,83.33,0.783333333333333,692910.9626515,692911.8154932,70,692911.0416171,692911.8205571,692912.595597,1,0.852841699961573
101,8,5,categorization,0,bathroom,sun_abtukhmkjdzyfxhr.jpg,68,83.33,0.85,692912.601373,692913.1840883,74,692912.6802704,692913.1883567,692914.0300307,1,0.582715300028212
101,9,5,categorization,0,kitchen,sun_ahljzhgcdpomplvg.jpg,39,83.33,1.01666666666667,692914.0346836,692914.7762261,70,692914.1138799,692914.7809059,692915.7892764,1,0.741542500094511
101,10,5,categorization,0,kitchen,sun_alazdvaixpjtegwg.jpg,47,83.33,1.83333333333333,692915.7960241,692916.3995226,70,692915.8756366,692916.4052259,692918.2302351,1,0.603498499956913
101,11,5,categorization,0,kitchen,sun_abpwyqmlzafvklqo.jpg,19,83.33,1.53333333333333,692918.235596,692918.8889754,70,692918.3150458,692918.8934792,692920.4184875,1,0.653379400027916
101,12,5,categorization,0,kitchen,labelme_rykdqxenmhulbdn.jpg,11,83.33,0.933333333333333,692920.4239843,692921.3764549,70,692920.5029072,692921.3805642,692922.3055721,1,0.952470600022934
101,13,5,categorization,0,kitchen,sun_agubuxuukhzyzpdp.jpg,36,83.33,1.71666666666667,692922.310713,692922.76826,70,692922.3898673,692922.7729131,692924.4812597,1,0.457547000027262
101,14,5,categorization,0,kitchen,sun_aeqbewejiovwrhhc.jpg,30,83.33,0.9,692924.4860667,692924.9675328,70,692924.56512,692924.9722055,692925.8638836,1,0.481466100085527
101,15,5,categorization,0,bathroom,sun_agyqfjcfkdcydepw.jpg,77,83.33,1.13333333333333,692925.8697081,692926.4882479,74,692925.9491295,692926.4925699,692927.6175974,1,0.618539800052531
101,16,5,categorization,0,kitchen,sun_abrcnpqqhmjwekyf.jpg,20,83.33,0.966666666666667,692927.6244516,692928.1756452,70,692927.70355,692928.1816748,692929.1400196,1,0.551193599938415
101,17,5,categorization,0,kitchen,sun_ahdycvpopffkzzsu.jpg,38,83.33,1.05,692929.1446199,692929.8555955,70,692929.2236697,692929.861288,692930.9029663,1,0.710975599940866
101,18,5,categorization,0,kitchen,sun_aqeaevwwwjoqhzvl.jpg,51,83.33,1.56666666666667,692930.9080255,692931.456347,70,692930.9871836,692931.4608984,692933.0192429,1,0.548321499954909
101,19,5,categorization,0,bathroom,sun_acsgbuurtwghzjel.jpg,71,83.33,1.05,692933.02494,692933.6003542,74,692933.1039819,692933.6049492,692934.6466274,1,0.575414199964143
101,20,5,categorization,0,kitchen,sun_ajcbwwvdlsvjyzje.jpg,44,83.33,1.65,692934.6517727,692935.3282751,70,692934.7312238,692935.3327862,692936.9744624,1,0.676502399961464
101,21,5,categorization,0,bathroom,sun_ammzpemadwrjdfzl.jpg,87,83.33,0.833333333333333,692936.9795345,692937.6076006,70,692937.058749,692937.612633,692938.4376466,0,0.628066099947318
101,22,5,categorization,0,bathroom,sun_aamrfepkhweyewue.jpg,63,83.33,1.16666666666667,692938.4422697,692939.1602437,74,692938.5214073,692939.164927,692940.3232737,1,0.717974000028335
101,23,5,categorization,0,bathroom,sun_auzqhkafidnkrwmo.jpg,104,83.33,1.18333333333333,692940.3287316,692940.9034927,74,692940.4078279,692940.9094689,692942.0844773,1,0.574761099996977
101,24,5,categorization,0,kitchen,sun_aaxxjlsuzvqlgylf.jpg,16,83.33,0.733333333333333,692942.0893407,692943.2554943,70,692942.1686636,692943.2610746,692943.9860843,1,1.16615360009018
101,25,5,categorization,0,bathroom,sun_aqrpegblszgcoujh.jpg,97,83.33,0.7,692943.9909566,692944.7515757,74,692944.0700786,692944.7569548,692945.4486294,1,0.760619099950418
101,26,5,categorization,0,bathroom,sun_aspsyogrekjtfozg.jpg,100,83.33,1.98333333333333,692945.4536257,692946.3116093,74,692945.5326981,692946.3168956,692948.2919048,1,0.857983599998988
101,27,5,categorization,0,bathroom,sun_awnqiikzaispgmwo.jpg,106,83.33,1.85,692948.2972475,692948.7996327,74,692948.376314,692948.8051781,692950.6468557,1,0.502385200001299
101,28,5,categorization,0,kitchen,sun_agorklincwxrdtga.jpg,35,83.33,1.23333333333333,692950.6528518,692951.3355991,70,692950.7320568,692951.3406239,692952.5656321,1,0.682747300015762
101,29,5,categorization,0,kitchen,sun_adgqasybjyktddhj.jpg,25,83.33,1,692952.5712266,692953.6715715,70,692952.6504136,692953.677613,692954.6692876,1,1.10034490004182
101,30,5,categorization,0,bathroom,sun_avhrdrntsqrjzccq.jpg,105,83.33,1.23333333333333,692954.6742513,692955.2489818,74,692954.7537903,692955.2534554,692956.4784636,1,0.574730499996804
101,31,5,categorization,0,bathroom,labelme_xbsnnlvmskdknsb.jpg,62,83.33,1.33333333333333,692956.4841506,692957.080198,74,692956.5635403,692957.0848227,692958.4098358,1,0.596047399914823
101,32,5,categorization,0,bathroom,sun_aleqenyvunhactkl.jpg,83,83.33,1.33333333333333,692958.4156776,692959.055592,74,692958.4947002,692959.060635,692960.3856415,1,0.639914400060661
101,33,5,categorization,0,bathroom,sun_axyrejkiiaqiurjk.jpg,109,83.33,1.08333333333333,692960.3908569,692961.0803678,74,692960.4697252,692961.084947,692962.1599542,1,0.689510899945162
101,34,5,categorization,0,kitchen,sun_ataniphupyuxeowc.jpg,52,83.33,1.08333333333333,692962.1650378,692963.2235595,70,692962.2441827,692963.2289113,692964.3039203,1,1.05852169997524
101,35,5,categorization,0,bathroom,sun_apkxzenqapsujocq.jpg,95,83.33,1.9,692964.3090254,692965.5116578,74,692964.3879946,692965.5170375,692967.408712,1,1.20263239997439
101,36,5,categorization,0,bathroom,sun_axxbkopsgyouuebh.jpg,108,83.33,0.833333333333333,692967.4139288,692967.9843032,74,692967.493383,692967.988862,692968.8138703,1,0.570374400005676
101,37,5,categorization,0,bathroom,sun_arzkwskvsrwimlwo.jpg,98,83.33,1.28333333333333,692968.818565,692969.3994784,74,692968.8974875,692969.4040279,692970.6790414,1,0.580913400044665
101,38,5,categorization,0,bathroom,sun_apynckhmoftszqoq.jpg,96,83.33,0.816666666666667,692970.6844819,692971.1676137,74,692970.7637534,692971.172971,692971.9813142,1,0.483131800079718
101,39,5,categorization,0,bathroom,sun_acgyywnybuveqsro.jpg,69,83.33,1.85,692971.9861552,692972.5756443,74,692972.0655445,692972.5805501,692974.4222272,1,0.589489099918865
101,40,5,categorization,0,kitchen,sun_auticobqsbwgoppi.jpg,54,83.33,1.81666666666667,692974.4281699,692975.103563,70,692974.5070736,692975.1088285,692976.9171717,1,0.675393100013025
101,41,5,categorization,0,kitchen,sun_aglwoufpxbtxqecp.jpg,34,83.33,1.83333333333333,692976.9229666,692977.5363223,70,692977.0035749,692977.5405891,692979.3656003,1,0.613355699926615
101,42,5,categorization,0,kitchen,sun_acfmftudsenhrfhy.jpg,22,83.33,1.3,692979.3704564,692980.103682,70,692979.4495312,692980.1093572,692981.4010368,1,0.73322559997905
101,43,5,categorization,0,bathroom,sun_amzlamotzwfkwjco.jpg,88,83.33,1.96666666666667,692981.4064149,692982.2235845,70,692981.4855277,692982.2294214,692984.1877619,0,0.817169600049965
101,44,5,categorization,0,kitchen,sun_ahpczsiumwwocjkv.jpg,40,83.33,1.15,692984.1929773,692985.4642363,70,692984.2728975,692985.4688731,692986.6105516,1,1.2712589999428
101,45,5,categorization,0,bathroom,sun_alkosphxlxwjwgjd.jpg,85,83.33,1.83333333333333,692986.615343,692987.1842165,74,692986.6943941,692987.1884398,692989.0134866,1,0.568873499985784
101,46,5,categorization,0,kitchen,sun_aypmqwcualkenuoe.jpg,60,83.33,0.933333333333333,692989.0197054,692989.6316488,70,692989.0987133,692989.6369326,692990.5619457,1,0.611943399999291
101,47,5,categorization,0,kitchen,sun_axaiaptzctpidqzg.jpg,58,83.33,0.95,692990.5678128,692991.1523404,70,692990.6469265,692991.1568086,692992.0984915,1,0.584527599974535
101,48,5,categorization,0,bathroom,sun_aoybiabnpadelefl.jpg,93,83.33,1.01666666666667,692992.104423,692992.7036049,74,692992.1835903,692992.7085238,692993.7168639,1,0.599181900033727
101,49,5,categorization,0,kitchen,sun_aamedkxepzlwuxes.jpg,13,83.33,0.816666666666667,692993.7236149,692995.5676642,70,692993.8028465,692995.572895,692996.381241,1,1.84404929995071
101,50,5,categorization,0,kitchen,sun_aexklacwqwezaorf.jpg,31,83.33,0.95,692996.3864309,692997.0083732,70,692996.4655512,692997.0129295,692997.9546053,1,0.621942300000228
101,1,6,categorization,0,kitchen,sun_acxkpeoqbwcxfvip.jpg,24,83.33,1.55,693019.1898698,693020.4722698,70,693019.2704444,693020.4766669,693022.0183426,1,1.28240000002552
101,2,6,categorization,0,bathroom,sun_asfwthctfqerjvxr.jpg,99,83.33,1.7,693022.0237285,693022.6483589,74,693022.1026758,693022.652926,693024.3446017,1,0.624630399979651
101,3,6,categorization,0,kitchen,sun_abdxkyyxwfskuaqb.jpg,18,83.33,1.8,693024.3497864,693025.0636643,70,693024.4288582,693025.0691776,693026.8608566,1,0.713877900037915
101,4,6,categorization,0,bathroom,sun_axbqssteryzzlcop.jpg,107,83.33,1.48333333333333,693026.8663689,693027.4797075,74,693026.945464,693027.4855473,693028.9605588,1,0.613338599912822
101,5,6,categorization,0,bathroom,labelme_sfxiulhjbhlyiyt.jpg,61,83.33,1.4,693028.9651135,693029.5363348,74,693029.0440884,693029.5405607,693030.9322393,1,0.571221299935132
101,6,6,categorization,0,kitchen,sun_amjjdeyrggfqgmom.jpg,49,83.33,1.01666666666667,693030.9373106,693031.7128074,74,693031.016367,693031.7177729,693032.7261185,0,0.775496800080873
101,7,6,categorization,0,bathroom,sun_apeeialkgkuxddgh.jpg,94,83.33,1.51666666666667,693032.7323423,693033.3202422,74,693032.8114799,693033.3247376,693034.833084,1,0.587899900041521
101,8,6,categorization,0,bathroom,sun_afcoljnjfoxjtgja.jpg,74,83.33,1.16666666666667,693034.837923,693035.856231,74,693034.9170895,693035.8608337,693037.0191749,1,1.018308000057
101,9,6,categorization,0,kitchen,sun_ahywdevtimnqcsln.jpg,42,83.33,0.933333333333333,693037.024433,693037.8477159,70,693037.1034855,693037.8535606,693038.7785689,1,0.823282900033519
101,10,6,categorization,0,kitchen,sun_aaofphpvkeqlhwgu.jpg,14,83.33,1.18333333333333,693038.7836579,693039.6236252,70,693038.8626862,693039.6288851,693040.8038942,1,0.83996729995124
101,11,6,categorization,0,kitchen,sun_admlmbcdswaszruo.jpg,26,83.33,1.53333333333333,693040.8087839,693041.6164476,70,693040.8884014,693041.6214682,693043.1464792,1,0.807663699961267
101,12,6,categorization,0,bathroom,sun_anlddfvefwvocyae.jpg,90,83.33,0.9,693043.1521731,693043.5197207,74,693043.2316055,693043.524617,693044.4162952,1,0.367547599948011
101,13,6,categorization,0,kitchen,sun_axyyrmzcupyhlivc.jpg,59,83.33,0.933333333333333,693044.4212439,693045.1204885,70,693044.5005788,693045.125417,693046.0504246,1,0.699244600022212
101,14,6,categorization,0,bathroom,sun_adbqksnwuqqwdpxc.jpg,72,83.33,1.36666666666667,693046.0558428,693046.5356907,74,693046.1349665,693046.5409445,693047.8992848,1,0.479847900103778
101,15,6,categorization,0,kitchen,sun_ahvszpwjtodgwusx.jpg,41,83.33,0.866666666666667,693047.9042215,693048.5924096,70,693047.9833251,693048.5973412,693049.4556827,1,0.688188100000843
101,16,6,categorization,0,bathroom,sun_ambriybtogmepttm.jpg,86,83.33,1,693049.4604019,693050.5197039,74,693049.539492,693050.5256333,693051.5173097,1,1.05930199997965
101,17,6,categorization,0,bathroom,sun_ajlpekbqvytdohqb.jpg,81,83.33,0.966666666666667,693051.5223315,693052.0725112,74,693051.6017655,693052.0769699,693053.035316,1,0.550179700017907
101,18,6,categorization,0,kitchen,sun_aegoxogugdkwpmpj.jpg,27,83.33,0.85,693053.0400652,693053.7357785,70,693053.1195562,693053.7411238,693054.5828029,1,0.695713300025091
101,19,6,categorization,0,bathroom,sun_ahqjwnzgolcaoidx.jpg,79,83.33,1.88333333333333,693054.5883348,693055.1196541,74,693054.6675176,693055.1248941,693056.999907,1,0.531319300062023
101,20,6,categorization,0,kitchen,sun_aiffeoqzngslhzfi.jpg,43,83.33,0.75,693057.0053546,693057.6245701,70,693057.0846797,693057.6291177,693058.3707948,1,0.619215499958955
101,21,6,categorization,0,kitchen,sun_anbcmfjhobvmedkq.jpg,50,83.33,1.16666666666667,693058.3757198,693058.9043128,70,693058.4548269,693058.9089828,693060.0673232,1,0.528593000024557
101,22,6,categorization,0,kitchen,sun_aeikbkmhphqzxdkv.jpg,29,83.33,1.48333333333333,693060.0722555,693060.871727,70,693060.1514938,693060.8766152,693062.3516277,1,0.799471499980427
101,23,6,categorization,0,kitchen,sun_aapllqyqlykszopd.jpg,15,83.33,0.916666666666667,693062.3571456,693062.9437896,70,693062.4365869,693062.9487001,693063.8570466,1,0.586644000024535
101,24,6,categorization,0,bathroom,sun_aavhrsfjbserjtht.jpg,65,83.33,1.13333333333333,693063.8629428,693064.5524446,74,693063.942436,693064.5567977,693065.681808,1,0.689501799992286
101,25,6,categorization,0,kitchen,sun_acwjdupvyjsugpay.jpg,23,83.33,1.7,693065.6875285,693066.32846,70,693065.7666715,693066.3330563,693068.0247357,1,0.640931500005536
101,26,6,categorization,0,bathroom,sun_adwvsndpdsgzeste.jpg,73,83.33,0.983333333333333,693068.0295522,693068.5124811,74,693068.1085385,693068.5173208,693069.4923324,1,0.482928900048137
101,27,6,categorization,0,bathroom,sun_aclfzgynxzxlbepz.jpg,70,83.33,1.9,693069.4975984,693070.2006243,74,693069.5767819,693070.2056623,693072.09734,1,0.703025900060311
101,28,6,categorization,0,bathroom,sun_aiskgiwswewisvph.jpg,80,83.33,1.86666666666667,693072.1022034,693072.7685844,74,693072.1812433,693072.7734822,693074.6318252,1,0.666380999959074
101,29,6,categorization,0,kitchen,sun_awcpdzzznmweyyhv.jpg,57,83.33,1,693074.6365939,693075.3357678,70,693074.7166853,693075.3412775,693076.3329783,1,0.699173899949528
101,30,6,categorization,0,bathroom,sun_aapitsgbtktqubfy.jpg,64,83.33,1.35,693076.3388032,693076.9285326,74,693076.4181178,693076.9332502,693078.2751533,1,0.589729400002398
101,31,6,categorization,0,kitchen,sun_alpduwskzkgbcfui.jpg,48,83.33,1.08333333333333,693078.2802963,693078.8557093,70,693078.3609387,693078.8610311,693079.9360415,1,0.575413000071421
101,32,6,categorization,0,kitchen,sun_auaiucuqpdausiva.jpg,53,83.33,1.53333333333333,693079.9411082,693080.5758028,70,693080.020439,693080.5818291,693082.1068389,1,0.634694600012153
101,33,6,categorization,0,kitchen,sun_acfluyeqiftljamq.jpg,21,83.33,1.65,693082.1117741,693082.6958402,70,693082.1907701,693082.701026,693084.3427031,1,0.584066099952906
101,34,6,categorization,0,kitchen,sun_abdenxonkemggwsq.jpg,17,83.33,1.35,693084.347703,693084.9437382,74,693084.4267019,693084.9489997,693086.2906761,0,0.596035200054757
101,35,6,categorization,0,bathroom,sun_aghyqhbptboemmoq.jpg,75,83.33,1.73333333333333,693086.2964891,693086.6884063,74,693086.3767236,693086.6933662,693088.4183761,1,0.391917200060561
101,36,6,categorization,0,bathroom,sun_azqyogdvyhahyram.jpg,110,83.33,0.75,693088.4238099,693088.9917835,74,693088.5027521,693088.9971313,693089.7388051,1,0.567973600002006
101,37,6,categorization,0,bathroom,sun_ahcvzmoyaycdoftf.jpg,78,83.33,1.66666666666667,693089.7437838,693090.2716881,74,693089.8229486,693090.2765171,693091.9348594,1,0.52790429990273
101,38,6,categorization,0,bathroom,sun_aunuadmjocsddsrl.jpg,102,83.33,1.41666666666667,693091.940089,693092.480554,74,693092.0195961,693092.485258,693093.8935991,1,0.540464999969117
101,39,6,categorization,0,bathroom,sun_abeymlrfgckenfyk.jpg,66,83.33,1.9,693093.899269,693094.4476883,74,693093.9783236,693094.452923,693096.3445993,1,0.548419300001115
101,40,6,categorization,0,kitchen,sun_alalhpqajafvlnho.jpg,46,83.33,1.28333333333333,693096.3489398,693097.0237381,70,693096.4284602,693097.0287934,693098.3038041,1,0.674798299907707
101,41,6,categorization,0,kitchen,sun_avszsnwsbuqfgzbn.jpg,55,83.33,1.46666666666667,693098.308729,693099.0318175,70,693098.3876095,693099.036656,693100.4949981,1,0.723088499973528
101,42,6,categorization,0,bathroom,sun_agrwbmhcpmfuwmsg.jpg,76,83.33,0.916666666666667,693100.5005516,693101.4477601,74,693100.5800965,693101.4524402,693102.360784,1,0.94720850000158
101,43,6,categorization,0,bathroom,sun_akbyysnpwewzraii.jpg,82,83.33,0.783333333333333,693102.3660185,693102.9597742,74,693102.4452684,693102.9648283,693103.7398397,1,0.593755700043403
101,44,6,categorization,0,bathroom,sun_aljolscmmzydegqp.jpg,84,83.33,1.36666666666667,693103.7445633,693104.1997369,74,693103.8238955,693104.2052909,693105.5636895,1,0.455173599999398
101,45,6,categorization,0,bathroom,sun_abjtwfukuwddzted.jpg,67,83.33,1.13333333333333,693105.5695225,693106.0085286,74,693105.6490213,693106.0132334,693107.1382407,1,0.439006099943072
101,46,6,categorization,0,kitchen,sun_awbyfefkbcrlrqws.jpg,56,83.33,1.35,693107.1437146,693107.7677431,70,693107.22281,693107.7731027,693109.1147786,1,0.624028499936685
101,47,6,categorization,0,kitchen,sun_akcjzhbbjlbogpdi.jpg,45,83.33,0.7,693109.1199998,693109.8157614,70,693109.199547,693109.8211011,693110.5127811,1,0.695761600043625
101,48,6,categorization,0,bathroom,sun_anltpptcpfdrhlks.jpg,91,83.33,1.11666666666667,693110.5177306,693111.0078201,74,693110.5969919,693111.0133815,693112.1217268,1,0.490089500090107
101,49,6,categorization,0,kitchen,sun_aggjlwcdjsjcaemh.jpg,33,83.33,0.9,693112.1276736,693112.9678115,70,693112.2071531,693112.9735542,693113.8652281,1,0.840137899969704
101,50,6,categorization,0,kitchen,sun_agfmsmojwptjoava.jpg,32,83.33,1.41666666666667,693113.8697575,693114.4317459,70,693113.9489334,693114.4371183,693115.8454598,1,0.561988399946131
101,1,7,categorization,0,bathroom,sun_anhioqovhscjqqwb.jpg,89,83.33,1.4,693133.8108229,693134.9118524,74,693133.8896754,693134.9167618,693136.3084382,1,1.10102950001601
101,2,7,categorization,0,bathroom,sun_atstyziqcmkahyxk.jpg,101,83.33,1.68333333333333,693136.3144201,693136.9438055,74,693136.3933186,693136.9491332,693138.6241421,1,0.629385400097817
101,3,7,categorization,0,kitchen,sun_aadbddgrdsjugojn.jpg,12,83.33,1.46666666666667,693138.6288639,693139.5197966,70,693138.7082432,693139.5251284,693140.9834737,1,0.890932700014673
101,4,7,categorization,0,kitchen,sun_agzzivivdpnawacl.jpg,37,83.33,1.76666666666667,693140.9889846,693141.7199833,70,693141.0681599,693141.7242541,693143.4826008,1,0.730998700018972
101,5,7,categorization,0,bathroom,sun_ausgutylgojavyoq.jpg,103,83.33,0.9,693143.4889126,693144.0638373,74,693143.5680425,693144.0685497,693144.9602246,1,0.574924700078554
101,6,7,categorization,0,bathroom,sun_aovflwamhlwzwvxs.jpg,92,83.33,1.4,693144.9666086,693145.4557298,74,693145.0468342,693145.4610246,693146.8527012,1,0.489121200051159
101,7,7,categorization,0,kitchen,sun_aehawpgmrlhlvcow.jpg,28,83.33,1.43333333333333,693146.857553,693147.5839064,70,693146.936674,693147.5891402,693149.0141467,1,0.726353400037624
101,8,7,categorization,0,bathroom,sun_abtukhmkjdzyfxhr.jpg,68,83.33,0.716666666666667,693149.0194004,693149.6079075,74,693149.0984156,693149.6131845,693150.3215263,1,0.588507100008428
101,9,7,categorization,0,kitchen,sun_ahljzhgcdpomplvg.jpg,39,83.33,1.85,693150.3265153,693150.936264,70,693150.405646,693150.940419,693152.7820969,1,0.609748700051568
101,10,7,categorization,0,kitchen,sun_alazdvaixpjtegwg.jpg,47,83.33,1.38333333333333,693152.7874681,693153.4958623,70,693152.8669686,693153.5016318,693154.876639,1,0.708394200075418
101,11,7,categorization,0,kitchen,sun_abpwyqmlzafvklqo.jpg,19,83.33,0.7,693154.8820225,693155.4558581,70,693154.9613849,693155.4613723,693156.1530505,1,0.573835599934682
101,12,7,categorization,0,kitchen,labelme_rykdqxenmhulbdn.jpg,11,83.33,0.716666666666667,693156.158805,693156.712564,70,693156.2379972,693156.7176037,693157.4259436,1,0.553759000031278
101,13,7,categorization,0,kitchen,sun_agubuxuukhzyzpdp.jpg,36,83.33,1.08333333333333,693157.43087,693157.951798,70,693157.5099675,693157.9571215,693159.0321313,1,0.520927999983542
101,14,7,categorization,0,kitchen,sun_aeqbewejiovwrhhc.jpg,30,83.33,0.75,693159.0369019,693159.6085514,70,693159.1159318,693159.6130969,693160.3547733,1,0.571649500052445
101,15,7,categorization,0,bathroom,sun_agyqfjcfkdcydepw.jpg,77,83.33,1.53333333333333,693160.3599777,693160.9518884,74,693160.4393731,693160.9577138,693162.4827205,1,0.591910699964501
101,16,7,categorization,0,kitchen,sun_abrcnpqqhmjwekyf.jpg,20,83.33,1.23333333333333,693162.4882298,693163.0958404,70,693162.56751,693163.1013372,693164.3263823,1,0.60761059995275
101,17,7,categorization,0,kitchen,sun_ahdycvpopffkzzsu.jpg,38,83.33,1.13333333333333,693164.3311407,693164.8085157,74,693164.4105159,693164.8131336,693165.9381455,0,0.477375000016764
101,18,7,categorization,0,kitchen,sun_aqeaevwwwjoqhzvl.jpg,51,83.33,1.21666666666667,693165.9431956,693166.4562845,70,693166.0224172,693166.4604215,693167.6687623,1,0.513088900013827
101,19,7,categorization,0,bathroom,sun_acsgbuurtwghzjel.jpg,71,83.33,1.58333333333333,693167.6741913,693168.3445745,74,693167.7531259,693168.3493187,693169.9243319,1,0.6703832000494
101,20,7,categorization,0,kitchen,sun_ajcbwwvdlsvjyzje.jpg,44,83.33,1.86666666666667,693169.9292753,693170.6409247,70,693170.0084625,693170.6456064,693172.5039487,1,0.711649399949238
101,21,7,categorization,0,bathroom,sun_ammzpemadwrjdfzl.jpg,87,83.33,1.78333333333333,693172.5091452,693173.1119254,74,693172.5880798,693173.1174385,693174.8924469,1,0.602780199958943
101,22,7,categorization,0,bathroom,sun_aamrfepkhweyewue.jpg,63,83.33,1.76666666666667,693174.897381,693175.5765931,74,693174.9764514,693175.5812086,693177.3395536,1,0.679212099988945
101,23,7,categorization,0,bathroom,sun_auzqhkafidnkrwmo.jpg,104,83.33,1.43333333333333,693177.3451909,693178.0719136,74,693177.4241765,693178.0771858,693179.5021928,1,0.726722699939273
101,24,7,categorization,0,kitchen,sun_aaxxjlsuzvqlgylf.jpg,16,83.33,1.63333333333333,693179.5071055,693180.1119215,70,693179.5861865,693180.1170148,693181.7420506,1,0.604815999977291
101,25,7,categorization,0,bathroom,sun_aqrpegblszgcoujh.jpg,97,83.33,1.55,693181.7471566,693182.3119514,74,693181.8266082,693182.3174581,693183.8591333,1,0.564794800011441
101,26,7,categorization,0,bathroom,sun_aspsyogrekjtfozg.jpg,100,83.33,1.26666666666667,693183.8638154,693184.5526903,74,693183.9428266,693184.5571362,693185.8154789,1,0.688874899991788
101,27,7,categorization,0,bathroom,sun_awnqiikzaispgmwo.jpg,106,83.33,0.716666666666667,693185.8207816,693186.4724997,74,693185.8998513,693186.4768681,693187.1852129,1,0.651718100067228
101,28,7,categorization,0,kitchen,sun_agorklincwxrdtga.jpg,35,83.33,1.75,693187.1915878,693187.9526072,70,693187.2707537,693187.957007,693189.6986803,1,0.761019399971701
101,29,7,categorization,0,kitchen,sun_adgqasybjyktddhj.jpg,25,83.33,0.933333333333333,693189.7043129,693190.3999184,70,693189.7836354,693190.4056512,693191.3306605,1,0.695605500019155
101,30,7,categorization,0,bathroom,sun_avhrdrntsqrjzccq.jpg,105,83.33,1.45,693191.3360199,693191.9202054,74,693191.4150349,693191.9245806,693193.3662578,1,0.584185499930754
101,31,7,categorization,0,bathroom,labelme_xbsnnlvmskdknsb.jpg,62,83.33,1.3,693193.3715493,693193.9279065,74,693193.4506586,693193.9332384,693195.2249117,1,0.556357199908234
101,32,7,categorization,0,bathroom,sun_aleqenyvunhactkl.jpg,83,83.33,1.01666666666667,693195.2302444,693195.8404798,74,693195.3095637,693195.8448544,693196.8531984,1,0.610235400032252
101,33,7,categorization,0,bathroom,sun_axyrejkiiaqiurjk.jpg,109,83.33,0.733333333333333,693196.860045,693197.4238776,74,693196.9403221,693197.428684,693198.1536915,1,0.563832600018941
101,34,7,categorization,0,kitchen,sun_ataniphupyuxeowc.jpg,52,83.33,1.46666666666667,693198.1591861,693199.0725621,70,693198.2383251,693199.0771404,693200.5354799,1,0.91337600001134
101,35,7,categorization,0,bathroom,sun_apkxzenqapsujocq.jpg,95,83.33,1.33333333333333,693200.5402517,693201.0808067,74,693200.619512,693201.0856937,693202.4107244,1,0.540555000072345
101,36,7,categorization,0,bathroom,sun_axxbkopsgyouuebh.jpg,108,83.33,0.816666666666667,693202.4161398,693203.2479469,74,693202.4953646,693203.2533851,693204.0617287,1,0.831807099981233
101,37,7,categorization,0,bathroom,sun_arzkwskvsrwimlwo.jpg,98,83.33,1.65,693204.0668183,693204.5839346,74,693204.1462535,693204.5891184,693206.2307942,1,0.517116299946792
101,38,7,categorization,0,bathroom,sun_apynckhmoftszqoq.jpg,96,83.33,1.41666666666667,693206.2361732,693206.6798319,74,693206.3153147,693206.684597,693208.0929393,1,0.443658700096421
101,39,7,categorization,0,bathroom,sun_acgyywnybuveqsro.jpg,69,83.33,0.8,693208.0979238,693208.7045286,74,693208.176976,693208.7091878,693209.5008634,1,0.606604799977504
101,40,7,categorization,0,kitchen,sun_auticobqsbwgoppi.jpg,54,83.33,1.18333333333333,693209.5062495,693210.1119312,70,693209.5853686,693210.1171816,693211.2921907,1,0.6056817000499
101,41,7,categorization,0,kitchen,sun_aglwoufpxbtxqecp.jpg,34,83.33,1.26666666666667,693211.2970306,693211.8087028,70,693211.3761471,693211.8131917,693213.0715355,1,0.511672199936584
101,42,7,categorization,0,kitchen,sun_acfmftudsenhrfhy.jpg,22,83.33,1.56666666666667,693213.0765435,693213.6573658,70,693213.1559982,693213.6622344,693215.2205806,1,0.580822300049476
101,43,7,categorization,0,bathroom,sun_amzlamotzwfkwjco.jpg,88,83.33,1.71666666666667,693215.2257957,693215.9678992,74,693215.3048786,693215.9727238,693217.6810688,1,0.742103500058874
101,44,7,categorization,0,kitchen,sun_ahpczsiumwwocjkv.jpg,40,83.33,1.65,693217.6872338,693218.2645921,74,693217.7661929,693218.2694418,693219.9111194,0,0.577358300099149
101,45,7,categorization,0,bathroom,sun_alkosphxlxwjwgjd.jpg,85,83.33,1.56666666666667,693219.9164963,693220.5839365,74,693219.9957161,693220.5893179,693222.147662,1,0.667440199991688
101,46,7,categorization,0,kitchen,sun_aypmqwcualkenuoe.jpg,60,83.33,1.66666666666667,693222.1529445,693222.7999813,70,693222.2323856,693222.8055563,693224.4638997,1,0.647036800044589
101,47,7,categorization,0,kitchen,sun_axaiaptzctpidqzg.jpg,58,83.33,1.06666666666667,693224.4688639,693225.1287128,70,693224.5481278,693225.1337763,693226.1921165,1,0.659848899929784
101,48,7,categorization,0,bathroom,sun_aoybiabnpadelefl.jpg,93,83.33,0.85,693226.1979707,693226.7926891,74,693226.2768715,693226.7973665,693227.6390432,1,0.59471840003971
101,49,7,categorization,0,kitchen,sun_aamedkxepzlwuxes.jpg,13,83.33,0.8,693227.6444394,693228.3201096,70,693227.7236005,693228.3243871,693229.1160655,1,0.67567019991111
101,50,7,categorization,0,kitchen,sun_aexklacwqwezaorf.jpg,31,83.33,1.2,693229.1208989,693229.7524933,70,693229.2000218,693229.7572203,693230.9488996,1,0.631594400038011
101,1,8,categorization,0,kitchen,sun_acxkpeoqbwcxfvip.jpg,24,83.33,1.2,693282.9597497,693283.8319456,70,693283.0386047,693283.8367392,693285.0284175,1,0.872195899952203
101,2,8,categorization,0,bathroom,sun_asfwthctfqerjvxr.jpg,99,83.33,1.76666666666667,693285.0334522,693285.639966,74,693285.1123888,693285.6445804,693287.4029249,1,0.606513799983077
101,3,8,categorization,0,kitchen,sun_abdxkyyxwfskuaqb.jpg,18,83.33,0.833333333333333,693287.4082641,693288.199992,70,693287.4872932,693288.2047878,693289.0297974,1,0.791727900039405
101,4,8,categorization,0,bathroom,sun_axbqssteryzzlcop.jpg,107,83.33,0.766666666666667,693289.0351244,693289.6319771,74,693289.114238,693289.6369426,693290.3952858,1,0.596852699993178
101,5,8,categorization,0,bathroom,labelme_sfxiulhjbhlyiyt.jpg,61,83.33,1.86666666666667,693290.4003593,693291.1526132,74,693290.4795213,693291.1570791,693293.0154224,1,0.752253900049254
101,6,8,categorization,0,kitchen,sun_amjjdeyrggfqgmom.jpg,49,83.33,0.75,693293.0200243,693293.639983,70,693293.0990671,693293.6454716,693294.3871492,1,0.619958700030111
101,7,8,categorization,0,bathroom,sun_apeeialkgkuxddgh.jpg,94,83.33,1.58333333333333,693294.3926697,693295.0245252,74,693294.4715939,693295.028816,693296.6038272,1,0.631855500047095
101,8,8,categorization,0,bathroom,sun_afcoljnjfoxjtgja.jpg,74,83.33,1.85,693296.6086527,693297.3286585,74,693296.6878775,693297.3332728,693299.1749482,1,0.720005800016224
101,9,8,categorization,0,kitchen,sun_ahywdevtimnqcsln.jpg,42,83.33,0.75,693299.180235,693299.9767268,70,693299.2597459,693299.9812026,693300.7228794,1,0.796491799992509
101,10,8,categorization,0,kitchen,sun_aaofphpvkeqlhwgu.jpg,14,83.33,1.78333333333333,693300.7281585,693301.5209982,70,693300.8073158,693301.5254767,693303.3005038,1,0.79283970000688
101,11,8,categorization,0,kitchen,sun_admlmbcdswaszruo.jpg,26,83.33,1.03333333333333,693303.3057318,693303.8480697,70,693303.3851775,693303.8536241,693304.8786337,1,0.542337899911217
101,12,8,categorization,0,bathroom,sun_anlddfvefwvocyae.jpg,90,83.33,1.86666666666667,693304.8849394,693305.5600958,74,693304.9646055,693305.5649957,693307.4233412,1,0.675156399956904
101,13,8,categorization,0,kitchen,sun_axyyrmzcupyhlivc.jpg,59,83.33,0.95,693307.4285407,693308.0640303,70,693307.5077505,693308.0689841,693309.0106619,1,0.635489600012079
101,14,8,categorization,0,bathroom,sun_adbqksnwuqqwdpxc.jpg,72,83.33,1.4,693309.0160314,693309.6480984,74,693309.0952234,693309.6532894,693311.0449646,1,0.632067000027746
101,15,8,categorization,0,kitchen,sun_ahvszpwjtodgwusx.jpg,41,83.33,0.916666666666667,693311.0501541,693311.7440816,70,693311.1292562,693311.7497504,693312.658096,1,0.693927499931306
101,16,8,categorization,0,bathroom,sun_ambriybtogmepttm.jpg,86,83.33,1.36666666666667,693312.6633133,693313.2399919,74,693312.7425582,693313.2451365,693314.6034816,1,0.576678600045852
101,17,8,categorization,0,bathroom,sun_ajlpekbqvytdohqb.jpg,81,83.33,1.16666666666667,693314.6086307,693315.2000722,74,693314.687575,693315.2053354,693316.3636793,1,0.591441500000656
101,18,8,categorization,0,kitchen,sun_aegoxogugdkwpmpj.jpg,27,83.33,0.883333333333333,693316.3683059,693317.0400606,70,693316.4474344,693317.046326,693317.9213357,1,0.671754700015299
101,19,8,categorization,0,bathroom,sun_ahqjwnzgolcaoidx.jpg,79,83.33,1.73333333333333,693317.9267593,693318.5360706,74,693318.005615,693318.5416136,693320.2666224,1,0.609311299980618
101,20,8,categorization,0,kitchen,sun_aiffeoqzngslhzfi.jpg,43,83.33,1.06666666666667,693320.2722073,693320.8240509,70,693320.3513901,693320.8296094,693321.887954,1,0.551843599998392
101,21,8,categorization,0,kitchen,sun_anbcmfjhobvmedkq.jpg,50,83.33,0.8,693321.8927514,693322.4406413,70,693321.9718312,693322.4451536,693323.2368297,1,0.547889900044538
101,22,8,categorization,0,kitchen,sun_aeikbkmhphqzxdkv.jpg,29,83.33,1.65,693323.243188,693323.7687367,74,693323.3223119,693323.7732804,693325.4149584,0,0.525548699893989
101,23,8,categorization,0,kitchen,sun_aapllqyqlykszopd.jpg,15,83.33,1.96666666666667,693325.4205295,693325.9920849,70,693325.4996567,693325.9971887,693327.9555353,1,0.571555400034413
101,24,8,categorization,0,bathroom,sun_aavhrsfjbserjtht.jpg,65,83.33,1.6,693327.9604559,693328.5608529,74,693328.0393512,693328.5653226,693330.1569965,1,0.600396999972872
101,25,8,categorization,0,kitchen,sun_acwjdupvyjsugpay.jpg,23,83.33,1.28333333333333,693330.162326,693330.768087,70,693330.2413778,693330.7736405,693332.0486516,1,0.605760999955237
101,26,8,categorization,0,bathroom,sun_adwvsndpdsgzeste.jpg,73,83.33,0.983333333333333,693332.0534506,693332.7127327,74,693332.1324848,693332.717314,693333.6923255,1,0.659282100037672
101,27,8,categorization,0,bathroom,sun_aclfzgynxzxlbepz.jpg,70,83.33,1.08333333333333,693333.6979572,693334.3121313,74,693333.7771112,693334.3174269,693335.3924691,1,0.614174099988304
101,28,8,categorization,0,bathroom,sun_aiskgiwswewisvph.jpg,80,83.33,1.33333333333333,693335.3974804,693336.2560434,74,693335.476887,693336.2613994,693337.5864096,1,0.858562999987043
101,29,8,categorization,0,kitchen,sun_awcpdzzznmweyyhv.jpg,57,83.33,1.78333333333333,693337.5913328,693338.232159,70,693337.6708574,693338.2372983,693340.0123093,1,0.640826200018637
101,30,8,categorization,0,bathroom,sun_aapitsgbtktqubfy.jpg,64,83.33,1.26666666666667,693340.0178169,693340.8161383,74,693340.0970616,693340.8216772,693342.0800189,1,0.798321399954148
101,31,8,categorization,0,kitchen,sun_alpduwskzkgbcfui.jpg,48,83.33,1,693342.084858,693342.792433,70,693342.1639135,693342.7973871,693343.7890662,1,0.707575000007637
101,32,8,categorization,0,kitchen,sun_auaiucuqpdausiva.jpg,53,83.33,1.26666666666667,693343.7943696,693344.9280999,70,693343.87347,693344.9332243,693346.1915687,1,1.13373030000366
101,33,8,categorization,0,kitchen,sun_acfluyeqiftljamq.jpg,21,83.33,1.1,693346.1961755,693346.8967621,70,693346.2753936,693346.9013559,693347.9930295,1,0.700586599996313
101,34,8,categorization,0,kitchen,sun_abdenxonkemggwsq.jpg,17,83.33,1.2,693347.9979248,693348.6880927,70,693348.0771646,693348.6930888,693349.8847651,1,0.690167899942026
101,35,8,categorization,0,bathroom,sun_aghyqhbptboemmoq.jpg,75,83.33,1.1,693349.8905014,693350.5126202,74,693349.9696511,693350.5173389,693351.6090183,1,0.622118800063618
101,36,8,categorization,0,bathroom,sun_azqyogdvyhahyram.jpg,110,83.33,1.83333333333333,693351.6146031,693352.2000467,74,693351.6937496,693352.2051144,693354.0301249,1,0.585443599964492
101,37,8,categorization,0,bathroom,sun_ahcvzmoyaycdoftf.jpg,78,83.33,1.1,693354.0350874,693354.6241218,74,693354.1140717,693354.6291348,693355.72081,1,0.589034399949014
101,38,8,categorization,0,bathroom,sun_aunuadmjocsddsrl.jpg,102,83.33,0.833333333333333,693355.7260509,693356.2888272,74,693355.8048868,693356.2932641,693357.1182729,1,0.562776300008409
101,39,8,categorization,0,bathroom,sun_abeymlrfgckenfyk.jpg,66,83.33,0.85,693357.1240113,693357.7040939,74,693357.2029836,693357.7091652,693358.5508414,1,0.580082600004971
101,40,8,categorization,0,kitchen,sun_alalhpqajafvlnho.jpg,46,83.33,0.966666666666667,693358.5556097,693359.2400515,70,693358.6350225,693359.245117,693360.2034586,1,0.684441799996421
101,41,8,categorization,0,kitchen,sun_avszsnwsbuqfgzbn.jpg,55,83.33,1.95,693360.2084073,693361.1441426,70,693360.2875365,693361.1492272,693363.0909223,1,0.935735300066881
101,42,8,categorization,0,bathroom,sun_agrwbmhcpmfuwmsg.jpg,76,83.33,0.866666666666667,693363.0968094,693363.6401494,74,693363.1761215,693363.6458195,693364.5041628,1,0.543339999974705
101,43,8,categorization,0,bathroom,sun_akbyysnpwewzraii.jpg,82,83.33,0.716666666666667,693364.5087905,693365.0888439,74,693364.5881631,693365.0933581,693365.8017366,1,0.580053400015458
101,44,8,categorization,0,bathroom,sun_aljolscmmzydegqp.jpg,84,83.33,1.43333333333333,693365.8069297,693366.4800584,74,693365.8858494,693366.4855686,693367.9105802,1,0.673128700000234
101,45,8,categorization,0,bathroom,sun_abjtwfukuwddzted.jpg,67,83.33,1.33333333333333,693367.9162932,693368.4161467,74,693367.9952872,693368.4214876,693369.7464978,1,0.49985350004863
101,46,8,categorization,0,kitchen,sun_awbyfefkbcrlrqws.jpg,56,83.33,0.733333333333333,693369.752401,693370.3602099,70,693369.83197,693370.3653422,693371.0903534,1,0.607808899949305
101,47,8,categorization,0,kitchen,sun_akcjzhbbjlbogpdi.jpg,45,83.33,1.1,693371.0955238,693371.7841377,70,693371.1745452,693371.7896005,693372.8812739,1,0.688613899983466
101,48,8,categorization,0,bathroom,sun_anltpptcpfdrhlks.jpg,91,83.33,1.21666666666667,693372.8865854,693373.4649611,74,693372.9655786,693373.4699478,693374.678288,1,0.578375700046308
101,49,8,categorization,0,kitchen,sun_aggjlwcdjsjcaemh.jpg,33,83.33,1.86666666666667,693374.6840982,693375.3048389,70,693374.7631977,693375.3095248,693377.1678701,1,0.620740699931048
101,50,8,categorization,0,kitchen,sun_agfmsmojwptjoava.jpg,32,83.33,0.983333333333333,693377.1728196,693377.736168,70,693377.2529495,693377.7414118,693378.7164188,1,0.563348400057293
101,1,9,categorization,0,bathroom,sun_anhioqovhscjqqwb.jpg,89,83.33,0.983333333333333,693399.194963,693399.7927184,74,693399.2738058,693399.7973549,693400.7723619,1,0.597755399998277
101,2,9,categorization,0,bathroom,sun_atstyziqcmkahyxk.jpg,101,83.33,1.28333333333333,693400.7780815,693401.5362212,74,693400.8571084,693401.5415766,693402.8165875,1,0.75813970004674
101,3,9,categorization,0,kitchen,sun_aadbddgrdsjugojn.jpg,12,83.33,0.8,693402.8225709,693403.4647415,70,693402.9015635,693403.4694761,693404.2611517,1,0.642170600011013
101,4,9,categorization,0,kitchen,sun_agzzivivdpnawacl.jpg,37,83.33,1.58333333333333,693404.266633,693404.9209834,70,693404.3458997,693404.9254861,693406.5004935,1,0.654350399971008
101,5,9,categorization,0,bathroom,sun_ausgutylgojavyoq.jpg,103,83.33,0.833333333333333,693406.5063181,693407.1368909,74,693406.5854654,693407.1412965,693407.9663031,1,0.630572799942456
101,6,9,categorization,0,bathroom,sun_aovflwamhlwzwvxs.jpg,92,83.33,1.8,693407.9719672,693408.6490129,74,693408.0516266,693408.6537989,693410.4454725,1,0.677045699907467
101,7,9,categorization,0,kitchen,sun_aehawpgmrlhlvcow.jpg,28,83.33,0.916666666666667,693410.4515886,693411.624158,70,693410.5310603,693411.6290352,693412.53738,1,1.17256940004881
101,8,9,categorization,0,bathroom,sun_abtukhmkjdzyfxhr.jpg,68,83.33,1.91666666666667,693412.543282,693413.0802145,74,693412.6224319,693413.085694,693414.9940368,1,0.536932499962859
101,9,9,categorization,0,kitchen,sun_ahljzhgcdpomplvg.jpg,39,83.33,0.916666666666667,693414.9987558,693415.5925404,70,693415.0779314,693415.5973102,693416.5056552,1,0.593784600030631
101,10,9,categorization,0,kitchen,sun_alazdvaixpjtegwg.jpg,47,83.33,1.38333333333333,693416.5104749,693417.2481188,70,693416.5896459,693417.2529283,693418.6279415,1,0.737643899978139
101,11,9,categorization,0,kitchen,sun_abpwyqmlzafvklqo.jpg,19,83.33,1.63333333333333,693418.6334621,693419.2325898,70,693418.712761,693419.236995,693420.8620025,1,0.599127699970268
101,12,9,categorization,0,kitchen,labelme_rykdqxenmhulbdn.jpg,11,83.33,0.7,693420.8674679,693421.4642587,70,693420.9469758,693421.4693858,693422.1610619,1,0.596790799987502
101,13,9,categorization,0,kitchen,sun_agubuxuukhzyzpdp.jpg,36,83.33,0.85,693422.1658776,693423.7850498,70,693422.244997,693423.7896567,693424.6313366,1,1.61917219997849
101,14,9,categorization,0,kitchen,sun_aeqbewejiovwrhhc.jpg,30,83.33,1.61666666666667,693424.6362082,693425.3131637,70,693424.7153178,693425.31821,693426.926555,1,0.676955500035547
101,15,9,categorization,0,bathroom,sun_agyqfjcfkdcydepw.jpg,77,83.33,1.93333333333333,693426.9325042,693427.5602374,74,693427.0116459,693427.5657748,693429.4907853,1,0.627733199973591
101,16,9,categorization,0,kitchen,sun_abrcnpqqhmjwekyf.jpg,20,83.33,1.93333333333333,693429.49626,693430.2162238,70,693429.5751916,693430.2218167,693432.1468244,1,0.719963799929246
101,17,9,categorization,0,kitchen,sun_ahdycvpopffkzzsu.jpg,38,83.33,0.833333333333333,693432.151859,693432.8730457,70,693432.2309605,693432.8776172,693433.7026274,1,0.7211867000442
101,18,9,categorization,0,kitchen,sun_aqeaevwwwjoqhzvl.jpg,51,83.33,1.95,693433.7076616,693434.3528939,70,693433.7866094,693434.3580051,693436.299684,1,0.645232300041243
101,19,9,categorization,0,bathroom,sun_acsgbuurtwghzjel.jpg,71,83.33,1,693436.305504,693436.9207687,74,693436.3849397,693436.9253507,693437.9170267,1,0.615264699910767
101,20,9,categorization,0,kitchen,sun_ajcbwwvdlsvjyzje.jpg,44,83.33,1.26666666666667,693437.9229986,693438.5442494,70,693438.0029187,693438.5493948,693439.8077381,1,0.621250799973495
101,21,9,categorization,0,bathroom,sun_ammzpemadwrjdfzl.jpg,87,83.33,1.88333333333333,693439.8129708,693440.4567781,74,693439.8921313,693440.4615208,693442.3365286,1,0.643807300017215
101,22,9,categorization,0,bathroom,sun_aamrfepkhweyewue.jpg,63,83.33,1.61666666666667,693442.3415017,693442.8802897,74,693442.4206503,693442.8854584,693444.4938041,1,0.538788000005297
101,23,9,categorization,0,bathroom,sun_auzqhkafidnkrwmo.jpg,104,83.33,1.71666666666667,693444.4994279,693444.9041944,74,693444.5785122,693444.9094422,693446.6177834,1,0.404766499996185
101,24,9,categorization,0,kitchen,sun_aaxxjlsuzvqlgylf.jpg,16,83.33,0.95,693446.6224254,693447.0962383,70,693446.7014326,693447.1016328,693448.0433093,1,0.473812900017947
101,25,9,categorization,0,bathroom,sun_aqrpegblszgcoujh.jpg,97,83.33,0.916666666666667,693448.0481122,693448.616984,74,693448.127619,693448.6216033,693449.5299473,1,0.56887179997284
101,26,9,categorization,0,bathroom,sun_aspsyogrekjtfozg.jpg,100,83.33,1.46666666666667,693449.5351451,693450.2402594,74,693449.6142519,693450.2449807,693451.7033223,1,0.70511430001352
101,27,9,categorization,0,bathroom,sun_awnqiikzaispgmwo.jpg,106,83.33,1.93333333333333,693451.7084106,693452.3682817,74,693451.7875131,693452.3737293,693454.298742,1,0.659871099982411
101,28,9,categorization,0,kitchen,sun_agorklincwxrdtga.jpg,35,83.33,0.75,693454.3045704,693454.9362774,70,693454.3837429,693454.9412756,693455.6829534,1,0.631706999964081
101,29,9,categorization,0,kitchen,sun_adgqasybjyktddhj.jpg,25,83.33,0.833333333333333,693455.6886795,693456.3522084,70,693455.7676327,693456.357978,693457.1829897,1,0.663528900011443
101,30,9,categorization,0,bathroom,sun_avhrdrntsqrjzccq.jpg,105,83.33,1.13333333333333,693457.1878113,693457.888892,74,693457.2671769,693457.8933548,693459.0183659,1,0.701080699916929
101,31,9,categorization,0,bathroom,labelme_xbsnnlvmskdknsb.jpg,62,83.33,0.933333333333333,693459.0240155,693459.6409443,74,693459.1043058,693459.6453444,693460.5703521,1,0.616928800009191
101,32,9,categorization,0,bathroom,sun_aleqenyvunhactkl.jpg,83,83.33,0.766666666666667,693460.5756861,693461.2168255,74,693460.6546609,693461.2214082,693461.9797488,1,0.641139399958774
101,33,9,categorization,0,bathroom,sun_axyrejkiiaqiurjk.jpg,109,83.33,1.01666666666667,693461.985235,693462.665128,74,693462.0644965,693462.6698712,693463.6782158,1,0.679892999934964
101,34,9,categorization,0,kitchen,sun_ataniphupyuxeowc.jpg,52,83.33,1.73333333333333,693463.683603,693464.272919,70,693463.763005,693464.2776002,693466.0026084,1,0.58931599999778
101,35,9,categorization,0,bathroom,sun_apkxzenqapsujocq.jpg,95,83.33,0.816666666666667,693466.0076729,693466.5922476,74,693466.0870239,693466.5972559,693467.4056007,1,0.584574699983932
101,36,9,categorization,0,bathroom,sun_axxbkopsgyouuebh.jpg,108,83.33,1.03333333333333,693467.4117236,693468.0010561,74,693467.4908456,693468.0060463,693469.0310569,1,0.589332500007004
101,37,9,categorization,0,bathroom,sun_arzkwskvsrwimlwo.jpg,98,83.33,1.65,693469.0359615,693469.7527915,74,693469.1149681,693469.7576551,693471.399331,1,0.716829999932088
101,38,9,categorization,0,bathroom,sun_apynckhmoftszqoq.jpg,96,83.33,1.96666666666667,693471.4051019,693471.9603295,74,693471.4841882,693471.9655077,693473.9238483,1,0.555227600038052
101,39,9,categorization,0,bathroom,sun_acgyywnybuveqsro.jpg,69,83.33,1.25,693473.9286446,693474.5050244,74,693474.0081477,693474.5096239,693475.7512997,1,0.576379799982533
101,40,9,categorization,0,kitchen,sun_auticobqsbwgoppi.jpg,54,83.33,0.95,693475.7568325,693476.4482145,70,693475.83582,693476.4542373,693477.3959134,1,0.691381999989972
101,41,9,categorization,0,kitchen,sun_aglwoufpxbtxqecp.jpg,34,83.33,0.733333333333333,693477.4006527,693478.0803465,70,693477.4796676,693478.0855667,693478.8105741,1,0.679693800047971
101,42,9,categorization,0,kitchen,sun_acfmftudsenhrfhy.jpg,22,83.33,1.41666666666667,693478.8157278,693479.8410386,70,693478.8948846,693479.8458436,693481.2541907,1,1.02531079994515
101,43,9,categorization,0,bathroom,sun_amzlamotzwfkwjco.jpg,88,83.33,1.9,693481.2598132,693482.112676,74,693481.3390417,693482.1173538,693484.0090335,1,0.852862800005823
101,44,9,categorization,0,kitchen,sun_ahpczsiumwwocjkv.jpg,40,83.33,1.35,693484.0140171,693484.60103,70,693484.0934081,693484.6060079,693485.9476809,1,0.587012900039554
101,45,9,categorization,0,bathroom,sun_alkosphxlxwjwgjd.jpg,85,83.33,0.783333333333333,693485.9523949,693486.5852402,74,693486.0315481,693486.5900353,693487.3650448,1,0.632845300016925
101,46,9,categorization,0,kitchen,sun_aypmqwcualkenuoe.jpg,60,83.33,0.8,693487.3707518,693488.3290649,70,693487.4497023,693488.3335107,693489.1251907,1,0.958313100039959
101,47,9,categorization,0,kitchen,sun_axaiaptzctpidqzg.jpg,58,83.33,1.28333333333333,693489.1299459,693489.8162996,70,693489.2092379,693489.8215794,693491.0965912,1,0.686353700002655
101,48,9,categorization,0,bathroom,sun_aoybiabnpadelefl.jpg,93,83.33,1.38333333333333,693491.1024934,693491.7122748,74,693491.1816252,693491.7177939,693493.0928009,1,0.609781400067732
101,49,9,categorization,0,kitchen,sun_aamedkxepzlwuxes.jpg,13,83.33,0.766666666666667,693493.0981196,693493.7283109,70,693493.1772085,693493.7337082,693494.4920544,1,0.630191300064325
101,50,9,categorization,0,kitchen,sun_aexklacwqwezaorf.jpg,31,83.33,0.8,693494.4969594,693495.4493717,70,693494.5763018,693495.4539788,693496.2456572,1,0.952412299928255
101,1,10,categorization,0,kitchen,sun_acxkpeoqbwcxfvip.jpg,24,83.33,1.08333333333333,693510.8784477,693511.4402622,70,693510.9575955,693511.4455082,693512.5205149,1,0.561814500018954
101,2,10,categorization,0,bathroom,sun_asfwthctfqerjvxr.jpg,99,83.33,1.45,693512.5258648,693513.1607704,74,693512.6053062,693513.1651971,693514.6068705,1,0.634905599988997
101,3,10,categorization,0,kitchen,sun_abdxkyyxwfskuaqb.jpg,18,83.33,0.966666666666667,693514.6122464,693515.3283423,70,693514.6922838,693515.3333086,693516.2916532,1,0.716095900046639
101,4,10,categorization,0,bathroom,sun_axbqssteryzzlcop.jpg,107,83.33,1.16666666666667,693516.2976513,693516.9203624,74,693516.3766507,693516.9254304,693518.0837771,1,0.622711100033484
101,5,10,categorization,0,bathroom,labelme_sfxiulhjbhlyiyt.jpg,61,83.33,0.833333333333333,693518.0887763,693519.5443464,74,693518.1677616,693519.5495242,693520.3745308,1,1.45557009999175
101,6,10,categorization,0,kitchen,sun_amjjdeyrggfqgmom.jpg,49,83.33,1.4,693520.3790887,693521.1129979,70,693520.4582821,693521.1177218,693522.5094432,1,0.733909199945629
101,7,10,categorization,0,bathroom,sun_apeeialkgkuxddgh.jpg,94,83.33,1.91666666666667,693522.51425,693523.0968981,74,693522.5933905,693523.1016486,693525.0099942,1,0.58264809998218
101,8,10,categorization,0,bathroom,sun_afcoljnjfoxjtgja.jpg,74,83.33,1.73333333333333,693525.0148967,693525.6723233,74,693525.0940026,693525.6774266,693527.4024386,1,0.657426599995233
101,9,10,categorization,0,kitchen,sun_ahywdevtimnqcsln.jpg,42,83.33,1.33333333333333,693527.4076733,693528.1771453,70,693527.4868514,693528.1816647,693529.5066739,1,0.769471999956295
101,10,10,categorization,0,kitchen,sun_aaofphpvkeqlhwgu.jpg,14,83.33,1.68333333333333,693529.5118803,693530.0402653,70,693529.5911574,693530.0454033,693531.7204151,1,0.528384999954142
101,11,10,categorization,0,kitchen,sun_admlmbcdswaszruo.jpg,26,83.33,0.9,693531.7254027,693532.2323867,70,693531.8045226,693532.2376565,693533.1293371,1,0.50698399997782
101,12,10,categorization,0,bathroom,sun_anlddfvefwvocyae.jpg,90,83.33,1.58333333333333,693533.1350832,693533.7611461,74,693533.2142003,693533.7660745,693535.3410866,1,0.626062900060788
101,13,10,categorization,0,kitchen,sun_axyyrmzcupyhlivc.jpg,59,83.33,0.783333333333333,693535.3463056,693535.9443914,70,693535.4256907,693535.9498403,693536.7248505,1,0.598085799952969
101,14,10,categorization,0,bathroom,sun_adbqksnwuqqwdpxc.jpg,72,83.33,0.983333333333333,693536.7305156,693537.3452408,74,693536.8095707,693537.3496422,693538.324651,1,0.6147251999937
101,15,10,categorization,0,kitchen,sun_ahvszpwjtodgwusx.jpg,41,83.33,1.78333333333333,693538.3307457,693538.944379,70,693538.409984,693538.9500913,693540.7251033,1,0.613633299944922
101,16,10,categorization,0,bathroom,sun_ambriybtogmepttm.jpg,86,83.33,0.9,693540.7300123,693541.3374211,74,693540.8089725,693541.3421864,693542.2338628,1,0.60740880004596
101,17,10,categorization,0,bathroom,sun_ajlpekbqvytdohqb.jpg,81,83.33,0.75,693542.2391346,693542.8323791,70,693542.318192,693542.8375988,693543.5792727,0,0.593244499992579
101,18,10,categorization,0,kitchen,sun_aegoxogugdkwpmpj.jpg,27,83.33,0.766666666666667,693543.5836586,693544.1523764,70,693543.6628904,693544.1576822,693544.9160242,1,0.568717799964361
101,19,10,categorization,0,bathroom,sun_ahqjwnzgolcaoidx.jpg,79,83.33,0.766666666666667,693544.9216953,693545.4803156,70,693545.0008818,693545.4856755,693546.2440182,0,0.558620300027542
101,20,10,categorization,0,kitchen,sun_aiffeoqzngslhzfi.jpg,43,83.33,1.13333333333333,693546.2499016,693547.0003882,70,693546.3293001,693547.0060855,693548.1310961,1,0.750486600096337
101,21,10,categorization,0,kitchen,sun_anbcmfjhobvmedkq.jpg,50,83.33,1.3,693548.1358822,693548.9850796,70,693548.2150048,693548.9898286,693550.2815047,1,0.849197400035337
101,22,10,categorization,0,kitchen,sun_aeikbkmhphqzxdkv.jpg,29,83.33,1.08333333333333,693550.2866264,693550.9604192,70,693550.3660377,693550.9659151,693552.0409286,1,0.67379280005116
101,23,10,categorization,0,kitchen,sun_aapllqyqlykszopd.jpg,15,83.33,0.916666666666667,693552.0462937,693552.5763886,70,693552.1253283,693552.5818434,693553.4901888,1,0.530094900052063
101,24,10,categorization,0,bathroom,sun_aavhrsfjbserjtht.jpg,65,83.33,0.8,693553.4950982,693554.1764035,74,693553.5754735,693554.181806,693554.9734834,1,0.681305299978703
101,25,10,categorization,0,kitchen,sun_acwjdupvyjsugpay.jpg,23,83.33,1.81666666666667,693554.9786763,693555.5692025,70,693555.0580741,693555.5737094,693557.3820503,1,0.590526200016029
101,26,10,categorization,0,bathroom,sun_adwvsndpdsgzeste.jpg,73,83.33,0.833333333333333,693557.3869437,693557.8570681,74,693557.4671395,693557.8620312,693558.687039,1,0.470124399987981
101,27,10,categorization,0,bathroom,sun_aclfzgynxzxlbepz.jpg,70,83.33,1.45,693558.6921065,693559.2483288,74,693558.7715454,693559.253889,693560.6955669,1,0.556222299928777
101,28,10,categorization,0,bathroom,sun_aiskgiwswewisvph.jpg,80,83.33,1.48333333333333,693560.7005088,693561.6243663,70,693560.779725,693561.6296715,693563.1046801,0,0.923857499961741
101,29,10,categorization,0,kitchen,sun_awcpdzzznmweyyhv.jpg,57,83.33,0.833333333333333,693563.1098222,693563.6563023,70,693563.1889799,693563.6616172,693564.4866261,1,0.546480100019835
101,30,10,categorization,0,bathroom,sun_aapitsgbtktqubfy.jpg,64,83.33,1.83333333333333,693564.4920844,693565.1043872,74,693564.5725181,693565.1099321,693566.9349408,1,0.612302799941972
101,31,10,categorization,0,kitchen,sun_alpduwskzkgbcfui.jpg,48,83.33,1.4,693566.9399782,693567.6489722,70,693567.0191545,693567.653528,693569.0452054,1,0.708993999985978
101,32,10,categorization,0,kitchen,sun_auaiucuqpdausiva.jpg,53,83.33,1.81666666666667,693569.0497756,693569.8410309,70,693569.1286129,693569.8455547,693571.6538977,1,0.79125530004967
101,33,10,categorization,0,kitchen,sun_acfluyeqiftljamq.jpg,21,83.33,0.883333333333333,693571.6587617,693572.2723584,70,693571.7383507,693572.2770721,693573.1520796,1,0.613596700015478
101,34,10,categorization,0,kitchen,sun_abdenxonkemggwsq.jpg,17,83.33,1.45,693573.1570093,693575.2724451,70,693573.2360225,693575.2780271,693576.7197033,1,2.11543580004945
101,35,10,categorization,0,bathroom,sun_aghyqhbptboemmoq.jpg,75,83.33,1.9,693576.7256329,693577.2484263,74,693576.8047901,693577.2538251,693579.1455012,1,0.522793399984948
101,36,10,categorization,0,bathroom,sun_azqyogdvyhahyram.jpg,110,83.33,1.78333333333333,693579.1512813,693579.7449269,74,693579.230526,693579.7494506,693581.5244588,1,0.593645600019954
101,37,10,categorization,0,bathroom,sun_ahcvzmoyaycdoftf.jpg,78,83.33,1.46666666666667,693581.5293989,693582.0804438,74,693581.6087986,693582.0855199,693583.5438643,1,0.551044899970293
101,38,10,categorization,0,bathroom,sun_aunuadmjocsddsrl.jpg,102,83.33,1.26666666666667,693583.5494313,693584.1209974,74,693583.6286406,693584.125553,693585.3838988,1,0.571566099999472
101,39,10,categorization,0,bathroom,sun_abeymlrfgckenfyk.jpg,66,83.33,1.2,693585.3897169,693585.9291398,74,693585.4688782,693585.9338899,693587.1255693,1,0.539422900066711
101,40,10,categorization,0,kitchen,sun_alalhpqajafvlnho.jpg,46,83.33,1.23333333333333,693587.1304955,693587.8563644,70,693587.2110981,693587.8616013,693589.0866078,1,0.725868899957277
101,41,10,categorization,0,kitchen,sun_avszsnwsbuqfgzbn.jpg,55,83.33,1.66666666666667,693589.0913391,693589.8329786,70,693589.1715108,693589.8374379,693591.4957801,1,0.741639500018209
101,42,10,categorization,0,bathroom,sun_agrwbmhcpmfuwmsg.jpg,76,83.33,1.88333333333333,693591.5009562,693592.0812675,74,693591.5800737,693592.0859828,693593.9609933,1,0.580311300000176
101,43,10,categorization,0,bathroom,sun_akbyysnpwewzraii.jpg,82,83.33,0.883333333333333,693593.9658971,693594.5364416,74,693594.0449608,693594.5415609,693595.4165682,1,0.570544499903917
101,44,10,categorization,0,bathroom,sun_aljolscmmzydegqp.jpg,84,83.33,1.63333333333333,693595.4217668,693596.1923719,74,693595.5008463,693596.1979048,693597.8229448,1,0.770605099969544
101,45,10,categorization,0,bathroom,sun_abjtwfukuwddzted.jpg,67,83.33,1.36666666666667,693597.8292679,693598.3444791,74,693597.9083716,693598.3501467,693599.7084912,1,0.515211199992336
101,46,10,categorization,0,kitchen,sun_awbyfefkbcrlrqws.jpg,56,83.33,1.43333333333333,693599.7140687,693600.3763863,70,693599.7935415,693600.3812632,693601.8062708,1,0.662317599984817
101,47,10,categorization,0,kitchen,sun_akcjzhbbjlbogpdi.jpg,45,83.33,0.9,693601.8115044,693602.5444499,70,693601.8905667,693602.5492321,693603.4409365,1,0.732945500058122
101,48,10,categorization,0,bathroom,sun_anltpptcpfdrhlks.jpg,91,83.33,1.36666666666667,693603.4462012,693603.9604003,74,693603.5265601,693603.9662955,693605.3246385,1,0.514199099969119
101,49,10,categorization,0,kitchen,sun_aggjlwcdjsjcaemh.jpg,33,83.33,1.23333333333333,693605.3307523,693605.9285512,70,693605.4097734,693605.9347926,693607.1598008,1,0.597798899980262
101,50,10,categorization,0,kitchen,sun_agfmsmojwptjoava.jpg,32,83.33,0.966666666666667,693607.1647622,693607.745221,70,693607.2451552,693607.7497673,693608.7081146,1,0.580458800075576
101,1,11,categorization,0,bathroom,sun_anhioqovhscjqqwb.jpg,89,83.33,1.3,693621.1748915,693621.7604747,74,693621.254388,693621.7656116,693623.0572874,1,0.585583199979737
101,2,11,categorization,0,bathroom,sun_atstyziqcmkahyxk.jpg,101,83.33,0.933333333333333,693623.0636651,693623.696496,74,693623.1427072,693623.7020867,693624.6270979,1,0.632830900023691
101,3,11,categorization,0,kitchen,sun_aadbddgrdsjugojn.jpg,12,83.33,1.7,693624.6318974,693625.3214393,70,693624.7108083,693625.3263095,693627.0179843,1,0.689541899948381
101,4,11,categorization,0,kitchen,sun_agzzivivdpnawacl.jpg,37,83.33,0.8,693627.0231771,693627.7844065,70,693627.1022874,693627.789141,693628.5808209,1,0.761229400057346
101,5,11,categorization,0,bathroom,sun_ausgutylgojavyoq.jpg,103,83.33,1.53333333333333,693628.5872214,693629.1045288,74,693628.6664858,693629.1096351,693630.6346477,1,0.517307400004938
101,6,11,categorization,0,bathroom,sun_aovflwamhlwzwvxs.jpg,92,83.33,0.783333333333333,693630.6405208,693631.1604893,74,693630.7195117,693631.1657118,693631.9407236,1,0.519968500011601
101,7,11,categorization,0,kitchen,sun_aehawpgmrlhlvcow.jpg,28,83.33,1.6,693631.9456125,693632.633065,70,693632.0246103,693632.6375372,693634.2292154,1,0.687452499987558
101,8,11,categorization,0,bathroom,sun_abtukhmkjdzyfxhr.jpg,68,83.33,0.933333333333333,693634.2347218,693634.7363907,74,693634.3141113,693634.7421603,693635.6671689,1,0.501668900018558
101,9,11,categorization,0,kitchen,sun_ahljzhgcdpomplvg.jpg,39,83.33,1.65,693635.6721663,693636.2410886,70,693635.7512389,693636.245728,693637.8874043,1,0.568922300008126
101,10,11,categorization,0,kitchen,sun_alazdvaixpjtegwg.jpg,47,83.33,1.41666666666667,693637.8924301,693638.505094,70,693637.9718843,693638.5097577,693639.9181002,1,0.612663900014013
101,11,11,categorization,0,kitchen,sun_abpwyqmlzafvklqo.jpg,19,83.33,0.816666666666667,693639.923504,693640.4645232,70,693640.0025939,693640.4697074,693641.2780538,1,0.541019199998118
101,12,11,categorization,0,kitchen,labelme_rykdqxenmhulbdn.jpg,11,83.33,1.56666666666667,693641.2836773,693641.8255804,70,693641.3628647,693641.8301287,693643.3884725,1,0.54190309997648
101,13,11,categorization,0,kitchen,sun_agubuxuukhzyzpdp.jpg,36,83.33,1.18333333333333,693643.3934237,693643.9290533,70,693643.4724985,693643.9337846,693645.1087926,1,0.535629599937238
101,14,11,categorization,0,kitchen,sun_aeqbewejiovwrhhc.jpg,30,83.33,1.73333333333333,693645.1135361,693645.6411383,70,693645.1925721,693645.6457393,693647.3707477,1,0.527602199930698
101,15,11,categorization,0,bathroom,sun_agyqfjcfkdcydepw.jpg,77,83.33,1.41666666666667,693647.3761502,693648.0084578,74,693647.4552263,693648.0135958,693649.4219371,1,0.632307599997148
101,16,11,categorization,0,kitchen,sun_abrcnpqqhmjwekyf.jpg,20,83.33,0.766666666666667,693649.4273561,693650.0491875,70,693649.5063929,693650.0539129,693650.8122534,1,0.621831400087103
101,17,11,categorization,0,kitchen,sun_ahdycvpopffkzzsu.jpg,38,83.33,0.716666666666667,693650.8174076,693651.4893568,70,693650.8965295,693651.4944268,693652.2027734,1,0.671949199982919
101,18,11,categorization,0,kitchen,sun_aqeaevwwwjoqhzvl.jpg,51,83.33,0.966666666666667,693652.2076678,693652.8325183,70,693652.2867767,693652.8374392,693653.7957847,1,0.624850500025786
101,19,11,categorization,0,bathroom,sun_acsgbuurtwghzjel.jpg,71,83.33,0.783333333333333,693653.8016068,693654.4005449,74,693653.8808532,693654.4056577,693655.1806641,1,0.598938099923544
101,20,11,categorization,0,kitchen,sun_ajcbwwvdlsvjyzje.jpg,44,83.33,0.983333333333333,693655.1852995,693655.849459,70,693655.2643689,693655.8541458,693656.8291598,1,0.664159500040114
101,21,11,categorization,0,bathroom,sun_ammzpemadwrjdfzl.jpg,87,83.33,0.766666666666667,693656.8342639,693657.5365051,74,693656.9136959,693657.5418314,693658.3002105,1,0.702241200022399
101,22,11,categorization,0,bathroom,sun_aamrfepkhweyewue.jpg,63,83.33,1.2,693658.3053018,693658.9452227,74,693658.3844656,693658.9499503,693660.1416281,1,0.63992089999374
101,23,11,categorization,0,bathroom,sun_auzqhkafidnkrwmo.jpg,104,83.33,0.7,693660.1472066,693660.4165469,74,693660.2278142,693660.4218939,693661.1135705,1,0.269340300001204
101,24,11,categorization,0,kitchen,sun_aaxxjlsuzvqlgylf.jpg,16,83.33,0.883333333333333,693661.1184272,693661.7125226,70,693661.1983832,693661.717697,693662.5927101,1,0.594095399952494
101,25,11,categorization,0,bathroom,sun_aqrpegblszgcoujh.jpg,97,83.33,1.23333333333333,693662.5977266,693663.0004127,74,693662.6768431,693663.0055653,693664.230573,1,0.402686099987477
101,26,11,categorization,0,bathroom,sun_aspsyogrekjtfozg.jpg,100,83.33,1.1,693664.2357891,693665.3285659,74,693664.3154572,693665.3341575,693666.425836,1,1.09277679992374
101,27,11,categorization,0,bathroom,sun_awnqiikzaispgmwo.jpg,106,83.33,1.55,693666.430718,693667.0493903,74,693666.5098564,693667.0539774,693668.5956509,1,0.618672299897298
101,28,11,categorization,0,kitchen,sun_agorklincwxrdtga.jpg,35,83.33,1.56666666666667,693668.6016097,693669.1372006,70,693668.6805902,693669.1418982,693670.7002415,1,0.535590899991803
101,29,11,categorization,0,kitchen,sun_adgqasybjyktddhj.jpg,25,83.33,1.08333333333333,693670.7059029,693671.3925511,70,693670.7849671,693671.398185,693672.473193,1,0.686648200033233
101,30,11,categorization,0,bathroom,sun_avhrdrntsqrjzccq.jpg,105,83.33,0.783333333333333,693672.4779576,693673.0731984,74,693672.5573473,693673.0778106,693673.8528214,1,0.595240799942985
101,31,11,categorization,0,bathroom,labelme_xbsnnlvmskdknsb.jpg,62,83.33,1.43333333333333,693673.8584629,693674.3612345,74,693673.9375785,693674.3655424,693675.7905525,1,0.502771599916741
101,32,11,categorization,0,bathroom,sun_aleqenyvunhactkl.jpg,83,83.33,0.75,693675.7959709,693676.2084323,74,693675.8748963,693676.2135569,693676.9552321,1,0.412461400032043
101,33,11,categorization,0,bathroom,sun_axyrejkiiaqiurjk.jpg,109,83.33,0.7,693676.9607935,693677.5611534,74,693677.0398837,693677.5658478,693678.257522,1,0.600359900039621
101,34,11,categorization,0,kitchen,sun_ataniphupyuxeowc.jpg,52,83.33,0.833333333333333,693678.2625039,693678.992525,70,693678.3416666,693678.9981744,693679.823185,1,0.730021100025624
101,35,11,categorization,0,bathroom,sun_apkxzenqapsujocq.jpg,95,83.33,1.13333333333333,693679.8282978,693680.3448912,74,693679.9074253,693680.3497326,693681.4747387,1,0.516593399923295
101,36,11,categorization,0,bathroom,sun_axxbkopsgyouuebh.jpg,108,83.33,0.816666666666667,693681.4797467,693682.0244495,74,693681.5589765,693682.0298225,693682.8381671,1,0.544702799990773
101,37,11,categorization,0,bathroom,sun_arzkwskvsrwimlwo.jpg,98,83.33,1.65,693682.8430122,693683.4084936,74,693682.9221667,693683.4136594,693685.055335,1,0.565481400000863
101,38,11,categorization,0,bathroom,sun_apynckhmoftszqoq.jpg,96,83.33,1,693685.0607482,693685.5689009,74,693685.1397216,693685.5736338,693686.5653117,1,0.508152699912898
101,39,11,categorization,0,bathroom,sun_acgyywnybuveqsro.jpg,69,83.33,1.88333333333333,693686.5701103,693687.0885804,74,693686.6490713,693687.094512,693688.9695239,1,0.518470100010745
101,40,11,categorization,0,kitchen,sun_auticobqsbwgoppi.jpg,54,83.33,1.95,693688.9749559,693689.5371004,70,693689.0544186,693689.5417438,693691.4834186,1,0.5621444999706
101,41,11,categorization,0,kitchen,sun_aglwoufpxbtxqecp.jpg,34,83.33,1.58333333333333,693691.4886419,693692.0724886,70,693691.5676517,693692.0777074,693693.6527168,1,0.583846700028516
101,42,11,categorization,0,kitchen,sun_acfmftudsenhrfhy.jpg,22,83.33,0.766666666666667,693693.6577667,693694.4653769,70,693693.7369326,693694.4701292,693695.2284706,1,0.807610200019553
101,43,11,categorization,0,bathroom,sun_amzlamotzwfkwjco.jpg,88,83.33,1.46666666666667,693695.2337208,693696.0725527,74,693695.3127685,693696.078582,693697.536928,1,0.838831899920478
101,44,11,categorization,0,kitchen,sun_ahpczsiumwwocjkv.jpg,40,83.33,0.816666666666667,693697.5416858,693698.2166292,70,693697.6208258,693698.2218511,693699.0301992,1,0.674943400081247
101,45,11,categorization,0,bathroom,sun_alkosphxlxwjwgjd.jpg,85,83.33,1.4,693699.0348108,693699.6012219,74,693699.1141658,693699.605793,693700.9974702,1,0.566411099978723
101,46,11,categorization,0,kitchen,sun_aypmqwcualkenuoe.jpg,60,83.33,0.766666666666667,693701.0030879,693702.1925127,70,693701.0820178,693702.197789,693702.9561309,1,1.18942479998805
