sub_num,trial,block,task,is_practice,category,image,texture,duration,mask_dur,jitter,stim_time,time_of_resp,trial_response,mask_time,fix_time,jit_onset,trial_end,trial_accuracy,RT
101,1,0,categorization,1,kitchen,SHINEd_kitchen_practice1.tif,116,0.0833333333333333,0.0666666666666667,1.21666666666667,1042.80487325,1043.786647541,9,1042.887410083,1042.946615541,1043.816712541,1045.026938583,1,0.981774291000193
101,2,0,categorization,1,kitchen,SHINEd_kitchen_practice2.tif,117,0.0833333333333333,0.0666666666666667,1.36666666666667,1045.081713916,1045.939096791,9,1045.17158125,1045.228915416,1045.988705791,1047.34891375,1,0.857382875000212
101,3,0,categorization,1,bathroom,SHINEd_bathroom_practice1.tif,111,0.0833333333333333,0.0666666666666667,1.85,1047.403072666,1048.067021416,13,1047.494361791,1047.553974166,1048.094170833,1049.93781475,1,0.663948749999918
101,4,0,categorization,1,kitchen,SHINEd_kitchen_practice5.tif,120,0.0833333333333333,0.0666666666666667,1.55,1049.97115875,1050.83649175,9,1050.062298166,1050.123826916,1050.86893425,1052.413482625,1,0.865332999999964
101,5,0,categorization,1,bathroom,SHINEd_bathroom_practice5.tif,115,0.0833333333333333,0.0666666666666667,1.48333333333333,1052.44624325,1053.16435175,13,1052.532427875,1052.597101166,1053.208556125,1054.685435166,1,0.718108499999971
101,6,0,categorization,1,bathroom,SHINEd_bathroom_practice3.tif,113,0.0833333333333333,0.0666666666666667,1.15,1054.708738958,1055.414983458,13,1054.794298833,1054.859573416,1055.433807791,1056.577179041,1,0.706244500000139
101,7,0,categorization,1,bathroom,SHINEd_bathroom_practice4.tif,114,0.0833333333333333,0.0666666666666667,0.733333333333333,1056.589825541,1057.286982916,13,1056.6736835,1056.740759041,1057.314537083,1058.041249833,1,0.697157374999961
101,8,0,categorization,1,kitchen,SHINEd_kitchen_practice3.tif,118,0.0833333333333333,0.0666666666666667,1.6,1058.058362291,1058.842755166,9,1058.142329958,1058.20822925,1058.860215291,1060.453580125,1,0.784392874999867
101,9,0,categorization,1,kitchen,SHINEd_kitchen_practice4.tif,119,0.0833333333333333,0.0666666666666667,0.716666666666667,1060.475243541,1061.4843825,9,1060.558513333,1060.6248445,1061.515163333,1062.225167041,1,1.00913895899998
101,10,0,categorization,1,bathroom,SHINEd_bathroom_practice2.tif,112,0.0833333333333333,0.0666666666666667,1.21666666666667,1062.230521916,1062.978270291,13,1062.308968041,1062.369937,1062.988486375,1064.19852525,1,0.747748374999901
101,1,1,categorization,0,kitchen,SHINEd_sun_avszsnwsbuqfgzbn.tif,105,0.0833333333333333,0.0666666666666667,1.23333333333333,1071.281794458,1072.074750333,9,1071.360312625,1071.421417375,1072.089914916,1073.31661925,1,0.792955875000189
101,2,1,categorization,0,bathroom,SHINEd_sun_aavhrsfjbserjtht.tif,13,0.0833333333333333,0.0666666666666667,0.783333333333333,1073.327567458,1074.295227166,13,1073.410461666,1073.477879041,1074.316497583,1075.093208041,1,0.967659707999928
101,3,1,categorization,0,kitchen,SHINEd_labelme_rykdqxenmhulbdn.tif,63,0.0833333333333333,0.0666666666666667,0.75,1075.110516458,1075.858827041,9,1075.193205958,1075.251193458,1075.870016458,1076.613355791,1,0.748310583000148
101,4,1,categorization,0,kitchen,SHINEd_sun_akcjzhbbjlbogpdi.tif,99,0.0833333333333333,0.0666666666666667,1.23333333333333,1076.619035416,1077.394318791,9,1076.6975505,1076.758361625,1077.410227291,1078.636930333,1,0.775283374999844
101,5,1,categorization,0,bathroom,SHINEd_sun_aljolscmmzydegqp.tif,33,0.0833333333333333,0.0666666666666667,1.13333333333333,1078.656832458,1079.325834083,13,1078.740251333,1078.806685041,1079.345541458,1080.4722595,1,0.669001624999964
101,6,1,categorization,0,kitchen,SHINEd_sun_admlmbcdswaszruo.tif,79,0.0833333333333333,0.0666666666666667,0.95,1080.487821541,1081.170966333,9,1080.567122,1080.627199583,1081.179313708,1082.122652708,1,0.683144792000121
101,7,1,categorization,0,kitchen,SHINEd_sun_abdenxonkemggwsq.tif,69,0.0833333333333333,0.0666666666666667,0.733333333333333,1082.127589708,1082.778306541,9,1082.206044625,1082.266988791,1082.785529416,1083.512201583,1,0.650716832999933
101,8,1,categorization,0,kitchen,SHINEd_sun_aqeaevwwwjoqhzvl.tif,101,0.0833333333333333,0.0666666666666667,1.31666666666667,1083.519529875,1084.2744285,9,1083.598180083,1083.658961833,1084.277483125,1085.587526541,1,0.754898625000124
101,9,1,categorization,0,bathroom,SHINEd_sun_ahcvzmoyaycdoftf.tif,27,0.0833333333333333,0.0666666666666667,0.8,1085.606402041,1086.135413416,13,1085.690008625,1085.756157833,1086.162450208,1086.955831416,1,0.529011374999982
101,10,1,categorization,0,kitchen,SHINEd_sun_ahdycvpopffkzzsu.tif,90,0.0833333333333333,0.0666666666666667,0.716666666666667,1086.972094,1087.70627475,9,1087.055885083,1087.121676291,1087.724371583,1088.434378,1,0.73418074999995
101,11,1,categorization,0,bathroom,SHINEd_sun_atstyziqcmkahyxk.tif,51,0.0833333333333333,0.0666666666666667,0.916666666666667,1088.450914291,1088.978867416,13,1088.529408,1088.590283458,1088.9921235,1089.902127458,1,0.527953125000067
101,12,1,categorization,0,bathroom,SHINEd_sun_aunuadmjocsddsrl.tif,52,0.0833333333333333,0.0666666666666667,0.95,1089.917104041,1090.842043458,13,1089.995643416,1090.056541875,1090.858469583,1091.801807708,1,0.924939417000132
101,13,1,categorization,0,kitchen,SHINEd_sun_adgqasybjyktddhj.tif,78,0.0833333333333333,0.0666666666666667,0.833333333333333,1091.816885375,1092.450475166,9,1091.895488916,1091.956289875,1092.458424875,1093.2850955,1,0.633589790999849
101,14,1,categorization,0,kitchen,SHINEd_sun_aapllqyqlykszopd.tif,66,0.0833333333333333,0.0666666666666667,0.75,1093.300413208,1094.282349916,9,1093.378757958,1093.439806,1094.291900375,1095.035238291,1,0.981936707999921
101,15,1,categorization,0,bathroom,SHINEd_sun_alkosphxlxwjwgjd.tif,34,0.0833333333333333,0.0666666666666667,1.53333333333333,1095.041029,1095.746707791,13,1095.119548166,1095.180446416,1095.765764125,1097.292476208,1,0.705678791000082
101,16,1,categorization,0,kitchen,SHINEd_sun_aaxxjlsuzvqlgylf.tif,68,0.0833333333333333,0.0666666666666667,1.05,1097.312237541,1098.122190041,9,1097.395847291,1097.461713708,1098.151661125,1099.195043,1,0.809952500000009
101,17,1,categorization,0,bathroom,SHINEd_sun_avhrdrntsqrjzccq.tif,55,0.0833333333333333,0.0666666666666667,0.9,1099.208256833,1099.95118,13,1099.289786666,1099.356846,1099.979988541,1100.873356916,1,0.742923167000072
101,18,1,categorization,0,bathroom,SHINEd_sun_axxbkopsgyouuebh.tif,58,0.0833333333333333,0.0666666666666667,1.18333333333333,1100.889450166,1101.530494291,13,1100.9729415,1101.039123583,1101.541004166,1102.717723791,1,0.641044125000008
101,19,1,categorization,0,bathroom,SHINEd_sun_abapwbhyhkfixyex.tif,14,0.0833333333333333,0.0666666666666667,0.9,1102.729676333,1103.55005175,9,1102.813117083,1102.87947325,1103.567813833,1104.461379125,0,0.820375416999923
101,20,1,categorization,0,kitchen,SHINEd_sun_abdxkyyxwfskuaqb.tif,70,0.0833333333333333,0.0666666666666667,1.66666666666667,1104.477468541,1105.354773541,9,1104.5607145,1104.626995625,1105.362150666,1107.022184625,1,0.877304999999978
101,21,1,categorization,0,bathroom,SHINEd_sun_aghyqhbptboemmoq.tif,23,0.0833333333333333,0.0666666666666667,1.13333333333333,1107.042095916,1107.589033541,13,1107.125873291,1107.191625083,1107.6145195,1108.74123875,1,0.546937624999828
101,22,1,categorization,0,bathroom,SHINEd_sun_alotolagknyrgtsk.tif,35,0.0833333333333333,0.0666666666666667,1.3,1108.753431166,1109.700148291,9,1108.836540208,1108.899896416,1109.721659875,1111.015034541,0,0.946717125000077
101,23,1,categorization,0,bathroom,SHINEd_sun_afcoljnjfoxjtgja.tif,20,0.0833333333333333,0.0666666666666667,1.93333333333333,1111.028832833,1111.611588125,13,1111.112283708,1111.178393833,1111.635142208,1113.561846625,1,0.582755292000002
101,24,1,categorization,0,kitchen,SHINEd_sun_ajcbwwvdlsvjyzje.tif,96,0.0833333333333333,0.0666666666666667,1,1113.580732958,1114.278125625,9,1113.663977875,1113.730238041,1114.303524666,1115.296861958,1,0.697392667000031
101,25,1,categorization,0,kitchen,SHINEd_sun_aggjlwcdjsjcaemh.tif,86,0.0833333333333333,0.0666666666666667,0.883333333333333,1115.301977875,1115.978847125,9,1115.380500875,1115.44131425,1115.9931425,1116.869814666,1,0.676869249999982
101,26,1,categorization,0,kitchen,SHINEd_sun_aadbddgrdsjugojn.tif,64,0.0833333333333333,0.0666666666666667,1.95,1116.875342541,1117.538402583,9,1116.953737375,1117.014795083,1117.549916208,1119.493291791,1,0.663060042000097
101,27,1,categorization,0,kitchen,SHINEd_sun_akchetnepxlcxhsu.tif,98,0.0833333333333333,0.0666666666666667,1.25,1119.513256083,1120.20549475,9,1119.596542,1119.662791416,1120.235762458,1121.479140583,1,0.692238667000083
101,28,1,categorization,0,bathroom,SHINEd_sun_ahaulkltgpkeeemi.tif,26,0.0833333333333333,0.0666666666666667,1.95,1121.492462916,1122.242932333,9,1121.573908833,1121.642254291,1122.265331125,1124.208712833,0,0.750469416999977
101,29,1,categorization,0,bathroom,SHINEd_sun_awnqiikzaispgmwo.tif,56,0.0833333333333333,0.0666666666666667,1.91666666666667,1124.229260166,1125.190211333,13,1124.312745958,1124.378970791,1125.2192245,1127.129265125,1,0.960951167000076
101,30,1,categorization,0,bathroom,SHINEd_sun_ajlawzvmubibwbpy.tif,30,0.0833333333333333,0.0666666666666667,1.41666666666667,1127.149089458,1128.138376208,9,1127.230840041,1127.298553833,1128.154654208,1129.564709958,0,0.989286750000019
101,31,1,categorization,0,kitchen,SHINEd_sun_ajkqhtgcbgpcwrwn.tif,97,0.0833333333333333,0.0666666666666667,0.716666666666667,1129.58447875,1130.340927041,9,1129.669378875,1129.734058458,1130.35661575,1131.066654375,1,0.75644829099997
101,32,1,categorization,0,bathroom,SHINEd_sun_acegryoqftbzowsg.tif,17,0.0833333333333333,0.0666666666666667,1.28333333333333,1131.084028333,1131.730700208,13,1131.167849333,1131.229920833,1131.749075916,1133.025783708,1,0.646671874999811
101,33,1,categorization,0,kitchen,SHINEd_sun_acxkpeoqbwcxfvip.tif,77,0.0833333333333333,0.0666666666666667,0.9,1133.046232458,1133.677807833,9,1133.129864583,1133.195820083,1133.701099458,1134.594464916,1,0.631575375000011
101,34,1,categorization,0,bathroom,SHINEd_sun_apmqjbnwghzuhhzh.tif,46,0.0833333333333333,0.0666666666666667,0.8,1134.611683083,1135.218313166,13,1134.695915,1134.759701666,1135.228429041,1136.021767541,1,0.606630083000027
101,35,1,categorization,0,bathroom,SHINEd_sun_agguqiubmwhqqunb.tif,22,0.0833333333333333,0.0666666666666667,1.01666666666667,1136.033561708,1137.234532708,9,1136.112058208,1136.173051125,1137.241714291,1138.251719791,0,1.20097099999998
101,36,1,categorization,0,bathroom,SHINEd_sun_apkruvsevgegsdwp.tif,44,0.0833333333333333,0.0666666666666667,0.85,1138.257334125,1138.8822085,13,1138.335715125,1138.396691375,1138.898632541,1139.741970875,1,0.62487437499999
101,37,1,categorization,0,kitchen,SHINEd_sun_auticobqsbwgoppi.tif,104,0.0833333333333333,0.0666666666666667,1.51666666666667,1139.750198375,1140.56184575,9,1139.828533833,1139.889432833,1140.574557791,1142.084609833,1,0.811647374999893
101,38,1,categorization,0,kitchen,SHINEd_sun_axyyrmzcupyhlivc.tif,107,0.0833333333333333,0.0666666666666667,1.83333333333333,1142.105904791,1143.180101833,13,1142.189847541,1142.255701166,1143.194882833,1145.0215935,0,1.07419704199992
101,39,1,categorization,0,bathroom,SHINEd_sun_apjevzvycyhuqghb.tif,43,0.0833333333333333,0.0666666666666667,0.716666666666667,1145.039016166,1145.934749375,13,1145.122591416,1145.188692958,1145.9622065,1146.672212875,1,0.8957332089999
101,40,1,categorization,0,kitchen,SHINEd_sun_aexklacwqwezaorf.tif,84,0.0833333333333333,0.0666666666666667,0.9,1146.678203,1147.642631666,9,1146.756620125,1146.817633375,1147.652904458,1148.54624425,1,0.964428666000003
101,41,1,categorization,0,kitchen,SHINEd_sun_abftihopvusyfakt.tif,71,0.0833333333333333,0.0666666666666667,0.916666666666667,1148.552766291,1149.274291666,9,1148.631388,1148.692085833,1149.293906291,1150.203910958,1,0.721525375000056
101,42,1,categorization,0,kitchen,SHINEd_sun_acgtpgfybqjmzeyw.tif,75,0.0833333333333333,0.0666666666666667,0.816666666666667,1150.209604875,1150.906653,9,1150.28795525,1150.348984041,1150.917577791,1151.727583791,1,0.697048125000038
101,43,1,categorization,0,kitchen,SHINEd_sun_acfmftudsenhrfhy.tif,74,0.0833333333333333,0.0666666666666667,1.88333333333333,1151.733161083,1152.418500291,9,1151.811632625,1151.872521833,1152.424443541,1154.301160833,1,0.685339208000187
101,44,1,categorization,0,bathroom,SHINEd_sun_azqyogdvyhahyram.tif,60,0.0833333333333333,0.0666666666666667,0.9,1154.311847125,1154.924210666,13,1154.392003791,1154.457976458,1154.946857708,1155.840195708,1,0.612363540999922
101,45,1,categorization,0,kitchen,SHINEd_sun_ahywdevtimnqcsln.tif,94,0.0833333333333333,0.0666666666666667,1,1155.850075708,1156.490514625,9,1155.9285545,1155.989429875,1156.508023833,1157.501360458,1,0.640438916999983
101,46,1,categorization,0,kitchen,SHINEd_sun_aarfiyshqohlwkmo.tif,67,0.0833333333333333,0.0666666666666667,0.733333333333333,1157.506695208,1158.162020916,9,1157.585090291,1157.646047625,1158.181310291,1158.907982125,1,0.655325707999964
101,47,1,categorization,0,bathroom,SHINEd_labelme_sfxiulhjbhlyiyt.tif,11,0.0833333333333333,0.0666666666666667,0.883333333333333,1158.912813583,1159.537916333,13,1158.991305541,1159.052237791,1159.554029666,1160.430702083,1,0.625102750000224
101,48,1,categorization,0,bathroom,SHINEd_sun_aleqenyvunhactkl.tif,32,0.0833333333333333,0.0666666666666667,1.73333333333333,1160.436357291,1161.057742791,13,1160.514729416,1160.575693333,1161.060756958,1162.787460208,1,0.621385500000088
101,49,1,categorization,0,bathroom,SHINEd_sun_amzlamotzwfkwjco.tif,37,0.0833333333333333,0.0666666666666667,1.91666666666667,1162.806476708,1163.620434083,13,1162.890193208,1162.955729791,1163.645372458,1165.555425625,1,0.813957374999973
101,50,1,categorization,0,kitchen,SHINEd_labelme_kxvouciolcpqplr.tif,62,0.0833333333333333,0.0666666666666667,1.35,1165.575982708,1166.284367958,9,1165.659541916,1165.725494208,1166.297066041,1167.640451125,1,0.708385249999992
101,1,2,categorization,0,kitchen,SHINEd_sun_agubuxuukhzyzpdp.tif,88,0.0833333333333333,0.0666666666666667,0.95,1172.386410791,1173.057702208,9,1172.465215625,1172.525929708,1173.061025916,1174.004363375,1,0.67129141700002
101,2,2,categorization,0,bathroom,SHINEd_sun_asfwthctfqerjvxr.tif,49,0.0833333333333333,0.0666666666666667,0.75,1174.010104083,1174.770620583,13,1174.088859291,1174.149441333,1174.784613291,1175.527952041,1,0.760516499999994
101,3,2,categorization,0,bathroom,SHINEd_sun_aofnryafpsjimzsb.tif,40,0.0833333333333333,0.0666666666666667,1.68333333333333,1175.535801208,1176.274360375,9,1175.614126708,1175.675159666,1176.29381,1177.970527083,0,0.738559166999949
101,4,2,categorization,0,kitchen,SHINEd_sun_aymvwlarqodbwuoc.tif,108,0.0833333333333333,0.0666666666666667,0.816666666666667,1177.988424875,1178.68280675,13,1178.072457333,1178.138288375,1178.710939125,1179.52094375,0,0.69438187500009
101,5,2,categorization,0,bathroom,SHINEd_sun_aggnnqpdorgxpvce.tif,21,0.0833333333333333,0.0666666666666667,0.916666666666667,1179.5265165,1180.345479291,9,1179.604992833,1179.665954791,1180.35103175,1181.261036541,0,0.818962790999876
101,6,2,categorization,0,bathroom,SHINEd_sun_aapitsgbtktqubfy.tif,12,0.0833333333333333,0.0666666666666667,1.21666666666667,1181.265948333,1182.026370208,9,1181.344334666,1181.405274375,1182.04045975,1183.25051575,0,0.760421874999793
101,7,2,categorization,0,kitchen,SHINEd_sun_aamedkxepzlwuxes.tif,65,0.0833333333333333,0.0666666666666667,0.9,1183.262958291,1183.900594375,9,1183.34651025,1183.412993666,1183.919186458,1184.812559166,1,0.637636084000178
101,8,2,categorization,0,bathroom,SHINEd_sun_anhioqovhscjqqwb.tif,38,0.0833333333333333,0.0666666666666667,1.65,1184.822683583,1185.449485,13,1184.90624475,1184.972658333,1185.457850791,1187.101233166,1,0.626801417000024
101,9,2,categorization,0,bathroom,SHINEd_sun_ahijqszoswveeyji.tif,28,0.0833333333333333,0.0666666666666667,1.15,1187.122391708,1187.898209,13,1187.205848958,1187.270476166,1187.926971583,1189.070353708,1,0.775817292000056
101,10,2,categorization,0,kitchen,SHINEd_sun_auaiucuqpdausiva.tif,102,0.0833333333333333,0.0666666666666667,1.13333333333333,1189.081625625,1189.667742958,9,1189.165561375,1189.2288105,1189.684591625,1190.81130225,1,0.586117332999947
101,11,2,categorization,0,kitchen,SHINEd_sun_aunzlwrbjumxhwdj.tif,103,0.0833333333333333,0.0666666666666667,1.76666666666667,1190.8286305,1191.641991333,9,1190.912051208,1190.976480625,1191.661575666,1193.421614416,1,0.813360833000161
101,12,2,categorization,0,kitchen,SHINEd_sun_acwjdupvyjsugpay.tif,76,0.0833333333333333,0.0666666666666667,1.8,1193.441317291,1194.069232666,9,1193.524858375,1193.591343166,1194.097899416,1195.891267708,1,0.627915375000157
101,13,2,categorization,0,kitchen,SHINEd_sun_aegoxogugdkwpmpj.tif,80,0.0833333333333333,0.0666666666666667,0.9,1195.912140458,1196.539238125,9,1195.996467625,1196.062037625,1196.569053041,1197.46239125,1,0.627097667000044
101,14,2,categorization,0,kitchen,SHINEd_sun_aeqdocilnnpuvuhx.tif,83,0.0833333333333333,0.0666666666666667,0.716666666666667,1197.46995925,1198.218122875,9,1197.548391791,1197.609394708,1198.227890375,1198.9378955,1,0.748163624999961
101,15,2,categorization,0,kitchen,SHINEd_sun_afuyedyxivkhecmu.tif,85,0.0833333333333333,0.0666666666666667,1.36666666666667,1198.943540958,1199.593856166,9,1199.021975208,1199.082962208,1199.601330083,1200.961379708,1,0.650315207999938
101,16,2,categorization,0,kitchen,SHINEd_sun_agorklincwxrdtga.tif,87,0.0833333333333333,0.0666666666666667,0.916666666666667,1200.979977291,1201.623628208,9,1201.063158333,1201.129700875,1201.652903708,1202.562957791,1,0.643650916999832
101,17,2,categorization,0,kitchen,SHINEd_sun_aenotlpyftoioydp.tif,82,0.0833333333333333,0.0666666666666667,0.716666666666667,1202.585065208,1203.145521666,9,1202.668587625,1202.733116625,1203.151698791,1203.8617035,1,0.560456457999862
101,18,2,categorization,0,bathroom,SHINEd_sun_axldvoqbuvuggfmq.tif,57,0.0833333333333333,0.0666666666666667,0.766666666666667,1203.869502291,1204.5536695,9,1203.947975041,1204.009192291,1204.561257541,1205.32126175,0,0.684167209000179
101,19,2,categorization,0,kitchen,SHINEd_sun_azmutvzbxypaceni.tif,110,0.0833333333333333,0.0666666666666667,1.06666666666667,1205.326471791,1206.066382916,9,1205.404900916,1205.465948291,1206.084409791,1207.144439666,1,0.739911125000162
101,20,2,categorization,0,kitchen,SHINEd_labelme_brsyyvweiuaazfr.tif,61,0.0833333333333333,0.0666666666666667,0.8,1207.154796916,1207.839527375,9,1207.236077875,1207.302434375,1207.858624708,1208.652005916,1,0.684730459000093
101,21,2,categorization,0,bathroom,SHINEd_sun_abjtwfukuwddzted.tif,15,0.0833333333333333,0.0666666666666667,0.866666666666667,1208.671492541,1209.273992375,13,1208.755020791,1208.818991083,1209.287623125,1210.147628541,1,0.602499834000128
101,22,2,categorization,0,bathroom,SHINEd_sun_akiytfaagpdsphgz.tif,31,0.0833333333333333,0.0666666666666667,1.48333333333333,1210.153298125,1210.66621675,13,1210.231607375,1210.292686541,1210.677790333,1212.154493916,1,0.512918625000111
101,23,2,categorization,0,kitchen,SHINEd_sun_ahpczsiumwwocjkv.tif,92,0.0833333333333333,0.0666666666666667,1.1,1212.171820125,1212.814065375,9,1212.255500583,1212.32162425,1212.827285125,1213.920669666,1,0.64224524999986
101,24,2,categorization,0,kitchen,SHINEd_sun_ahspylgoovwmwvgk.tif,93,0.0833333333333333,0.0666666666666667,0.783333333333333,1213.929581458,1214.519574541,9,1214.013206791,1214.079112625,1214.534846458,1215.311564458,1,0.589993083000081
101,25,2,categorization,0,bathroom,SHINEd_sun_axyrejkiiaqiurjk.tif,59,0.0833333333333333,0.0666666666666667,0.866666666666667,1215.328419916,1215.939424208,13,1215.412101666,1215.477863875,1215.965544375,1216.825549916,1,0.611004291999961
101,26,2,categorization,0,bathroom,SHINEd_sun_ausgutylgojavyoq.tif,53,0.0833333333333333,0.0666666666666667,1.83333333333333,1216.830587916,1217.442116791,13,1216.908963208,1216.970010666,1217.455165166,1219.281875583,1,0.611528874999976
101,27,2,categorization,0,kitchen,SHINEd_sun_aypmqwcualkenuoe.tif,109,0.0833333333333333,0.0666666666666667,0.7,1219.300302791,1220.139378541,9,1219.383953291,1219.449846791,1220.154240791,1220.847578625,1,0.83907575000012
101,28,2,categorization,0,bathroom,SHINEd_sun_aclfzgynxzxlbepz.tif,19,0.0833333333333333,0.0666666666666667,1.33333333333333,1220.853200458,1221.649343666,13,1220.931666041,1220.992556666,1221.660957833,1222.9876755,1,0.796143208000103
101,29,2,categorization,0,bathroom,SHINEd_sun_ahqjwnzgolcaoidx.tif,29,0.0833333333333333,0.0666666666666667,1.33333333333333,1223.007891666,1223.619325416,13,1223.091809583,1223.154787916,1223.644717333,1224.971440791,1,0.61143375000006
101,30,2,categorization,0,bathroom,SHINEd_sun_anryaplzeujmzfkd.tif,39,0.0833333333333333,0.0666666666666667,1.38333333333333,1224.99021075,1225.628469875,13,1225.073847458,1225.139957166,1225.646385458,1227.02309225,1,0.638259125000104
101,31,2,categorization,0,kitchen,SHINEd_sun_agzzivivdpnawacl.tif,89,0.0833333333333333,0.0666666666666667,1.25,1227.042401208,1228.158004541,9,1227.1259685,1227.191843833,1228.180177416,1229.42355925,1,1.11560333300008
101,32,2,categorization,0,kitchen,SHINEd_sun_ahljzhgcdpomplvg.tif,91,0.0833333333333333,0.0666666666666667,1.55,1229.44331025,1230.148710291,9,1229.528115666,1229.5931385,1230.165902833,1231.70928075,1,0.705400041000075
101,33,2,categorization,0,bathroom,SHINEd_sun_agrwbmhcpmfuwmsg.tif,24,0.0833333333333333,0.0666666666666667,1.61666666666667,1231.730393958,1232.324154333,13,1231.813799625,1231.879857333,1232.353120416,1233.963163291,1,0.593760375000102
101,34,2,categorization,0,bathroom,SHINEd_sun_apeeialkgkuxddgh.tif,42,0.0833333333333333,0.0666666666666667,1.33333333333333,1233.983159208,1234.536970958,13,1234.066763458,1234.132856375,1234.555894791,1235.882603541,1,0.553811750000023
101,35,2,categorization,0,kitchen,SHINEd_sun_aehawpgmrlhlvcow.tif,81,0.0833333333333333,0.0666666666666667,0.833333333333333,1235.895628666,1236.549749166,9,1235.979406541,1236.045194375,1236.567394083,1237.394092875,1,0.65412050000009
101,36,2,categorization,0,bathroom,SHINEd_sun_aqrpegblszgcoujh.tif,48,0.0833333333333333,0.0666666666666667,1.45,1237.410759208,1238.105905,13,1237.494468041,1237.560296791,1238.1123715,1239.55575975,1,0.695145791999948
101,37,2,categorization,0,bathroom,SHINEd_sun_acduarbnmmoglmiv.tif,16,0.0833333333333333,0.0666666666666667,0.933333333333333,1239.573615375,1240.355952416,13,1239.657593583,1239.723199916,1240.380236041,1241.306908,1,0.782337041000119
101,38,2,categorization,0,kitchen,SHINEd_sun_awcpdzzznmweyyhv.tif,106,0.0833333333333333,0.0666666666666667,1.65,1241.316732125,1241.985838958,9,1241.395274916,1241.456250083,1241.991486583,1243.634875541,1,0.669106832999887
101,39,2,categorization,0,bathroom,SHINEd_sun_apynckhmoftszqoq.tif,47,0.0833333333333333,0.0666666666666667,1.23333333333333,1243.655321458,1244.242984791,13,1243.739225583,1243.804995708,1244.26124475,1245.487942166,1,0.587663333000137
101,40,2,categorization,0,kitchen,SHINEd_sun_abpwyqmlzafvklqo.tif,72,0.0833333333333333,0.0666666666666667,0.766666666666667,1245.505256333,1246.143681208,9,1245.589086166,1245.655091,1246.160890333,1246.920935666,1,0.638424875000055
101,41,2,categorization,0,bathroom,SHINEd_sun_auzqhkafidnkrwmo.tif,54,0.0833333333333333,0.0666666666666667,1.78333333333333,1246.936907958,1247.497456833,13,1247.020570416,1247.086604166,1247.505692333,1249.282402041,1,0.560548874999995
101,42,2,categorization,0,bathroom,SHINEd_sun_acgyywnybuveqsro.tif,18,0.0833333333333333,0.0666666666666667,1.11666666666667,1249.304097583,1249.920333458,13,1249.387825,1249.454078916,1249.944135375,1251.054176708,1,0.616235875000029
101,43,2,categorization,0,kitchen,SHINEd_sun_amjjdeyrggfqgmom.tif,100,0.0833333333333333,0.0666666666666667,1.85,1251.065297,1251.726302333,9,1251.146396666,1251.215147666,1251.75525325,1253.598622833,1,0.661005332999821
101,44,2,categorization,0,bathroom,SHINEd_sun_aoybiabnpadelefl.tif,41,0.0833333333333333,0.0666666666666667,0.733333333333333,1253.62026425,1254.362151291,9,1253.70390075,1253.770132583,1254.37479975,1255.101474666,0,0.741887040999927
101,45,2,categorization,0,bathroom,SHINEd_sun_aspsyogrekjtfozg.tif,50,0.0833333333333333,0.0666666666666667,0.783333333333333,1255.107750041,1255.76141975,13,1255.186300583,1255.247158666,1255.765968041,1256.542639083,1,0.653669709000042
101,46,2,categorization,0,kitchen,SHINEd_sun_abrcnpqqhmjwekyf.tif,73,0.0833333333333333,0.0666666666666667,1.5,1256.548250666,1257.273184458,9,1256.626717541,1256.687745583,1257.289667791,1258.783057833,1,0.724933792000002
101,47,2,categorization,0,bathroom,SHINEd_sun_apkxzenqapsujocq.tif,45,0.0833333333333333,0.0666666666666667,0.733333333333333,1258.804950125,1259.381906625,13,1258.888567583,1258.95504925,1259.39262725,1260.11932825,1,0.576956500000051
101,48,2,categorization,0,bathroom,SHINEd_sun_agyqfjcfkdcydepw.tif,25,0.0833333333333333,0.0666666666666667,1.1,1260.138691125,1261.209698916,13,1260.222453833,1260.288387916,1261.223415416,1262.316793,1,1.07100779100006
101,49,2,categorization,0,kitchen,SHINEd_sun_aixorpehvfykdynp.tif,95,0.0833333333333333,0.0666666666666667,1.6,1262.32617025,1263.038942291,9,1262.408319666,1262.474838666,1263.064845791,1264.658213416,1,0.712772041000107
101,50,2,categorization,0,bathroom,SHINEd_sun_ambriybtogmepttm.tif,36,0.0833333333333333,0.0666666666666667,1.06666666666667,1264.678103708,1265.338532375,9,1264.761849083,1264.827413666,1265.367350416,1266.42739475,0,0.660428667000133
