sub_num,trial,block,task,is_practice,category,image,texture,duration,mask_dur,jitter,stim_time,time_of_resp,trial_response,mask_time,fix_time,jit_onset,trial_end,trial_accuracy,RT
101,1,0,categorization,1,kitchen,SHINEd_kitchen_practice1.tif,116,0.0833333333333333,0.0666666666666667,1.21666666666667,548.955536416,550.617990708,9,549.038021,549.099094041,550.636660583,551.846855875,NaN,NaN
101,2,0,categorization,1,kitchen,SHINEd_kitchen_practice2.tif,117,0.0833333333333333,0.0666666666666667,1.36666666666667,551.902459791,553.044310375,9,551.9888815,552.052808125,553.096884208,554.457090708,NaN,NaN
101,3,0,categorization,1,bathroom,SHINEd_bathroom_practice1.tif,111,0.0833333333333333,0.0666666666666667,1.85,554.504659125,555.206154833,13,554.597188833,554.655908875,555.238344791,557.081992208,NaN,NaN
101,4,0,categorization,1,kitchen,SHINEd_kitchen_practice5.tif,120,0.0833333333333333,0.0666666666666667,1.55,557.107705416,558.770239791,9,557.194453583,557.258832166,558.778279625,560.321782708,NaN,NaN
101,5,0,categorization,1,bathroom,SHINEd_bathroom_practice5.tif,115,0.0833333333333333,0.0666666666666667,1.48333333333333,560.356654125,561.130922333,13,560.446438041,560.507096416,561.169981208,562.647611208,NaN,NaN
101,6,0,categorization,1,bathroom,SHINEd_bathroom_practice3.tif,113,0.0833333333333333,0.0666666666666667,1.15,562.674768125,563.32027925,13,562.760067416,562.8252435,563.349883208,564.493393208,NaN,NaN
101,7,0,categorization,1,bathroom,SHINEd_bathroom_practice4.tif,114,0.0833333333333333,0.0666666666666667,0.733333333333333,564.504823416,565.02161125,13,564.588402375,564.655321458,565.045780625,565.772518833,NaN,NaN
101,8,0,categorization,1,kitchen,SHINEd_kitchen_practice3.tif,118,0.0833333333333333,0.0666666666666667,1.6,565.78319825,566.426078041,9,565.86900325,565.933679208,566.436421708,568.029801208,NaN,NaN
101,9,0,categorization,1,kitchen,SHINEd_kitchen_practice4.tif,119,0.0833333333333333,0.0666666666666667,0.716666666666667,568.046502208,569.391118375,13,568.129848666,568.196365958,569.421383666,570.131390333,NaN,NaN
101,10,0,categorization,1,bathroom,SHINEd_bathroom_practice2.tif,112,0.0833333333333333,0.0666666666666667,1.21666666666667,570.136966791,571.330505375,13,570.215344416,570.276282208,571.345354125,572.555401708,NaN,NaN
101,1,1,categorization,0,kitchen,SHINEd_sun_avszsnwsbuqfgzbn.tif,105,0.0833333333333333,0.0666666666666667,1.23333333333333,584.456435958,585.458616583,9,584.535508708,584.595810583,585.464553666,586.691256708,NaN,NaN
101,2,1,categorization,0,bathroom,SHINEd_sun_aavhrsfjbserjtht.tif,13,0.0833333333333333,0.0666666666666667,0.783333333333333,586.707289791,587.497360958,13,586.790502708,586.856380625,587.512061125,588.288776666,NaN,NaN
101,3,1,categorization,0,kitchen,SHINEd_labelme_rykdqxenmhulbdn.tif,63,0.0833333333333333,0.0666666666666667,0.75,588.304767916,589.754525208,9,588.389059958,588.454158916,589.7731965,590.516536125,NaN,NaN
101,4,1,categorization,0,kitchen,SHINEd_sun_akcjzhbbjlbogpdi.tif,99,0.0833333333333333,0.0666666666666667,1.23333333333333,590.521755333,591.37763925,9,590.600198166,590.661026291,591.396328583,592.623033458,NaN,NaN
101,5,1,categorization,0,bathroom,SHINEd_sun_aljolscmmzydegqp.tif,33,0.0833333333333333,0.0666666666666667,1.13333333333333,592.640134375,593.556511916,13,592.723263333,592.789572041,593.579204708,594.70590825,NaN,NaN
101,6,1,categorization,0,kitchen,SHINEd_sun_admlmbcdswaszruo.tif,79,0.0833333333333333,0.0666666666666667,0.95,594.714723041,595.662554875,9,594.797828625,594.864133875,595.687351208,596.630700375,NaN,NaN
101,7,1,categorization,0,kitchen,SHINEd_sun_abdenxonkemggwsq.tif,69,0.0833333333333333,0.0666666666666667,0.733333333333333,596.636501041,597.78646375,9,596.714866875,596.775837291,597.794229458,598.520900125,NaN,NaN
101,8,1,categorization,0,kitchen,SHINEd_sun_aqeaevwwwjoqhzvl.tif,101,0.0833333333333333,0.0666666666666667,1.31666666666667,598.526207791,599.730669541,9,598.604708833,598.665539,599.734351375,601.044404208,NaN,NaN
101,9,1,categorization,0,bathroom,SHINEd_sun_ahcvzmoyaycdoftf.tif,27,0.0833333333333333,0.0666666666666667,0.8,601.061283791,601.675723541,13,601.144701166,601.210791625,601.70066975,602.494055375,NaN,NaN
101,10,1,categorization,0,kitchen,SHINEd_sun_ahdycvpopffkzzsu.tif,90,0.0833333333333333,0.0666666666666667,0.716666666666667,602.507763416,603.68242425,9,602.590879125,602.657279416,603.693034083,604.403041833,NaN,NaN
101,11,1,categorization,0,bathroom,SHINEd_sun_atstyziqcmkahyxk.tif,51,0.0833333333333333,0.0666666666666667,0.916666666666667,604.4082705,605.297809291,13,604.486759916,604.547611416,605.316469958,606.226476458,NaN,NaN
101,12,1,categorization,0,bathroom,SHINEd_sun_aunuadmjocsddsrl.tif,52,0.0833333333333333,0.0666666666666667,0.95,606.231964041,607.041914333,13,606.310287,606.3712525,607.056713291,608.000051625,NaN,NaN
101,13,1,categorization,0,kitchen,SHINEd_sun_adgqasybjyktddhj.tif,78,0.0833333333333333,0.0666666666666667,0.833333333333333,608.005148125,608.818109041,9,608.083588833,608.144428625,608.830052833,609.656723,NaN,NaN
101,14,1,categorization,0,kitchen,SHINEd_sun_aapllqyqlykszopd.tif,66,0.0833333333333333,0.0666666666666667,0.75,609.662251541,610.921824875,9,609.7406245,609.801528541,610.9369445,611.680282875,NaN,NaN
101,15,1,categorization,0,bathroom,SHINEd_sun_alkosphxlxwjwgjd.tif,34,0.0833333333333333,0.0666666666666667,1.53333333333333,611.685859916,612.466054666,13,611.764151541,611.825238166,612.477109083,614.003812208,NaN,NaN
101,16,1,categorization,0,kitchen,SHINEd_sun_aaxxjlsuzvqlgylf.tif,68,0.0833333333333333,0.0666666666666667,1.05,614.015104833,614.780684583,13,614.098246666,614.164300958,614.803678125,615.847049125,NaN,NaN
101,17,1,categorization,0,bathroom,SHINEd_sun_avhrdrntsqrjzccq.tif,55,0.0833333333333333,0.0666666666666667,0.9,615.857774125,617.359678583,13,615.939120958,616.005640958,617.381163833,618.274502125,NaN,NaN
101,18,1,categorization,0,bathroom,SHINEd_sun_axxbkopsgyouuebh.tif,58,0.0833333333333333,0.0666666666666667,1.18333333333333,618.279948291,618.945974041,13,618.358311708,618.419183083,618.954828291,620.13152825,NaN,NaN
101,19,1,categorization,0,bathroom,SHINEd_sun_abapwbhyhkfixyex.tif,14,0.0833333333333333,0.0666666666666667,0.9,620.140621833,620.727366541,9,620.223812125,620.29013725,620.746316125,621.63969925,NaN,NaN
101,20,1,categorization,0,kitchen,SHINEd_sun_abdxkyyxwfskuaqb.tif,70,0.0833333333333333,0.0666666666666667,1.66666666666667,621.655815833,622.298139125,9,621.73923325,621.805506916,622.307779625,623.967831458,NaN,NaN
101,21,1,categorization,0,bathroom,SHINEd_sun_aghyqhbptboemmoq.tif,23,0.0833333333333333,0.0666666666666667,1.13333333333333,623.980183333,624.798631625,13,624.063416666,624.129305583,624.818897833,625.945612125,NaN,NaN
101,22,1,categorization,0,bathroom,SHINEd_sun_alotolagknyrgtsk.tif,35,0.0833333333333333,0.0666666666666667,1.3,625.954417791,627.157450333,13,626.035993208,626.103645541,627.176017625,628.469400083,NaN,NaN
101,23,1,categorization,0,bathroom,SHINEd_sun_afcoljnjfoxjtgja.tif,20,0.0833333333333333,0.0666666666666667,1.93333333333333,628.480929416,629.3519655,13,628.565203083,628.630264083,629.369709333,631.296429208,NaN,NaN
101,24,1,categorization,0,kitchen,SHINEd_sun_ajcbwwvdlsvjyzje.tif,96,0.0833333333333333,0.0666666666666667,1,631.312892041,632.335161833,13,631.396221458,631.4622205,632.351569416,633.344909291,NaN,NaN
101,25,1,categorization,0,kitchen,SHINEd_sun_aggjlwcdjsjcaemh.tif,86,0.0833333333333333,0.0666666666666667,0.883333333333333,633.35062425,634.073803083,9,633.429311833,633.489975416,634.091784666,634.968457541,NaN,NaN
101,26,1,categorization,0,kitchen,SHINEd_sun_aadbddgrdsjugojn.tif,64,0.0833333333333333,0.0666666666666667,1.95,634.973985291,635.713840541,9,635.052379375,635.113494208,635.732340458,637.675728416,NaN,NaN
101,27,1,categorization,0,kitchen,SHINEd_sun_akchetnepxlcxhsu.tif,98,0.0833333333333333,0.0666666666666667,1.25,637.694215666,638.373706291,13,637.777722916,637.843374083,638.400052,639.643440041,NaN,NaN
101,28,1,categorization,0,bathroom,SHINEd_sun_ahaulkltgpkeeemi.tif,26,0.0833333333333333,0.0666666666666667,1.95,639.660809083,640.667442291,13,639.744168875,639.809928458,640.681625583,642.625004375,NaN,NaN
101,29,1,categorization,0,bathroom,SHINEd_sun_awnqiikzaispgmwo.tif,56,0.0833333333333333,0.0666666666666667,1.91666666666667,642.642271083,643.61594025,13,642.725748166,642.791782625,643.630843458,645.540882041,NaN,NaN
101,30,1,categorization,0,bathroom,SHINEd_sun_ajlawzvmubibwbpy.tif,30,0.0833333333333333,0.0666666666666667,1.41666666666667,645.559245166,647.274080208,13,645.642406,645.708865375,647.278305875,648.688357583,NaN,NaN
101,31,1,categorization,0,kitchen,SHINEd_sun_ajkqhtgcbgpcwrwn.tif,97,0.0833333333333333,0.0666666666666667,0.716666666666667,648.706608958,649.77785375,9,648.789913333,648.8558085,649.795027125,650.505031666,NaN,NaN
101,32,1,categorization,0,bathroom,SHINEd_sun_acegryoqftbzowsg.tif,17,0.0833333333333333,0.0666666666666667,1.28333333333333,650.51086,651.249863,9,650.589189416,650.65026475,651.268817458,652.545538416,NaN,NaN
101,33,1,categorization,0,kitchen,SHINEd_sun_acxkpeoqbwcxfvip.tif,77,0.0833333333333333,0.0666666666666667,0.9,652.55999425,653.401652416,9,652.6431575,652.709301,653.414406833,654.307782625,NaN,NaN
101,34,1,categorization,0,bathroom,SHINEd_sun_apmqjbnwghzuhhzh.tif,46,0.0833333333333333,0.0666666666666667,0.8,654.322743666,655.137519625,13,654.401894333,654.462173666,655.147711625,655.941050041,NaN,NaN
101,35,1,categorization,0,bathroom,SHINEd_sun_agguqiubmwhqqunb.tif,22,0.0833333333333333,0.0666666666666667,1.01666666666667,655.946547958,656.689363916,9,656.024913,656.086047958,656.704886541,657.71493975,NaN,NaN
101,36,1,categorization,0,bathroom,SHINEd_sun_apkruvsevgegsdwp.tif,44,0.0833333333333333,0.0666666666666667,0.85,657.724409291,658.433525375,13,657.805894375,657.872169125,658.462167875,659.305550291,NaN,NaN
101,37,1,categorization,0,kitchen,SHINEd_sun_auticobqsbwgoppi.tif,104,0.0833333333333333,0.0666666666666667,1.51666666666667,659.321121458,659.890199541,9,659.40416275,659.47037375,659.906389125,661.416435416,NaN,NaN
101,38,1,categorization,0,kitchen,SHINEd_sun_axyyrmzcupyhlivc.tif,107,0.0833333333333333,0.0666666666666667,1.83333333333333,661.43276025,662.243141041,9,661.515801708,661.58196,662.252814833,664.079532666,NaN,NaN
101,39,1,categorization,0,bathroom,SHINEd_sun_apjevzvycyhuqghb.tif,43,0.0833333333333333,0.0666666666666667,0.716666666666667,664.095074125,664.785801625,9,664.178507208,664.244886,664.801213583,665.511219708,NaN,NaN
101,40,1,categorization,0,kitchen,SHINEd_sun_aexklacwqwezaorf.tif,84,0.0833333333333333,0.0666666666666667,0.9,665.517062833,666.465732625,9,665.5955135,665.656465416,666.475051791,667.368389541,NaN,NaN
101,41,1,categorization,0,kitchen,SHINEd_sun_abftihopvusyfakt.tif,71,0.0833333333333333,0.0666666666666667,0.916666666666667,667.374056375,668.025460958,9,667.452484666,667.513371375,668.031745333,668.941751291,NaN,NaN
101,42,1,categorization,0,kitchen,SHINEd_sun_acgtpgfybqjmzeyw.tif,75,0.0833333333333333,0.0666666666666667,0.816666666666667,668.947329958,669.609489083,9,669.025809625,669.086795708,669.622334083,670.432336916,NaN,NaN
101,43,1,categorization,0,kitchen,SHINEd_sun_acfmftudsenhrfhy.tif,74,0.0833333333333333,0.0666666666666667,1.88333333333333,670.437880166,671.129630375,9,670.516245541,670.577191625,671.145948375,673.022646583,NaN,NaN
101,44,1,categorization,0,bathroom,SHINEd_sun_azqyogdvyhahyram.tif,60,0.0833333333333333,0.0666666666666667,0.9,673.039433208,673.900229666,9,673.123109541,673.188828041,673.928792916,674.822131708,NaN,NaN
101,45,1,categorization,0,kitchen,SHINEd_sun_ahywdevtimnqcsln.tif,94,0.0833333333333333,0.0666666666666667,1,674.827653208,675.44225575,9,674.90602175,674.967038875,675.452401541,676.445741875,NaN,NaN
101,46,1,categorization,0,kitchen,SHINEd_sun_aarfiyshqohlwkmo.tif,67,0.0833333333333333,0.0666666666666667,0.733333333333333,676.451657583,677.185272833,9,676.529994916,676.591010875,677.19289975,677.919571583,NaN,NaN
101,47,1,categorization,0,bathroom,SHINEd_labelme_sfxiulhjbhlyiyt.tif,11,0.0833333333333333,0.0666666666666667,0.883333333333333,677.92516075,678.562220541,13,678.003489333,678.064548041,678.566888625,679.443560083,NaN,NaN
101,48,1,categorization,0,bathroom,SHINEd_sun_aleqenyvunhactkl.tif,32,0.0833333333333333,0.0666666666666667,1.73333333333333,679.44900325,680.050079166,13,679.527363833,679.588565708,680.057106458,681.783806708,NaN,NaN
101,49,1,categorization,0,bathroom,SHINEd_sun_amzlamotzwfkwjco.tif,37,0.0833333333333333,0.0666666666666667,1.91666666666667,681.797366,682.485896291,13,681.880442291,681.946656291,682.502019125,684.412067291,NaN,NaN
101,50,1,categorization,0,kitchen,SHINEd_labelme_kxvouciolcpqplr.tif,62,0.0833333333333333,0.0666666666666667,1.35,684.4294435,685.635356166,13,684.512822541,684.5786035,685.647942625,686.991318166,NaN,NaN
101,1,2,categorization,0,kitchen,SHINEd_sun_agubuxuukhzyzpdp.tif,88,0.0833333333333333,0.0666666666666667,0.95,700.829490375,701.682055666,9,700.908683666,700.969119166,701.687656041,702.630995041,NaN,NaN
101,2,2,categorization,0,bathroom,SHINEd_sun_asfwthctfqerjvxr.tif,49,0.0833333333333333,0.0666666666666667,0.75,702.636484541,703.289434708,13,702.7149735,702.775888916,703.294537416,704.037874041,NaN,NaN
101,3,2,categorization,0,bathroom,SHINEd_sun_aofnryafpsjimzsb.tif,40,0.0833333333333333,0.0666666666666667,1.68333333333333,704.04314325,705.10574,9,704.121483375,704.182550416,705.117935958,706.794637,NaN,NaN
101,4,2,categorization,0,kitchen,SHINEd_sun_aymvwlarqodbwuoc.tif,108,0.0833333333333333,0.0666666666666667,0.816666666666667,706.810759041,708.242067541,9,706.895011083,706.959817166,708.262504291,709.07250925,NaN,NaN
101,5,2,categorization,0,bathroom,SHINEd_sun_aggnnqpdorgxpvce.tif,21,0.0833333333333333,0.0666666666666667,0.916666666666667,709.077920416,709.72188025,13,709.156271291,709.217259416,709.735923458,710.645929,NaN,NaN
101,6,2,categorization,0,bathroom,SHINEd_sun_aapitsgbtktqubfy.tif,12,0.0833333333333333,0.0666666666666667,1.21666666666667,710.6521675,711.473274541,13,710.730649291,710.7915665,711.477039625,712.687078666,NaN,NaN
101,7,2,categorization,0,kitchen,SHINEd_sun_aamedkxepzlwuxes.tif,65,0.0833333333333333,0.0666666666666667,0.9,712.704229083,713.710069125,9,712.787413833,712.85365375,713.725187083,714.618528583,NaN,NaN
101,8,2,categorization,0,bathroom,SHINEd_sun_anhioqovhscjqqwb.tif,38,0.0833333333333333,0.0666666666666667,1.65,714.62436425,715.233477916,13,714.702743625,714.763684375,715.249250666,716.892617166,NaN,NaN
101,9,2,categorization,0,bathroom,SHINEd_sun_ahijqszoswveeyji.tif,28,0.0833333333333333,0.0666666666666667,1.15,716.911232541,717.988565916,13,716.994675208,717.060751833,718.01567625,719.159063583,NaN,NaN
101,10,2,categorization,0,kitchen,SHINEd_sun_auaiucuqpdausiva.tif,102,0.0833333333333333,0.0666666666666667,1.13333333333333,719.168836083,720.03294775,13,719.25042625,719.318104041,720.057838833,721.184541083,NaN,NaN
101,11,2,categorization,0,kitchen,SHINEd_sun_aunzlwrbjumxhwdj.tif,103,0.0833333333333333,0.0666666666666667,1.76666666666667,721.204222458,722.402622041,9,721.2874595,721.353481708,722.427070666,724.187109458,NaN,NaN
101,12,2,categorization,0,kitchen,SHINEd_sun_acwjdupvyjsugpay.tif,76,0.0833333333333333,0.0666666666666667,1.8,724.204506166,724.952764541,9,724.287247916,724.353934833,724.977211583,726.770582083,NaN,NaN
101,13,2,categorization,0,kitchen,SHINEd_sun_aegoxogugdkwpmpj.tif,80,0.0833333333333333,0.0666666666666667,0.9,726.788107041,727.582033833,9,726.871028041,726.937118166,727.610167041,728.503505,NaN,NaN
101,14,2,categorization,0,kitchen,SHINEd_sun_aeqdocilnnpuvuhx.tif,83,0.0833333333333333,0.0666666666666667,0.716666666666667,728.508953958,729.689940208,9,728.587413083,728.648295958,729.700393708,730.410398291,NaN,NaN
101,15,2,categorization,0,kitchen,SHINEd_sun_afuyedyxivkhecmu.tif,85,0.0833333333333333,0.0666666666666667,1.36666666666667,730.415696833,731.129706166,9,730.494101166,730.555093708,731.14021725,732.500252666,NaN,NaN
101,16,2,categorization,0,kitchen,SHINEd_sun_agorklincwxrdtga.tif,87,0.0833333333333333,0.0666666666666667,0.916666666666667,732.517700583,733.157064916,9,732.600501875,732.666544291,733.172673291,734.082707916,NaN,NaN
101,17,2,categorization,0,kitchen,SHINEd_sun_aenotlpyftoioydp.tif,82,0.0833333333333333,0.0666666666666667,0.716666666666667,734.098472666,734.88141975,9,734.181353625,734.24747975,734.899959375,735.609964,NaN,NaN
101,18,2,categorization,0,bathroom,SHINEd_sun_axldvoqbuvuggfmq.tif,57,0.0833333333333333,0.0666666666666667,0.766666666666667,735.615463541,736.281261791,9,735.693803166,735.754874791,736.289936875,737.049941,NaN,NaN
101,19,2,categorization,0,kitchen,SHINEd_sun_azmutvzbxypaceni.tif,110,0.0833333333333333,0.0666666666666667,1.06666666666667,737.055574791,737.761697583,9,737.133970291,737.194937125,737.780359791,738.840414291,NaN,NaN
101,20,2,categorization,0,kitchen,SHINEd_labelme_brsyyvweiuaazfr.tif,61,0.0833333333333333,0.0666666666666667,0.8,738.849707666,739.787788,9,738.930922791,738.998182416,739.804305083,740.597693791,NaN,NaN
101,21,2,categorization,0,bathroom,SHINEd_sun_abjtwfukuwddzted.tif,15,0.0833333333333333,0.0666666666666667,0.866666666666667,740.613127458,741.233465458,13,740.696105916,740.762167416,741.247777416,742.107782125,NaN,NaN
101,22,2,categorization,0,bathroom,SHINEd_sun_akiytfaagpdsphgz.tif,31,0.0833333333333333,0.0666666666666667,1.48333333333333,742.113224791,742.729352125,13,742.191656583,742.252995666,742.738190708,744.214895416,NaN,NaN
101,23,2,categorization,0,kitchen,SHINEd_sun_ahpczsiumwwocjkv.tif,92,0.0833333333333333,0.0666666666666667,1.1,744.231667208,745.007172291,9,744.314715583,744.381205125,745.019990333,746.113360625,NaN,NaN
101,24,2,categorization,0,kitchen,SHINEd_sun_ahspylgoovwmwvgk.tif,93,0.0833333333333333,0.0666666666666667,0.783333333333333,746.121937125,746.914161791,9,746.202980375,746.269908416,746.943036708,747.719756333,NaN,NaN
101,25,2,categorization,0,bathroom,SHINEd_sun_axyrejkiiaqiurjk.tif,59,0.0833333333333333,0.0666666666666667,0.866666666666667,747.737129791,748.457578166,9,747.820406666,747.886292083,748.471710125,749.331714375,NaN,NaN
101,26,2,categorization,0,bathroom,SHINEd_sun_ausgutylgojavyoq.tif,53,0.0833333333333333,0.0666666666666667,1.83333333333333,749.337050083,750.337689375,9,749.415733458,749.47643325,750.344998958,752.171718291,NaN,NaN
101,27,2,categorization,0,kitchen,SHINEd_sun_aypmqwcualkenuoe.tif,109,0.0833333333333333,0.0666666666666667,0.7,752.188754791,753.577646625,9,752.2716625,752.338382333,753.591029125,754.284367125,NaN,NaN
101,28,2,categorization,0,bathroom,SHINEd_sun_aclfzgynxzxlbepz.tif,19,0.0833333333333333,0.0666666666666667,1.33333333333333,754.289558833,754.857721208,13,754.367978708,754.428849583,754.864200208,756.190912541,NaN,NaN
101,29,2,categorization,0,bathroom,SHINEd_sun_ahqjwnzgolcaoidx.tif,29,0.0833333333333333,0.0666666666666667,1.33333333333333,756.209132791,756.795037416,13,756.29224225,756.3581895,756.814658875,758.141371083,NaN,NaN
101,30,2,categorization,0,bathroom,SHINEd_sun_anryaplzeujmzfkd.tif,39,0.0833333333333333,0.0666666666666667,1.38333333333333,758.158845708,758.988917208,13,758.2423585,758.307067125,759.013990083,760.39069725,NaN,NaN
101,31,2,categorization,0,kitchen,SHINEd_sun_agzzivivdpnawacl.tif,89,0.0833333333333333,0.0666666666666667,1.25,760.407991291,761.269626625,13,760.49146875,760.557923375,761.297620625,762.540995041,NaN,NaN
101,32,2,categorization,0,kitchen,SHINEd_sun_ahljzhgcdpomplvg.tif,91,0.0833333333333333,0.0666666666666667,1.55,762.558058166,763.282967583,9,762.641682333,762.707903375,763.297105666,764.840470625,NaN,NaN
101,33,2,categorization,0,bathroom,SHINEd_sun_agrwbmhcpmfuwmsg.tif,24,0.0833333333333333,0.0666666666666667,1.61666666666667,764.8571425,766.381754875,9,764.940663666,765.006596791,766.39733325,768.007383875,NaN,NaN
101,34,2,categorization,0,bathroom,SHINEd_sun_apeeialkgkuxddgh.tif,42,0.0833333333333333,0.0666666666666667,1.33333333333333,768.019479708,768.868393833,13,768.102605166,768.168578875,768.891631708,770.218348125,NaN,NaN
101,35,2,categorization,0,kitchen,SHINEd_sun_aehawpgmrlhlvcow.tif,81,0.0833333333333333,0.0666666666666667,0.833333333333333,770.236842458,770.916243125,9,770.320012333,770.386332,770.943018166,771.769742458,NaN,NaN
101,36,2,categorization,0,bathroom,SHINEd_sun_aqrpegblszgcoujh.tif,48,0.0833333333333333,0.0666666666666667,1.45,771.786885041,772.393166958,13,771.870127,771.934322666,772.402806458,773.846186125,NaN,NaN
101,37,2,categorization,0,bathroom,SHINEd_sun_acduarbnmmoglmiv.tif,16,0.0833333333333333,0.0666666666666667,0.933333333333333,773.862362583,774.601439833,13,773.945575583,774.012124416,774.618123041,775.544796416,NaN,NaN
101,38,2,categorization,0,kitchen,SHINEd_sun_awcpdzzznmweyyhv.tif,106,0.0833333333333333,0.0666666666666667,1.65,775.552346625,776.14522975,9,775.630919833,775.691718416,776.16017925,777.803545416,NaN,NaN
101,39,2,categorization,0,bathroom,SHINEd_sun_apynckhmoftszqoq.tif,47,0.0833333333333333,0.0666666666666667,1.23333333333333,777.820559875,778.313945083,13,777.903734208,777.970067333,778.343170291,779.569887125,NaN,NaN
101,40,2,categorization,0,kitchen,SHINEd_sun_abpwyqmlzafvklqo.tif,72,0.0833333333333333,0.0666666666666667,0.766666666666667,779.5867135,780.063684625,9,779.669762458,779.735770583,780.073328708,780.833372125,NaN,NaN
101,41,2,categorization,0,bathroom,SHINEd_sun_auzqhkafidnkrwmo.tif,54,0.0833333333333333,0.0666666666666667,1.78333333333333,780.849112833,781.601024666,9,780.931911333,780.9977405,781.61665125,783.39337075,NaN,NaN
101,42,2,categorization,0,bathroom,SHINEd_sun_acgyywnybuveqsro.tif,18,0.0833333333333333,0.0666666666666667,1.11666666666667,783.410314041,783.962029583,13,783.493528375,783.560182375,783.981203916,785.091239041,NaN,NaN
101,43,2,categorization,0,kitchen,SHINEd_sun_amjjdeyrggfqgmom.tif,100,0.0833333333333333,0.0666666666666667,1.85,785.101562041,785.851936791,9,785.183488916,785.250706791,785.873931166,787.71730675,NaN,NaN
101,44,2,categorization,0,bathroom,SHINEd_sun_aoybiabnpadelefl.tif,41,0.0833333333333333,0.0666666666666667,0.733333333333333,787.734038083,788.881518541,13,787.817745416,787.883404541,788.905374083,789.632047375,NaN,NaN
101,45,2,categorization,0,bathroom,SHINEd_sun_aspsyogrekjtfozg.tif,50,0.0833333333333333,0.0666666666666667,0.783333333333333,789.637388125,790.384737791,13,789.715871,789.776667916,790.395126333,791.17179675,NaN,NaN
101,46,2,categorization,0,kitchen,SHINEd_sun_abrcnpqqhmjwekyf.tif,73,0.0833333333333333,0.0666666666666667,1.5,791.1773315,791.720817458,9,791.255768666,791.316706208,791.735343083,793.228715458,NaN,NaN
101,47,2,categorization,0,bathroom,SHINEd_sun_apkxzenqapsujocq.tif,45,0.0833333333333333,0.0666666666666667,0.733333333333333,793.245377208,793.910303,13,793.328314333,793.394979875,793.934769916,794.661479166,NaN,NaN
101,48,2,categorization,0,bathroom,SHINEd_sun_agyqfjcfkdcydepw.tif,25,0.0833333333333333,0.0666666666666667,1.1,794.677842333,795.617536333,13,794.760820958,794.827145875,795.629519708,796.722906875,NaN,NaN
101,49,2,categorization,0,kitchen,SHINEd_sun_aixorpehvfykdynp.tif,95,0.0833333333333333,0.0666666666666667,1.6,796.731402583,797.146026458,9,796.81284625,796.880840375,797.169339458,798.762688166,NaN,NaN
101,50,2,categorization,0,bathroom,SHINEd_sun_ambriybtogmepttm.tif,36,0.0833333333333333,0.0666666666666667,1.06666666666667,798.7687155,799.289424625,13,798.847165333,798.908154875,799.293301791,800.353340958,NaN,NaN
101,1,3,categorization,0,bathroom,SHINEd_sun_aqrpegblszgcoujh.tif,48,0.0833333333333333,0.0666666666666667,0.85,814.67799875,816.113624291,13,814.757060125,814.817388416,816.119539958,816.962879833,NaN,NaN
101,2,3,categorization,0,kitchen,SHINEd_sun_aixorpehvfykdynp.tif,95,0.0833333333333333,0.0666666666666667,1.65,816.968076333,817.641123041,9,817.046389,817.107408666,817.659531458,819.302906166,NaN,NaN
101,3,3,categorization,0,bathroom,SHINEd_sun_agguqiubmwhqqunb.tif,22,0.0833333333333333,0.0666666666666667,0.783333333333333,819.3196395,820.358923208,9,819.402862916,819.4689585,820.374665625,821.151336708,NaN,NaN
101,4,3,categorization,0,bathroom,SHINEd_sun_aofnryafpsjimzsb.tif,40,0.0833333333333333,0.0666666666666667,0.933333333333333,821.156783458,821.897240291,13,821.235221125,821.2962245,821.914695916,822.841367583,NaN,NaN
101,5,3,categorization,0,bathroom,SHINEd_sun_ahijqszoswveeyji.tif,28,0.0833333333333333,0.0666666666666667,0.866666666666667,822.846824416,824.00144225,13,822.925393541,822.986114416,824.004268166,824.864273416,NaN,NaN
101,6,3,categorization,0,kitchen,SHINEd_sun_axyyrmzcupyhlivc.tif,107,0.0833333333333333,0.0666666666666667,1.11666666666667,824.869493083,825.520926416,9,824.947803666,825.009265083,825.527929625,826.637971458,NaN,NaN
101,7,3,categorization,0,bathroom,SHINEd_sun_axyrejkiiaqiurjk.tif,59,0.0833333333333333,0.0666666666666667,0.966666666666667,826.647238,827.328691708,9,826.728583,826.796480458,827.353076583,828.313130708,NaN,NaN
101,8,3,categorization,0,kitchen,SHINEd_sun_acgtpgfybqjmzeyw.tif,75,0.0833333333333333,0.0666666666666667,1.78333333333333,828.328809791,828.960803625,9,828.412076083,828.477823458,828.980363625,830.757083125,NaN,NaN
101,9,3,categorization,0,kitchen,SHINEd_sun_aexklacwqwezaorf.tif,84,0.0833333333333333,0.0666666666666667,1.55,830.774431791,831.469359541,9,830.857458416,830.923665875,831.496632958,833.040006625,NaN,NaN
101,10,3,categorization,0,kitchen,SHINEd_sun_aqeaevwwwjoqhzvl.tif,101,0.0833333333333333,0.0666666666666667,1.41666666666667,833.053997958,834.269517291,13,833.137272375,833.203146375,834.29315575,835.703189,NaN,NaN
101,11,3,categorization,0,bathroom,SHINEd_sun_apkxzenqapsujocq.tif,45,0.0833333333333333,0.0666666666666667,0.8,835.720710875,836.459070291,13,835.804062166,835.870096458,836.476125333,837.26949925,NaN,NaN
101,12,3,categorization,0,kitchen,SHINEd_sun_abdenxonkemggwsq.tif,69,0.0833333333333333,0.0666666666666667,1.28333333333333,837.283113666,838.112602916,9,837.362371,837.422512458,838.124486166,839.40119175,NaN,NaN
101,13,3,categorization,0,bathroom,SHINEd_sun_agrwbmhcpmfuwmsg.tif,24,0.0833333333333333,0.0666666666666667,1.66666666666667,839.414743875,840.108342333,13,839.498978208,839.563855916,840.136950041,841.797005541,NaN,NaN
101,14,3,categorization,0,bathroom,SHINEd_sun_apeeialkgkuxddgh.tif,42,0.0833333333333333,0.0666666666666667,1.81666666666667,841.813092041,842.585687375,13,841.89624125,841.962386625,842.60142925,844.411484791,NaN,NaN
101,15,3,categorization,0,kitchen,SHINEd_sun_acxkpeoqbwcxfvip.tif,77,0.0833333333333333,0.0666666666666667,1.35,844.428412375,845.07097225,9,844.511610208,844.577965041,845.100904708,846.444283083,NaN,NaN
101,16,3,categorization,0,bathroom,SHINEd_sun_aghyqhbptboemmoq.tif,23,0.0833333333333333,0.0666666666666667,0.916666666666667,846.461153958,847.508219083,13,846.544339125,846.610263541,847.53350375,848.443509125,NaN,NaN
101,17,3,categorization,0,kitchen,SHINEd_sun_azmutvzbxypaceni.tif,110,0.0833333333333333,0.0666666666666667,0.916666666666667,848.448832291,849.977046666,13,848.527252625,848.588048416,849.990263583,850.900268833,NaN,NaN
101,18,3,categorization,0,kitchen,SHINEd_sun_aehawpgmrlhlvcow.tif,81,0.0833333333333333,0.0666666666666667,1.31666666666667,850.905611166,851.545015875,9,850.983982416,851.044898625,851.563339708,852.873372583,NaN,NaN
101,19,3,categorization,0,bathroom,SHINEd_sun_acduarbnmmoglmiv.tif,16,0.0833333333333333,0.0666666666666667,1.45,852.887677666,853.785794916,13,852.972486791,853.036939291,853.809668416,855.253037208,NaN,NaN
101,20,3,categorization,0,bathroom,SHINEd_sun_avhrdrntsqrjzccq.tif,55,0.0833333333333333,0.0666666666666667,0.95,855.270728375,855.828352666,9,855.353833666,855.41993475,855.841958583,856.785339875,NaN,NaN
101,21,3,categorization,0,kitchen,SHINEd_sun_akchetnepxlcxhsu.tif,98,0.0833333333333333,0.0666666666666667,1.38333333333333,856.796436708,857.4894525,13,856.875573875,856.935794958,857.504297375,858.881010166,NaN,NaN
101,22,3,categorization,0,kitchen,SHINEd_sun_akcjzhbbjlbogpdi.tif,99,0.0833333333333333,0.0666666666666667,1.16666666666667,858.895907166,859.603296416,9,858.979108166,859.044799708,859.617177041,860.777219416,NaN,NaN
101,23,3,categorization,0,kitchen,SHINEd_sun_agubuxuukhzyzpdp.tif,88,0.0833333333333333,0.0666666666666667,1.61666666666667,860.79397475,861.448124625,9,860.877133791,860.943107458,861.465586625,863.075623958,NaN,NaN
101,24,3,categorization,0,kitchen,SHINEd_sun_aeqdocilnnpuvuhx.tif,83,0.0833333333333333,0.0666666666666667,1.38333333333333,863.092195958,863.800197875,9,863.175527291,863.241774791,863.814085458,865.190805583,NaN,NaN
101,25,3,categorization,0,kitchen,SHINEd_sun_aarfiyshqohlwkmo.tif,67,0.0833333333333333,0.0666666666666667,1.78333333333333,865.207313708,865.91777425,9,865.290353083,865.35618775,865.9455485,867.722272791,NaN,NaN
101,26,3,categorization,0,bathroom,SHINEd_sun_aggnnqpdorgxpvce.tif,21,0.0833333333333333,0.0666666666666667,0.783333333333333,867.73952025,869.013096416,13,867.822497583,867.889292166,869.030865291,869.807536583,NaN,NaN
101,27,3,categorization,0,kitchen,SHINEd_sun_admlmbcdswaszruo.tif,79,0.0833333333333333,0.0666666666666667,1.65,869.812866666,870.513138833,9,869.891246,869.952195208,870.520842291,872.164209,NaN,NaN
101,28,3,categorization,0,kitchen,SHINEd_sun_ahpczsiumwwocjkv.tif,92,0.0833333333333333,0.0666666666666667,1.86666666666667,872.182214583,872.876147125,9,872.265193125,872.331251208,872.903871666,874.763904166,NaN,NaN
101,29,3,categorization,0,kitchen,SHINEd_sun_amjjdeyrggfqgmom.tif,100,0.0833333333333333,0.0666666666666667,1.23333333333333,874.781758583,875.464976208,9,874.864606875,874.93094675,875.487248875,876.713972083,NaN,NaN
101,30,3,categorization,0,bathroom,SHINEd_sun_ausgutylgojavyoq.tif,53,0.0833333333333333,0.0666666666666667,0.7,876.730913416,877.32821325,13,876.813714,876.880110291,877.35351325,878.046897208,NaN,NaN
101,31,3,categorization,0,bathroom,SHINEd_sun_aavhrsfjbserjtht.tif,13,0.0833333333333333,0.0666666666666667,0.716666666666667,878.062149416,878.640813125,13,878.145338541,878.211384333,878.647188166,879.357193833,NaN,NaN
101,32,3,categorization,0,kitchen,SHINEd_sun_ahdycvpopffkzzsu.tif,90,0.0833333333333333,0.0666666666666667,1.05,879.362655166,880.088992,9,879.440982791,879.501941791,880.103650333,881.14702075,NaN,NaN
101,33,3,categorization,0,bathroom,SHINEd_sun_acegryoqftbzowsg.tif,17,0.0833333333333333,0.0666666666666667,1.1,881.157022,882.153763041,9,881.238380666,881.304882291,882.178134333,883.271507875,NaN,NaN
101,34,3,categorization,0,kitchen,SHINEd_sun_aadbddgrdsjugojn.tif,64,0.0833333333333333,0.0666666666666667,1.13333333333333,883.281158416,884.125779583,9,883.364097541,883.430272625,884.15353775,885.280261333,NaN,NaN
101,35,3,categorization,0,bathroom,SHINEd_sun_amzlamotzwfkwjco.tif,37,0.0833333333333333,0.0666666666666667,1.38333333333333,885.293529125,886.033367958,9,885.372482,885.432858833,886.05146325,887.428170458,NaN,NaN
101,36,3,categorization,0,kitchen,SHINEd_sun_ajkqhtgcbgpcwrwn.tif,97,0.0833333333333333,0.0666666666666667,1.5,887.445128083,888.36147225,9,887.5283955,887.594349125,888.384230375,889.877619708,NaN,NaN
101,37,3,categorization,0,kitchen,SHINEd_sun_ajcbwwvdlsvjyzje.tif,96,0.0833333333333333,0.0666666666666667,1.61666666666667,889.894954166,891.656797708,9,889.976690666,890.044325166,891.663536083,893.273586208,NaN,NaN
101,38,3,categorization,0,bathroom,SHINEd_sun_aoybiabnpadelefl.tif,41,0.0833333333333333,0.0666666666666667,0.983333333333333,893.286209583,894.037558333,13,893.369443291,893.435467583,894.058691291,895.035366916,NaN,NaN
101,39,3,categorization,0,kitchen,SHINEd_sun_aapllqyqlykszopd.tif,66,0.0833333333333333,0.0666666666666667,1.3,895.041100416,895.712432791,9,895.11947325,895.180470875,895.715819958,897.009199041,NaN,NaN
101,40,3,categorization,0,bathroom,SHINEd_sun_awnqiikzaispgmwo.tif,56,0.0833333333333333,0.0666666666666667,1.03333333333333,897.027005041,897.677171958,13,897.110306875,897.176393958,897.698308083,898.725024083,NaN,NaN
101,41,3,categorization,0,kitchen,SHINEd_sun_abdxkyyxwfskuaqb.tif,70,0.0833333333333333,0.0666666666666667,1.45,898.741161125,899.440515375,9,898.82026325,898.88068725,899.44917075,900.892558708,NaN,NaN
101,42,3,categorization,0,kitchen,SHINEd_sun_ahljzhgcdpomplvg.tif,91,0.0833333333333333,0.0666666666666667,1.23333333333333,900.910502458,901.490058875,9,900.994499708,901.059582916,901.516247958,902.742964041,NaN,NaN
101,43,3,categorization,0,kitchen,SHINEd_labelme_rykdqxenmhulbdn.tif,63,0.0833333333333333,0.0666666666666667,1.26666666666667,902.760228291,903.554919083,9,902.843822083,902.909588125,903.583049708,904.843094666,NaN,NaN
101,44,3,categorization,0,kitchen,SHINEd_sun_aggjlwcdjsjcaemh.tif,86,0.0833333333333333,0.0666666666666667,1.03333333333333,904.860113416,905.62492475,9,904.94311775,905.009612416,905.649797583,906.676507875,NaN,NaN
101,45,3,categorization,0,bathroom,SHINEd_sun_acgyywnybuveqsro.tif,18,0.0833333333333333,0.0666666666666667,1.31666666666667,906.692728791,907.400418041,13,906.776271916,906.835458583,907.403942125,908.713997166,NaN,NaN
101,46,3,categorization,0,kitchen,SHINEd_sun_agorklincwxrdtga.tif,87,0.0833333333333333,0.0666666666666667,1.7,908.730076541,909.379603333,9,908.8131785,908.879239958,909.402284958,911.095665041,NaN,NaN
101,47,3,categorization,0,bathroom,SHINEd_sun_axldvoqbuvuggfmq.tif,57,0.0833333333333333,0.0666666666666667,1.35,911.112005208,911.794737791,13,911.1950765,911.260906333,911.817219916,913.160596583,NaN,NaN
101,48,3,categorization,0,kitchen,SHINEd_sun_aunzlwrbjumxhwdj.tif,103,0.0833333333333333,0.0666666666666667,0.8,913.174928958,913.930746625,9,913.257844541,913.323941291,913.946048666,914.739428625,NaN,NaN
101,49,3,categorization,0,kitchen,SHINEd_sun_aegoxogugdkwpmpj.tif,80,0.0833333333333333,0.0666666666666667,0.766666666666667,914.751308541,915.496323041,9,914.834467833,914.892397208,915.510984958,916.270988833,NaN,NaN
101,50,3,categorization,0,bathroom,SHINEd_sun_apkruvsevgegsdwp.tif,44,0.0833333333333333,0.0666666666666667,1.38333333333333,916.276116875,916.896335916,13,916.35455825,916.415558958,916.90077875,918.277485958,NaN,NaN
101,1,4,categorization,0,kitchen,SHINEd_sun_auticobqsbwgoppi.tif,104,0.0833333333333333,0.0666666666666667,1,930.579957083,931.656451333,13,930.659170958,930.719266958,931.671829666,932.665170083,NaN,NaN
101,2,4,categorization,0,bathroom,SHINEd_sun_aleqenyvunhactkl.tif,32,0.0833333333333333,0.0666666666666667,0.966666666666667,932.670733958,933.416752333,13,932.749053041,932.810202208,933.429110833,934.389114583,NaN,NaN
101,3,4,categorization,0,bathroom,SHINEd_sun_aapitsgbtktqubfy.tif,12,0.0833333333333333,0.0666666666666667,1.75,934.3944815,935.2010925,13,934.472761041,934.533921916,935.219378291,936.962748791,NaN,NaN
101,4,4,categorization,0,bathroom,SHINEd_sun_auzqhkafidnkrwmo.tif,54,0.0833333333333333,0.0666666666666667,1.68333333333333,936.978914791,937.603044208,13,937.061847333,937.1282685,937.61591225,939.292620375,NaN,NaN
101,5,4,categorization,0,kitchen,SHINEd_sun_ahspylgoovwmwvgk.tif,93,0.0833333333333333,0.0666666666666667,1.58333333333333,939.309687791,939.966315291,9,939.392946708,939.458995958,939.980269333,941.556967083,NaN,NaN
101,6,4,categorization,0,kitchen,SHINEd_sun_abftihopvusyfakt.tif,71,0.0833333333333333,0.0666666666666667,1,941.568751916,942.218862541,9,941.651582541,941.71821525,942.241206208,943.234546791,NaN,NaN
101,7,4,categorization,0,kitchen,SHINEd_sun_aenotlpyftoioydp.tif,82,0.0833333333333333,0.0666666666666667,1.33333333333333,943.24028875,943.960758541,9,943.31860825,943.379680583,943.965299958,945.292012708,NaN,NaN
101,8,4,categorization,0,bathroom,SHINEd_sun_aspsyogrekjtfozg.tif,50,0.0833333333333333,0.0666666666666667,1.26666666666667,945.303671,945.898414666,13,945.387005375,945.452553875,945.9255795,947.185619708,NaN,NaN
101,9,4,categorization,0,kitchen,SHINEd_sun_afuyedyxivkhecmu.tif,85,0.0833333333333333,0.0666666666666667,0.883333333333333,947.196718958,948.19981975,9,947.279870333,947.346022583,948.21878525,949.095483208,NaN,NaN
101,10,4,categorization,0,bathroom,SHINEd_sun_ambriybtogmepttm.tif,36,0.0833333333333333,0.0666666666666667,1.26666666666667,949.11074675,950.032731291,9,949.190088833,949.250114166,950.051723375,951.311778916,NaN,NaN
101,11,4,categorization,0,bathroom,SHINEd_sun_ahaulkltgpkeeemi.tif,26,0.0833333333333333,0.0666666666666667,2,951.327519416,951.94456,13,951.411542416,951.476592416,951.967006125,953.960396333,NaN,NaN
101,12,4,categorization,0,bathroom,SHINEd_sun_ajlawzvmubibwbpy.tif,30,0.0833333333333333,0.0666666666666667,0.733333333333333,953.975723083,955.035268916,9,954.059076458,954.124794791,955.064737583,955.791410541,NaN,NaN
101,13,4,categorization,0,bathroom,SHINEd_sun_anryaplzeujmzfkd.tif,39,0.0833333333333333,0.0666666666666667,0.883333333333333,955.797073416,956.463960375,13,955.875444083,955.936377541,956.471711458,957.348383791,NaN,NaN
101,14,4,categorization,0,kitchen,SHINEd_sun_avszsnwsbuqfgzbn.tif,105,0.0833333333333333,0.0666666666666667,0.983333333333333,957.353862333,958.096374208,9,957.432283083,957.493183583,958.111666291,959.088337041,NaN,NaN
101,15,4,categorization,0,kitchen,SHINEd_sun_ahywdevtimnqcsln.tif,94,0.0833333333333333,0.0666666666666667,1.56666666666667,959.09382925,960.520918375,9,959.172184083,959.233090458,960.535332541,962.095379916,NaN,NaN
101,16,4,categorization,0,kitchen,SHINEd_sun_adgqasybjyktddhj.tif,78,0.0833333333333333,0.0666666666666667,1.08333333333333,962.110966166,975.160144375,13,962.194976,962.26093875,975.180297708,976.257016583,NaN,NaN
101,17,4,categorization,0,kitchen,SHINEd_sun_acfmftudsenhrfhy.tif,74,0.0833333333333333,0.0666666666666667,0.75,976.268467833,976.405519958,9,976.350008708,976.418934458,976.441724916,977.185115041,NaN,NaN
101,18,4,categorization,0,bathroom,SHINEd_sun_alotolagknyrgtsk.tif,35,0.0833333333333333,0.0666666666666667,0.966666666666667,977.200163583,986.232061291,13,977.283239,977.349691,986.252904791,987.212910583,NaN,NaN
101,19,4,categorization,0,bathroom,SHINEd_sun_agyqfjcfkdcydepw.tif,25,0.0833333333333333,0.0666666666666667,1.63333333333333,987.218211166,987.936440958,9,987.296567875,987.357718375,987.943089458,989.569805375,NaN,NaN
101,20,4,categorization,0,bathroom,SHINEd_sun_atstyziqcmkahyxk.tif,51,0.0833333333333333,0.0666666666666667,1.46666666666667,989.58726925,990.234036083,13,989.670398166,989.7365405,990.259667,991.719721,NaN,NaN
101,21,4,categorization,0,kitchen,SHINEd_labelme_brsyyvweiuaazfr.tif,61,0.0833333333333333,0.0666666666666667,0.933333333333333,991.737408208,992.830228166,9,991.820498875,991.886610916,992.859901625,993.786576083,NaN,NaN
101,22,4,categorization,0,kitchen,SHINEd_sun_aaxxjlsuzvqlgylf.tif,68,0.0833333333333333,0.0666666666666667,1.45,993.792120625,994.768505708,9,993.870554125,993.931472583,994.783781833,996.227146208,NaN,NaN
101,23,4,categorization,0,bathroom,SHINEd_sun_apynckhmoftszqoq.tif,47,0.0833333333333333,0.0666666666666667,0.966666666666667,996.243124416,996.939621,13,996.327377166,996.392682666,996.966275,997.926289041,NaN,NaN
101,24,4,categorization,0,bathroom,SHINEd_sun_abapwbhyhkfixyex.tif,14,0.0833333333333333,0.0666666666666667,0.816666666666667,997.93199125,998.984507083,9,998.010398625,998.071296208,998.990328333,999.800333333,NaN,NaN
101,25,4,categorization,0,bathroom,SHINEd_sun_asfwthctfqerjvxr.tif,49,0.0833333333333333,0.0666666666666667,1.96666666666667,999.805544458,1000.535696291,13,999.883898708,999.944822916,1000.54683925,1002.506875166,NaN,NaN
101,26,4,categorization,0,bathroom,SHINEd_sun_abjtwfukuwddzted.tif,15,0.0833333333333333,0.0666666666666667,0.916666666666667,1002.523850666,1003.213705208,13,1002.607010291,1002.673565083,1003.229215333,1004.139221333,NaN,NaN
101,27,4,categorization,0,kitchen,SHINEd_sun_abrcnpqqhmjwekyf.tif,73,0.0833333333333333,0.0666666666666667,1.28333333333333,1004.144823375,1004.879874666,9,1004.22319425,1004.284214291,1004.886090416,1006.162804791,NaN,NaN
101,28,4,categorization,0,kitchen,SHINEd_sun_aypmqwcualkenuoe.tif,109,0.0833333333333333,0.0666666666666667,1.8,1006.175215333,1007.1318015,9,1006.258130916,1006.324258041,1007.146131833,1008.939499083,NaN,NaN
101,29,4,categorization,0,bathroom,SHINEd_sun_axxbkopsgyouuebh.tif,58,0.0833333333333333,0.0666666666666667,1.33333333333333,1008.957674083,1009.561013125,13,1009.040965416,1009.107493875,1009.580039625,1010.906750291,NaN,NaN
101,30,4,categorization,0,bathroom,SHINEd_sun_afcoljnjfoxjtgja.tif,20,0.0833333333333333,0.0666666666666667,1.06666666666667,1010.923783,1012.054932375,9,1011.006979791,1011.073387083,1012.079834666,1013.139871208,NaN,NaN
101,31,4,categorization,0,kitchen,SHINEd_labelme_kxvouciolcpqplr.tif,62,0.0833333333333333,0.0666666666666667,1.03333333333333,1013.14824625,1013.99504525,9,1013.229754541,1013.296709541,1014.018533375,1015.045250583,NaN,NaN
101,32,4,categorization,0,bathroom,SHINEd_sun_aclfzgynxzxlbepz.tif,19,0.0833333333333333,0.0666666666666667,0.733333333333333,1015.061502541,1015.632453666,13,1015.144420166,1015.202382458,1015.63740675,1016.364079,NaN,NaN
101,33,4,categorization,0,bathroom,SHINEd_sun_akiytfaagpdsphgz.tif,31,0.0833333333333333,0.0666666666666667,0.766666666666667,1016.369695166,1017.44043775,13,1016.4482125,1016.509023583,1017.444414,1018.204419041,NaN,NaN
101,34,4,categorization,0,bathroom,SHINEd_sun_azqyogdvyhahyram.tif,60,0.0833333333333333,0.0666666666666667,1.1,1018.210043,1018.743946291,13,1018.288479375,1018.349426666,1018.751288541,1019.84465775,NaN,NaN
101,35,4,categorization,0,kitchen,SHINEd_sun_aymvwlarqodbwuoc.tif,108,0.0833333333333333,0.0666666666666667,1.81666666666667,1019.854163208,1020.505402875,9,1019.935130375,1020.000792375,1020.523601333,1022.333642041,NaN,NaN
101,36,4,categorization,0,bathroom,SHINEd_sun_ahqjwnzgolcaoidx.tif,29,0.0833333333333333,0.0666666666666667,0.883333333333333,1022.352413916,1022.9957965,13,1022.43545475,1022.501835041,1023.024756625,1023.901463625,NaN,NaN
101,37,4,categorization,0,bathroom,SHINEd_sun_apjevzvycyhuqghb.tif,43,0.0833333333333333,0.0666666666666667,1.7,1023.914701916,1024.456511291,9,1023.994065208,1024.054510291,1024.472924041,1026.166291083,NaN,NaN
101,38,4,categorization,0,bathroom,SHINEd_labelme_sfxiulhjbhlyiyt.tif,11,0.0833333333333333,0.0666666666666667,1.58333333333333,1026.18029025,1026.731666541,13,1026.263395416,1026.329642125,1026.752455708,1028.329176416,NaN,NaN
101,39,4,categorization,0,kitchen,SHINEd_sun_aamedkxepzlwuxes.tif,65,0.0833333333333333,0.0666666666666667,0.833333333333333,1028.345273125,1028.929616625,9,1028.428608583,1028.493893625,1028.950173791,1029.776880208,NaN,NaN
101,40,4,categorization,0,bathroom,SHINEd_sun_aunuadmjocsddsrl.tif,52,0.0833333333333333,0.0666666666666667,0.95,1029.792355458,1030.832652583,9,1029.873982375,1029.93268575,1030.851283958,1031.794624666,NaN,NaN
101,41,4,categorization,0,kitchen,SHINEd_sun_agzzivivdpnawacl.tif,89,0.0833333333333333,0.0666666666666667,1.06666666666667,1031.800111416,1032.671785375,13,1031.878587541,1031.939488958,1032.6917695,1033.75181625,NaN,NaN
101,42,4,categorization,0,kitchen,SHINEd_sun_abpwyqmlzafvklqo.tif,72,0.0833333333333333,0.0666666666666667,1.68333333333333,1033.761841583,1034.912099,9,1033.84333775,1033.910207083,1034.934069708,1036.610782666,NaN,NaN
101,43,4,categorization,0,kitchen,SHINEd_sun_auaiucuqpdausiva.tif,102,0.0833333333333333,0.0666666666666667,1.31666666666667,1036.627435125,1037.715080541,9,1036.711934666,1036.77685875,1037.732827958,1039.042862333,NaN,NaN
101,44,4,categorization,0,kitchen,SHINEd_sun_awcpdzzznmweyyhv.tif,106,0.0833333333333333,0.0666666666666667,1.61666666666667,1039.055216666,1039.922083625,9,1039.139860958,1039.204300833,1039.9440975,1041.554150375,NaN,NaN
101,45,4,categorization,0,bathroom,SHINEd_sun_alkosphxlxwjwgjd.tif,34,0.0833333333333333,0.0666666666666667,1.15,1041.5712825,1042.218059125,13,1041.654473125,1041.721362541,1042.244425708,1043.387808458,NaN,NaN
101,46,4,categorization,0,bathroom,SHINEd_sun_ahcvzmoyaycdoftf.tif,27,0.0833333333333333,0.0666666666666667,1.25,1043.397452208,1043.90939725,13,1043.480545666,1043.546465958,1043.936051291,1045.17943525,NaN,NaN
101,47,4,categorization,0,kitchen,SHINEd_sun_acwjdupvyjsugpay.tif,76,0.0833333333333333,0.0666666666666667,1.1,1045.197129375,1045.951740166,9,1045.2798855,1045.346309375,1045.965482375,1047.058847583,NaN,NaN
101,48,4,categorization,0,bathroom,SHINEd_sun_aljolscmmzydegqp.tif,33,0.0833333333333333,0.0666666666666667,0.9,1047.067368333,1047.730441583,13,1047.148593041,1047.216201458,1047.755803166,1048.649185666,NaN,NaN
101,49,4,categorization,0,bathroom,SHINEd_sun_apmqjbnwghzuhhzh.tif,46,0.0833333333333333,0.0666666666666667,1.3,1048.664651375,1049.448231666,13,1048.74770225,1048.813711458,1049.466208791,1050.759590083,NaN,NaN
101,50,4,categorization,0,bathroom,SHINEd_sun_anhioqovhscjqqwb.tif,38,0.0833333333333333,0.0666666666666667,1.25,1050.77717525,1051.321958958,13,1050.860062333,1050.926341166,1051.349430625,1052.592814125,NaN,NaN
101,1,5,categorization,0,kitchen,SHINEd_sun_aeqdocilnnpuvuhx.tif,83,0.0833333333333333,0.0666666666666667,1.7,1067.686134791,1068.583532833,9,1067.764912166,1067.825509,1068.594098083,1070.287589291,NaN,NaN
101,2,5,categorization,0,bathroom,SHINEd_sun_agyqfjcfkdcydepw.tif,25,0.0833333333333333,0.0666666666666667,1.81666666666667,1070.304631916,1071.101639,9,1070.387863958,1070.453886541,1071.127188041,1072.937233166,NaN,NaN
101,3,5,categorization,0,bathroom,SHINEd_sun_azqyogdvyhahyram.tif,60,0.0833333333333333,0.0666666666666667,1.23333333333333,1072.954535416,1073.580639375,13,1073.037689708,1073.105454208,1073.594516041,1074.821223375,NaN,NaN
101,4,5,categorization,0,bathroom,SHINEd_sun_aofnryafpsjimzsb.tif,40,0.0833333333333333,0.0666666666666667,1.4,1074.837418333,1075.48218075,13,1074.921415458,1074.987007041,1075.510429166,1076.903799083,NaN,NaN
101,5,5,categorization,0,kitchen,SHINEd_sun_ahspylgoovwmwvgk.tif,93,0.0833333333333333,0.0666666666666667,1.03333333333333,1076.920801375,1078.345910875,13,1077.004676416,1077.070746875,1078.361822666,1079.38854,NaN,NaN
101,6,5,categorization,0,kitchen,SHINEd_sun_auticobqsbwgoppi.tif,104,0.0833333333333333,0.0666666666666667,1.38333333333333,1079.40112875,1080.043213375,9,1079.482914708,1079.548930958,1080.072467,1081.4491685,NaN,NaN
101,7,5,categorization,0,kitchen,SHINEd_sun_abrcnpqqhmjwekyf.tif,73,0.0833333333333333,0.0666666666666667,2,1081.461456583,1082.039707791,9,1081.540762625,1081.600820083,1082.05281125,1084.046188375,NaN,NaN
101,8,5,categorization,0,bathroom,SHINEd_sun_axxbkopsgyouuebh.tif,58,0.0833333333333333,0.0666666666666667,1.85,1084.063605,1084.786513791,13,1084.146527916,1084.21272975,1084.801671958,1086.645045333,NaN,NaN
101,9,5,categorization,0,kitchen,SHINEd_sun_acxkpeoqbwcxfvip.tif,77,0.0833333333333333,0.0666666666666667,0.816666666666667,1086.662199125,1087.509019458,9,1086.745488083,1086.811212541,1087.534557833,1088.344563625,NaN,NaN
101,10,5,categorization,0,kitchen,SHINEd_sun_aymvwlarqodbwuoc.tif,108,0.0833333333333333,0.0666666666666667,1.85,1088.350247458,1089.207720833,9,1088.428626125,1088.489652916,1089.224907333,1091.068289208,NaN,NaN
101,11,5,categorization,0,kitchen,SHINEd_sun_admlmbcdswaszruo.tif,79,0.0833333333333333,0.0666666666666667,0.733333333333333,1091.085272666,1091.781834625,9,1091.168618166,1091.234611333,1091.807909416,1092.534579875,NaN,NaN
101,12,5,categorization,0,bathroom,SHINEd_sun_aoybiabnpadelefl.tif,41,0.0833333333333333,0.0666666666666667,0.716666666666667,1092.540138833,1093.247409583,9,1092.618609958,1092.679536083,1093.264987541,1093.974993208,NaN,NaN
101,13,5,categorization,0,bathroom,SHINEd_sun_afcoljnjfoxjtgja.tif,20,0.0833333333333333,0.0666666666666667,0.833333333333333,1093.980437875,1094.671893708,9,1094.058879916,1094.119972666,1094.688611666,1095.515284833,NaN,NaN
101,14,5,categorization,0,bathroom,SHINEd_sun_ahqjwnzgolcaoidx.tif,29,0.0833333333333333,0.0666666666666667,0.95,1095.520765083,1096.224170708,13,1095.599326333,1095.660078208,1096.228798291,1097.17213775,NaN,NaN
101,15,5,categorization,0,kitchen,SHINEd_sun_akchetnepxlcxhsu.tif,98,0.0833333333333333,0.0666666666666667,1.96666666666667,1097.177546083,1097.82343175,13,1097.255859458,1097.316905541,1097.835339125,1099.79539375,NaN,NaN
101,16,5,categorization,0,kitchen,SHINEd_sun_aggjlwcdjsjcaemh.tif,86,0.0833333333333333,0.0666666666666667,1.86666666666667,1099.813678791,1100.553966083,9,1099.897369,1099.962852083,1100.568168916,1102.428212875,NaN,NaN
101,17,5,categorization,0,bathroom,SHINEd_sun_amzlamotzwfkwjco.tif,37,0.0833333333333333,0.0666666666666667,1.51666666666667,1102.443983458,1103.180757125,9,1102.526916,1102.593386208,1103.199565375,1104.7096075,NaN,NaN
101,18,5,categorization,0,kitchen,SHINEd_sun_aixorpehvfykdynp.tif,95,0.0833333333333333,0.0666666666666667,1.3,1104.726893583,1105.265123125,13,1104.810092375,1104.876196333,1105.282311583,1106.575683916,NaN,NaN
101,19,5,categorization,0,kitchen,SHINEd_sun_aamedkxepzlwuxes.tif,65,0.0833333333333333,0.0666666666666667,1.91666666666667,1106.593024666,1107.650431333,9,1106.676221458,1106.742318875,1107.664378916,1109.574423458,NaN,NaN
101,20,5,categorization,0,bathroom,SHINEd_sun_axldvoqbuvuggfmq.tif,57,0.0833333333333333,0.0666666666666667,1.23333333333333,1109.591910833,1110.935986625,9,1109.67494875,1109.741201083,1110.943736791,1112.170442083,NaN,NaN
101,21,5,categorization,0,bathroom,SHINEd_sun_alotolagknyrgtsk.tif,35,0.0833333333333333,0.0666666666666667,0.866666666666667,1112.185256208,1113.016527916,9,1112.268440125,1112.334439041,1113.040567125,1113.900599875,NaN,NaN
101,22,5,categorization,0,bathroom,SHINEd_sun_aclfzgynxzxlbepz.tif,19,0.0833333333333333,0.0666666666666667,0.8,1113.919149541,1114.656262291,13,1113.99846775,1114.058473833,1114.660451458,1115.453788458,NaN,NaN
101,23,5,categorization,0,kitchen,SHINEd_sun_agorklincwxrdtga.tif,87,0.0833333333333333,0.0666666666666667,1.51666666666667,1115.459246458,1116.200034625,9,1115.537595,1115.598536416,1116.217033875,1117.727078375,NaN,NaN
101,24,5,categorization,0,kitchen,SHINEd_sun_agzzivivdpnawacl.tif,89,0.0833333333333333,0.0666666666666667,1.18333333333333,1117.74381875,1118.315832041,13,1117.827239708,1117.89321275,1118.334662166,1119.51137775,NaN,NaN
101,25,5,categorization,0,kitchen,SHINEd_sun_aexklacwqwezaorf.tif,84,0.0833333333333333,0.0666666666666667,1.6,1119.5211155,1121.464298541,9,1119.604425208,1119.670124291,1121.472657708,1123.066047791,NaN,NaN
101,26,5,categorization,0,kitchen,SHINEd_sun_avszsnwsbuqfgzbn.tif,105,0.0833333333333333,0.0666666666666667,1.56666666666667,1123.079294916,1123.755835625,9,1123.1632355,1123.228351916,1123.78458475,1125.344615916,NaN,NaN
101,27,5,categorization,0,kitchen,SHINEd_sun_ahywdevtimnqcsln.tif,94,0.0833333333333333,0.0666666666666667,1.36666666666667,1125.36163125,1126.94538925,9,1125.444805583,1125.510720791,1126.962931125,1128.322978666,NaN,NaN
101,28,5,categorization,0,bathroom,SHINEd_sun_acegryoqftbzowsg.tif,17,0.0833333333333333,0.0666666666666667,1.53333333333333,1128.3399015,1129.091207541,13,1128.423729625,1128.489586041,1129.112711375,1130.639416291,NaN,NaN
101,29,5,categorization,0,kitchen,SHINEd_sun_abftihopvusyfakt.tif,71,0.0833333333333333,0.0666666666666667,1.4,1130.656272125,1131.467461083,9,1130.739859125,1130.805869916,1131.496299208,1132.889665541,NaN,NaN
101,30,5,categorization,0,bathroom,SHINEd_sun_apmqjbnwghzuhhzh.tif,46,0.0833333333333333,0.0666666666666667,1.06666666666667,1132.907074166,1133.633321458,13,1132.993604458,1133.056164166,1133.662910333,1134.722944791,NaN,NaN
101,31,5,categorization,0,bathroom,SHINEd_sun_atstyziqcmkahyxk.tif,51,0.0833333333333333,0.0666666666666667,1.63333333333333,1134.733664666,1135.435333625,13,1134.815351958,1134.883050458,1135.457104708,1137.083816583,NaN,NaN
101,32,5,categorization,0,kitchen,SHINEd_sun_acwjdupvyjsugpay.tif,76,0.0833333333333333,0.0666666666666667,1.8,1137.101828583,1138.188072416,9,1137.185626666,1137.251850875,1138.208889333,1140.002260541,NaN,NaN
101,33,5,categorization,0,bathroom,SHINEd_sun_aapitsgbtktqubfy.tif,12,0.0833333333333333,0.0666666666666667,1.53333333333333,1140.011920541,1140.623448708,13,1140.096615333,1140.161059625,1140.651110708,1142.177824125,NaN,NaN
101,34,5,categorization,0,bathroom,SHINEd_sun_apjevzvycyhuqghb.tif,43,0.0833333333333333,0.0666666666666667,0.766666666666667,1142.19578725,1143.259447083,9,1142.279350958,1142.344929666,1143.285121208,1144.045127666,NaN,NaN
101,35,5,categorization,0,bathroom,SHINEd_sun_acgyywnybuveqsro.tif,18,0.0833333333333333,0.0666666666666667,1.86666666666667,1144.050826583,1144.607652083,13,1144.129472375,1144.190235666,1144.625518541,1146.485570958,NaN,NaN
101,36,5,categorization,0,bathroom,SHINEd_sun_ahcvzmoyaycdoftf.tif,27,0.0833333333333333,0.0666666666666667,1.13333333333333,1146.501328791,1147.159576541,13,1146.584148875,1146.650516375,1147.172495208,1148.299211291,NaN,NaN
101,37,5,categorization,0,bathroom,SHINEd_sun_aavhrsfjbserjtht.tif,13,0.0833333333333333,0.0666666666666667,1.73333333333333,1148.308258625,1149.178827541,13,1148.392614291,1148.457524583,1149.197014708,1150.9237225,NaN,NaN
101,38,5,categorization,0,bathroom,SHINEd_sun_axyrejkiiaqiurjk.tif,59,0.0833333333333333,0.0666666666666667,0.766666666666667,1150.941614583,1152.158907333,9,1151.024838916,1151.090955875,1152.180844375,1152.940849125,NaN,NaN
101,39,5,categorization,0,bathroom,SHINEd_sun_anhioqovhscjqqwb.tif,38,0.0833333333333333,0.0666666666666667,1.85,1152.9461965,1153.527373041,13,1153.024643333,1153.0855575,1153.537767333,1155.381142583,NaN,NaN
101,40,5,categorization,0,kitchen,SHINEd_labelme_brsyyvweiuaazfr.tif,61,0.0833333333333333,0.0666666666666667,0.966666666666667,1155.397998166,1156.4947965,13,1155.480923583,1155.5473405,1156.519933458,1157.479939125,NaN,NaN
101,41,5,categorization,0,kitchen,SHINEd_sun_ahdycvpopffkzzsu.tif,90,0.0833333333333333,0.0666666666666667,1.06666666666667,1157.48559225,1158.543727583,9,1157.564045958,1157.624988916,1158.560374041,1159.620427916,NaN,NaN
101,42,5,categorization,0,bathroom,SHINEd_sun_aspsyogrekjtfozg.tif,50,0.0833333333333333,0.0666666666666667,1.38333333333333,1159.629511041,1160.226350208,13,1159.710763666,1159.778414875,1160.252117083,1161.6288175,NaN,NaN
101,43,5,categorization,0,kitchen,SHINEd_sun_acgtpgfybqjmzeyw.tif,75,0.0833333333333333,0.0666666666666667,0.766666666666667,1161.643387125,1162.287976958,9,1161.722534666,1161.782814083,1162.301305333,1163.06131175,NaN,NaN
101,44,5,categorization,0,kitchen,SHINEd_sun_amjjdeyrggfqgmom.tif,100,0.0833333333333333,0.0666666666666667,0.866666666666667,1163.06686075,1163.83130375,13,1163.145325166,1163.20631625,1163.841774375,1164.701779458,NaN,NaN
101,45,5,categorization,0,kitchen,SHINEd_sun_aqeaevwwwjoqhzvl.tif,101,0.0833333333333333,0.0666666666666667,1.25,1164.7071965,1165.76002925,9,1164.785688333,1164.84651825,1165.7653905,1167.008773875,NaN,NaN
101,46,5,categorization,0,kitchen,SHINEd_sun_ahpczsiumwwocjkv.tif,92,0.0833333333333333,0.0666666666666667,1.03333333333333,1167.025290291,1167.641216416,9,1167.108585583,1167.174723625,1167.664602,1168.691305541,NaN,NaN
101,47,5,categorization,0,kitchen,SHINEd_sun_aehawpgmrlhlvcow.tif,81,0.0833333333333333,0.0666666666666667,0.783333333333333,1168.706755541,1169.384043375,9,1168.790076041,1168.855897708,1169.391756833,1170.168428041,NaN,NaN
101,48,5,categorization,0,bathroom,SHINEd_sun_aqrpegblszgcoujh.tif,48,0.0833333333333333,0.0666666666666667,0.7,1170.173918458,1171.087731875,9,1170.252243458,1170.313428291,1171.099103291,1171.79244125,NaN,NaN
101,49,5,categorization,0,bathroom,SHINEd_sun_apeeialkgkuxddgh.tif,42,0.0833333333333333,0.0666666666666667,1.75,1171.800188541,1172.47983325,13,1171.878457458,1171.939525708,1172.491604791,1174.234988083,NaN,NaN
101,50,5,categorization,0,bathroom,SHINEd_sun_apkruvsevgegsdwp.tif,44,0.0833333333333333,0.0666666666666667,1.36666666666667,1174.252729916,1175.679122958,13,1174.33598475,1174.402269333,1175.688090875,1177.048130708,NaN,NaN
101,1,6,categorization,0,kitchen,SHINEd_sun_ahljzhgcdpomplvg.tif,91,0.0833333333333333,0.0666666666666667,0.966666666666667,1264.173484458,1264.879607166,9,1264.252591791,1264.313123541,1264.898753958,1265.85875975,NaN,NaN
101,2,6,categorization,0,bathroom,SHINEd_sun_auzqhkafidnkrwmo.tif,54,0.0833333333333333,0.0666666666666667,1.73333333333333,1265.866036583,1266.527297541,13,1265.944471,1266.005354958,1266.540730583,1268.267439666,NaN,NaN
101,3,6,categorization,0,bathroom,SHINEd_sun_agrwbmhcpmfuwmsg.tif,24,0.0833333333333333,0.0666666666666667,1.91666666666667,1268.284563916,1269.299686416,13,1268.368310625,1268.432503291,1269.323535291,1271.233572583,NaN,NaN
101,4,6,categorization,0,kitchen,SHINEd_sun_axyyrmzcupyhlivc.tif,107,0.0833333333333333,0.0666666666666667,0.766666666666667,1271.252274416,1274.070573541,13,1271.336229125,1271.402155958,1274.088369625,1274.848376291,NaN,NaN
101,5,6,categorization,0,bathroom,SHINEd_sun_akiytfaagpdsphgz.tif,31,0.0833333333333333,0.0666666666666667,0.916666666666667,1274.853763458,1275.631073583,13,1274.932167083,1274.993213583,1275.645189208,1276.555194375,NaN,NaN
101,6,6,categorization,0,kitchen,SHINEd_sun_acfmftudsenhrfhy.tif,74,0.0833333333333333,0.0666666666666667,1.18333333333333,1276.560744375,1277.326509083,9,1276.639150125,1276.699949583,1277.335265958,1278.511980333,NaN,NaN
101,7,6,categorization,0,kitchen,SHINEd_sun_afuyedyxivkhecmu.tif,85,0.0833333333333333,0.0666666666666667,1.8,1278.522673791,1279.172732958,9,1278.605927291,1278.672057625,1279.195102416,1280.988469375,NaN,NaN
101,8,6,categorization,0,bathroom,SHINEd_labelme_sfxiulhjbhlyiyt.tif,11,0.0833333333333333,0.0666666666666667,0.883333333333333,1281.00545525,1281.702357958,13,1281.087072166,1281.154754375,1281.728082208,1282.604755,NaN,NaN
101,9,6,categorization,0,kitchen,SHINEd_sun_aadbddgrdsjugojn.tif,64,0.0833333333333333,0.0666666666666667,1.83333333333333,1282.610497708,1283.374754375,9,1282.688851125,1282.749869416,1283.384984375,1285.211689333,NaN,NaN
101,10,6,categorization,0,bathroom,SHINEd_sun_aleqenyvunhactkl.tif,32,0.0833333333333333,0.0666666666666667,1.76666666666667,1285.224753791,1285.966557333,13,1285.308133833,1285.374507166,1285.978425,1287.738476541,NaN,NaN
101,11,6,categorization,0,kitchen,SHINEd_sun_abdxkyyxwfskuaqb.tif,70,0.0833333333333333,0.0666666666666667,0.983333333333333,1287.755786,1288.550485208,9,1287.838896,1287.904850833,1288.578164208,1289.554836,NaN,NaN
101,12,6,categorization,0,kitchen,SHINEd_sun_akcjzhbbjlbogpdi.tif,99,0.0833333333333333,0.0666666666666667,0.883333333333333,1289.560488791,1290.366838083,9,1289.638824625,1289.699895125,1290.384973,1291.261646041,NaN,NaN
101,13,6,categorization,0,bathroom,SHINEd_sun_ausgutylgojavyoq.tif,53,0.0833333333333333,0.0666666666666667,0.85,1291.267173,1291.951367375,13,1291.345582958,1291.406491583,1291.958511208,1292.80184925,NaN,NaN
101,14,6,categorization,0,bathroom,SHINEd_sun_aghyqhbptboemmoq.tif,23,0.0833333333333333,0.0666666666666667,0.733333333333333,1292.807310375,1294.087162041,13,1292.885681291,1292.94670875,1294.098771333,1294.825442208,NaN,NaN
101,15,6,categorization,0,bathroom,SHINEd_sun_agguqiubmwhqqunb.tif,22,0.0833333333333333,0.0666666666666667,1.88333333333333,1294.832607666,1295.535366875,9,1294.910980791,1294.97190975,1295.540724583,1297.417431666,NaN,NaN
101,16,6,categorization,0,bathroom,SHINEd_sun_asfwthctfqerjvxr.tif,49,0.0833333333333333,0.0666666666666667,0.816666666666667,1297.429521,1298.551455541,13,1297.512929333,1297.578682166,1298.568369166,1299.37837625,NaN,NaN
101,17,6,categorization,0,bathroom,SHINEd_sun_acduarbnmmoglmiv.tif,16,0.0833333333333333,0.0666666666666667,1.9,1299.383820541,1300.566436833,13,1299.462266291,1299.523217958,1300.575375708,1302.468764166,NaN,NaN
101,18,6,categorization,0,kitchen,SHINEd_sun_aapllqyqlykszopd.tif,66,0.0833333333333333,0.0666666666666667,0.983333333333333,1302.485110041,1303.887187666,9,1302.568321083,1302.634419541,1303.903676833,1304.880350166,NaN,NaN
101,19,6,categorization,0,bathroom,SHINEd_sun_ambriybtogmepttm.tif,36,0.0833333333333333,0.0666666666666667,0.75,1304.885798958,1305.66290975,13,1304.964153458,1305.025367208,1305.677548208,1306.420887125,NaN,NaN
101,20,6,categorization,0,kitchen,SHINEd_sun_abpwyqmlzafvklqo.tif,72,0.0833333333333333,0.0666666666666667,1.6,1306.426349666,1307.302599625,9,1306.504618625,1306.565734208,1307.318045541,1308.911424583,NaN,NaN
101,21,6,categorization,0,kitchen,SHINEd_sun_azmutvzbxypaceni.tif,110,0.0833333333333333,0.0666666666666667,1.58333333333333,1308.927962333,1309.983582708,9,1309.011022458,1309.077304541,1309.998208416,1311.574909125,NaN,NaN
101,22,6,categorization,0,kitchen,SHINEd_labelme_kxvouciolcpqplr.tif,62,0.0833333333333333,0.0666666666666667,1.11666666666667,1311.591608541,1312.37012675,9,1311.67509425,1311.740976666,1312.397260291,1313.507315875,NaN,NaN
101,23,6,categorization,0,bathroom,SHINEd_sun_avhrdrntsqrjzccq.tif,55,0.0833333333333333,0.0666666666666667,1.53333333333333,1313.516359583,1314.393200875,9,1313.597839208,1313.665837916,1314.421886791,1315.948594208,NaN,NaN
101,24,6,categorization,0,bathroom,SHINEd_sun_aljolscmmzydegqp.tif,33,0.0833333333333333,0.0666666666666667,1.48333333333333,1315.962780583,1316.587414833,13,1316.045663375,1316.111985625,1316.600893458,1318.07760825,NaN,NaN
101,25,6,categorization,0,kitchen,SHINEd_sun_abdenxonkemggwsq.tif,69,0.0833333333333333,0.0666666666666667,1.1,1318.094961916,1318.787850041,9,1318.178982875,1318.243989708,1318.816981875,1319.910351833,NaN,NaN
101,26,6,categorization,0,bathroom,SHINEd_sun_abapwbhyhkfixyex.tif,14,0.0833333333333333,0.0666666666666667,0.933333333333333,1319.919831625,1320.655989,9,1320.00136,1320.069165291,1320.675591166,1321.60229125,NaN,NaN
101,27,6,categorization,0,kitchen,SHINEd_sun_auaiucuqpdausiva.tif,102,0.0833333333333333,0.0666666666666667,0.816666666666667,1321.618000333,1322.175010166,9,1321.701102291,1321.767267166,1322.186381625,1322.996388166,NaN,NaN
101,28,6,categorization,0,kitchen,SHINEd_sun_aunzlwrbjumxhwdj.tif,103,0.0833333333333333,0.0666666666666667,1.78333333333333,1323.001911083,1323.902299958,9,1323.080414458,1323.14123225,1323.909784625,1325.686486875,NaN,NaN
101,29,6,categorization,0,bathroom,SHINEd_sun_anryaplzeujmzfkd.tif,39,0.0833333333333333,0.0666666666666667,0.766666666666667,1325.702512958,1326.744866583,9,1325.785830583,1325.852286833,1326.757664458,1327.517669,NaN,NaN
101,30,6,categorization,0,kitchen,SHINEd_sun_aypmqwcualkenuoe.tif,109,0.0833333333333333,0.0666666666666667,1.45,1327.523345666,1328.294771666,9,1327.601855666,1327.6628115,1328.297878833,1329.741251708,NaN,NaN
101,31,6,categorization,0,bathroom,SHINEd_sun_alkosphxlxwjwgjd.tif,34,0.0833333333333333,0.0666666666666667,0.75,1329.758047958,1330.274620375,13,1329.84189825,1329.90739525,1330.29710175,1331.040477291,NaN,NaN
101,32,6,categorization,0,kitchen,SHINEd_labelme_rykdqxenmhulbdn.tif,63,0.0833333333333333,0.0666666666666667,1.36666666666667,1331.056226708,1331.790577708,9,1331.139429125,1331.205467083,1331.808044875,1333.168085916,NaN,NaN
101,33,6,categorization,0,kitchen,SHINEd_sun_aarfiyshqohlwkmo.tif,67,0.0833333333333333,0.0666666666666667,0.75,1333.183993083,1333.94740525,9,1333.26734175,1333.333181291,1333.9730445,1334.716432291,NaN,NaN
101,34,6,categorization,0,kitchen,SHINEd_sun_aaxxjlsuzvqlgylf.tif,68,0.0833333333333333,0.0666666666666667,0.783333333333333,1334.73433025,1335.406380791,9,1334.817613041,1334.883377375,1335.419250666,1336.195921666,NaN,NaN
101,35,6,categorization,0,bathroom,SHINEd_sun_abjtwfukuwddzted.tif,15,0.0833333333333333,0.0666666666666667,1.11666666666667,1336.201485083,1336.7429855,13,1336.279844625,1336.340800416,1336.759462291,1337.869516541,NaN,NaN
101,36,6,categorization,0,kitchen,SHINEd_sun_adgqasybjyktddhj.tif,78,0.0833333333333333,0.0666666666666667,0.766666666666667,1337.87862025,1338.862178625,9,1337.959744625,1338.027778291,1338.884394708,1339.644444,NaN,NaN
101,37,6,categorization,0,bathroom,SHINEd_sun_ajlawzvmubibwbpy.tif,30,0.0833333333333333,0.0666666666666667,0.716666666666667,1339.659767041,1340.262930541,13,1339.742942458,1339.809042375,1340.277824583,1340.987829583,NaN,NaN
101,38,6,categorization,0,bathroom,SHINEd_sun_ahijqszoswveeyji.tif,28,0.0833333333333333,0.0666666666666667,1.33333333333333,1340.993283791,1341.591117875,13,1341.071619541,1341.132583833,1341.601106833,1342.927818416,NaN,NaN
101,39,6,categorization,0,kitchen,SHINEd_sun_aenotlpyftoioydp.tif,82,0.0833333333333333,0.0666666666666667,1.75,1342.944259833,1343.658838625,9,1343.029352416,1343.093206416,1343.682812291,1345.426179125,NaN,NaN
101,40,6,categorization,0,kitchen,SHINEd_sun_agubuxuukhzyzpdp.tif,88,0.0833333333333333,0.0666666666666667,1.13333333333333,1345.443389125,1346.1979995,9,1345.526562666,1345.592764208,1346.215368208,1347.3420705,NaN,NaN
101,41,6,categorization,0,bathroom,SHINEd_sun_ahaulkltgpkeeemi.tif,26,0.0833333333333333,0.0666666666666667,1.63333333333333,1347.351022625,1348.023902666,13,1347.434199458,1347.500333541,1348.039539416,1349.666254833,NaN,NaN
101,42,6,categorization,0,kitchen,SHINEd_sun_ajcbwwvdlsvjyzje.tif,96,0.0833333333333333,0.0666666666666667,1.43333333333333,1349.6838135,1350.334070083,13,1349.766866416,1349.832958333,1350.356152791,1351.782865375,NaN,NaN
101,43,6,categorization,0,bathroom,SHINEd_sun_apynckhmoftszqoq.tif,47,0.0833333333333333,0.0666666666666667,1.83333333333333,1351.799276666,1352.408483083,13,1351.8823145,1351.948428416,1352.438312541,1354.265028875,NaN,NaN
101,44,6,categorization,0,bathroom,SHINEd_sun_awnqiikzaispgmwo.tif,56,0.0833333333333333,0.0666666666666667,1.93333333333333,1354.285378291,1354.833206666,13,1354.368408125,1354.435085875,1354.858562458,1356.78528675,NaN,NaN
101,45,6,categorization,0,bathroom,SHINEd_sun_aunuadmjocsddsrl.tif,52,0.0833333333333333,0.0666666666666667,1.26666666666667,1356.802237291,1357.585174666,13,1356.885642,1356.951611291,1357.608334708,1358.868376541,NaN,NaN
101,46,6,categorization,0,kitchen,SHINEd_sun_aegoxogugdkwpmpj.tif,80,0.0833333333333333,0.0666666666666667,1.86666666666667,1358.885375708,1359.891827625,9,1358.968601,1359.034840333,1359.907270833,1361.767314291,NaN,NaN
101,47,6,categorization,0,bathroom,SHINEd_sun_aggnnqpdorgxpvce.tif,21,0.0833333333333333,0.0666666666666667,1.41666666666667,1361.7843495,1363.086979833,9,1361.867646875,1361.933677375,1363.1028,1364.512849291,NaN,NaN
101,48,6,categorization,0,kitchen,SHINEd_sun_ajkqhtgcbgpcwrwn.tif,97,0.0833333333333333,0.0666666666666667,1.11666666666667,1364.529960333,1365.515113791,9,1364.61436725,1364.679227833,1365.535519708,1366.64555125,NaN,NaN
101,49,6,categorization,0,bathroom,SHINEd_sun_apkxzenqapsujocq.tif,45,0.0833333333333333,0.0666666666666667,1.8,1366.654605,1367.154447208,13,1366.735583458,1366.803973125,1367.177050375,1368.970421916,NaN,NaN
101,50,6,categorization,0,kitchen,SHINEd_sun_awcpdzzznmweyyhv.tif,106,0.0833333333333333,0.0666666666666667,1.25,1368.984334916,1369.902563416,9,1369.06761375,1369.133587166,1369.922798041,1371.166182625,NaN,NaN
101,1,7,categorization,0,bathroom,SHINEd_sun_ahaulkltgpkeeemi.tif,26,0.0833333333333333,0.0666666666666667,0.883333333333333,1382.049052875,1382.918979541,9,1382.128206541,1382.188445375,1382.9238345,1383.8005075,NaN,NaN
101,2,7,categorization,0,kitchen,SHINEd_sun_afuyedyxivkhecmu.tif,85,0.0833333333333333,0.0666666666666667,1.03333333333333,1383.806146583,1384.39906875,9,1383.884433125,1383.945472083,1384.414251625,1385.440966291,NaN,NaN
101,3,7,categorization,0,kitchen,SHINEd_sun_aypmqwcualkenuoe.tif,109,0.0833333333333333,0.0666666666666667,1.06666666666667,1385.448835,1385.994094458,9,1385.529769583,1385.596641541,1386.019688,1387.079736583,NaN,NaN
101,4,7,categorization,0,bathroom,SHINEd_sun_aghyqhbptboemmoq.tif,23,0.0833333333333333,0.0666666666666667,0.833333333333333,1387.097169625,1387.734485541,13,1387.180191833,1387.246425166,1387.749018916,1388.575691833,NaN,NaN
101,5,7,categorization,0,kitchen,SHINEd_sun_adgqasybjyktddhj.tif,78,0.0833333333333333,0.0666666666666667,0.716666666666667,1388.582106666,1389.302942041,9,1388.660448208,1388.721465625,1389.3066895,1390.016692958,NaN,NaN
101,6,7,categorization,0,kitchen,SHINEd_sun_aapllqyqlykszopd.tif,66,0.0833333333333333,0.0666666666666667,0.733333333333333,1390.021574458,1390.782940833,9,1390.099943666,1390.160938083,1390.796412875,1391.523082666,NaN,NaN
101,7,7,categorization,0,bathroom,SHINEd_sun_aljolscmmzydegqp.tif,33,0.0833333333333333,0.0666666666666667,1.38333333333333,1391.528524541,1392.638861791,13,1391.606819666,1391.667799625,1392.653047833,1394.02976775,NaN,NaN
101,8,7,categorization,0,bathroom,SHINEd_labelme_sfxiulhjbhlyiyt.tif,11,0.0833333333333333,0.0666666666666667,0.9,1394.044905125,1394.621723375,13,1394.129119166,1394.194289416,1394.650605041,1395.543976541,NaN,NaN
101,9,7,categorization,0,kitchen,SHINEd_labelme_rykdqxenmhulbdn.tif,63,0.0833333333333333,0.0666666666666667,0.816666666666667,1395.559520791,1396.222634583,9,1395.642628375,1395.707709666,1396.226378541,1397.036384375,NaN,NaN
101,10,7,categorization,0,bathroom,SHINEd_sun_aclfzgynxzxlbepz.tif,19,0.0833333333333333,0.0666666666666667,0.85,1397.04108375,1397.638423208,13,1397.11953025,1397.180468125,1397.649019458,1398.492356875,NaN,NaN
101,11,7,categorization,0,bathroom,SHINEd_sun_azqyogdvyhahyram.tif,60,0.0833333333333333,0.0666666666666667,1.6,1398.498284125,1399.318999,13,1398.57689625,1398.637659833,1399.322728291,1400.916114666,NaN,NaN
101,12,7,categorization,0,kitchen,SHINEd_sun_ahljzhgcdpomplvg.tif,91,0.0833333333333333,0.0666666666666667,1.75,1400.933248291,1401.844122875,9,1401.016557875,1401.082691958,1401.87233325,1403.615701458,NaN,NaN
101,13,7,categorization,0,bathroom,SHINEd_sun_atstyziqcmkahyxk.tif,51,0.0833333333333333,0.0666666666666667,1.1,1403.630322791,1404.2079305,13,1403.713629833,1403.779554125,1404.236047666,1405.329436625,NaN,NaN
101,14,7,categorization,0,kitchen,SHINEd_labelme_brsyyvweiuaazfr.tif,61,0.0833333333333333,0.0666666666666667,1.46666666666667,1405.3391405,1405.878906291,13,1405.420396458,1405.488339625,1405.894092583,1407.35413725,NaN,NaN
101,15,7,categorization,0,kitchen,SHINEd_sun_aenotlpyftoioydp.tif,82,0.0833333333333333,0.0666666666666667,1.25,1407.365157,1407.922606416,9,1407.448421416,1407.514513958,1407.936768625,1409.180151958,NaN,NaN
101,16,7,categorization,0,kitchen,SHINEd_sun_ahspylgoovwmwvgk.tif,93,0.0833333333333333,0.0666666666666667,1.13333333333333,1409.197207208,1409.790729375,9,1409.280923291,1409.346475833,1409.7989455,1410.925653208,NaN,NaN
101,17,7,categorization,0,bathroom,SHINEd_sun_apmqjbnwghzuhhzh.tif,46,0.0833333333333333,0.0666666666666667,1.33333333333333,1410.935167041,1411.807190375,13,1411.018229208,1411.084626291,1411.823894416,1413.150593708,NaN,NaN
101,18,7,categorization,0,bathroom,SHINEd_sun_aspsyogrekjtfozg.tif,50,0.0833333333333333,0.0666666666666667,1.86666666666667,1413.168370833,1414.235196,9,1413.251435541,1413.317652333,1414.2571915,1416.117229291,NaN,NaN
101,19,7,categorization,0,bathroom,SHINEd_sun_awnqiikzaispgmwo.tif,56,0.0833333333333333,0.0666666666666667,1.58333333333333,1416.134338375,1416.842934583,13,1416.21766275,1416.283384333,1416.873232333,1418.449935791,NaN,NaN
101,20,7,categorization,0,bathroom,SHINEd_sun_apjevzvycyhuqghb.tif,43,0.0833333333333333,0.0666666666666667,1.05,1418.467311833,1419.176429333,9,1418.550296125,1418.616881125,1419.206747791,1420.250125041,NaN,NaN
101,21,7,categorization,0,bathroom,SHINEd_sun_aapitsgbtktqubfy.tif,12,0.0833333333333333,0.0666666666666667,0.9,1420.259506791,1420.948238166,13,1420.340881166,1420.406128958,1420.962647458,1421.856034,NaN,NaN
101,22,7,categorization,0,bathroom,SHINEd_sun_abapwbhyhkfixyex.tif,14,0.0833333333333333,0.0666666666666667,0.7,1421.86988025,1422.814733208,9,1421.953700083,1422.016620875,1422.819096875,1423.512437,NaN,NaN
101,23,7,categorization,0,kitchen,SHINEd_sun_akchetnepxlcxhsu.tif,98,0.0833333333333333,0.0666666666666667,0.933333333333333,1423.517976916,1424.230750958,13,1423.59647275,1423.657299333,1424.242474166,1425.1691475,NaN,NaN
101,24,7,categorization,0,kitchen,SHINEd_sun_aymvwlarqodbwuoc.tif,108,0.0833333333333333,0.0666666666666667,1.95,1425.174629666,1425.806068666,9,1425.252982583,1425.3139885,1425.816298875,1427.759670708,NaN,NaN
101,25,7,categorization,0,kitchen,SHINEd_sun_aggjlwcdjsjcaemh.tif,86,0.0833333333333333,0.0666666666666667,1.06666666666667,1427.775778583,1428.421710791,9,1427.85877625,1427.92523475,1428.448445375,1429.508496375,NaN,NaN
101,26,7,categorization,0,bathroom,SHINEd_sun_akiytfaagpdsphgz.tif,31,0.0833333333333333,0.0666666666666667,1.2,1429.517425333,1430.2475585,13,1429.598700416,1429.665488333,1430.272103291,1431.46547125,NaN,NaN
101,27,7,categorization,0,kitchen,SHINEd_sun_akcjzhbbjlbogpdi.tif,99,0.0833333333333333,0.0666666666666667,0.75,1431.475466583,1432.358883083,9,1431.558652708,1431.6246265,1432.380985375,1433.124375916,NaN,NaN
101,28,7,categorization,0,bathroom,SHINEd_sun_ahqjwnzgolcaoidx.tif,29,0.0833333333333333,0.0666666666666667,0.816666666666667,1433.14030625,1433.846915833,13,1433.223635208,1433.28942625,1433.858529875,1434.668535291,NaN,NaN
101,29,7,categorization,0,kitchen,SHINEd_labelme_kxvouciolcpqplr.tif,62,0.0833333333333333,0.0666666666666667,1.96666666666667,1434.674109833,1435.614587375,9,1434.752538083,1434.813459666,1435.632473625,1437.592528416,NaN,NaN
101,30,7,categorization,0,bathroom,SHINEd_sun_ajlawzvmubibwbpy.tif,30,0.0833333333333333,0.0666666666666667,1.2,1437.605947916,1439.510764541,9,1437.6894205,1437.755115083,1439.524192208,1440.717572666,NaN,NaN
101,31,7,categorization,0,bathroom,SHINEd_sun_alotolagknyrgtsk.tif,35,0.0833333333333333,0.0666666666666667,0.883333333333333,1440.730189958,1441.874944416,9,1440.814603125,1440.879858625,1441.902756541,1442.779429875,NaN,NaN
101,32,7,categorization,0,bathroom,SHINEd_sun_agyqfjcfkdcydepw.tif,25,0.0833333333333333,0.0666666666666667,1.33333333333333,1442.784671,1443.57469075,9,1442.863092666,1442.923998,1443.592697,1444.919413416,NaN,NaN
101,33,7,categorization,0,bathroom,SHINEd_sun_aleqenyvunhactkl.tif,32,0.0833333333333333,0.0666666666666667,1.45,1444.935784666,1445.511583458,13,1445.018985125,1445.085337458,1445.541603,1446.9849775,NaN,NaN
101,34,7,categorization,0,kitchen,SHINEd_sun_acgtpgfybqjmzeyw.tif,75,0.0833333333333333,0.0666666666666667,1.15,1447.001308458,1447.653974041,9,1447.084228833,1447.150568208,1447.67294975,1448.816315291,NaN,NaN
101,35,7,categorization,0,bathroom,SHINEd_sun_agrwbmhcpmfuwmsg.tif,24,0.0833333333333333,0.0666666666666667,0.966666666666667,1448.825631166,1449.459226125,13,1448.908730083,1448.974870791,1449.4815405,1450.441570541,NaN,NaN
101,36,7,categorization,0,bathroom,SHINEd_sun_auzqhkafidnkrwmo.tif,54,0.0833333333333333,0.0666666666666667,1.45,1450.457626708,1451.214466375,13,1450.540832625,1450.606909375,1451.225872208,1452.669258083,NaN,NaN
101,37,7,categorization,0,bathroom,SHINEd_sun_apkruvsevgegsdwp.tif,44,0.0833333333333333,0.0666666666666667,0.8,1452.685460916,1453.89134975,9,1452.768711833,1452.834468625,1453.906852875,1454.700193166,NaN,NaN
101,38,7,categorization,0,bathroom,SHINEd_sun_axxbkopsgyouuebh.tif,58,0.0833333333333333,0.0666666666666667,1.45,1454.705447416,1455.318524541,13,1454.783860083,1454.844795916,1455.329765791,1456.7731365,NaN,NaN
101,39,7,categorization,0,bathroom,SHINEd_sun_amzlamotzwfkwjco.tif,37,0.0833333333333333,0.0666666666666667,1.1,1456.790508666,1457.761757083,9,1456.87373275,1456.939803125,1457.778952208,1458.872338375,NaN,NaN
101,40,7,categorization,0,kitchen,SHINEd_sun_awcpdzzznmweyyhv.tif,106,0.0833333333333333,0.0666666666666667,1.16666666666667,1458.882034541,1459.805547166,9,1458.963778166,1459.03097475,1459.819780041,1460.979799791,NaN,NaN
101,41,7,categorization,0,kitchen,SHINEd_sun_auticobqsbwgoppi.tif,104,0.0833333333333333,0.0666666666666667,1.31666666666667,1460.989017291,1461.649366458,9,1461.072185833,1461.138529,1461.660181875,1462.970215208,NaN,NaN
101,42,7,categorization,0,kitchen,SHINEd_sun_axyyrmzcupyhlivc.tif,107,0.0833333333333333,0.0666666666666667,1.68333333333333,1462.980467041,1463.839334208,9,1463.063979,1463.129876291,1463.869546958,1465.546247958,NaN,NaN
101,43,7,categorization,0,bathroom,SHINEd_sun_ahcvzmoyaycdoftf.tif,27,0.0833333333333333,0.0666666666666667,0.966666666666667,1465.560649875,1466.147683166,13,1465.644174833,1465.709905,1466.165952416,1467.125998375,NaN,NaN
101,44,7,categorization,0,bathroom,SHINEd_sun_apeeialkgkuxddgh.tif,42,0.0833333333333333,0.0666666666666667,1.4,1467.14090175,1467.646042541,13,1467.221474833,1467.281048166,1467.649419958,1469.04278975,NaN,NaN
101,45,7,categorization,0,kitchen,SHINEd_sun_azmutvzbxypaceni.tif,110,0.0833333333333333,0.0666666666666667,0.783333333333333,1469.058672708,1469.714086208,9,1469.141787625,1469.207912041,1469.730891375,1470.507591083,NaN,NaN
101,46,7,categorization,0,bathroom,SHINEd_sun_anhioqovhscjqqwb.tif,38,0.0833333333333333,0.0666666666666667,1.08333333333333,1470.523235916,1470.958115416,13,1470.606660083,1470.672677875,1470.974964833,1472.051671416,NaN,NaN
101,47,7,categorization,0,kitchen,SHINEd_sun_auaiucuqpdausiva.tif,102,0.0833333333333333,0.0666666666666667,1.43333333333333,1472.060254958,1472.488974833,9,1472.141737125,1472.209373,1472.51551,1473.942231166,NaN,NaN
101,48,7,categorization,0,kitchen,SHINEd_sun_agzzivivdpnawacl.tif,89,0.0833333333333333,0.0666666666666667,1.75,1473.958434875,1474.294315458,13,1474.037740875,1474.097824875,1474.299466375,1476.0428445,NaN,NaN
101,49,7,categorization,0,kitchen,SHINEd_sun_abftihopvusyfakt.tif,71,0.0833333333333333,0.0666666666666667,1.21666666666667,1476.054986916,1476.5185105,9,1476.1377915,1476.204310833,1476.542725583,1477.752774291,NaN,NaN
101,50,7,categorization,0,kitchen,SHINEd_sun_aunzlwrbjumxhwdj.tif,103,0.0833333333333333,0.0666666666666667,1.31666666666667,1477.76943175,1478.334037625,9,1477.8523975,1477.918864791,1478.358810833,1479.668849458,NaN,NaN
101,1,8,categorization,0,bathroom,SHINEd_sun_apynckhmoftszqoq.tif,47,0.0833333333333333,0.0666666666666667,1.18333333333333,1487.553899291,1488.285611916,13,1487.633076958,1487.6932065,1488.294987375,1489.47168875,NaN,NaN
101,2,8,categorization,0,bathroom,SHINEd_sun_aofnryafpsjimzsb.tif,40,0.0833333333333333,0.0666666666666667,0.983333333333333,1489.482101791,1490.599030291,13,1489.565350166,1489.631217,1490.620692791,1491.597364625,NaN,NaN
101,3,8,categorization,0,kitchen,SHINEd_sun_ahpczsiumwwocjkv.tif,92,0.0833333333333333,0.0666666666666667,1.65,1491.60267525,1492.142060916,9,1491.680958958,1491.742031916,1492.16049,1493.803877166,NaN,NaN
101,4,8,categorization,0,kitchen,SHINEd_sun_aixorpehvfykdynp.tif,95,0.0833333333333333,0.0666666666666667,1.23333333333333,1493.818342291,1494.5471245,13,1493.901291,1493.967461125,1494.574009041,1495.800713125,NaN,NaN
101,5,8,categorization,0,kitchen,SHINEd_sun_admlmbcdswaszruo.tif,79,0.0833333333333333,0.0666666666666667,0.916666666666667,1495.816255708,1496.510997333,9,1495.899333,1495.965454333,1496.538640083,1497.448674916,NaN,NaN
101,6,8,categorization,0,bathroom,SHINEd_sun_aunuadmjocsddsrl.tif,52,0.0833333333333333,0.0666666666666667,1.56666666666667,1497.467058833,1498.56588525,9,1497.550423541,1497.608431458,1498.577080583,1500.137138125,NaN,NaN
101,7,8,categorization,0,bathroom,SHINEd_sun_ahijqszoswveeyji.tif,28,0.0833333333333333,0.0666666666666667,1.63333333333333,1500.154147666,1500.735295041,9,1500.237301625,1500.303463541,1500.759699708,1502.386413875,NaN,NaN
101,8,8,categorization,0,kitchen,SHINEd_sun_acxkpeoqbwcxfvip.tif,77,0.0833333333333333,0.0666666666666667,1.1,1502.403648375,1503.016970125,9,1502.486661666,1502.553346208,1503.042846583,1504.136236458,NaN,NaN
101,9,8,categorization,0,kitchen,SHINEd_sun_avszsnwsbuqfgzbn.tif,105,0.0833333333333333,0.0666666666666667,1.38333333333333,1504.14480525,1504.669565333,9,1504.225988958,1504.293852916,1504.682477458,1506.059187333,NaN,NaN
101,10,8,categorization,0,kitchen,SHINEd_sun_ajkqhtgcbgpcwrwn.tif,97,0.0833333333333333,0.0666666666666667,0.766666666666667,1506.075269333,1506.590081666,9,1506.155022,1506.214807916,1506.600085416,1507.36009075,NaN,NaN
101,11,8,categorization,0,kitchen,SHINEd_sun_ahywdevtimnqcsln.tif,94,0.0833333333333333,0.0666666666666667,1.45,1507.365449916,1508.238348208,9,1507.443811375,1507.504846041,1508.2568715,1509.700236916,NaN,NaN
101,12,8,categorization,0,kitchen,SHINEd_sun_abpwyqmlzafvklqo.tif,72,0.0833333333333333,0.0666666666666667,0.983333333333333,1509.717271,1510.333933875,9,1509.801441208,1509.866710791,1510.3562355,1511.33291125,NaN,NaN
101,13,8,categorization,0,bathroom,SHINEd_sun_acgyywnybuveqsro.tif,18,0.0833333333333333,0.0666666666666667,0.716666666666667,1511.338541958,1511.926463208,13,1511.416992166,1511.477899916,1511.929966541,1512.639974416,NaN,NaN
101,14,8,categorization,0,kitchen,SHINEd_sun_aadbddgrdsjugojn.tif,64,0.0833333333333333,0.0666666666666667,1.41666666666667,1512.6452355,1513.173633375,9,1512.723676,1512.7846015,1513.186305666,1514.596351541,NaN,NaN
101,15,8,categorization,0,bathroom,SHINEd_sun_apkxzenqapsujocq.tif,45,0.0833333333333333,0.0666666666666667,1.21666666666667,1514.612435333,1515.203671208,13,1514.695334416,1514.761791041,1515.216985958,1516.427035291,NaN,NaN
101,16,8,categorization,0,bathroom,SHINEd_sun_aqrpegblszgcoujh.tif,48,0.0833333333333333,0.0666666666666667,1.61666666666667,1516.444118708,1516.97761475,9,1516.526796375,1516.593874916,1517.000374458,1518.610430291,NaN,NaN
101,17,8,categorization,0,bathroom,SHINEd_sun_aoybiabnpadelefl.tif,41,0.0833333333333333,0.0666666666666667,0.783333333333333,1518.626828458,1519.387154,9,1518.710033208,1518.775980666,1519.415697666,1520.19240925,NaN,NaN
101,18,8,categorization,0,kitchen,SHINEd_sun_aeqdocilnnpuvuhx.tif,83,0.0833333333333333,0.0666666666666667,1.98333333333333,1520.207243041,1521.110033958,9,1520.289785333,1520.356718125,1521.125865708,1523.102577291,NaN,NaN
101,19,8,categorization,0,kitchen,SHINEd_sun_ajcbwwvdlsvjyzje.tif,96,0.0833333333333333,0.0666666666666667,0.983333333333333,1523.11849325,1523.912472083,13,1523.201550458,1523.268013416,1523.941126541,1524.917798791,NaN,NaN
101,20,8,categorization,0,bathroom,SHINEd_sun_axyrejkiiaqiurjk.tif,59,0.0833333333333333,0.0666666666666667,0.8,1524.923400958,1525.590491833,9,1525.001767708,1525.062822625,1525.598170666,1526.391507625,NaN,NaN
101,21,8,categorization,0,bathroom,SHINEd_sun_aggnnqpdorgxpvce.tif,21,0.0833333333333333,0.0666666666666667,0.733333333333333,1526.397233916,1526.9664115,9,1526.475603041,1526.536613041,1526.972212291,1527.698887083,NaN,NaN
101,22,8,categorization,0,bathroom,SHINEd_sun_aavhrsfjbserjtht.tif,13,0.0833333333333333,0.0666666666666667,0.966666666666667,1527.703545333,1528.461710833,9,1527.781830833,1527.843082958,1528.478269666,1529.438275541,NaN,NaN
101,23,8,categorization,0,kitchen,SHINEd_sun_aexklacwqwezaorf.tif,84,0.0833333333333333,0.0666666666666667,0.866666666666667,1529.443661833,1530.109738125,9,1529.521935958,1529.583125416,1530.118296208,1530.978301375,NaN,NaN
101,24,8,categorization,0,bathroom,SHINEd_sun_abjtwfukuwddzted.tif,15,0.0833333333333333,0.0666666666666667,1.23333333333333,1530.9828855,1531.670518375,9,1531.061200708,1531.122245166,1531.6745685,1532.901265833,NaN,NaN
101,25,8,categorization,0,bathroom,SHINEd_sun_afcoljnjfoxjtgja.tif,20,0.0833333333333333,0.0666666666666667,1.9,1532.917251833,1533.928641,9,1533.001798208,1533.066947958,1533.9564015,1535.849782875,NaN,NaN
101,26,8,categorization,0,kitchen,SHINEd_sun_agorklincwxrdtga.tif,87,0.0833333333333333,0.0666666666666667,0.866666666666667,1535.868253,1536.546459375,9,1535.951824541,1536.014704,1536.571039916,1537.431044416,NaN,NaN
101,27,8,categorization,0,kitchen,SHINEd_sun_agubuxuukhzyzpdp.tif,88,0.0833333333333333,0.0666666666666667,0.966666666666667,1537.436636333,1538.078304958,9,1537.515134166,1537.576039791,1538.094580083,1539.054585875,NaN,NaN
101,28,8,categorization,0,kitchen,SHINEd_sun_abdxkyyxwfskuaqb.tif,70,0.0833333333333333,0.0666666666666667,0.916666666666667,1539.060147416,1539.901884166,9,1539.138586625,1539.199533083,1539.918323833,1540.828329125,NaN,NaN
101,29,8,categorization,0,kitchen,SHINEd_sun_abdenxonkemggwsq.tif,69,0.0833333333333333,0.0666666666666667,0.916666666666667,1540.833781916,1541.3981425,9,1540.912372875,1540.973046958,1541.408365125,1542.318368375,NaN,NaN
101,30,8,categorization,0,bathroom,SHINEd_sun_ausgutylgojavyoq.tif,53,0.0833333333333333,0.0666666666666667,1.4,1542.32313875,1542.989711791,13,1542.401507833,1542.46248625,1542.997684291,1544.391074208,NaN,NaN
101,31,8,categorization,0,kitchen,SHINEd_sun_aegoxogugdkwpmpj.tif,80,0.0833333333333333,0.0666666666666667,1.75,1544.407509583,1544.993120375,9,1544.491010666,1544.556939208,1545.01290275,1546.756280166,NaN,NaN
101,32,8,categorization,0,kitchen,SHINEd_sun_aehawpgmrlhlvcow.tif,81,0.0833333333333333,0.0666666666666667,1.25,1546.767423291,1547.379307208,9,1546.850690875,1546.916549666,1547.406281333,1548.649656791,NaN,NaN
101,33,8,categorization,0,kitchen,SHINEd_sun_aarfiyshqohlwkmo.tif,67,0.0833333333333333,0.0666666666666667,1.05,1548.66611,1549.358846833,9,1548.748962583,1548.815223541,1549.388187166,1550.431569125,NaN,NaN
101,34,8,categorization,0,bathroom,SHINEd_sun_anryaplzeujmzfkd.tif,39,0.0833333333333333,0.0666666666666667,1.06666666666667,1550.449334416,1551.349630375,13,1550.528475291,1550.58876975,1551.357888791,1552.417940041,NaN,NaN
101,35,8,categorization,0,kitchen,SHINEd_sun_aamedkxepzlwuxes.tif,65,0.0833333333333333,0.0666666666666667,1.21666666666667,1552.428543625,1553.107412,9,1552.509658833,1552.576846958,1553.133215958,1554.343250583,NaN,NaN
101,36,8,categorization,0,kitchen,SHINEd_sun_ahdycvpopffkzzsu.tif,90,0.0833333333333333,0.0666666666666667,0.95,1554.359188125,1555.205290291,13,1554.438327291,1554.498906583,1555.2180445,1556.161382333,NaN,NaN
101,37,8,categorization,0,kitchen,SHINEd_sun_acfmftudsenhrfhy.tif,74,0.0833333333333333,0.0666666666666667,0.9,1556.166238791,1556.85354925,9,1556.24491375,1556.305509208,1556.857832333,1557.751171375,NaN,NaN
101,38,8,categorization,0,bathroom,SHINEd_sun_acegryoqftbzowsg.tif,17,0.0833333333333333,0.0666666666666667,1.78333333333333,1557.755926458,1559.038305416,13,1557.834288208,1557.89535125,1559.047918833,1560.824623708,NaN,NaN
101,39,8,categorization,0,bathroom,SHINEd_sun_alkosphxlxwjwgjd.tif,34,0.0833333333333333,0.0666666666666667,1.16666666666667,1560.840109041,1561.710204791,13,1560.924411958,1560.989359875,1561.728713083,1562.888744333,NaN,NaN
101,40,8,categorization,0,kitchen,SHINEd_sun_aaxxjlsuzvqlgylf.tif,68,0.0833333333333333,0.0666666666666667,0.783333333333333,1562.898161541,1563.900954625,9,1562.980827333,1563.047290541,1563.920360291,1564.697081416,NaN,NaN
101,41,8,categorization,0,kitchen,SHINEd_sun_amjjdeyrggfqgmom.tif,100,0.0833333333333333,0.0666666666666667,1.23333333333333,1564.712634125,1565.318203833,9,1564.795497916,1564.854112083,1565.323011416,1566.549719333,NaN,NaN
101,42,8,categorization,0,bathroom,SHINEd_sun_avhrdrntsqrjzccq.tif,55,0.0833333333333333,0.0666666666666667,0.9,1566.566242083,1567.350521583,13,1566.64953575,1566.715514791,1567.371838,1568.265219583,NaN,NaN
101,43,8,categorization,0,bathroom,SHINEd_sun_ambriybtogmepttm.tif,36,0.0833333333333333,0.0666666666666667,0.7,1568.282585583,1569.005504833,13,1568.362169875,1568.422058875,1569.024175958,1569.717513333,NaN,NaN
101,44,8,categorization,0,kitchen,SHINEd_sun_abrcnpqqhmjwekyf.tif,73,0.0833333333333333,0.0666666666666667,1.23333333333333,1569.722238333,1570.301732916,9,1569.800586958,1569.861603833,1570.313336541,1571.540052541,NaN,NaN
101,45,8,categorization,0,kitchen,SHINEd_sun_aqeaevwwwjoqhzvl.tif,101,0.0833333333333333,0.0666666666666667,1,1571.558444,1572.137890125,9,1571.642255583,1571.7076865,1572.16521175,1573.158582708,NaN,NaN
101,46,8,categorization,0,bathroom,SHINEd_sun_asfwthctfqerjvxr.tif,49,0.0833333333333333,0.0666666666666667,1.38333333333333,1573.175678125,1574.070147583,13,1573.259735666,1573.32538075,1574.077301916,1575.454013375,NaN,NaN
101,47,8,categorization,0,bathroom,SHINEd_sun_acduarbnmmoglmiv.tif,16,0.0833333333333333,0.0666666666666667,1.3,1575.471490666,1576.174696041,13,1575.555229625,1575.621121125,1576.194085625,1577.4874675,NaN,NaN
101,48,8,categorization,0,kitchen,SHINEd_sun_acwjdupvyjsugpay.tif,76,0.0833333333333333,0.0666666666666667,0.833333333333333,1577.500120583,1578.170052375,9,1577.583849,1577.649740291,1578.190085625,1579.016800875,NaN,NaN
101,49,8,categorization,0,bathroom,SHINEd_sun_agguqiubmwhqqunb.tif,22,0.0833333333333333,0.0666666666666667,0.95,1579.033102,1580.245752791,13,1579.116829041,1579.182772625,1580.251635833,1581.194974708,NaN,NaN
101,50,8,categorization,0,bathroom,SHINEd_sun_axldvoqbuvuggfmq.tif,57,0.0833333333333333,0.0666666666666667,1.43333333333333,1581.200327583,1581.885429875,13,1581.278859625,1581.339566791,1581.891609291,1583.318317208,NaN,NaN
101,1,9,categorization,0,bathroom,SHINEd_sun_abapwbhyhkfixyex.tif,14,0.0833333333333333,0.0666666666666667,1.08333333333333,1589.417914875,1590.429856708,9,1589.497147166,1589.557309583,1590.442527916,1591.519245916,NaN,NaN
101,2,9,categorization,0,bathroom,SHINEd_sun_agyqfjcfkdcydepw.tif,25,0.0833333333333333,0.0666666666666667,0.8,1591.527889,1592.518452541,9,1591.609233916,1591.6769365,1592.532411833,1593.325789875,NaN,NaN
101,3,9,categorization,0,kitchen,SHINEd_sun_agubuxuukhzyzpdp.tif,88,0.0833333333333333,0.0666666666666667,0.833333333333333,1593.340184,1594.174015041,9,1593.42355725,1593.481070416,1594.183105791,1595.009778083,NaN,NaN
101,4,9,categorization,0,bathroom,SHINEd_sun_ajlawzvmubibwbpy.tif,30,0.0833333333333333,0.0666666666666667,1.45,1595.015324,1595.773501666,13,1595.093767083,1595.154741541,1595.790307291,1597.233673291,NaN,NaN
101,5,9,categorization,0,bathroom,SHINEd_sun_asfwthctfqerjvxr.tif,49,0.0833333333333333,0.0666666666666667,1.3,1597.251995541,1597.881133333,13,1597.334054208,1597.401305916,1597.9078735,1599.2012485,NaN,NaN
101,6,9,categorization,0,kitchen,SHINEd_sun_aypmqwcualkenuoe.tif,109,0.0833333333333333,0.0666666666666667,1.21666666666667,1599.2176195,1599.825722166,13,1599.300790666,1599.367454458,1599.84019725,1601.050235083,NaN,NaN
101,7,9,categorization,0,bathroom,SHINEd_sun_avhrdrntsqrjzccq.tif,55,0.0833333333333333,0.0666666666666667,0.733333333333333,1601.066908583,1601.87284275,13,1601.150511291,1601.2161355,1601.8886945,1602.615417833,NaN,NaN
101,8,9,categorization,0,kitchen,SHINEd_labelme_rykdqxenmhulbdn.tif,63,0.0833333333333333,0.0666666666666667,1.03333333333333,1602.625254083,1603.206292375,9,1602.708701916,1602.774568708,1603.21050375,1604.237222875,NaN,NaN
101,9,9,categorization,0,bathroom,SHINEd_sun_aoybiabnpadelefl.tif,41,0.0833333333333333,0.0666666666666667,1.1,1604.245531333,1605.062213166,9,1604.326791916,1604.393333833,1605.082853208,1606.1762265,NaN,NaN
101,10,9,categorization,0,bathroom,SHINEd_sun_aunuadmjocsddsrl.tif,52,0.0833333333333333,0.0666666666666667,1.25,1606.191944708,1606.84584875,13,1606.275326875,1606.332867,1606.851214833,1608.094591875,NaN,NaN
101,11,9,categorization,0,bathroom,SHINEd_sun_apeeialkgkuxddgh.tif,42,0.0833333333333333,0.0666666666666667,1.4,1608.110940291,1608.768328208,13,1608.193714958,1608.2597745,1608.781983333,1610.175371416,NaN,NaN
101,12,9,categorization,0,bathroom,SHINEd_sun_atstyziqcmkahyxk.tif,51,0.0833333333333333,0.0666666666666667,1.43333333333333,1610.189713791,1610.847157833,13,1610.273161375,1610.339152416,1610.861212208,1612.287914083,NaN,NaN
101,13,9,categorization,0,kitchen,SHINEd_sun_admlmbcdswaszruo.tif,79,0.0833333333333333,0.0666666666666667,1.26666666666667,1612.304789,1612.982897958,9,1612.388009416,1612.453998,1613.010031041,1614.270077041,NaN,NaN
101,14,9,categorization,0,kitchen,SHINEd_sun_acfmftudsenhrfhy.tif,74,0.0833333333333333,0.0666666666666667,0.916666666666667,1614.286925291,1615.355333,9,1614.370100791,1614.436379,1615.376080833,1616.286120416,NaN,NaN
101,15,9,categorization,0,kitchen,SHINEd_sun_abpwyqmlzafvklqo.tif,72,0.0833333333333333,0.0666666666666667,1.05,1616.297758166,1617.109334208,9,1616.377218416,1616.437485416,1617.123142333,1618.166524708,NaN,NaN
101,16,9,categorization,0,bathroom,SHINEd_sun_axldvoqbuvuggfmq.tif,57,0.0833333333333333,0.0666666666666667,1.53333333333333,1618.176282416,1618.765106083,13,1618.257686625,1618.322142958,1618.7953065,1620.322024583,NaN,NaN
101,17,9,categorization,0,bathroom,SHINEd_sun_apjevzvycyhuqghb.tif,43,0.0833333333333333,0.0666666666666667,1.11666666666667,1620.332475375,1621.135743291,9,1620.415510958,1620.481637041,1621.154592166,1622.264636625,NaN,NaN
101,18,9,categorization,0,kitchen,SHINEd_sun_afuyedyxivkhecmu.tif,85,0.0833333333333333,0.0666666666666667,1.05,1622.28221925,1623.149948458,9,1622.365401791,1622.42310925,1623.1588405,1624.202225,NaN,NaN
101,19,9,categorization,0,kitchen,SHINEd_sun_abdenxonkemggwsq.tif,69,0.0833333333333333,0.0666666666666667,1.66666666666667,1624.210058166,1624.936074583,9,1624.291544416,1624.354788041,1624.961291958,1626.621339666,NaN,NaN
101,20,9,categorization,0,kitchen,SHINEd_sun_aaxxjlsuzvqlgylf.tif,68,0.0833333333333333,0.0666666666666667,1.98333333333333,1626.632236916,1627.276097833,13,1626.715803041,1626.781540416,1627.30431775,1629.281017958,NaN,NaN
101,21,9,categorization,0,kitchen,SHINEd_sun_aehawpgmrlhlvcow.tif,81,0.0833333333333333,0.0666666666666667,1.06666666666667,1629.298680708,1629.991361708,9,1629.381649666,1629.448326625,1630.003191791,1631.063246208,NaN,NaN
101,22,9,categorization,0,bathroom,SHINEd_sun_apmqjbnwghzuhhzh.tif,46,0.0833333333333333,0.0666666666666667,1.31666666666667,1631.072293708,1631.752644833,13,1631.153902,1631.219234791,1631.775824,1633.085860083,NaN,NaN
101,23,9,categorization,0,bathroom,SHINEd_sun_ambriybtogmepttm.tif,36,0.0833333333333333,0.0666666666666667,1.78333333333333,1633.0973065,1634.437335333,13,1633.175798541,1633.23670775,1634.455847791,1636.232558041,NaN,NaN
101,24,9,categorization,0,bathroom,SHINEd_sun_aapitsgbtktqubfy.tif,12,0.0833333333333333,0.0666666666666667,0.816666666666667,1636.2498945,1636.893385125,13,1636.333194666,1636.3989105,1636.921860958,1637.731867541,NaN,NaN
101,25,9,categorization,0,kitchen,SHINEd_sun_aixorpehvfykdynp.tif,95,0.0833333333333333,0.0666666666666667,0.933333333333333,1637.736669958,1638.397921416,9,1637.815066916,1637.876160333,1638.411185458,1639.337857791,NaN,NaN
101,26,9,categorization,0,kitchen,SHINEd_sun_aexklacwqwezaorf.tif,84,0.0833333333333333,0.0666666666666667,1.33333333333333,1639.342892416,1640.1577475,9,1639.421265833,1639.48243375,1640.167754666,1641.494453041,NaN,NaN
101,27,9,categorization,0,bathroom,SHINEd_sun_alotolagknyrgtsk.tif,35,0.0833333333333333,0.0666666666666667,0.833333333333333,1641.511887791,1642.201435208,9,1641.59471125,1641.661082416,1642.21673325,1643.043446625,NaN,NaN
101,28,9,categorization,0,kitchen,SHINEd_sun_acwjdupvyjsugpay.tif,76,0.0833333333333333,0.0666666666666667,0.933333333333333,1643.058696,1644.213738583,9,1643.142257,1643.207963333,1644.226895041,1645.153566833,NaN,NaN
101,29,9,categorization,0,bathroom,SHINEd_sun_aavhrsfjbserjtht.tif,13,0.0833333333333333,0.0666666666666667,1.85,1645.158020416,1645.805191125,13,1645.236331875,1645.297346041,1645.816045041,1647.659410541,NaN,NaN
101,30,9,categorization,0,bathroom,SHINEd_sun_akiytfaagpdsphgz.tif,31,0.0833333333333333,0.0666666666666667,0.966666666666667,1647.676463166,1648.69000775,13,1647.759282041,1647.82559625,1648.715243833,1649.675250208,NaN,NaN
101,31,9,categorization,0,kitchen,SHINEd_sun_aegoxogugdkwpmpj.tif,80,0.0833333333333333,0.0666666666666667,0.766666666666667,1649.680711208,1650.397813375,9,1649.759186041,1649.820049375,1650.405439125,1651.165444416,NaN,NaN
101,32,9,categorization,0,kitchen,SHINEd_sun_auaiucuqpdausiva.tif,102,0.0833333333333333,0.0666666666666667,1.15,1651.170997791,1651.893384083,9,1651.249620875,1651.310329916,1651.912437,1653.055821041,NaN,NaN
101,33,9,categorization,0,kitchen,SHINEd_sun_aapllqyqlykszopd.tif,66,0.0833333333333333,0.0666666666666667,0.75,1653.065122,1653.789419,9,1653.147716416,1653.214389,1653.803019416,1654.546384708,NaN,NaN
101,34,9,categorization,0,kitchen,SHINEd_sun_auticobqsbwgoppi.tif,104,0.0833333333333333,0.0666666666666667,0.9,1654.561492166,1656.05330475,9,1654.643733208,1654.710764958,1656.063111791,1656.956451208,NaN,NaN
101,35,9,categorization,0,bathroom,SHINEd_sun_alkosphxlxwjwgjd.tif,34,0.0833333333333333,0.0666666666666667,1.88333333333333,1656.961249708,1657.485529,13,1657.039639291,1657.100732291,1657.502546958,1659.379251375,NaN,NaN
101,36,9,categorization,0,kitchen,SHINEd_sun_abftihopvusyfakt.tif,71,0.0833333333333333,0.0666666666666667,1.65,1659.395679333,1660.070528208,9,1659.478976416,1659.545571708,1660.084554916,1661.727939083,NaN,NaN
101,37,9,categorization,0,bathroom,SHINEd_sun_anhioqovhscjqqwb.tif,38,0.0833333333333333,0.0666666666666667,0.816666666666667,1661.739872875,1662.35010075,13,1661.822899541,1661.888868916,1662.378583208,1663.188596375,NaN,NaN
101,38,9,categorization,0,kitchen,SHINEd_sun_aarfiyshqohlwkmo.tif,67,0.0833333333333333,0.0666666666666667,0.9,1663.194389416,1664.132752625,9,1663.272689,1663.333775416,1664.152250333,1665.04558925,NaN,NaN
101,39,9,categorization,0,bathroom,SHINEd_sun_ausgutylgojavyoq.tif,53,0.0833333333333333,0.0666666666666667,0.733333333333333,1665.0510235,1665.653021125,13,1665.12941575,1665.190373041,1665.658749125,1666.385420791,NaN,NaN
101,40,9,categorization,0,bathroom,SHINEd_sun_apkruvsevgegsdwp.tif,44,0.0833333333333333,0.0666666666666667,0.85,1666.391014083,1667.093238833,13,1666.46954875,1666.530417041,1667.099135,1667.942472125,NaN,NaN
101,41,9,categorization,0,kitchen,SHINEd_labelme_brsyyvweiuaazfr.tif,61,0.0833333333333333,0.0666666666666667,1.58333333333333,1667.947930958,1668.621109958,9,1668.026431958,1668.087237,1668.639067541,1670.215766333,NaN,NaN
101,42,9,categorization,0,bathroom,SHINEd_sun_acegryoqftbzowsg.tif,17,0.0833333333333333,0.0666666666666667,1.8,1670.232543833,1671.201602708,13,1670.315547916,1670.381917708,1671.221808916,1673.015182916,NaN,NaN
101,43,9,categorization,0,bathroom,SHINEd_sun_axyrejkiiaqiurjk.tif,59,0.0833333333333333,0.0666666666666667,1.3,1673.0329295,1673.662359125,9,1673.115964458,1673.181851375,1673.688048916,1674.981416458,NaN,NaN
101,44,9,categorization,0,kitchen,SHINEd_sun_aadbddgrdsjugojn.tif,64,0.0833333333333333,0.0666666666666667,0.766666666666667,1674.998612666,1675.833801416,9,1675.081775041,1675.147804208,1675.854228333,1676.61426325,NaN,NaN
101,45,9,categorization,0,kitchen,SHINEd_sun_aggjlwcdjsjcaemh.tif,86,0.0833333333333333,0.0666666666666667,1.15,1676.629887666,1677.269546583,13,1676.712801416,1676.77250425,1677.274508666,1678.41788175,NaN,NaN
101,46,9,categorization,0,bathroom,SHINEd_sun_ahaulkltgpkeeemi.tif,26,0.0833333333333333,0.0666666666666667,1.36666666666667,1678.427717,1679.024585875,13,1678.5108095,1678.5764985,1679.049500291,1680.409553916,NaN,NaN
101,47,9,categorization,0,kitchen,SHINEd_sun_ahspylgoovwmwvgk.tif,93,0.0833333333333333,0.0666666666666667,0.783333333333333,1680.427232208,1681.058918958,9,1680.510308,1680.576308083,1681.082631375,1681.859331791,NaN,NaN
101,48,9,categorization,0,bathroom,SHINEd_sun_afcoljnjfoxjtgja.tif,20,0.0833333333333333,0.0666666666666667,1.25,1681.875242958,1682.573061375,9,1681.958373666,1682.024186416,1682.59310375,1683.836470458,NaN,NaN
101,49,9,categorization,0,bathroom,SHINEd_sun_acgyywnybuveqsro.tif,18,0.0833333333333333,0.0666666666666667,1.5,1683.852367375,1684.354845125,13,1683.93533975,1684.000285791,1684.372753958,1685.866127416,NaN,NaN
101,50,9,categorization,0,kitchen,SHINEd_sun_akcjzhbbjlbogpdi.tif,99,0.0833333333333333,0.0666666666666667,1.03333333333333,1685.883141083,1686.465167708,9,1685.966916125,1686.031667375,1686.487914916,1687.51462875,NaN,NaN
