sub_num,trial,block,task,is_practice,category,image,texture,duration,mask_dur,jitter,stim_time,time_of_resp,trial_response,mask_time,fix_time,jit_onset,trial_end,trial_accuracy,RT
133,6,0,typicality,1,kitchen,kitchen_practice2.tif,227,1.5,0,0.966666666666667,2146.795239125,2152.651679,2,NaN,2152.674057333,2152.695279541,2153.655391916,NaN,NaN
133,7,0,typicality,1,kitchen,kitchen_practice5.tif,230,1.5,0,1.58333333333333,2153.666095333,2156.883772708,6,NaN,2156.893520875,2156.912503875,2158.489368583,NaN,NaN
133,8,0,typicality,1,kitchen,kitchen_practice1.tif,226,1.5,0,1.03333333333333,2158.518258416,2162.0118075,2,NaN,2162.0182975,2162.036765541,2163.06349025,NaN,NaN
133,9,0,typicality,1,kitchen,kitchen_practice4.tif,229,1.5,0,1.68333333333333,2163.084038208,2166.115307,5,NaN,2166.122369875,2166.140805208,2167.817562125,NaN,NaN
133,10,0,typicality,1,kitchen,kitchen_practice3.tif,228,1.5,0,1.45,2167.848753,2171.643508708,4,NaN,2171.652128125,2171.670522125,2173.11393325,NaN,NaN
133,1,1,typicality,0,kitchen,sun_agubuxuukhzyzpdp.tif,198,1.5,0,0.733333333333333,2179.076615083,2182.483806625,6,NaN,2182.489892375,2182.508279958,2183.234953375,NaN,NaN
133,2,1,typicality,0,kitchen,sun_ahpczsiumwwocjkv.tif,202,1.5,0,1.18333333333333,2183.239271208,2186.443749708,3,NaN,2186.449469916,2186.467876666,2187.644614166,NaN,NaN
133,3,1,typicality,0,kitchen,sun_aapllqyqlykszopd.tif,176,1.5,0,0.7,2187.653806458,2194.31563725,3,NaN,2194.321949,2194.34014275,2195.033482291,NaN,NaN
133,4,1,typicality,0,kitchen,sun_auaiucuqpdausiva.tif,212,1.5,0,1.2,2195.038062375,2197.855054333,5,NaN,2197.880665541,2197.903204166,2199.096634125,NaN,NaN
133,5,1,typicality,0,kitchen,sun_adgqasybjyktddhj.tif,188,1.5,0,0.966666666666667,2199.109371833,2202.483486875,6,NaN,2202.489009041,2202.507417416,2203.467425291,NaN,NaN
133,6,1,typicality,0,kitchen,sun_aaxxjlsuzvqlgylf.tif,178,1.5,0,1.3,2203.471680041,2207.723280166,3,NaN,2207.729138083,2207.74777175,2209.041191125,NaN,NaN
133,7,1,typicality,0,kitchen,labelme_kxvouciolcpqplr.tif,172,1.5,0,1.65,2209.059647833,2212.3711195,3,NaN,2212.37708425,2212.395452916,2214.038865458,NaN,NaN
133,8,1,typicality,0,kitchen,sun_amjjdeyrggfqgmom.tif,210,1.5,0,1.63333333333333,2214.05713625,2218.051639333,4,NaN,2218.057689791,2218.076106833,2219.702828125,NaN,NaN
133,9,1,typicality,0,kitchen,sun_acfmftudsenhrfhy.tif,184,1.5,0,0.9,2219.718725875,2223.875298,5,NaN,2223.880909375,2223.899124416,2224.792464958,NaN,NaN
133,10,1,typicality,0,kitchen,sun_aypmqwcualkenuoe.tif,219,1.5,0,0.95,2224.796945875,2229.067284583,4,NaN,2229.072825833,2229.091179083,2230.034520458,NaN,NaN
133,11,1,typicality,0,kitchen,sun_avszsnwsbuqfgzbn.tif,215,1.5,0,0.816666666666667,2230.047274458,2233.531152083,5,NaN,2233.536924375,2233.55539475,2234.365404,NaN,NaN
133,12,1,typicality,0,kitchen,sun_aarfiyshqohlwkmo.tif,177,1.5,0,1.96666666666667,2234.369925041,2238.347785083,3,NaN,2238.353526375,2238.371732708,2240.331811125,NaN,NaN
133,13,1,typicality,0,kitchen,sun_aeqdocilnnpuvuhx.tif,193,1.5,0,0.783333333333333,2240.342063083,2243.462403125,5,NaN,2243.492867625,2243.516440375,2244.293117458,NaN,NaN
133,14,1,typicality,0,kitchen,sun_ahdycvpopffkzzsu.tif,200,1.5,0,0.733333333333333,2244.298986833,2247.159917125,6,NaN,2247.189565041,2247.212922833,2247.939600166,NaN,NaN
133,15,1,typicality,0,kitchen,sun_acgtpgfybqjmzeyw.tif,185,1.5,0,1.9,2247.944505791,2250.526188875,6,NaN,2250.551457416,2250.575346208,2252.468735041,NaN,NaN
133,16,1,typicality,0,kitchen,sun_aqeaevwwwjoqhzvl.tif,211,1.5,0,0.75,2252.479609375,2255.923521666,3,NaN,2255.929021666,2255.947811916,2256.691153625,NaN,NaN
133,17,1,typicality,0,kitchen,sun_aenotlpyftoioydp.tif,192,1.5,0,0.916666666666667,2256.695453958,2265.611159875,4,NaN,2265.616800083,2265.635135791,2266.545145625,NaN,NaN
133,18,1,typicality,0,kitchen,sun_ajkqhtgcbgpcwrwn.tif,207,1.5,0,0.733333333333333,2266.549795916,2272.115560333,5,NaN,2272.121039333,2272.139426833,2272.8660995,NaN,NaN
133,19,1,typicality,0,kitchen,sun_acxkpeoqbwcxfvip.tif,187,1.5,0,1.81666666666667,2272.870377541,2276.354954416,5,NaN,2276.360557291,2276.378824041,2278.18892075,NaN,NaN
133,20,1,typicality,0,kitchen,labelme_rykdqxenmhulbdn.tif,173,1.5,0,1.16666666666667,2278.206618833,2282.898518,5,NaN,2282.904658333,2282.923022875,2284.083076875,NaN,NaN
133,21,1,typicality,0,kitchen,sun_agorklincwxrdtga.tif,197,1.5,0,1.81666666666667,2284.091690041,2287.123290125,5,NaN,2287.128795,2287.147642416,2288.957736375,NaN,NaN
133,22,1,typicality,0,kitchen,sun_aexklacwqwezaorf.tif,194,1.5,0,1.35,2288.975334666,2294.130799791,4,NaN,2294.136518583,2294.15481025,2295.498230083,NaN,NaN
133,23,1,typicality,0,kitchen,sun_ahywdevtimnqcsln.tif,204,1.5,0,1.25,2295.516032208,2299.475340083,2,NaN,2299.48085525,2299.499092208,2300.742499166,NaN,NaN
133,24,1,typicality,0,kitchen,sun_aamedkxepzlwuxes.tif,175,1.5,0,1.05,2300.760303625,2303.322643916,5,NaN,2303.328435833,2303.346898958,2304.390290416,NaN,NaN
133,25,1,typicality,0,kitchen,sun_ajcbwwvdlsvjyzje.tif,206,1.5,0,0.916666666666667,2304.398823833,2307.810845208,4,NaN,2307.816446583,2307.834744875,2308.744753208,NaN,NaN
133,1,2,typicality,0,kitchen,sun_awcpdzzznmweyyhv.tif,216,1.5,0,1.56666666666667,2312.69374975,2316.730829833,3,NaN,2316.736707625,2316.755172,2318.315267708,NaN,NaN
133,2,2,typicality,0,kitchen,sun_aegoxogugdkwpmpj.tif,190,1.5,0,0.883333333333333,2318.324959416,2321.962356,3,NaN,2321.968503916,2321.986882416,2322.863556416,NaN,NaN
133,3,2,typicality,0,kitchen,sun_aixorpehvfykdynp.tif,205,1.5,0,0.75,2322.868016041,2325.59946675,6,NaN,2325.628450708,2325.651818,2326.395158166,NaN,NaN
133,4,2,typicality,0,kitchen,sun_aehawpgmrlhlvcow.tif,191,1.5,0,1.23333333333333,2326.399949833,2331.195196041,3,NaN,2331.200618208,2331.219002875,2332.445755041,NaN,NaN
133,5,2,typicality,0,kitchen,sun_acwjdupvyjsugpay.tif,186,1.5,0,0.85,2332.455684708,2337.602422916,5,NaN,2337.609158541,2337.627550625,2338.470891625,NaN,NaN
133,6,2,typicality,0,kitchen,labelme_brsyyvweiuaazfr.tif,171,1.5,0,0.916666666666667,2338.475485166,2341.690957708,6,NaN,2341.69645925,2341.715222,2342.62523175,NaN,NaN
133,7,2,typicality,0,kitchen,sun_akchetnepxlcxhsu.tif,208,1.5,0,1.75,2342.629633541,2345.331675166,6,NaN,2345.360432708,2345.383899791,2347.127317666,NaN,NaN
133,8,2,typicality,0,kitchen,sun_ahljzhgcdpomplvg.tif,201,1.5,0,1.43333333333333,2347.147178458,2349.850532208,4,NaN,2349.87687425,2349.900727083,2351.327477333,NaN,NaN
133,9,2,typicality,0,kitchen,sun_abpwyqmlzafvklqo.tif,182,1.5,0,0.783333333333333,2351.34321475,2353.706599291,6,NaN,2353.712216333,2353.73071575,2354.507390666,NaN,NaN
133,10,2,typicality,0,kitchen,sun_axyyrmzcupyhlivc.tif,217,1.5,0,1.76666666666667,2354.513159666,2358.034204458,7,NaN,2358.04024275,2358.058522833,2359.818590625,NaN,NaN
133,11,2,typicality,0,kitchen,sun_auticobqsbwgoppi.tif,214,1.5,0,1.78333333333333,2359.836438666,2362.673709458,5,NaN,2362.704112708,2362.727727208,2364.504474083,NaN,NaN
133,12,2,typicality,0,kitchen,sun_aymvwlarqodbwuoc.tif,218,1.5,0,1.85,2364.524842708,2368.034214625,2,NaN,2368.040261583,2368.058678125,2369.902065791,NaN,NaN
133,13,2,typicality,0,kitchen,sun_ahspylgoovwmwvgk.tif,203,1.5,0,1.18333333333333,2369.917780875,2372.656421666,6,NaN,2372.685938208,2372.709934833,2373.886653708,NaN,NaN
133,14,2,typicality,0,kitchen,sun_aggjlwcdjsjcaemh.tif,196,1.5,0,1.01666666666667,2373.896407708,2377.235231833,3,NaN,2377.240867291,2377.259232166,2378.26932625,NaN,NaN
133,15,2,typicality,0,kitchen,sun_aunzlwrbjumxhwdj.tif,213,1.5,0,1.65,2378.27883,2381.082646041,1,NaN,2381.088313416,2381.10662025,2382.750023083,NaN,NaN
133,16,2,typicality,0,kitchen,sun_abrcnpqqhmjwekyf.tif,183,1.5,0,1.83333333333333,2382.769426916,2386.746702125,4,NaN,2386.752484291,2386.770935916,2388.597661416,NaN,NaN
133,17,2,typicality,0,kitchen,sun_agzzivivdpnawacl.tif,199,1.5,0,1.58333333333333,2388.617246916,2391.986057208,3,NaN,2392.015082166,2392.035342291,2393.612081791,NaN,NaN
133,18,2,typicality,0,kitchen,sun_abftihopvusyfakt.tif,181,1.5,0,1.85,2393.627231791,2396.970034583,4,NaN,2396.975954958,2396.994352333,2398.837773208,NaN,NaN
133,19,2,typicality,0,kitchen,sun_afuyedyxivkhecmu.tif,195,1.5,0,0.766666666666667,2398.854205333,2402.306349,3,NaN,2402.312184666,2402.330643666,2403.090653625,NaN,NaN
133,20,2,typicality,0,kitchen,sun_aadbddgrdsjugojn.tif,174,1.5,0,0.716666666666667,2403.095261833,2406.009866541,4,NaN,2406.036705166,2406.060069875,2406.770079583,NaN,NaN
133,21,2,typicality,0,kitchen,sun_azmutvzbxypaceni.tif,220,1.5,0,1.38333333333333,2406.774870833,2409.692545958,5,NaN,2409.718352333,2409.74194775,2411.118681916,NaN,NaN
133,22,2,typicality,0,kitchen,sun_abdxkyyxwfskuaqb.tif,180,1.5,0,0.866666666666667,2411.135402333,2413.738183291,6,NaN,2413.744105125,2413.762652166,2414.622662208,NaN,NaN
133,23,2,typicality,0,kitchen,sun_akcjzhbbjlbogpdi.tif,209,1.5,0,1.4,2414.626973708,2417.615573708,5,NaN,2417.645446041,2417.666820458,2419.060225125,NaN,NaN
133,24,2,typicality,0,kitchen,sun_admlmbcdswaszruo.tif,189,1.5,0,1,2419.079193333,2421.546199833,7,NaN,2421.552009916,2421.570291041,2422.563633083,NaN,NaN
133,25,2,typicality,0,kitchen,sun_abdenxonkemggwsq.tif,179,1.5,0,1.28333333333333,2422.567945041,2425.166043166,5,NaN,2425.194920416,2425.218347791,2426.495070416,NaN,NaN
