slide,sub1,sub2,pairID,trialID,stim1,stim2,instructionsLoop.thisRepN,instructionsLoop.thisTrialN,instructionsLoop.thisN,instructionsLoop.thisIndex,practice.thisRepN,practice.thisTrialN,practice.thisN,practice.thisIndex,trials.thisRepN,trials.thisTrialN,trials.thisN,trials.thisIndex,thisRow.t,notes,preparation.started,preparation.stopped,instructions.started,startResponse.started,slide_img.started,instructions.stopped,startResponse.keys,startResponse.rt,startResponse.duration,trial.started,polygon.started,polygon_2.started,image1.started,image2.started,rating_1.started,question.started,rating_2.started,question_2.started,block_text.started,trial.stopped,stim1pos,stim2pos,block,rating_1.response,rating_1.rt,rating_2.response,rating_2.rt,ITI.started,text.started,text.stopped,ITI.stopped,practice_over.started,text_2.started,space_practice_over.started,practice_over.stopped,space_practice_over.keys,space_practice_over.rt,space_practice_over.duration,breakBlocks.started,breakBlocks.stopped,startBlock.keys,startBlock.started,startBlock.rt,startBlock.duration,end.started,message_end.started,key_resp.started,end.stopped,key_resp.keys,key_resp.rt,key_resp.duration,participant,session,session_number,date,expName,psychopyVersion,frameRate,expStart,
instructions/Slide2.jpg,,,,,,,0,0,0,0,,,,,,,,,0.02683408400002918,,0.0018807920000654121,0.0020148340000787357,0.009276375000013104,0.02683408400002918,0.02683408400002918,16.000718249999977,space,15.973680541000022,None,,,,,,,,,,,,,,,,,,,,,,,,,,,,,,,,,,,,,,,,,,,206,kitchen,1,2024-03-15_10h58.15.636,image_similarity_rating,2023.2.3,None,2024-03-15 10h58.28.910800 +0100,
instructions/Slide3.jpg,,,,,,,0,1,1,1,,,,,,,,,16.024733834000017,,,,16.001515750000067,16.024733834000017,16.024733834000017,28.589444959000048,space,12.564519124999947,None,,,,,,,,,,,,,,,,,,,,,,,,,,,,,,,,,,,,,,,,,,,206,kitchen,1,2024-03-15_10h58.15.636,image_similarity_rating,2023.2.3,None,2024-03-15 10h58.28.910800 +0100,
instructions/Slide4.jpg,,,,,,,0,2,2,2,,,,,,,,,28.611011416999986,,,,28.589945458999978,28.611011416999986,28.611011416999986,31.051113708999992,space,2.4398440420000043,None,,,,,,,,,,,,,,,,,,,,,,,,,,,,,,,,,,,,,,,,,,,206,kitchen,1,2024-03-15_10h58.15.636,image_similarity_rating,2023.2.3,None,2024-03-15 10h58.28.910800 +0100,
instructions/Slide5.jpg,,,,,,,0,3,3,3,,,,,,,,,31.07352775000004,,,,31.051755709000076,31.07352775000004,31.07352775000004,43.12205308400007,space,12.048146875000043,None,,,,,,,,,,,,,,,,,,,,,,,,,,,,,,,,,,,,,,,,,,,206,kitchen,1,2024-03-15_10h58.15.636,image_similarity_rating,2023.2.3,None,2024-03-15 10h58.28.910800 +0100,
,128,108,practice,3,stimuli/own/kitchen/128_kit.jpg,stimuli/own/kitchen/108_kit.jpg,,,,,0,0,0,2,,,,,43.329440584000054,,,,,,,,,,,43.150539500000036,43.329440584000054,43.329440584000054,43.329440584000054,43.329440584000054,43.329440584000054,43.329440584000054,43.329440584000054,43.329440584000054,43.329440584000054,66.14476858400008,7,-7,0,4.0,17.966904166000063,6.0,21.55580170799999,66.14499191700008,66.149584334,66.60134049999999,66.434203959,,,,,,,,,,,,,,,,,,,,,206,kitchen,1,2024-03-15_10h58.15.636,image_similarity_rating,2023.2.3,None,2024-03-15 10h58.28.910800 +0100,
,108,110,practice,8,stimuli/own/kitchen/108_kit.jpg,stimuli/own/kitchen/110_kit.jpg,,,,,0,1,1,7,,,,,66.60134049999999,,,,,,,,,,,66.43461908400002,66.60134049999999,66.60134049999999,66.60134049999999,66.60134049999999,66.60134049999999,66.60134049999999,66.60134049999999,66.60134049999999,66.60134049999999,85.09871774999999,7,-7,0,2.0,12.149048417000017,4.0,17.37601262499993,85.09886637500006,85.10112120899998,85.54989987500005,85.38410233399998,,,,,,,,,,,,,,,,,,,,,206,kitchen,1,2024-03-15_10h58.15.636,image_similarity_rating,2023.2.3,None,2024-03-15 10h58.28.910800 +0100,
,128,133,practice,6,stimuli/own/kitchen/128_kit.jpg,stimuli/own/kitchen/133_kit.jpg,,,,,0,2,2,5,,,,,85.54989987500005,,,,,,,,,,,85.38450358400007,85.54989987500005,85.54989987500005,85.54989987500005,85.54989987500005,85.54989987500005,85.54989987500005,85.54989987500005,85.54989987500005,85.54989987500005,104.09865925000008,7,-7,0,4.0,11.337605208000014,5.0,17.149821249999945,104.09880295900007,104.10105325000006,104.54967975,104.38406974999998,,,,,,,,,,,,,,,,,,,,,206,kitchen,1,2024-03-15_10h58.15.636,image_similarity_rating,2023.2.3,None,2024-03-15 10h58.28.910800 +0100,
,107,133,practice,9,stimuli/own/kitchen/107_kit.jpg,stimuli/own/kitchen/133_kit.jpg,,,,,0,3,3,8,,,,,104.54967975,,,,,,,,,,,104.38448620899999,104.54967975,104.54967975,104.54967975,104.54967975,104.54967975,104.54967975,104.54967975,104.54967975,104.54967975,123.64805595899998,7,-7,0,3.0,7.563158416999954,4.0,18.076173125000082,123.64820616700001,123.65095116700002,124.103969667,123.93395095900007,,,,,,,,,,,,,,,,,,,,,206,kitchen,1,2024-03-15_10h58.15.636,image_similarity_rating,2023.2.3,None,2024-03-15 10h58.28.910800 +0100,
,108,133,practice,10,stimuli/own/kitchen/108_kit.jpg,stimuli/own/kitchen/133_kit.jpg,,,,,0,4,4,9,,,,,124.103969667,,,,,,,,,,,123.93445900000006,124.103969667,124.103969667,124.103969667,124.103969667,124.103969667,124.103969667,124.103969667,124.103969667,124.103969667,136.28500537500008,7,-7,0,4.0,6.802748250000036,5.0,10.972170290999998,136.28514791700002,136.28708337500007,136.737281167,136.571287417,,,,,,,,,,,,,,,,,,,,,206,kitchen,1,2024-03-15_10h58.15.636,image_similarity_rating,2023.2.3,None,2024-03-15 10h58.28.910800 +0100,
,107,108,practice,5,stimuli/own/kitchen/107_kit.jpg,stimuli/own/kitchen/108_kit.jpg,,,,,0,5,5,4,,,,,136.737281167,,,,,,,,,,,136.57167433400002,136.737281167,136.737281167,136.737281167,136.737281167,136.737281167,136.737281167,136.737281167,136.737281167,136.737281167,149.71023758400008,-7,7,0,3.0,8.254037750000066,7.0,12.024756875000094,149.71038325000006,149.71601054200005,150.16567575,150.00055266700008,,,,,,,,,,,,,,,,,,,,,206,kitchen,1,2024-03-15_10h58.15.636,image_similarity_rating,2023.2.3,None,2024-03-15 10h58.28.910800 +0100,
,110,133,practice,1,stimuli/own/kitchen/110_kit.jpg,stimuli/own/kitchen/133_kit.jpg,,,,,0,6,6,0,,,,,150.16567575,,,,,,,,,,,150.000978584,150.16567575,150.16567575,150.16567575,150.16567575,150.16567575,150.16567575,150.16567575,150.16567575,150.16567575,163.69361333400002,-7,7,0,2.0,7.255335625000043,4.0,12.226974791000089,163.693755292,163.69933466700002,164.155451459,163.98372949999998,,,,,,,,,,,,,,,,,,,,,206,kitchen,1,2024-03-15_10h58.15.636,image_similarity_rating,2023.2.3,None,2024-03-15 10h58.28.910800 +0100,
,107,128,practice,7,stimuli/own/kitchen/107_kit.jpg,stimuli/own/kitchen/128_kit.jpg,,,,,0,7,7,6,,,,,164.155451459,,,,,,,,,,,163.98422716700009,164.155451459,164.155451459,164.155451459,164.155451459,164.155451459,164.155451459,164.155451459,164.155451459,164.155451459,176.389132334,-7,7,0,3.0,10.98455862500009,7.0,4.894112707999966,176.38927275000003,176.39906395900005,176.85010725000006,176.68372633400008,,,,,,,,,,,,,,,,,,,,,206,kitchen,1,2024-03-15_10h58.15.636,image_similarity_rating,2023.2.3,None,2024-03-15 10h58.28.910800 +0100,
,110,128,practice,2,stimuli/own/kitchen/110_kit.jpg,stimuli/own/kitchen/128_kit.jpg,,,,,0,8,8,1,,,,,176.85010725000006,,,,,,,,,,,176.684171084,176.85010725000006,176.85010725000006,176.85010725000006,176.85010725000006,176.85010725000006,176.85010725000006,176.85010725000006,176.85010725000006,176.85010725000006,188.21820016700008,-7,7,0,4.0,6.727510374999952,6.0,10.14206595799999,188.21834375000003,188.22027912500005,188.66721900000005,188.50404670900002,,,,,,,,,,,,,,,,,,,,,206,kitchen,1,2024-03-15_10h58.15.636,image_similarity_rating,2023.2.3,None,2024-03-15 10h58.28.910800 +0100,
,110,107,practice,4,stimuli/own/kitchen/110_kit.jpg,stimuli/own/kitchen/107_kit.jpg,,,,,0,9,9,3,,,,,188.66721900000005,,,,,,,,,,,188.5044347500001,188.66721900000005,188.66721900000005,188.66721900000005,188.66721900000005,188.66721900000005,188.66721900000005,188.66721900000005,188.66721900000005,188.66721900000005,199.35150533400008,7,-7,0,2.0,6.7470622079999885,3.0,9.685894416999986,199.351647125,199.35339804199998,199.649682417,199.637728209,,,,,,,,,,,,,,,,,,,,,206,kitchen,1,2024-03-15_10h58.15.636,image_similarity_rating,2023.2.3,None,2024-03-15 10h58.28.910800 +0100,
,,,,,,,,,,,,,,,,,,,,,,,,,,,,,,,,,,,,,,,,,,,,,,,,,,,,199.63782520900008,199.649682417,199.649682417,202.50679654200007,space,2.8568043330000137,None,,,,,,,,,,,,,,206,kitchen,1,2024-03-15_10h58.15.636,image_similarity_rating,2023.2.3,None,2024-03-15 10h58.28.910800 +0100,
,102,116,44,44,stimuli/own/kitchen/102_kit.jpg,stimuli/own/kitchen/116_kit.jpg,,,,,,,,,0,0,0,43,202.55874229200003,,,,,,,,,,,202.850217209,203.031075,203.031075,203.031075,203.031075,203.031075,203.031075,203.031075,203.031075,203.031075,237.52643208400002,-7,7,1,4.0,22.82565175000002,3.0,33.680084416,202.55655487500007,202.55874229200003,203.031075,202.85020033400008,,,,,,,,202.54242750000003,202.55625491700005,None,,,,,,,,,,,206,kitchen,1,2024-03-15_10h58.15.636,image_similarity_rating,2023.2.3,None,2024-03-15 10h58.28.910800 +0100,
,116,117,320,320,stimuli/own/kitchen/116_kit.jpg,stimuli/own/kitchen/117_kit.jpg,,,,,,,,,0,1,1,319,237.53460274999998,,,,,,,,,,,237.821106084,237.99252883400004,237.99252883400004,237.99252883400004,237.99252883400004,237.99252883400004,237.99252883400004,237.99252883400004,237.99252883400004,237.99252883400004,246.45116474999998,7,-7,1,3.0,4.198304957999994,2.0,7.637438374999988,237.53288933400006,237.53460274999998,237.99252883400004,237.82109083400007,,,,,,,,237.52701345900005,237.532836417,None,,,,,,,,,,,206,kitchen,1,2024-03-15_10h58.15.636,image_similarity_rating,2023.2.3,None,2024-03-15 10h58.28.910800 +0100,
,122,125,445,445,stimuli/own/kitchen/122_kit.jpg,stimuli/own/kitchen/125_kit.jpg,,,,,,,,,0,2,2,444,246.456899917,,,,,,,,,,,246.74995420900007,246.914144459,246.914144459,246.914144459,246.914144459,246.914144459,246.914144459,246.914144459,246.914144459,246.914144459,265.930938834,-7,7,1,6.0,8.139161833000003,5.0,18.16549258300006,246.45496979200004,246.456899917,246.914144459,246.749940875,,,,,,,,246.4513905,246.45492283400006,None,,,,,,,,,,,206,kitchen,1,2024-03-15_10h58.15.636,image_similarity_rating,2023.2.3,None,2024-03-15 10h58.28.910800 +0100,
,104,136,125,125,stimuli/own/kitchen/104_kit.jpg,stimuli/own/kitchen/136_kit.jpg,,,,,,,,,0,3,3,124,265.93665287500005,,,,,,,,,,,266.220923084,266.389612917,266.389612917,266.389612917,266.389612917,266.389612917,266.389612917,266.389612917,266.389612917,266.389612917,275.61895375000006,7,-7,1,2.0,5.680155541999966,5.0,8.640445709000005,265.9347022090001,265.93665287500005,266.389612917,266.22090408400004,,,,,,,,265.931180959,265.934654,None,,,,,,,,,,,206,kitchen,1,2024-03-15_10h58.15.636,image_similarity_rating,2023.2.3,None,2024-03-15 10h58.28.910800 +0100,
,104,140,129,129,stimuli/own/kitchen/104_kit.jpg,stimuli/own/kitchen/140_kit.jpg,,,,,,,,,0,4,4,128,275.62461895900003,,,,,,,,,,,275.916681292,276.087541792,276.087541792,276.087541792,276.087541792,276.087541792,276.087541792,276.087541792,276.087541792,276.087541792,286.90094616700003,7,-7,1,3.0,6.791022084000019,5.0,9.751835208999978,275.622682584,275.62461895900003,276.087541792,275.916656042,,,,,,,,275.619176625,275.62263500000006,None,,,,,,,,,,,206,kitchen,1,2024-03-15_10h58.15.636,image_similarity_rating,2023.2.3,None,2024-03-15 10h58.28.910800 +0100,
,125,131,495,495,stimuli/own/kitchen/125_kit.jpg,stimuli/own/kitchen/131_kit.jpg,,,,,,,,,0,5,5,494,286.9068144590001,,,,,,,,,,,287.199850125,287.37026741700004,287.37026741700004,287.37026741700004,287.37026741700004,287.37026741700004,287.37026741700004,287.37026741700004,287.37026741700004,287.37026741700004,298.60954508400005,7,-7,1,2.0,7.594883874999937,3.0,10.759596750000014,286.904734375,286.9068144590001,287.37026741700004,287.19983341700004,,,,,,,,286.901168709,286.904687375,None,,,,,,,,,,,206,kitchen,1,2024-03-15_10h58.15.636,image_similarity_rating,2023.2.3,None,2024-03-15 10h58.28.910800 +0100,
,113,138,292,292,stimuli/own/kitchen/113_kit.jpg,stimuli/own/kitchen/138_kit.jpg,,,,,,,,,0,6,6,291,298.615008334,,,,,,,,,,,298.899703292,299.0638207090001,299.0638207090001,299.0638207090001,299.0638207090001,299.0638207090001,299.0638207090001,299.0638207090001,299.0638207090001,299.0638207090001,314.4258002920001,7,-7,1,4.0,14.681739458000038,1.0,7.365741916000047,298.6132485840001,298.615008334,299.0638207090001,298.899691459,,,,,,,,298.609769667,298.613201292,None,,,,,,,,,,,206,kitchen,1,2024-03-15_10h58.15.636,image_similarity_rating,2023.2.3,None,2024-03-15 10h58.28.910800 +0100,
,113,131,286,286,stimuli/own/kitchen/113_kit.jpg,stimuli/own/kitchen/131_kit.jpg,,,,,,,,,0,7,7,285,314.431693709,,,,,,,,,,,314.71649750000006,314.8815427090001,314.8815427090001,314.8815427090001,314.8815427090001,314.8815427090001,314.8815427090001,314.8815427090001,314.8815427090001,314.8815427090001,333.322043709,7,-7,1,2.0,16.188455291999958,1.0,17.745078082999953,314.42951741700006,314.431693709,314.8815427090001,314.71648437500005,,,,,,,,314.42602858400005,314.4294705,None,,,,,,,,,,,206,kitchen,1,2024-03-15_10h58.15.636,image_similarity_rating,2023.2.3,None,2024-03-15 10h58.28.910800 +0100,
,123,134,468,468,stimuli/own/kitchen/123_kit.jpg,stimuli/own/kitchen/134_kit.jpg,,,,,,,,,0,8,8,467,333.33178075,,,,,,,,,,,333.61692637500005,333.78291041700004,333.78291041700004,333.78291041700004,333.78291041700004,333.78291041700004,333.78291041700004,333.78291041700004,333.78291041700004,333.78291041700004,344.93935658400005,7,-7,1,2.0,7.3183638750000455,1.0,10.765090291999968,333.325753417,333.33178075,333.78291041700004,333.616912167,,,,,,,,333.322268709,333.3257070000001,None,,,,,,,,,,,206,kitchen,1,2024-03-15_10h58.15.636,image_similarity_rating,2023.2.3,None,2024-03-15 10h58.28.910800 +0100,
,120,138,421,421,stimuli/own/kitchen/120_kit.jpg,stimuli/own/kitchen/138_kit.jpg,,,,,,,,,0,9,9,420,344.94858183400004,,,,,,,,,,,345.2328855420001,345.4032026670001,345.4032026670001,345.4032026670001,345.4032026670001,345.4032026670001,345.4032026670001,345.4032026670001,345.4032026670001,345.4032026670001,359.767308167,7,-7,1,2.0,7.083693707999942,3.0,14.090039832999992,344.943210334,344.94858183400004,345.4032026670001,345.232868834,,,,,,,,344.939579,344.943162292,None,,,,,,,,,,,206,kitchen,1,2024-03-15_10h58.15.636,image_similarity_rating,2023.2.3,None,2024-03-15 10h58.28.910800 +0100,
,121,130,432,432,stimuli/own/kitchen/121_kit.jpg,stimuli/own/kitchen/130_kit.jpg,,,,,,,,,0,10,10,431,359.77313845900005,,,,,,,,,,,360.06624216700004,360.23460016700005,360.23460016700005,360.23460016700005,360.23460016700005,360.23460016700005,360.23460016700005,360.23460016700005,360.23460016700005,360.23460016700005,372.563350292,7,-7,1,2.0,6.814895416000013,3.0,12.105931292000037,359.77113666700006,359.77313845900005,360.23460016700005,360.06622537500004,,,,,,,,359.76753262500006,359.77108929200006,None,,,,,,,,,,,206,kitchen,1,2024-03-15_10h58.15.636,image_similarity_rating,2023.2.3,None,2024-03-15 10h58.28.910800 +0100,
,119,137,401,401,stimuli/own/kitchen/119_kit.jpg,stimuli/own/kitchen/137_kit.jpg,,,,,,,,,0,11,11,400,372.5691914590001,,,,,,,,,,,372.8538997090001,373.02325366700006,373.02325366700006,373.02325366700006,373.02325366700006,373.02325366700006,373.02325366700006,373.02325366700006,373.02325366700006,373.02325366700006,382.851332792,7,-7,1,2.0,9.19623716600006,5.0,4.508505291999995,372.567184417,372.5691914590001,373.02325366700006,372.85388516700004,,,,,,,,372.5635721670001,372.56713625,None,,,,,,,,,,,206,kitchen,1,2024-03-15_10h58.15.636,image_similarity_rating,2023.2.3,None,2024-03-15 10h58.28.910800 +0100,
,104,118,109,109,stimuli/own/kitchen/104_kit.jpg,stimuli/own/kitchen/118_kit.jpg,,,,,,,,,0,12,12,108,382.85699054200006,,,,,,,,,,,383.1494391670001,383.31553095900006,383.31553095900006,383.31553095900006,383.31553095900006,383.31553095900006,383.31553095900006,383.31553095900006,383.31553095900006,383.31553095900006,395.942475167,7,-7,1,3.0,9.67655420799997,2.0,12.377596750000066,382.855054375,382.85699054200006,383.31553095900006,383.14942366700006,,,,,,,,382.85155533400007,382.8550072500001,None,,,,,,,,,,,206,kitchen,1,2024-03-15_10h58.15.636,image_similarity_rating,2023.2.3,None,2024-03-15 10h58.28.910800 +0100,
,117,141,364,364,stimuli/own/kitchen/117_kit.jpg,stimuli/own/kitchen/141_kit.jpg,,,,,,,,,0,13,13,363,395.96473045900007,,,,,,,,,,,396.24872200000004,396.41501500000004,396.41501500000004,396.41501500000004,396.41501500000004,396.41501500000004,396.41501500000004,396.41501500000004,396.41501500000004,396.41501500000004,410.39707054200005,7,-7,1,2.0,10.445041749999973,4.0,13.813538666,395.946308959,395.96473045900007,,396.24870425000006,,,,,,,,395.942697834,395.94626137500006,None,,,,,,,,,,,206,kitchen,1,2024-03-15_10h58.15.636,image_similarity_rating,2023.2.3,None,2024-03-15 10h58.28.910800 +0100,
,136,139,583,600,stimuli/own/kitchen/136_kit.jpg,stimuli/own/kitchen/139_kit.jpg,,,,,,,,,0,14,14,599,410.402659125,,,,,,,,,,,410.686750792,410.85167112500005,410.85167112500005,410.85167112500005,410.85167112500005,410.85167112500005,410.85167112500005,410.85167112500005,410.85167112500005,410.85167112500005,424.2923490840001,7,-7,1,3.0,11.75667487499993,2.0,12.929169582999975,410.400905167,410.402659125,410.85167112500005,410.6867392500001,,,,,,,,410.3972932500001,410.40085654200004,None,,,,,,,,,,,206,kitchen,1,2024-03-15_10h58.15.636,image_similarity_rating,2023.2.3,None,2024-03-15 10h58.28.910800 +0100,
,125,140,503,503,stimuli/own/kitchen/125_kit.jpg,stimuli/own/kitchen/140_kit.jpg,,,,,,,,,0,15,15,502,424.297790459,,,,,,,,,,,424.582623667,424.74991658400006,424.74991658400006,424.74991658400006,424.74991658400006,424.74991658400006,424.74991658400006,424.74991658400006,424.74991658400006,424.74991658400006,437.95888083400007,7,-7,1,4.0,7.05782995800007,2.0,13.02396699999997,424.296046167,424.297790459,424.74991658400006,424.582607209,,,,,,,,424.292574792,424.29599933400004,None,,,,,,,,,,,206,kitchen,1,2024-03-15_10h58.15.636,image_similarity_rating,2023.2.3,None,2024-03-15 10h58.28.910800 +0100,
,109,112,191,191,stimuli/own/kitchen/109_kit.jpg,stimuli/own/kitchen/112_kit.jpg,,,,,,,,,0,16,16,190,437.964559667,,,,,,,,,,,438.249158834,438.4143482090001,438.4143482090001,438.4143482090001,438.4143482090001,438.4143482090001,438.4143482090001,438.4143482090001,438.4143482090001,438.4143482090001,448.7548199590001,-7,7,1,3.0,8.416203540999959,1.0,9.898146750000024,437.962576584,437.964559667,438.4143482090001,438.249145417,,,,,,,,437.959105542,437.962528875,None,,,,,,,,,,,206,kitchen,1,2024-03-15_10h58.15.636,image_similarity_rating,2023.2.3,None,2024-03-15 10h58.28.910800 +0100,
,106,130,179,179,stimuli/own/kitchen/106_kit.jpg,stimuli/own/kitchen/130_kit.jpg,,,,,,,,,0,17,17,178,448.764461125,,,,,,,,,,,449.04916312500006,449.215191,449.215191,449.215191,449.215191,449.215191,449.215191,449.215191,449.215191,449.215191,457.813175959,7,-7,1,2.0,5.814456624999934,4.0,8.328844375000017,448.75852487500003,448.764461125,449.215191,449.049147875,,,,,,,,448.75503979200005,448.75847825000005,None,,,,,,,,,,,206,kitchen,1,2024-03-15_10h58.15.636,image_similarity_rating,2023.2.3,None,2024-03-15 10h58.28.910800 +0100,
,120,139,422,422,stimuli/own/kitchen/120_kit.jpg,stimuli/own/kitchen/139_kit.jpg,,,,,,,,,0,18,18,421,457.8188754170001,,,,,,,,,,,458.102782125,458.26626375,458.26626375,458.26626375,458.26626375,458.26626375,458.26626375,458.26626375,458.26626375,458.26626375,465.292310584,7,-7,1,3.0,4.794583957999976,1.0,6.791136499999993,457.8169414590001,457.8188754170001,458.26626375,458.1027695,,,,,,,,457.813407459,457.816893875,None,,,,,,,,,,,206,kitchen,1,2024-03-15_10h58.15.636,image_similarity_rating,2023.2.3,None,2024-03-15 10h58.28.910800 +0100,
,118,120,366,366,stimuli/own/kitchen/118_kit.jpg,stimuli/own/kitchen/120_kit.jpg,,,,,,,,,0,19,19,365,465.314361459,,,,,,,,,,,465.59877229200004,465.7683182090001,465.7683182090001,465.7683182090001,465.7683182090001,465.7683182090001,465.7683182090001,465.7683182090001,465.7683182090001,465.7683182090001,474.875506834,7,-7,1,5.0,4.875808250000091,2.0,8.921915582999986,465.296098334,465.314361459,,465.59874979200004,,,,,,,,465.292534292,465.29605104200004,None,,,,,,,,,,,206,kitchen,1,2024-03-15_10h58.15.636,image_similarity_rating,2023.2.3,None,2024-03-15 10h58.28.910800 +0100,
,109,125,203,203,stimuli/own/kitchen/109_kit.jpg,stimuli/own/kitchen/125_kit.jpg,,,,,,,,,0,20,20,202,474.8809234590001,,,,,,,,,,,475.166181834,475.3294480420001,475.3294480420001,475.3294480420001,475.3294480420001,475.3294480420001,475.3294480420001,475.3294480420001,475.3294480420001,475.3294480420001,486.07560820900005,-7,7,1,2.0,7.091764375000025,4.0,10.422671666000042,474.87919891700005,474.8809234590001,475.3294480420001,475.166169167,,,,,,,,474.875729375,474.879151459,None,,,,,,,,,,,206,kitchen,1,2024-03-15_10h58.15.636,image_similarity_rating,2023.2.3,None,2024-03-15 10h58.28.910800 +0100,
,111,113,219,219,stimuli/own/kitchen/111_kit.jpg,stimuli/own/kitchen/113_kit.jpg,,,,,,,,,0,21,21,218,486.097911459,,,,,,,,,,,486.38185995900005,486.55097412500004,486.55097412500004,486.55097412500004,486.55097412500004,486.55097412500004,486.55097412500004,486.55097412500004,486.55097412500004,486.55097412500004,496.50869083400005,-7,7,1,3.0,9.932368084000018,2.0,4.579900707999968,486.0793096670001,486.097911459,,486.381840625,,,,,,,,486.075832,486.079262167,None,,,,,,,,,,,206,kitchen,1,2024-03-15_10h58.15.636,image_similarity_rating,2023.2.3,None,2024-03-15 10h58.28.910800 +0100,
,114,139,317,317,stimuli/own/kitchen/114_kit.jpg,stimuli/own/kitchen/139_kit.jpg,,,,,,,,,0,22,22,316,496.53121654200004,,,,,,,,,,,496.81522925,496.979515334,496.979515334,496.979515334,496.979515334,496.979515334,496.979515334,496.979515334,496.979515334,496.979515334,504.537294709,-7,7,1,3.0,4.925899542000025,1.0,7.210710625000047,496.51247620900006,496.53121654200004,,496.81520654200006,,,,,,,,496.508914,496.512428959,None,,,,,,,,,,,206,kitchen,1,2024-03-15_10h58.15.636,image_similarity_rating,2023.2.3,None,2024-03-15 10h58.28.910800 +0100,
,106,114,165,165,stimuli/own/kitchen/106_kit.jpg,stimuli/own/kitchen/114_kit.jpg,,,,,,,,,0,23,23,164,504.54751020900005,,,,,,,,,,,504.83233733400004,504.99990241700004,504.99990241700004,504.99990241700004,504.99990241700004,504.99990241700004,504.99990241700004,504.99990241700004,504.99990241700004,504.99990241700004,513.5963292089999,7,-7,1,4.0,8.218587833000015,1.0,4.659253916999887,504.541011917,504.54751020900005,504.99990241700004,504.83231250000006,,,,,,,,504.5375215,504.540964625,None,,,,,,,,,,,206,kitchen,1,2024-03-15_10h58.15.636,image_similarity_rating,2023.2.3,None,2024-03-15 10h58.28.910800 +0100,
,102,126,54,54,stimuli/own/kitchen/102_kit.jpg,stimuli/own/kitchen/126_kit.jpg,,,,,,,,,0,24,24,53,513.6021099590001,,,,,,,,,,,513.885946209,514.04989775,514.04989775,514.04989775,514.04989775,514.04989775,514.04989775,514.04989775,514.04989775,514.04989775,523.5709914590001,-7,7,1,2.0,5.8722492910001165,4.0,9.390611125000078,513.6001702920001,513.6021099590001,514.04989775,513.885933209,,,,,,,,513.5965688750001,513.60012275,None,,,,,,,,,,,206,kitchen,1,2024-03-15_10h58.15.636,image_similarity_rating,2023.2.3,None,2024-03-15 10h58.28.910800 +0100,
,105,124,145,145,stimuli/own/kitchen/105_kit.jpg,stimuli/own/kitchen/124_kit.jpg,,,,,,,,,0,25,25,144,523.580841375,,,,,,,,,,,523.8654936670001,524.03201875,524.03201875,524.03201875,524.03201875,524.03201875,524.03201875,524.03201875,524.03201875,524.03201875,534.004382917,-7,7,1,2.0,5.190647874999968,3.0,7.372083875000044,523.5746795840001,523.580841375,524.03201875,523.8654782500001,,,,,,,,523.5712130420001,523.5746325840001,None,,,,,,,,,,,206,kitchen,1,2024-03-15_10h58.15.636,image_similarity_rating,2023.2.3,None,2024-03-15 10h58.28.910800 +0100,
,130,131,541,541,stimuli/own/kitchen/130_kit.jpg,stimuli/own/kitchen/131_kit.jpg,,,,,,,,,0,26,26,540,534.0144027090001,,,,,,,,,,,534.2986822500001,534.463078417,534.463078417,534.463078417,534.463078417,534.463078417,534.463078417,534.463078417,534.463078417,534.463078417,544.1165690839999,-7,7,1,2.0,7.2392032919999565,3.0,9.479190417000154,534.0081777500001,534.0144027090001,534.463078417,534.298665875,,,,,,,,534.004607125,534.0081303339999,None,,,,,,,,,,,206,kitchen,1,2024-03-15_10h58.15.636,image_similarity_rating,2023.2.3,None,2024-03-15 10h58.28.910800 +0100,
,109,140,216,216,stimuli/own/kitchen/109_kit.jpg,stimuli/own/kitchen/140_kit.jpg,,,,,,,,,0,27,27,215,544.122284084,,,,,,,,,,,544.4154011250001,544.5840192500001,544.5840192500001,544.5840192500001,544.5840192500001,544.5840192500001,544.5840192500001,544.5840192500001,544.5840192500001,544.5840192500001,557.099985167,-7,7,1,3.0,10.214889832999916,1.0,12.15304633400001,544.120360625,544.122284084,544.5840192500001,544.415384584,,,,,,,,544.1167918340001,544.120313709,None,,,,,,,,,,,206,kitchen,1,2024-03-15_10h58.15.636,image_similarity_rating,2023.2.3,None,2024-03-15 10h58.28.910800 +0100,
,131,137,555,555,stimuli/own/kitchen/131_kit.jpg,stimuli/own/kitchen/137_kit.jpg,,,,,,,,,0,28,28,554,557.105463667,,,,,,,,,,,557.3986343340001,557.5621777919999,557.5621777919999,557.5621777919999,557.5621777919999,557.5621777919999,557.5621777919999,557.5621777919999,557.5621777919999,557.5621777919999,567.8039145420001,7,-7,1,2.0,6.578996582999935,4.0,10.081011332999879,557.103685792,557.105463667,557.5621777919999,557.3986214590001,,,,,,,,557.100208167,557.10363825,None,,,,,,,,,,,206,kitchen,1,2024-03-15_10h58.15.636,image_similarity_rating,2023.2.3,None,2024-03-15 10h58.28.910800 +0100,
,136,138,582,582,stimuli/own/kitchen/136_kit.jpg,stimuli/own/kitchen/138_kit.jpg,,,,,,,,,0,29,29,581,567.8141309169999,,,,,,,,,,,568.098682792,568.263690917,568.263690917,568.263690917,568.263690917,568.263690917,568.263690917,568.263690917,568.263690917,568.263690917,576.1540867090001,-7,7,1,4.0,5.150122833999831,2.0,7.7168315839999195,567.807618292,567.8141309169999,568.263690917,568.0986691250001,,,,,,,,567.8041346250001,567.8075709999999,None,,,,,,,,,,,206,kitchen,1,2024-03-15_10h58.15.636,image_similarity_rating,2023.2.3,None,2024-03-15 10h58.28.910800 +0100,
,127,132,521,521,stimuli/own/kitchen/127_kit.jpg,stimuli/own/kitchen/132_kit.jpg,,,,,,,,,0,30,30,520,576.164114584,,,,,,,,,,,576.4486688339999,576.6136856250001,576.6136856250001,576.6136856250001,576.6136856250001,576.6136856250001,576.6136856250001,576.6136856250001,576.6136856250001,576.6136856250001,585.6914257090001,-7,7,1,4.0,7.78344145799997,1.0,8.897647374999906,576.1577659590001,576.164114584,576.6136856250001,576.448652167,,,,,,,,576.1543115840001,576.1577189590001,None,,,,,,,,,,,206,kitchen,1,2024-03-15_10h58.15.636,image_similarity_rating,2023.2.3,None,2024-03-15 10h58.28.910800 +0100,
,102,106,38,38,stimuli/own/kitchen/102_kit.jpg,stimuli/own/kitchen/106_kit.jpg,,,,,,,,,0,31,31,37,585.6974435840001,,,,,,,,,,,585.9817650000001,586.1465167090001,586.1465167090001,586.1465167090001,586.1465167090001,586.1465167090001,586.1465167090001,586.1465167090001,586.1465167090001,586.1465167090001,594.308203959,7,-7,1,3.0,4.607315374999871,4.0,7.998724708000054,585.695125584,585.6974435840001,586.1465167090001,585.9817509590001,,,,,,,,585.6916492500001,585.6950787920001,None,,,,,,,,,,,206,kitchen,1,2024-03-15_10h58.15.636,image_similarity_rating,2023.2.3,None,2024-03-15 10h58.28.910800 +0100,
,113,126,282,282,stimuli/own/kitchen/113_kit.jpg,stimuli/own/kitchen/126_kit.jpg,,,,,,,,,0,32,32,281,594.313720209,,,,,,,,,,,594.5984220839999,594.76306425,594.76306425,594.76306425,594.76306425,594.76306425,594.76306425,594.76306425,594.76306425,594.76306425,602.804006125,7,-7,1,3.0,6.86440883399996,1.0,7.904880958000149,594.3119707500001,594.313720209,594.76306425,594.598408959,,,,,,,,594.308424875,594.311923959,None,,,,,,,,,,,206,kitchen,1,2024-03-15_10h58.15.636,image_similarity_rating,2023.2.3,None,2024-03-15 10h58.28.910800 +0100,
,104,106,101,101,stimuli/own/kitchen/104_kit.jpg,stimuli/own/kitchen/106_kit.jpg,,,,,,,,,0,33,33,100,602.813990834,,,,,,,,,,,603.0987062089999,603.270510084,603.270510084,603.270510084,603.270510084,603.270510084,603.270510084,603.270510084,603.270510084,603.270510084,611.9996050840001,-7,7,1,2.0,6.666407417000073,4.0,8.531514499999957,602.8076997090001,602.813990834,603.270510084,603.0986851670001,,,,,,,,602.804235,602.807652542,None,,,,,,,,,,,206,kitchen,1,2024-03-15_10h58.15.636,image_similarity_rating,2023.2.3,None,2024-03-15 10h58.28.910800 +0100,
,120,140,423,423,stimuli/own/kitchen/120_kit.jpg,stimuli/own/kitchen/140_kit.jpg,,,,,,,,,0,34,34,422,612.0052262089999,,,,,,,,,,,612.2984687090001,612.4662064170001,612.4662064170001,612.4662064170001,612.4662064170001,612.4662064170001,612.4662064170001,612.4662064170001,612.4662064170001,612.4662064170001,620.657870917,7,-7,1,3.0,4.529222375000018,2.0,8.043163875000118,612.003298834,612.0052262089999,612.4662064170001,612.2984527500001,,,,,,,,611.999829667,612.003251625,None,,,,,,,,,,,206,kitchen,1,2024-03-15_10h58.15.636,image_similarity_rating,2023.2.3,None,2024-03-15 10h58.28.910800 +0100,
,113,132,287,287,stimuli/own/kitchen/113_kit.jpg,stimuli/own/kitchen/132_kit.jpg,,,,,,,,,0,35,35,286,620.6634212499999,,,,,,,,,,,620.9484935419999,621.118022584,621.118022584,621.118022584,621.118022584,621.118022584,621.118022584,621.118022584,621.118022584,621.118022584,628.6667818340001,7,-7,1,2.0,5.053168040999935,4.0,7.436414541999966,620.6616318750001,620.6634212499999,621.118022584,620.948476875,,,,,,,,620.6580955840001,620.661585042,None,,,,,,,,,,,206,kitchen,1,2024-03-15_10h58.15.636,image_similarity_rating,2023.2.3,None,2024-03-15 10h58.28.910800 +0100,
,109,116,194,194,stimuli/own/kitchen/109_kit.jpg,stimuli/own/kitchen/116_kit.jpg,,,,,,,,,0,36,36,193,628.6723551250001,,,,,,,,,,,628.9650002920001,629.130661459,629.130661459,629.130661459,629.130661459,629.130661459,629.130661459,629.130661459,629.130661459,629.130661459,638.274583625,7,-7,1,4.0,5.153269582999883,6.0,8.470262750000074,628.6705755419999,628.6723551250001,629.130661459,628.964985709,,,,,,,,628.667013334,628.6705262920001,None,,,,,,,,,,,206,kitchen,1,2024-03-15_10h58.15.636,image_similarity_rating,2023.2.3,None,2024-03-15 10h58.28.910800 +0100,
,124,125,476,476,stimuli/own/kitchen/124_kit.jpg,stimuli/own/kitchen/125_kit.jpg,,,,,,,,,0,37,37,475,638.2800860420001,,,,,,,,,,,638.564936875,638.729808959,638.729808959,638.729808959,638.729808959,638.729808959,638.729808959,638.729808959,638.729808959,638.729808959,653.833409834,-7,7,1,2.0,12.236587375,3.0,14.910483832999944,638.2782590840001,638.2800860420001,638.729808959,638.564923042,,,,,,,,638.274804709,638.2782116249999,None,,,,,,,,,,,206,kitchen,1,2024-03-15_10h58.15.636,image_similarity_rating,2023.2.3,None,2024-03-15 10h58.28.910800 +0100,
,124,140,489,489,stimuli/own/kitchen/124_kit.jpg,stimuli/own/kitchen/140_kit.jpg,,,,,,,,,0,38,38,488,653.839003959,,,,,,,,,,,654.131716709,654.2981552090001,654.2981552090001,654.2981552090001,654.2981552090001,654.2981552090001,654.2981552090001,654.2981552090001,654.2981552090001,654.2981552090001,667.516077417,-7,7,1,2.0,10.469227917000126,1.0,13.043980666999914,653.8370775,653.839003959,654.2981552090001,654.131697167,,,,,,,,653.8336337090001,653.8370305,None,,,,,,,,,,,206,kitchen,1,2024-03-15_10h58.15.636,image_similarity_rating,2023.2.3,None,2024-03-15 10h58.28.910800 +0100,
,112,137,266,266,stimuli/own/kitchen/112_kit.jpg,stimuli/own/kitchen/137_kit.jpg,,,,,,,,,0,39,39,265,667.5215770420001,,,,,,,,,,,667.814839042,667.9825730840001,667.9825730840001,667.9825730840001,667.9825730840001,667.9825730840001,667.9825730840001,667.9825730840001,667.9825730840001,667.9825730840001,677.4033499999999,7,-7,1,2.0,7.844813708000174,4.0,9.248186875000101,667.5197608340001,667.5215770420001,667.9825730840001,667.8148233339999,,,,,,,,667.5163005840001,667.5197145000001,None,,,,,,,,,,,206,kitchen,1,2024-03-15_10h58.15.636,image_similarity_rating,2023.2.3,None,2024-03-15 10h58.28.910800 +0100,
,137,140,588,588,stimuli/own/kitchen/137_kit.jpg,stimuli/own/kitchen/140_kit.jpg,,,,,,,,,0,40,40,587,677.413741209,,,,,,,,,,,677.6980701250001,677.864270959,677.864270959,677.864270959,677.864270959,677.864270959,677.864270959,677.864270959,677.864270959,677.864270959,688.8034650000001,7,-7,1,1.0,7.827648375000081,2.0,10.740094499999941,677.407051,677.413741209,677.864270959,677.6980540840001,,,,,,,,677.403573292,677.4070041250001,None,,,,,,,,,,,206,kitchen,1,2024-03-15_10h58.15.636,image_similarity_rating,2023.2.3,None,2024-03-15 10h58.28.910800 +0100,
,112,132,262,610,stimuli/own/kitchen/112_kit.jpg,stimuli/own/kitchen/132_kit.jpg,,,,,,,,,0,41,41,609,688.81349175,,,,,,,,,,,689.098093875,689.262248292,689.262248292,689.262248292,689.262248292,689.262248292,689.262248292,689.262248292,689.262248292,689.262248292,698.799198459,7,-7,1,3.0,6.923557374999973,1.0,9.251533333999987,688.807144834,688.81349175,689.262248292,689.098081167,,,,,,,,688.8036866670001,688.8070974589999,None,,,,,,,,,,,206,kitchen,1,2024-03-15_10h58.15.636,image_similarity_rating,2023.2.3,None,2024-03-15 10h58.28.910800 +0100,
,109,124,202,202,stimuli/own/kitchen/109_kit.jpg,stimuli/own/kitchen/124_kit.jpg,,,,,,,,,0,42,42,201,698.80478725,,,,,,,,,,,699.0980833750001,699.2634823750001,699.2634823750001,699.2634823750001,699.2634823750001,699.2634823750001,699.2634823750001,699.2634823750001,699.2634823750001,699.2634823750001,707.625047209,-7,7,1,1.0,6.728000832999896,1.0,8.199880957999994,698.802874542,698.80478725,699.2634823750001,699.098068209,,,,,,,,698.7994225420001,698.8028276670001,None,,,,,,,,,,,206,kitchen,1,2024-03-15_10h58.15.636,image_similarity_rating,2023.2.3,None,2024-03-15 10h58.28.910800 +0100,
,136,139,583,583,stimuli/own/kitchen/136_kit.jpg,stimuli/own/kitchen/139_kit.jpg,,,,,,,,,0,43,43,582,707.6467678340001,,,,,,,,,,,707.930865125,708.09586075,708.09586075,708.09586075,708.09586075,708.09586075,708.09586075,708.09586075,708.09586075,708.09586075,714.6865388750001,7,-7,1,3.0,3.8125603339999543,1.0,6.267541333000054,707.628733875,707.6467678340001,,707.930844584,,,,,,,,707.625271167,707.628687542,None,,,,,,,,,,,206,kitchen,1,2024-03-15_10h58.15.636,image_similarity_rating,2023.2.3,None,2024-03-15 10h58.28.910800 +0100,
,138,140,591,591,stimuli/own/kitchen/138_kit.jpg,stimuli/own/kitchen/140_kit.jpg,,,,,,,,,0,44,44,590,714.69687375,,,,,,,,,,,714.981354875,715.150504375,715.150504375,715.150504375,715.150504375,715.150504375,715.150504375,715.150504375,715.150504375,715.150504375,723.353108375,-7,7,1,3.0,5.428725708000002,1.0,7.903271207999978,714.6903250000001,714.69687375,715.150504375,714.981338792,,,,,,,,714.6867637920001,714.6902778340001,None,,,,,,,,,,,206,kitchen,1,2024-03-15_10h58.15.636,image_similarity_rating,2023.2.3,None,2024-03-15 10h58.28.910800 +0100,
,118,134,378,378,stimuli/own/kitchen/118_kit.jpg,stimuli/own/kitchen/134_kit.jpg,,,,,,,,,0,45,45,377,723.363416584,,,,,,,,,,,723.648013417,723.8185972919999,723.8185972919999,723.8185972919999,723.8185972919999,723.8185972919999,723.8185972919999,723.8185972919999,723.8185972919999,723.8185972919999,733.8408800000001,-7,7,1,2.0,6.355699707999975,3.0,9.848899958000175,723.3571344170001,723.363416584,723.8185972919999,723.6479929590001,,,,,,,,723.3533330000001,723.3570847920001,None,,,,,,,,,,,206,kitchen,1,2024-03-15_10h58.15.636,image_similarity_rating,2023.2.3,None,2024-03-15 10h58.28.910800 +0100,
,116,126,329,329,stimuli/own/kitchen/116_kit.jpg,stimuli/own/kitchen/126_kit.jpg,,,,,,,,,0,46,46,328,733.863563542,,,,,,,,,,,734.1475470000001,734.3124273750001,734.3124273750001,734.3124273750001,734.3124273750001,734.3124273750001,734.3124273750001,734.3124273750001,734.3124273750001,734.3124273750001,742.2747889589999,-7,7,1,1.0,6.412053083000046,3.0,7.7359042919999865,733.844874667,733.863563542,,734.147528375,,,,,,,,733.8411146249999,733.8448245000001,None,,,,,,,,,,,206,kitchen,1,2024-03-15_10h58.15.636,image_similarity_rating,2023.2.3,None,2024-03-15 10h58.28.910800 +0100,
,103,119,79,79,stimuli/own/kitchen/103_kit.jpg,stimuli/own/kitchen/119_kit.jpg,,,,,,,,,0,47,47,78,742.296839,,,,,,,,,,,742.5809592090001,742.7461275,742.7461275,742.7461275,742.7461275,742.7461275,742.7461275,742.7461275,742.7461275,742.7461275,750.4824218750001,-7,7,1,2.0,6.330191125000056,4.0,7.526630249999926,742.278567834,742.296839,,742.580940209,,,,,,,,742.2750099169999,742.278520667,None,,,,,,,,,,,206,kitchen,1,2024-03-15_10h58.15.636,image_similarity_rating,2023.2.3,None,2024-03-15 10h58.28.910800 +0100,
,127,135,523,523,stimuli/own/kitchen/127_kit.jpg,stimuli/own/kitchen/135_kit.jpg,,,,,,,,,0,48,48,522,750.488276834,,,,,,,,,,,750.781151667,750.947721459,750.947721459,750.947721459,750.947721459,750.947721459,750.947721459,750.947721459,750.947721459,750.947721459,758.7410686669999,7,-7,1,2.0,5.952574542000093,5.0,7.413562333000073,750.486348667,750.488276834,750.947721459,750.781136042,,,,,,,,750.4826433750001,750.4862991250001,None,,,,,,,,,,,206,kitchen,1,2024-03-15_10h58.15.636,image_similarity_rating,2023.2.3,None,2024-03-15 10h58.28.910800 +0100,
,122,123,443,443,stimuli/own/kitchen/122_kit.jpg,stimuli/own/kitchen/123_kit.jpg,,,,,,,,,0,49,49,442,758.7634696670001,,,,,,,,,,,759.047387917,759.212760709,759.212760709,759.212760709,759.212760709,759.212760709,759.212760709,759.212760709,759.212760709,759.212760709,769.178657709,-7,7,1,2.0,7.513994542000091,5.0,9.729379832999939,758.744758209,758.7634696670001,,759.047362167,,,,,,,,758.7412937089999,758.7447108750001,None,,,,,,,,,,,206,kitchen,1,2024-03-15_10h58.15.636,image_similarity_rating,2023.2.3,None,2024-03-15 10h58.28.910800 +0100,
,106,134,182,182,stimuli/own/kitchen/106_kit.jpg,stimuli/own/kitchen/134_kit.jpg,,,,,,,,,0,50,50,181,769.1843109170001,,,,,,,,,,,769.4686668749999,769.636185042,769.636185042,769.636185042,769.636185042,769.636185042,769.636185042,769.636185042,769.636185042,769.636185042,777.941091459,7,-7,1,2.0,6.175680249999914,5.0,8.081831040999987,769.182375042,769.1843109170001,769.636185042,769.4686497920001,,,,,,,,769.1789069170001,769.1823270840001,None,,,,,,,,,,,206,kitchen,1,2024-03-15_10h58.15.636,image_similarity_rating,2023.2.3,None,2024-03-15 10h58.28.910800 +0100,
,104,126,117,117,stimuli/own/kitchen/104_kit.jpg,stimuli/own/kitchen/126_kit.jpg,,,,,,,,,0,51,51,116,777.9633735000001,,,,,,,,,,,778.2473495840001,778.4175193340001,778.4175193340001,778.4175193340001,778.4175193340001,778.4175193340001,778.4175193340001,778.4175193340001,778.4175193340001,778.4175193340001,788.1573997090001,-7,7,1,4.0,7.011755499999936,6.0,9.455109832999824,777.9447603750001,777.9633735000001,,778.247329334,,,,,,,,777.9413150419999,777.944713625,None,,,,,,,,,,,206,kitchen,1,2024-03-15_10h58.15.636,image_similarity_rating,2023.2.3,None,2024-03-15 10h58.28.910800 +0100,
,121,126,429,429,stimuli/own/kitchen/121_kit.jpg,stimuli/own/kitchen/126_kit.jpg,,,,,,,,,0,52,52,428,788.1629145420001,,,,,,,,,,,788.4478312090001,788.6121031670001,788.6121031670001,788.6121031670001,788.6121031670001,788.6121031670001,788.6121031670001,788.6121031670001,788.6121031670001,788.6121031670001,795.5582512920001,-7,7,1,2.0,5.338641625000037,4.0,6.596136916999967,788.161062084,788.1629145420001,788.6121031670001,788.4478171669999,,,,,,,,788.157623709,788.161015542,None,,,,,,,,,,,206,kitchen,1,2024-03-15_10h58.15.636,image_similarity_rating,2023.2.3,None,2024-03-15 10h58.28.910800 +0100,
,106,138,186,186,stimuli/own/kitchen/106_kit.jpg,stimuli/own/kitchen/138_kit.jpg,,,,,,,,,0,53,53,185,795.5643805000001,,,,,,,,,,,795.84766125,796.012415709,796.012415709,796.012415709,796.012415709,796.012415709,796.012415709,796.012415709,796.012415709,796.012415709,803.565600625,7,-7,1,2.0,4.550516459000164,5.0,7.304730041000084,795.56196425,795.5643805000001,796.012415709,795.847647125,,,,,,,,795.558476709,795.561917459,None,,,,,,,,,,,206,kitchen,1,2024-03-15_10h58.15.636,image_similarity_rating,2023.2.3,None,2024-03-15 10h58.28.910800 +0100,
,120,126,411,411,stimuli/own/kitchen/120_kit.jpg,stimuli/own/kitchen/126_kit.jpg,,,,,,,,,0,54,54,410,803.5711606670001,,,,,,,,,,,803.8642511250001,804.028769334,804.028769334,804.028769334,804.028769334,804.028769334,804.028769334,804.028769334,804.028769334,804.028769334,812.498980084,7,-7,1,3.0,6.024941208999962,6.0,7.957621457999949,803.569368625,803.5711606670001,804.028769334,803.8642361670001,,,,,,,,803.565823084,803.569319542,None,,,,,,,,,,,206,kitchen,1,2024-03-15_10h58.15.636,image_similarity_rating,2023.2.3,None,2024-03-15 10h58.28.910800 +0100,
,112,132,262,262,stimuli/own/kitchen/112_kit.jpg,stimuli/own/kitchen/132_kit.jpg,,,,,,,,,0,55,55,261,812.5044939170001,,,,,,,,,,,812.797622875,812.9675006250001,812.9675006250001,812.9675006250001,812.9675006250001,812.9675006250001,812.9675006250001,812.9675006250001,812.9675006250001,812.9675006250001,825.0411129590001,7,-7,1,3.0,7.7391479999998865,4.0,11.892695416000151,812.502659334,812.5044939170001,812.9675006250001,812.797606042,,,,,,,,812.499201875,812.5026128339999,None,,,,,,,,,,,206,kitchen,1,2024-03-15_10h58.15.636,image_similarity_rating,2023.2.3,None,2024-03-15 10h58.28.910800 +0100,
,106,112,163,163,stimuli/own/kitchen/106_kit.jpg,stimuli/own/kitchen/112_kit.jpg,,,,,,,,,0,56,56,162,825.0631012499999,,,,,,,,,,,825.347071042,825.511803625,825.511803625,825.511803625,825.511803625,825.511803625,825.511803625,825.511803625,825.511803625,825.511803625,834.8072635,7,-7,1,2.0,6.025764375000108,2.0,9.146172250000063,825.044792542,825.0631012499999,,825.3470530840001,,,,,,,,825.041335167,825.044745417,None,,,,,,,,,,,206,kitchen,1,2024-03-15_10h58.15.636,image_similarity_rating,2023.2.3,None,2024-03-15 10h58.28.910800 +0100,
,111,127,232,232,stimuli/own/kitchen/111_kit.jpg,stimuli/own/kitchen/127_kit.jpg,,,,,,,,,0,57,57,231,834.812888709,,,,,,,,,,,835.097525667,835.2618872090001,835.2618872090001,835.2618872090001,835.2618872090001,835.2618872090001,835.2618872090001,835.2618872090001,835.2618872090001,835.2618872090001,844.9284618340001,-7,7,1,3.0,5.353333958000121,1.0,9.441327750000028,834.811056459,834.812888709,835.2618872090001,835.097512917,,,,,,,,834.8074848340001,834.8110097919999,None,,,,,,,,,,,206,kitchen,1,2024-03-15_10h58.15.636,image_similarity_rating,2023.2.3,None,2024-03-15 10h58.28.910800 +0100,
,114,125,305,305,stimuli/own/kitchen/114_kit.jpg,stimuli/own/kitchen/125_kit.jpg,,,,,,,,,0,58,58,304,844.9339327920001,,,,,,,,,,,845.2185303340001,845.3900030000001,845.3900030000001,845.3900030000001,845.3900030000001,845.3900030000001,845.3900030000001,845.3900030000001,845.3900030000001,845.3900030000001,854.3198288340001,-7,7,1,3.0,5.870205958000042,7.0,8.71863641699997,844.932170792,844.9339327920001,845.3900030000001,845.218512,,,,,,,,844.928710084,844.93212325,None,,,,,,,,,,,206,kitchen,1,2024-03-15_10h58.15.636,image_similarity_rating,2023.2.3,None,2024-03-15 10h58.28.910800 +0100,
,102,137,63,63,stimuli/own/kitchen/102_kit.jpg,stimuli/own/kitchen/137_kit.jpg,,,,,,,,,0,59,59,62,854.3296000000001,,,,,,,,,,,854.614160042,854.785748959,854.785748959,854.785748959,854.785748959,854.785748959,854.785748959,854.785748959,854.785748959,854.785748959,861.719220584,-7,7,1,2.0,4.844146750000164,5.0,6.848800750000009,854.323518042,854.3296000000001,854.785748959,854.614142709,,,,,,,,854.320054292,854.3234711250001,None,,,,,,,,,,,206,kitchen,1,2024-03-15_10h58.15.636,image_similarity_rating,2023.2.3,None,2024-03-15 10h58.28.910800 +0100,
,109,114,193,193,stimuli/own/kitchen/109_kit.jpg,stimuli/own/kitchen/114_kit.jpg,,,,,,,,,0,60,60,192,861.72976125,,,,,,,,,,,862.0140002090001,862.180753625,862.180753625,862.180753625,862.180753625,862.180753625,862.180753625,862.180753625,862.180753625,862.180753625,866.7284263750001,-7,7,1,4.0,3.1439411249998557,3.0,4.2484867089999625,861.7230265,861.72976125,862.180753625,862.013983917,,,,,,,,861.7194479170001,861.722979667,None,,,,,,,,,,,206,kitchen,1,2024-03-15_10h58.15.636,image_similarity_rating,2023.2.3,None,2024-03-15 10h58.28.910800 +0100,
,127,136,524,524,stimuli/own/kitchen/127_kit.jpg,stimuli/own/kitchen/136_kit.jpg,,,,,,,,,0,61,61,523,866.7341183340001,,,,,,,,,,,867.018422042,867.181947917,867.181947917,867.181947917,867.181947917,867.181947917,867.181947917,867.181947917,867.181947917,867.181947917,873.840561375,7,-7,1,5.0,4.289318124999909,4.0,6.495648332999963,866.732170375,866.7341183340001,867.181947917,867.018412084,,,,,,,,866.728675,866.732124125,None,,,,,,,,,,,206,kitchen,1,2024-03-15_10h58.15.636,image_similarity_rating,2023.2.3,None,2024-03-15 10h58.28.910800 +0100,
,102,121,49,49,stimuli/own/kitchen/102_kit.jpg,stimuli/own/kitchen/121_kit.jpg,,,,,,,,,0,62,62,48,873.8460317089999,,,,,,,,,,,874.130601709,874.2964114170001,874.2964114170001,874.2964114170001,874.2964114170001,874.2964114170001,874.2964114170001,874.2964114170001,874.2964114170001,874.2964114170001,883.4613867090001,7,-7,1,1.0,7.4781975840001,6.0,8.782678290999911,873.8442220000001,873.8460317089999,874.2964114170001,874.1305868339999,,,,,,,,873.840783667,873.8441759589999,None,,,,,,,,,,,206,kitchen,1,2024-03-15_10h58.15.636,image_similarity_rating,2023.2.3,None,2024-03-15 10h58.28.910800 +0100,
,129,141,540,540,stimuli/own/kitchen/129_kit.jpg,stimuli/own/kitchen/141_kit.jpg,,,,,,,,,0,63,63,539,883.467022959,,,,,,,,,,,891.5974964590001,891.7711612920001,891.7711612920001,891.7711612920001,891.7711612920001,891.7711612920001,891.7711612920001,891.7711612920001,891.7711612920001,891.7711612920001,901.6946247090001,-7,7,2,3.0,7.803923124999983,2.0,9.807201042000088,891.3057587090001,891.3134376250001,891.7711612920001,891.5974669170001,,,,,,,,883.461610334,891.30397325,space,883.467022959,7.836748208000017,None,,,,,,,,206,kitchen,1,2024-03-15_10h58.15.636,image_similarity_rating,2023.2.3,None,2024-03-15 10h58.28.910800 +0100,
,101,137,30,30,stimuli/own/kitchen/101_kit.jpg,stimuli/own/kitchen/137_kit.jpg,,,,,,,,,0,64,64,29,901.7009004590001,,,,,,,,,,,901.9839579170001,902.146924542,902.146924542,902.146924542,902.146924542,902.146924542,902.146924542,902.146924542,902.146924542,902.146924542,915.8156848750001,-7,7,2,3.0,8.636645084000065,6.0,13.544720417000008,901.6989043750001,901.7009004590001,902.146924542,901.9839477090001,,,,,,,,901.694845375,901.698856917,None,,,,,,,,,,,206,kitchen,1,2024-03-15_10h58.15.636,image_similarity_rating,2023.2.3,None,2024-03-15 10h58.28.910800 +0100,
,106,122,172,172,stimuli/own/kitchen/106_kit.jpg,stimuli/own/kitchen/122_kit.jpg,,,,,,,,,0,65,65,171,915.821478125,,,,,,,,,,,916.114196459,916.285968,916.285968,916.285968,916.285968,916.285968,916.285968,916.285968,916.285968,916.285968,923.465002042,7,-7,2,2.0,5.782336457999918,4.0,6.981356041000026,915.819366459,915.821478125,916.285968,916.11417475,,,,,,,,915.815903667,915.819320292,None,,,,,,,,,,,206,kitchen,1,2024-03-15_10h58.15.636,image_similarity_rating,2023.2.3,None,2024-03-15 10h58.28.910800 +0100,
,134,136,569,569,stimuli/own/kitchen/134_kit.jpg,stimuli/own/kitchen/136_kit.jpg,,,,,,,,,0,66,66,568,923.4710832920001,,,,,,,,,,,923.7639325840001,923.9283416250001,923.9283416250001,923.9283416250001,923.9283416250001,923.9283416250001,923.9283416250001,923.9283416250001,923.9283416250001,923.9283416250001,930.8946468749999,-7,7,2,2.0,5.014415999999983,3.0,6.704109499999959,923.4687862500001,923.4710832920001,923.9283416250001,923.763918667,,,,,,,,923.4652217920001,923.468739542,None,,,,,,,,,,,206,kitchen,1,2024-03-15_10h58.15.636,image_similarity_rating,2023.2.3,None,2024-03-15 10h58.28.910800 +0100,
,105,135,154,154,stimuli/own/kitchen/105_kit.jpg,stimuli/own/kitchen/135_kit.jpg,,,,,,,,,0,67,67,153,930.900344042,,,,,,,,,,,931.1846026250001,931.34966825,931.34966825,931.34966825,931.34966825,931.34966825,931.34966825,931.34966825,931.34966825,931.34966825,942.319128167,-7,7,2,5.0,5.80119824999997,3.0,10.895217709000008,930.89840225,930.900344042,931.34966825,931.184591375,,,,,,,,930.894898417,930.8983557089999,None,,,,,,,,,,,206,kitchen,1,2024-03-15_10h58.15.636,image_similarity_rating,2023.2.3,None,2024-03-15 10h58.28.910800 +0100,
,104,141,130,130,stimuli/own/kitchen/104_kit.jpg,stimuli/own/kitchen/141_kit.jpg,,,,,,,,,0,68,68,129,942.329228709,,,,,,,,,,,942.6137635420001,942.7825502090001,942.7825502090001,942.7825502090001,942.7825502090001,942.7825502090001,942.7825502090001,942.7825502090001,942.7825502090001,942.7825502090001,947.7982633340001,-7,7,2,2.0,2.8795425000000705,5.0,4.829700208000077,942.322908625,942.329228709,942.7825502090001,942.6137421249999,,,,,,,,942.3193459170001,942.3228620840001,None,,,,,,,,,,,206,kitchen,1,2024-03-15_10h58.15.636,image_similarity_rating,2023.2.3,None,2024-03-15 10h58.28.910800 +0100,
,122,131,450,450,stimuli/own/kitchen/122_kit.jpg,stimuli/own/kitchen/131_kit.jpg,,,,,,,,,0,69,69,449,947.8036833340001,,,,,,,,,,,948.097122084,948.268426792,948.268426792,948.268426792,948.268426792,948.268426792,948.268426792,948.268426792,948.268426792,948.268426792,956.306873292,-7,7,2,2.0,4.105403832999855,3.0,7.8157786249998935,947.801908459,947.8036833340001,948.268426792,948.0971060420001,,,,,,,,947.7984835000001,947.801862125,None,,,,,,,,,,,206,kitchen,1,2024-03-15_10h58.15.636,image_similarity_rating,2023.2.3,None,2024-03-15 10h58.28.910800 +0100,
,104,139,128,128,stimuli/own/kitchen/104_kit.jpg,stimuli/own/kitchen/139_kit.jpg,,,,,,,,,0,70,70,127,956.312421042,,,,,,,,,,,956.597645334,956.762721084,956.762721084,956.762721084,956.762721084,956.762721084,956.762721084,956.762721084,956.762721084,956.762721084,966.081519042,-7,7,2,2.0,7.183300082999949,6.0,9.164018582999915,956.3105414590001,956.312421042,956.762721084,956.597630459,,,,,,,,956.307092459,956.3104950000001,None,,,,,,,,,,,206,kitchen,1,2024-03-15_10h58.15.636,image_similarity_rating,2023.2.3,None,2024-03-15 10h58.28.910800 +0100,
,102,109,39,39,stimuli/own/kitchen/102_kit.jpg,stimuli/own/kitchen/109_kit.jpg,,,,,,,,,0,71,71,38,966.0871323750001,,,,,,,,,,,966.3802697919999,966.5461825420001,966.5461825420001,966.5461825420001,966.5461825420001,966.5461825420001,966.5461825420001,966.5461825420001,966.5461825420001,966.5461825420001,977.2735555,-7,7,2,2.0,7.788130750000164,6.0,10.577732375000096,966.0851941669999,966.0871323750001,966.5461825420001,966.380254459,,,,,,,,966.0817390000001,966.085148792,None,,,,,,,,,,,206,kitchen,1,2024-03-15_10h58.15.636,image_similarity_rating,2023.2.3,None,2024-03-15 10h58.28.910800 +0100,
,134,141,574,574,stimuli/own/kitchen/134_kit.jpg,stimuli/own/kitchen/141_kit.jpg,,,,,,,,,0,72,72,573,977.2958945000001,,,,,,,,,,,977.5800385840001,977.744879125,977.744879125,977.744879125,977.744879125,977.744879125,977.744879125,977.744879125,977.744879125,977.744879125,984.314777292,7,-7,2,7.0,4.05328670799986,3.0,5.907905959000118,977.2773234590001,977.2958945000001,,977.580013292,,,,,,,,977.2737754999999,977.277277,None,,,,,,,,,,,206,kitchen,1,2024-03-15_10h58.15.636,image_similarity_rating,2023.2.3,None,2024-03-15 10h58.28.910800 +0100,
,126,137,513,513,stimuli/own/kitchen/126_kit.jpg,stimuli/own/kitchen/137_kit.jpg,,,,,,,,,0,73,73,512,984.320535334,,,,,,,,,,,984.614065334,984.7780807089999,984.7780807089999,984.7780807089999,984.7780807089999,984.7780807089999,984.7780807089999,984.7780807089999,984.7780807089999,984.7780807089999,992.914723625,7,-7,2,5.0,4.475555541999938,4.0,7.737442290999979,984.318440834,984.320535334,984.7780807089999,984.6140522090001,,,,,,,,984.314997625,984.31839475,None,,,,,,,,,,,206,kitchen,1,2024-03-15_10h58.15.636,image_similarity_rating,2023.2.3,None,2024-03-15 10h58.28.910800 +0100,
,114,140,318,318,stimuli/own/kitchen/114_kit.jpg,stimuli/own/kitchen/140_kit.jpg,,,,,,,,,0,74,74,317,992.92034325,,,,,,,,,,,993.2136353340001,993.3848939590001,993.3848939590001,993.3848939590001,993.3848939590001,993.3848939590001,993.3848939590001,993.3848939590001,993.3848939590001,993.3848939590001,1001.7108285,7,-7,2,3.0,5.805528791999905,1.0,8.158308209000097,992.918402292,992.92034325,993.3848939590001,993.213618875,,,,,,,,992.914958875,992.9183557499999,None,,,,,,,,,,,206,kitchen,1,2024-03-15_10h58.15.636,image_similarity_rating,2023.2.3,None,2024-03-15 10h58.28.910800 +0100,
,122,134,452,452,stimuli/own/kitchen/122_kit.jpg,stimuli/own/kitchen/134_kit.jpg,,,,,,,,,0,75,75,451,1001.71662475,,,,,,,,,,,1002.001924625,1002.1671962500001,1002.1671962500001,1002.1671962500001,1002.1671962500001,1002.1671962500001,1002.1671962500001,1002.1671962500001,1002.1671962500001,1002.1671962500001,1010.044209,7,-7,2,4.0,4.275632416999997,3.0,7.728012875000104,1001.7145591249999,1001.71662475,1002.1671962500001,1002.0019115420001,,,,,,,,1001.7110490000001,1001.7145125000001,None,,,,,,,,,,,206,kitchen,1,2024-03-15_10h58.15.636,image_similarity_rating,2023.2.3,None,2024-03-15 10h58.28.910800 +0100,
,118,121,367,367,stimuli/own/kitchen/118_kit.jpg,stimuli/own/kitchen/121_kit.jpg,,,,,,,,,0,76,76,366,1010.0498639589999,,,,,,,,,,,1010.3345767500001,1010.500874667,1010.500874667,1010.500874667,1010.500874667,1010.500874667,1010.500874667,1010.500874667,1010.500874667,1010.500874667,1016.606730959,7,-7,2,5.0,3.4397994999999355,2.0,5.9194514170001185,1010.047931292,1010.0498639589999,1010.500874667,1010.3345635,,,,,,,,1010.044429334,1010.04788425,None,,,,,,,,,,,206,kitchen,1,2024-03-15_10h58.15.636,image_similarity_rating,2023.2.3,None,2024-03-15 10h58.28.910800 +0100,
,101,102,1,1,stimuli/own/kitchen/101_kit.jpg,stimuli/own/kitchen/102_kit.jpg,,,,,,,,,0,77,77,0,1016.6289446250001,,,,,,,,,,,1016.9130678340001,1017.079709167,1017.079709167,1017.079709167,1017.079709167,1017.079709167,1017.079709167,1017.079709167,1017.079709167,1017.079709167,1025.7519334170001,7,-7,2,4.0,6.585733249999976,6.0,8.49878458299986,1016.610392875,1016.6289446250001,,1016.9130375840001,,,,,,,,1016.6069539169999,1016.6103468340001,None,,,,,,,,,,,206,kitchen,1,2024-03-15_10h58.15.636,image_similarity_rating,2023.2.3,None,2024-03-15 10h58.28.910800 +0100,
,120,121,406,406,stimuli/own/kitchen/120_kit.jpg,stimuli/own/kitchen/121_kit.jpg,,,,,,,,,0,78,78,405,1025.762235792,,,,,,,,,,,1026.046889584,1026.2112092920001,1026.2112092920001,1026.2112092920001,1026.2112092920001,1026.2112092920001,1026.2112092920001,1026.2112092920001,1026.2112092920001,1026.2112092920001,1032.394180417,7,-7,2,2.0,4.414107584000021,5.0,6.008032707999973,1025.7557161250002,1025.762235792,1026.2112092920001,1026.046875042,,,,,,,,1025.752153584,1025.7556694589998,None,,,,,,,,,,,206,kitchen,1,2024-03-15_10h58.15.636,image_similarity_rating,2023.2.3,None,2024-03-15 10h58.28.910800 +0100,
,126,135,511,511,stimuli/own/kitchen/126_kit.jpg,stimuli/own/kitchen/135_kit.jpg,,,,,,,,,0,79,79,510,1032.3996616250001,,,,,,,,,,,1032.683765417,1032.8474648750002,1032.8474648750002,1032.8474648750002,1032.8474648750002,1032.8474648750002,1032.8474648750002,1032.8474648750002,1032.8474648750002,1032.8474648750002,1038.2900154170002,-7,7,2,5.0,3.3638378339999235,4.0,5.119115624999949,1032.3978886670002,1032.3996616250001,1032.8474648750002,1032.683752459,,,,,,,,1032.394411959,1032.397842292,None,,,,,,,,,,,206,kitchen,1,2024-03-15_10h58.15.636,image_similarity_rating,2023.2.3,None,2024-03-15 10h58.28.910800 +0100,
,105,112,134,134,stimuli/own/kitchen/105_kit.jpg,stimuli/own/kitchen/112_kit.jpg,,,,,,,,,0,80,80,133,1038.3123742090002,,,,,,,,,,,1038.596194834,1038.7671245840002,1038.7671245840002,1038.7671245840002,1038.7671245840002,1038.7671245840002,1038.7671245840002,1038.7671245840002,1038.7671245840002,1038.7671245840002,1046.3978416670002,-7,7,2,2.0,4.537078708999843,5.0,7.481122417000051,1038.293675084,1038.3123742090002,,1038.5961711250002,,,,,,,,1038.290238167,1038.2936292089998,None,,,,,,,,,,,206,kitchen,1,2024-03-15_10h58.15.636,image_similarity_rating,2023.2.3,None,2024-03-15 10h58.28.910800 +0100,
,104,109,102,102,stimuli/own/kitchen/104_kit.jpg,stimuli/own/kitchen/109_kit.jpg,,,,,,,,,0,81,81,101,1046.403431542,,,,,,,,,,,1046.696747417,1046.868308875,1046.868308875,1046.868308875,1046.868308875,1046.868308875,1046.868308875,1046.868308875,1046.868308875,1046.868308875,1058.01072875,7,-7,2,2.0,5.33899416700001,3.0,10.967338375000054,1046.4015099590001,1046.403431542,1046.868308875,1046.6967304170003,,,,,,,,1046.3980594590003,1046.401464209,None,,,,,,,,,,,206,kitchen,1,2024-03-15_10h58.15.636,image_similarity_rating,2023.2.3,None,2024-03-15 10h58.28.910800 +0100,
,121,137,438,438,stimuli/own/kitchen/121_kit.jpg,stimuli/own/kitchen/137_kit.jpg,,,,,,,,,0,82,82,437,1058.0165259999999,,,,,,,,,,,1058.300512709,1058.4635282919999,1058.4635282919999,1058.4635282919999,1058.4635282919999,1058.4635282919999,1058.4635282919999,1058.4635282919999,1058.4635282919999,1058.4635282919999,1069.21856725,-7,7,2,1.0,8.109082624999928,4.0,10.57930462499985,1058.014595959,1058.0165259999999,1058.4635282919999,1058.3004997500002,,,,,,,,1058.0109562920002,1058.0145483750002,None,,,,,,,,,,,206,kitchen,1,2024-03-15_10h58.15.636,image_similarity_rating,2023.2.3,None,2024-03-15 10h58.28.910800 +0100,
,105,117,138,138,stimuli/own/kitchen/105_kit.jpg,stimuli/own/kitchen/117_kit.jpg,,,,,,,,,0,83,83,137,1069.2287530419999,,,,,,,,,,,1069.513185334,1069.679010542,1069.679010542,1069.679010542,1069.679010542,1069.679010542,1069.679010542,1069.679010542,1069.679010542,1069.679010542,1073.8317644170002,7,-7,2,3.0,2.5647532090001732,6.0,4.0160638750001,1069.222239584,1069.2287530419999,1069.679010542,1069.51317075,,,,,,,,1069.2187869170002,1069.2221935840003,None,,,,,,,,,,,206,kitchen,1,2024-03-15_10h58.15.636,image_similarity_rating,2023.2.3,None,2024-03-15 10h58.28.910800 +0100,
,116,122,325,325,stimuli/own/kitchen/116_kit.jpg,stimuli/own/kitchen/122_kit.jpg,,,,,,,,,0,84,84,324,1073.837260542,,,,,,,,,,,1074.130767875,1074.2964552500002,1074.2964552500002,1074.2964552500002,1074.2964552500002,1074.2964552500002,1074.2964552500002,1074.2964552500002,1074.2964552500002,1074.2964552500002,1082.327643042,-7,7,2,3.0,5.249522208000144,5.0,7.856292916000029,1073.835424167,1073.837260542,1074.2964552500002,1074.1307537920002,,,,,,,,1073.8319847500002,1073.8353780840002,None,,,,,,,,,,,206,kitchen,1,2024-03-15_10h58.15.636,image_similarity_rating,2023.2.3,None,2024-03-15 10h58.28.910800 +0100,
,114,119,299,299,stimuli/own/kitchen/114_kit.jpg,stimuli/own/kitchen/119_kit.jpg,,,,,,,,,0,85,85,298,1082.3333795839999,,,,,,,,,,,1082.6169438749998,1082.780563625,1082.780563625,1082.780563625,1082.780563625,1082.780563625,1082.780563625,1082.780563625,1082.780563625,1082.780563625,1088.6107657090001,-7,7,2,3.0,3.963589958000057,5.0,5.742832292000003,1082.331442625,1082.3333795839999,1082.780563625,1082.616930917,,,,,,,,1082.3278636250002,1082.331395917,None,,,,,,,,,,,206,kitchen,1,2024-03-15_10h58.15.636,image_similarity_rating,2023.2.3,None,2024-03-15 10h58.28.910800 +0100,
,117,122,347,347,stimuli/own/kitchen/117_kit.jpg,stimuli/own/kitchen/122_kit.jpg,,,,,,,,,0,86,86,346,1088.6164199999998,,,,,,,,,,,1088.900418917,1089.0659731669998,1089.0659731669998,1089.0659731669998,1089.0659731669998,1089.0659731669998,1089.0659731669998,1089.0659731669998,1089.0659731669998,1089.0659731669998,1093.8105649590002,7,-7,2,5.0,2.2160997080000016,7.0,4.393826125000032,1088.614483584,1088.6164199999998,1089.0659731669998,1088.900404,,,,,,,,1088.611014,1088.6144373749999,None,,,,,,,,,,,206,kitchen,1,2024-03-15_10h58.15.636,image_similarity_rating,2023.2.3,None,2024-03-15 10h58.28.910800 +0100,
,126,132,509,509,stimuli/own/kitchen/126_kit.jpg,stimuli/own/kitchen/132_kit.jpg,,,,,,,,,0,87,87,508,1093.816300292,,,,,,,,,,,1094.100501292,1094.2672105420002,1094.2672105420002,1094.2672105420002,1094.2672105420002,1094.2672105420002,1094.2672105420002,1094.2672105420002,1094.2672105420002,1094.2672105420002,1099.9774687089998,-7,7,2,7.0,2.543216541999982,1.0,5.559191000000055,1093.814372459,1093.816300292,1094.2672105420002,1094.100487917,,,,,,,,1093.810783625,1093.8143255,None,,,,,,,,,,,206,kitchen,1,2024-03-15_10h58.15.636,image_similarity_rating,2023.2.3,None,2024-03-15 10h58.28.910800 +0100,
,101,122,17,17,stimuli/own/kitchen/101_kit.jpg,stimuli/own/kitchen/122_kit.jpg,,,,,,,,,0,88,88,16,1099.9832301249999,,,,,,,,,,,1100.267307,1100.434644292,1100.434644292,1100.434644292,1100.434644292,1100.434644292,1100.434644292,1100.434644292,1100.434644292,1100.434644292,1106.510414625,-7,7,2,4.0,3.9061514580000676,6.0,5.989331750000019,1099.9813010419998,1099.9832301249999,1100.434644292,1100.2672939170002,,,,,,,,1099.9777077090002,1099.981254542,None,,,,,,,,,,,206,kitchen,1,2024-03-15_10h58.15.636,image_similarity_rating,2023.2.3,None,2024-03-15 10h58.28.910800 +0100,
,103,113,74,74,stimuli/own/kitchen/103_kit.jpg,stimuli/own/kitchen/113_kit.jpg,,,,,,,,,0,89,89,73,1106.5160594590002,,,,,,,,,,,1106.8006460420002,1106.967934625,1106.967934625,1106.967934625,1106.967934625,1106.967934625,1106.967934625,1106.967934625,1106.967934625,1106.967934625,1114.968458292,-7,7,2,2.0,3.7641287919998376,6.0,7.8392647919999945,1106.514130209,1106.5160594590002,1106.967934625,1106.8006329589998,,,,,,,,1106.5106353340002,1106.5140835840002,None,,,,,,,,,,,206,kitchen,1,2024-03-15_10h58.15.636,image_similarity_rating,2023.2.3,None,2024-03-15 10h58.28.910800 +0100,
,112,118,249,249,stimuli/own/kitchen/112_kit.jpg,stimuli/own/kitchen/118_kit.jpg,,,,,,,,,0,90,90,248,1114.9783914590002,,,,,,,,,,,1115.2631109170002,1115.4351835420002,1115.4351835420002,1115.4351835420002,1115.4351835420002,1115.4351835420002,1115.4351835420002,1115.4351835420002,1115.4351835420002,1115.4351835420002,1121.0939116250001,-7,7,2,6.0,3.7416826670000773,2.0,5.495767416000035,1114.972114709,1114.9783914590002,1115.4351835420002,1115.263091375,,,,,,,,1114.9686766250002,1114.972068167,None,,,,,,,,,,,206,kitchen,1,2024-03-15_10h58.15.636,image_similarity_rating,2023.2.3,None,2024-03-15 10h58.28.910800 +0100,
,131,140,558,558,stimuli/own/kitchen/131_kit.jpg,stimuli/own/kitchen/140_kit.jpg,,,,,,,,,0,91,91,557,1121.099562709,,,,,,,,,,,1121.3842533749998,1121.551980667,1121.551980667,1121.551980667,1121.551980667,1121.551980667,1121.551980667,1121.551980667,1121.551980667,1121.551980667,1130.7646485,7,-7,2,3.0,6.703298958000005,1.0,9.012154290999888,1121.0976433340002,1121.099562709,1121.551980667,1121.3842396670002,,,,,,,,1121.09415825,1121.0975965000002,None,,,,,,,,,,,206,kitchen,1,2024-03-15_10h58.15.636,image_similarity_rating,2023.2.3,None,2024-03-15 10h58.28.910800 +0100,
,102,131,58,58,stimuli/own/kitchen/102_kit.jpg,stimuli/own/kitchen/131_kit.jpg,,,,,,,,,0,92,92,57,1130.7703953750001,,,,,,,,,,,1131.062979334,1131.23222025,1131.23222025,1131.23222025,1131.23222025,1131.23222025,1131.23222025,1131.23222025,1131.23222025,1131.23222025,1140.2140878750001,-7,7,2,2.0,7.331683666999879,6.0,8.83232616700002,1130.768311875,1130.7703953750001,1131.23222025,1131.0629626670002,,,,,,,,1130.7648679590002,1130.768265709,None,,,,,,,,,,,206,kitchen,1,2024-03-15_10h58.15.636,image_similarity_rating,2023.2.3,None,2024-03-15 10h58.28.910800 +0100,
,104,113,105,105,stimuli/own/kitchen/104_kit.jpg,stimuli/own/kitchen/113_kit.jpg,,,,,,,,,0,93,93,104,1140.2196894170002,,,,,,,,,,,1140.513027375,1140.6782267919998,1140.6782267919998,1140.6782267919998,1140.6782267919998,1140.6782267919998,1140.6782267919998,1140.6782267919998,1140.6782267919998,1140.6782267919998,1147.377026959,-7,7,2,5.0,5.33601412500002,1.0,6.474276583000119,1140.217742709,1140.2196894170002,1140.6782267919998,1140.5130140840001,,,,,,,,1140.2143074589999,1140.2176945,None,,,,,,,,,,,206,kitchen,1,2024-03-15_10h58.15.636,image_similarity_rating,2023.2.3,None,2024-03-15 10h58.28.910800 +0100,
,124,131,481,481,stimuli/own/kitchen/124_kit.jpg,stimuli/own/kitchen/131_kit.jpg,,,,,,,,,0,94,94,480,1147.3825123340002,,,,,,,,,,,1147.6670669589998,1147.83233625,1147.83233625,1147.83233625,1147.83233625,1147.83233625,1147.83233625,1147.83233625,1147.83233625,1147.83233625,1159.239308667,-7,7,2,3.0,6.527034041999968,2.0,11.258614292000175,1147.3807326249998,1147.3825123340002,1147.83233625,1147.667055417,,,,,,,,1147.3772572090002,1147.3806853750002,None,,,,,,,,,,,206,kitchen,1,2024-03-15_10h58.15.636,image_similarity_rating,2023.2.3,None,2024-03-15 10h58.28.910800 +0100,
,125,141,504,504,stimuli/own/kitchen/125_kit.jpg,stimuli/own/kitchen/141_kit.jpg,,,,,,,,,0,95,95,503,1159.245116959,,,,,,,,,,,1159.529526667,1159.700215459,1159.700215459,1159.700215459,1159.700215459,1159.700215459,1159.700215459,1159.700215459,1159.700215459,1159.700215459,1166.851690084,7,-7,2,2.0,5.231467707999855,5.0,7.052889166000114,1159.2429794170002,1159.245116959,1159.700215459,1159.5295097090002,,,,,,,,1159.239529084,1159.242932959,None,,,,,,,,,,,206,kitchen,1,2024-03-15_10h58.15.636,image_similarity_rating,2023.2.3,None,2024-03-15 10h58.28.910800 +0100,
,116,124,327,327,stimuli/own/kitchen/116_kit.jpg,stimuli/own/kitchen/124_kit.jpg,,,,,,,,,0,96,96,326,1166.8617005,,,,,,,,,,,1167.1462015840002,1167.317054834,1167.317054834,1167.317054834,1167.317054834,1167.317054834,1167.317054834,1167.317054834,1167.317054834,1167.317054834,1176.0345012090002,-7,7,2,3.0,6.495049332999997,1.0,8.294386541999984,1166.855354334,1166.8617005,1167.317054834,1167.1461855840002,,,,,,,,1166.8519096670002,1166.8553079170001,None,,,,,,,,,,,206,kitchen,1,2024-03-15_10h58.15.636,image_similarity_rating,2023.2.3,None,2024-03-15 10h58.28.910800 +0100,
,132,137,563,563,stimuli/own/kitchen/132_kit.jpg,stimuli/own/kitchen/137_kit.jpg,,,,,,,,,0,97,97,562,1176.045025167,,,,,,,,,,,1176.3296232500002,1176.4941182500002,1176.4941182500002,1176.4941182500002,1176.4941182500002,1176.4941182500002,1176.4941182500002,1176.4941182500002,1176.4941182500002,1176.4941182500002,1181.7390919590002,-7,7,2,2.0,3.6003555830000096,1.0,5.022372040999926,1176.0383125839999,1176.045025167,1176.4941182500002,1176.329606959,,,,,,,,1176.0347216670002,1176.038266167,None,,,,,,,,,,,206,kitchen,1,2024-03-15_10h58.15.636,image_similarity_rating,2023.2.3,None,2024-03-15 10h58.28.910800 +0100,
,129,132,532,532,stimuli/own/kitchen/129_kit.jpg,stimuli/own/kitchen/132_kit.jpg,,,,,,,,,0,98,98,531,1181.744947875,,,,,,,,,,,1182.029693084,1182.192472542,1182.192472542,1182.192472542,1182.192472542,1182.192472542,1182.192472542,1182.192472542,1182.192472542,1182.192472542,1191.376916667,7,-7,2,2.0,6.520662124999944,3.0,9.047458333999884,1181.742735459,1181.744947875,1182.192472542,1182.0296801670002,,,,,,,,1181.73931025,1181.7426892920003,None,,,,,,,,,,,206,kitchen,1,2024-03-15_10h58.15.636,image_similarity_rating,2023.2.3,None,2024-03-15 10h58.28.910800 +0100,
,101,112,8,8,stimuli/own/kitchen/101_kit.jpg,stimuli/own/kitchen/112_kit.jpg,,,,,,,,,0,99,99,7,1191.3826694590002,,,,,,,,,,,1191.6665438750001,1191.831128417,1191.831128417,1191.831128417,1191.831128417,1191.831128417,1191.831128417,1191.831128417,1191.831128417,1191.831128417,1199.91429475,7,-7,2,5.0,4.163133167000069,6.0,7.242227375000084,1191.3807385,1191.3826694590002,1191.831128417,1191.66653175,,,,,,,,1191.3771536250001,1191.3806920840002,None,,,,,,,,,,,206,kitchen,1,2024-03-15_10h58.15.636,image_similarity_rating,2023.2.3,None,2024-03-15 10h58.28.910800 +0100,
,120,132,416,416,stimuli/own/kitchen/120_kit.jpg,stimuli/own/kitchen/132_kit.jpg,,,,,,,,,0,100,100,415,1199.92039225,,,,,,,,,,,1200.212735834,1200.377816917,1200.377816917,1200.377816917,1200.377816917,1200.377816917,1200.377816917,1200.377816917,1200.377816917,1200.377816917,1207.455392709,-7,7,2,6.0,4.875257334000025,2.0,6.952011625000068,1199.9181237920002,1199.92039225,1200.377816917,1200.212721125,,,,,,,,1199.9145265840002,1199.9180770419998,None,,,,,,,,,,,206,kitchen,1,2024-03-15_10h58.15.636,image_similarity_rating,2023.2.3,None,2024-03-15 10h58.28.910800 +0100,
,114,130,309,309,stimuli/own/kitchen/114_kit.jpg,stimuli/own/kitchen/130_kit.jpg,,,,,,,,,0,101,101,308,1207.4611867919998,,,,,,,,,,,1207.74609625,1207.9110299170002,1207.9110299170002,1207.9110299170002,1207.9110299170002,1207.9110299170002,1207.9110299170002,1207.9110299170002,1207.9110299170002,1207.9110299170002,1218.2436741669999,7,-7,2,5.0,7.489101916999971,4.0,10.164970166999865,1207.4590559590001,1207.4611867919998,1207.9110299170002,1207.7460834170001,,,,,,,,1207.4556122919998,1207.4590093749998,None,,,,,,,,,,,206,kitchen,1,2024-03-15_10h58.15.636,image_similarity_rating,2023.2.3,None,2024-03-15 10h58.28.910800 +0100,
,104,105,100,100,stimuli/own/kitchen/104_kit.jpg,stimuli/own/kitchen/105_kit.jpg,,,,,,,,,0,102,102,99,1218.249403667,,,,,,,,,,,1218.5333713750001,1218.6977014590002,1218.6977014590002,1218.6977014590002,1218.6977014590002,1218.6977014590002,1218.6977014590002,1218.6977014590002,1218.6977014590002,1218.6977014590002,1228.0890557500002,-7,7,2,2.0,6.260745207999889,3.0,9.05351795799993,1218.2474766670002,1218.249403667,1218.6977014590002,1218.533359,,,,,,,,1218.243910959,1218.247430042,None,,,,,,,,,,,206,kitchen,1,2024-03-15_10h58.15.636,image_similarity_rating,2023.2.3,None,2024-03-15 10h58.28.910800 +0100,
,113,116,272,272,stimuli/own/kitchen/113_kit.jpg,stimuli/own/kitchen/116_kit.jpg,,,,,,,,,0,103,103,271,1228.0946064999998,,,,,,,,,,,1228.3793905420002,1228.548456167,1228.548456167,1228.548456167,1228.548456167,1228.548456167,1228.548456167,1228.548456167,1228.548456167,1228.548456167,1243.1012512500001,7,-7,2,2.0,9.564646666000044,1.0,14.403029667000055,1228.092826959,1228.0946064999998,1228.548456167,1228.379373625,,,,,,,,1228.089276584,1228.0927809589998,None,,,,,,,,,,,206,kitchen,1,2024-03-15_10h58.15.636,image_similarity_rating,2023.2.3,None,2024-03-15 10h58.28.910800 +0100,
,112,132,262,608,stimuli/own/kitchen/112_kit.jpg,stimuli/own/kitchen/132_kit.jpg,,,,,,,,,0,104,104,607,1243.111260834,,,,,,,,,,,1243.395879834,1243.5603462089998,1243.5603462089998,1243.5603462089998,1243.5603462089998,1243.5603462089998,1243.5603462089998,1243.5603462089998,1243.5603462089998,1243.5603462089998,1251.089001459,-7,7,2,4.0,4.586264999999912,1.0,7.029721833999929,1243.1050231670001,1243.111260834,1243.5603462089998,1243.39586675,,,,,,,,1243.1014783750002,1243.1049765839998,None,,,,,,,,,,,206,kitchen,1,2024-03-15_10h58.15.636,image_similarity_rating,2023.2.3,None,2024-03-15 10h58.28.910800 +0100,
,105,134,153,153,stimuli/own/kitchen/105_kit.jpg,stimuli/own/kitchen/134_kit.jpg,,,,,,,,,0,105,105,152,1251.111473,,,,,,,,,,,1251.3957110840001,1251.560468709,1251.560468709,1251.560468709,1251.560468709,1251.560468709,1251.560468709,1251.560468709,1251.560468709,1251.560468709,1257.938792125,-7,7,2,6.0,4.350835833000019,3.0,5.993225166999991,1251.0927958339998,1251.111473,,1251.3956900839999,,,,,,,,1251.089217625,1251.092749459,None,,,,,,,,,,,206,kitchen,1,2024-03-15_10h58.15.636,image_similarity_rating,2023.2.3,None,2024-03-15 10h58.28.910800 +0100,
,103,106,70,70,stimuli/own/kitchen/103_kit.jpg,stimuli/own/kitchen/106_kit.jpg,,,,,,,,,0,106,106,69,1257.944363084,,,,,,,,,,,1258.229097084,1258.3941519999998,1258.3941519999998,1258.3941519999998,1258.3941519999998,1258.3941519999998,1258.3941519999998,1258.3941519999998,1258.3941519999998,1258.3941519999998,1267.8970130839998,-7,7,2,2.0,6.038767750000034,3.0,9.148245374999988,1257.9425497920001,1257.944363084,1258.3941519999998,1258.229083542,,,,,,,,1257.939014084,1257.942503584,None,,,,,,,,,,,206,kitchen,1,2024-03-15_10h58.15.636,image_similarity_rating,2023.2.3,None,2024-03-15 10h58.28.910800 +0100,
,105,116,137,137,stimuli/own/kitchen/105_kit.jpg,stimuli/own/kitchen/116_kit.jpg,,,,,,,,,0,107,107,136,1267.9027125420002,,,,,,,,,,,1268.1959361670001,1268.3684792919998,1268.3684792919998,1268.3684792919998,1268.3684792919998,1268.3684792919998,1268.3684792919998,1268.3684792919998,1268.3684792919998,1268.3684792919998,1276.915307417,7,-7,2,3.0,5.222099792000108,7.0,8.26144645799991,1267.9007780000002,1267.9027125420002,1268.3684792919998,1268.195919667,,,,,,,,1267.897231209,1267.900731542,None,,,,,,,,,,,206,kitchen,1,2024-03-15_10h58.15.636,image_similarity_rating,2023.2.3,None,2024-03-15 10h58.28.910800 +0100,
,101,138,31,31,stimuli/own/kitchen/101_kit.jpg,stimuli/own/kitchen/138_kit.jpg,,,,,,,,,0,108,108,30,1276.921153959,,,,,,,,,,,1277.212560375,1277.3808395840001,1277.3808395840001,1277.3808395840001,1277.3808395840001,1277.3808395840001,1277.3808395840001,1277.3808395840001,1277.3808395840001,1277.3808395840001,1284.9844859999998,7,-7,2,4.0,5.9652464589999,3.0,7.392761667000059,1276.91915225,1276.921153959,1277.3808395840001,1277.212544292,,,,,,,,1276.9155394170002,1276.919103542,None,,,,,,,,,,,206,kitchen,1,2024-03-15_10h58.15.636,image_similarity_rating,2023.2.3,None,2024-03-15 10h58.28.910800 +0100,
,114,120,300,300,stimuli/own/kitchen/114_kit.jpg,stimuli/own/kitchen/120_kit.jpg,,,,,,,,,0,109,109,299,1284.9944660840001,,,,,,,,,,,1285.279116667,1285.443802875,1285.443802875,1285.443802875,1285.443802875,1285.443802875,1285.443802875,1285.443802875,1285.443802875,1285.443802875,1292.6556259170002,-7,7,2,5.0,4.886333791999959,7.0,6.940715458000113,1284.988282334,1284.9944660840001,1285.443802875,1285.2790975419998,,,,,,,,1284.9847048340002,1284.988235584,None,,,,,,,,,,,206,kitchen,1,2024-03-15_10h58.15.636,image_similarity_rating,2023.2.3,None,2024-03-15 10h58.28.910800 +0100,
,116,120,323,323,stimuli/own/kitchen/116_kit.jpg,stimuli/own/kitchen/120_kit.jpg,,,,,,,,,0,110,110,322,1292.678132334,,,,,,,,,,,1292.961915584,1293.125151625,1293.125151625,1293.125151625,1293.125151625,1293.125151625,1293.125151625,1293.125151625,1293.125151625,1293.125151625,1299.9843972500003,7,-7,2,3.0,3.1154755410000234,4.0,6.770426083999837,1292.659283292,1292.678132334,,1292.9618983750001,,,,,,,,1292.6558460420001,1292.6592370839999,None,,,,,,,,,,,206,kitchen,1,2024-03-15_10h58.15.636,image_similarity_rating,2023.2.3,None,2024-03-15 10h58.28.910800 +0100,
,102,125,53,53,stimuli/own/kitchen/102_kit.jpg,stimuli/own/kitchen/125_kit.jpg,,,,,,,,,0,111,111,52,1299.994426709,,,,,,,,,,,1300.2789452920001,1300.4453388339998,1300.4453388339998,1300.4453388339998,1300.4453388339998,1300.4453388339998,1300.4453388339998,1300.4453388339998,1300.4453388339998,1300.4453388339998,1306.543217417,-7,7,2,4.0,3.92147937499999,3.0,6.010936875000198,1299.9880671249998,1299.994426709,1300.4453388339998,1300.278930459,,,,,,,,1299.98461675,1299.988020834,None,,,,,,,,,,,206,kitchen,1,2024-03-15_10h58.15.636,image_similarity_rating,2023.2.3,None,2024-03-15 10h58.28.910800 +0100,
,116,140,341,341,stimuli/own/kitchen/116_kit.jpg,stimuli/own/kitchen/140_kit.jpg,,,,,,,,,0,112,112,340,1306.548895334,,,,,,,,,,,1306.833411917,1307.0040075840002,1307.0040075840002,1307.0040075840002,1307.0040075840002,1307.0040075840002,1307.0040075840002,1307.0040075840002,1307.0040075840002,1307.0040075840002,1314.826726917,-7,7,2,2.0,5.785299749999922,1.0,7.5001101670000025,1306.5469629590002,1306.548895334,1307.0040075840002,1306.833397292,,,,,,,,1306.54346725,1306.546916542,None,,,,,,,,,,,206,kitchen,1,2024-03-15_10h58.15.636,image_similarity_rating,2023.2.3,None,2024-03-15 10h58.28.910800 +0100,
,111,131,235,235,stimuli/own/kitchen/111_kit.jpg,stimuli/own/kitchen/131_kit.jpg,,,,,,,,,0,113,113,234,1314.83235225,,,,,,,,,,,1315.116135584,1315.2793390000002,1315.2793390000002,1315.2793390000002,1315.2793390000002,1315.2793390000002,1315.2793390000002,1315.2793390000002,1315.2793390000002,1315.2793390000002,1322.5734377499998,-7,7,2,2.0,6.133637207999982,1.0,7.048868999999968,1314.83041525,1314.83235225,1315.2793390000002,1315.1161226250001,,,,,,,,1314.8269464999998,1314.8303687500002,None,,,,,,,,,,,206,kitchen,1,2024-03-15_10h58.15.636,image_similarity_rating,2023.2.3,None,2024-03-15 10h58.28.910800 +0100,
,124,130,480,480,stimuli/own/kitchen/124_kit.jpg,stimuli/own/kitchen/130_kit.jpg,,,,,,,,,0,114,114,479,1322.579501709,,,,,,,,,,,1322.8653627919998,1323.0278656670002,1323.0278656670002,1323.0278656670002,1323.0278656670002,1323.0278656670002,1323.0278656670002,1323.0278656670002,1323.0278656670002,1323.0278656670002,1329.584414417,-7,7,2,4.0,4.626799000000119,5.0,6.445001917000127,1322.577139334,1322.579501709,1323.0278656670002,1322.8653521249998,,,,,,,,1322.57365875,1322.5770928339998,None,,,,,,,,,,,206,kitchen,1,2024-03-15_10h58.15.636,image_similarity_rating,2023.2.3,None,2024-03-15 10h58.28.910800 +0100,
,113,117,273,273,stimuli/own/kitchen/113_kit.jpg,stimuli/own/kitchen/117_kit.jpg,,,,,,,,,0,115,115,272,1329.5943929589998,,,,,,,,,,,1329.878936,1330.0463975420002,1330.0463975420002,1330.0463975420002,1330.0463975420002,1330.0463975420002,1330.0463975420002,1330.0463975420002,1330.0463975420002,1330.0463975420002,1336.3309280839999,7,-7,2,2.0,4.918541042000015,1.0,6.0792886250001175,1329.588068167,1329.5943929589998,1330.0463975420002,1329.8789190000002,,,,,,,,1329.5846325840002,1329.5880216250002,None,,,,,,,,,,,206,kitchen,1,2024-03-15_10h58.15.636,image_similarity_rating,2023.2.3,None,2024-03-15 10h58.28.910800 +0100,
,124,135,484,484,stimuli/own/kitchen/124_kit.jpg,stimuli/own/kitchen/135_kit.jpg,,,,,,,,,0,116,116,483,1336.3442183749999,,,,,,,,,,,1336.629037584,1336.8010343340002,1336.8010343340002,1336.8010343340002,1336.8010343340002,1336.8010343340002,1336.8010343340002,1336.8010343340002,1336.8010343340002,1336.8010343340002,1343.279968667,-7,7,2,3.0,4.429873165999879,2.0,6.317595416999893,1336.3348262089999,1336.3442183749999,1336.8010343340002,1336.629017917,,,,,,,,1336.3311657919999,1336.3347777089998,None,,,,,,,,,,,206,kitchen,1,2024-03-15_10h58.15.636,image_similarity_rating,2023.2.3,None,2024-03-15 10h58.28.910800 +0100,
,119,121,387,387,stimuli/own/kitchen/119_kit.jpg,stimuli/own/kitchen/121_kit.jpg,,,,,,,,,0,117,117,386,1343.285550167,,,,,,,,,,,1343.57893525,1343.7477401669998,1343.7477401669998,1343.7477401669998,1343.7477401669998,1343.7477401669998,1343.7477401669998,1343.7477401669998,1343.7477401669998,1343.7477401669998,1349.9178447499999,-7,7,2,2.0,3.8291007079999417,1.0,6.0705484170000545,1343.2836173340002,1343.285550167,1343.7477401669998,1343.5789179590001,,,,,,,,1343.2801881250002,1343.2835715,None,,,,,,,,,,,206,kitchen,1,2024-03-15_10h58.15.636,image_similarity_rating,2023.2.3,None,2024-03-15 10h58.28.910800 +0100,
,125,126,491,491,stimuli/own/kitchen/125_kit.jpg,stimuli/own/kitchen/126_kit.jpg,,,,,,,,,0,118,118,490,1349.9276317090003,,,,,,,,,,,1350.21219625,1350.3799791249999,1350.3799791249999,1350.3799791249999,1350.3799791249999,1350.3799791249999,1350.3799791249999,1350.3799791249999,1350.3799791249999,1350.3799791249999,1355.955054,7,-7,2,4.0,3.1743385409999973,6.0,4.967362166999919,1349.921500167,1349.9276317090003,1350.3799791249999,1350.2121792500002,,,,,,,,1349.9180665,1349.9214538340002,None,,,,,,,,,,,206,kitchen,1,2024-03-15_10h58.15.636,image_similarity_rating,2023.2.3,None,2024-03-15 10h58.28.910800 +0100,
,101,121,16,16,stimuli/own/kitchen/101_kit.jpg,stimuli/own/kitchen/121_kit.jpg,,,,,,,,,0,119,119,15,1355.96105825,,,,,,,,,,,1356.245448917,1356.4103022089998,1356.4103022089998,1356.4103022089998,1356.4103022089998,1356.4103022089998,1356.4103022089998,1356.4103022089998,1356.4103022089998,1356.4103022089998,1362.4264994169998,7,-7,2,4.0,3.7752371250001033,3.0,5.767273708000175,1355.9588157500002,1355.96105825,1356.4103022089998,1356.245435625,,,,,,,,1355.9552765839999,1355.9587690839999,None,,,,,,,,,,,206,kitchen,1,2024-03-15_10h58.15.636,image_similarity_rating,2023.2.3,None,2024-03-15 10h58.28.910800 +0100,
,109,130,207,207,stimuli/own/kitchen/109_kit.jpg,stimuli/own/kitchen/130_kit.jpg,,,,,,,,,0,120,120,206,1362.4323048340002,,,,,,,,,,,1362.7162212920002,1362.882241875,1362.882241875,1362.882241875,1362.882241875,1362.882241875,1362.882241875,1362.882241875,1362.882241875,1362.882241875,1373.476448625,-7,7,2,3.0,6.182307250000122,2.0,10.443152957999928,1362.430207459,1362.4323048340002,1362.882241875,1362.7162055,,,,,,,,1362.4267319589999,1362.4301597090002,None,,,,,,,,,,,206,kitchen,1,2024-03-15_10h58.15.636,image_similarity_rating,2023.2.3,None,2024-03-15 10h58.28.910800 +0100,
,117,140,363,363,stimuli/own/kitchen/117_kit.jpg,stimuli/own/kitchen/140_kit.jpg,,,,,,,,,0,121,121,362,1373.481951542,,,,,,,,,,,1373.76601325,1373.9306417090002,1373.9306417090002,1373.9306417090002,1373.9306417090002,1373.9306417090002,1373.9306417090002,1373.9306417090002,1373.9306417090002,1373.9306417090002,1379.5885132920002,-7,7,2,3.0,3.9186839999999847,1.0,5.423177790999944,1373.480154667,1373.481951542,1373.9306417090002,1373.766001,,,,,,,,1373.476684667,1373.4801078750002,None,,,,,,,,,,,206,kitchen,1,2024-03-15_10h58.15.636,image_similarity_rating,2023.2.3,None,2024-03-15 10h58.28.910800 +0100,
,106,129,178,178,stimuli/own/kitchen/106_kit.jpg,stimuli/own/kitchen/129_kit.jpg,,,,,,,,,0,122,122,177,1379.593994209,,,,,,,,,,,1379.878859125,1380.046854917,1380.046854917,1380.046854917,1380.046854917,1380.046854917,1380.046854917,1380.046854917,1380.046854917,1380.046854917,1388.4716187919998,-7,7,2,2.0,3.6439233749999858,2.0,8.23712245899992,1379.592170375,1379.593994209,1380.046854917,1379.8788423750002,,,,,,,,1379.5887333340002,1379.592124542,None,,,,,,,,,,,206,kitchen,1,2024-03-15_10h58.15.636,image_similarity_rating,2023.2.3,None,2024-03-15 10h58.28.910800 +0100,
,114,136,314,314,stimuli/own/kitchen/114_kit.jpg,stimuli/own/kitchen/136_kit.jpg,,,,,,,,,0,123,123,313,1388.4770491250001,,,,,,,,,,,1388.7621798750001,1388.9302470840003,1388.9302470840003,1388.9302470840003,1388.9302470840003,1388.9302470840003,1388.9302470840003,1388.9302470840003,1388.9302470840003,1388.9302470840003,1395.879834792,-7,7,2,4.0,5.193107417000192,2.0,6.776554667000028,1388.4752881670001,1388.4770491250001,1388.9302470840003,1388.7621587500003,,,,,,,,1388.471839709,1388.4752415419998,None,,,,,,,,,,,206,kitchen,1,2024-03-15_10h58.15.636,image_similarity_rating,2023.2.3,None,2024-03-15 10h58.28.910800 +0100,
,111,122,227,227,stimuli/own/kitchen/111_kit.jpg,stimuli/own/kitchen/122_kit.jpg,,,,,,,,,0,124,124,226,1395.8853993339999,,,,,,,,,,,1396.178862709,1396.3441538339998,1396.3441538339998,1396.3441538339998,1396.3441538339998,1396.3441538339998,1396.3441538339998,1396.3441538339998,1396.3441538339998,1396.3441538339998,1402.951308959,7,-7,2,3.0,5.133369584000093,1.0,6.468403042000091,1395.8836392500002,1395.8853993339999,1396.3441538339998,1396.1788473340002,,,,,,,,1395.880052125,1395.883592917,None,,,,,,,,,,,206,kitchen,1,2024-03-15_10h58.15.636,image_similarity_rating,2023.2.3,None,2024-03-15 10h58.28.910800 +0100,
,117,121,346,346,stimuli/own/kitchen/117_kit.jpg,stimuli/own/kitchen/121_kit.jpg,,,,,,,,,0,125,125,345,1402.9606454999998,,,,,,,,,,,1403.245229709,1403.410896625,1403.410896625,1403.410896625,1403.410896625,1403.410896625,1403.410896625,1403.410896625,1403.410896625,1403.410896625,1408.3762376670002,7,-7,2,4.0,3.1360577499999636,2.0,4.75427291699998,1402.954993459,1402.9606454999998,1403.410896625,1403.2452156670001,,,,,,,,1402.951527542,1402.954946834,None,,,,,,,,,,,206,kitchen,1,2024-03-15_10h58.15.636,image_similarity_rating,2023.2.3,None,2024-03-15 10h58.28.910800 +0100,
,123,132,467,467,stimuli/own/kitchen/123_kit.jpg,stimuli/own/kitchen/132_kit.jpg,,,,,,,,,0,126,126,466,1408.382245625,,,,,,,,,,,1418.8952357920002,1419.068794875,1419.068794875,1419.068794875,1419.068794875,1419.068794875,1419.068794875,1419.068794875,1419.068794875,1419.068794875,1427.0215942089999,-7,7,3,4.0,5.46869779199983,1.0,6.9447734580001,1418.60221025,1418.6113178340001,1419.068794875,1418.8952195840002,,,,,,,,1408.376487334,1418.601859209,space,1408.382245625,10.219447665999951,None,,,,,,,,206,kitchen,1,2024-03-15_10h58.15.636,image_similarity_rating,2023.2.3,None,2024-03-15 10h58.28.910800 +0100,
,125,129,493,493,stimuli/own/kitchen/125_kit.jpg,stimuli/own/kitchen/129_kit.jpg,,,,,,,,,0,127,127,492,1427.043957709,,,,,,,,,,,1427.327983917,1427.4939826250002,1427.4939826250002,1427.4939826250002,1427.4939826250002,1427.4939826250002,1427.4939826250002,1427.4939826250002,1427.4939826250002,1427.4939826250002,1433.6094081669999,-7,7,3,2.0,4.200499124999851,3.0,5.492700457999945,1427.02578175,1427.043957709,,1427.3279615840001,,,,,,,,1427.021815167,1427.025734584,None,,,,,,,,,,,206,kitchen,1,2024-03-15_10h58.15.636,image_similarity_rating,2023.2.3,None,2024-03-15 10h58.28.910800 +0100,
,106,125,175,175,stimuli/own/kitchen/106_kit.jpg,stimuli/own/kitchen/125_kit.jpg,,,,,,,,,0,128,128,174,1433.6151286670001,,,,,,,,,,,1433.899191375,1434.064787917,1434.064787917,1434.064787917,1434.064787917,1434.064787917,1434.064787917,1434.064787917,1434.064787917,1434.064787917,1443.0219137089998,7,-7,3,3.0,7.191501249999874,5.0,8.795483375000003,1433.6132024170001,1433.6151286670001,1434.064787917,1433.899179209,,,,,,,,1433.609653084,1433.613156125,None,,,,,,,,,,,206,kitchen,1,2024-03-15_10h58.15.636,image_similarity_rating,2023.2.3,None,2024-03-15 10h58.28.910800 +0100,
,103,127,87,87,stimuli/own/kitchen/103_kit.jpg,stimuli/own/kitchen/127_kit.jpg,,,,,,,,,0,129,129,86,1443.044103625,,,,,,,,,,,1443.328040667,1443.494205417,1443.494205417,1443.494205417,1443.494205417,1443.494205417,1443.494205417,1443.494205417,1443.494205417,1443.494205417,1450.5054584170002,-7,7,3,3.0,3.689011083000196,2.0,6.707601665999846,1443.0255939590002,1443.044103625,,1443.328022792,,,,,,,,1443.0221325420002,1443.0255484590002,None,,,,,,,,,,,206,kitchen,1,2024-03-15_10h58.15.636,image_similarity_rating,2023.2.3,None,2024-03-15 10h58.28.910800 +0100,
,101,116,11,11,stimuli/own/kitchen/101_kit.jpg,stimuli/own/kitchen/116_kit.jpg,,,,,,,,,0,130,130,10,1450.5271149999999,,,,,,,,,,,1450.8112769590002,1450.9831170420002,1450.9831170420002,1450.9831170420002,1450.9831170420002,1450.9831170420002,1450.9831170420002,1450.9831170420002,1450.9831170420002,1450.9831170420002,1457.471748084,-7,7,3,2.0,4.497452249999924,4.0,6.289873875000012,1450.509106209,1450.5271149999999,,1450.8112569169998,,,,,,,,1450.505676834,1450.5090583750002,None,,,,,,,,,,,206,kitchen,1,2024-03-15_10h58.15.636,image_similarity_rating,2023.2.3,None,2024-03-15 10h58.28.910800 +0100,
,103,124,84,84,stimuli/own/kitchen/103_kit.jpg,stimuli/own/kitchen/124_kit.jpg,,,,,,,,,0,131,131,83,1457.4938538750002,,,,,,,,,,,1457.778118917,1457.946838667,1457.946838667,1457.946838667,1457.946838667,1457.946838667,1457.946838667,1457.946838667,1457.946838667,1457.946838667,1464.1381700420002,7,-7,3,2.0,4.426451416999953,5.0,5.968225416999985,1457.4755155839998,1457.4938538750002,,1457.778091959,,,,,,,,1457.4719650420002,1457.47546875,None,,,,,,,,,,,206,kitchen,1,2024-03-15_10h58.15.636,image_similarity_rating,2023.2.3,None,2024-03-15 10h58.28.910800 +0100,
,106,111,162,162,stimuli/own/kitchen/106_kit.jpg,stimuli/own/kitchen/111_kit.jpg,,,,,,,,,0,132,132,161,1464.1436330840002,,,,,,,,,,,1464.428505209,1464.5975921250001,1464.5975921250001,1464.5975921250001,1464.5975921250001,1464.5975921250001,1464.5975921250001,1464.5975921250001,1464.5975921250001,1464.5975921250001,1469.8382300839999,7,-7,3,3.0,3.0120445420000124,2.0,4.854053250000106,1464.141807042,1464.1436330840002,1464.5975921250001,1464.428489334,,,,,,,,1464.1383863340002,1464.1417609169998,None,,,,,,,,,,,206,kitchen,1,2024-03-15_10h58.15.636,image_similarity_rating,2023.2.3,None,2024-03-15 10h58.28.910800 +0100,
,114,129,308,308,stimuli/own/kitchen/114_kit.jpg,stimuli/own/kitchen/129_kit.jpg,,,,,,,,,0,133,133,307,1469.843730959,,,,,,,,,,,1470.12854925,1470.297221667,1470.297221667,1470.297221667,1470.297221667,1470.297221667,1470.297221667,1470.297221667,1470.297221667,1470.297221667,1476.575742167,7,-7,3,2.0,3.957029625000132,3.0,6.1040574999999535,1469.8419120419999,1469.843730959,1470.297221667,1470.1285332920002,,,,,,,,1469.8384516249998,1469.841865334,None,,,,,,,,,,,206,kitchen,1,2024-03-15_10h58.15.636,image_similarity_rating,2023.2.3,None,2024-03-15 10h58.28.910800 +0100,
,135,138,577,577,stimuli/own/kitchen/135_kit.jpg,stimuli/own/kitchen/138_kit.jpg,,,,,,,,,0,134,134,576,1476.581533959,,,,,,,,,,,1476.865802375,1477.0310866670002,1477.0310866670002,1477.0310866670002,1477.0310866670002,1477.0310866670002,1477.0310866670002,1477.0310866670002,1477.0310866670002,1477.0310866670002,1482.925766459,7,-7,3,2.0,3.082640000000083,3.0,5.508578416999853,1476.5794490839999,1476.581533959,1477.0310866670002,1476.865790792,,,,,,,,1476.575966625,1476.5794025,None,,,,,,,,,,,206,kitchen,1,2024-03-15_10h58.15.636,image_similarity_rating,2023.2.3,None,2024-03-15 10h58.28.910800 +0100,
,103,118,78,78,stimuli/own/kitchen/103_kit.jpg,stimuli/own/kitchen/118_kit.jpg,,,,,,,,,0,135,135,77,1482.931516834,,,,,,,,,,,1483.2157098339999,1483.3815035420002,1483.3815035420002,1483.3815035420002,1483.3815035420002,1483.3815035420002,1483.3815035420002,1483.3815035420002,1483.3815035420002,1483.3815035420002,1489.0460094589998,-7,7,3,2.0,3.439972166999951,4.0,5.404606333999936,1482.929580209,1482.931516834,1483.3815035420002,1483.2156976249998,,,,,,,,1482.925989792,1482.9295337090002,None,,,,,,,,,,,206,kitchen,1,2024-03-15_10h58.15.636,image_similarity_rating,2023.2.3,None,2024-03-15 10h58.28.910800 +0100,
,106,135,183,183,stimuli/own/kitchen/106_kit.jpg,stimuli/own/kitchen/135_kit.jpg,,,,,,,,,0,136,136,182,1489.051693084,,,,,,,,,,,1489.345037209,1489.5096533750002,1489.5096533750002,1489.5096533750002,1489.5096533750002,1489.5096533750002,1489.5096533750002,1489.5096533750002,1489.5096533750002,1489.5096533750002,1497.4794233339999,7,-7,3,2.0,4.328325457999881,5.0,7.88349237500006,1489.049760292,1489.051693084,1489.5096533750002,1489.345022167,,,,,,,,1489.0462284589998,1489.049714459,None,,,,,,,,,,,206,kitchen,1,2024-03-15_10h58.15.636,image_similarity_rating,2023.2.3,None,2024-03-15 10h58.28.910800 +0100,
,132,139,565,565,stimuli/own/kitchen/132_kit.jpg,stimuli/own/kitchen/139_kit.jpg,,,,,,,,,0,137,137,564,1497.485013125,,,,,,,,,,,1497.7782255420002,1497.9430595,1497.9430595,1497.9430595,1497.9430595,1497.9430595,1497.9430595,1497.9430595,1497.9430595,1497.9430595,1504.621195667,7,-7,3,4.0,3.0755151670000487,2.0,6.505192625000063,1497.483084375,1497.485013125,1497.9430595,1497.778212667,,,,,,,,1497.4796395419999,1497.4830380839999,None,,,,,,,,,,,206,kitchen,1,2024-03-15_10h58.15.636,image_similarity_rating,2023.2.3,None,2024-03-15 10h58.28.910800 +0100,
,103,132,91,91,stimuli/own/kitchen/103_kit.jpg,stimuli/own/kitchen/132_kit.jpg,,,,,,,,,0,138,138,90,1504.626636125,,,,,,,,,,,1504.9116827090002,1505.083417834,1505.083417834,1505.083417834,1505.083417834,1505.083417834,1505.083417834,1505.083417834,1505.083417834,1505.083417834,1513.7296695,7,-7,3,2.0,4.968528750000132,3.0,7.883914125000047,1504.624846875,1504.626636125,1505.083417834,1504.911665959,,,,,,,,1504.6214167090002,1504.624800917,None,,,,,,,,,,,206,kitchen,1,2024-03-15_10h58.15.636,image_similarity_rating,2023.2.3,None,2024-03-15 10h58.28.910800 +0100,
,135,136,575,575,stimuli/own/kitchen/135_kit.jpg,stimuli/own/kitchen/136_kit.jpg,,,,,,,,,0,139,139,574,1513.7353726669999,,,,,,,,,,,1514.0282712090002,1514.195597042,1514.195597042,1514.195597042,1514.195597042,1514.195597042,1514.195597042,1514.195597042,1514.195597042,1514.195597042,1525.6593808339999,7,-7,3,3.0,7.446228582999993,1.0,11.32598824999991,1513.7334464169999,1513.7353726669999,1514.195597042,1514.02825475,,,,,,,,1513.7298867499999,1513.733399792,None,,,,,,,,,,,206,kitchen,1,2024-03-15_10h58.15.636,image_similarity_rating,2023.2.3,None,2024-03-15 10h58.28.910800 +0100,
,102,134,60,60,stimuli/own/kitchen/102_kit.jpg,stimuli/own/kitchen/134_kit.jpg,,,,,,,,,0,140,140,59,1525.6649777920002,,,,,,,,,,,1525.9495192919999,1526.1130751669998,1526.1130751669998,1526.1130751669998,1526.1130751669998,1526.1130751669998,1526.1130751669998,1526.1130751669998,1526.1130751669998,1526.1130751669998,1539.216769875,-7,7,3,2.0,4.040864167000109,1.0,12.942113208000137,1525.6631928749998,1525.6649777920002,1526.1130751669998,1525.949509167,,,,,,,,1525.659598917,1525.663146459,None,,,,,,,,,,,206,kitchen,1,2024-03-15_10h58.15.636,image_similarity_rating,2023.2.3,None,2024-03-15 10h58.28.910800 +0100,
,106,136,184,184,stimuli/own/kitchen/106_kit.jpg,stimuli/own/kitchen/136_kit.jpg,,,,,,,,,0,141,141,183,1539.2269501669998,,,,,,,,,,,1539.5120553749998,1539.6762227499999,1539.6762227499999,1539.6762227499999,1539.6762227499999,1539.6762227499999,1539.6762227499999,1539.6762227499999,1539.6762227499999,1539.6762227499999,1548.62940025,-7,7,3,3.0,4.350763833999736,1.0,8.780342708999797,1539.220439709,1539.2269501669998,1539.6762227499999,1539.5120402090001,,,,,,,,1539.216989209,1539.220393875,None,,,,,,,,,,,206,kitchen,1,2024-03-15_10h58.15.636,image_similarity_rating,2023.2.3,None,2024-03-15 10h58.28.910800 +0100,
,116,118,321,321,stimuli/own/kitchen/116_kit.jpg,stimuli/own/kitchen/118_kit.jpg,,,,,,,,,0,142,142,320,1548.6348669589997,,,,,,,,,,,1548.9281501249998,1549.093923459,1549.093923459,1549.093923459,1549.093923459,1549.093923459,1549.093923459,1549.093923459,1549.093923459,1549.093923459,1555.7293274999997,-7,7,3,2.0,3.913814750000256,7.0,6.480629665999913,1548.633059417,1548.6348669589997,1549.093923459,1548.92813625,,,,,,,,1548.62961975,1548.633013834,None,,,,,,,,,,,206,kitchen,1,2024-03-15_10h58.15.636,image_similarity_rating,2023.2.3,None,2024-03-15 10h58.28.910800 +0100,
,118,129,374,374,stimuli/own/kitchen/118_kit.jpg,stimuli/own/kitchen/129_kit.jpg,,,,,,,,,0,143,143,373,1555.7349155419997,,,,,,,,,,,1556.028877959,1556.1994501670001,1556.1994501670001,1556.1994501670001,1556.1994501670001,1556.1994501670001,1556.1994501670001,1556.1994501670001,1556.1994501670001,1556.1994501670001,1564.2169319999998,-7,7,3,2.0,3.66999795799984,2.0,7.682754957999805,1555.7329732499998,1555.7349155419997,1556.1994501670001,1556.0288621669997,,,,,,,,1555.729547,1555.73292725,None,,,,,,,,,,,206,kitchen,1,2024-03-15_10h58.15.636,image_similarity_rating,2023.2.3,None,2024-03-15 10h58.28.910800 +0100,
,113,114,271,271,stimuli/own/kitchen/113_kit.jpg,stimuli/own/kitchen/114_kit.jpg,,,,,,,,,0,144,144,270,1564.226886459,,,,,,,,,,,1564.512597125,1564.6823141249997,1564.6823141249997,1564.6823141249997,1564.6823141249997,1564.6823141249997,1564.6823141249997,1564.6823141249997,1564.6823141249997,1564.6823141249997,1571.275970709,-7,7,3,4.0,4.207395375000033,1.0,6.3563930000000255,1564.220716334,1564.226886459,1564.6823141249997,1564.5125804169998,,,,,,,,1564.2171562089998,1564.2206702499998,None,,,,,,,,,,,206,kitchen,1,2024-03-15_10h58.15.636,image_similarity_rating,2023.2.3,None,2024-03-15 10h58.28.910800 +0100,
,112,131,261,261,stimuli/own/kitchen/112_kit.jpg,stimuli/own/kitchen/131_kit.jpg,,,,,,,,,0,145,145,260,1571.2815584169998,,,,,,,,,,,1571.57878475,1571.745367334,1571.745367334,1571.745367334,1571.745367334,1571.745367334,1571.745367334,1571.745367334,1571.745367334,1571.745367334,1582.745815959,-7,7,3,2.0,5.282319917000223,2.0,10.838735292000365,1571.279604334,1571.2815584169998,1571.745367334,1571.578770875,,,,,,,,1571.276186,1571.2795584589999,None,,,,,,,,,,,206,kitchen,1,2024-03-15_10h58.15.636,image_similarity_rating,2023.2.3,None,2024-03-15 10h58.28.910800 +0100,
,114,122,302,302,stimuli/own/kitchen/114_kit.jpg,stimuli/own/kitchen/122_kit.jpg,,,,,,,,,0,146,146,301,1582.7513652090001,,,,,,,,,,,1583.044699917,1583.2162278339997,1583.2162278339997,1583.2162278339997,1583.2162278339997,1583.2162278339997,1583.2162278339997,1583.2162278339997,1583.2162278339997,1583.2162278339997,1591.8421134169998,7,-7,3,6.0,5.838997166999889,7.0,7.877032333999978,1582.7494404589997,1582.7513652090001,1583.2162278339997,1583.044684375,,,,,,,,1582.7460339589998,1582.7493949589998,None,,,,,,,,,,,206,kitchen,1,2024-03-15_10h58.15.636,image_similarity_rating,2023.2.3,None,2024-03-15 10h58.28.910800 +0100,
,118,127,373,373,stimuli/own/kitchen/118_kit.jpg,stimuli/own/kitchen/127_kit.jpg,,,,,,,,,0,147,147,372,1591.847679209,,,,,,,,,,,1592.131771709,1592.296140417,1592.296140417,1592.296140417,1592.296140417,1592.296140417,1592.296140417,1592.296140417,1592.296140417,1592.296140417,1598.692251209,7,-7,3,2.0,2.251732499999889,3.0,6.185161082999912,1591.845905917,1591.847679209,1592.296140417,1592.131759709,,,,,,,,1591.8423575839997,1591.8458599169999,None,,,,,,,,,,,206,kitchen,1,2024-03-15_10h58.15.636,image_similarity_rating,2023.2.3,None,2024-03-15 10h58.28.910800 +0100,
,120,136,419,419,stimuli/own/kitchen/120_kit.jpg,stimuli/own/kitchen/136_kit.jpg,,,,,,,,,0,148,148,418,1598.69802575,,,,,,,,,,,1598.983577209,1599.1485064999997,1599.1485064999997,1599.1485064999997,1599.1485064999997,1599.1485064999997,1599.1485064999997,1599.1485064999997,1599.1485064999997,1599.1485064999997,1605.9459700839998,-7,7,3,3.0,4.0670780830000695,2.0,6.546721500000331,1598.69590075,1598.69802575,1599.1485064999997,1598.9835643339998,,,,,,,,1598.6924842919998,1598.695855,None,,,,,,,,,,,206,kitchen,1,2024-03-15_10h58.15.636,image_similarity_rating,2023.2.3,None,2024-03-15 10h58.28.910800 +0100,
,117,138,361,361,stimuli/own/kitchen/117_kit.jpg,stimuli/own/kitchen/138_kit.jpg,,,,,,,,,0,149,149,360,1605.9513487499999,,,,,,,,,,,1606.2445577089998,1606.412521917,1606.412521917,1606.412521917,1606.412521917,1606.412521917,1606.412521917,1606.412521917,1606.412521917,1606.412521917,1614.4789875839997,7,-7,3,2.0,5.651462709000043,3.0,7.693297249999887,1605.949579792,1605.9513487499999,1606.412521917,1606.24454125,,,,,,,,1605.9461879589999,1605.9495337089998,None,,,,,,,,,,,206,kitchen,1,2024-03-15_10h58.15.636,image_similarity_rating,2023.2.3,None,2024-03-15 10h58.28.910800 +0100,
,104,135,124,124,stimuli/own/kitchen/104_kit.jpg,stimuli/own/kitchen/135_kit.jpg,,,,,,,,,0,150,150,123,1614.484541625,,,,,,,,,,,1614.777978875,1614.943015834,1614.943015834,1614.943015834,1614.943015834,1614.943015834,1614.943015834,1614.943015834,1614.943015834,1614.943015834,1622.137647125,7,-7,3,2.0,5.400389333000021,5.0,6.9934137920004105,1614.4826052919998,1614.484541625,1614.943015834,1614.7779665839998,,,,,,,,1614.4792064590001,1614.482558667,None,,,,,,,,,,,206,kitchen,1,2024-03-15_10h58.15.636,image_similarity_rating,2023.2.3,None,2024-03-15 10h58.28.910800 +0100,
,101,124,19,19,stimuli/own/kitchen/101_kit.jpg,stimuli/own/kitchen/124_kit.jpg,,,,,,,,,0,151,151,18,1622.1432232500001,,,,,,,,,,,1622.427808084,1622.599562459,1622.599562459,1622.599562459,1622.599562459,1622.599562459,1622.599562459,1622.599562459,1622.599562459,1622.599562459,1627.912313584,7,-7,3,2.0,2.071938957999919,3.0,5.11487895800019,1622.1412559589999,1622.1432232500001,1622.599562459,1622.427790792,,,,,,,,1622.1378638339997,1622.1412100839998,None,,,,,,,,,,,206,kitchen,1,2024-03-15_10h58.15.636,image_similarity_rating,2023.2.3,None,2024-03-15 10h58.28.910800 +0100,
,101,130,24,24,stimuli/own/kitchen/101_kit.jpg,stimuli/own/kitchen/130_kit.jpg,,,,,,,,,0,152,152,23,1627.9178461669999,,,,,,,,,,,1628.2110615419997,1628.379722667,1628.379722667,1628.379722667,1628.379722667,1628.379722667,1628.379722667,1628.379722667,1628.379722667,1628.379722667,1636.5123936669997,7,-7,3,3.0,4.1900650829998085,4.0,7.944814958999814,1627.915922625,1627.9178461669999,1628.379722667,1628.2110441249997,,,,,,,,1627.912532584,1627.915877125,None,,,,,,,,,,,206,kitchen,1,2024-03-15_10h58.15.636,image_similarity_rating,2023.2.3,None,2024-03-15 10h58.28.910800 +0100,
,101,127,22,22,stimuli/own/kitchen/101_kit.jpg,stimuli/own/kitchen/127_kit.jpg,,,,,,,,,0,153,153,21,1636.517769959,,,,,,,,,,,1636.811847,1636.9767189999998,1636.9767189999998,1636.9767189999998,1636.9767189999998,1636.9767189999998,1636.9767189999998,1636.9767189999998,1636.9767189999998,1636.9767189999998,1643.6955968749999,7,-7,3,2.0,4.541092083999956,4.0,6.521128125000359,1636.5160042090001,1636.517769959,1636.9767189999998,1636.8118303339998,,,,,,,,1636.5126115839998,1636.515958084,None,,,,,,,,,,,206,kitchen,1,2024-03-15_10h58.15.636,image_similarity_rating,2023.2.3,None,2024-03-15 10h58.28.910800 +0100,
,111,129,233,233,stimuli/own/kitchen/111_kit.jpg,stimuli/own/kitchen/129_kit.jpg,,,,,,,,,0,154,154,232,1643.701157042,,,,,,,,,,,1643.9943213339998,1644.1605565,1644.1605565,1644.1605565,1644.1605565,1644.1605565,1644.1605565,1644.1605565,1644.1605565,1644.1605565,1650.1920103339999,-7,7,3,2.0,2.5999971250003,3.0,5.72044354100035,1643.699212084,1643.701157042,1644.1605565,1643.9943067919999,,,,,,,,1643.695816292,1643.699166125,None,,,,,,,,,,,206,kitchen,1,2024-03-15_10h58.15.636,image_similarity_rating,2023.2.3,None,2024-03-15 10h58.28.910800 +0100,
