sub_num,trial,block,task,is_practice,category,image,texture,duration,mask_dur,jitter,stim_time,time_of_resp,trial_response,mask_time,fix_time,jit_onset,trial_end,trial_accuracy,RT
136,1,1,categorization,0,kitchen,SHINEd_sun_aexklacwqwezaorf.tif,84,0.0666666666666667,0.0666666666666667,1.23333333333333,5573.334155417,5575.430526584,9,5573.396801542,5573.457417334,5575.443214167,5576.669934667,1,2.09637116700014
136,2,1,categorization,0,bathroom,SHINEd_sun_aljolscmmzydegqp.tif,33,0.0666666666666667,0.0666666666666667,0.783333333333333,5576.688774584,5577.585872834,9,5576.755659667,5576.822787334,5577.613002709,5578.389706417,0,0.897098249999544
136,3,1,categorization,0,kitchen,SHINEd_sun_akcjzhbbjlbogpdi.tif,99,0.0666666666666667,0.0666666666666667,0.75,5578.398232792,5579.470944875,13,5578.4627825,5578.521666,5579.490279792,5580.233618292,0,1.07271208299971
136,4,1,categorization,0,kitchen,SHINEd_sun_aadbddgrdsjugojn.tif,64,0.0666666666666667,0.0666666666666667,1.23333333333333,5580.238440459,5581.199097667,9,5580.300223542,5580.361391917,5581.213801875,5582.440512292,1,0.960657208000157
136,5,1,categorization,0,bathroom,SHINEd_sun_alkosphxlxwjwgjd.tif,34,0.0666666666666667,0.0666666666666667,1.13333333333333,5582.450325875,5583.814726625,9,5582.515554542,5582.58411725,5583.841033125,5584.96775625,0,1.36440074999973
136,6,1,categorization,0,bathroom,SHINEd_sun_amzlamotzwfkwjco.tif,37,0.0666666666666667,0.0666666666666667,0.95,5584.977348959,5585.703017584,13,5585.043041709,5585.110706542,5585.733881334,5586.677265584,1,0.725668625000253
136,7,1,categorization,0,bathroom,SHINEd_sun_ahijqszoswveeyji.tif,28,0.0666666666666667,0.0666666666666667,0.733333333333333,5586.693242667,5587.718394292,13,5586.760329792,5586.827171959,5587.729554709,5588.456227417,1,1.02515162500003
136,8,1,categorization,0,kitchen,SHINEd_sun_abftihopvusyfakt.tif,71,0.0666666666666667,0.0666666666666667,1.31666666666667,5588.461102084,5590.135444459,13,5588.522823584,5588.584120459,5590.153348834,5591.463382959,0,1.67434237499947
136,9,1,categorization,0,kitchen,SHINEd_sun_aypmqwcualkenuoe.tif,109,0.0666666666666667,0.0666666666666667,0.8,5591.482736667,5594.884296834,13,5591.549548375,5591.616298334,5594.902006709,5595.695345667,0,3.40156016700075
136,10,1,categorization,0,kitchen,SHINEd_sun_aeqdocilnnpuvuhx.tif,83,0.0666666666666667,0.0666666666666667,0.716666666666667,5595.699758209,5597.207279167,9,5595.7614475,5595.822699042,5597.225404292,5597.935408834,1,1.50752095799999
136,11,1,categorization,0,kitchen,SHINEd_sun_abpwyqmlzafvklqo.tif,72,0.0666666666666667,0.0666666666666667,0.916666666666667,5597.940854375,5599.111005042,13,5598.0025015,5598.063779042,5599.115542167,5600.025548125,0,1.1701506670006
136,12,1,categorization,0,kitchen,SHINEd_sun_aaxxjlsuzvqlgylf.tif,68,0.0666666666666667,0.0666666666666667,0.95,5600.030432084,5601.342319917,9,5600.092233875,5600.153294792,5601.355741875,5602.29908025,1,1.31188783300058
136,13,1,categorization,0,bathroom,SHINEd_sun_ahaulkltgpkeeemi.tif,26,0.0666666666666667,0.0666666666666667,0.833333333333333,5602.30469675,5603.583050667,13,5602.366421292,5602.427543709,5603.5965985,5604.423270334,1,1.27835391699955
136,14,1,categorization,0,bathroom,SHINEd_sun_aggnnqpdorgxpvce.tif,21,0.0666666666666667,0.0666666666666667,0.75,5604.427869792,5605.342567709,13,5604.48967425,5604.550874959,5605.353321792,5606.096660584,1,0.914697917000012
136,15,1,categorization,0,bathroom,SHINEd_sun_afcoljnjfoxjtgja.tif,20,0.0666666666666667,0.0666666666666667,1.53333333333333,5606.102515209,5607.239294875,13,5606.164474959,5606.225392042,5607.244406125,5608.771117,1,1.13677966600062
136,16,1,categorization,0,bathroom,SHINEd_sun_aapitsgbtktqubfy.tif,12,0.0666666666666667,0.0666666666666667,1.05,5608.789192417,5610.0002305,13,5608.856076334,5608.92299575,5610.029102084,5611.072471417,1,1.21103808299995
136,17,1,categorization,0,bathroom,SHINEd_sun_axyrejkiiaqiurjk.tif,59,0.0666666666666667,0.0666666666666667,0.9,5611.082667292,5613.191119084,13,5611.147042625,5611.214951709,5613.200974834,5614.094313917,1,2.10845179199987
136,18,1,categorization,0,kitchen,SHINEd_sun_axyyrmzcupyhlivc.tif,107,0.0666666666666667,0.0666666666666667,1.18333333333333,5614.099061875,5615.862411292,13,5614.160875167,5614.221971334,5615.874877625,5617.051579959,0,1.76334941699952
136,19,1,categorization,0,bathroom,SHINEd_sun_anryaplzeujmzfkd.tif,39,0.0666666666666667,0.0666666666666667,0.9,5617.061686375,5619.886527459,9,5617.128258542,5617.195713875,5619.898970625,5620.792308584,0,2.82484108399967
136,20,1,categorization,0,bathroom,SHINEd_sun_abapwbhyhkfixyex.tif,14,0.0666666666666667,0.0666666666666667,1.66666666666667,5620.797395,5623.343230084,9,5620.859088375,5620.920427292,5623.356458417,5625.016490584,0,2.54583508400083
136,21,1,categorization,0,bathroom,SHINEd_labelme_sfxiulhjbhlyiyt.tif,11,0.0666666666666667,0.0666666666666667,1.13333333333333,5625.034262667,5626.267479334,13,5625.100752917,5625.16833725,5626.294603834,5627.4213225,1,1.23321666700031
136,22,1,categorization,0,bathroom,SHINEd_sun_ajlawzvmubibwbpy.tif,30,0.0666666666666667,0.0666666666666667,1.3,5627.430880459,5628.300809667,13,5627.496278334,5627.56470725,5628.321692209,5629.615074584,1,0.86992920800003
136,23,1,categorization,0,kitchen,SHINEd_sun_aqeaevwwwjoqhzvl.tif,101,0.0666666666666667,0.0666666666666667,1.93333333333333,5629.633336167,5630.580076792,13,5629.699590167,5629.766790125,5630.607092209,5632.53380225,0,0.94674062499962
136,24,1,categorization,0,bathroom,SHINEd_sun_alotolagknyrgtsk.tif,35,0.0666666666666667,0.0666666666666667,1,5632.554642917,5634.5105395,13,5632.620903959,5632.6887155,5634.524409792,5635.517747417,1,1.95589658300014
136,25,1,categorization,0,kitchen,SHINEd_sun_aenotlpyftoioydp.tif,82,0.0666666666666667,0.0666666666666667,0.883333333333333,5635.522643584,5636.222787125,9,5635.584311834,5635.645716375,5636.23151225,5637.108184584,1,0.700143540999306
136,26,1,categorization,0,bathroom,SHINEd_sun_aavhrsfjbserjtht.tif,13,0.0666666666666667,0.0666666666666667,1.95,5637.113975709,5637.839171209,9,5637.175692584,5637.236960625,5637.85591275,5639.79929775,0,0.725195499999245
136,27,1,categorization,0,kitchen,SHINEd_sun_agorklincwxrdtga.tif,87,0.0666666666666667,0.0666666666666667,1.25,5639.817170542,5640.913516125,9,5639.883577584,5639.95148575,5640.938281459,5642.181663417,1,1.09634558299967
136,28,1,categorization,0,bathroom,SHINEd_sun_aleqenyvunhactkl.tif,32,0.0666666666666667,0.0666666666666667,1.95,5642.198299,5643.108918375,9,5642.264793625,5642.331888042,5643.138320625,5645.081699334,0,0.910619375000351
136,29,1,categorization,0,bathroom,SHINEd_sun_abjtwfukuwddzted.tif,15,0.0666666666666667,0.0666666666666667,1.91666666666667,5645.096686917,5645.910700875,13,5645.163292084,5645.230360167,5645.93686,5647.846900792,1,0.814013958000032
136,30,1,categorization,0,bathroom,SHINEd_sun_aghyqhbptboemmoq.tif,23,0.0666666666666667,0.0666666666666667,1.41666666666667,5647.865621375,5648.649375792,13,5647.932178917,5647.999353,5648.672881834,5650.082929084,1,0.783754416999727
136,31,1,categorization,0,bathroom,SHINEd_sun_axxbkopsgyouuebh.tif,58,0.0666666666666667,0.0666666666666667,0.716666666666667,5650.100875834,5651.078370292,13,5650.168438125,5650.235154459,5651.108691709,5651.818698375,1,0.977494457999455
136,32,1,categorization,0,kitchen,SHINEd_sun_auticobqsbwgoppi.tif,104,0.0666666666666667,0.0666666666666667,1.28333333333333,5651.824635584,5652.919054709,9,5651.886362375,5651.947545792,5652.932906709,5654.20963075,1,1.09441912500006
136,33,1,categorization,0,kitchen,SHINEd_sun_aapllqyqlykszopd.tif,66,0.0666666666666667,0.0666666666666667,0.9,5654.222848,5656.199213125,9,5654.290709375,5654.356378084,5656.209085042,5657.102425334,1,1.97636512499957
136,34,1,categorization,0,bathroom,SHINEd_sun_ausgutylgojavyoq.tif,53,0.0666666666666667,0.0666666666666667,0.8,5657.108001334,5657.78217625,13,5657.169760167,5657.230894584,5657.799541834,5658.592879792,1,0.674174916000084
136,35,1,categorization,0,kitchen,SHINEd_sun_ahljzhgcdpomplvg.tif,91,0.0666666666666667,0.0666666666666667,1.01666666666667,5658.597588334,5659.43911375,9,5658.659284209,5658.720527375,5659.455722042,5660.465763917,1,0.841525415999968
136,36,1,categorization,0,kitchen,SHINEd_sun_acgtpgfybqjmzeyw.tif,75,0.0666666666666667,0.0666666666666667,0.85,5660.473683209,5661.256610542,9,5660.538438834,5660.606056709,5661.279464209,5662.122840834,1,0.782927332999861
136,37,1,categorization,0,bathroom,SHINEd_sun_acduarbnmmoglmiv.tif,16,0.0666666666666667,0.0666666666666667,1.51666666666667,5662.138393417,5664.870534667,13,5662.205066792,5662.272227209,5664.874829375,5666.384872459,1,2.7321412500005
136,38,1,categorization,0,bathroom,SHINEd_sun_aoybiabnpadelefl.tif,41,0.0666666666666667,0.0666666666666667,1.83333333333333,5666.393351584,5667.7191685,13,5666.458277625,5666.52739375,5667.75295925,5669.579666667,1,1.32581691599989
136,39,1,categorization,0,kitchen,SHINEd_labelme_brsyyvweiuaazfr.tif,61,0.0666666666666667,0.0666666666666667,0.716666666666667,5669.59612,5670.902353875,9,5669.663015042,5669.7303,5670.916314084,5671.626318417,1,1.30623387499963
136,40,1,categorization,0,bathroom,SHINEd_sun_acegryoqftbzowsg.tif,17,0.0666666666666667,0.0666666666666667,0.9,5671.631086209,5672.47097175,13,5671.692761375,5671.753937209,5672.489112334,5673.382449209,1,0.839885540999603
136,41,1,categorization,0,bathroom,SHINEd_sun_awnqiikzaispgmwo.tif,56,0.0666666666666667,0.0666666666666667,0.916666666666667,5673.387452792,5675.046436834,9,5673.449335667,5673.510426084,5675.063104709,5675.97310975,0,1.65898404200016
136,42,1,categorization,0,bathroom,SHINEd_sun_atstyziqcmkahyxk.tif,51,0.0666666666666667,0.0666666666666667,0.816666666666667,5675.97792875,5676.862754292,13,5676.039645417,5676.100678834,5676.869290542,5677.679297042,1,0.884825542000726
136,43,1,categorization,0,bathroom,SHINEd_sun_axldvoqbuvuggfmq.tif,57,0.0666666666666667,0.0666666666666667,1.88333333333333,5677.686137167,5679.094478542,9,5677.747890834,5677.809049834,5679.111660625,5680.988366167,0,1.40834137499951
136,44,1,categorization,0,kitchen,SHINEd_sun_aegoxogugdkwpmpj.tif,80,0.0666666666666667,0.0666666666666667,0.9,5681.006782959,5682.695188459,13,5681.07369425,5681.14066775,5682.709780667,5683.603118417,0,1.68840550000004
136,45,1,categorization,0,kitchen,SHINEd_sun_admlmbcdswaszruo.tif,79,0.0666666666666667,0.0666666666666667,1,5683.607759584,5684.950981875,9,5683.669537084,5683.730659334,5684.966748709,5685.960087084,1,1.34322229100053
136,46,1,categorization,0,kitchen,SHINEd_sun_aehawpgmrlhlvcow.tif,81,0.0666666666666667,0.0666666666666667,0.733333333333333,5685.965425292,5686.726963042,9,5686.027051834,5686.088332875,5686.740499334,5687.467170875,1,0.761537749999661
136,47,1,categorization,0,bathroom,SHINEd_sun_agguqiubmwhqqunb.tif,22,0.0666666666666667,0.0666666666666667,0.883333333333333,5687.472868417,5688.445957459,9,5687.534457792,5687.59572625,5688.464244542,5689.340915917,0,0.973089041999629
136,48,1,categorization,0,bathroom,SHINEd_sun_apmqjbnwghzuhhzh.tif,46,0.0666666666666667,0.0666666666666667,1.73333333333333,5689.346453959,5690.206337,9,5689.408477834,5689.469402584,5690.221642709,5691.948342334,0,0.859883040999193
136,49,1,categorization,0,kitchen,SHINEd_sun_agzzivivdpnawacl.tif,89,0.0666666666666667,0.0666666666666667,1.91666666666667,5691.967395417,5693.421899792,13,5692.033539709,5692.101233167,5693.437309875,5695.347364084,0,1.45450437499949
136,50,1,categorization,0,bathroom,SHINEd_sun_aqrpegblszgcoujh.tif,48,0.0666666666666667,0.0666666666666667,1.35,5695.359396709,5699.054889959,9,5695.427433959,5695.494416209,5699.079888292,5700.423271542,0,3.69549325000025
