sub_num,trial,block,task,is_practice,category,image,texture,duration,mask_dur,jitter,stim_time,time_of_resp,trial_response,mask_time,fix_time,jit_onset,trial_end,trial_accuracy,RT
136,1,0,categorization,1,bathroom,SHINEd_bathroom_practice5.tif,115,0.0666666666666667,0.0666666666666667,1.21666666666667,5525.483952209,5526.998930459,13,5525.55032,5525.610208459,5527.030925667,5528.241142375,1,1.51497825000024
136,2,0,categorization,1,kitchen,SHINEd_kitchen_practice2.tif,117,0.0666666666666667,0.0666666666666667,1.36666666666667,5528.295902417,5529.499206875,13,5528.366050167,5528.428163625,5529.53904175,5530.899241584,0,1.20330445799937
136,3,0,categorization,1,bathroom,SHINEd_bathroom_practice2.tif,112,0.0666666666666667,0.0666666666666667,1.85,5530.946055625,5531.881174209,13,5531.021051417,5531.081618459,5531.907342084,5533.75089475,1,0.93511858400052
136,4,0,categorization,1,kitchen,SHINEd_kitchen_practice1.tif,116,0.0666666666666667,0.0666666666666667,1.55,5533.777471542,5534.819123625,13,5533.847197,5533.912123417,5534.855660042,5536.399227459,0,1.04165208300037
136,5,0,categorization,1,bathroom,SHINEd_bathroom_practice3.tif,113,0.0666666666666667,0.0666666666666667,1.48333333333333,5536.42439325,5538.42320275,13,5536.496465167,5536.559983209,5538.446865375,5539.924295167,1,1.99880949999988
136,6,0,categorization,1,bathroom,SHINEd_bathroom_practice1.tif,111,0.0666666666666667,0.0666666666666667,1.15,5539.95062275,5541.135701542,13,5540.020282792,5540.084871125,5541.159359084,5542.30288025,1,1.18507879200024
136,7,0,categorization,1,kitchen,SHINEd_kitchen_practice3.tif,118,0.0666666666666667,0.0666666666666667,0.733333333333333,5542.314519917,5550.217905292,13,5542.379536,5542.447862792,5550.251443417,5550.978115709,0,7.90338537499974
136,8,0,categorization,1,bathroom,SHINEd_bathroom_practice4.tif,114,0.0666666666666667,0.0666666666666667,1.6,5550.9825775,5551.942735542,13,5551.044275875,5551.105517125,5551.957346625,5553.550726084,1,0.96015804200033
136,9,0,categorization,1,kitchen,SHINEd_kitchen_practice5.tif,120,0.0666666666666667,0.0666666666666667,0.716666666666667,5553.572091917,5554.954112125,9,5553.638803,5553.706374834,5554.983122292,5555.693127334,1,1.38202020800054
136,10,0,categorization,1,kitchen,SHINEd_kitchen_practice4.tif,119,0.0666666666666667,0.0666666666666667,1.21666666666667,5555.698022584,5556.65545325,9,5555.759835042,5555.821141084,5556.673033709,5557.883087709,1,0.957430666000619
136,1,1,categorization,0,kitchen,SHINEd_sun_aexklacwqwezaorf.tif,84,0.0666666666666667,0.0666666666666667,1.23333333333333,5573.334155417,5575.430526584,9,5573.396801542,5573.457417334,5575.443214167,5576.669934667,1,2.09637116700014
136,2,1,categorization,0,bathroom,SHINEd_sun_aljolscmmzydegqp.tif,33,0.0666666666666667,0.0666666666666667,0.783333333333333,5576.688774584,5577.585872834,9,5576.755659667,5576.822787334,5577.613002709,5578.389706417,0,0.897098249999544
136,3,1,categorization,0,kitchen,SHINEd_sun_akcjzhbbjlbogpdi.tif,99,0.0666666666666667,0.0666666666666667,0.75,5578.398232792,5579.470944875,13,5578.4627825,5578.521666,5579.490279792,5580.233618292,0,1.07271208299971
136,4,1,categorization,0,kitchen,SHINEd_sun_aadbddgrdsjugojn.tif,64,0.0666666666666667,0.0666666666666667,1.23333333333333,5580.238440459,5581.199097667,9,5580.300223542,5580.361391917,5581.213801875,5582.440512292,1,0.960657208000157
136,5,1,categorization,0,bathroom,SHINEd_sun_alkosphxlxwjwgjd.tif,34,0.0666666666666667,0.0666666666666667,1.13333333333333,5582.450325875,5583.814726625,9,5582.515554542,5582.58411725,5583.841033125,5584.96775625,0,1.36440074999973
136,6,1,categorization,0,bathroom,SHINEd_sun_amzlamotzwfkwjco.tif,37,0.0666666666666667,0.0666666666666667,0.95,5584.977348959,5585.703017584,13,5585.043041709,5585.110706542,5585.733881334,5586.677265584,1,0.725668625000253
136,7,1,categorization,0,bathroom,SHINEd_sun_ahijqszoswveeyji.tif,28,0.0666666666666667,0.0666666666666667,0.733333333333333,5586.693242667,5587.718394292,13,5586.760329792,5586.827171959,5587.729554709,5588.456227417,1,1.02515162500003
136,8,1,categorization,0,kitchen,SHINEd_sun_abftihopvusyfakt.tif,71,0.0666666666666667,0.0666666666666667,1.31666666666667,5588.461102084,5590.135444459,13,5588.522823584,5588.584120459,5590.153348834,5591.463382959,0,1.67434237499947
136,9,1,categorization,0,kitchen,SHINEd_sun_aypmqwcualkenuoe.tif,109,0.0666666666666667,0.0666666666666667,0.8,5591.482736667,5594.884296834,13,5591.549548375,5591.616298334,5594.902006709,5595.695345667,0,3.40156016700075
136,10,1,categorization,0,kitchen,SHINEd_sun_aeqdocilnnpuvuhx.tif,83,0.0666666666666667,0.0666666666666667,0.716666666666667,5595.699758209,5597.207279167,9,5595.7614475,5595.822699042,5597.225404292,5597.935408834,1,1.50752095799999
136,11,1,categorization,0,kitchen,SHINEd_sun_abpwyqmlzafvklqo.tif,72,0.0666666666666667,0.0666666666666667,0.916666666666667,5597.940854375,5599.111005042,13,5598.0025015,5598.063779042,5599.115542167,5600.025548125,0,1.1701506670006
136,12,1,categorization,0,kitchen,SHINEd_sun_aaxxjlsuzvqlgylf.tif,68,0.0666666666666667,0.0666666666666667,0.95,5600.030432084,5601.342319917,9,5600.092233875,5600.153294792,5601.355741875,5602.29908025,1,1.31188783300058
136,13,1,categorization,0,bathroom,SHINEd_sun_ahaulkltgpkeeemi.tif,26,0.0666666666666667,0.0666666666666667,0.833333333333333,5602.30469675,5603.583050667,13,5602.366421292,5602.427543709,5603.5965985,5604.423270334,1,1.27835391699955
136,14,1,categorization,0,bathroom,SHINEd_sun_aggnnqpdorgxpvce.tif,21,0.0666666666666667,0.0666666666666667,0.75,5604.427869792,5605.342567709,13,5604.48967425,5604.550874959,5605.353321792,5606.096660584,1,0.914697917000012
136,15,1,categorization,0,bathroom,SHINEd_sun_afcoljnjfoxjtgja.tif,20,0.0666666666666667,0.0666666666666667,1.53333333333333,5606.102515209,5607.239294875,13,5606.164474959,5606.225392042,5607.244406125,5608.771117,1,1.13677966600062
136,16,1,categorization,0,bathroom,SHINEd_sun_aapitsgbtktqubfy.tif,12,0.0666666666666667,0.0666666666666667,1.05,5608.789192417,5610.0002305,13,5608.856076334,5608.92299575,5610.029102084,5611.072471417,1,1.21103808299995
136,17,1,categorization,0,bathroom,SHINEd_sun_axyrejkiiaqiurjk.tif,59,0.0666666666666667,0.0666666666666667,0.9,5611.082667292,5613.191119084,13,5611.147042625,5611.214951709,5613.200974834,5614.094313917,1,2.10845179199987
136,18,1,categorization,0,kitchen,SHINEd_sun_axyyrmzcupyhlivc.tif,107,0.0666666666666667,0.0666666666666667,1.18333333333333,5614.099061875,5615.862411292,13,5614.160875167,5614.221971334,5615.874877625,5617.051579959,0,1.76334941699952
136,19,1,categorization,0,bathroom,SHINEd_sun_anryaplzeujmzfkd.tif,39,0.0666666666666667,0.0666666666666667,0.9,5617.061686375,5619.886527459,9,5617.128258542,5617.195713875,5619.898970625,5620.792308584,0,2.82484108399967
136,20,1,categorization,0,bathroom,SHINEd_sun_abapwbhyhkfixyex.tif,14,0.0666666666666667,0.0666666666666667,1.66666666666667,5620.797395,5623.343230084,9,5620.859088375,5620.920427292,5623.356458417,5625.016490584,0,2.54583508400083
136,21,1,categorization,0,bathroom,SHINEd_labelme_sfxiulhjbhlyiyt.tif,11,0.0666666666666667,0.0666666666666667,1.13333333333333,5625.034262667,5626.267479334,13,5625.100752917,5625.16833725,5626.294603834,5627.4213225,1,1.23321666700031
136,22,1,categorization,0,bathroom,SHINEd_sun_ajlawzvmubibwbpy.tif,30,0.0666666666666667,0.0666666666666667,1.3,5627.430880459,5628.300809667,13,5627.496278334,5627.56470725,5628.321692209,5629.615074584,1,0.86992920800003
136,23,1,categorization,0,kitchen,SHINEd_sun_aqeaevwwwjoqhzvl.tif,101,0.0666666666666667,0.0666666666666667,1.93333333333333,5629.633336167,5630.580076792,13,5629.699590167,5629.766790125,5630.607092209,5632.53380225,0,0.94674062499962
136,24,1,categorization,0,bathroom,SHINEd_sun_alotolagknyrgtsk.tif,35,0.0666666666666667,0.0666666666666667,1,5632.554642917,5634.5105395,13,5632.620903959,5632.6887155,5634.524409792,5635.517747417,1,1.95589658300014
136,25,1,categorization,0,kitchen,SHINEd_sun_aenotlpyftoioydp.tif,82,0.0666666666666667,0.0666666666666667,0.883333333333333,5635.522643584,5636.222787125,9,5635.584311834,5635.645716375,5636.23151225,5637.108184584,1,0.700143540999306
136,26,1,categorization,0,bathroom,SHINEd_sun_aavhrsfjbserjtht.tif,13,0.0666666666666667,0.0666666666666667,1.95,5637.113975709,5637.839171209,9,5637.175692584,5637.236960625,5637.85591275,5639.79929775,0,0.725195499999245
136,27,1,categorization,0,kitchen,SHINEd_sun_agorklincwxrdtga.tif,87,0.0666666666666667,0.0666666666666667,1.25,5639.817170542,5640.913516125,9,5639.883577584,5639.95148575,5640.938281459,5642.181663417,1,1.09634558299967
136,28,1,categorization,0,bathroom,SHINEd_sun_aleqenyvunhactkl.tif,32,0.0666666666666667,0.0666666666666667,1.95,5642.198299,5643.108918375,9,5642.264793625,5642.331888042,5643.138320625,5645.081699334,0,0.910619375000351
136,29,1,categorization,0,bathroom,SHINEd_sun_abjtwfukuwddzted.tif,15,0.0666666666666667,0.0666666666666667,1.91666666666667,5645.096686917,5645.910700875,13,5645.163292084,5645.230360167,5645.93686,5647.846900792,1,0.814013958000032
136,30,1,categorization,0,bathroom,SHINEd_sun_aghyqhbptboemmoq.tif,23,0.0666666666666667,0.0666666666666667,1.41666666666667,5647.865621375,5648.649375792,13,5647.932178917,5647.999353,5648.672881834,5650.082929084,1,0.783754416999727
136,31,1,categorization,0,bathroom,SHINEd_sun_axxbkopsgyouuebh.tif,58,0.0666666666666667,0.0666666666666667,0.716666666666667,5650.100875834,5651.078370292,13,5650.168438125,5650.235154459,5651.108691709,5651.818698375,1,0.977494457999455
136,32,1,categorization,0,kitchen,SHINEd_sun_auticobqsbwgoppi.tif,104,0.0666666666666667,0.0666666666666667,1.28333333333333,5651.824635584,5652.919054709,9,5651.886362375,5651.947545792,5652.932906709,5654.20963075,1,1.09441912500006
136,33,1,categorization,0,kitchen,SHINEd_sun_aapllqyqlykszopd.tif,66,0.0666666666666667,0.0666666666666667,0.9,5654.222848,5656.199213125,9,5654.290709375,5654.356378084,5656.209085042,5657.102425334,1,1.97636512499957
136,34,1,categorization,0,bathroom,SHINEd_sun_ausgutylgojavyoq.tif,53,0.0666666666666667,0.0666666666666667,0.8,5657.108001334,5657.78217625,13,5657.169760167,5657.230894584,5657.799541834,5658.592879792,1,0.674174916000084
136,35,1,categorization,0,kitchen,SHINEd_sun_ahljzhgcdpomplvg.tif,91,0.0666666666666667,0.0666666666666667,1.01666666666667,5658.597588334,5659.43911375,9,5658.659284209,5658.720527375,5659.455722042,5660.465763917,1,0.841525415999968
136,36,1,categorization,0,kitchen,SHINEd_sun_acgtpgfybqjmzeyw.tif,75,0.0666666666666667,0.0666666666666667,0.85,5660.473683209,5661.256610542,9,5660.538438834,5660.606056709,5661.279464209,5662.122840834,1,0.782927332999861
136,37,1,categorization,0,bathroom,SHINEd_sun_acduarbnmmoglmiv.tif,16,0.0666666666666667,0.0666666666666667,1.51666666666667,5662.138393417,5664.870534667,13,5662.205066792,5662.272227209,5664.874829375,5666.384872459,1,2.7321412500005
136,38,1,categorization,0,bathroom,SHINEd_sun_aoybiabnpadelefl.tif,41,0.0666666666666667,0.0666666666666667,1.83333333333333,5666.393351584,5667.7191685,13,5666.458277625,5666.52739375,5667.75295925,5669.579666667,1,1.32581691599989
136,39,1,categorization,0,kitchen,SHINEd_labelme_brsyyvweiuaazfr.tif,61,0.0666666666666667,0.0666666666666667,0.716666666666667,5669.59612,5670.902353875,9,5669.663015042,5669.7303,5670.916314084,5671.626318417,1,1.30623387499963
136,40,1,categorization,0,bathroom,SHINEd_sun_acegryoqftbzowsg.tif,17,0.0666666666666667,0.0666666666666667,0.9,5671.631086209,5672.47097175,13,5671.692761375,5671.753937209,5672.489112334,5673.382449209,1,0.839885540999603
136,41,1,categorization,0,bathroom,SHINEd_sun_awnqiikzaispgmwo.tif,56,0.0666666666666667,0.0666666666666667,0.916666666666667,5673.387452792,5675.046436834,9,5673.449335667,5673.510426084,5675.063104709,5675.97310975,0,1.65898404200016
136,42,1,categorization,0,bathroom,SHINEd_sun_atstyziqcmkahyxk.tif,51,0.0666666666666667,0.0666666666666667,0.816666666666667,5675.97792875,5676.862754292,13,5676.039645417,5676.100678834,5676.869290542,5677.679297042,1,0.884825542000726
136,43,1,categorization,0,bathroom,SHINEd_sun_axldvoqbuvuggfmq.tif,57,0.0666666666666667,0.0666666666666667,1.88333333333333,5677.686137167,5679.094478542,9,5677.747890834,5677.809049834,5679.111660625,5680.988366167,0,1.40834137499951
136,44,1,categorization,0,kitchen,SHINEd_sun_aegoxogugdkwpmpj.tif,80,0.0666666666666667,0.0666666666666667,0.9,5681.006782959,5682.695188459,13,5681.07369425,5681.14066775,5682.709780667,5683.603118417,0,1.68840550000004
136,45,1,categorization,0,kitchen,SHINEd_sun_admlmbcdswaszruo.tif,79,0.0666666666666667,0.0666666666666667,1,5683.607759584,5684.950981875,9,5683.669537084,5683.730659334,5684.966748709,5685.960087084,1,1.34322229100053
136,46,1,categorization,0,kitchen,SHINEd_sun_aehawpgmrlhlvcow.tif,81,0.0666666666666667,0.0666666666666667,0.733333333333333,5685.965425292,5686.726963042,9,5686.027051834,5686.088332875,5686.740499334,5687.467170875,1,0.761537749999661
136,47,1,categorization,0,bathroom,SHINEd_sun_agguqiubmwhqqunb.tif,22,0.0666666666666667,0.0666666666666667,0.883333333333333,5687.472868417,5688.445957459,9,5687.534457792,5687.59572625,5688.464244542,5689.340915917,0,0.973089041999629
136,48,1,categorization,0,bathroom,SHINEd_sun_apmqjbnwghzuhhzh.tif,46,0.0666666666666667,0.0666666666666667,1.73333333333333,5689.346453959,5690.206337,9,5689.408477834,5689.469402584,5690.221642709,5691.948342334,0,0.859883040999193
136,49,1,categorization,0,kitchen,SHINEd_sun_agzzivivdpnawacl.tif,89,0.0666666666666667,0.0666666666666667,1.91666666666667,5691.967395417,5693.421899792,13,5692.033539709,5692.101233167,5693.437309875,5695.347364084,0,1.45450437499949
136,50,1,categorization,0,bathroom,SHINEd_sun_aqrpegblszgcoujh.tif,48,0.0666666666666667,0.0666666666666667,1.35,5695.359396709,5699.054889959,9,5695.427433959,5695.494416209,5699.079888292,5700.423271542,0,3.69549325000025
136,1,2,categorization,0,bathroom,SHINEd_sun_acgyywnybuveqsro.tif,18,0.0666666666666667,0.0666666666666667,0.95,5726.825708584,5727.622152209,13,5726.887998042,5726.948924875,5727.63401775,5728.577356459,1,0.796443625000393
136,2,2,categorization,0,kitchen,SHINEd_sun_aarfiyshqohlwkmo.tif,67,0.0666666666666667,0.0666666666666667,0.75,5728.582504709,5729.3741585,13,5728.644110125,5728.705433709,5729.390510209,5730.1338485,0,0.79165379099959
136,3,2,categorization,0,kitchen,SHINEd_sun_ajcbwwvdlsvjyzje.tif,96,0.0666666666666667,0.0666666666666667,1.68333333333333,5730.138610334,5730.886387667,9,5730.20028,5730.261415959,5730.896748959,5732.573456209,1,0.747777333000158
136,4,2,categorization,0,kitchen,SHINEd_sun_aamedkxepzlwuxes.tif,65,0.0666666666666667,0.0666666666666667,0.816666666666667,5732.591976875,5733.532296417,9,5732.658448375,5732.7254925,5733.547813875,5734.357819584,1,0.940319541999997
136,5,2,categorization,0,kitchen,SHINEd_sun_agubuxuukhzyzpdp.tif,88,0.0666666666666667,0.0666666666666667,0.916666666666667,5734.363325334,5735.1984625,9,5734.425195792,5734.48658825,5735.205299417,5736.115304584,1,0.835137165999186
136,6,2,categorization,0,kitchen,SHINEd_labelme_rykdqxenmhulbdn.tif,63,0.0666666666666667,0.0666666666666667,1.21666666666667,5736.121009834,5736.998671625,9,5736.182768917,5736.243846042,5737.012536917,5738.222577709,1,0.877661790999809
136,7,2,categorization,0,bathroom,SHINEd_sun_akiytfaagpdsphgz.tif,31,0.0666666666666667,0.0666666666666667,0.9,5738.239293334,5740.325841792,9,5738.305782875,5738.367400375,5740.336841042,5741.230181834,0,2.08654845799992
136,8,2,categorization,0,kitchen,SHINEd_sun_acxkpeoqbwcxfvip.tif,77,0.0666666666666667,0.0666666666666667,1.65,5741.235609709,5741.998396834,9,5741.297313084,5741.358520959,5742.010582792,5743.653948167,1,0.762787125000614
136,9,2,categorization,0,bathroom,SHINEd_sun_agyqfjcfkdcydepw.tif,25,0.0666666666666667,0.0666666666666667,1.15,5743.669411417,5744.834745042,9,5743.73625775,5743.802810709,5744.858496167,5746.001879042,0,1.16533362499922
136,10,2,categorization,0,bathroom,SHINEd_sun_auzqhkafidnkrwmo.tif,54,0.0666666666666667,0.0666666666666667,1.13333333333333,5746.012170542,5746.699765584,13,5746.078888167,5746.145677292,5746.718563875,5747.845283959,1,0.687595041999884
136,11,2,categorization,0,kitchen,SHINEd_sun_ahdycvpopffkzzsu.tif,90,0.0666666666666667,0.0666666666666667,1.76666666666667,5747.863292959,5748.742470542,13,5747.930116792,5747.988218,5748.756767959,5750.51680225,0,0.879177582999546
136,12,2,categorization,0,kitchen,SHINEd_sun_adgqasybjyktddhj.tif,78,0.0666666666666667,0.0666666666666667,1.8,5750.53012675,5751.405716792,9,5750.5971115,5750.66346875,5751.436732584,5753.230119084,1,0.875590042000113
136,13,2,categorization,0,kitchen,SHINEd_sun_aunzlwrbjumxhwdj.tif,103,0.0666666666666667,0.0666666666666667,0.9,5753.245814917,5754.131059625,9,5753.312502875,5753.3798025,5754.15364125,5755.046979167,1,0.885244707999846
136,14,2,categorization,0,kitchen,SHINEd_sun_aggjlwcdjsjcaemh.tif,86,0.0666666666666667,0.0666666666666667,0.716666666666667,5755.053098667,5755.910582,9,5755.114729584,5755.176012917,5755.928432334,5756.638436042,1,0.857483333000346
136,15,2,categorization,0,bathroom,SHINEd_sun_apkruvsevgegsdwp.tif,44,0.0666666666666667,0.0666666666666667,1.36666666666667,5756.643255125,5757.326869542,13,5756.7049265,5756.766373209,5757.335075209,5758.695120209,1,0.683614417000172
136,16,2,categorization,0,bathroom,SHINEd_sun_asfwthctfqerjvxr.tif,49,0.0666666666666667,0.0666666666666667,0.916666666666667,5758.712459167,5760.789534417,9,5758.779003917,5758.84585375,5760.799221542,5761.709225625,0,2.07707525000023
136,17,2,categorization,0,kitchen,SHINEd_sun_acfmftudsenhrfhy.tif,74,0.0666666666666667,0.0666666666666667,0.716666666666667,5761.7149605,5762.534072875,9,5761.776639792,5761.837827292,5762.539640084,5763.249643,1,0.819112374999349
136,18,2,categorization,0,bathroom,SHINEd_sun_ahcvzmoyaycdoftf.tif,27,0.0666666666666667,0.0666666666666667,0.766666666666667,5763.255133167,5764.429965,13,5763.316803167,5763.377981959,5764.446394959,5765.206400125,1,1.1748318330001
136,19,2,categorization,0,kitchen,SHINEd_sun_azmutvzbxypaceni.tif,110,0.0666666666666667,0.0666666666666667,1.06666666666667,5765.211779959,5766.261487709,9,5765.273496125,5765.334540292,5766.270242042,5767.3302895,1,1.04970775000038
136,20,2,categorization,0,kitchen,SHINEd_sun_avszsnwsbuqfgzbn.tif,105,0.0666666666666667,0.0666666666666667,0.8,5767.34265025,5768.086675875,9,5767.407365875,5767.47270075,5768.112744375,5768.906119125,1,0.744025625000177
136,21,2,categorization,0,kitchen,SHINEd_sun_aymvwlarqodbwuoc.tif,108,0.0666666666666667,0.0666666666666667,0.866666666666667,5768.92201275,5769.574254084,9,5768.988392084,5769.055590959,5769.59125275,5770.451257834,1,0.652241333999882
136,22,2,categorization,0,bathroom,SHINEd_sun_apjevzvycyhuqghb.tif,43,0.0666666666666667,0.0666666666666667,1.48333333333333,5770.456280417,5772.0534855,9,5770.517941459,5770.579317292,5772.064990709,5773.541691375,0,1.59720508299961
136,23,2,categorization,0,bathroom,SHINEd_sun_apynckhmoftszqoq.tif,47,0.0666666666666667,0.0666666666666667,1.1,5773.557179084,5774.315101792,13,5773.624189625,5773.690649792,5774.329559584,5775.422950292,1,0.757922707999569
136,24,2,categorization,0,bathroom,SHINEd_sun_ahqjwnzgolcaoidx.tif,29,0.0666666666666667,0.0666666666666667,0.783333333333333,5775.4325205,5776.170200709,13,5775.497420334,5775.566515167,5776.189394459,5776.966113334,1,0.737680209000246
136,25,2,categorization,0,bathroom,SHINEd_sun_azqyogdvyhahyram.tif,60,0.0666666666666667,0.0666666666666667,0.866666666666667,5776.983086334,5777.590454959,13,5777.049248959,5777.116830667,5777.6025585,5778.46256225,1,0.607368625000163
136,26,2,categorization,0,kitchen,SHINEd_labelme_kxvouciolcpqplr.tif,62,0.0666666666666667,0.0666666666666667,1.83333333333333,5778.468664917,5779.813580959,9,5778.530568042,5778.59156225,5779.827830667,5781.654548292,1,1.34491604200048
136,27,2,categorization,0,kitchen,SHINEd_sun_auaiucuqpdausiva.tif,102,0.0666666666666667,0.0666666666666667,0.7,5781.673279209,5782.746987667,9,5781.739888834,5781.806892334,5782.762067875,5783.45540625,1,1.07370845800051
136,28,2,categorization,0,bathroom,SHINEd_sun_aclfzgynxzxlbepz.tif,19,0.0666666666666667,0.0666666666666667,1.33333333333333,5783.461134834,5784.110513125,13,5783.522900292,5783.584249834,5784.11983375,5785.446536959,1,0.649378290999266
136,29,2,categorization,0,kitchen,SHINEd_sun_acwjdupvyjsugpay.tif,76,0.0666666666666667,0.0666666666666667,1.33333333333333,5785.464334792,5786.316879709,9,5785.530714417,5785.597663125,5786.337862375,5787.664564959,1,0.852544917000159
136,30,2,categorization,0,kitchen,SHINEd_sun_awcpdzzznmweyyhv.tif,106,0.0666666666666667,0.0666666666666667,1.38333333333333,5787.679794084,5788.406629084,9,5787.74741775,5787.81334125,5788.41751925,5789.794228542,1,0.726835000000392
136,31,2,categorization,0,kitchen,SHINEd_sun_abdxkyyxwfskuaqb.tif,70,0.0666666666666667,0.0666666666666667,1.25,5789.808832125,5790.777380167,9,5789.875570125,5789.942775792,5790.799588917,5792.042964584,1,0.968548042000293
136,32,2,categorization,0,bathroom,SHINEd_sun_avhrdrntsqrjzccq.tif,55,0.0666666666666667,0.0666666666666667,1.55,5792.060661834,5792.825703,13,5792.12902,5792.194215584,5792.850847917,5794.394214334,1,0.765041166000628
136,33,2,categorization,0,kitchen,SHINEd_sun_ajkqhtgcbgpcwrwn.tif,97,0.0666666666666667,0.0666666666666667,1.61666666666667,5794.404702209,5795.048600834,9,5794.469771834,5794.538564334,5795.079080625,5796.689114875,1,0.643898625000475
136,34,2,categorization,0,bathroom,SHINEd_sun_agrwbmhcpmfuwmsg.tif,24,0.0666666666666667,0.0666666666666667,1.33333333333333,5796.705626834,5797.447347125,9,5796.772597,5796.839326834,5797.479973875,5798.806681292,0,0.741720291000092
136,35,2,categorization,0,kitchen,SHINEd_sun_ahspylgoovwmwvgk.tif,93,0.0666666666666667,0.0666666666666667,0.833333333333333,5798.823923292,5799.523763709,9,5798.890970792,5798.958127,5799.548311792,5800.37503075,1,0.699840417000814
136,36,2,categorization,0,bathroom,SHINEd_sun_apkxzenqapsujocq.tif,45,0.0666666666666667,0.0666666666666667,1.45,5800.385064,5801.365894209,13,5800.450163792,5800.5159595,5801.384933875,5802.828317417,1,0.980830208999578
136,37,2,categorization,0,kitchen,SHINEd_sun_afuyedyxivkhecmu.tif,85,0.0666666666666667,0.0666666666666667,0.933333333333333,5802.845543292,5803.518287209,9,5802.913004084,5802.978977375,5803.534854834,5804.461571584,1,0.672743916999934
136,38,2,categorization,0,kitchen,SHINEd_sun_abrcnpqqhmjwekyf.tif,73,0.0666666666666667,0.0666666666666667,1.65,5804.4711935,5805.205688125,9,5804.533099292,5804.594138292,5805.212846542,5806.856213042,1,0.73449462500048
136,39,2,categorization,0,bathroom,SHINEd_sun_ambriybtogmepttm.tif,36,0.0666666666666667,0.0666666666666667,1.23333333333333,5806.873075917,5808.310773125,9,5806.939970167,5807.007206792,5808.326875959,5809.553587042,0,1.43769720799992
136,40,2,categorization,0,bathroom,SHINEd_sun_apeeialkgkuxddgh.tif,42,0.0666666666666667,0.0666666666666667,0.766666666666667,5809.571206292,5811.170465084,9,5809.638155,5809.704572417,5811.197172875,5811.957178542,0,1.599258792
136,41,2,categorization,0,bathroom,SHINEd_sun_aofnryafpsjimzsb.tif,40,0.0666666666666667,0.0666666666666667,1.78333333333333,5811.962875917,5813.45452875,13,5812.024600875,5812.0857645,5813.471448542,5815.248159917,1,1.49165283299953
136,42,2,categorization,0,kitchen,SHINEd_sun_ahywdevtimnqcsln.tif,94,0.0666666666666667,0.0666666666666667,1.11666666666667,5815.266436125,5816.458120542,9,5815.3331425,5815.400655625,5816.471677792,5817.581716042,1,1.19168441700003
136,43,2,categorization,0,kitchen,SHINEd_sun_ahpczsiumwwocjkv.tif,92,0.0666666666666667,0.0666666666666667,1.85,5817.59276225,5819.031079209,9,5817.657893292,5817.726265,5819.049280792,5820.892666,1,1.43831695900008
136,44,2,categorization,0,kitchen,SHINEd_sun_abdenxonkemggwsq.tif,69,0.0666666666666667,0.0666666666666667,0.733333333333333,5820.9083735,5821.809229209,9,5820.975445625,5821.042267584,5821.8326955,5822.559365917,1,0.900855708999188
136,45,2,categorization,0,kitchen,SHINEd_sun_amjjdeyrggfqgmom.tif,100,0.0666666666666667,0.0666666666666667,0.783333333333333,5822.564624375,5823.301338209,9,5822.626330709,5822.687655917,5823.30671875,5824.083391792,1,0.736713834000511
136,46,2,categorization,0,bathroom,SHINEd_sun_anhioqovhscjqqwb.tif,38,0.0666666666666667,0.0666666666666667,1.5,5824.088877625,5824.870307917,13,5824.150600417,5824.211722084,5824.880486042,5826.373848584,1,0.781430291999641
136,47,2,categorization,0,bathroom,SHINEd_sun_aunuadmjocsddsrl.tif,52,0.0666666666666667,0.0666666666666667,0.733333333333333,5826.384912792,5827.134098542,9,5826.449648209,5826.5151195,5827.154613959,5827.881316417,0,0.749185749999924
136,48,2,categorization,0,bathroom,SHINEd_sun_aspsyogrekjtfozg.tif,50,0.0666666666666667,0.0666666666666667,1.1,5827.894602042,5829.366031625,13,5827.95664625,5828.017562584,5829.369821,5830.463205167,1,1.47142958299992
136,49,2,categorization,0,kitchen,SHINEd_sun_aixorpehvfykdynp.tif,95,0.0666666666666667,0.0666666666666667,1.6,5830.472106375,5832.087750917,9,5830.536929209,5830.604748167,5832.11425425,5833.707631875,1,1.61564454200015
136,50,2,categorization,0,kitchen,SHINEd_sun_akchetnepxlcxhsu.tif,98,0.0666666666666667,0.0666666666666667,1.06666666666667,5833.726338167,5834.542951709,9,5833.793345584,5833.86037675,5834.566274584,5835.626331084,1,0.816613541999686
136,1,3,categorization,0,bathroom,SHINEd_sun_aspsyogrekjtfozg.tif,50,0.0666666666666667,0.0666666666666667,0.85,5865.796333084,5867.774179584,13,5865.858375209,5865.919495709,5867.788779542,5868.632117084,1,1.97784649999994
136,2,3,categorization,0,bathroom,SHINEd_sun_anryaplzeujmzfkd.tif,39,0.0666666666666667,0.0666666666666667,1.65,5868.6369995,5869.469615209,13,5868.6987595,5868.760052292,5869.478477167,5871.121846542,1,0.832615709000493
136,3,3,categorization,0,bathroom,SHINEd_sun_anhioqovhscjqqwb.tif,38,0.0666666666666667,0.0666666666666667,0.783333333333333,5871.14185825,5871.783585084,13,5871.207945,5871.272532917,5871.81304825,5872.58971975,1,0.64172683400011
136,4,3,categorization,0,bathroom,SHINEd_sun_apeeialkgkuxddgh.tif,42,0.0666666666666667,0.0666666666666667,0.933333333333333,5872.595988875,5873.325535792,13,5872.657680167,5872.718929042,5873.337855042,5874.264525834,1,0.729546916999425
136,5,3,categorization,0,bathroom,SHINEd_sun_apmqjbnwghzuhhzh.tif,46,0.0666666666666667,0.0666666666666667,0.866666666666667,5874.270118292,5875.317836917,13,5874.331774167,5874.393097334,5875.328713584,5876.188719084,1,1.04771862500002
136,6,3,categorization,0,bathroom,SHINEd_sun_aggnnqpdorgxpvce.tif,21,0.0666666666666667,0.0666666666666667,1.11666666666667,5876.194468084,5876.8852915,9,5876.256153667,5876.317349334,5876.902952459,5878.012997625,0,0.690823416000057
136,7,3,categorization,0,kitchen,SHINEd_sun_aaxxjlsuzvqlgylf.tif,68,0.0666666666666667,0.0666666666666667,0.966666666666667,5878.022062417,5879.0043765,9,5878.086597959,5878.155434792,5879.028503042,5879.988545875,1,0.982314083000347
136,8,3,categorization,0,kitchen,SHINEd_sun_aypmqwcualkenuoe.tif,109,0.0666666666666667,0.0666666666666667,1.78333333333333,5880.003693042,5882.221442125,13,5880.066456125,5880.126570667,5882.229509334,5884.0062225,0,2.21774908299994
136,9,3,categorization,0,kitchen,SHINEd_sun_aixorpehvfykdynp.tif,95,0.0666666666666667,0.0666666666666667,1.55,5884.024262084,5884.785492959,9,5884.090941292,5884.157982167,5884.814660125,5886.358033792,1,0.761230875000365
136,10,3,categorization,0,bathroom,SHINEd_sun_axxbkopsgyouuebh.tif,58,0.0666666666666667,0.0666666666666667,1.41666666666667,5886.369885,5886.993356667,13,5886.435329917,5886.502098,5887.006308625,5888.416343792,1,0.623471666999649
136,11,3,categorization,0,bathroom,SHINEd_sun_auzqhkafidnkrwmo.tif,54,0.0666666666666667,0.0666666666666667,0.8,5888.427374334,5889.146860792,13,5888.492845167,5888.56089725,5889.167320459,5889.960700417,1,0.719486457999665
136,12,3,categorization,0,bathroom,SHINEd_sun_apkruvsevgegsdwp.tif,44,0.0666666666666667,0.0666666666666667,1.28333333333333,5889.977476917,5890.645819959,13,5890.044378709,5890.108241625,5890.660217167,5891.936935209,1,0.668343041999833
136,13,3,categorization,0,bathroom,SHINEd_labelme_sfxiulhjbhlyiyt.tif,11,0.0666666666666667,0.0666666666666667,1.66666666666667,5891.95421575,5892.717445209,13,5892.021394417,5892.087919625,5892.745277584,5894.405319667,1,0.763229459000286
136,14,3,categorization,0,kitchen,SHINEd_sun_ahljzhgcdpomplvg.tif,91,0.0666666666666667,0.0666666666666667,1.81666666666667,5894.415934542,5895.832243292,9,5894.481161292,5894.549497875,5895.858706542,5897.668741834,1,1.4163087500001
136,15,3,categorization,0,bathroom,SHINEd_sun_agrwbmhcpmfuwmsg.tif,24,0.0666666666666667,0.0666666666666667,1.35,5897.688195459,5898.556035667,13,5897.755236792,5897.822043667,5898.579735917,5899.923118834,1,0.867840208000416
136,16,3,categorization,0,kitchen,SHINEd_sun_aenotlpyftoioydp.tif,82,0.0666666666666667,0.0666666666666667,0.916666666666667,5899.941066917,5900.626281125,9,5900.008333292,5900.07575675,5900.649380042,5901.559414084,1,0.685214207999707
136,17,3,categorization,0,bathroom,SHINEd_sun_alotolagknyrgtsk.tif,35,0.0666666666666667,0.0666666666666667,0.916666666666667,5901.572601167,5903.646281917,9,5901.639216917,5901.69826375,5903.650905167,5904.5609105,0,2.07368074999977
136,18,3,categorization,0,kitchen,SHINEd_sun_acxkpeoqbwcxfvip.tif,77,0.0666666666666667,0.0666666666666667,1.31666666666667,5904.565677917,5905.237392375,9,5904.627464917,5904.688578292,5905.257446,5906.567481792,1,0.671714457999769
136,19,3,categorization,0,bathroom,SHINEd_sun_acegryoqftbzowsg.tif,17,0.0666666666666667,0.0666666666666667,1.45,5906.586583917,5907.724906209,9,5906.653276875,5906.720058667,5907.742579334,5909.18596675,0,1.13832229200034
136,20,3,categorization,0,bathroom,SHINEd_sun_azqyogdvyhahyram.tif,60,0.0666666666666667,0.0666666666666667,0.95,5909.203757542,5910.080962875,13,5909.270341167,5909.337117334,5910.110344209,5911.053683667,1,0.877205333000347
136,21,3,categorization,0,kitchen,SHINEd_sun_ahspylgoovwmwvgk.tif,93,0.0666666666666667,0.0666666666666667,1.38333333333333,5911.059491125,5911.757609584,9,5911.121199959,5911.182475625,5911.767993209,5913.144704875,1,0.698118459000398
136,22,3,categorization,0,kitchen,SHINEd_sun_ahdycvpopffkzzsu.tif,90,0.0666666666666667,0.0666666666666667,1.16666666666667,5913.160946375,5913.888345292,13,5913.227405375,5913.294875459,5913.9181455,5915.078180042,0,0.727398916999846
136,23,3,categorization,0,kitchen,SHINEd_sun_avszsnwsbuqfgzbn.tif,105,0.0666666666666667,0.0666666666666667,1.61666666666667,5915.094847167,5915.79670675,9,5915.16180025,5915.227978834,5915.81767075,5917.427720959,1,0.701859583000441
136,24,3,categorization,0,kitchen,SHINEd_sun_akcjzhbbjlbogpdi.tif,99,0.0666666666666667,0.0666666666666667,1.38333333333333,5917.442827292,5918.188356375,9,5917.50952925,5917.576288334,5918.216197125,5919.592899834,1,0.745529082999383
136,25,3,categorization,0,bathroom,SHINEd_sun_aoybiabnpadelefl.tif,41,0.0666666666666667,0.0666666666666667,1.78333333333333,5919.604858459,5920.415247084,9,5919.671642084,5919.738792792,5920.426590709,5922.203309542,0,0.810388625000087
136,26,3,categorization,0,bathroom,SHINEd_sun_aclfzgynxzxlbepz.tif,19,0.0666666666666667,0.0666666666666667,0.783333333333333,5922.220778375,5922.969197542,13,5922.287524125,5922.354605542,5922.992367375,5923.769040334,1,0.748419167000065
136,27,3,categorization,0,bathroom,SHINEd_sun_aofnryafpsjimzsb.tif,40,0.0666666666666667,0.0666666666666667,1.65,5923.775040375,5924.589762959,13,5923.836812209,5923.897920084,5924.599800584,5926.243174584,1,0.814722584000265
136,28,3,categorization,0,kitchen,SHINEd_sun_adgqasybjyktddhj.tif,78,0.0666666666666667,0.0666666666666667,1.86666666666667,5926.259983625,5926.976897,9,5926.326560292,5926.391104292,5926.997318625,5928.857355334,1,0.716913374999422
136,29,3,categorization,0,bathroom,SHINEd_sun_apjevzvycyhuqghb.tif,43,0.0666666666666667,0.0666666666666667,1.23333333333333,5928.875252334,5929.529078375,9,5928.9417605,5929.0092585,5929.548498042,5930.775198667,0,0.653826040999775
136,30,3,categorization,0,kitchen,SHINEd_sun_aamedkxepzlwuxes.tif,65,0.0666666666666667,0.0666666666666667,0.7,5930.792631417,5932.072248542,9,5930.859329167,5930.926629875,5932.101616042,5932.7949545,1,1.27961712500019
136,31,3,categorization,0,bathroom,SHINEd_sun_asfwthctfqerjvxr.tif,49,0.0666666666666667,0.0666666666666667,0.716666666666667,5932.801541209,5933.724859917,9,5932.863316709,5932.924554584,5933.743753459,5934.453758792,0,0.923318707999897
136,32,3,categorization,0,kitchen,SHINEd_sun_aeqdocilnnpuvuhx.tif,83,0.0666666666666667,0.0666666666666667,1.05,5934.458831875,5935.445776417,9,5934.520545417,5934.581921959,5935.450904875,5936.494273,1,0.986944541999947
136,33,3,categorization,0,kitchen,SHINEd_sun_aarfiyshqohlwkmo.tif,67,0.0666666666666667,0.0666666666666667,1.1,5936.503871125,5937.623945084,13,5936.568338292,5936.635758917,5937.640493042,5938.733872375,0,1.12007395900036
136,34,3,categorization,0,kitchen,SHINEd_labelme_brsyyvweiuaazfr.tif,61,0.0666666666666667,0.0666666666666667,1.13333333333333,5938.743115792,5940.355439209,9,5938.808346,5938.876579584,5940.382475917,5941.509187042,1,1.61232341699997
136,35,3,categorization,0,kitchen,SHINEd_sun_agorklincwxrdtga.tif,87,0.0666666666666667,0.0666666666666667,1.38333333333333,5941.518909209,5942.756358125,9,5941.583900167,5941.652443375,5942.775143125,5944.151853084,1,1.23744891599927
136,36,3,categorization,0,kitchen,SHINEd_sun_abrcnpqqhmjwekyf.tif,73,0.0666666666666667,0.0666666666666667,1.5,5944.171329584,5945.061431542,9,5944.23821025,5944.304949459,5945.077577584,5946.570967834,1,0.890101957999832
136,37,3,categorization,0,kitchen,SHINEd_sun_ajcbwwvdlsvjyzje.tif,96,0.0666666666666667,0.0666666666666667,1.61666666666667,5946.588145834,5947.288560875,9,5946.655065125,5946.72177375,5947.312217334,5948.922264542,1,0.700415041000269
136,38,3,categorization,0,bathroom,SHINEd_sun_awnqiikzaispgmwo.tif,56,0.0666666666666667,0.0666666666666667,0.983333333333333,5948.938108625,5949.618566834,13,5949.005399459,5949.07181825,5949.645615334,5950.622287334,1,0.68045820900079
136,39,3,categorization,0,bathroom,SHINEd_sun_apkxzenqapsujocq.tif,45,0.0666666666666667,0.0666666666666667,1.3,5950.627838542,5951.364751792,13,5950.689497625,5950.750756209,5951.3693575,5952.66274375,1,0.736913249999816
136,40,3,categorization,0,kitchen,SHINEd_sun_awcpdzzznmweyyhv.tif,106,0.0666666666666667,0.0666666666666667,1.03333333333333,5952.675033417,5953.48847,9,5952.741557375,5952.808347375,5953.515058417,5954.541773959,1,0.813436583000112
136,41,3,categorization,0,bathroom,SHINEd_sun_agyqfjcfkdcydepw.tif,25,0.0666666666666667,0.0666666666666667,1.45,5954.552427334,5956.458789042,9,5954.617679417,5954.68460375,5956.473611709,5957.916982834,0,1.90636170800008
136,42,3,categorization,0,bathroom,SHINEd_sun_axyrejkiiaqiurjk.tif,59,0.0666666666666667,0.0666666666666667,1.23333333333333,5957.937018209,5958.690630292,9,5958.00416425,5958.070674625,5958.708814334,5959.935537167,0,0.753612083000007
136,43,3,categorization,0,kitchen,SHINEd_sun_abdenxonkemggwsq.tif,69,0.0666666666666667,0.0666666666666667,1.26666666666667,5959.953579834,5960.658659042,9,5960.020462709,5960.083985875,5960.672991917,5961.933036417,1,0.705079207999916
136,44,3,categorization,0,bathroom,SHINEd_sun_apynckhmoftszqoq.tif,47,0.0666666666666667,0.0666666666666667,1.03333333333333,5961.94554125,5962.598769792,13,5962.012960417,5962.079488792,5962.619745167,5963.646457417,1,0.653228541999852
136,45,3,categorization,0,kitchen,SHINEd_sun_auaiucuqpdausiva.tif,102,0.0666666666666667,0.0666666666666667,1.31666666666667,5963.66348625,5964.429946959,9,5963.730311542,5963.797513584,5964.449681875,5965.75973525,1,0.766460709000057
136,46,3,categorization,0,bathroom,SHINEd_sun_ahqjwnzgolcaoidx.tif,29,0.0666666666666667,0.0666666666666667,1.7,5965.777708625,5966.556125875,13,5965.844324292,5965.91107025,5966.584608834,5968.277996042,1,0.77841725000053
136,47,3,categorization,0,bathroom,SHINEd_sun_abapwbhyhkfixyex.tif,14,0.0666666666666667,0.0666666666666667,1.35,5968.297163042,5968.960230292,9,5968.363401625,5968.429457375,5968.986015834,5970.329391125,0,0.663067250000495
136,48,3,categorization,0,kitchen,SHINEd_sun_azmutvzbxypaceni.tif,110,0.0666666666666667,0.0666666666666667,0.8,5970.347835625,5971.810377584,13,5970.412609959,5970.480100209,5971.840340709,5972.633679375,0,1.46254195900019
136,49,3,categorization,0,bathroom,SHINEd_sun_ahcvzmoyaycdoftf.tif,27,0.0666666666666667,0.0666666666666667,0.766666666666667,5972.638985709,5973.325861375,13,5972.700671125,5972.761939584,5973.330397542,5974.090402375,1,0.68687566600056
136,50,3,categorization,0,kitchen,SHINEd_sun_ajkqhtgcbgpcwrwn.tif,97,0.0666666666666667,0.0666666666666667,1.38333333333333,5974.096057875,5974.684976625,9,5974.158153917,5974.218936209,5974.704190667,5976.08089125,1,0.588918749999721
136,1,4,categorization,0,bathroom,SHINEd_sun_ajlawzvmubibwbpy.tif,30,0.0666666666666667,0.0666666666666667,1,6016.545015834,6017.341309167,13,6016.606910167,6016.66787275,6017.353535417,6018.346873917,1,0.796293332999994
136,2,4,categorization,0,bathroom,SHINEd_sun_afcoljnjfoxjtgja.tif,20,0.0666666666666667,0.0666666666666667,0.966666666666667,6018.352619625,6019.316844042,13,6018.414353167,6018.475508667,6019.327342084,6020.287347292,1,0.964224416999969
136,3,4,categorization,0,kitchen,SHINEd_sun_aexklacwqwezaorf.tif,84,0.0666666666666667,0.0666666666666667,1.75,6020.292934209,6021.076895667,9,6020.354735334,6020.415662542,6021.084381834,6022.827760042,1,0.783961457999794
136,4,4,categorization,0,kitchen,SHINEd_sun_admlmbcdswaszruo.tif,79,0.0666666666666667,0.0666666666666667,1.68333333333333,6022.844320417,6023.601701417,9,6022.910849834,6022.977106834,6023.616241042,6025.292965,1,0.75738100000035
136,5,4,categorization,0,kitchen,SHINEd_sun_aqeaevwwwjoqhzvl.tif,101,0.0666666666666667,0.0666666666666667,1.58333333333333,6025.30995725,6025.970345709,9,6025.376629584,6025.443452292,6025.999736459,6027.576445,1,0.660388459000387
136,6,4,categorization,0,kitchen,SHINEd_sun_agzzivivdpnawacl.tif,89,0.0666666666666667,0.0666666666666667,1,6027.593533084,6028.321243792,9,6027.660301625,6027.726864084,6028.350127709,6029.343465625,1,0.727710707999904
136,7,4,categorization,0,kitchen,SHINEd_sun_acwjdupvyjsugpay.tif,76,0.0666666666666667,0.0666666666666667,1.33333333333333,6029.351164875,6030.397461209,9,6029.412970959,6029.474064167,6030.409221792,6031.735934334,1,1.04629633399963
136,8,4,categorization,0,bathroom,SHINEd_sun_ahaulkltgpkeeemi.tif,26,0.0666666666666667,0.0666666666666667,1.26666666666667,6031.752432125,6032.652685459,13,6031.819175792,6031.885866125,6032.675524875,6033.93557825,1,0.900253333999899
136,9,4,categorization,0,bathroom,SHINEd_sun_axldvoqbuvuggfmq.tif,57,0.0666666666666667,0.0666666666666667,0.883333333333333,6033.952513792,6034.800943292,13,6034.019133667,6034.085871375,6034.826281834,6035.702959084,1,0.848429499999838
136,10,4,categorization,0,kitchen,SHINEd_labelme_rykdqxenmhulbdn.tif,63,0.0666666666666667,0.0666666666666667,1.26666666666667,6035.709690125,6036.525133,9,6035.771979,6035.83262875,6036.5345475,6037.794595292,1,0.815442875000372
136,11,4,categorization,0,kitchen,SHINEd_sun_akchetnepxlcxhsu.tif,98,0.0666666666666667,0.0666666666666667,2,6037.810555167,6038.623951542,13,6037.876680459,6037.944344542,6038.6508535,6040.644223167,0,0.813396375000593
136,12,4,categorization,0,kitchen,SHINEd_sun_aymvwlarqodbwuoc.tif,108,0.0666666666666667,0.0666666666666667,0.733333333333333,6040.662630042,6041.714559375,9,6040.729463417,6040.796167,6041.735500667,6042.4621725,1,1.05192933299986
136,13,4,categorization,0,bathroom,SHINEd_sun_acgyywnybuveqsro.tif,18,0.0666666666666667,0.0666666666666667,0.883333333333333,6042.467082,6043.188474375,9,6042.528822042,6042.590010417,6043.191979,6044.068651125,0,0.721392374999596
136,14,4,categorization,0,kitchen,SHINEd_sun_afuyedyxivkhecmu.tif,85,0.0666666666666667,0.0666666666666667,0.983333333333333,6044.074205542,6045.13362925,9,6044.1360465,6044.197140209,6045.149477709,6046.126149084,1,1.05942370800039
136,15,4,categorization,0,kitchen,SHINEd_sun_acgtpgfybqjmzeyw.tif,75,0.0666666666666667,0.0666666666666667,1.56666666666667,6046.131779375,6046.957234209,9,6046.193541209,6046.254632167,6046.973339334,6048.533371459,1,0.825454833999174
136,16,4,categorization,0,kitchen,SHINEd_sun_aegoxogugdkwpmpj.tif,80,0.0666666666666667,0.0666666666666667,1.08333333333333,6048.552919292,6049.846873792,9,6048.619634125,6048.686608959,6049.878963334,6050.955673917,1,1.29395449999993
136,17,4,categorization,0,kitchen,SHINEd_sun_axyyrmzcupyhlivc.tif,107,0.0666666666666667,0.0666666666666667,0.75,6050.964632875,6051.696005125,9,6051.0294845,6051.098910167,6051.722223667,6052.465603042,1,0.731372250000277
136,18,4,categorization,0,bathroom,SHINEd_sun_amzlamotzwfkwjco.tif,37,0.0666666666666667,0.0666666666666667,0.966666666666667,6052.474788542,6054.844447875,13,6052.541618875,6052.60809275,6054.860481875,6055.820486875,1,2.36965933299962
136,19,4,categorization,0,bathroom,SHINEd_sun_atstyziqcmkahyxk.tif,51,0.0666666666666667,0.0666666666666667,1.63333333333333,6055.826261709,6056.636583584,13,6055.888155167,6055.949610875,6056.651481875,6058.278193542,1,0.810321874999318
136,20,4,categorization,0,bathroom,SHINEd_sun_aleqenyvunhactkl.tif,32,0.0666666666666667,0.0666666666666667,1.46666666666667,6058.295435334,6059.177039667,13,6058.36116425,6058.427355584,6059.20070525,6060.660759292,1,0.881604332999814
136,21,4,categorization,0,bathroom,SHINEd_sun_avhrdrntsqrjzccq.tif,55,0.0666666666666667,0.0666666666666667,0.933333333333333,6060.677104167,6061.473059792,9,6060.743703542,6060.806047875,6061.496141709,6062.422813334,0,0.795955624999806
136,22,4,categorization,0,kitchen,SHINEd_sun_agubuxuukhzyzpdp.tif,88,0.0666666666666667,0.0666666666666667,1.45,6062.42790675,6063.116846292,9,6062.489611125,6062.550860834,6063.136314834,6064.57969025,1,0.688939542000298
136,23,4,categorization,0,bathroom,SHINEd_sun_aghyqhbptboemmoq.tif,23,0.0666666666666667,0.0666666666666667,0.966666666666667,6064.596974667,6065.330841709,9,6064.663225959,6064.730316375,6065.353755709,6066.313761792,0,0.733867042000384
136,24,4,categorization,0,bathroom,SHINEd_sun_abjtwfukuwddzted.tif,15,0.0666666666666667,0.0666666666666667,0.816666666666667,6066.319472,6067.221219834,13,6066.381101792,6066.442307959,6067.227806417,6068.037812042,1,0.901747834000162
136,25,4,categorization,0,kitchen,SHINEd_sun_ahywdevtimnqcsln.tif,94,0.0666666666666667,0.0666666666666667,1.96666666666667,6068.043445,6068.765157292,9,6068.104983375,6068.166256459,6068.78514225,6070.745182167,1,0.72171229200012
136,26,4,categorization,0,bathroom,SHINEd_sun_akiytfaagpdsphgz.tif,31,0.0666666666666667,0.0666666666666667,0.916666666666667,6070.763540209,6071.575193917,9,6070.830321542,6070.897046292,6071.603489,6072.513492667,0,0.811653708000449
136,27,4,categorization,0,bathroom,SHINEd_sun_aapitsgbtktqubfy.tif,12,0.0666666666666667,0.0666666666666667,1.28333333333333,6072.518652209,6073.292692959,13,6072.580414834,6072.64176475,6073.310525875,6074.587234834,1,0.774040750000495
136,28,4,categorization,0,bathroom,SHINEd_sun_agguqiubmwhqqunb.tif,22,0.0666666666666667,0.0666666666666667,1.8,6074.603808375,6078.398114542,13,6074.670880209,6074.737105917,6078.414685,6080.208065584,1,3.79430616700029
136,29,4,categorization,0,bathroom,SHINEd_sun_ahijqszoswveeyji.tif,28,0.0666666666666667,0.0666666666666667,1.33333333333333,6080.222642,6081.271090584,13,6080.289211875,6080.355972125,6081.29629275,6082.623001209,1,1.04844858400065
136,30,4,categorization,0,bathroom,SHINEd_sun_aqrpegblszgcoujh.tif,48,0.0666666666666667,0.0666666666666667,1.06666666666667,6082.640166917,6083.337019334,13,6082.70692525,6082.773535542,6083.363537042,6084.423588584,1,0.696852416999718
136,31,4,categorization,0,bathroom,SHINEd_sun_aljolscmmzydegqp.tif,33,0.0666666666666667,0.0666666666666667,1.03333333333333,6084.435138209,6085.488801542,9,6084.499811375,6084.567745375,6085.50589125,6086.5326105,0,1.05366333300026
136,32,4,categorization,0,kitchen,SHINEd_sun_abdxkyyxwfskuaqb.tif,70,0.0666666666666667,0.0666666666666667,0.733333333333333,6086.541392292,6087.4453215,9,6086.603917292,6086.664611875,6087.450009542,6088.17668,1,0.903929208000591
136,33,4,categorization,0,bathroom,SHINEd_sun_aavhrsfjbserjtht.tif,13,0.0666666666666667,0.0666666666666667,0.766666666666667,6088.181430375,6088.7734745,9,6088.243224375,6088.304294334,6088.7897175,6089.549723459,0,0.592044125000029
136,34,4,categorization,0,bathroom,SHINEd_sun_alkosphxlxwjwgjd.tif,34,0.0666666666666667,0.0666666666666667,1.1,6089.555445792,6090.308381167,9,6089.61709975,6089.678312625,6090.314182167,6091.407567,0,0.752935375000561
136,35,4,categorization,0,bathroom,SHINEd_sun_ausgutylgojavyoq.tif,53,0.0666666666666667,0.0666666666666667,1.81666666666667,6091.417519167,6092.063422625,13,6091.482609542,6091.550874875,6092.090582917,6093.900622209,1,0.645903458000248
136,36,4,categorization,0,kitchen,SHINEd_sun_abftihopvusyfakt.tif,71,0.0666666666666667,0.0666666666666667,0.883333333333333,6093.91929675,6094.73890975,9,6093.985679542,6094.05280975,6094.759399042,6095.636070209,1,0.819612999999663
136,37,4,categorization,0,kitchen,SHINEd_sun_abpwyqmlzafvklqo.tif,72,0.0666666666666667,0.0666666666666667,1.7,6095.64146075,6096.652656959,13,6095.703038709,6095.764458167,6096.666628709,6098.360005542,0,1.01119620899954
136,38,4,categorization,0,kitchen,SHINEd_sun_aadbddgrdsjugojn.tif,64,0.0666666666666667,0.0666666666666667,1.58333333333333,6098.369127167,6099.19774525,9,6098.434451709,6098.500995084,6099.223929209,6100.800650292,1,0.828618082999128
136,39,4,categorization,0,kitchen,SHINEd_sun_amjjdeyrggfqgmom.tif,100,0.0666666666666667,0.0666666666666667,0.833333333333333,6100.818966667,6101.515939292,9,6100.885688709,6100.9526875,6101.542673292,6102.369345125,1,0.696972625000853
136,40,4,categorization,0,kitchen,SHINEd_sun_ahpczsiumwwocjkv.tif,92,0.0666666666666667,0.0666666666666667,0.95,6102.37457625,6103.020545042,9,6102.4363735,6102.498043542,6103.033189959,6103.976529834,1,0.645968791999621
136,41,4,categorization,0,kitchen,SHINEd_sun_aehawpgmrlhlvcow.tif,81,0.0666666666666667,0.0666666666666667,1.06666666666667,6103.983680625,6104.82842825,9,6104.045470375,6104.106587584,6104.841856667,6105.901913167,1,0.844747625000309
136,42,4,categorization,0,kitchen,SHINEd_sun_aggjlwcdjsjcaemh.tif,86,0.0666666666666667,0.0666666666666667,1.68333333333333,6105.911124667,6106.621218375,9,6105.975795792,6106.041899917,6106.648696542,6108.325396,1,0.710093708000386
136,43,4,categorization,0,kitchen,SHINEd_sun_acfmftudsenhrfhy.tif,74,0.0666666666666667,0.0666666666666667,1.31666666666667,6108.343747,6109.167716167,9,6108.408836,6108.47609775,6109.199509917,6110.509545292,1,0.823969167000541
136,44,4,categorization,0,kitchen,SHINEd_sun_auticobqsbwgoppi.tif,104,0.0666666666666667,0.0666666666666667,1.61666666666667,6110.527682417,6111.464431292,9,6110.594597042,6110.661256167,6111.48436,6113.094403209,1,0.936748875000376
136,45,4,categorization,0,kitchen,SHINEd_labelme_kxvouciolcpqplr.tif,62,0.0666666666666667,0.0666666666666667,1.15,6113.113180667,6114.813128584,9,6113.179875584,6113.246256959,6114.832351084,6115.975736959,1,1.69994791699992
136,46,4,categorization,0,kitchen,SHINEd_sun_aunzlwrbjumxhwdj.tif,103,0.0666666666666667,0.0666666666666667,1.25,6115.984916625,6116.735070417,9,6116.051459375,6116.118505625,6116.758417542,6118.001805792,1,0.750153792000674
136,47,4,categorization,0,bathroom,SHINEd_sun_aunuadmjocsddsrl.tif,52,0.0666666666666667,0.0666666666666667,1.1,6118.019035125,6118.807513084,9,6118.085526417,6118.152401334,6118.824769542,6119.918148125,0,0.788477958999465
136,48,4,categorization,0,bathroom,SHINEd_sun_ambriybtogmepttm.tif,36,0.0666666666666667,0.0666666666666667,0.9,6119.935744542,6120.7486635,9,6120.001946875,6120.060432625,6120.762513875,6121.65585075,0,0.8129189579995
136,49,4,categorization,0,kitchen,SHINEd_sun_aapllqyqlykszopd.tif,66,0.0666666666666667,0.0666666666666667,1.3,6121.661177084,6122.340609292,9,6121.722730584,6121.784045334,6122.353165209,6123.646549292,1,0.679432208000435
136,50,4,categorization,0,bathroom,SHINEd_sun_acduarbnmmoglmiv.tif,16,0.0666666666666667,0.0666666666666667,1.25,6123.664027292,6124.333751584,9,6123.730238334,6123.797072375,6124.352949959,6125.596339,0,0.669724291999955
136,1,5,categorization,0,kitchen,SHINEd_sun_azmutvzbxypaceni.tif,110,0.0666666666666667,0.0666666666666667,1.7,6152.834036375,6153.700838125,13,6152.896437459,6152.956947375,6153.709075792,6155.402444459,0,0.866801749999468
136,2,5,categorization,0,kitchen,SHINEd_sun_aunzlwrbjumxhwdj.tif,103,0.0666666666666667,0.0666666666666667,1.81666666666667,6155.420011167,6156.257283667,9,6155.485787209,6155.552229792,6156.275011709,6158.085065375,1,0.837272499999926
136,3,5,categorization,0,bathroom,SHINEd_sun_ambriybtogmepttm.tif,36,0.0666666666666667,0.0666666666666667,1.23333333333333,6158.103480125,6159.018148084,9,6158.169553209,6158.235642834,6159.042128667,6160.268841334,0,0.914667959000326
136,4,5,categorization,0,bathroom,SHINEd_sun_agguqiubmwhqqunb.tif,22,0.0666666666666667,0.0666666666666667,1.4,6160.28685825,6161.070932792,9,6160.352933667,6160.41873675,6161.092199542,6162.485568375,0,0.784074542000781
136,5,5,categorization,0,bathroom,SHINEd_sun_ajlawzvmubibwbpy.tif,30,0.0666666666666667,0.0666666666666667,1.03333333333333,6162.497183125,6163.160732417,9,6162.563907959,6162.629567084,6163.186310584,6164.213014584,0,0.663549291999516
136,6,5,categorization,0,bathroom,SHINEd_sun_apjevzvycyhuqghb.tif,43,0.0666666666666667,0.0666666666666667,1.38333333333333,6164.223374334,6164.923844125,9,6164.288630625,6164.354984959,6164.945383125,6166.322094834,0,0.700469790999705
136,7,5,categorization,0,bathroom,SHINEd_sun_ahijqszoswveeyji.tif,28,0.0666666666666667,0.0666666666666667,2,6166.340684084,6167.189352167,9,6166.406027292,6166.472693542,6167.213129834,6169.206522167,0,0.848668083000121
136,8,5,categorization,0,bathroom,SHINEd_sun_azqyogdvyhahyram.tif,60,0.0666666666666667,0.0666666666666667,1.85,6169.225453959,6169.877482,13,6169.292811334,6169.359446334,6169.899443,6171.742828042,1,0.652028040999539
136,9,5,categorization,0,kitchen,SHINEd_sun_avszsnwsbuqfgzbn.tif,105,0.0666666666666667,0.0666666666666667,0.816666666666667,6171.7608825,6172.439142792,9,6171.827654875,6171.894612709,6172.467042584,6173.277047417,1,0.678260292000232
136,10,5,categorization,0,bathroom,SHINEd_sun_akiytfaagpdsphgz.tif,31,0.0666666666666667,0.0666666666666667,1.85,6173.283398167,6174.029216167,9,6173.345033917,6173.406361,6174.0420185,6175.885395125,0,0.745818000000327
136,11,5,categorization,0,bathroom,SHINEd_sun_aclfzgynxzxlbepz.tif,19,0.0666666666666667,0.0666666666666667,0.733333333333333,6175.902979709,6177.428273584,13,6175.969721042,6176.037136375,6177.439908,6178.166579334,1,1.52529387499999
136,12,5,categorization,0,bathroom,SHINEd_sun_acegryoqftbzowsg.tif,17,0.0666666666666667,0.0666666666666667,0.716666666666667,6178.171156084,6179.012337292,9,6178.2328985,6178.294014125,6179.029554125,6179.739558209,0,0.841181207999398
136,13,5,categorization,0,bathroom,SHINEd_sun_abjtwfukuwddzted.tif,15,0.0666666666666667,0.0666666666666667,0.833333333333333,6179.744628834,6180.477055417,9,6179.806359625,6179.86749575,6180.48596,6181.312631625,0,0.732426583000233
136,14,5,categorization,0,kitchen,SHINEd_sun_abrcnpqqhmjwekyf.tif,73,0.0666666666666667,0.0666666666666667,0.95,6181.318168834,6181.949114625,9,6181.379972459,6181.441065709,6181.960037792,6182.903377042,1,0.630945791000158
136,15,5,categorization,0,kitchen,SHINEd_sun_aarfiyshqohlwkmo.tif,67,0.0666666666666667,0.0666666666666667,1.96666666666667,6182.9090885,6183.524517542,9,6182.970891375,6183.031893667,6183.533854459,6185.49391025,1,0.61542904199996
136,16,5,categorization,0,bathroom,SHINEd_sun_agrwbmhcpmfuwmsg.tif,24,0.0666666666666667,0.0666666666666667,1.86666666666667,6185.511674292,6186.156562875,9,6185.578091917,6185.64509175,6186.184920334,6188.044973375,0,0.644888583000466
136,17,5,categorization,0,kitchen,SHINEd_sun_ahdycvpopffkzzsu.tif,90,0.0666666666666667,0.0666666666666667,1.51666666666667,6188.064158334,6188.770392,9,6188.130377084,6188.197279417,6188.786438875,6190.296477042,1,0.706233666000117
136,18,5,categorization,0,bathroom,SHINEd_sun_aghyqhbptboemmoq.tif,23,0.0666666666666667,0.0666666666666667,1.3,6190.309787042,6191.030526917,9,6190.37442525,6190.441683334,6191.047782375,6192.341158209,0,0.720739875000618
136,19,5,categorization,0,kitchen,SHINEd_sun_auaiucuqpdausiva.tif,102,0.0666666666666667,0.0666666666666667,1.91666666666667,6192.359700959,6193.409460125,9,6192.425005709,6192.489804875,6193.429709084,6195.339750834,1,1.0497591659996
136,20,5,categorization,0,kitchen,SHINEd_sun_akchetnepxlcxhsu.tif,98,0.0666666666666667,0.0666666666666667,1.23333333333333,6195.352425375,6196.115896709,13,6195.420786542,6195.485652375,6196.142416209,6197.369138625,0,0.763471333999405
136,21,5,categorization,0,bathroom,SHINEd_labelme_sfxiulhjbhlyiyt.tif,11,0.0666666666666667,0.0666666666666667,0.866666666666667,6197.384722417,6198.084170084,13,6197.451524917,6197.518304167,6198.108350709,6198.968392917,1,0.699447666999731
136,22,5,categorization,0,kitchen,SHINEd_sun_aqeaevwwwjoqhzvl.tif,101,0.0666666666666667,0.0666666666666667,0.8,6198.985187625,6199.636137334,9,6199.051958042,6199.118879375,6199.654780042,6200.448117542,1,0.650949708999178
136,23,5,categorization,0,bathroom,SHINEd_sun_ahaulkltgpkeeemi.tif,26,0.0666666666666667,0.0666666666666667,1.51666666666667,6200.452976042,6201.091783167,13,6200.514879042,6200.5759,6201.111078834,6202.621115959,1,0.638807125000312
136,24,5,categorization,0,bathroom,SHINEd_sun_apkxzenqapsujocq.tif,45,0.0666666666666667,0.0666666666666667,1.18333333333333,6202.637429584,6203.285314584,13,6202.70390875,6202.770735084,6203.310884542,6204.487587917,1,0.647885000000315
136,25,5,categorization,0,kitchen,SHINEd_sun_ahspylgoovwmwvgk.tif,93,0.0666666666666667,0.0666666666666667,1.6,6204.49694225,6205.155708875,9,6204.5616695,6204.630448,6205.186599459,6206.779973042,1,0.658766624999771
136,26,5,categorization,0,kitchen,SHINEd_sun_acgtpgfybqjmzeyw.tif,75,0.0666666666666667,0.0666666666666667,1.56666666666667,6206.797340375,6207.408171042,9,6206.8636675,6206.930813959,6207.437458834,6208.99749725,1,0.610830666999391
136,27,5,categorization,0,bathroom,SHINEd_sun_abapwbhyhkfixyex.tif,14,0.0666666666666667,0.0666666666666667,1.36666666666667,6209.012413292,6209.756757125,9,6209.079312167,6209.145704709,6209.785652125,6211.145693875,0,0.74434383300013
136,28,5,categorization,0,bathroom,SHINEd_sun_aleqenyvunhactkl.tif,32,0.0666666666666667,0.0666666666666667,1.53333333333333,6211.163283125,6211.889952875,13,6211.22951825,6211.296545667,6211.919850625,6213.446552584,1,0.726669749999928
136,29,5,categorization,0,kitchen,SHINEd_sun_ahljzhgcdpomplvg.tif,91,0.0666666666666667,0.0666666666666667,1.4,6213.466501125,6214.239610542,9,6213.533041125,6213.599909625,6214.256050125,6215.649422875,1,0.773109417000342
136,30,5,categorization,0,kitchen,SHINEd_sun_acfmftudsenhrfhy.tif,74,0.0666666666666667,0.0666666666666667,1.06666666666667,6215.669831417,6216.3150545,9,6215.736436,6215.803293084,6216.3433035,6217.403360625,1,0.645223083000019
136,31,5,categorization,0,bathroom,SHINEd_sun_anhioqovhscjqqwb.tif,38,0.0666666666666667,0.0666666666666667,1.63333333333333,6217.416266709,6218.098362542,13,6217.482768375,6217.54996025,6218.12326675,6219.7499585,1,0.682095832999948
136,32,5,categorization,0,bathroom,SHINEd_sun_ausgutylgojavyoq.tif,53,0.0666666666666667,0.0666666666666667,1.8,6219.763903,6220.587136167,13,6219.830476584,6219.897272792,6220.603213875,6222.396601625,1,0.823233166999671
136,33,5,categorization,0,bathroom,SHINEd_sun_aspsyogrekjtfozg.tif,50,0.0666666666666667,0.0666666666666667,1.53333333333333,6222.40750825,6223.322780834,13,6222.47256775,6222.541009042,6223.347887959,6224.874607792,1,0.915272583999467
136,34,5,categorization,0,kitchen,SHINEd_sun_auticobqsbwgoppi.tif,104,0.0666666666666667,0.0666666666666667,0.766666666666667,6224.889825167,6225.4675695,9,6224.957171417,6225.023861542,6225.497027375,6226.257082084,1,0.577744332999828
136,35,5,categorization,0,kitchen,SHINEd_sun_awcpdzzznmweyyhv.tif,106,0.0666666666666667,0.0666666666666667,1.86666666666667,6226.274172375,6228.540442084,9,6226.340989,6226.406129,6228.558769084,6230.418807459,1,2.26626970899997
136,36,5,categorization,0,bathroom,SHINEd_sun_apmqjbnwghzuhhzh.tif,46,0.0666666666666667,0.0666666666666667,1.13333333333333,6230.427905625,6231.274219959,13,6230.493372125,6230.561334167,6231.301500292,6232.428217584,1,0.846314334000454
136,37,5,categorization,0,bathroom,SHINEd_sun_ahcvzmoyaycdoftf.tif,27,0.0666666666666667,0.0666666666666667,1.73333333333333,6232.436601334,6233.11335125,13,6232.500657875,6232.568850834,6233.142159459,6234.868865417,1,0.676749915999608
136,38,5,categorization,0,bathroom,SHINEd_sun_ahqjwnzgolcaoidx.tif,29,0.0666666666666667,0.0666666666666667,0.766666666666667,6234.883951959,6235.633068042,13,6234.950541625,6235.017609917,6235.657428834,6236.417471542,1,0.749116082999535
136,39,5,categorization,0,kitchen,SHINEd_labelme_brsyyvweiuaazfr.tif,61,0.0666666666666667,0.0666666666666667,1.85,6236.426671084,6237.068610625,9,6236.491897875,6236.551228792,6237.086704542,6238.93007875,1,0.641939540999374
136,40,5,categorization,0,bathroom,SHINEd_sun_apynckhmoftszqoq.tif,47,0.0666666666666667,0.0666666666666667,0.966666666666667,6238.947295084,6239.611167667,13,6239.013554875,6239.080525584,6239.637002917,6240.597006709,1,0.663872582999829
136,41,5,categorization,0,kitchen,SHINEd_sun_adgqasybjyktddhj.tif,78,0.0666666666666667,0.0666666666666667,1.06666666666667,6240.60193375,6241.220022209,9,6240.663616209,6240.724779292,6241.226777875,6242.286833834,1,0.618088458999409
136,42,5,categorization,0,bathroom,SHINEd_sun_aapitsgbtktqubfy.tif,12,0.0666666666666667,0.0666666666666667,1.38333333333333,6242.296168084,6243.1717525,13,6242.360604584,6242.427983875,6243.200654584,6244.577378459,1,0.875584416000493
136,43,5,categorization,0,bathroom,SHINEd_sun_anryaplzeujmzfkd.tif,39,0.0666666666666667,0.0666666666666667,0.766666666666667,6244.595406667,6247.276041542,9,6244.66181,6244.728571334,6247.281702625,6248.041707459,0,2.68063487499967
136,44,5,categorization,0,kitchen,SHINEd_sun_amjjdeyrggfqgmom.tif,100,0.0666666666666667,0.0666666666666667,0.866666666666667,6248.0473965,6248.771937042,9,6248.10913875,6248.170224167,6248.789086459,6249.649091375,1,0.724540541999886
136,45,5,categorization,0,kitchen,SHINEd_sun_aggjlwcdjsjcaemh.tif,86,0.0666666666666667,0.0666666666666667,1.25,6249.653856167,6251.092862417,9,6249.715601042,6249.776702917,6251.112705792,6252.356093667,1,1.43900624999969
136,46,5,categorization,0,kitchen,SHINEd_sun_aapllqyqlykszopd.tif,66,0.0666666666666667,0.0666666666666667,1.03333333333333,6252.368225542,6255.797694667,9,6252.433073542,6252.49772125,6255.816665167,6256.84337625,1,3.42946912499974
136,47,5,categorization,0,kitchen,SHINEd_sun_admlmbcdswaszruo.tif,79,0.0666666666666667,0.0666666666666667,0.783333333333333,6256.8530545,6257.56396825,9,6256.918296792,6256.9850985,6257.591123042,6258.367830375,1,0.710913749999236
136,48,5,categorization,0,kitchen,SHINEd_sun_aypmqwcualkenuoe.tif,109,0.0666666666666667,0.0666666666666667,0.7,6258.376135875,6258.964423625,9,6258.440083209,6258.507038584,6258.976095542,6259.669434792,1,0.588287749999836
136,49,5,categorization,0,bathroom,SHINEd_sun_amzlamotzwfkwjco.tif,37,0.0666666666666667,0.0666666666666667,1.75,6259.673896125,6260.483852167,9,6259.735553292,6259.796803209,6260.49864075,6262.242021625,0,0.809956041999612
136,50,5,categorization,0,kitchen,SHINEd_sun_afuyedyxivkhecmu.tif,85,0.0666666666666667,0.0666666666666667,1.36666666666667,6262.260138875,6262.988201334,9,6262.326146417,6262.391318959,6263.01429525,6264.374344084,1,0.728062459000284
136,1,6,categorization,0,kitchen,SHINEd_sun_aadbddgrdsjugojn.tif,64,0.0666666666666667,0.0666666666666667,0.966666666666667,6298.368435875,6299.204224125,9,6298.43012625,6298.4912505,6299.209930667,6300.169936584,1,0.835788250000405
136,2,6,categorization,0,bathroom,SHINEd_sun_auzqhkafidnkrwmo.tif,54,0.0666666666666667,0.0666666666666667,1.73333333333333,6300.175724125,6300.931585292,13,6300.237321875,6300.298545709,6300.950769542,6302.677473042,1,0.755861167000148
136,3,6,categorization,0,bathroom,SHINEd_sun_aunuadmjocsddsrl.tif,52,0.0666666666666667,0.0666666666666667,1.91666666666667,6302.695912459,6303.950309667,9,6302.762092584,6302.82902325,6303.971769625,6305.881824292,0,1.25439720799932
136,4,6,categorization,0,bathroom,SHINEd_sun_avhrdrntsqrjzccq.tif,55,0.0666666666666667,0.0666666666666667,0.766666666666667,6305.903093917,6306.860974834,13,6305.969487709,6306.036094417,6306.893313292,6307.653319,1,0.957880917000693
136,5,6,categorization,0,bathroom,SHINEd_sun_aofnryafpsjimzsb.tif,40,0.0666666666666667,0.0666666666666667,0.916666666666667,6307.659429834,6308.371707542,13,6307.721205209,6307.782350084,6308.384043792,6309.294047417,1,0.712277708000329
136,6,6,categorization,0,bathroom,SHINEd_sun_aqrpegblszgcoujh.tif,48,0.0666666666666667,0.0666666666666667,1.18333333333333,6309.299651459,6310.268280459,9,6309.361332875,6309.422630625,6310.27448725,6311.45118775,0,0.968628999999964
136,7,6,categorization,0,bathroom,SHINEd_sun_asfwthctfqerjvxr.tif,49,0.0666666666666667,0.0666666666666667,1.8,6311.46322,6312.205553125,9,6311.529700625,6311.596499209,6312.236232959,6314.029600792,0,0.742333125000187
136,8,6,categorization,0,kitchen,SHINEd_sun_abdenxonkemggwsq.tif,69,0.0666666666666667,0.0666666666666667,0.883333333333333,6314.047237709,6314.764996125,9,6314.113587125,6314.180731167,6314.787185917,6315.663858709,1,0.717758415999924
136,9,6,categorization,0,kitchen,SHINEd_sun_abdxkyyxwfskuaqb.tif,70,0.0666666666666667,0.0666666666666667,1.83333333333333,6315.669870459,6316.259367125,9,6315.731495542,6315.792754292,6316.277966,6318.104680709,1,0.589496665999832
136,10,6,categorization,0,kitchen,SHINEd_sun_abftihopvusyfakt.tif,71,0.0666666666666667,0.0666666666666667,1.76666666666667,6318.121574625,6318.875806334,9,6318.188204459,6318.255306209,6318.894641334,6320.654696292,1,0.754231709000123
136,11,6,categorization,0,bathroom,SHINEd_sun_apkruvsevgegsdwp.tif,44,0.0666666666666667,0.0666666666666667,0.983333333333333,6320.672601625,6322.747768875,13,6320.739217917,6320.806204417,6322.758637959,6323.735310042,1,2.07516724999914
136,12,6,categorization,0,bathroom,SHINEd_sun_aljolscmmzydegqp.tif,33,0.0666666666666667,0.0666666666666667,0.883333333333333,6323.740195334,6324.996180375,13,6323.801890667,6323.862999375,6325.014806417,6325.8914765,1,1.2559850409998
136,13,6,categorization,0,kitchen,SHINEd_sun_aeqdocilnnpuvuhx.tif,83,0.0666666666666667,0.0666666666666667,0.85,6325.896259375,6326.540023292,9,6325.957990209,6326.019162542,6326.554319209,6327.397657792,1,0.643763916999887
136,14,6,categorization,0,kitchen,SHINEd_labelme_rykdqxenmhulbdn.tif,63,0.0666666666666667,0.0666666666666667,0.733333333333333,6327.403259459,6328.172598,9,6327.464902,6327.526120625,6328.178325084,6328.904996459,1,0.769338541000252
136,15,6,categorization,0,bathroom,SHINEd_sun_apeeialkgkuxddgh.tif,42,0.0666666666666667,0.0666666666666667,1.88333333333333,6328.910695209,6329.876357334,13,6328.972375625,6329.033745667,6329.885604709,6331.762306834,1,0.965662125000563
136,16,6,categorization,0,kitchen,SHINEd_sun_aixorpehvfykdynp.tif,95,0.0666666666666667,0.0666666666666667,0.816666666666667,6331.780478125,6332.645646167,9,6331.846815709,6331.9143895,6332.67170325,6333.481710042,1,0.865168042000732
136,17,6,categorization,0,kitchen,SHINEd_sun_aaxxjlsuzvqlgylf.tif,68,0.0666666666666667,0.0666666666666667,1.9,6333.487811709,6334.084370834,9,6333.54949225,6333.610745542,6334.0962215,6335.989593375,1,0.596559124999658
136,18,6,categorization,0,bathroom,SHINEd_sun_axyrejkiiaqiurjk.tif,59,0.0666666666666667,0.0666666666666667,0.983333333333333,6336.007193667,6336.780951959,9,6336.073932959,6336.140676875,6336.796448584,6337.773121,0,0.773758291999911
136,19,6,categorization,0,kitchen,SHINEd_sun_aexklacwqwezaorf.tif,84,0.0666666666666667,0.0666666666666667,0.75,6337.779189292,6338.420023084,9,6337.841061709,6337.90208175,6338.437040625,6339.1803795,1,0.640833791999285
136,20,6,categorization,0,bathroom,SHINEd_sun_afcoljnjfoxjtgja.tif,20,0.0666666666666667,0.0666666666666667,1.6,6339.186108667,6339.947272,9,6339.247799709,6339.308948,6339.960976625,6341.554347667,0,0.761163333000695
136,21,6,categorization,0,kitchen,SHINEd_sun_agorklincwxrdtga.tif,87,0.0666666666666667,0.0666666666666667,1.58333333333333,6341.570893042,6342.57374725,9,6341.637899042,6341.704056334,6342.593656542,6344.170365042,1,1.00285420800083
136,22,6,categorization,0,kitchen,SHINEd_labelme_kxvouciolcpqplr.tif,62,0.0666666666666667,0.0666666666666667,1.11666666666667,6344.188632584,6345.156329,9,6344.255360834,6344.322436667,6345.179193084,6346.2892505,1,0.967696416000763
136,23,6,categorization,0,kitchen,SHINEd_sun_acwjdupvyjsugpay.tif,76,0.0666666666666667,0.0666666666666667,1.53333333333333,6346.299674709,6346.932648334,9,6346.364150167,6346.431739917,6346.954933042,6348.481652834,1,0.632973624999977
136,24,6,categorization,0,kitchen,SHINEd_sun_aymvwlarqodbwuoc.tif,108,0.0666666666666667,0.0666666666666667,1.48333333333333,6348.493590834,6349.408960625,9,6348.5599345,6348.627126875,6349.433291542,6350.909995834,1,0.915369790999648
136,25,6,categorization,0,bathroom,SHINEd_sun_alkosphxlxwjwgjd.tif,34,0.0666666666666667,0.0666666666666667,1.1,6350.927901459,6351.670636084,9,6350.994534125,6351.061612,6351.701755917,6352.795131792,0,0.742734624999684
136,26,6,categorization,0,bathroom,SHINEd_sun_aoybiabnpadelefl.tif,41,0.0666666666666667,0.0666666666666667,0.933333333333333,6352.805356,6353.470848709,9,6352.870550084,6352.938805084,6353.495557875,6354.422259084,0,0.665492709000318
136,27,6,categorization,0,bathroom,SHINEd_sun_aavhrsfjbserjtht.tif,13,0.0666666666666667,0.0666666666666667,0.816666666666667,6354.4329975,6355.051768459,9,6354.498146542,6354.566619417,6355.068583709,6355.878588292,0,0.618770959000358
136,28,6,categorization,0,kitchen,SHINEd_sun_axyyrmzcupyhlivc.tif,107,0.0666666666666667,0.0666666666666667,1.78333333333333,6355.884285459,6356.763903667,13,6355.946011959,6356.007095542,6356.775873417,6358.552589042,0,0.879618207999556
136,29,6,categorization,0,kitchen,SHINEd_sun_ahywdevtimnqcsln.tif,94,0.0666666666666667,0.0666666666666667,0.766666666666667,6358.569764959,6359.4368555,9,6358.636741667,6358.703205334,6359.45963075,6360.219636959,1,0.867090540999925
136,30,6,categorization,0,bathroom,SHINEd_sun_awnqiikzaispgmwo.tif,56,0.0666666666666667,0.0666666666666667,1.45,6360.225378167,6362.78763075,13,6360.2870295,6360.348255292,6362.800644584,6364.244032834,1,2.56225258300037
136,31,6,categorization,0,bathroom,SHINEd_sun_acduarbnmmoglmiv.tif,16,0.0666666666666667,0.0666666666666667,0.75,6364.261792,6364.934343167,9,6364.328006959,6364.39303825,6364.948610584,6365.691991167,0,0.672551167000165
136,32,6,categorization,0,bathroom,SHINEd_sun_atstyziqcmkahyxk.tif,51,0.0666666666666667,0.0666666666666667,1.36666666666667,6365.707708292,6366.4836705,13,6365.773816834,6365.841245042,6366.493245584,6367.853304334,1,0.775962208000237
136,33,6,categorization,0,bathroom,SHINEd_sun_acgyywnybuveqsro.tif,18,0.0666666666666667,0.0666666666666667,0.75,6367.869592292,6368.620986834,13,6367.936076584,6368.003125542,6368.642563917,6369.385941917,1,0.751394542000526
136,34,6,categorization,0,kitchen,SHINEd_sun_akcjzhbbjlbogpdi.tif,99,0.0666666666666667,0.0666666666666667,0.783333333333333,6369.399598875,6370.035408125,9,6369.466023917,6369.533225292,6370.0519815,6370.828653834,1,0.635809249999511
136,35,6,categorization,0,kitchen,SHINEd_sun_aenotlpyftoioydp.tif,82,0.0666666666666667,0.0666666666666667,1.11666666666667,6370.83447325,6371.651877167,9,6370.896221542,6370.957356667,6371.659689,6372.769736792,1,0.817403916999865
136,36,6,categorization,0,kitchen,SHINEd_sun_ajkqhtgcbgpcwrwn.tif,97,0.0666666666666667,0.0666666666666667,0.766666666666667,6372.778707792,6374.772641917,9,6372.843423167,6372.912199959,6374.781577417,6375.541582875,1,1.99393412500012
136,37,6,categorization,0,bathroom,SHINEd_sun_aggnnqpdorgxpvce.tif,21,0.0666666666666667,0.0666666666666667,0.716666666666667,6375.548624667,6376.339926209,13,6375.610563042,6375.671488459,6376.356665667,6377.066670459,1,0.791301541999928
136,38,6,categorization,0,kitchen,SHINEd_sun_ajcbwwvdlsvjyzje.tif,96,0.0666666666666667,0.0666666666666667,1.33333333333333,6377.071486792,6377.795464125,9,6377.133304,6377.194406834,6377.813551334,6379.140273875,1,0.723977333000221
136,39,6,categorization,0,kitchen,SHINEd_sun_aamedkxepzlwuxes.tif,65,0.0666666666666667,0.0666666666666667,1.75,6379.157329875,6379.87990225,9,6379.223813167,6379.290612834,6379.896373959,6381.639747084,1,0.7225723749998
136,40,6,categorization,0,kitchen,SHINEd_sun_abpwyqmlzafvklqo.tif,72,0.0666666666666667,0.0666666666666667,1.13333333333333,6381.657577084,6382.33393825,9,6381.724019292,6381.791282292,6382.364059834,6383.490764709,1,0.676361165999879
136,41,6,categorization,0,bathroom,SHINEd_sun_alotolagknyrgtsk.tif,35,0.0666666666666667,0.0666666666666667,1.63333333333333,6383.501527834,6384.310179292,13,6383.566945584,6383.634832334,6384.340882209,6385.967580834,1,0.808651457999986
136,42,6,categorization,0,bathroom,SHINEd_sun_agyqfjcfkdcydepw.tif,25,0.0666666666666667,0.0666666666666667,1.43333333333333,6385.984349375,6386.9308675,9,6386.050996292,6386.117991084,6386.958024459,6388.38472975,0,0.946518124999784
136,43,6,categorization,0,kitchen,SHINEd_sun_agzzivivdpnawacl.tif,89,0.0666666666666667,0.0666666666666667,1.83333333333333,6388.394198542,6389.509430875,9,6388.459117542,6388.527393542,6389.534407292,6391.361108375,1,1.11523233300068
136,44,6,categorization,0,bathroom,SHINEd_sun_axldvoqbuvuggfmq.tif,57,0.0666666666666667,0.0666666666666667,1.93333333333333,6391.374667209,6392.082206667,9,6391.442914417,6391.508197625,6392.097320625,6394.024005709,0,0.707539457999701
136,45,6,categorization,0,kitchen,SHINEd_sun_aegoxogugdkwpmpj.tif,80,0.0666666666666667,0.0666666666666667,1.26666666666667,6394.033648375,6394.753431375,9,6394.100191834,6394.167183459,6394.773274417,6396.033311459,1,0.719783000000461
136,46,6,categorization,0,kitchen,SHINEd_sun_agubuxuukhzyzpdp.tif,88,0.0666666666666667,0.0666666666666667,1.86666666666667,6396.052199959,6396.710230375,9,6396.119137834,6396.185773334,6396.7250965,6398.585137834,1,0.658030415999747
136,47,6,categorization,0,bathroom,SHINEd_sun_axxbkopsgyouuebh.tif,58,0.0666666666666667,0.0666666666666667,1.41666666666667,6398.602977625,6399.5175025,13,6398.670170917,6398.736313875,6399.542996167,6400.95303675,1,0.914524875000097
136,48,6,categorization,0,kitchen,SHINEd_sun_aehawpgmrlhlvcow.tif,81,0.0666666666666667,0.0666666666666667,1.11666666666667,6400.970677459,6401.7763945,9,6401.037763917,6401.104037667,6401.793789375,6402.90382325,1,0.805717040999298
136,49,6,categorization,0,kitchen,SHINEd_sun_ahpczsiumwwocjkv.tif,92,0.0666666666666667,0.0666666666666667,1.8,6402.913882209,6403.63284775,9,6402.978906,6403.0471555,6403.65413925,6405.447521875,1,0.718965541000216
136,50,6,categorization,0,kitchen,SHINEd_sun_acxkpeoqbwcxfvip.tif,77,0.0666666666666667,0.0666666666666667,1.25,6405.467997125,6406.230557292,9,6405.534768917,6405.601584459,6406.258445125,6407.501834959,1,0.762560167000629
136,1,7,categorization,0,bathroom,SHINEd_sun_aofnryafpsjimzsb.tif,40,0.0666666666666667,0.0666666666666667,0.883333333333333,6453.463247834,6454.19588575,13,6453.525661209,6453.586090667,6454.20519275,6455.081863584,1,0.732637916000385
136,2,7,categorization,0,kitchen,SHINEd_sun_aixorpehvfykdynp.tif,95,0.0666666666666667,0.0666666666666667,1.03333333333333,6455.086679875,6456.187280792,13,6455.148340875,6455.20961525,6456.195120375,6457.221832167,0,1.10060091699961
136,3,7,categorization,0,bathroom,SHINEd_sun_aspsyogrekjtfozg.tif,50,0.0666666666666667,0.0666666666666667,1.06666666666667,6457.232736459,6458.09542875,13,6457.2976095,6457.365018459,6458.121930542,6459.181993917,1,0.862692290999803
136,4,7,categorization,0,kitchen,SHINEd_sun_acxkpeoqbwcxfvip.tif,77,0.0666666666666667,0.0666666666666667,0.833333333333333,6459.200298,6459.931841375,9,6459.2631395,6459.323372334,6459.941854792,6460.768526709,1,0.731543375000001
136,5,7,categorization,0,bathroom,SHINEd_sun_auzqhkafidnkrwmo.tif,54,0.0666666666666667,0.0666666666666667,0.716666666666667,6460.773299709,6461.73100325,13,6460.835043167,6460.896324667,6461.748473625,6462.458478542,1,0.957703541000228
136,6,7,categorization,0,bathroom,SHINEd_sun_afcoljnjfoxjtgja.tif,20,0.0666666666666667,0.0666666666666667,0.733333333333333,6462.46570775,6463.154967459,9,6462.527370875,6462.588681959,6463.174374917,6463.901045334,0,0.689259708999998
136,7,7,categorization,0,kitchen,SHINEd_sun_abdenxonkemggwsq.tif,69,0.0666666666666667,0.0666666666666667,1.38333333333333,6463.905777667,6464.44309,9,6463.9675165,6464.028577834,6464.44701325,6465.823728459,1,0.537312333000045
136,8,7,categorization,0,kitchen,SHINEd_labelme_brsyyvweiuaazfr.tif,61,0.0666666666666667,0.0666666666666667,0.9,6465.840211417,6466.842743209,9,6465.906491792,6465.973452875,6466.862386209,6467.755723792,1,1.0025317919999
136,9,7,categorization,0,kitchen,SHINEd_sun_awcpdzzznmweyyhv.tif,106,0.0666666666666667,0.0666666666666667,0.816666666666667,6467.76063575,6468.274921542,9,6467.822401,6467.883510209,6468.285386209,6469.09539175,1,0.51428579200001
136,10,7,categorization,0,kitchen,SHINEd_sun_agorklincwxrdtga.tif,87,0.0666666666666667,0.0666666666666667,0.85,6469.101147375,6469.747130875,9,6469.162834709,6469.22401425,6469.75943175,6470.602768667,1,0.645983499999602
136,11,7,categorization,0,kitchen,SHINEd_sun_azmutvzbxypaceni.tif,110,0.0666666666666667,0.0666666666666667,1.6,6470.607506292,6471.307856709,9,6470.669116125,6470.730483209,6471.315837417,6472.9092045,1,0.700350416999754
136,12,7,categorization,0,bathroom,SHINEd_sun_acgyywnybuveqsro.tif,18,0.0666666666666667,0.0666666666666667,1.75,6472.926734875,6473.58839425,13,6472.993379209,6473.060008459,6473.616619334,6475.359990417,1,0.661659375000454
136,13,7,categorization,0,kitchen,SHINEd_sun_aggjlwcdjsjcaemh.tif,86,0.0666666666666667,0.0666666666666667,1.1,6475.379308834,6476.255265042,9,6475.445822459,6475.512409,6476.285934625,6477.379316667,1,0.875956208000389
136,14,7,categorization,0,bathroom,SHINEd_sun_apkruvsevgegsdwp.tif,44,0.0666666666666667,0.0666666666666667,1.46666666666667,6477.389144917,6479.962865334,13,6477.454056375,6477.523086084,6479.97576525,6481.435803417,1,2.573720417
136,15,7,categorization,0,bathroom,SHINEd_sun_aapitsgbtktqubfy.tif,12,0.0666666666666667,0.0666666666666667,1.25,6481.45377525,6482.170376542,13,6481.520364875,6481.588043959,6482.194692167,6483.438065125,1,0.716601291999723
136,16,7,categorization,0,kitchen,SHINEd_sun_abftihopvusyfakt.tif,71,0.0666666666666667,0.0666666666666667,1.13333333333333,6483.454937125,6484.535624417,9,6483.521921875,6483.589320917,6484.563324292,6485.690045875,1,1.08068729200022
136,17,7,categorization,0,bathroom,SHINEd_sun_abapwbhyhkfixyex.tif,14,0.0666666666666667,0.0666666666666667,1.33333333333333,6485.700189375,6487.482776084,9,6485.766616834,6485.8337015,6487.509754584,6488.836455084,0,1.78258670899959
136,18,7,categorization,0,kitchen,SHINEd_sun_auticobqsbwgoppi.tif,104,0.0666666666666667,0.0666666666666667,1.86666666666667,6488.851901792,6489.822789542,9,6488.918962417,6488.985710417,6489.842133917,6491.702179709,1,0.970887749999747
136,19,7,categorization,0,kitchen,SHINEd_sun_aqeaevwwwjoqhzvl.tif,101,0.0666666666666667,0.0666666666666667,1.58333333333333,6491.721924959,6492.471354959,9,6491.788982417,6491.855794125,6492.494668417,6494.071386209,1,0.749429999999847
136,20,7,categorization,0,kitchen,SHINEd_sun_acfmftudsenhrfhy.tif,74,0.0666666666666667,0.0666666666666667,1.05,6494.090055,6494.745767709,9,6494.157036875,6494.223788625,6494.763883167,6495.807268542,1,0.655712708999999
136,21,7,categorization,0,kitchen,SHINEd_sun_ahljzhgcdpomplvg.tif,91,0.0666666666666667,0.0666666666666667,0.9,6495.818918417,6496.49985575,9,6495.884249292,6495.950924292,6496.52471725,6497.418085,1,0.680937333000657
136,22,7,categorization,0,bathroom,SHINEd_sun_ahijqszoswveeyji.tif,28,0.0666666666666667,0.0666666666666667,0.7,6497.4322325,6498.339827084,9,6497.499811292,6497.565957584,6498.352332792,6499.045669792,0,0.907594583999526
136,23,7,categorization,0,bathroom,SHINEd_sun_ambriybtogmepttm.tif,36,0.0666666666666667,0.0666666666666667,0.933333333333333,6499.05050575,6499.827213042,9,6499.112147,6499.173328709,6499.842110459,6500.768781834,0,0.776707291999628
136,24,7,categorization,0,bathroom,SHINEd_labelme_sfxiulhjbhlyiyt.tif,11,0.0666666666666667,0.0666666666666667,1.95,6500.773705,6502.674866209,9,6500.835301709,6500.896553625,6502.68214175,6504.625511584,0,1.90116120900075
136,25,7,categorization,0,bathroom,SHINEd_sun_aleqenyvunhactkl.tif,32,0.0666666666666667,0.0666666666666667,1.06666666666667,6504.641883375,6505.659463209,9,6504.70849775,6504.775298084,6505.681401875,6506.741449792,0,1.01757983399966
136,26,7,categorization,0,kitchen,SHINEd_sun_amjjdeyrggfqgmom.tif,100,0.0666666666666667,0.0666666666666667,1.2,6506.749493334,6507.363453167,9,6506.814312667,6506.879859875,6507.386629292,6508.580007334,1,0.613959833000081
136,27,7,categorization,0,bathroom,SHINEd_sun_aunuadmjocsddsrl.tif,52,0.0666666666666667,0.0666666666666667,0.75,6508.601463375,6509.283651625,9,6508.66846625,6508.727132959,6509.295921125,6510.039258542,0,0.682188249999854
136,28,7,categorization,0,bathroom,SHINEd_sun_aggnnqpdorgxpvce.tif,21,0.0666666666666667,0.0666666666666667,0.816666666666667,6510.0445285,6511.01986825,9,6510.106205084,6510.167458584,6511.036669667,6511.8466745,0,0.975339750000785
136,29,7,categorization,0,bathroom,SHINEd_sun_apmqjbnwghzuhhzh.tif,46,0.0666666666666667,0.0666666666666667,1.96666666666667,6511.8517,6512.6358325,13,6511.913325667,6511.97453125,6512.643131125,6514.603164042,1,0.784132499999942
136,30,7,categorization,0,kitchen,SHINEd_sun_abdxkyyxwfskuaqb.tif,70,0.0666666666666667,0.0666666666666667,1.2,6514.620266125,6515.383726042,9,6514.686984667,6514.754159417,6515.410506584,6516.60387325,1,0.763459916999636
136,31,7,categorization,0,kitchen,SHINEd_sun_ahdycvpopffkzzsu.tif,90,0.0666666666666667,0.0666666666666667,0.883333333333333,6516.616019959,6517.525006584,13,6516.682648917,6516.74936525,6517.556135334,6518.432843709,0,0.90898662499967
136,32,7,categorization,0,bathroom,SHINEd_sun_aqrpegblszgcoujh.tif,48,0.0666666666666667,0.0666666666666667,1.33333333333333,6518.44181875,6519.083217875,13,6518.505921125,6518.565944459,6519.101623167,6520.428342334,1,0.641399125000135
136,33,7,categorization,0,bathroom,SHINEd_sun_axyrejkiiaqiurjk.tif,59,0.0666666666666667,0.0666666666666667,1.45,6520.438969875,6521.35437975,9,6520.504196917,6520.573011417,6521.37988825,6522.82327675,0,0.915409874999568
136,34,7,categorization,0,kitchen,SHINEd_sun_ahywdevtimnqcsln.tif,94,0.0666666666666667,0.0666666666666667,1.15,6522.841493917,6523.489151792,9,6522.908291834,6522.97503875,6523.513998042,6524.657375667,1,0.647657874999823
136,35,7,categorization,0,bathroom,SHINEd_sun_apynckhmoftszqoq.tif,47,0.0666666666666667,0.0666666666666667,0.966666666666667,6524.667592875,6525.333367625,13,6524.734196125,6524.801504709,6525.358542542,6526.318596375,1,0.66577475000031
136,36,7,categorization,0,kitchen,SHINEd_sun_afuyedyxivkhecmu.tif,85,0.0666666666666667,0.0666666666666667,1.45,6526.335193417,6527.995520417,9,6526.400218875,6526.467205459,6528.003106834,6529.446492792,1,1.66032700000051
136,37,7,categorization,0,kitchen,SHINEd_sun_aexklacwqwezaorf.tif,84,0.0666666666666667,0.0666666666666667,0.8,6529.463230417,6530.242339584,9,6529.529856459,6529.598352542,6530.271649667,6531.065040875,1,0.77910916699966
136,38,7,categorization,0,kitchen,SHINEd_sun_ajcbwwvdlsvjyzje.tif,96,0.0666666666666667,0.0666666666666667,1.45,6531.084110125,6531.71507275,9,6531.146963542,6531.20707525,6531.725961459,6533.169341292,1,0.630962625000393
136,39,7,categorization,0,kitchen,SHINEd_sun_admlmbcdswaszruo.tif,79,0.0666666666666667,0.0666666666666667,1.1,6533.185340709,6533.836329209,9,6533.251788584,6533.318681625,6533.858707959,6534.952085417,1,0.650988499999585
136,40,7,categorization,0,bathroom,SHINEd_sun_ausgutylgojavyoq.tif,53,0.0666666666666667,0.0666666666666667,1.16666666666667,6534.961083834,6535.70193,13,6535.026017667,6535.09426675,6535.716916959,6536.876973959,1,0.740846165999756
136,41,7,categorization,0,bathroom,SHINEd_sun_apeeialkgkuxddgh.tif,42,0.0666666666666667,0.0666666666666667,1.31666666666667,6536.886287375,6538.027703209,13,6536.948412,6537.0091965,6538.045183209,6539.355222042,1,1.14141583399942
136,42,7,categorization,0,bathroom,SHINEd_sun_agguqiubmwhqqunb.tif,22,0.0666666666666667,0.0666666666666667,1.68333333333333,6539.372244459,6541.499164584,13,6539.440405292,6539.505742375,6541.508482834,6543.1851935,1,2.12692012499974
136,43,7,categorization,0,kitchen,SHINEd_sun_avszsnwsbuqfgzbn.tif,105,0.0666666666666667,0.0666666666666667,0.966666666666667,6543.202205542,6543.999295542,9,6543.268558542,6543.335448834,6544.025379417,6544.985385584,1,0.797090000000026
136,44,7,categorization,0,kitchen,SHINEd_sun_akchetnepxlcxhsu.tif,98,0.0666666666666667,0.0666666666666667,1.4,6544.991389167,6546.059538917,13,6545.053071125,6545.114365459,6546.066460709,6547.459827084,0,1.06814974999998
136,45,7,categorization,0,kitchen,SHINEd_sun_axyyrmzcupyhlivc.tif,107,0.0666666666666667,0.0666666666666667,0.783333333333333,6547.477553292,6548.569608167,13,6547.544134209,6547.610868375,6548.600728875,6549.377401417,0,1.09205487500003
136,46,7,categorization,0,bathroom,SHINEd_sun_aoybiabnpadelefl.tif,41,0.0666666666666667,0.0666666666666667,1.08333333333333,6549.382992792,6550.338881292,13,6549.444698125,6549.505885834,6550.357941792,6551.434658167,1,0.955888500000583
136,47,7,categorization,0,kitchen,SHINEd_sun_aadbddgrdsjugojn.tif,64,0.0666666666666667,0.0666666666666667,1.43333333333333,6551.442875084,6552.327761125,9,6551.507285334,6551.575434,6552.348418125,6553.775131,1,0.884886040999845
136,48,7,categorization,0,kitchen,SHINEd_sun_aarfiyshqohlwkmo.tif,67,0.0666666666666667,0.0666666666666667,1.75,6553.791547709,6554.799710375,9,6553.857766917,6553.925324917,6554.814353667,6556.557723792,1,1.00816266600032
136,49,7,categorization,0,kitchen,SHINEd_sun_abrcnpqqhmjwekyf.tif,73,0.0666666666666667,0.0666666666666667,1.21666666666667,6556.574142834,6557.18925275,9,6556.640728084,6556.707366209,6557.213977209,6558.42403525,1,0.61510991600062
136,50,7,categorization,0,kitchen,SHINEd_sun_aunzlwrbjumxhwdj.tif,103,0.0666666666666667,0.0666666666666667,1.31666666666667,6558.435141542,6559.148725417,9,6558.500251667,6558.568626,6559.173820959,6560.483859417,1,0.71358387500004
136,1,8,categorization,0,kitchen,SHINEd_sun_aypmqwcualkenuoe.tif,109,0.0666666666666667,0.0666666666666667,1.18333333333333,6597.850466917,6601.333983042,9,6597.913001167,6597.973331959,6601.359095625,6602.535819667,1,3.48351612500028
136,2,8,categorization,0,bathroom,SHINEd_sun_atstyziqcmkahyxk.tif,51,0.0666666666666667,0.0666666666666667,0.983333333333333,6602.546041959,6611.096431209,13,6602.612776334,6602.68039025,6611.116043084,6612.092714334,1,8.55038925000008
136,3,8,categorization,0,kitchen,SHINEd_sun_ahspylgoovwmwvgk.tif,93,0.0666666666666667,0.0666666666666667,1.65,6612.097884,6613.546457959,13,6612.159563459,6612.220977709,6613.557148792,6615.200538625,0,1.44857395899999
136,4,8,categorization,0,kitchen,SHINEd_sun_ajkqhtgcbgpcwrwn.tif,97,0.0666666666666667,0.0666666666666667,1.23333333333333,6615.218338292,6616.018044625,13,6615.284840667,6615.351694875,6616.041548334,6617.268267709,0,0.799706332999449
136,5,8,categorization,0,bathroom,SHINEd_sun_alotolagknyrgtsk.tif,35,0.0666666666666667,0.0666666666666667,0.916666666666667,6617.285259209,6618.462146875,9,6617.351888875,6617.419129834,6618.492288667,6619.402295167,0,1.17688766599986
136,6,8,categorization,0,bathroom,SHINEd_sun_aghyqhbptboemmoq.tif,23,0.0666666666666667,0.0666666666666667,1.56666666666667,6619.408041,6620.250408917,13,6619.469718542,6619.530859,6620.266028875,6621.826069125,1,0.842367917000047
136,7,8,categorization,0,bathroom,SHINEd_sun_ahqjwnzgolcaoidx.tif,29,0.0666666666666667,0.0666666666666667,1.63333333333333,6621.843849875,6623.043615167,13,6621.910025542,6621.977033459,6623.06700675,6624.693706334,1,1.19976529199994
136,8,8,categorization,0,kitchen,SHINEd_labelme_rykdqxenmhulbdn.tif,63,0.0666666666666667,0.0666666666666667,1.1,6624.70979125,6625.309875,9,6624.777769959,6624.843199792,6625.332821542,6626.426189417,1,0.600083749999612
136,9,8,categorization,0,bathroom,SHINEd_sun_ahcvzmoyaycdoftf.tif,27,0.0666666666666667,0.0666666666666667,1.38333333333333,6626.434973792,6627.119471584,13,6626.498991375,6626.56693625,6627.140055417,6628.516774542,1,0.684497792000002
136,10,8,categorization,0,bathroom,SHINEd_sun_asfwthctfqerjvxr.tif,49,0.0666666666666667,0.0666666666666667,0.766666666666667,6628.527579542,6629.30212075,13,6628.593943917,6628.6608485,6629.316273042,6630.076309959,1,0.774541207999391
136,11,8,categorization,0,bathroom,SHINEd_sun_abjtwfukuwddzted.tif,15,0.0666666666666667,0.0666666666666667,1.45,6630.088565292,6630.715255625,13,6630.155155959,6630.22181975,6630.7246315,6632.168018209,1,0.626690333000624
136,12,8,categorization,0,kitchen,SHINEd_sun_auaiucuqpdausiva.tif,102,0.0666666666666667,0.0666666666666667,0.983333333333333,6632.184428917,6632.992477292,9,6632.2510065,6632.318046084,6633.006785584,6633.983457584,1,0.808048374999998
136,13,8,categorization,0,kitchen,SHINEd_sun_aenotlpyftoioydp.tif,82,0.0666666666666667,0.0666666666666667,0.716666666666667,6633.989183709,6634.666957584,9,6634.050964417,6634.112085875,6634.680702542,6635.390706584,1,0.67777387499973
136,14,8,categorization,0,kitchen,SHINEd_sun_aegoxogugdkwpmpj.tif,80,0.0666666666666667,0.0666666666666667,1.41666666666667,6635.398418917,6635.922511792,9,6635.460149167,6635.521303167,6635.940237084,6637.350294584,1,0.524092874999951
136,15,8,categorization,0,kitchen,SHINEd_sun_adgqasybjyktddhj.tif,78,0.0666666666666667,0.0666666666666667,1.21666666666667,6637.367842959,6638.003335084,9,6637.434255875,6637.501334709,6638.024419042,6639.23447425,1,0.635492125000383
136,16,8,categorization,0,kitchen,SHINEd_sun_akcjzhbbjlbogpdi.tif,99,0.0666666666666667,0.0666666666666667,1.61666666666667,6639.251261917,6640.017461584,9,6639.31780425,6639.38490775,6640.04123525,6641.651274709,1,0.766199666999455
136,17,8,categorization,0,kitchen,SHINEd_labelme_kxvouciolcpqplr.tif,62,0.0666666666666667,0.0666666666666667,0.783333333333333,6641.665655459,6643.198031125,9,6641.732297834,6641.799309584,6643.224819209,6644.001489625,1,1.53237566600001
136,18,8,categorization,0,kitchen,SHINEd_sun_aaxxjlsuzvqlgylf.tif,68,0.0666666666666667,0.0666666666666667,1.98333333333333,6644.006342209,6644.603050792,9,6644.068173375,6644.129219,6644.614651792,6646.591376042,1,0.596708583000691
136,19,8,categorization,0,bathroom,SHINEd_sun_azqyogdvyhahyram.tif,60,0.0666666666666667,0.0666666666666667,0.983333333333333,6646.609458417,6647.320006292,13,6646.676260625,6646.743025209,6647.349866834,6648.326539875,1,0.710547874999975
136,20,8,categorization,0,bathroom,SHINEd_sun_ahaulkltgpkeeemi.tif,26,0.0666666666666667,0.0666666666666667,0.8,6648.332383584,6649.13916325,13,6648.394099584,6648.455458417,6649.157789334,6649.951127125,1,0.806779665999784
136,21,8,categorization,0,bathroom,SHINEd_sun_anryaplzeujmzfkd.tif,39,0.0666666666666667,0.0666666666666667,0.733333333333333,6649.956570334,6652.314171417,9,6650.018271917,6650.079447709,6652.332229667,6653.058902459,0,2.35760108299928
136,22,8,categorization,0,bathroom,SHINEd_sun_anhioqovhscjqqwb.tif,38,0.0666666666666667,0.0666666666666667,0.966666666666667,6653.064476125,6653.80293975,9,6653.126233792,6653.1873105,6653.822747084,6654.782752084,0,0.738463625000804
136,23,8,categorization,0,bathroom,SHINEd_sun_aljolscmmzydegqp.tif,33,0.0666666666666667,0.0666666666666667,0.866666666666667,6654.788407625,6655.947110042,9,6654.85014125,6654.911351792,6655.96335075,6656.823355375,0,1.1587024169994
136,24,8,categorization,0,bathroom,SHINEd_sun_ajlawzvmubibwbpy.tif,30,0.0666666666666667,0.0666666666666667,1.23333333333333,6656.82895275,6657.394413959,9,6656.890813375,6656.951800625,6657.403750709,6658.630452292,0,0.565461209000205
136,25,8,categorization,0,bathroom,SHINEd_sun_agyqfjcfkdcydepw.tif,25,0.0666666666666667,0.0666666666666667,1.9,6658.649664625,6659.27835775,9,6658.7163335,6658.783052042,6659.3062535,6661.199629292,0,0.628693125000609
136,26,8,categorization,0,bathroom,SHINEd_sun_akiytfaagpdsphgz.tif,31,0.0666666666666667,0.0666666666666667,0.866666666666667,6661.216611959,6662.143445792,9,6661.283165625,6661.350166209,6662.172111584,6663.032115959,0,0.926833833000273
136,27,8,categorization,0,kitchen,SHINEd_sun_agzzivivdpnawacl.tif,89,0.0666666666666667,0.0666666666666667,0.966666666666667,6663.037996834,6663.842455917,9,6663.099858334,6663.160997417,6663.846557084,6664.806560167,1,0.804459082999529
136,28,8,categorization,0,bathroom,SHINEd_sun_axldvoqbuvuggfmq.tif,57,0.0666666666666667,0.0666666666666667,0.916666666666667,6664.812347834,6665.938567375,9,6664.874116834,6664.935173792,6665.954175167,6666.864179667,0,1.12621954099995
136,29,8,categorization,0,bathroom,SHINEd_sun_awnqiikzaispgmwo.tif,56,0.0666666666666667,0.0666666666666667,0.916666666666667,6666.869710209,6667.50685325,13,6666.931404042,6666.992579084,6667.511713334,6668.421717875,1,0.637143040999945
136,30,8,categorization,0,bathroom,SHINEd_sun_avhrdrntsqrjzccq.tif,55,0.0666666666666667,0.0666666666666667,1.4,6668.426734875,6669.043064625,9,6668.488451542,6668.549696209,6669.051690459,6670.445072834,0,0.61632974999975
136,31,8,categorization,0,kitchen,SHINEd_sun_acwjdupvyjsugpay.tif,76,0.0666666666666667,0.0666666666666667,1.75,6670.455582625,6671.355592625,9,6670.5202875,6670.589001334,6671.379237125,6673.12260925,1,0.900010000000293
136,32,8,categorization,0,bathroom,SHINEd_sun_aavhrsfjbserjtht.tif,13,0.0666666666666667,0.0666666666666667,1.25,6673.139846542,6673.730726959,9,6673.206375167,6673.2733435,6673.745989375,6674.989356625,0,0.590880417000335
136,33,8,categorization,0,bathroom,SHINEd_sun_apjevzvycyhuqghb.tif,43,0.0666666666666667,0.0666666666666667,1.05,6675.002553709,6675.643501709,9,6675.069010542,6675.136041792,6675.658269834,6676.701659625,0,0.640948000000208
136,34,8,categorization,0,bathroom,SHINEd_sun_alkosphxlxwjwgjd.tif,34,0.0666666666666667,0.0666666666666667,1.06666666666667,6676.71806475,6677.466240667,9,6676.782989584,6676.84226625,6677.477437875,6678.537481209,0,0.748175917000481
136,35,8,categorization,0,kitchen,SHINEd_sun_aapllqyqlykszopd.tif,66,0.0666666666666667,0.0666666666666667,1.21666666666667,6678.545454042,6679.655642042,9,6678.609862084,6678.674204542,6679.681537084,6680.891583167,1,1.11018800000056
136,36,8,categorization,0,kitchen,SHINEd_sun_acgtpgfybqjmzeyw.tif,75,0.0666666666666667,0.0666666666666667,0.95,6680.90700375,6681.7149635,9,6680.973972417,6681.040437709,6681.729107917,6682.672493709,1,0.807959750000009
136,37,8,categorization,0,bathroom,SHINEd_sun_aclfzgynxzxlbepz.tif,19,0.0666666666666667,0.0666666666666667,0.9,6682.685862334,6683.754278917,9,6682.75252875,6682.818436,6683.770602459,6684.663940542,0,1.06841658299982
136,38,8,categorization,0,kitchen,SHINEd_sun_aehawpgmrlhlvcow.tif,81,0.0666666666666667,0.0666666666666667,1.78333333333333,6684.669561334,6685.331097417,9,6684.731291042,6684.792454375,6685.34413975,6687.120865292,1,0.661536083000101
136,39,8,categorization,0,bathroom,SHINEd_sun_amzlamotzwfkwjco.tif,37,0.0666666666666667,0.0666666666666667,1.16666666666667,6687.138118584,6687.822751417,9,6687.204526959,6687.271363334,6687.844007209,6689.004044375,0,0.684632833000251
136,40,8,categorization,0,bathroom,SHINEd_sun_axxbkopsgyouuebh.tif,58,0.0666666666666667,0.0666666666666667,0.783333333333333,6689.014243959,6689.7096035,13,6689.080814334,6689.147996125,6689.738102167,6690.514820917,1,0.695359541000471
136,41,8,categorization,0,kitchen,SHINEd_sun_agubuxuukhzyzpdp.tif,88,0.0666666666666667,0.0666666666666667,1.23333333333333,6690.532732834,6691.194371125,9,6690.599601,6690.666464875,6691.202029792,6692.428751792,1,0.66163829099969
136,42,8,categorization,0,bathroom,SHINEd_sun_acduarbnmmoglmiv.tif,16,0.0666666666666667,0.0666666666666667,0.9,6692.438796667,6693.068926375,9,6692.504111667,6692.572413584,6693.0957665,6693.989151834,0,0.630129707999913
136,43,8,categorization,0,bathroom,SHINEd_sun_acegryoqftbzowsg.tif,17,0.0666666666666667,0.0666666666666667,0.7,6694.005413417,6694.7065315,9,6694.071888584,6694.138763667,6694.723959792,6695.417297459,0,0.701118082999528
136,44,8,categorization,0,kitchen,SHINEd_sun_abpwyqmlzafvklqo.tif,72,0.0666666666666667,0.0666666666666667,1.23333333333333,6695.422482209,6696.010900292,9,6695.484127667,6695.545391584,6696.031068625,6697.2580595,1,0.588418082999851
136,45,8,categorization,0,bathroom,SHINEd_sun_agrwbmhcpmfuwmsg.tif,24,0.0666666666666667,0.0666666666666667,1,6697.268718917,6698.215146542,9,6697.335515667,6697.402260834,6698.242057084,6699.235395292,0,0.946427625000069
136,46,8,categorization,0,kitchen,SHINEd_sun_aeqdocilnnpuvuhx.tif,83,0.0666666666666667,0.0666666666666667,1.38333333333333,6699.241230792,6699.922974375,9,6699.3029465,6699.36411525,6699.93251625,6701.309232792,1,0.681743582999843
136,47,8,categorization,0,kitchen,SHINEd_sun_ahpczsiumwwocjkv.tif,92,0.0666666666666667,0.0666666666666667,1.3,6701.326839834,6701.906291084,9,6701.393161375,6701.460271625,6701.933437459,6703.226817667,1,0.579451250000602
136,48,8,categorization,0,bathroom,SHINEd_sun_apkxzenqapsujocq.tif,45,0.0666666666666667,0.0666666666666667,0.833333333333333,6703.2444775,6704.223669125,13,6703.310717125,6703.377643417,6704.250985417,6705.077701459,1,0.979191624999658
136,49,8,categorization,0,kitchen,SHINEd_sun_aamedkxepzlwuxes.tif,65,0.0666666666666667,0.0666666666666667,0.95,6705.094221834,6705.71509775,9,6705.156196334,6705.217115209,6705.719178875,6706.662517,1,0.620875915999932
136,50,8,categorization,0,kitchen,SHINEd_sun_aymvwlarqodbwuoc.tif,108,0.0666666666666667,0.0666666666666667,1.43333333333333,6706.667536375,6707.57033875,9,6706.729282125,6706.790382542,6707.576099459,6709.002808,1,0.902802374999737
136,1,9,categorization,0,kitchen,SHINEd_sun_agorklincwxrdtga.tif,87,0.0666666666666667,0.0666666666666667,1.08333333333333,6713.520475292,6714.61041825,9,6713.582928042,6713.643363209,6714.629449917,6715.706163834,1,1.08994295800039
136,2,9,categorization,0,bathroom,SHINEd_sun_acegryoqftbzowsg.tif,17,0.0666666666666667,0.0666666666666667,0.8,6715.716453292,6716.380264625,9,6715.781121667,6715.846998042,6716.401701125,6717.195075792,0,0.663811333000012
136,3,9,categorization,0,bathroom,SHINEd_sun_ahijqszoswveeyji.tif,28,0.0666666666666667,0.0666666666666667,0.833333333333333,6717.210893292,6717.818414125,9,6717.277122125,6717.343979917,6717.829958917,6718.656629084,0,0.607520833000308
136,4,9,categorization,0,kitchen,SHINEd_sun_aggjlwcdjsjcaemh.tif,86,0.0666666666666667,0.0666666666666667,1.45,6718.661565459,6720.026560792,9,6718.723294042,6718.784549292,6720.037369417,6721.480746042,1,1.36499533300048
136,5,9,categorization,0,kitchen,SHINEd_sun_ajkqhtgcbgpcwrwn.tif,97,0.0666666666666667,0.0666666666666667,1.3,6721.500076125,6722.365728209,9,6721.566849625,6721.634168334,6722.389186792,6723.682572792,1,0.865652083999521
136,6,9,categorization,0,bathroom,SHINEd_sun_apynckhmoftszqoq.tif,47,0.0666666666666667,0.0666666666666667,1.21666666666667,6723.699926834,6724.727896667,13,6723.766306542,6723.83370225,6724.757137709,6725.967173334,1,1.0279698330005
136,7,9,categorization,0,bathroom,SHINEd_sun_aggnnqpdorgxpvce.tif,21,0.0666666666666667,0.0666666666666667,0.733333333333333,6725.983059959,6726.625968792,9,6726.050168625,6726.116640167,6726.656614584,6727.383327292,0,0.642908833000547
136,8,9,categorization,0,kitchen,SHINEd_sun_aqeaevwwwjoqhzvl.tif,101,0.0666666666666667,0.0666666666666667,1.03333333333333,6727.399779334,6728.050820709,9,6727.46637175,6727.533305584,6728.068972125,6729.095676375,1,0.651041374999295
136,9,9,categorization,0,bathroom,SHINEd_sun_auzqhkafidnkrwmo.tif,54,0.0666666666666667,0.0666666666666667,1.1,6729.106556959,6729.723676667,9,6729.171163667,6729.238585584,6729.744635917,6730.838010584,0,0.617119708000246
136,10,9,categorization,0,kitchen,SHINEd_sun_acxkpeoqbwcxfvip.tif,77,0.0666666666666667,0.0666666666666667,1.25,6730.85534575,6731.410301042,9,6730.922027209,6730.988597625,6731.424218875,6732.6676065,1,0.554955292000159
136,11,9,categorization,0,kitchen,SHINEd_sun_akchetnepxlcxhsu.tif,98,0.0666666666666667,0.0666666666666667,1.4,6732.684494334,6733.275043334,9,6732.750764292,6732.81774275,6733.290232334,6734.683620792,1,0.590548999999555
136,12,9,categorization,0,kitchen,SHINEd_sun_aapllqyqlykszopd.tif,66,0.0666666666666667,0.0666666666666667,1.43333333333333,6734.701124625,6737.370589,13,6734.767681709,6734.834726125,6737.387543417,6738.814266792,0,2.66946437499973
136,13,9,categorization,0,bathroom,SHINEd_sun_alotolagknyrgtsk.tif,35,0.0666666666666667,0.0666666666666667,1.26666666666667,6738.834446209,6739.618000709,9,6738.901157667,6738.968079209,6739.640925625,6740.900976709,0,0.783554499999809
136,14,9,categorization,0,kitchen,SHINEd_sun_abrcnpqqhmjwekyf.tif,73,0.0666666666666667,0.0666666666666667,0.916666666666667,6740.919473875,6741.662959334,9,6740.986168292,6741.053648209,6741.694051834,6742.604084125,1,0.743485459000112
136,15,9,categorization,0,bathroom,SHINEd_sun_aoybiabnpadelefl.tif,41,0.0666666666666667,0.0666666666666667,1.05,6742.6208465,6743.226893959,9,6742.68775875,6742.755086584,6743.240742292,6744.284111917,0,0.606047459000365
136,16,9,categorization,0,kitchen,SHINEd_sun_abdenxonkemggwsq.tif,69,0.0666666666666667,0.0666666666666667,1.53333333333333,6744.293127625,6744.888798042,9,6744.357371459,6744.424941167,6744.914628209,6746.441342584,1,0.595670417000292
136,17,9,categorization,0,bathroom,SHINEd_sun_asfwthctfqerjvxr.tif,49,0.0666666666666667,0.0666666666666667,1.11666666666667,6746.451465084,6747.301555625,9,6746.517701042,6746.585081042,6747.324885292,6748.434930334,0,0.8500905410001
136,18,9,categorization,0,bathroom,SHINEd_sun_aavhrsfjbserjtht.tif,13,0.0666666666666667,0.0666666666666667,1.05,6748.442725292,6749.345864959,9,6748.504478792,6748.565948042,6749.351813584,6750.395175459,0,0.903139666999778
136,19,9,categorization,0,kitchen,SHINEd_sun_abftihopvusyfakt.tif,71,0.0666666666666667,0.0666666666666667,1.66666666666667,6750.403574417,6751.16154375,9,6750.468044334,6750.535072834,6751.191630709,6752.851672917,1,0.757969333000801
136,20,9,categorization,0,bathroom,SHINEd_sun_ahqjwnzgolcaoidx.tif,29,0.0666666666666667,0.0666666666666667,1.98333333333333,6752.868260709,6753.822514334,13,6752.934706875,6753.001472709,6753.840939,6755.817662875,1,0.954253624999183
136,21,9,categorization,0,bathroom,SHINEd_sun_agrwbmhcpmfuwmsg.tif,24,0.0666666666666667,0.0666666666666667,1.06666666666667,6755.834835917,6757.290620292,9,6755.90166825,6755.968321417,6757.304641584,6758.364673917,0,1.45578437499989
136,22,9,categorization,0,kitchen,SHINEd_sun_ahljzhgcdpomplvg.tif,91,0.0666666666666667,0.0666666666666667,1.31666666666667,6758.372744792,6759.740655334,9,6758.436972167,6758.503971667,6759.761992292,6761.072023875,1,1.36791054199966
