sub_num,trial,block,task,is_practice,category,image,texture,duration,mask_dur,jitter,stim_time,time_of_resp,trial_response,mask_time,fix_time,jit_onset,trial_end,trial_accuracy,RT
132,1,10,categorization,0,bathroom,SHINEd_sun_alotolagknyrgtsk.tif,35,0.0666666666666667,0.0666666666666667,1.61666666666667,15120.583617917,15122.343510125,13,15120.64585825,15120.706781625,15122.359643292,15123.969677917,1,1.75989220799966
132,2,10,categorization,0,kitchen,SHINEd_sun_amjjdeyrggfqgmom.tif,100,0.0666666666666667,0.0666666666666667,0.833333333333333,15123.987520208,15124.705862917,9,15124.055405833,15124.120834583,15124.725994667,15125.552666917,1,0.718342709000353
132,3,10,categorization,0,bathroom,SHINEd_sun_agrwbmhcpmfuwmsg.tif,24,0.0666666666666667,0.0666666666666667,0.916666666666667,15125.570582917,15126.415358417,13,15125.632326333,15125.693437208,15126.428604792,15127.338610833,1,0.844775499999741
132,4,10,categorization,0,bathroom,SHINEd_sun_aggnnqpdorgxpvce.tif,21,0.0666666666666667,0.0666666666666667,1.58333333333333,15127.34424625,15128.664016792,13,15127.405876875,15127.466985583,15128.669332333,15130.246055333,1,1.31977054199888
132,5,10,categorization,0,bathroom,SHINEd_sun_akiytfaagpdsphgz.tif,31,0.0666666666666667,0.0666666666666667,1.38333333333333,15130.265859625,15131.646934083,9,15130.332731625,15130.398863458,15131.671507125,15133.0482185,0,1.38107445800051
132,6,10,categorization,0,bathroom,SHINEd_sun_apmqjbnwghzuhhzh.tif,46,0.0666666666666667,0.0666666666666667,1.53333333333333,15133.067146583,15133.978935667,13,15133.135661083,15133.199827708,15134.006597917,15135.533297792,1,0.911789084000702
132,7,10,categorization,0,kitchen,SHINEd_sun_aypmqwcualkenuoe.tif,109,0.0666666666666667,0.0666666666666667,0.833333333333333,15135.5520125,15136.973189667,9,15135.619299583,15135.683321625,15136.990447625,15137.817120208,1,1.42117716699977
132,8,10,categorization,0,bathroom,SHINEd_sun_awnqiikzaispgmwo.tif,56,0.0666666666666667,0.0666666666666667,1.88333333333333,15137.823372958,15140.448268458,13,15137.8852455,15137.946197958,15140.465395,15142.342116042,1,2.62489549999918
132,9,10,categorization,0,bathroom,SHINEd_sun_abjtwfukuwddzted.tif,15,0.0666666666666667,0.0666666666666667,0.833333333333333,15142.362054792,15143.215854125,9,15142.429494125,15142.495873833,15143.23614,15144.062813542,0,0.853799332999188
132,10,10,categorization,0,kitchen,SHINEd_sun_aixorpehvfykdynp.tif,95,0.0666666666666667,0.0666666666666667,1.4,15144.06887875,15145.672307625,9,15144.130662625,15144.191844542,15145.676928583,15147.070314417,1,1.60342887499974
132,11,10,categorization,0,kitchen,SHINEd_sun_acgtpgfybqjmzeyw.tif,75,0.0666666666666667,0.0666666666666667,0.95,15147.088126125,15148.88818125,9,15147.155053625,15147.221025583,15148.907336167,15149.850674125,1,1.80005512500065
132,12,10,categorization,0,kitchen,SHINEd_sun_abpwyqmlzafvklqo.tif,72,0.0666666666666667,0.0666666666666667,1.16666666666667,15149.856323667,15151.256032917,13,15149.9181015,15149.979023917,15151.264670833,15152.42471975,0,1.39970924999943
132,13,10,categorization,0,bathroom,SHINEd_sun_apynckhmoftszqoq.tif,47,0.0666666666666667,0.0666666666666667,1.8,15152.433844667,15153.484392625,13,15152.500685,15152.568233292,15153.508030917,15155.301399833,1,1.05054795799879
132,14,10,categorization,0,bathroom,SHINEd_sun_agyqfjcfkdcydepw.tif,25,0.0666666666666667,0.0666666666666667,1.53333333333333,15155.32037975,15157.751924458,9,15155.387082167,15155.45304725,15157.772062375,15159.298774958,0,2.43154470800073
132,15,10,categorization,0,bathroom,SHINEd_sun_aleqenyvunhactkl.tif,32,0.0666666666666667,0.0666666666666667,1.48333333333333,15159.317022542,15161.775114417,13,15159.383744708,15159.449961583,15161.785664583,15163.262386792,1,2.45809187499981
132,16,10,categorization,0,bathroom,SHINEd_sun_aqrpegblszgcoujh.tif,48,0.0666666666666667,0.0666666666666667,0.783333333333333,15163.280468958,15164.374785958,9,15163.347122792,15163.413152833,15164.403449292,15165.180120667,0,1.09431699999914
132,17,10,categorization,0,bathroom,SHINEd_sun_ahcvzmoyaycdoftf.tif,27,0.0666666666666667,0.0666666666666667,1.8,15165.185861,15166.095912333,13,15165.247661042,15165.30861425,15166.110729708,15167.90409325,1,0.910051332999501
132,18,10,categorization,0,bathroom,SHINEd_sun_afcoljnjfoxjtgja.tif,20,0.0666666666666667,0.0666666666666667,1.76666666666667,15167.925492667,15170.767845208,13,15167.992750708,15168.058559542,15170.778423833,15172.538477167,1,2.84235254099985
132,19,10,categorization,0,bathroom,SHINEd_sun_axxbkopsgyouuebh.tif,58,0.0666666666666667,0.0666666666666667,1.96666666666667,15172.559346833,15173.8643415,9,15172.626323083,15172.692410167,15173.88038575,15175.840420333,0,1.30499466699985
132,20,10,categorization,0,kitchen,SHINEd_sun_awcpdzzznmweyyhv.tif,106,0.0666666666666667,0.0666666666666667,0.783333333333333,15175.859432625,15177.183956333,9,15175.926470542,15175.992256083,15177.195107542,15177.971777667,1,1.32452370799911
132,21,10,categorization,0,kitchen,SHINEd_sun_abftihopvusyfakt.tif,71,0.0666666666666667,0.0666666666666667,1.03333333333333,15177.976666417,15179.567219333,9,15178.038460833,15178.099516208,15179.585389292,15180.612090542,1,1.59055291599907
132,22,10,categorization,0,bathroom,SHINEd_sun_azqyogdvyhahyram.tif,60,0.0666666666666667,0.0666666666666667,0.916666666666667,15180.62398,15181.922057417,9,15180.689082125,15180.755834417,15181.9478895,15182.857893792,0,1.29807741699915
132,23,10,categorization,0,kitchen,SHINEd_sun_akcjzhbbjlbogpdi.tif,99,0.0666666666666667,0.0666666666666667,1.66666666666667,15182.863859167,15183.751494542,13,15182.925742542,15182.986693708,15183.755115792,15185.415152917,0,0.887635375000173
132,24,10,categorization,0,kitchen,SHINEd_sun_admlmbcdswaszruo.tif,79,0.0666666666666667,0.0666666666666667,1.76666666666667,15185.433390375,15186.370659125,9,15185.500253583,15185.566292958,15186.388771542,15188.148826125,1,0.93726874999993
132,25,10,categorization,0,bathroom,SHINEd_sun_ajlawzvmubibwbpy.tif,30,0.0666666666666667,0.0666666666666667,1.15,15188.166401042,15190.647168375,9,15188.233372792,15188.299697875,15190.652382,15191.795751375,0,2.48076733299968
132,26,10,categorization,0,kitchen,SHINEd_sun_aaxxjlsuzvqlgylf.tif,68,0.0666666666666667,0.0666666666666667,0.883333333333333,15191.806995583,15193.488716625,13,15191.872247417,15191.940381833,15193.517885333,15194.39455825,0,1.68172104199948
132,27,10,categorization,0,bathroom,SHINEd_sun_atstyziqcmkahyxk.tif,51,0.0666666666666667,0.0666666666666667,0.733333333333333,15194.400363708,15195.231855958,13,15194.462088708,15194.523241667,15195.241897333,15195.96856875,1,0.831492249999428
132,28,10,categorization,0,kitchen,SHINEd_sun_ahspylgoovwmwvgk.tif,93,0.0666666666666667,0.0666666666666667,1.71666666666667,15195.973594667,15196.664107708,9,15196.035173292,15196.096788083,15196.68184275,15198.391879958,1,0.690513040999576
132,29,10,categorization,0,bathroom,SHINEd_sun_aofnryafpsjimzsb.tif,40,0.0666666666666667,0.0666666666666667,1.86666666666667,15198.410427292,15199.384461708,9,15198.477200917,15198.543772083,15199.39953525,15201.259575792,0,0.974034415999995
132,30,10,categorization,0,kitchen,SHINEd_sun_ahpczsiumwwocjkv.tif,92,0.0666666666666667,0.0666666666666667,1.5,15201.277301667,15203.279245458,9,15201.344269042,15201.409837667,15203.295843167,15204.789220667,1,2.00194379099958
132,31,10,categorization,0,bathroom,SHINEd_sun_ahijqszoswveeyji.tif,28,0.0666666666666667,0.0666666666666667,1.61666666666667,15204.809036875,15206.293263125,13,15204.876367875,15204.942331125,15206.318755125,15207.928808167,1,1.48422625000057
132,32,10,categorization,0,bathroom,SHINEd_sun_auzqhkafidnkrwmo.tif,54,0.0666666666666667,0.0666666666666667,0.95,15207.948828417,15209.895339333,9,15208.016021958,15208.083292333,15209.902487583,15210.845826917,0,1.94651091599917
132,33,10,categorization,0,bathroom,SHINEd_sun_avhrdrntsqrjzccq.tif,55,0.0666666666666667,0.0666666666666667,0.8,15210.8512675,15212.527137167,9,15210.913045083,15210.974039292,15212.543162667,15213.336501458,0,1.67586966700037
132,34,10,categorization,0,bathroom,SHINEd_sun_abapwbhyhkfixyex.tif,14,0.0666666666666667,0.0666666666666667,0.783333333333333,15213.341309875,15214.647349458,9,15213.403004958,15213.464071667,15214.666737375,15215.44341025,0,1.3060395829998
132,35,10,categorization,0,kitchen,SHINEd_sun_aymvwlarqodbwuoc.tif,108,0.0666666666666667,0.0666666666666667,1.36666666666667,15215.44919575,15216.174994292,9,15215.51096225,15215.571895917,15216.190723917,15217.550780708,1,0.725798542000121
132,36,10,categorization,0,bathroom,SHINEd_sun_ahqjwnzgolcaoidx.tif,29,0.0666666666666667,0.0666666666666667,0.816666666666667,15217.567669625,15218.751631125,13,15217.635872958,15217.695489542,15218.767803,15219.577807792,1,1.18396150000081
132,37,10,categorization,0,bathroom,SHINEd_sun_amzlamotzwfkwjco.tif,37,0.0666666666666667,0.0666666666666667,1.81666666666667,15219.583547375,15220.519310292,13,15219.645347667,15219.70650475,15220.525177292,15222.335230167,1,0.935762917000829
132,38,10,categorization,0,bathroom,SHINEd_sun_ambriybtogmepttm.tif,36,0.0666666666666667,0.0666666666666667,0.9,15222.352882833,15223.244310417,9,15222.419471167,15222.485497167,15223.257467375,15224.150808375,0,0.891427583999757
132,39,10,categorization,0,bathroom,SHINEd_sun_alkosphxlxwjwgjd.tif,34,0.0666666666666667,0.0666666666666667,1.48333333333333,15224.156714917,15225.223102708,9,15224.218478792,15224.279564708,15225.231638958,15226.70833775,0,1.06638779099922
132,40,10,categorization,0,kitchen,SHINEd_sun_abdxkyyxwfskuaqb.tif,70,0.0666666666666667,0.0666666666666667,1.28333333333333,15226.719963,15228.431748875,9,15226.786711583,15226.852857875,15228.438701542,15229.715407833,1,1.71178587500071
132,41,10,categorization,0,bathroom,SHINEd_sun_aunuadmjocsddsrl.tif,52,0.0666666666666667,0.0666666666666667,0.983333333333333,15229.725520542,15230.754309958,9,15229.791128375,15229.855750417,15230.779423167,15231.756095458,0,1.0287894159992
132,42,10,categorization,0,bathroom,SHINEd_sun_apeeialkgkuxddgh.tif,42,0.0666666666666667,0.0666666666666667,1.31666666666667,15231.761063292,15232.854975292,13,15231.82288775,15231.883942708,15232.869071583,15234.179112167,1,1.09391200000027
132,43,10,categorization,0,bathroom,SHINEd_sun_acgyywnybuveqsro.tif,18,0.0666666666666667,0.0666666666666667,0.716666666666667,15234.197085667,15235.615986583,13,15234.263899292,15234.329890625,15235.638064958,15236.348070292,1,1.41890091599998
132,44,10,categorization,0,kitchen,SHINEd_sun_aegoxogugdkwpmpj.tif,80,0.0666666666666667,0.0666666666666667,1.51666666666667,15236.356052583,15237.1195385,9,15236.41785275,15236.478936042,15237.1308895,15238.640936458,1,0.763485916999343
132,45,10,categorization,0,kitchen,SHINEd_sun_akchetnepxlcxhsu.tif,98,0.0666666666666667,0.0666666666666667,0.833333333333333,15238.659901708,15239.921687583,13,15238.726880458,15238.79303175,15239.952937417,15240.779609458,0,1.26178587499999
132,46,10,categorization,0,kitchen,SHINEd_sun_avszsnwsbuqfgzbn.tif,105,0.0666666666666667,0.0666666666666667,1.28333333333333,15240.785585583,15243.175164875,13,15240.847349542,15240.908404083,15243.194514,15244.471213958,0,2.38957929199933
132,47,10,categorization,0,kitchen,SHINEd_sun_abrcnpqqhmjwekyf.tif,73,0.0666666666666667,0.0666666666666667,0.783333333333333,15244.491923083,15245.610027458,9,15244.559152292,15244.625226458,15245.632321,15246.408993583,1,1.11810437500026
132,48,10,categorization,0,kitchen,SHINEd_sun_axyyrmzcupyhlivc.tif,107,0.0666666666666667,0.0666666666666667,1.23333333333333,15246.414928792,15248.087077583,9,15246.476715833,15246.537747708,15248.106723292,15249.33343625,1,1.67214879099993
132,49,10,categorization,0,kitchen,SHINEd_labelme_brsyyvweiuaazfr.tif,61,0.0666666666666667,0.0666666666666667,1.46666666666667,15249.348917125,15250.584202375,9,15249.416478333,15249.4816055,15250.6048595,15252.06491425,1,1.23528524999892
132,50,10,categorization,0,kitchen,SHINEd_sun_aqeaevwwwjoqhzvl.tif,101,0.0666666666666667,0.0666666666666667,1.56666666666667,15252.084509583,15252.894921458,9,15252.151464833,15252.217103125,15252.923857333,15254.483910708,1,0.810411874999772
