sub_num,trial,block,task,is_practice,category,image,texture,duration,mask_dur,jitter,stim_time,time_of_resp,trial_response,mask_time,fix_time,jit_onset,trial_end,trial_accuracy,RT
132,1,22,categorization,0,bathroom,SHINEd_sun_akiytfaagpdsphgz.tif,31,0.0666666666666667,0.0666666666666667,1.25,17316.948917125,17318.575943917,13,17317.01151025,17317.071636958,17318.59101475,17319.8343685,1,1.62702679200083
132,2,22,categorization,0,kitchen,SHINEd_sun_aixorpehvfykdynp.tif,95,0.0666666666666667,0.0666666666666667,1.81666666666667,17319.844804417,17321.75889375,13,17319.911122917,17319.97805725,17321.763926042,17323.573960708,0,1.91408933300045
132,3,22,categorization,0,bathroom,SHINEd_sun_alotolagknyrgtsk.tif,35,0.0666666666666667,0.0666666666666667,1.38333333333333,17323.590481333,17325.463013708,9,17323.655666917,17323.721448333,17325.473900167,17326.850606375,0,1.87253237499681
132,4,22,categorization,0,bathroom,SHINEd_sun_axxbkopsgyouuebh.tif,58,0.0666666666666667,0.0666666666666667,1.16666666666667,17326.869268083,17327.786953958,13,17326.936285458,17327.002002375,17327.809316625,17328.969367667,1,0.917685874999734
132,5,22,categorization,0,kitchen,SHINEd_sun_adgqasybjyktddhj.tif,78,0.0666666666666667,0.0666666666666667,1.28333333333333,17328.981969583,17329.923983,9,17329.04858925,17329.11516325,17329.938339708,17331.215042917,1,0.942013416999544
132,6,22,categorization,0,kitchen,SHINEd_sun_abdenxonkemggwsq.tif,69,0.0666666666666667,0.0666666666666667,0.716666666666667,17331.235426792,17332.575893833,9,17331.302342833,17331.368673833,17332.593451458,17333.303460625,1,1.34046704099819
132,7,22,categorization,0,bathroom,SHINEd_sun_asfwthctfqerjvxr.tif,49,0.0666666666666667,0.0666666666666667,0.75,17333.309364542,17335.119201833,13,17333.371123542,17333.432264833,17335.134849167,17335.878186542,1,1.80983729099898
132,8,22,categorization,0,kitchen,SHINEd_sun_aehawpgmrlhlvcow.tif,81,0.0666666666666667,0.0666666666666667,1.26666666666667,17335.883157125,17336.599120083,9,17335.945033833,17336.005927958,17336.608322,17337.868371167,1,0.715962957998272
132,9,22,categorization,0,kitchen,SHINEd_sun_akcjzhbbjlbogpdi.tif,99,0.0666666666666667,0.0666666666666667,1.31666666666667,17337.885469417,17339.070815792,9,17337.952155375,17338.018576333,17339.091785667,17340.401830667,1,1.18534637500125
132,10,22,categorization,0,bathroom,SHINEd_sun_awnqiikzaispgmwo.tif,56,0.0666666666666667,0.0666666666666667,1.28333333333333,17340.418805875,17341.1671375,13,17340.485337333,17340.551900375,17341.1918105,17342.468521958,1,0.748331624999992
132,11,22,categorization,0,kitchen,SHINEd_sun_aunzlwrbjumxhwdj.tif,103,0.0666666666666667,0.0666666666666667,0.95,17342.485749458,17343.324158792,9,17342.552328292,17342.61863725,17343.34152175,17344.284865458,1,0.838409333999152
132,12,22,categorization,0,bathroom,SHINEd_sun_aapitsgbtktqubfy.tif,12,0.0666666666666667,0.0666666666666667,1.21666666666667,17344.291068542,17345.270982083,13,17344.352758917,17344.413845875,17345.282759833,17346.492796625,1,0.979913540999405
132,13,22,categorization,0,bathroom,SHINEd_sun_amzlamotzwfkwjco.tif,37,0.0666666666666667,0.0666666666666667,1.15,17346.509376208,17348.226763083,9,17346.57746025,17346.642800333,17348.250493292,17349.393861542,0,1.71738687499965
132,14,22,categorization,0,kitchen,SHINEd_sun_ahywdevtimnqcsln.tif,94,0.0666666666666667,0.0666666666666667,0.916666666666667,17349.403457917,17350.534491625,9,17349.470086,17349.536319875,17350.561489333,17351.471495292,1,1.13103370799945
132,15,22,categorization,0,kitchen,SHINEd_sun_admlmbcdswaszruo.tif,79,0.0666666666666667,0.0666666666666667,1.86666666666667,17351.477392875,17352.119203,9,17351.53938075,17351.600190667,17352.13544075,17353.995476917,1,0.641810124998301
132,16,22,categorization,0,kitchen,SHINEd_sun_azmutvzbxypaceni.tif,110,0.0666666666666667,0.0666666666666667,0.766666666666667,17354.012842875,17355.415517792,9,17354.081071625,17354.145849458,17355.43176225,17356.191767792,1,1.4026749170007
132,17,22,categorization,0,bathroom,SHINEd_sun_apynckhmoftszqoq.tif,47,0.0666666666666667,0.0666666666666667,1.96666666666667,17356.197550958,17357.335078875,9,17356.259365583,17356.320353542,17357.339128833,17359.29917275,0,1.13752791699881
132,18,22,categorization,0,kitchen,SHINEd_sun_akchetnepxlcxhsu.tif,98,0.0666666666666667,0.0666666666666667,0.716666666666667,17359.318062,17362.055780417,13,17359.384729708,17359.451434292,17362.070428,17362.780432333,0,2.737718417
132,19,22,categorization,0,bathroom,SHINEd_sun_ajlawzvmubibwbpy.tif,30,0.0666666666666667,0.0666666666666667,0.9,17362.7858195,17365.439045125,13,17362.847605958,17362.9085775,17365.444530667,17366.337870417,1,2.65322562499932
132,20,22,categorization,0,bathroom,SHINEd_sun_aghyqhbptboemmoq.tif,23,0.0666666666666667,0.0666666666666667,0.866666666666667,17366.343477708,17367.079512125,13,17366.40529075,17366.466284708,17367.084914292,17367.944917208,1,0.736034417001065
132,21,22,categorization,0,bathroom,SHINEd_sun_axyrejkiiaqiurjk.tif,59,0.0666666666666667,0.0666666666666667,0.8,17367.950534833,17369.055638833,13,17368.012156208,17368.073435042,17369.075330083,17369.868666917,1,1.10510400000203
132,22,22,categorization,0,bathroom,SHINEd_sun_apmqjbnwghzuhhzh.tif,46,0.0666666666666667,0.0666666666666667,0.966666666666667,17369.873856667,17371.479710917,13,17369.935661625,17369.996621125,17371.499481542,17372.459487083,1,1.60585424999954
132,23,22,categorization,0,bathroom,SHINEd_sun_aspsyogrekjtfozg.tif,50,0.0666666666666667,0.0666666666666667,0.983333333333333,17372.4644155,17373.734983083,9,17372.526162,17372.587215333,17373.739106083,17374.715778042,0,1.27056758300023
132,24,22,categorization,0,kitchen,SHINEd_sun_acgtpgfybqjmzeyw.tif,75,0.0666666666666667,0.0666666666666667,0.75,17374.721352333,17375.351299417,9,17374.783310042,17374.844132417,17375.362687833,17376.106027083,1,0.629947084002197
132,25,22,categorization,0,kitchen,SHINEd_sun_aadbddgrdsjugojn.tif,64,0.0666666666666667,0.0666666666666667,1.35,17376.113178708,17377.551171708,9,17376.175243083,17376.23602925,17377.555188417,17378.898567542,1,1.43799299999955
132,26,22,categorization,0,bathroom,SHINEd_sun_agyqfjcfkdcydepw.tif,25,0.0666666666666667,0.0666666666666667,0.7,17378.917552208,17380.539796708,9,17378.983888292,17379.050938417,17380.559871125,17381.25321,0,1.62224449999849
132,27,22,categorization,0,bathroom,SHINEd_sun_aleqenyvunhactkl.tif,32,0.0666666666666667,0.0666666666666667,1.36666666666667,17381.259178208,17382.495391333,9,17381.32089675,17381.382360667,17382.501119083,17383.861177,0,1.23621312499745
132,28,22,categorization,0,kitchen,SHINEd_sun_aarfiyshqohlwkmo.tif,67,0.0666666666666667,0.0666666666666667,1.88333333333333,17383.878871417,17386.279611542,9,17383.947865375,17384.012024083,17386.297976042,17388.174680333,1,2.40074012499826
132,29,22,categorization,0,kitchen,SHINEd_sun_agubuxuukhzyzpdp.tif,88,0.0666666666666667,0.0666666666666667,1.76666666666667,17388.192808458,17390.038611875,13,17388.261201708,17388.325964375,17390.045009625,17391.805052583,0,1.84580341699984
132,30,22,categorization,0,kitchen,SHINEd_sun_aeqdocilnnpuvuhx.tif,83,0.0666666666666667,0.0666666666666667,1.9,17391.822522125,17393.479079542,9,17391.8910495,17391.955533708,17393.491373917,17395.384762,1,1.65655741700175
132,31,22,categorization,0,bathroom,SHINEd_sun_anhioqovhscjqqwb.tif,38,0.0666666666666667,0.0666666666666667,1.05,17395.404437792,17396.983664,9,17395.471350208,17395.53778575,17396.99029725,17398.033653958,0,1.57922620799945
132,32,22,categorization,0,kitchen,SHINEd_labelme_rykdqxenmhulbdn.tif,63,0.0666666666666667,0.0666666666666667,1.15,17398.042060167,17399.4390035,9,17398.10709675,17398.172815708,17399.464233833,17400.607615958,1,1.39694333299849
132,33,22,categorization,0,kitchen,SHINEd_sun_acfmftudsenhrfhy.tif,74,0.0666666666666667,0.0666666666666667,1.5,17400.617556792,17401.401993042,9,17400.6830395,17400.750640625,17401.423965917,17402.917334792,1,0.784436249999999
132,34,22,categorization,0,kitchen,SHINEd_labelme_brsyyvweiuaazfr.tif,61,0.0666666666666667,0.0666666666666667,0.983333333333333,17402.935819792,17403.801240958,9,17403.00270225,17403.069001333,17403.826075333,17404.802749167,1,0.865421165999578
132,35,22,categorization,0,kitchen,SHINEd_sun_acxkpeoqbwcxfvip.tif,77,0.0666666666666667,0.0666666666666667,1.36666666666667,17404.808665583,17406.134869208,9,17404.870619042,17404.931425292,17406.150571,17407.510604667,1,1.32620362499802
132,36,22,categorization,0,bathroom,SHINEd_sun_avhrdrntsqrjzccq.tif,55,0.0666666666666667,0.0666666666666667,1.28333333333333,17407.528704792,17408.699917792,13,17407.59689475,17407.655522667,17408.729238583,17410.005954375,1,1.17121300000144
132,37,22,categorization,0,bathroom,SHINEd_sun_alkosphxlxwjwgjd.tif,34,0.0666666666666667,0.0666666666666667,0.916666666666667,17410.020798333,17412.886555917,13,17410.090037125,17410.155700458,17412.89192125,17413.801925958,1,2.86575758400068
132,38,22,categorization,0,bathroom,SHINEd_sun_axldvoqbuvuggfmq.tif,57,0.0666666666666667,0.0666666666666667,0.883333333333333,17413.807077167,17414.806973917,13,17413.868865292,17413.929839333,17414.815729167,17415.692401125,1,0.999896749999607
132,39,22,categorization,0,kitchen,SHINEd_sun_abrcnpqqhmjwekyf.tif,73,0.0666666666666667,0.0666666666666667,1.71666666666667,17415.697173542,17416.543481125,9,17415.758833708,17415.82004025,17416.555468625,17418.265524458,1,0.846307583000453
132,40,22,categorization,0,bathroom,SHINEd_sun_apkruvsevgegsdwp.tif,44,0.0666666666666667,0.0666666666666667,1.01666666666667,17418.282740125,17419.411416417,13,17418.349174625,17418.416047167,17419.439172042,17420.449175417,1,1.128676291999
132,41,22,categorization,0,bathroom,SHINEd_sun_apjevzvycyhuqghb.tif,43,0.0666666666666667,0.0666666666666667,1.58333333333333,17420.454217833,17421.559582292,9,17420.51592075,17420.577388,17421.580241542,17423.156943958,0,1.10536445899925
132,42,22,categorization,0,bathroom,SHINEd_sun_aofnryafpsjimzsb.tif,40,0.0666666666666667,0.0666666666666667,0.783333333333333,17423.172345042,17425.814899042,9,17423.240761583,17423.3051435,17425.824187667,17426.600860583,0,2.64255400000184
132,43,22,categorization,0,bathroom,SHINEd_sun_azqyogdvyhahyram.tif,60,0.0666666666666667,0.0666666666666667,0.916666666666667,17426.605920458,17427.495450792,13,17426.667556125,17426.728717167,17427.514290125,17428.424293375,1,0.889530333999573
132,44,22,categorization,0,kitchen,SHINEd_sun_aymvwlarqodbwuoc.tif,108,0.0666666666666667,0.0666666666666667,0.75,17428.429445083,17429.32689275,9,17428.491253917,17428.552634125,17429.337663583,17430.081001042,1,0.897447667000961
132,45,22,categorization,0,bathroom,SHINEd_sun_apkxzenqapsujocq.tif,45,0.0666666666666667,0.0666666666666667,1.46666666666667,17430.086622792,17432.079408125,9,17430.148290208,17430.209378167,17432.094981125,17433.55501775,0,1.9927853329973
132,46,22,categorization,0,bathroom,SHINEd_sun_ausgutylgojavyoq.tif,53,0.0666666666666667,0.0666666666666667,0.833333333333333,17433.571965125,17435.503160417,9,17433.639745917,17433.698791042,17435.51818375,17436.344856,0,1.93119529199976
132,47,22,categorization,0,bathroom,SHINEd_sun_agrwbmhcpmfuwmsg.tif,24,0.0666666666666667,0.0666666666666667,1.15,17436.349685,17437.8386385,13,17436.411454083,17436.472549833,17437.858072,17439.001451083,1,1.48895350000021
132,48,22,categorization,0,bathroom,SHINEd_sun_ahqjwnzgolcaoidx.tif,29,0.0666666666666667,0.0666666666666667,1.1,17439.012599167,17442.103175125,13,17439.07938175,17439.14564925,17442.114809375,17443.208176667,1,3.09057595800186
132,49,22,categorization,0,kitchen,SHINEd_sun_aqeaevwwwjoqhzvl.tif,101,0.0666666666666667,0.0666666666666667,1.15,17443.218363125,17444.112190708,9,17443.283576458,17443.351136458,17444.141133625,17445.284504208,1,0.89382758300053
132,50,22,categorization,0,kitchen,SHINEd_labelme_kxvouciolcpqplr.tif,62,0.0666666666666667,0.0666666666666667,0.766666666666667,17445.293641958,17446.862227167,9,17445.359090417,17445.42639875,17446.884827333,17447.644836833,1,1.56858520899914
