sub_num,trial,block,task,is_practice,category,image,texture,duration,mask_dur,jitter,stim_time,time_of_resp,trial_response,mask_time,fix_time,jit_onset,trial_end,trial_accuracy,RT
115,1,8,categorization,0,kitchen,SHINEd_sun_aehawpgmrlhlvcow.tif,81,0.0666666666666667,0.0666666666666667,1.18333333333333,1674.021933083,1675.970116083,13,1674.0843455,1674.144784208,1675.98038775,1677.157096875,0,1.94818299999997
115,2,8,categorization,0,kitchen,SHINEd_sun_aamedkxepzlwuxes.tif,65,0.0666666666666667,0.0666666666666667,0.983333333333333,1677.167333583,1678.423244208,9,1677.232823166,1677.300014,1678.439115833,1679.415789541,1,1.25591062499984
115,3,8,categorization,0,kitchen,SHINEd_sun_aadbddgrdsjugojn.tif,64,0.0666666666666667,0.0666666666666667,1.65,1679.420745916,1682.18678125,9,1679.482558083,1679.543496916,1682.19587975,1683.839262583,1,2.76603533399998
115,4,8,categorization,0,kitchen,SHINEd_sun_abdenxonkemggwsq.tif,69,0.0666666666666667,0.0666666666666667,1.23333333333333,1683.858100333,1684.90126925,13,1683.924846625,1683.99086225,1684.91248475,1686.139197916,0,1.043168917
115,5,8,categorization,0,kitchen,SHINEd_sun_aixorpehvfykdynp.tif,95,0.0666666666666667,0.0666666666666667,0.916666666666667,1686.155468166,1687.629637458,13,1686.222353708,1686.288235416,1687.646345875,1688.556351666,0,1.47416929199994
115,6,8,categorization,0,kitchen,SHINEd_sun_aqeaevwwwjoqhzvl.tif,101,0.0666666666666667,0.0666666666666667,1.56666666666667,1688.561823833,1691.106352916,9,1688.623638708,1688.68471125,1691.120233208,1692.680283458,1,2.54452908300004
115,7,8,categorization,0,kitchen,SHINEd_labelme_kxvouciolcpqplr.tif,62,0.0666666666666667,0.0666666666666667,1.63333333333333,1692.697623125,1693.540800208,13,1692.765827666,1692.830749541,1693.5706495,1695.197337541,0,0.843177083
115,8,8,categorization,0,bathroom,SHINEd_sun_amzlamotzwfkwjco.tif,37,0.0666666666666667,0.0666666666666667,1.1,1695.208027625,1696.199680416,13,1695.27466625,1695.340863583,1696.212836125,1697.306203333,1,0.991652790999979
115,9,8,categorization,0,kitchen,SHINEd_sun_ajcbwwvdlsvjyzje.tif,96,0.0666666666666667,0.0666666666666667,1.38333333333333,1697.316404333,1699.634053708,9,1697.381365041,1697.449121125,1699.651511041,1701.028221666,1,2.31764937499997
115,10,8,categorization,0,bathroom,SHINEd_sun_ahcvzmoyaycdoftf.tif,27,0.0666666666666667,0.0666666666666667,0.766666666666667,1701.045883416,1701.903689208,13,1701.1109785,1701.178699333,1701.917630833,1702.677670166,1,0.857805792000136
115,11,8,categorization,0,bathroom,SHINEd_sun_ahqjwnzgolcaoidx.tif,29,0.0666666666666667,0.0666666666666667,1.45,1702.685104,1703.617904166,13,1702.747606291,1702.807904833,1703.626686916,1705.070075625,1,0.932800166000106
115,12,8,categorization,0,kitchen,SHINEd_sun_azmutvzbxypaceni.tif,110,0.0666666666666667,0.0666666666666667,0.983333333333333,1705.082532458,1706.978685125,13,1705.147191208,1705.209570875,1706.995760041,1707.972432166,0,1.89615266700002
115,13,8,categorization,0,kitchen,SHINEd_sun_auticobqsbwgoppi.tif,104,0.0666666666666667,0.0666666666666667,0.716666666666667,1707.977377625,1709.490555958,9,1708.03915125,1708.100204375,1709.502608416,1710.212614041,1,1.51317833300004
115,14,8,categorization,0,bathroom,SHINEd_sun_abjtwfukuwddzted.tif,15,0.0666666666666667,0.0666666666666667,1.41666666666667,1710.2172465,1711.337722625,13,1710.279065625,1710.340110583,1711.341712958,1712.751769416,1,1.12047612499987
115,15,8,categorization,0,kitchen,SHINEd_sun_admlmbcdswaszruo.tif,79,0.0666666666666667,0.0666666666666667,1.21666666666667,1712.764669791,1714.228730125,9,1712.832783708,1712.897158958,1714.255887791,1715.465922208,1,1.46406033400012
115,16,8,categorization,0,bathroom,SHINEd_sun_acduarbnmmoglmiv.tif,16,0.0666666666666667,0.0666666666666667,1.61666666666667,1715.483459916,1716.89177925,13,1715.551480625,1715.616349375,1716.908109625,1718.5181565,1,1.408319334
115,17,8,categorization,0,bathroom,SHINEd_sun_aapitsgbtktqubfy.tif,12,0.0666666666666667,0.0666666666666667,0.783333333333333,1718.53567225,1719.567265333,13,1718.601727458,1718.66870825,1719.591938041,1720.368609625,1,1.03159308299996
115,18,8,categorization,0,bathroom,SHINEd_sun_akiytfaagpdsphgz.tif,31,0.0666666666666667,0.0666666666666667,1.98333333333333,1720.373872416,1721.426503875,13,1720.435640416,1720.496697708,1721.431997708,1723.40870625,1,1.05263145899994
115,19,8,categorization,0,kitchen,SHINEd_sun_ajkqhtgcbgpcwrwn.tif,97,0.0666666666666667,0.0666666666666667,0.983333333333333,1723.425986958,1724.375026958,9,1723.492406333,1723.5586975,1724.3992285,1725.375901208,1,0.949039999999968
115,20,8,categorization,0,kitchen,SHINEd_sun_akcjzhbbjlbogpdi.tif,99,0.0666666666666667,0.0666666666666667,0.8,1725.381034333,1726.610375541,9,1725.442815333,1725.503774916,1726.623043,1727.416382,1,1.22934120800005
115,21,8,categorization,0,kitchen,SHINEd_sun_avszsnwsbuqfgzbn.tif,105,0.0666666666666667,0.0666666666666667,0.733333333333333,1727.421093833,1728.754070541,9,1727.482877416,1727.543851375,1728.763041541,1729.489713583,1,1.33297670799993
115,22,8,categorization,0,bathroom,SHINEd_sun_apynckhmoftszqoq.tif,47,0.0666666666666667,0.0666666666666667,0.966666666666667,1729.4947825,1730.466511125,13,1729.556568375,1729.617450458,1730.486046708,1731.446052125,1,0.971728624999969
115,23,8,categorization,0,bathroom,SHINEd_sun_alkosphxlxwjwgjd.tif,34,0.0666666666666667,0.0666666666666667,0.866666666666667,1731.451144375,1733.1460825,13,1731.5128755,1731.5738255,1733.15929025,1734.019297125,1,1.69493812499991
115,24,8,categorization,0,kitchen,SHINEd_sun_ahljzhgcdpomplvg.tif,91,0.0666666666666667,0.0666666666666667,1.23333333333333,1734.024780125,1735.009734166,9,1734.086475666,1734.14759775,1735.016535125,1736.243251041,1,0.984954041000037
115,25,8,categorization,0,kitchen,SHINEd_sun_adgqasybjyktddhj.tif,78,0.0666666666666667,0.0666666666666667,1.9,1736.262252041,1738.930291083,9,1736.329013666,1736.395167083,1738.94800175,1740.841377708,1,2.66803904199992
115,26,8,categorization,0,kitchen,SHINEd_sun_agzzivivdpnawacl.tif,89,0.0666666666666667,0.0666666666666667,0.866666666666667,1740.860419541,1742.578545166,13,1740.927496333,1740.993303583,1742.595873083,1743.455877875,0,1.71812562499986
115,27,8,categorization,0,kitchen,SHINEd_labelme_rykdqxenmhulbdn.tif,63,0.0666666666666667,0.0666666666666667,0.966666666666667,1743.46116025,1746.066713583,9,1743.523184291,1743.583990833,1746.086659791,1747.04666575,1,2.60555333299999
115,28,8,categorization,0,kitchen,SHINEd_sun_agorklincwxrdtga.tif,87,0.0666666666666667,0.0666666666666667,0.916666666666667,1747.054315666,1748.530342375,9,1747.116000416,1747.177002166,1748.546062083,1749.456066458,1,1.47602670899983
115,29,8,categorization,0,kitchen,SHINEd_sun_axyyrmzcupyhlivc.tif,107,0.0666666666666667,0.0666666666666667,0.916666666666667,1749.460949375,1751.841908916,9,1749.522748375,1749.583691458,1751.852882208,1752.762886875,1,2.38095954100004
115,30,8,categorization,0,kitchen,SHINEd_sun_aunzlwrbjumxhwdj.tif,103,0.0666666666666667,0.0666666666666667,1.4,1752.76830125,1754.322137875,9,1752.830035416,1752.891055125,1754.326889583,1755.720255916,1,1.55383662500003
115,31,8,categorization,0,bathroom,SHINEd_sun_awnqiikzaispgmwo.tif,56,0.0666666666666667,0.0666666666666667,1.75,1755.7395445,1758.042420875,9,1755.80635525,1755.872304875,1758.058369,1759.801759458,0,2.3028763750001
115,32,8,categorization,0,kitchen,SHINEd_sun_acfmftudsenhrfhy.tif,74,0.0666666666666667,0.0666666666666667,1.25,1759.818833708,1761.386524791,9,1759.885253708,1759.953113208,1761.405428666,1762.648821041,1,1.567691083
115,33,8,categorization,0,bathroom,SHINEd_sun_ajlawzvmubibwbpy.tif,30,0.0666666666666667,0.0666666666666667,1.05,1762.665812666,1764.76991525,9,1762.733901333,1762.798469166,1764.784377375,1765.827756583,0,2.10410258399997
115,34,8,categorization,0,bathroom,SHINEd_sun_apmqjbnwghzuhhzh.tif,46,0.0666666666666667,0.0666666666666667,1.06666666666667,1765.838523125,1766.877369333,13,1765.903884041,1765.969453583,1766.891972875,1767.952013541,1,1.038846208
115,35,8,categorization,0,bathroom,SHINEd_sun_anryaplzeujmzfkd.tif,39,0.0666666666666667,0.0666666666666667,1.21666666666667,1767.961030208,1769.246032291,13,1768.025821541,1768.095065166,1769.269825583,1770.479878125,1,1.28500208299988
115,36,8,categorization,0,bathroom,SHINEd_sun_azqyogdvyhahyram.tif,60,0.0666666666666667,0.0666666666666667,0.95,1770.494983,1771.5803195,13,1770.563264625,1770.627862958,1771.600932625,1772.544270458,1,1.08533650000004
115,37,8,categorization,0,kitchen,SHINEd_sun_aaxxjlsuzvqlgylf.tif,68,0.0666666666666667,0.0666666666666667,0.9,1772.549012541,1774.138239875,9,1772.610721208,1772.67172,1774.157555916,1775.050894791,1,1.58922733400004
115,38,8,categorization,0,bathroom,SHINEd_sun_aoybiabnpadelefl.tif,41,0.0666666666666667,0.0666666666666667,1.78333333333333,1775.055896375,1777.210380875,9,1775.117615083,1775.178654583,1777.214187625,1778.990886791,0,2.15448450000008
115,39,8,categorization,0,bathroom,SHINEd_sun_aofnryafpsjimzsb.tif,40,0.0666666666666667,0.0666666666666667,1.16666666666667,1779.007884375,1781.218374208,13,1779.074461333,1779.140293708,1781.225713041,1782.385763541,1,2.21048983299988
115,40,8,categorization,0,bathroom,SHINEd_sun_alotolagknyrgtsk.tif,35,0.0666666666666667,0.0666666666666667,0.783333333333333,1782.394971666,1783.81945225,9,1782.462084666,1782.527791333,1783.83602275,1784.612695041,0,1.42448058400009
115,41,8,categorization,0,kitchen,SHINEd_sun_aymvwlarqodbwuoc.tif,108,0.0666666666666667,0.0666666666666667,1.23333333333333,1784.618005083,1787.737694791,13,1784.679809625,1784.740768666,1787.743195333,1788.969916541,0,3.1196897079999
115,42,8,categorization,0,bathroom,SHINEd_sun_aspsyogrekjtfozg.tif,50,0.0666666666666667,0.0666666666666667,0.9,1788.9865335,1791.585809208,9,1789.054671708,1789.118259333,1791.60418375,1792.49752125,0,2.59927570800005
115,43,8,categorization,0,bathroom,SHINEd_sun_ahijqszoswveeyji.tif,28,0.0666666666666667,0.0666666666666667,0.7,1792.503665375,1793.609612583,13,1792.56551125,1792.626417166,1793.628484,1794.3218215,1,1.10594720799986
115,44,8,categorization,0,kitchen,SHINEd_sun_amjjdeyrggfqgmom.tif,100,0.0666666666666667,0.0666666666666667,1.23333333333333,1794.327131333,1795.433561875,9,1794.388845041,1794.449882166,1795.451753208,1796.678456,1,1.106430542
115,45,8,categorization,0,kitchen,SHINEd_sun_aapllqyqlykszopd.tif,66,0.0666666666666667,0.0666666666666667,1,1796.694609541,1798.373486875,9,1796.761460291,1796.82745775,1798.403294083,1799.396631333,1,1.67887733399994
115,46,8,categorization,0,kitchen,SHINEd_sun_acgtpgfybqjmzeyw.tif,75,0.0666666666666667,0.0666666666666667,1.38333333333333,1799.403607708,1800.9220885,13,1799.465354916,1799.526311,1800.929033833,1802.305746458,0,1.51848079199999
115,47,8,categorization,0,bathroom,SHINEd_sun_agyqfjcfkdcydepw.tif,25,0.0666666666666667,0.0666666666666667,1.3,1802.323757791,1804.162174416,9,1802.390380708,1802.456531625,1804.175943666,1805.469328083,0,1.83841662500004
115,48,8,categorization,0,kitchen,SHINEd_sun_aggjlwcdjsjcaemh.tif,86,0.0666666666666667,0.0666666666666667,0.833333333333333,1805.490675791,1807.786157875,13,1805.557432625,1805.62341875,1807.793393833,1808.620064916,0,2.29548208400001
115,49,8,categorization,0,bathroom,SHINEd_sun_aggnnqpdorgxpvce.tif,21,0.0666666666666667,0.0666666666666667,0.95,1808.624919416,1810.265466,9,1808.686748041,1808.747683916,1810.283293666,1811.226633,0,1.64054658400005
115,50,8,categorization,0,kitchen,SHINEd_sun_acxkpeoqbwcxfvip.tif,77,0.0666666666666667,0.0666666666666667,1.43333333333333,1811.231399416,1813.170233041,13,1811.293038666,1811.354136041,1813.189699583,1814.6164175,0,1.93883362500014
