sub_num,trial,block,task,is_practice,category,image,texture,duration,mask_dur,jitter,stim_time,time_of_resp,trial_response,mask_time,fix_time,jit_onset,trial_end,trial_accuracy,RT
115,1,0,categorization,1,bathroom,SHINEd_bathroom_practice1.tif,111,0.0666666666666667,0.0666666666666667,1.21666666666667,240.516024583,244.526611125,13,240.582116,240.642853708,244.5636465,245.773874875,1,4.010586542
115,2,0,categorization,1,bathroom,SHINEd_bathroom_practice5.tif,115,0.0666666666666667,0.0666666666666667,1.36666666666667,245.8316795,248.040482666,13,245.904633541,245.963962208,248.050165708,249.410348,1,2.208803166
115,3,0,categorization,1,kitchen,SHINEd_kitchen_practice1.tif,116,0.0666666666666667,0.0666666666666667,1.85,249.462983208,251.233334166,9,249.537749416,249.597252541,251.250203333,253.093708083,1,1.77035095799999
115,4,0,categorization,1,bathroom,SHINEd_bathroom_practice4.tif,114,0.0666666666666667,0.0666666666666667,1.55,253.11389625,254.937214,13,253.182304791,253.24605675,254.94927825,256.492772541,1,1.82331775
115,5,0,categorization,1,bathroom,SHINEd_bathroom_practice2.tif,112,0.0666666666666667,0.0666666666666667,1.48333333333333,256.525594125,258.240191791,9,256.598901333,256.659393041,258.262938625,259.740485916,0,1.71459766599997
115,6,0,categorization,1,kitchen,SHINEd_kitchen_practice3.tif,118,0.0666666666666667,0.0666666666666667,1.15,259.767999666,262.064553166,9,259.836360166,259.901542625,262.071423875,263.214929125,1,2.29655350000002
115,7,0,categorization,1,kitchen,SHINEd_kitchen_practice2.tif,117,0.0666666666666667,0.0666666666666667,0.733333333333333,263.226030666,266.18523525,9,263.290772583,263.360112833,266.196039458,266.922717791,1,2.95920458400002
115,8,0,categorization,1,kitchen,SHINEd_kitchen_practice4.tif,119,0.0666666666666667,0.0666666666666667,1.6,266.928911333,271.109322166,9,266.990859416,267.051744791,271.125831208,272.75844325,1,4.18041083300005
115,9,0,categorization,1,kitchen,SHINEd_kitchen_practice5.tif,120,0.0666666666666667,0.0666666666666667,0.716666666666667,272.787634833,274.521118333,9,272.860076875,272.933245125,274.535586,275.24559,1,1.73348349999998
115,10,0,categorization,1,bathroom,SHINEd_bathroom_practice3.tif,113,0.0666666666666667,0.0666666666666667,1.21666666666667,275.250623958,276.152709083,13,275.312382916,275.373399208,276.158559125,277.3686065,1,0.902085124999985
115,1,1,categorization,0,bathroom,SHINEd_sun_axyrejkiiaqiurjk.tif,59,0.0666666666666667,0.0666666666666667,1.23333333333333,302.470163125,304.504088958,13,302.532641375,302.593255458,304.512381916,305.739088416,1,2.03392583300001
115,2,1,categorization,0,kitchen,SHINEd_sun_ahljzhgcdpomplvg.tif,91,0.0666666666666667,0.0666666666666667,0.783333333333333,305.756461291,307.245180666,9,305.824482083,305.889585125,307.262287083,308.038959208,1,1.48871937500002
115,3,1,categorization,0,kitchen,SHINEd_sun_aunzlwrbjumxhwdj.tif,103,0.0666666666666667,0.0666666666666667,0.75,308.04484425,309.528459791,9,308.106642416,308.167562541,309.536455958,310.279794166,1,1.48361554100001
115,4,1,categorization,0,kitchen,SHINEd_sun_aymvwlarqodbwuoc.tif,108,0.0666666666666667,0.0666666666666667,1.23333333333333,310.284429375,311.536399791,9,310.346250125,310.407231125,311.543016791,312.769717958,1,1.25197041600001
115,5,1,categorization,0,bathroom,SHINEd_sun_apeeialkgkuxddgh.tif,42,0.0666666666666667,0.0666666666666667,1.13333333333333,312.785976458,313.564859291,13,312.853860375,312.918595916,313.591701291,314.718401791,1,0.778882833000011
115,6,1,categorization,0,bathroom,SHINEd_sun_aghyqhbptboemmoq.tif,23,0.0666666666666667,0.0666666666666667,0.95,314.734407541,315.647808041,13,314.800957791,314.867204458,315.674189333,316.617573916,1,0.913400500000023
115,7,1,categorization,0,bathroom,SHINEd_sun_awnqiikzaispgmwo.tif,56,0.0666666666666667,0.0666666666666667,0.733333333333333,316.633401416,318.480278458,9,316.70013525,316.759133791,318.494775916,319.2214465,0,1.84687704199996
115,8,1,categorization,0,kitchen,SHINEd_sun_ahspylgoovwmwvgk.tif,93,0.0666666666666667,0.0666666666666667,1.31666666666667,319.227750375,321.064687333,9,319.289550083,319.350489625,321.069469166,322.384143208,1,1.83693695799997
115,9,1,categorization,0,kitchen,SHINEd_sun_awcpdzzznmweyyhv.tif,106,0.0666666666666667,0.0666666666666667,0.8,322.40544625,325.096041083,9,322.473018208,322.541490166,325.110741208,325.90408125,1,2.69059483299998
115,10,1,categorization,0,kitchen,SHINEd_sun_abrcnpqqhmjwekyf.tif,73,0.0666666666666667,0.0666666666666667,0.716666666666667,325.911317791,327.9597575,13,325.973234333,326.034041666,327.970149541,328.6801545,0,2.04843970900004
115,11,1,categorization,0,bathroom,SHINEd_sun_aunuadmjocsddsrl.tif,52,0.0666666666666667,0.0666666666666667,0.916666666666667,328.685725541,332.075672125,9,328.747541125,328.8085985,332.09423575,333.004243,0,3.38994658399997
115,12,1,categorization,0,kitchen,SHINEd_sun_aixorpehvfykdynp.tif,95,0.0666666666666667,0.0666666666666667,0.95,333.010731708,334.688514333,9,333.072456083,333.133627416,334.702731083,335.646070083,1,1.67778262500002
115,13,1,categorization,0,bathroom,SHINEd_sun_apkxzenqapsujocq.tif,45,0.0666666666666667,0.0666666666666667,0.833333333333333,335.650992791,337.008785166,13,335.712778916,335.773731291,337.026482083,337.853154125,1,1.35779237499997
115,14,1,categorization,0,bathroom,SHINEd_sun_apynckhmoftszqoq.tif,47,0.0666666666666667,0.0666666666666667,0.75,337.85802575,338.976068666,13,337.920050166,337.980810083,338.982763541,339.726101416,1,1.11804291599998
115,15,1,categorization,0,kitchen,SHINEd_sun_azmutvzbxypaceni.tif,110,0.0666666666666667,0.0666666666666667,1.53333333333333,339.731489875,341.095781291,9,339.793284625,339.854410541,341.106612583,342.633332708,1,1.36429141599996
115,16,1,categorization,0,bathroom,SHINEd_sun_ahaulkltgpkeeemi.tif,26,0.0666666666666667,0.0666666666666667,1.05,342.648746875,343.561578083,13,342.715537333,342.781686333,343.588163916,344.631537791,1,0.912831208
115,17,1,categorization,0,bathroom,SHINEd_sun_ahcvzmoyaycdoftf.tif,27,0.0666666666666667,0.0666666666666667,0.9,344.6456315,346.784334666,13,344.7103645,344.777770125,346.797985166,347.691325583,1,2.13870316600003
115,18,1,categorization,0,kitchen,SHINEd_sun_acxkpeoqbwcxfvip.tif,77,0.0666666666666667,0.0666666666666667,1.18333333333333,347.697039583,349.175979625,9,347.758971583,347.819841583,349.188726791,350.365433791,1,1.47894004200003
115,19,1,categorization,0,kitchen,SHINEd_sun_abdxkyyxwfskuaqb.tif,70,0.0666666666666667,0.0666666666666667,0.9,350.376477916,352.511760083,13,350.444599,350.509468458,352.529154666,353.422492041,0,2.13528216700001
115,20,1,categorization,0,kitchen,SHINEd_sun_aarfiyshqohlwkmo.tif,67,0.0666666666666667,0.0666666666666667,1.66666666666667,353.427695791,355.447788,13,353.489384791,353.550467791,355.452879333,357.112906291,0,2.02009220899998
115,21,1,categorization,0,kitchen,SHINEd_labelme_brsyyvweiuaazfr.tif,61,0.0666666666666667,0.0666666666666667,1.13333333333333,357.123472541,358.616110875,13,357.190430166,357.256322625,358.625849625,359.75256725,0,1.49263833399999
115,22,1,categorization,0,bathroom,SHINEd_sun_acduarbnmmoglmiv.tif,16,0.0666666666666667,0.0666666666666667,1.3,359.762361625,362.28016625,13,359.827554041,359.895155208,362.298105291,363.591475125,1,2.517804625
115,23,1,categorization,0,bathroom,SHINEd_labelme_sfxiulhjbhlyiyt.tif,11,0.0666666666666667,0.0666666666666667,1.93333333333333,363.609031875,364.889843583,9,363.677145791,363.741777666,364.918144333,366.844847583,0,1.28081170799999
115,24,1,categorization,0,bathroom,SHINEd_sun_ahijqszoswveeyji.tif,28,0.0666666666666667,0.0666666666666667,1,366.864029833,368.688009083,9,366.931599916,366.9977825,368.70073975,369.694079583,0,1.82397924999998
115,25,1,categorization,0,kitchen,SHINEd_sun_aapllqyqlykszopd.tif,66,0.0666666666666667,0.0666666666666667,0.883333333333333,369.699877,372.247699375,13,369.761520333,369.822671375,372.258164791,373.134835041,0,2.54782237500001
115,26,1,categorization,0,bathroom,SHINEd_sun_apjevzvycyhuqghb.tif,43,0.0666666666666667,0.0666666666666667,1.95,373.139575041,374.743746083,9,373.201367083,373.26240925,374.748219083,376.691600333,0,1.60417104200002
115,27,1,categorization,0,kitchen,SHINEd_sun_aeqdocilnnpuvuhx.tif,83,0.0666666666666667,0.0666666666666667,1.25,376.709306041,378.896394791,9,376.777767666,376.8423415,378.911612458,380.154995458,1,2.18708874999999
115,28,1,categorization,0,kitchen,SHINEd_sun_ahpczsiumwwocjkv.tif,92,0.0666666666666667,0.0666666666666667,1.95,380.170743666,381.567156916,13,380.238658958,380.303570291,381.595885583,383.539261375,0,1.39641324999997
115,29,1,categorization,0,bathroom,SHINEd_sun_aofnryafpsjimzsb.tif,40,0.0666666666666667,0.0666666666666667,1.91666666666667,383.557891166,385.279982916,13,383.625100083,383.69093675,385.293287958,387.203322458,1,1.72209175
115,30,1,categorization,0,kitchen,SHINEd_sun_abpwyqmlzafvklqo.tif,72,0.0666666666666667,0.0666666666666667,1.41666666666667,387.213476958,389.319701083,9,387.279522375,387.34656825,389.332151625,390.742199625,1,2.10622412499998
115,31,1,categorization,0,bathroom,SHINEd_sun_aoybiabnpadelefl.tif,41,0.0666666666666667,0.0666666666666667,0.716666666666667,390.760913083,392.792422458,13,390.828191875,390.893491208,392.813011541,393.523017708,1,2.03150937499998
115,32,1,categorization,0,kitchen,SHINEd_sun_akchetnepxlcxhsu.tif,98,0.0666666666666667,0.0666666666666667,1.28333333333333,393.528710083,395.735727958,13,393.590466833,393.651475041,395.753623166,397.030339041,0,2.20701787499996
115,33,1,categorization,0,bathroom,SHINEd_sun_azqyogdvyhahyram.tif,60,0.0666666666666667,0.0666666666666667,0.9,397.048232083,399.167592958,9,397.113656375,397.179946458,399.182135583,400.075474041,0,2.11936087499998
115,34,1,categorization,0,kitchen,SHINEd_sun_abdenxonkemggwsq.tif,69,0.0666666666666667,0.0666666666666667,0.8,400.080708125,402.12781075,13,400.142483125,400.203527833,402.139174083,402.932513708,0,2.04710262499998
115,35,1,categorization,0,kitchen,SHINEd_sun_auticobqsbwgoppi.tif,104,0.0666666666666667,0.0666666666666667,1.01666666666667,402.938159166,404.920081125,9,403.000026875,403.060878666,404.930179625,405.940225041,1,1.98192195900003
115,36,1,categorization,0,bathroom,SHINEd_sun_alotolagknyrgtsk.tif,35,0.0666666666666667,0.0666666666666667,0.85,405.949957375,407.892065333,13,406.015005208,406.081552166,407.924297125,408.767634958,1,1.94210795800001
115,37,1,categorization,0,bathroom,SHINEd_sun_axldvoqbuvuggfmq.tif,57,0.0666666666666667,0.0666666666666667,1.51666666666667,408.772541875,410.408212666,13,408.834632458,408.895268625,410.414206125,411.924236333,1,1.635670791
115,38,1,categorization,0,kitchen,SHINEd_labelme_kxvouciolcpqplr.tif,62,0.0666666666666667,0.0666666666666667,1.83333333333333,411.942175833,413.663781333,9,412.008951625,412.075341416,413.678078833,415.504789791,1,1.72160549999995
115,39,1,categorization,0,bathroom,SHINEd_sun_aqrpegblszgcoujh.tif,48,0.0666666666666667,0.0666666666666667,0.716666666666667,415.523433958,417.255968583,13,415.5903685,415.656049416,417.275197833,417.985202958,1,1.73253462500003
115,40,1,categorization,0,bathroom,SHINEd_sun_aspsyogrekjtfozg.tif,50,0.0666666666666667,0.0666666666666667,0.9,417.990838583,420.119577333,9,418.05264775,418.113591416,420.132990041,421.026328416,0,2.12873874999997
115,41,1,categorization,0,kitchen,SHINEd_sun_acwjdupvyjsugpay.tif,76,0.0666666666666667,0.0666666666666667,0.916666666666667,421.0312105,422.135608208,9,421.092977833,421.15399825,422.139510416,423.049516375,1,1.10439770800002
115,42,1,categorization,0,kitchen,SHINEd_sun_aehawpgmrlhlvcow.tif,81,0.0666666666666667,0.0666666666666667,0.816666666666667,423.054710208,424.832105458,9,423.11639075,423.177489541,424.846323,425.656329125,1,1.77739524999998
115,43,1,categorization,0,bathroom,SHINEd_sun_agguqiubmwhqqunb.tif,22,0.0666666666666667,0.0666666666666667,1.88333333333333,425.66180975,427.759426166,9,425.723566375,425.784527,427.769999708,429.646702208,0,2.09761641600005
115,44,1,categorization,0,bathroom,SHINEd_sun_aavhrsfjbserjtht.tif,13,0.0666666666666667,0.0666666666666667,0.9,429.664530791,432.416270666,9,429.731324666,429.797261083,432.432989833,433.326327166,0,2.751739875
115,45,1,categorization,0,kitchen,SHINEd_sun_ajkqhtgcbgpcwrwn.tif,97,0.0666666666666667,0.0666666666666667,1,433.3315065,434.607466958,13,433.393271333,433.454277708,434.623480041,435.616818333,0,1.27596045799999
115,46,1,categorization,0,kitchen,SHINEd_sun_ahywdevtimnqcsln.tif,94,0.0666666666666667,0.0666666666666667,0.733333333333333,435.621422291,437.080345,9,435.683060458,435.744180083,437.096875375,437.823547083,1,1.45892270900003
115,47,1,categorization,0,bathroom,SHINEd_sun_atstyziqcmkahyxk.tif,51,0.0666666666666667,0.0666666666666667,0.883333333333333,437.829057166,438.791442375,13,437.890849666,437.951854375,438.803982208,439.680654416,1,0.96238520899999
115,48,1,categorization,0,bathroom,SHINEd_sun_apkruvsevgegsdwp.tif,44,0.0666666666666667,0.0666666666666667,1.73333333333333,439.686210583,441.471447583,9,439.747985458,439.808957666,441.477890791,443.204576458,0,1.785237
115,49,1,categorization,0,bathroom,SHINEd_sun_ambriybtogmepttm.tif,36,0.0666666666666667,0.0666666666666667,1.91666666666667,443.215508916,444.527746958,13,443.282227666,443.34803725,444.557636916,446.46766825,1,1.31223804200005
115,50,1,categorization,0,kitchen,SHINEd_sun_agubuxuukhzyzpdp.tif,88,0.0666666666666667,0.0666666666666667,1.35,446.486213875,448.535546541,13,446.55332625,446.6202045,448.539444208,449.882826291,0,2.049332666
115,1,2,categorization,0,kitchen,SHINEd_sun_akcjzhbbjlbogpdi.tif,99,0.0666666666666667,0.0666666666666667,0.95,524.061570041,525.726807333,13,524.124180541,524.184320666,525.736814583,526.680154583,0,1.66523729200003
115,2,2,categorization,0,bathroom,SHINEd_sun_aggnnqpdorgxpvce.tif,21,0.0666666666666667,0.0666666666666667,0.75,526.685813458,528.495652083,9,526.747545,526.808639541,528.510731208,529.254068333,0,1.809838625
115,3,2,categorization,0,bathroom,SHINEd_sun_aclfzgynxzxlbepz.tif,19,0.0666666666666667,0.0666666666666667,1.68333333333333,529.260065708,530.791848791,13,529.321866875,529.382722666,530.802181,532.478896166,1,1.53178308300005
115,4,2,categorization,0,kitchen,SHINEd_sun_admlmbcdswaszruo.tif,79,0.0666666666666667,0.0666666666666667,0.816666666666667,532.494702583,533.982896375,9,532.560356625,532.625277416,533.994313916,534.804320375,1,1.48819379199995
115,5,2,categorization,0,kitchen,SHINEd_sun_aenotlpyftoioydp.tif,82,0.0666666666666667,0.0666666666666667,0.916666666666667,534.809692,535.863626583,9,534.871364083,534.932350333,535.868296,536.778302583,1,1.053934583
115,6,2,categorization,0,kitchen,SHINEd_sun_acgtpgfybqjmzeyw.tif,75,0.0666666666666667,0.0666666666666667,1.21666666666667,536.784004416,538.551578958,9,536.845897458,536.90680875,538.559199875,539.769249458,1,1.76757454200003
115,7,2,categorization,0,bathroom,SHINEd_sun_acegryoqftbzowsg.tif,17,0.0666666666666667,0.0666666666666667,0.9,539.786158,541.391126583,13,539.8541385,539.918043958,541.407574458,542.300911166,1,1.60496858299996
115,8,2,categorization,0,bathroom,SHINEd_sun_abapwbhyhkfixyex.tif,14,0.0666666666666667,0.0666666666666667,1.65,542.305776416,543.487038416,9,542.367541458,542.428583666,543.497149625,545.140522291,0,1.18126200000006
115,9,2,categorization,0,bathroom,SHINEd_sun_asfwthctfqerjvxr.tif,49,0.0666666666666667,0.0666666666666667,1.15,545.153024916,547.710926583,9,545.218756791,545.286372291,547.722091333,548.86546475,0,2.5579016669999
115,10,2,categorization,0,kitchen,SHINEd_sun_ahdycvpopffkzzsu.tif,90,0.0666666666666667,0.0666666666666667,1.13333333333333,548.877980166,550.544736541,13,548.944736125,549.010905833,550.56991175,551.696635083,0,1.66675637499998
115,11,2,categorization,0,bathroom,SHINEd_sun_acgyywnybuveqsro.tif,18,0.0666666666666667,0.0666666666666667,1.76666666666667,551.706037041,552.819517541,13,551.771079416,551.839701583,552.847296666,554.607333458,1,1.11348050000004
115,12,2,categorization,0,kitchen,SHINEd_labelme_rykdqxenmhulbdn.tif,63,0.0666666666666667,0.0666666666666667,1.8,554.624980666,555.578017875,9,554.691749916,554.757706666,555.597424375,557.390791458,1,0.953037208999945
115,13,2,categorization,0,kitchen,SHINEd_sun_aggjlwcdjsjcaemh.tif,86,0.0666666666666667,0.0666666666666667,0.9,557.409492333,559.718975291,9,557.476328125,557.542330708,559.7280765,560.621415083,1,2.30948295799999
115,14,2,categorization,0,bathroom,SHINEd_sun_ausgutylgojavyoq.tif,53,0.0666666666666667,0.0666666666666667,0.716666666666667,560.626843458,562.015685791,13,560.688543625,560.74961375,562.035528041,562.745534,1,1.38884233299996
115,15,2,categorization,0,kitchen,SHINEd_sun_abftihopvusyfakt.tif,71,0.0666666666666667,0.0666666666666667,1.36666666666667,562.751076958,564.239596666,13,562.812793625,562.873757541,564.259444625,565.619484041,0,1.48851970800001
115,16,2,categorization,0,kitchen,SHINEd_sun_afuyedyxivkhecmu.tif,85,0.0666666666666667,0.0666666666666667,0.916666666666667,565.637774208,566.505725083,9,565.705262666,565.77106575,566.527895083,567.437900166,1,0.86795087500002
115,17,2,categorization,0,bathroom,SHINEd_sun_aapitsgbtktqubfy.tif,12,0.0666666666666667,0.0666666666666667,0.716666666666667,567.443498333,568.935229875,13,567.5052255,567.566254333,568.952230541,569.662234625,1,1.49173154200003
115,18,2,categorization,0,kitchen,SHINEd_sun_axyyrmzcupyhlivc.tif,107,0.0666666666666667,0.0666666666666667,0.766666666666667,569.667539333,570.863513208,9,569.729316791,569.79030125,570.87584825,571.635854333,1,1.19597387499994
115,19,2,categorization,0,bathroom,SHINEd_sun_auzqhkafidnkrwmo.tif,54,0.0666666666666667,0.0666666666666667,1.06666666666667,571.643487,573.503269958,9,571.705115083,571.766259041,573.518543875,574.578587166,0,1.85978295799998
115,20,2,categorization,0,bathroom,SHINEd_sun_amzlamotzwfkwjco.tif,37,0.0666666666666667,0.0666666666666667,0.8,574.591187083,576.551062875,9,574.65610625,574.722252708,576.558902166,577.352238791,0,1.95987579199993
115,21,2,categorization,0,kitchen,SHINEd_sun_aypmqwcualkenuoe.tif,109,0.0666666666666667,0.0666666666666667,0.866666666666667,577.3573485,579.45535125,13,577.419138166,577.48021825,579.465830166,580.325834666,0,2.09800275000009
115,22,2,categorization,0,bathroom,SHINEd_sun_agrwbmhcpmfuwmsg.tif,24,0.0666666666666667,0.0666666666666667,1.48333333333333,580.331363791,582.023242791,9,580.393136166,580.454107458,582.039999166,583.516713625,0,1.69187900000009
115,23,2,categorization,0,kitchen,SHINEd_sun_amjjdeyrggfqgmom.tif,100,0.0666666666666667,0.0666666666666667,1.1,583.533833041,585.358931,9,583.602300708,583.666666666,585.368973875,586.462342791,1,1.825097959
115,24,2,categorization,0,bathroom,SHINEd_sun_abjtwfukuwddzted.tif,15,0.0666666666666667,0.0666666666666667,0.783333333333333,586.474327791,587.808032916,13,586.539131791,586.606903416,587.832867041,588.609538083,1,1.33370512500005
115,25,2,categorization,0,kitchen,SHINEd_sun_acfmftudsenhrfhy.tif,74,0.0666666666666667,0.0666666666666667,0.866666666666667,588.615061708,589.510875791,9,588.676865291,588.737804291,589.523030833,590.383036666,1,0.895814083000005
115,26,2,categorization,0,kitchen,SHINEd_sun_agzzivivdpnawacl.tif,89,0.0666666666666667,0.0666666666666667,1.83333333333333,590.388748958,592.79098975,13,590.450524625,590.51147375,592.797381708,594.624097166,0,2.40224079200004
115,27,2,categorization,0,kitchen,SHINEd_sun_auaiucuqpdausiva.tif,102,0.0666666666666667,0.0666666666666667,0.7,594.641531,596.638769583,9,594.709470625,594.774285791,596.643568375,597.336906833,1,1.99723858300001
115,28,2,categorization,0,bathroom,SHINEd_sun_anryaplzeujmzfkd.tif,39,0.0666666666666667,0.0666666666666667,1.33333333333333,597.34300375,598.687473583,13,597.404780541,597.465723708,598.701440375,600.028142416,1,1.34446983300006
115,29,2,categorization,0,kitchen,SHINEd_sun_aexklacwqwezaorf.tif,84,0.0666666666666667,0.0666666666666667,1.33333333333333,600.045588875,602.447535083,13,600.11237825,600.178696791,602.464743708,603.791448791,0,2.40194620800003
115,30,2,categorization,0,bathroom,SHINEd_sun_aljolscmmzydegqp.tif,33,0.0666666666666667,0.0666666666666667,1.38333333333333,603.808296833,603.944176166,13,603.876799916,603.941192333,603.964390875,605.341095791,1,0.135879333000048
115,31,2,categorization,0,kitchen,SHINEd_sun_ajcbwwvdlsvjyzje.tif,96,0.0666666666666667,0.0666666666666667,1.25,605.358932416,628.031079166,9,605.425911583,605.491816,628.04372575,629.287106208,1,22.67214675
115,32,2,categorization,0,bathroom,SHINEd_sun_afcoljnjfoxjtgja.tif,20,0.0666666666666667,0.0666666666666667,1.55,629.299954791,631.470373875,13,629.366803333,629.432967125,631.485347375,633.028713833,1,2.17041908399995
115,33,2,categorization,0,bathroom,SHINEd_sun_ajlawzvmubibwbpy.tif,30,0.0666666666666667,0.0666666666666667,1.61666666666667,633.04675175,635.439201916,9,633.111987583,633.177925083,635.446916416,637.056962125,0,2.392450166
115,34,2,categorization,0,bathroom,SHINEd_sun_avhrdrntsqrjzccq.tif,55,0.0666666666666667,0.0666666666666667,1.33333333333333,637.07391325,639.222524125,9,637.138385791,637.2050305,639.240570416,640.567274833,0,2.14861087499992
115,35,2,categorization,0,kitchen,SHINEd_sun_agorklincwxrdtga.tif,87,0.0666666666666667,0.0666666666666667,0.833333333333333,640.5848625,642.31814075,9,640.652737,640.717573541,642.340143166,643.166813416,1,1.73327825000001
115,36,2,categorization,0,kitchen,SHINEd_sun_aamedkxepzlwuxes.tif,65,0.0666666666666667,0.0666666666666667,1.45,643.171472625,644.703247166,13,643.23323625,643.294200666,644.71315,646.156521291,0,1.531774541
115,37,2,categorization,0,kitchen,SHINEd_sun_avszsnwsbuqfgzbn.tif,105,0.0666666666666667,0.0666666666666667,0.933333333333333,646.174327375,647.249520208,9,646.241965041,646.307464041,647.263183875,648.189855375,1,1.07519283300007
115,38,2,categorization,0,kitchen,SHINEd_sun_aegoxogugdkwpmpj.tif,80,0.0666666666666667,0.0666666666666667,1.65,648.195943666,649.246620458,9,648.25769125,648.318728375,649.253945125,650.897316166,1,1.0506767920001
115,39,2,categorization,0,kitchen,SHINEd_sun_aadbddgrdsjugojn.tif,64,0.0666666666666667,0.0666666666666667,1.23333333333333,650.914792541,652.054594541,9,650.981710458,651.047901041,652.070347583,653.297037916,1,1.13980200000003
115,40,2,categorization,0,kitchen,SHINEd_sun_aaxxjlsuzvqlgylf.tif,68,0.0666666666666667,0.0666666666666667,0.766666666666667,653.307089791,654.769137,13,653.373246583,653.43979825,654.799050958,655.55905825,0,1.46204720900005
115,41,2,categorization,0,bathroom,SHINEd_sun_alkosphxlxwjwgjd.tif,34,0.0666666666666667,0.0666666666666667,1.78333333333333,655.564951291,657.918831166,9,655.626775791,655.687756708,657.92384375,659.700544,0,2.35387987499996
115,42,2,categorization,0,bathroom,SHINEd_sun_anhioqovhscjqqwb.tif,38,0.0666666666666667,0.0666666666666667,1.11666666666667,659.718941333,660.854585375,13,659.785824875,659.851788375,660.87491175,661.984963666,1,1.13564404200008
115,43,2,categorization,0,bathroom,SHINEd_sun_axxbkopsgyouuebh.tif,58,0.0666666666666667,0.0666666666666667,1.85,661.996585,663.634903875,13,662.061392,662.129200583,663.654810041,665.498195666,1,1.63831887499998
115,44,2,categorization,0,bathroom,SHINEd_sun_akiytfaagpdsphgz.tif,31,0.0666666666666667,0.0666666666666667,0.733333333333333,665.51318025,667.27862075,9,665.579939625,665.646123375,667.298308625,668.024981208,0,1.76544049999995
115,45,2,categorization,0,bathroom,SHINEd_sun_ahqjwnzgolcaoidx.tif,29,0.0666666666666667,0.0666666666666667,0.783333333333333,668.03080675,669.734272083,13,668.09251225,668.153601416,669.738892791,670.515564583,1,1.70346533299994
115,46,2,categorization,0,bathroom,SHINEd_sun_aleqenyvunhactkl.tif,32,0.0666666666666667,0.0666666666666667,1.5,670.520709541,671.7431585,9,670.582516125,670.643473125,671.762291083,673.255674583,0,1.22244895900008
115,47,2,categorization,0,bathroom,SHINEd_sun_apmqjbnwghzuhhzh.tif,46,0.0666666666666667,0.0666666666666667,0.733333333333333,673.273296041,674.434120375,13,673.339841583,673.40583925,674.461917,675.188589416,1,1.16082433400004
115,48,2,categorization,0,kitchen,SHINEd_sun_aqeaevwwwjoqhzvl.tif,101,0.0666666666666667,0.0666666666666667,1.1,675.193422708,676.455154541,9,675.255165166,675.316118041,676.468312458,677.561700041,1,1.261731833
115,49,2,categorization,0,bathroom,SHINEd_sun_agyqfjcfkdcydepw.tif,25,0.0666666666666667,0.0666666666666667,1.6,677.573076333,679.806998041,13,677.63807825,677.705970958,679.825092208,681.418481875,1,2.23392170800003
115,50,2,categorization,0,kitchen,SHINEd_sun_adgqasybjyktddhj.tif,78,0.0666666666666667,0.0666666666666667,1.06666666666667,681.435778666,682.739193291,9,681.503971041,681.5688155,682.758274208,683.818320125,1,1.30341462499996
115,1,3,categorization,0,bathroom,SHINEd_sun_ausgutylgojavyoq.tif,53,0.0666666666666667,0.0666666666666667,0.85,720.330753125,721.270410958,13,720.3932555,720.4534445,721.288694583,722.132032666,1,0.939657832999956
115,2,3,categorization,0,bathroom,SHINEd_sun_axldvoqbuvuggfmq.tif,57,0.0666666666666667,0.0666666666666667,1.65,722.136826833,723.630415333,13,722.198485416,722.259544458,723.645107625,725.288482,1,1.49358849999999
115,3,3,categorization,0,kitchen,SHINEd_sun_axyyrmzcupyhlivc.tif,107,0.0666666666666667,0.0666666666666667,0.783333333333333,725.3015985,726.313631458,9,725.368668166,725.433805708,726.340218083,727.116888416,1,1.01203295800008
115,4,3,categorization,0,bathroom,SHINEd_sun_ahcvzmoyaycdoftf.tif,27,0.0666666666666667,0.0666666666666667,0.933333333333333,727.121728291,728.590041375,13,727.183582791,727.244489583,728.597079708,729.523750666,1,1.4683130840001
115,5,3,categorization,0,kitchen,SHINEd_sun_ajkqhtgcbgpcwrwn.tif,97,0.0666666666666667,0.0666666666666667,0.866666666666667,729.528555375,732.389989458,9,729.590478458,729.651202333,732.403870791,733.263875125,1,2.86143408299995
115,6,3,categorization,0,bathroom,SHINEd_sun_ahijqszoswveeyji.tif,28,0.0666666666666667,0.0666666666666667,1.11666666666667,733.268685958,735.0542145,13,733.330481125,733.391424166,735.060760791,736.170793,1,1.78552854199995
115,7,3,categorization,0,kitchen,SHINEd_sun_amjjdeyrggfqgmom.tif,100,0.0666666666666667,0.0666666666666667,0.966666666666667,736.182239833,737.816758166,9,736.247417,736.315033208,737.841191958,738.801196666,1,1.63451833299996
115,8,3,categorization,0,kitchen,SHINEd_sun_ahljzhgcdpomplvg.tif,91,0.0666666666666667,0.0666666666666667,1.78333333333333,738.806189416,741.174978083,13,738.867976333,738.928910541,741.181289916,742.958006416,0,2.36878866699999
115,9,3,categorization,0,kitchen,SHINEd_labelme_brsyyvweiuaazfr.tif,61,0.0666666666666667,0.0666666666666667,1.55,742.977987708,744.678579083,9,743.045190625,743.105563,744.691107083,746.23448575,1,1.70059137500004
115,10,3,categorization,0,kitchen,SHINEd_sun_abftihopvusyfakt.tif,71,0.0666666666666667,0.0666666666666667,1.41666666666667,746.248720666,747.545930083,9,746.315888875,746.381693583,747.575004958,748.9850565,1,1.29720941699998
115,11,3,categorization,0,bathroom,SHINEd_sun_abapwbhyhkfixyex.tif,14,0.0666666666666667,0.0666666666666667,0.8,749.002586125,751.462430333,9,749.069546375,749.1341275,751.469891416,752.263229208,0,2.45984420800005
115,12,3,categorization,0,kitchen,SHINEd_sun_aaxxjlsuzvqlgylf.tif,68,0.0666666666666667,0.0666666666666667,1.28333333333333,752.268487583,753.590673125,9,752.330165916,752.391290625,753.610347583,754.887062958,1,1.32218554199994
115,13,3,categorization,0,bathroom,SHINEd_sun_acgyywnybuveqsro.tif,18,0.0666666666666667,0.0666666666666667,1.66666666666667,754.904725541,756.222955791,13,754.971368916,755.037510791,756.2460655,757.906099,1,1.31823025000006
115,14,3,categorization,0,bathroom,SHINEd_sun_anhioqovhscjqqwb.tif,38,0.0666666666666667,0.0666666666666667,1.81666666666667,757.924652166,758.960217541,13,757.991964166,758.057547541,758.980720541,760.790775625,1,1.03556537500003
115,15,3,categorization,0,bathroom,SHINEd_sun_aqrpegblszgcoujh.tif,48,0.0666666666666667,0.0666666666666667,1.35,760.811261125,762.958638208,13,760.878130916,760.94408075,762.963632416,764.306998416,1,2.14737708300004
115,16,3,categorization,0,bathroom,SHINEd_sun_agguqiubmwhqqunb.tif,22,0.0666666666666667,0.0666666666666667,0.916666666666667,764.324075166,765.872706416,9,764.390947541,764.45703675,765.899919291,766.809925125,0,1.54863125000008
115,17,3,categorization,0,kitchen,SHINEd_sun_aunzlwrbjumxhwdj.tif,103,0.0666666666666667,0.0666666666666667,0.916666666666667,766.81491275,769.045751666,13,766.8767175,766.937828833,769.057046541,769.967050666,0,2.23083891600004
115,18,3,categorization,0,bathroom,SHINEd_sun_aljolscmmzydegqp.tif,33,0.0666666666666667,0.0666666666666667,1.31666666666667,769.971802791,771.646575083,13,770.033596208,770.094558791,771.663467875,772.973510291,1,1.67477229200006
115,19,3,categorization,0,kitchen,SHINEd_sun_abdenxonkemggwsq.tif,69,0.0666666666666667,0.0666666666666667,1.45,772.991577666,774.192507833,9,773.05777725,773.123119125,774.212739333,775.656110083,1,1.20093016700002
115,20,3,categorization,0,bathroom,SHINEd_sun_abjtwfukuwddzted.tif,15,0.0666666666666667,0.0666666666666667,0.95,775.673156416,776.946229041,13,775.739801,775.805991708,776.965080375,777.908418416,1,1.27307262500005
115,21,3,categorization,0,bathroom,SHINEd_sun_aavhrsfjbserjtht.tif,13,0.0666666666666667,0.0666666666666667,1.38333333333333,777.913059166,779.125971458,9,777.975023416,778.035954416,779.137733416,780.514458291,0,1.21291229199994
115,22,3,categorization,0,kitchen,SHINEd_sun_avszsnwsbuqfgzbn.tif,105,0.0666666666666667,0.0666666666666667,1.16666666666667,780.53202075,781.453471458,9,780.598517208,780.66485825,781.470841375,782.630875125,1,0.921450707999952
115,23,3,categorization,0,kitchen,SHINEd_sun_aenotlpyftoioydp.tif,82,0.0666666666666667,0.0666666666666667,1.61666666666667,782.642736416,784.008740083,9,782.709485166,782.776012875,784.033495083,785.643534708,1,1.36600366699997
115,24,3,categorization,0,kitchen,SHINEd_sun_abpwyqmlzafvklqo.tif,72,0.0666666666666667,0.0666666666666667,1.38333333333333,785.662536541,787.638325791,13,785.729902208,785.795657875,787.647964333,789.024668333,0,1.97578925000005
115,25,3,categorization,0,bathroom,SHINEd_sun_anryaplzeujmzfkd.tif,39,0.0666666666666667,0.0666666666666667,1.78333333333333,789.045373541,791.181748333,13,789.110666541,789.174514125,791.193637125,792.970342375,1,2.13637479199997
115,26,3,categorization,0,bathroom,SHINEd_sun_acduarbnmmoglmiv.tif,16,0.0666666666666667,0.0666666666666667,0.783333333333333,792.987983,795.157750458,13,793.054854041,793.120504875,795.172784708,795.949456041,1,2.16976745800002
115,27,3,categorization,0,bathroom,SHINEd_sun_aofnryafpsjimzsb.tif,40,0.0666666666666667,0.0666666666666667,1.65,795.954849958,798.134134458,9,796.0166545,796.077597541,798.146694083,799.790060958,0,2.17928449999999
115,28,3,categorization,0,bathroom,SHINEd_labelme_sfxiulhjbhlyiyt.tif,11,0.0666666666666667,0.0666666666666667,1.86666666666667,799.81292025,801.125313666,9,799.880746791,799.945965125,801.153042416,803.013078583,0,1.31239341599996
115,29,3,categorization,0,bathroom,SHINEd_sun_aapitsgbtktqubfy.tif,12,0.0666666666666667,0.0666666666666667,1.23333333333333,803.030660958,803.97107525,13,803.097507958,803.159475333,803.999846333,805.226535875,1,0.940414292000014
115,30,3,categorization,0,bathroom,SHINEd_sun_ahaulkltgpkeeemi.tif,26,0.0666666666666667,0.0666666666666667,0.7,805.238540875,806.21726475,13,805.305444958,805.372773541,806.246567166,806.939952791,1,0.978723875000014
115,31,3,categorization,0,kitchen,SHINEd_sun_aexklacwqwezaorf.tif,84,0.0666666666666667,0.0666666666666667,0.716666666666667,806.957907791,808.206294166,13,807.025204541,807.0833295,808.218810666,808.928815875,0,1.248386375
115,32,3,categorization,0,bathroom,SHINEd_sun_apynckhmoftszqoq.tif,47,0.0666666666666667,0.0666666666666667,1.05,808.9335185,810.534123875,13,808.995217541,809.056360541,810.542540333,811.585913,1,1.60060537499999
115,33,3,categorization,0,bathroom,SHINEd_sun_alotolagknyrgtsk.tif,35,0.0666666666666667,0.0666666666666667,1.1,811.597834208,813.982323208,13,811.663056166,811.728930208,813.998289291,815.091661333,1,2.38448900000003
115,34,3,categorization,0,kitchen,SHINEd_labelme_kxvouciolcpqplr.tif,62,0.0666666666666667,0.0666666666666667,1.13333333333333,815.102579458,816.290907041,9,815.1675145,815.234333708,816.3090365,817.435738083,1,1.18832758299993
115,35,3,categorization,0,kitchen,SHINEd_sun_aymvwlarqodbwuoc.tif,108,0.0666666666666667,0.0666666666666667,1.38333333333333,817.446078041,818.609278166,9,817.511161166,817.578691083,818.635281791,820.011989125,1,1.163200125
115,36,3,categorization,0,bathroom,SHINEd_sun_avhrdrntsqrjzccq.tif,55,0.0666666666666667,0.0666666666666667,1.5,820.029488666,821.982408125,9,820.09649525,820.163068625,821.999062708,823.49243075,0,1.95291945899999
115,37,3,categorization,0,bathroom,SHINEd_sun_akiytfaagpdsphgz.tif,31,0.0666666666666667,0.0666666666666667,1.61666666666667,823.511897041,826.725797625,9,823.578752083,823.644699541,826.74652425,828.35655575,0,3.21390058400004
115,38,3,categorization,0,kitchen,SHINEd_sun_ahspylgoovwmwvgk.tif,93,0.0666666666666667,0.0666666666666667,0.983333333333333,828.377581416,829.831305166,13,828.44483225,828.51061025,829.850239083,830.826909666,0,1.45372374999999
115,39,3,categorization,0,kitchen,SHINEd_sun_aarfiyshqohlwkmo.tif,67,0.0666666666666667,0.0666666666666667,1.3,830.832516416,833.094305708,13,830.894234791,830.955454083,833.107651166,834.401032583,0,2.261789292
115,40,3,categorization,0,kitchen,SHINEd_sun_aapllqyqlykszopd.tif,66,0.0666666666666667,0.0666666666666667,1.03333333333333,834.418811041,835.419200875,9,834.485492875,834.551923,835.439978,836.4666765,1,1.00038983399998
115,41,3,categorization,0,kitchen,SHINEd_sun_ahpczsiumwwocjkv.tif,92,0.0666666666666667,0.0666666666666667,1.45,836.477137333,838.422695166,9,836.542043833,836.608835083,838.448653,839.892040083,1,1.94555783300007
115,42,3,categorization,0,kitchen,SHINEd_sun_ahdycvpopffkzzsu.tif,90,0.0666666666666667,0.0666666666666667,1.23333333333333,839.909992208,841.614420333,13,839.977189166,840.043995583,841.63005875,842.856779375,0,1.70442812500005
115,43,3,categorization,0,bathroom,SHINEd_sun_amzlamotzwfkwjco.tif,37,0.0666666666666667,0.0666666666666667,1.26666666666667,842.872725375,844.781505833,9,842.939294,843.006421833,844.792496583,846.052544041,0,1.90878045800002
115,44,3,categorization,0,bathroom,SHINEd_sun_aleqenyvunhactkl.tif,32,0.0666666666666667,0.0666666666666667,1.03333333333333,846.067486583,848.253666291,9,846.134486458,846.199971708,848.269786958,849.296505833,0,2.18617970799994
115,45,3,categorization,0,kitchen,SHINEd_sun_akcjzhbbjlbogpdi.tif,99,0.0666666666666667,0.0666666666666667,1.31666666666667,849.309235625,852.198171791,9,849.374264708,849.441068541,852.210664916,853.520713958,1,2.88893616600001
115,46,3,categorization,0,kitchen,SHINEd_sun_auticobqsbwgoppi.tif,104,0.0666666666666667,0.0666666666666667,1.7,853.538527625,855.454336083,9,853.605451791,853.671202333,855.474300166,857.167670166,1,1.91580845800001
115,47,3,categorization,0,kitchen,SHINEd_sun_abrcnpqqhmjwekyf.tif,73,0.0666666666666667,0.0666666666666667,1.35,857.178422041,858.519120041,13,857.245500291,857.311200083,858.536544708,859.879890208,0,1.34069799999997
115,48,3,categorization,0,bathroom,SHINEd_sun_alkosphxlxwjwgjd.tif,34,0.0666666666666667,0.0666666666666667,0.8,859.889881166,861.813472833,13,859.955188166,860.022567041,861.825343666,862.618682083,1,1.92359166699998
115,49,3,categorization,0,kitchen,SHINEd_labelme_rykdqxenmhulbdn.tif,63,0.0666666666666667,0.0666666666666667,0.766666666666667,862.624426791,864.830314833,13,862.686197083,862.747203958,864.849600208,865.609606833,0,2.20588804199997
115,50,3,categorization,0,bathroom,SHINEd_sun_acegryoqftbzowsg.tif,17,0.0666666666666667,0.0666666666666667,1.38333333333333,865.614993791,866.829541125,13,865.676807791,865.737737916,866.839775416,868.216478625,1,1.21454733400003
115,1,4,categorization,0,bathroom,SHINEd_sun_agrwbmhcpmfuwmsg.tif,24,0.0666666666666667,0.0666666666666667,1,919.69433775,920.621504458,13,919.756818208,919.817087666,920.6358375,921.629176291,1,0.927166707999959
115,2,4,categorization,0,kitchen,SHINEd_sun_aypmqwcualkenuoe.tif,109,0.0666666666666667,0.0666666666666667,0.966666666666667,921.634741375,922.589589166,13,921.696423458,921.757480791,922.609575291,923.569579458,0,0.95484779100002
115,3,4,categorization,0,kitchen,SHINEd_sun_ahywdevtimnqcsln.tif,94,0.0666666666666667,0.0666666666666667,1.75,923.574514583,924.910175375,9,923.636386083,923.697117791,924.916408333,926.659783125,1,1.335660792
115,4,4,categorization,0,bathroom,SHINEd_sun_apmqjbnwghzuhhzh.tif,46,0.0666666666666667,0.0666666666666667,1.68333333333333,926.677523791,927.461437791,13,926.744506708,926.810853541,927.484332708,929.161030375,1,0.783913999999982
115,5,4,categorization,0,bathroom,SHINEd_sun_atstyziqcmkahyxk.tif,51,0.0666666666666667,0.0666666666666667,1.58333333333333,929.175292083,930.266194583,13,929.240754291,929.3081765,930.2810365,931.857744458,1,1.09090249999997
115,6,4,categorization,0,kitchen,SHINEd_sun_aggjlwcdjsjcaemh.tif,86,0.0666666666666667,0.0666666666666667,1,931.877118291,933.26765675,9,931.9441705,932.0102775,933.285785791,934.279123416,1,1.39053845900003
115,7,4,categorization,0,kitchen,SHINEd_sun_aeqdocilnnpuvuhx.tif,83,0.0666666666666667,0.0666666666666667,1.33333333333333,934.284012583,935.52583525,9,934.34576525,934.407021625,935.542553791,936.869272916,1,1.24182266699995
115,8,4,categorization,0,kitchen,SHINEd_sun_agorklincwxrdtga.tif,87,0.0666666666666667,0.0666666666666667,1.26666666666667,936.885912,937.926880416,13,936.954024166,937.018698083,937.941210291,939.201254291,0,1.04096841600006
115,9,4,categorization,0,bathroom,SHINEd_sun_awnqiikzaispgmwo.tif,56,0.0666666666666667,0.0666666666666667,0.883333333333333,939.211882041,940.505738625,13,939.279628291,939.345143041,940.520109208,941.396781666,1,1.29385658400008
115,10,4,categorization,0,kitchen,SHINEd_sun_awcpdzzznmweyyhv.tif,106,0.0666666666666667,0.0666666666666667,1.26666666666667,941.401447458,942.589376791,9,941.463272083,941.524226625,942.593091625,943.853141291,1,1.18792933299994
115,11,4,categorization,0,bathroom,SHINEd_sun_aghyqhbptboemmoq.tif,23,0.0666666666666667,0.0666666666666667,2,943.87054175,945.280348833,13,943.937275666,944.003296541,945.313717625,947.307105708,1,1.40980708299992
115,12,4,categorization,0,bathroom,SHINEd_sun_ambriybtogmepttm.tif,36,0.0666666666666667,0.0666666666666667,0.733333333333333,947.323991125,949.428972375,13,947.39221725,947.456776,949.442926958,950.169599791,1,2.10498124999992
115,13,4,categorization,0,bathroom,SHINEd_sun_axxbkopsgyouuebh.tif,58,0.0666666666666667,0.0666666666666667,0.883333333333333,950.174782916,951.253347458,13,950.236598333,950.297792333,951.266646666,952.143318458,1,1.07856454199998
115,14,4,categorization,0,bathroom,SHINEd_sun_apkxzenqapsujocq.tif,45,0.0666666666666667,0.0666666666666667,0.983333333333333,952.148490625,953.805382583,13,952.210266416,952.2712675,953.823790375,954.80046075,1,1.65689195799996
115,15,4,categorization,0,bathroom,SHINEd_sun_apeeialkgkuxddgh.tif,42,0.0666666666666667,0.0666666666666667,1.56666666666667,954.805292333,955.733470375,13,954.866992625,954.928030125,955.746876291,957.306912208,1,0.928178042000013
115,16,4,categorization,0,kitchen,SHINEd_sun_aehawpgmrlhlvcow.tif,81,0.0666666666666667,0.0666666666666667,1.08333333333333,957.322862916,958.369243458,9,957.389599625,957.455687333,958.395613583,959.472312875,1,1.04638054200007
115,17,4,categorization,0,bathroom,SHINEd_sun_aggnnqpdorgxpvce.tif,21,0.0666666666666667,0.0666666666666667,0.75,959.482665,962.061092416,13,959.547330875,959.615376958,962.068392333,962.811730791,1,2.57842741599995
115,18,4,categorization,0,kitchen,SHINEd_sun_agubuxuukhzyzpdp.tif,88,0.0666666666666667,0.0666666666666667,0.966666666666667,962.816859625,965.181824083,13,962.878730416,962.939614708,965.192022666,966.152029041,0,2.36496445800003
115,19,4,categorization,0,kitchen,SHINEd_sun_agzzivivdpnawacl.tif,89,0.0666666666666667,0.0666666666666667,1.63333333333333,966.157726416,968.781637,13,966.219465291,966.280342541,968.799760958,970.426460708,0,2.6239105840001
115,20,4,categorization,0,kitchen,SHINEd_sun_abdxkyyxwfskuaqb.tif,70,0.0666666666666667,0.0666666666666667,1.46666666666667,970.445135458,971.486936333,9,970.511919166,970.578030583,971.500302083,972.960335708,1,1.04180087500004
115,21,4,categorization,0,kitchen,SHINEd_sun_admlmbcdswaszruo.tif,79,0.0666666666666667,0.0666666666666667,0.933333333333333,972.978102208,974.230395041,9,973.044465458,973.107521791,974.249412666,975.176083541,1,1.25229283299996
115,22,4,categorization,0,bathroom,SHINEd_sun_apjevzvycyhuqghb.tif,43,0.0666666666666667,0.0666666666666667,1.45,975.180882125,977.533646833,13,975.242530625,975.303495333,977.539267,978.98263775,1,2.352764708
115,23,4,categorization,0,kitchen,SHINEd_sun_acxkpeoqbwcxfvip.tif,77,0.0666666666666667,0.0666666666666667,0.966666666666667,978.999701916,980.416148,9,979.067501166,979.132474208,980.441713,981.401718,1,1.41644608399997
115,24,4,categorization,0,bathroom,SHINEd_sun_agyqfjcfkdcydepw.tif,25,0.0666666666666667,0.0666666666666667,0.816666666666667,981.407566041,983.63769925,9,981.469523,981.530283708,983.649483583,984.459489083,0,2.23013320899997
115,25,4,categorization,0,kitchen,SHINEd_sun_ajcbwwvdlsvjyzje.tif,96,0.0666666666666667,0.0666666666666667,1.96666666666667,984.464406416,986.661847791,13,984.526163708,984.587145916,986.673380416,988.633428958,0,2.19744137500004
115,26,4,categorization,0,bathroom,SHINEd_sun_aunuadmjocsddsrl.tif,52,0.0666666666666667,0.0666666666666667,0.916666666666667,988.65112725,989.877207583,13,988.71923325,988.784110625,989.886253166,990.796256833,1,1.22608033300003
115,27,4,categorization,0,kitchen,SHINEd_sun_aamedkxepzlwuxes.tif,65,0.0666666666666667,0.0666666666666667,1.28333333333333,990.800901666,991.9329355,9,990.862711166,990.92352475,991.942819875,993.21955275,1,1.13203383400003
115,28,4,categorization,0,kitchen,SHINEd_sun_acfmftudsenhrfhy.tif,74,0.0666666666666667,0.0666666666666667,1.8,993.229556166,995.004643916,9,993.296588666,993.362283208,995.035390625,996.828781333,1,1.77508775000001
115,29,4,categorization,0,kitchen,SHINEd_sun_auaiucuqpdausiva.tif,102,0.0666666666666667,0.0666666666666667,1.33333333333333,996.846405041,998.340882125,9,996.913101458,996.9795885,998.348868541,999.675571708,1,1.49447708399998
115,30,4,categorization,0,kitchen,SHINEd_sun_aqeaevwwwjoqhzvl.tif,101,0.0666666666666667,0.0666666666666667,1.06666666666667,999.693556833,1002.469218166,9,999.760513708,999.826396583,1002.479292833,1003.539339458,1,2.77566133300002
115,31,4,categorization,0,bathroom,SHINEd_sun_axyrejkiiaqiurjk.tif,59,0.0666666666666667,0.0666666666666667,1.03333333333333,1003.549480916,1004.750242333,13,1003.614680708,1003.680756416,1004.772317958,1005.799021583,1,1.20076141699997
115,32,4,categorization,0,kitchen,SHINEd_sun_aegoxogugdkwpmpj.tif,80,0.0666666666666667,0.0666666666666667,0.733333333333333,1005.811043458,1007.018108041,9,1005.876115791,1005.942761583,1007.033168666,1007.759876541,1,1.20706458300003
115,33,4,categorization,0,kitchen,SHINEd_sun_acwjdupvyjsugpay.tif,76,0.0666666666666667,0.0666666666666667,0.766666666666667,1007.775366666,1009.0288675,9,1007.842094166,1007.899743583,1009.035682333,1009.795688875,1,1.25350083400008
115,34,4,categorization,0,bathroom,SHINEd_sun_ajlawzvmubibwbpy.tif,30,0.0666666666666667,0.0666666666666667,1.1,1009.800815791,1011.196659666,9,1009.862723375,1009.923586333,1011.208978291,1012.302341583,0,1.39584387499997
115,35,4,categorization,0,kitchen,SHINEd_sun_azmutvzbxypaceni.tif,110,0.0666666666666667,0.0666666666666667,1.81666666666667,1012.313902541,1014.002267041,13,1012.378935916,1012.446660208,1014.022032125,1015.832081208,0,1.68836450000003
115,36,4,categorization,0,bathroom,SHINEd_sun_aclfzgynxzxlbepz.tif,19,0.0666666666666667,0.0666666666666667,0.883333333333333,1015.849988291,1018.373298375,13,1015.916733916,1015.982855166,1018.3853325,1019.262004625,1,2.52331008399995
115,37,4,categorization,0,bathroom,SHINEd_sun_afcoljnjfoxjtgja.tif,20,0.0666666666666667,0.0666666666666667,1.7,1019.266879541,1020.525061875,9,1019.328549875,1019.389651833,1020.542394583,1022.235757458,0,1.25818233400003
115,38,4,categorization,0,kitchen,SHINEd_sun_akchetnepxlcxhsu.tif,98,0.0666666666666667,0.0666666666666667,1.58333333333333,1022.252980958,1024.164648541,13,1022.319944416,1022.385548458,1024.171368875,1025.748083583,0,1.91166758299994
115,39,4,categorization,0,bathroom,SHINEd_sun_azqyogdvyhahyram.tif,60,0.0666666666666667,0.0666666666666667,0.833333333333333,1025.7659775,1027.079420208,13,1025.834290958,1025.899162916,1027.104608791,1027.931281791,1,1.31344270800014
115,40,4,categorization,0,bathroom,SHINEd_sun_auzqhkafidnkrwmo.tif,54,0.0666666666666667,0.0666666666666667,0.95,1027.936957166,1029.549046625,13,1027.99868775,1028.060056125,1029.562357291,1030.505696916,1,1.61208945900012
115,41,4,categorization,0,bathroom,SHINEd_sun_aspsyogrekjtfozg.tif,50,0.0666666666666667,0.0666666666666667,1.06666666666667,1030.510977791,1032.317477791,9,1030.572678458,1030.633696208,1032.336350208,1033.396380666,0,1.80650000000014
115,42,4,categorization,0,bathroom,SHINEd_sun_apkruvsevgegsdwp.tif,44,0.0666666666666667,0.0666666666666667,1.68333333333333,1033.40929075,1034.588654291,13,1033.473901375,1033.538416208,1034.614180583,1036.290887625,1,1.17936354099993
115,43,4,categorization,0,kitchen,SHINEd_sun_afuyedyxivkhecmu.tif,85,0.0666666666666667,0.0666666666666667,1.31666666666667,1036.309946208,1037.623150291,9,1036.376547,1036.442357041,1037.652117541,1038.962149458,1,1.31320408300007
115,44,4,categorization,0,bathroom,SHINEd_sun_aoybiabnpadelefl.tif,41,0.0666666666666667,0.0666666666666667,1.61666666666667,1038.9795445,1040.556321208,13,1039.045833541,1039.111287625,1040.586114083,1042.196164791,1,1.57677670800012
115,45,4,categorization,0,kitchen,SHINEd_sun_aadbddgrdsjugojn.tif,64,0.0666666666666667,0.0666666666666667,1.15,1042.214314666,1043.314860791,9,1042.281280708,1042.347256375,1043.337490041,1044.480871791,1,1.10054612499994
115,46,4,categorization,0,bathroom,SHINEd_sun_ahqjwnzgolcaoidx.tif,29,0.0666666666666667,0.0666666666666667,1.25,1044.491666041,1046.117004958,13,1044.557114083,1044.624671958,1046.132348916,1047.375714333,1,1.62533891700014
115,47,4,categorization,0,kitchen,SHINEd_sun_acgtpgfybqjmzeyw.tif,75,0.0666666666666667,0.0666666666666667,1.1,1047.394043125,1049.853367416,13,1047.461058583,1047.526911875,1049.862775458,1050.956151541,0,2.45932429100003
115,48,4,categorization,0,kitchen,SHINEd_sun_adgqasybjyktddhj.tif,78,0.0666666666666667,0.0666666666666667,0.9,1050.967133708,1052.361528708,9,1051.032580916,1051.098876916,1052.391729583,1053.285067958,1,1.39439500000003
115,49,4,categorization,0,kitchen,SHINEd_sun_aixorpehvfykdynp.tif,95,0.0666666666666667,0.0666666666666667,1.3,1053.290915083,1055.86941375,9,1053.352702166,1053.413669833,1055.882860916,1057.17623825,1,2.57849866699985
115,50,4,categorization,0,bathroom,SHINEd_sun_asfwthctfqerjvxr.tif,49,0.0666666666666667,0.0666666666666667,1.25,1057.194147041,1059.829459458,9,1057.260847041,1057.326822083,1059.84620325,1061.089579,0,2.63531241700002
115,1,5,categorization,0,kitchen,SHINEd_sun_akcjzhbbjlbogpdi.tif,99,0.0666666666666667,0.0666666666666667,1.7,1109.153854083,1110.932494166,9,1109.215814916,1109.276628958,1110.94572925,1112.639118333,1,1.77864008300003
115,2,5,categorization,0,bathroom,SHINEd_sun_anhioqovhscjqqwb.tif,38,0.0666666666666667,0.0666666666666667,1.81666666666667,1112.659413666,1114.564734,13,1112.726503583,1112.79251,1114.578258125,1116.388314916,1,1.90532033399995
115,3,5,categorization,0,kitchen,SHINEd_sun_aunzlwrbjumxhwdj.tif,103,0.0666666666666667,0.0666666666666667,1.23333333333333,1116.409838,1117.479000041,9,1116.476711625,1116.542721541,1117.499454,1118.726168208,1,1.06916204100003
115,4,5,categorization,0,bathroom,SHINEd_sun_azqyogdvyhahyram.tif,60,0.0666666666666667,0.0666666666666667,1.4,1118.743843875,1120.716472833,9,1118.810739625,1118.876989083,1120.729890791,1122.1232605,0,1.97262895799986
115,5,5,categorization,0,kitchen,SHINEd_sun_ahpczsiumwwocjkv.tif,92,0.0666666666666667,0.0666666666666667,1.03333333333333,1122.143939291,1123.689681583,13,1122.210569083,1122.276631333,1123.71843175,1124.745141791,0,1.54574229200011
115,6,5,categorization,0,kitchen,SHINEd_sun_abdxkyyxwfskuaqb.tif,70,0.0666666666666667,0.0666666666666667,1.38333333333333,1124.758602833,1126.286207083,9,1124.823513916,1124.890302583,1126.316269875,1127.692970333,1,1.52760424999997
115,7,5,categorization,0,kitchen,SHINEd_sun_agzzivivdpnawacl.tif,89,0.0666666666666667,0.0666666666666667,2,1127.710666625,1130.620746041,13,1127.777611333,1127.843501083,1130.63006525,1132.62344225,0,2.91007941600014
115,8,5,categorization,0,bathroom,SHINEd_sun_ausgutylgojavyoq.tif,53,0.0666666666666667,0.0666666666666667,1.85,1132.643366416,1133.685245666,13,1132.710277541,1132.776206416,1133.695620583,1135.538995791,1,1.04187924999997
115,9,5,categorization,0,kitchen,SHINEd_sun_aexklacwqwezaorf.tif,84,0.0666666666666667,0.0666666666666667,0.816666666666667,1135.557270291,1137.308539125,9,1135.623396833,1135.69064525,1137.326312208,1138.136316125,1,1.75126883400003
115,10,5,categorization,0,bathroom,SHINEd_sun_apjevzvycyhuqghb.tif,43,0.0666666666666667,0.0666666666666667,1.85,1138.141302833,1140.868592208,9,1138.203096875,1138.263949666,1140.883344125,1142.726712375,0,2.72728937500005
115,11,5,categorization,0,kitchen,SHINEd_labelme_kxvouciolcpqplr.tif,62,0.0666666666666667,0.0666666666666667,0.733333333333333,1142.745631833,1145.54841375,13,1142.8124295,1142.878583708,1145.564622833,1146.291295041,0,2.80278191699995
115,12,5,categorization,0,bathroom,SHINEd_sun_ahijqszoswveeyji.tif,28,0.0666666666666667,0.0666666666666667,0.716666666666667,1146.296983666,1147.860800375,9,1146.358775958,1146.419745625,1147.872292541,1148.582298,0,1.56381670900009
115,13,5,categorization,0,bathroom,SHINEd_sun_anryaplzeujmzfkd.tif,39,0.0666666666666667,0.0666666666666667,0.833333333333333,1148.586847916,1150.780408791,13,1148.648641916,1148.70974875,1150.795505791,1151.622178458,1,2.193560875
115,14,5,categorization,0,kitchen,SHINEd_sun_acgtpgfybqjmzeyw.tif,75,0.0666666666666667,0.0666666666666667,0.95,1151.627865958,1153.31677625,9,1151.689669291,1151.750648791,1153.336208208,1154.279546083,1,1.68891029199995
115,15,5,categorization,0,bathroom,SHINEd_sun_avhrdrntsqrjzccq.tif,55,0.0666666666666667,0.0666666666666667,1.96666666666667,1154.285112875,1156.245058833,9,1154.346902541,1154.407718583,1156.260284208,1158.220327416,0,1.95994595799993
115,16,5,categorization,0,kitchen,SHINEd_sun_aypmqwcualkenuoe.tif,109,0.0666666666666667,0.0666666666666667,1.86666666666667,1158.234076458,1160.52457675,13,1158.30092425,1158.366645583,1160.536039583,1162.396088541,0,2.29050029200016
115,17,5,categorization,0,bathroom,SHINEd_sun_aleqenyvunhactkl.tif,32,0.0666666666666667,0.0666666666666667,1.51666666666667,1162.413566041,1164.740026375,9,1162.481542333,1162.546316166,1164.748988333,1166.259026833,0,2.3264603340001
115,18,5,categorization,0,bathroom,SHINEd_sun_ahaulkltgpkeeemi.tif,26,0.0666666666666667,0.0666666666666667,1.3,1166.278120083,1167.230457125,13,1166.344795791,1166.411200166,1167.251047333,1168.544419166,1,0.952337041999954
115,19,5,categorization,0,bathroom,SHINEd_sun_acgyywnybuveqsro.tif,18,0.0666666666666667,0.0666666666666667,1.91666666666667,1168.562933708,1170.070698875,13,1168.629714458,1168.696093708,1170.088136458,1171.998185958,1,1.50776516700012
115,20,5,categorization,0,kitchen,SHINEd_sun_axyyrmzcupyhlivc.tif,107,0.0666666666666667,0.0666666666666667,1.23333333333333,1172.015872666,1173.580530083,9,1172.08276575,1172.1487455,1173.584579708,1174.811294458,1,1.56465741700003
115,21,5,categorization,0,kitchen,SHINEd_sun_aadbddgrdsjugojn.tif,64,0.0666666666666667,0.0666666666666667,0.866666666666667,1174.828000875,1176.294249208,9,1174.895134291,1174.961376833,1176.3203295,1177.180334,1,1.46624833300007
115,22,5,categorization,0,kitchen,SHINEd_sun_ajcbwwvdlsvjyzje.tif,96,0.0666666666666667,0.0666666666666667,0.8,1177.185335791,1178.380196291,13,1177.247170916,1177.308137208,1178.394197166,1179.187536208,0,1.1948605
115,23,5,categorization,0,kitchen,SHINEd_sun_auticobqsbwgoppi.tif,104,0.0666666666666667,0.0666666666666667,1.51666666666667,1179.192104125,1180.692638041,9,1179.25398475,1179.314848083,1180.70056975,1182.210609916,1,1.50053391599999
115,24,5,categorization,0,kitchen,SHINEd_sun_agorklincwxrdtga.tif,87,0.0666666666666667,0.0666666666666667,1.18333333333333,1182.228282875,1183.797255166,9,1182.295222333,1182.360985666,1183.813835875,1184.990520791,1,1.56897229099991
115,25,5,categorization,0,kitchen,SHINEd_labelme_rykdqxenmhulbdn.tif,63,0.0666666666666667,0.0666666666666667,1.6,1184.99956,1186.639457666,9,1185.066290666,1185.133338083,1186.658864083,1188.25223025,1,1.63989766600002
115,26,5,categorization,0,kitchen,SHINEd_sun_aarfiyshqohlwkmo.tif,67,0.0666666666666667,0.0666666666666667,1.56666666666667,1188.266479041,1189.852386291,9,1188.333281666,1188.399829416,1189.868815666,1191.428862708,1,1.58590724999999
115,27,5,categorization,0,bathroom,SHINEd_sun_agrwbmhcpmfuwmsg.tif,24,0.0666666666666667,0.0666666666666667,1.36666666666667,1191.446844916,1194.34874175,13,1191.513592333,1191.579515958,1194.365442041,1195.725482166,1,2.90189683400013
115,28,5,categorization,0,bathroom,SHINEd_sun_aggnnqpdorgxpvce.tif,21,0.0666666666666667,0.0666666666666667,1.53333333333333,1195.740794,1197.796391291,9,1195.807532375,1195.87370625,1197.809848,1199.336559625,0,2.05559729099991
115,29,5,categorization,0,bathroom,SHINEd_sun_alkosphxlxwjwgjd.tif,34,0.0666666666666667,0.0666666666666667,1.4,1199.354317708,1201.108582333,13,1199.420870125,1199.487140291,1201.12273875,1202.516125333,1,1.75426462499991
115,30,5,categorization,0,kitchen,SHINEd_sun_abdenxonkemggwsq.tif,69,0.0666666666666667,0.0666666666666667,1.06666666666667,1202.533760375,1203.71626675,13,1202.600956541,1202.666427125,1203.739631833,1204.799674291,0,1.182506375
115,31,5,categorization,0,kitchen,SHINEd_sun_abpwyqmlzafvklqo.tif,72,0.0666666666666667,0.0666666666666667,1.63333333333333,1204.814254333,1206.820283583,13,1204.880000333,1204.945610583,1206.831580958,1208.458291541,0,2.00602924999998
115,32,5,categorization,0,bathroom,SHINEd_sun_amzlamotzwfkwjco.tif,37,0.0666666666666667,0.0666666666666667,1.8,1208.477184125,1210.308230375,13,1208.544092,1208.60982975,1210.312442916,1212.105829583,1,1.8310462500001
115,33,5,categorization,0,bathroom,SHINEd_sun_aqrpegblszgcoujh.tif,48,0.0666666666666667,0.0666666666666667,1.53333333333333,1212.118698875,1213.692946166,13,1212.185413958,1212.252427125,1213.705109208,1215.231828666,1,1.57424729099989
115,34,5,categorization,0,bathroom,SHINEd_sun_aclfzgynxzxlbepz.tif,19,0.0666666666666667,0.0666666666666667,0.766666666666667,1215.246930375,1217.236459708,9,1215.313987375,1215.37954125,1217.248680041,1218.008684041,0,1.98952933300006
115,35,5,categorization,0,bathroom,SHINEd_sun_axxbkopsgyouuebh.tif,58,0.0666666666666667,0.0666666666666667,1.86666666666667,1218.013341166,1219.140935541,13,1218.075048625,1218.136149708,1219.154656791,1221.014690625,1,1.12759437500017
115,36,5,categorization,0,bathroom,SHINEd_sun_asfwthctfqerjvxr.tif,49,0.0666666666666667,0.0666666666666667,1.13333333333333,1221.032671625,1222.079580166,9,1221.100427,1221.163961708,1222.104073916,1223.230771,0,1.04690854099999
115,37,5,categorization,0,kitchen,SHINEd_sun_agubuxuukhzyzpdp.tif,88,0.0666666666666667,0.0666666666666667,1.73333333333333,1223.2417725,1224.693424958,9,1223.306592583,1223.374607208,1224.716968208,1226.443674541,1,1.4516524579999
115,38,5,categorization,0,bathroom,SHINEd_sun_aljolscmmzydegqp.tif,33,0.0666666666666667,0.0666666666666667,0.766666666666667,1226.460990666,1228.18891225,9,1226.528043083,1226.594009,1228.196746833,1228.95675275,0,1.72792158399989
115,39,5,categorization,0,bathroom,SHINEd_sun_ajlawzvmubibwbpy.tif,30,0.0666666666666667,0.0666666666666667,1.85,1228.962179375,1230.644861541,9,1229.0239465,1229.084953,1230.654098166,1232.497485625,0,1.68268216599995
115,40,5,categorization,0,bathroom,SHINEd_sun_auzqhkafidnkrwmo.tif,54,0.0666666666666667,0.0666666666666667,0.966666666666667,1232.515949083,1234.436070833,13,1232.582536041,1232.649027458,1234.451403833,1235.411409416,1,1.92012175000013
115,41,5,categorization,0,kitchen,SHINEd_sun_aegoxogugdkwpmpj.tif,80,0.0666666666666667,0.0666666666666667,1.06666666666667,1235.416356833,1236.596845083,9,1235.478117541,1235.539118833,1236.60819675,1237.66822975,1,1.18048825000005
115,42,5,categorization,0,kitchen,SHINEd_sun_azmutvzbxypaceni.tif,110,0.0666666666666667,0.0666666666666667,1.38333333333333,1237.678466375,1239.287570416,9,1237.744375166,1237.808777208,1239.319133166,1240.695831625,1,1.60910404100014
115,43,5,categorization,0,kitchen,SHINEd_sun_aqeaevwwwjoqhzvl.tif,101,0.0666666666666667,0.0666666666666667,0.766666666666667,1240.713587208,1242.142358625,9,1240.780845166,1240.846773708,1242.172841958,1242.932848458,1,1.42877141700001
115,44,5,categorization,0,bathroom,SHINEd_sun_apkxzenqapsujocq.tif,45,0.0666666666666667,0.0666666666666667,0.866666666666667,1242.939866,1243.804183208,13,1243.001580291,1243.062609541,1243.814725208,1244.674731208,1,0.864317208000102
115,45,5,categorization,0,bathroom,SHINEd_sun_aghyqhbptboemmoq.tif,23,0.0666666666666667,0.0666666666666667,1.25,1244.680456791,1245.884599958,13,1244.742239666,1244.803592708,1245.8893915,1247.132770875,1,1.20414316699998
115,46,5,categorization,0,bathroom,SHINEd_sun_apkruvsevgegsdwp.tif,44,0.0666666666666667,0.0666666666666667,1.03333333333333,1247.145518958,1248.416303791,13,1247.210646458,1247.278099166,1248.436960583,1249.46368,1,1.27078483300011
115,47,5,categorization,0,bathroom,SHINEd_sun_ahcvzmoyaycdoftf.tif,27,0.0666666666666667,0.0666666666666667,0.783333333333333,1249.474884333,1251.068903208,13,1249.539920458,1249.606549375,1251.097980083,1251.874652958,1,1.59401887499985
115,48,5,categorization,0,bathroom,SHINEd_sun_agguqiubmwhqqunb.tif,22,0.0666666666666667,0.0666666666666667,0.7,1251.88084,1253.428754166,9,1251.942724708,1252.003635416,1253.439254541,1254.132593041,0,1.54791416600006
115,49,5,categorization,0,bathroom,SHINEd_sun_ambriybtogmepttm.tif,36,0.0666666666666667,0.0666666666666667,1.75,1254.1396035,1255.836251708,9,1254.201414833,1254.262367416,1255.848022333,1257.591401791,0,1.69664820799994
115,50,5,categorization,0,kitchen,SHINEd_sun_acxkpeoqbwcxfvip.tif,77,0.0666666666666667,0.0666666666666667,1.36666666666667,1257.609053458,1259.579749708,9,1257.6756075,1257.742432083,1259.594690916,1260.954735791,1,1.97069624999995
115,1,6,categorization,0,kitchen,SHINEd_sun_ahywdevtimnqcsln.tif,94,0.0666666666666667,0.0666666666666667,0.966666666666667,1302.18503225,1308.54217075,9,1302.247692083,1302.308456291,1308.561338791,1309.521343333,1,6.35713850000002
115,2,6,categorization,0,bathroom,SHINEd_sun_apmqjbnwghzuhhzh.tif,46,0.0666666666666667,0.0666666666666667,1.73333333333333,1309.525868541,1310.643728375,13,1309.587796458,1309.648654125,1310.650396708,1312.377101125,1,1.117859834
115,3,6,categorization,0,bathroom,SHINEd_sun_axyrejkiiaqiurjk.tif,59,0.0666666666666667,0.0666666666666667,1.91666666666667,1312.394608416,1313.76628975,13,1312.461377375,1312.525185291,1313.778449416,1315.688488416,1,1.37168133399996
115,4,6,categorization,0,kitchen,SHINEd_sun_aenotlpyftoioydp.tif,82,0.0666666666666667,0.0666666666666667,0.766666666666667,1315.710078208,1316.743587666,9,1315.776781458,1315.842768208,1316.765523625,1317.5255285,1,1.03350945800003
115,5,6,categorization,0,bathroom,SHINEd_sun_aspsyogrekjtfozg.tif,50,0.0666666666666667,0.0666666666666667,0.916666666666667,1317.5303125,1318.876300583,9,1317.592075916,1317.653106125,1318.88876825,1319.798773541,0,1.34598808300007
115,6,6,categorization,0,bathroom,SHINEd_sun_acegryoqftbzowsg.tif,17,0.0666666666666667,0.0666666666666667,1.18333333333333,1319.806004333,1320.924071666,9,1319.867929833,1319.928763333,1320.930806416,1322.107506541,0,1.118067333
115,7,6,categorization,0,kitchen,SHINEd_sun_amjjdeyrggfqgmom.tif,100,0.0666666666666667,0.0666666666666667,1.8,1322.117037208,1323.254377125,9,1322.183878041,1322.250618333,1323.273592125,1325.066969708,1,1.13733991699996
115,8,6,categorization,0,kitchen,SHINEd_sun_abftihopvusyfakt.tif,71,0.0666666666666667,0.0666666666666667,0.883333333333333,1325.080831041,1326.827695666,9,1325.145737125,1325.210491083,1326.846347,1327.723017333,1,1.74686462499994
115,9,6,categorization,0,bathroom,SHINEd_sun_abjtwfukuwddzted.tif,15,0.0666666666666667,0.0666666666666667,1.83333333333333,1327.727964,1328.587506041,13,1327.789748833,1327.8507755,1328.603281333,1330.429982541,1,0.859542041000168
115,10,6,categorization,0,kitchen,SHINEd_sun_aapllqyqlykszopd.tif,66,0.0666666666666667,0.0666666666666667,1.76666666666667,1330.448065583,1331.481102875,9,1330.514871083,1330.581179416,1331.504416583,1333.264465875,1,1.03303729200002
115,11,6,categorization,0,kitchen,SHINEd_labelme_brsyyvweiuaazfr.tif,61,0.0666666666666667,0.0666666666666667,0.983333333333333,1333.282522875,1334.883627958,13,1333.349375541,1333.4153125,1334.900613,1335.877285666,0,1.60110508299999
115,12,6,categorization,0,kitchen,SHINEd_sun_acfmftudsenhrfhy.tif,74,0.0666666666666667,0.0666666666666667,0.883333333333333,1335.882950875,1336.891754333,9,1335.944625666,1336.005737666,1336.907815166,1337.784487,1,1.0088034580001
115,13,6,categorization,0,bathroom,SHINEd_sun_acduarbnmmoglmiv.tif,16,0.0666666666666667,0.0666666666666667,0.85,1337.789248208,1338.732061125,9,1337.850921125,1337.9120325,1338.74759475,1339.590932625,0,0.942812917000083
115,14,6,categorization,0,bathroom,SHINEd_sun_alotolagknyrgtsk.tif,35,0.0666666666666667,0.0666666666666667,0.733333333333333,1339.595857625,1340.51528975,9,1339.6576815,1339.718608625,1340.52061225,1341.247283958,0,0.919432124999958
115,15,6,categorization,0,bathroom,SHINEd_sun_aoybiabnpadelefl.tif,41,0.0666666666666667,0.0666666666666667,1.88333333333333,1341.25201875,1342.524390833,13,1341.313792166,1341.374880125,1342.54407825,1344.420791291,1,1.27237208300016
115,16,6,categorization,0,kitchen,SHINEd_sun_aamedkxepzlwuxes.tif,65,0.0666666666666667,0.0666666666666667,0.816666666666667,1344.438310458,1345.299682666,9,1344.505309958,1344.571517916,1345.328389875,1346.138394625,1,0.861372208000148
115,17,6,categorization,0,bathroom,SHINEd_sun_apynckhmoftszqoq.tif,47,0.0666666666666667,0.0666666666666667,1.9,1346.143983,1347.051920458,13,1346.20573925,1346.266708916,1347.069080541,1348.962451125,1,0.907937458000106
115,18,6,categorization,0,kitchen,SHINEd_sun_ajkqhtgcbgpcwrwn.tif,97,0.0666666666666667,0.0666666666666667,0.983333333333333,1348.980258,1350.715539416,9,1349.047033166,1349.111011208,1350.730533625,1351.707205083,1,1.73528141599991
115,19,6,categorization,0,bathroom,SHINEd_sun_aunuadmjocsddsrl.tif,52,0.0666666666666667,0.0666666666666667,0.75,1351.712106083,1352.8038835,9,1351.773855791,1351.834881791,1352.821458541,1353.564796916,0,1.091777417
115,20,6,categorization,0,kitchen,SHINEd_sun_aaxxjlsuzvqlgylf.tif,68,0.0666666666666667,0.0666666666666667,1.6,1353.569697208,1355.619836916,9,1353.631596583,1353.692580083,1355.628340958,1357.221724333,1,2.05013970799996
115,21,6,categorization,0,kitchen,SHINEd_sun_akchetnepxlcxhsu.tif,98,0.0666666666666667,0.0666666666666667,1.58333333333333,1357.231971958,1358.297666,13,1357.299588541,1357.365055791,1358.321543208,1359.898259875,0,1.0656940419999
115,22,6,categorization,0,kitchen,SHINEd_sun_ahdycvpopffkzzsu.tif,90,0.0666666666666667,0.0666666666666667,1.11666666666667,1359.915962375,1361.468778541,9,1359.983930333,1360.048739541,1361.484922916,1362.594969833,1,1.55281616599996
115,23,6,categorization,0,bathroom,SHINEd_sun_akiytfaagpdsphgz.tif,31,0.0666666666666667,0.0666666666666667,1.53333333333333,1362.607026833,1363.735630166,13,1362.671959791,1362.740186916,1363.764949125,1365.291667833,1,1.128603333
115,24,6,categorization,0,kitchen,SHINEd_sun_awcpdzzznmweyyhv.tif,106,0.0666666666666667,0.0666666666666667,1.48333333333333,1365.309976541,1367.131198,13,1365.376995125,1365.442487458,1367.144626375,1368.621342166,0,1.82122145900007
115,25,6,categorization,0,kitchen,SHINEd_sun_avszsnwsbuqfgzbn.tif,105,0.0666666666666667,0.0666666666666667,1.1,1368.635828583,1369.613970708,9,1368.70400325,1368.768346958,1369.641319375,1370.734708,1,0.978142124999977
115,26,6,categorization,0,bathroom,SHINEd_sun_abapwbhyhkfixyex.tif,14,0.0666666666666667,0.0666666666666667,0.933333333333333,1370.7470775,1372.217202583,9,1370.811827166,1370.879954541,1372.239406916,1373.166078416,0,1.47012508300008
115,27,6,categorization,0,kitchen,SHINEd_sun_acwjdupvyjsugpay.tif,76,0.0666666666666667,0.0666666666666667,0.816666666666667,1373.172426625,1374.668033,9,1373.234174625,1373.295073458,1374.68106,1375.49106475,1,1.49560637499985
115,28,6,categorization,0,bathroom,SHINEd_sun_agyqfjcfkdcydepw.tif,25,0.0666666666666667,0.0666666666666667,1.78333333333333,1375.495699875,1377.15551225,9,1375.557349625,1375.618456166,1377.170447041,1378.947149583,0,1.659812375
115,29,6,categorization,0,kitchen,SHINEd_sun_adgqasybjyktddhj.tif,78,0.0666666666666667,0.0666666666666667,0.766666666666667,1378.965992208,1381.523401625,9,1379.033199166,1379.095558708,1381.53121225,1382.291218,1,2.55740941699992
115,30,6,categorization,0,kitchen,SHINEd_sun_ahljzhgcdpomplvg.tif,91,0.0666666666666667,0.0666666666666667,1.45,1382.296859625,1384.14760325,13,1382.358598375,1382.41968875,1384.155244791,1385.598608958,0,1.85074362499995
115,31,6,categorization,0,bathroom,SHINEd_sun_aapitsgbtktqubfy.tif,12,0.0666666666666667,0.0666666666666667,0.75,1385.616389,1386.579312375,13,1385.6833525,1385.749055666,1386.605887875,1387.349226625,1,0.962923374999946
115,32,6,categorization,0,kitchen,SHINEd_sun_auaiucuqpdausiva.tif,102,0.0666666666666667,0.0666666666666667,1.36666666666667,1387.35592375,1388.731839541,13,1387.41777075,1387.478689791,1388.747806333,1390.10783875,0,1.3759157909999
115,33,6,categorization,0,kitchen,SHINEd_sun_admlmbcdswaszruo.tif,79,0.0666666666666667,0.0666666666666667,0.75,1390.126045916,1391.237763083,9,1390.19276825,1390.25896425,1391.264569125,1392.007908041,1,1.11171716699982
115,34,6,categorization,0,bathroom,SHINEd_sun_aofnryafpsjimzsb.tif,40,0.0666666666666667,0.0666666666666667,0.783333333333333,1392.013403166,1394.043329916,13,1392.075303333,1392.136211875,1394.055475916,1394.83214825,1,2.02992674999996
115,35,6,categorization,0,kitchen,SHINEd_sun_afuyedyxivkhecmu.tif,85,0.0666666666666667,0.0666666666666667,1.11666666666667,1394.839060583,1396.739067666,9,1394.900799333,1394.961819125,1396.747558791,1397.857597583,1,1.90000708299999
115,36,6,categorization,0,kitchen,SHINEd_sun_aymvwlarqodbwuoc.tif,108,0.0666666666666667,0.0666666666666667,0.766666666666667,1397.867907458,1400.100134041,9,1397.932955416,1398.000826625,1400.11995675,1400.879963041,1,2.23222658300006
115,37,6,categorization,0,bathroom,SHINEd_sun_awnqiikzaispgmwo.tif,56,0.0666666666666667,0.0666666666666667,0.716666666666667,1400.885646583,1401.90758675,13,1400.947464875,1401.008297208,1401.927234208,1402.63724075,1,1.02194016700014
115,38,6,categorization,0,kitchen,SHINEd_sun_aehawpgmrlhlvcow.tif,81,0.0666666666666667,0.0666666666666667,1.33333333333333,1402.642404375,1404.987786416,9,1402.704185583,1402.765145375,1405.000819458,1406.327533166,1,2.34538204099999
115,39,6,categorization,0,kitchen,SHINEd_sun_aggjlwcdjsjcaemh.tif,86,0.0666666666666667,0.0666666666666667,1.75,1406.345184208,1408.204112791,9,1406.411994666,1406.478159458,1408.214035916,1409.957400083,1,1.85892858299985
115,40,6,categorization,0,bathroom,SHINEd_sun_aavhrsfjbserjtht.tif,13,0.0666666666666667,0.0666666666666667,1.13333333333333,1409.975406208,1411.214617666,13,1410.042520541,1410.108685208,1411.2308895,1412.357588458,1,1.239211458
115,41,6,categorization,0,bathroom,SHINEd_sun_afcoljnjfoxjtgja.tif,20,0.0666666666666667,0.0666666666666667,1.63333333333333,1412.369377583,1413.864125916,13,1412.434675666,1412.501977125,1413.894199541,1415.520915583,1,1.49474833299996
115,42,6,categorization,0,kitchen,SHINEd_sun_aixorpehvfykdynp.tif,95,0.0666666666666667,0.0666666666666667,1.43333333333333,1415.538503333,1417.3712865,13,1415.605361875,1415.671274125,1417.390192625,1418.816895333,0,1.83278316699989
115,43,6,categorization,0,kitchen,SHINEd_sun_aeqdocilnnpuvuhx.tif,83,0.0666666666666667,0.0666666666666667,1.83333333333333,1418.834384375,1420.683520875,13,1418.901113875,1418.96705275,1420.702796791,1422.529515125,0,1.84913650000021
115,44,6,categorization,0,kitchen,SHINEd_sun_ahspylgoovwmwvgk.tif,93,0.0666666666666667,0.0666666666666667,1.93333333333333,1422.547002083,1423.467946291,9,1422.614131125,1422.679740916,1423.485875583,1425.412582541,1,0.920944208000037
115,45,6,categorization,0,bathroom,SHINEd_sun_axldvoqbuvuggfmq.tif,57,0.0666666666666667,0.0666666666666667,1.26666666666667,1425.432001583,1426.5308535,13,1425.498878041,1425.564765375,1426.55519,1427.815226583,1,1.09885191699982
115,46,6,categorization,0,kitchen,SHINEd_sun_abrcnpqqhmjwekyf.tif,73,0.0666666666666667,0.0666666666666667,1.86666666666667,1427.832983125,1429.206529125,9,1427.900044208,1427.965594958,1429.221196583,1431.081238791,1,1.37354600000003
115,47,6,categorization,0,bathroom,SHINEd_labelme_sfxiulhjbhlyiyt.tif,11,0.0666666666666667,0.0666666666666667,1.41666666666667,1431.094729875,1432.1279205,13,1431.160190083,1431.22538725,1432.14851,1433.558545,1,1.03319062500009
115,48,6,categorization,0,bathroom,SHINEd_sun_atstyziqcmkahyxk.tif,51,0.0666666666666667,0.0666666666666667,1.11666666666667,1433.576270708,1434.52097025,13,1433.6433425,1433.709319416,1434.54936725,1435.659410375,1,0.944699541999853
115,49,6,categorization,0,bathroom,SHINEd_sun_ahqjwnzgolcaoidx.tif,29,0.0666666666666667,0.0666666666666667,1.8,1435.671000041,1436.814303958,13,1435.736033708,1435.804317333,1436.846177333,1438.639544458,1,1.14330391699991
115,50,6,categorization,0,bathroom,SHINEd_sun_apeeialkgkuxddgh.tif,42,0.0666666666666667,0.0666666666666667,1.25,1438.658202125,1439.491351875,13,1438.724046666,1438.791027125,1439.514398041,1440.757769791,1,0.833149750000075
115,1,7,categorization,0,bathroom,SHINEd_sun_aljolscmmzydegqp.tif,33,0.0666666666666667,0.0666666666666667,0.883333333333333,1495.510088375,1496.803542708,13,1495.572618208,1495.632816083,1496.818493958,1497.695166625,1,1.293454333
115,2,7,categorization,0,bathroom,SHINEd_sun_axyrejkiiaqiurjk.tif,59,0.0666666666666667,0.0666666666666667,1.03333333333333,1497.6999595,1498.715567958,13,1497.761639916,1497.822896666,1498.72542575,1499.7521415,1,1.01560845800009
115,3,7,categorization,0,bathroom,SHINEd_sun_apkruvsevgegsdwp.tif,44,0.0666666666666667,0.0666666666666667,1.06666666666667,1499.760929583,1500.589953208,13,1499.825599291,1499.891614833,1500.612935375,1501.672977208,1,0.829023624999991
115,4,7,categorization,0,bathroom,SHINEd_sun_acgyywnybuveqsro.tif,18,0.0666666666666667,0.0666666666666667,0.833333333333333,1501.6898915,1502.514849375,13,1501.756185041,1501.814504041,1502.533147666,1503.359818458,1,0.824957875000109
115,5,7,categorization,0,bathroom,SHINEd_sun_apkxzenqapsujocq.tif,45,0.0666666666666667,0.0666666666666667,0.716666666666667,1503.364955041,1504.059496916,13,1503.42664825,1503.48771675,1504.072748916,1504.782755208,1,0.694541874999913
115,6,7,categorization,0,bathroom,SHINEd_sun_aclfzgynxzxlbepz.tif,19,0.0666666666666667,0.0666666666666667,0.733333333333333,1504.788273041,1505.52326375,13,1504.849965416,1504.910959083,1505.529623833,1506.256294125,1,0.734990709000158
115,7,7,categorization,0,bathroom,SHINEd_sun_aavhrsfjbserjtht.tif,13,0.0666666666666667,0.0666666666666667,1.38333333333333,1506.261833625,1507.179401416,13,1506.323403583,1506.384546375,1507.1863645,1508.563068333,1,0.91756779100001
115,8,7,categorization,0,kitchen,SHINEd_sun_afuyedyxivkhecmu.tif,85,0.0666666666666667,0.0666666666666667,0.9,1508.581318208,1509.986710708,13,1508.648115125,1508.713985291,1510.006481083,1510.899821416,0,1.40539249999983
115,9,7,categorization,0,bathroom,SHINEd_sun_ausgutylgojavyoq.tif,53,0.0666666666666667,0.0666666666666667,0.816666666666667,1510.90542625,1511.92277475,13,1510.967159916,1511.028342666,1511.930626541,1512.740633083,1,1.01734850000003
115,10,7,categorization,0,bathroom,SHINEd_sun_agguqiubmwhqqunb.tif,22,0.0666666666666667,0.0666666666666667,0.85,1512.746107625,1514.139061958,13,1512.807692666,1512.868949375,1514.154833333,1514.998172,1,1.39295433300003
115,11,7,categorization,0,kitchen,SHINEd_sun_aenotlpyftoioydp.tif,82,0.0666666666666667,0.0666666666666667,1.6,1515.004838541,1516.650805208,9,1515.066499666,1515.127689791,1516.663874833,1518.257259666,1,1.64596666700004
115,12,7,categorization,0,kitchen,SHINEd_sun_aegoxogugdkwpmpj.tif,80,0.0666666666666667,0.0666666666666667,1.75,1518.275320458,1520.554614958,13,1518.342347,1518.408465583,1520.561109958,1522.304484875,0,2.27929450000011
115,13,7,categorization,0,kitchen,SHINEd_sun_aexklacwqwezaorf.tif,84,0.0666666666666667,0.0666666666666667,1.1,1522.324140541,1523.645384958,9,1522.39083675,1522.456857291,1523.666125,1524.759494083,1,1.32124441700012
115,14,7,categorization,0,kitchen,SHINEd_sun_ahdycvpopffkzzsu.tif,90,0.0666666666666667,0.0666666666666667,1.46666666666667,1524.773215291,1526.263229875,9,1524.838095916,1524.90575875,1526.280708291,1527.7407525,1,1.49001458399994
115,15,7,categorization,0,kitchen,SHINEd_sun_ahspylgoovwmwvgk.tif,93,0.0666666666666667,0.0666666666666667,1.25,1527.758076666,1528.939516458,9,1527.825058083,1527.890688375,1528.96429125,1530.207658833,1,1.18143979199999
115,16,7,categorization,0,kitchen,SHINEd_sun_ahpczsiumwwocjkv.tif,92,0.0666666666666667,0.0666666666666667,1.13333333333333,1530.224465166,1533.338546916,13,1530.291993708,1530.357667125,1533.343370916,1534.470084083,0,3.11408174999997
115,17,7,categorization,0,bathroom,SHINEd_sun_anhioqovhscjqqwb.tif,38,0.0666666666666667,0.0666666666666667,1.33333333333333,1534.479639625,1535.342792916,13,1534.544652625,1534.612494,1535.369163958,1536.69586425,1,0.863153291000117
115,18,7,categorization,0,kitchen,SHINEd_sun_akchetnepxlcxhsu.tif,98,0.0666666666666667,0.0666666666666667,1.86666666666667,1536.713464666,1537.642598291,13,1536.780564333,1536.846739333,1537.670271375,1539.530317541,0,0.929133625000077
115,19,7,categorization,0,kitchen,SHINEd_sun_abdxkyyxwfskuaqb.tif,70,0.0666666666666667,0.0666666666666667,1.58333333333333,1539.545407416,1541.939447041,13,1539.612462916,1539.678151541,1541.947667875,1543.524379458,0,2.394039625
115,20,7,categorization,0,kitchen,SHINEd_sun_agubuxuukhzyzpdp.tif,88,0.0666666666666667,0.0666666666666667,1.05,1543.540129041,1544.869288791,9,1543.608142333,1543.672967625,1544.899231916,1545.942596416,1,1.32915974999992
115,21,7,categorization,0,kitchen,SHINEd_sun_abrcnpqqhmjwekyf.tif,73,0.0666666666666667,0.0666666666666667,0.9,1545.956461166,1547.149070625,9,1546.021504583,1546.088105375,1547.177122833,1548.070461875,1,1.19260945899987
115,22,7,categorization,0,kitchen,SHINEd_sun_aarfiyshqohlwkmo.tif,67,0.0666666666666667,0.0666666666666667,0.7,1548.076332208,1549.842970916,9,1548.138207041,1548.1992215,1549.851819125,1550.545158583,1,1.76663870800007
115,23,7,categorization,0,bathroom,SHINEd_sun_asfwthctfqerjvxr.tif,49,0.0666666666666667,0.0666666666666667,0.933333333333333,1550.549986833,1551.922635166,13,1550.611795916,1550.672838875,1551.941895416,1552.868566416,1,1.37264833299992
115,24,7,categorization,0,bathroom,SHINEd_labelme_sfxiulhjbhlyiyt.tif,11,0.0666666666666667,0.0666666666666667,1.95,1552.874068375,1553.835501541,13,1552.935906041,1552.9967645,1553.848989583,1555.7923585,1,0.961433166000006
115,25,7,categorization,0,bathroom,SHINEd_sun_afcoljnjfoxjtgja.tif,20,0.0666666666666667,0.0666666666666667,1.06666666666667,1555.809682833,1557.435139125,9,1555.876052666,1555.942803125,1557.445135791,1558.505171833,0,1.62545629200008
115,26,7,categorization,0,bathroom,SHINEd_sun_aleqenyvunhactkl.tif,32,0.0666666666666667,0.0666666666666667,1.2,1558.516074666,1559.844801958,13,1558.580680458,1558.646106041,1559.872341125,1561.06571825,1,1.32872729200017
115,27,7,categorization,0,kitchen,SHINEd_sun_abpwyqmlzafvklqo.tif,72,0.0666666666666667,0.0666666666666667,0.75,1561.076179083,1562.263739708,9,1561.140713291,1561.20603125,1562.278630416,1563.021968875,1,1.18756062500006
115,28,7,categorization,0,kitchen,SHINEd_sun_ahywdevtimnqcsln.tif,94,0.0666666666666667,0.0666666666666667,0.816666666666667,1563.027511458,1564.818536208,9,1563.089263541,1563.150216583,1564.836311625,1565.646316791,1,1.79102475000013
115,29,7,categorization,0,bathroom,SHINEd_sun_aqrpegblszgcoujh.tif,48,0.0666666666666667,0.0666666666666667,1.96666666666667,1565.651813333,1567.146859416,13,1565.713619041,1565.774559833,1567.160225708,1569.120260833,1,1.49504608300003
115,30,7,categorization,0,bathroom,SHINEd_sun_auzqhkafidnkrwmo.tif,54,0.0666666666666667,0.0666666666666667,1.2,1569.130997791,1570.110542833,13,1569.199215541,1569.263775416,1570.13558475,1571.32893175,1,0.979545041999927
115,31,7,categorization,0,bathroom,SHINEd_sun_aunuadmjocsddsrl.tif,52,0.0666666666666667,0.0666666666666667,0.883333333333333,1571.33806375,1572.821381666,13,1571.40495375,1571.470838083,1572.847109416,1573.723782375,1,1.48331791600003
115,32,7,categorization,0,bathroom,SHINEd_sun_avhrdrntsqrjzccq.tif,55,0.0666666666666667,0.0666666666666667,1.33333333333333,1573.729461291,1575.810533958,9,1573.791290208,1573.852341833,1575.821614,1577.1483115,0,2.08107266699994
115,33,7,categorization,0,kitchen,SHINEd_sun_aeqdocilnnpuvuhx.tif,83,0.0666666666666667,0.0666666666666667,1.45,1577.158276875,1579.114686375,9,1577.223260125,1577.291210166,1579.12681275,1580.570179791,1,1.95640950000006
115,34,7,categorization,0,bathroom,SHINEd_sun_acegryoqftbzowsg.tif,17,0.0666666666666667,0.0666666666666667,1.15,1580.590405583,1582.125837166,13,1580.65722975,1580.723146833,1582.148711458,1583.292095458,1,1.53543158300022
115,35,7,categorization,0,bathroom,SHINEd_sun_apjevzvycyhuqghb.tif,43,0.0666666666666667,0.0666666666666667,0.966666666666667,1583.3026345,1584.663666625,9,1583.367704916,1583.43611475,1584.69520375,1585.655209333,0,1.36103212499984
115,36,7,categorization,0,kitchen,SHINEd_sun_abftihopvusyfakt.tif,71,0.0666666666666667,0.0666666666666667,1.45,1585.660851791,1586.834802916,9,1585.722646291,1585.78359925,1586.852502166,1588.295890833,1,1.17395112500003
115,37,7,categorization,0,bathroom,SHINEd_sun_aghyqhbptboemmoq.tif,23,0.0666666666666667,0.0666666666666667,0.8,1588.312813041,1589.165427875,13,1588.379957166,1588.445571875,1589.184237833,1589.977579291,1,0.852614833999951
115,38,7,categorization,0,bathroom,SHINEd_sun_agrwbmhcpmfuwmsg.tif,24,0.0666666666666667,0.0666666666666667,1.45,1589.983489583,1591.514539375,13,1590.045163208,1590.106227333,1591.525205833,1592.968587458,1,1.53104979199998
115,39,7,categorization,0,bathroom,SHINEd_sun_axxbkopsgyouuebh.tif,58,0.0666666666666667,0.0666666666666667,1.1,1592.986871125,1593.965866208,13,1593.053676541,1593.117570333,1593.990582125,1595.083955458,1,0.978995082999973
115,40,7,categorization,0,kitchen,SHINEd_labelme_brsyyvweiuaazfr.tif,61,0.0666666666666667,0.0666666666666667,1.16666666666667,1595.094115125,1596.050486833,9,1595.158815833,1595.22518475,1596.063693458,1597.223740958,1,0.956371708000006
115,41,7,categorization,0,bathroom,SHINEd_sun_abapwbhyhkfixyex.tif,14,0.0666666666666667,0.0666666666666667,1.31666666666667,1597.233409875,1599.362429166,9,1597.300194125,1597.366795,1599.369435541,1600.6794775,0,2.12901929100008
115,42,7,categorization,0,kitchen,SHINEd_sun_acwjdupvyjsugpay.tif,76,0.0666666666666667,0.0666666666666667,1.68333333333333,1600.696178333,1602.390740958,9,1600.764235083,1600.829081708,1602.422052333,1604.098755916,1,1.69456262499989
115,43,7,categorization,0,bathroom,SHINEd_sun_ambriybtogmepttm.tif,36,0.0666666666666667,0.0666666666666667,0.966666666666667,1604.116390333,1605.738560666,13,1604.183311916,1604.249245666,1605.751612666,1606.71161875,1,1.62217033299999
115,44,7,categorization,0,bathroom,SHINEd_sun_ahaulkltgpkeeemi.tif,26,0.0666666666666667,0.0666666666666667,1.4,1606.717124208,1607.770574208,13,1606.778871,1606.839838291,1607.77572125,1609.169087125,1,1.05344999999988
115,45,7,categorization,0,kitchen,SHINEd_sun_auaiucuqpdausiva.tif,102,0.0666666666666667,0.0666666666666667,0.783333333333333,1609.186571791,1610.462428708,9,1609.254508166,1609.319531333,1610.495786458,1611.272458541,1,1.27585691700006
115,46,7,categorization,0,bathroom,SHINEd_sun_apeeialkgkuxddgh.tif,42,0.0666666666666667,0.0666666666666667,1.08333333333333,1611.277223791,1612.291282791,13,1611.339029875,1611.399992291,1612.302407666,1613.379119208,1,1.01405899999986
115,47,7,categorization,0,kitchen,SHINEd_sun_awcpdzzznmweyyhv.tif,106,0.0666666666666667,0.0666666666666667,1.43333333333333,1613.388108833,1615.498618916,9,1613.453091958,1613.519521458,1615.505884291,1616.932584375,1,2.11051008300001
115,48,7,categorization,0,bathroom,SHINEd_sun_axldvoqbuvuggfmq.tif,57,0.0666666666666667,0.0666666666666667,1.75,1616.949526125,1617.9189905,13,1617.016308583,1617.078094541,1617.933942333,1619.677326625,1,0.969464375000143
115,49,7,categorization,0,kitchen,SHINEd_sun_aypmqwcualkenuoe.tif,109,0.0666666666666667,0.0666666666666667,1.21666666666667,1619.695578625,1621.036020625,9,1619.762327,1619.828473791,1621.047774708,1622.25780625,1,1.34044199999994
115,50,7,categorization,0,bathroom,SHINEd_sun_atstyziqcmkahyxk.tif,51,0.0666666666666667,0.0666666666666667,1.31666666666667,1622.275369125,1623.13428375,13,1622.342095875,1622.408020208,1623.145759541,1624.455813666,1,0.858914624999898
115,1,8,categorization,0,kitchen,SHINEd_sun_aehawpgmrlhlvcow.tif,81,0.0666666666666667,0.0666666666666667,1.18333333333333,1674.021933083,1675.970116083,13,1674.0843455,1674.144784208,1675.98038775,1677.157096875,0,1.94818299999997
115,2,8,categorization,0,kitchen,SHINEd_sun_aamedkxepzlwuxes.tif,65,0.0666666666666667,0.0666666666666667,0.983333333333333,1677.167333583,1678.423244208,9,1677.232823166,1677.300014,1678.439115833,1679.415789541,1,1.25591062499984
115,3,8,categorization,0,kitchen,SHINEd_sun_aadbddgrdsjugojn.tif,64,0.0666666666666667,0.0666666666666667,1.65,1679.420745916,1682.18678125,9,1679.482558083,1679.543496916,1682.19587975,1683.839262583,1,2.76603533399998
115,4,8,categorization,0,kitchen,SHINEd_sun_abdenxonkemggwsq.tif,69,0.0666666666666667,0.0666666666666667,1.23333333333333,1683.858100333,1684.90126925,13,1683.924846625,1683.99086225,1684.91248475,1686.139197916,0,1.043168917
115,5,8,categorization,0,kitchen,SHINEd_sun_aixorpehvfykdynp.tif,95,0.0666666666666667,0.0666666666666667,0.916666666666667,1686.155468166,1687.629637458,13,1686.222353708,1686.288235416,1687.646345875,1688.556351666,0,1.47416929199994
115,6,8,categorization,0,kitchen,SHINEd_sun_aqeaevwwwjoqhzvl.tif,101,0.0666666666666667,0.0666666666666667,1.56666666666667,1688.561823833,1691.106352916,9,1688.623638708,1688.68471125,1691.120233208,1692.680283458,1,2.54452908300004
115,7,8,categorization,0,kitchen,SHINEd_labelme_kxvouciolcpqplr.tif,62,0.0666666666666667,0.0666666666666667,1.63333333333333,1692.697623125,1693.540800208,13,1692.765827666,1692.830749541,1693.5706495,1695.197337541,0,0.843177083
115,8,8,categorization,0,bathroom,SHINEd_sun_amzlamotzwfkwjco.tif,37,0.0666666666666667,0.0666666666666667,1.1,1695.208027625,1696.199680416,13,1695.27466625,1695.340863583,1696.212836125,1697.306203333,1,0.991652790999979
115,9,8,categorization,0,kitchen,SHINEd_sun_ajcbwwvdlsvjyzje.tif,96,0.0666666666666667,0.0666666666666667,1.38333333333333,1697.316404333,1699.634053708,9,1697.381365041,1697.449121125,1699.651511041,1701.028221666,1,2.31764937499997
115,10,8,categorization,0,bathroom,SHINEd_sun_ahcvzmoyaycdoftf.tif,27,0.0666666666666667,0.0666666666666667,0.766666666666667,1701.045883416,1701.903689208,13,1701.1109785,1701.178699333,1701.917630833,1702.677670166,1,0.857805792000136
115,11,8,categorization,0,bathroom,SHINEd_sun_ahqjwnzgolcaoidx.tif,29,0.0666666666666667,0.0666666666666667,1.45,1702.685104,1703.617904166,13,1702.747606291,1702.807904833,1703.626686916,1705.070075625,1,0.932800166000106
115,12,8,categorization,0,kitchen,SHINEd_sun_azmutvzbxypaceni.tif,110,0.0666666666666667,0.0666666666666667,0.983333333333333,1705.082532458,1706.978685125,13,1705.147191208,1705.209570875,1706.995760041,1707.972432166,0,1.89615266700002
115,13,8,categorization,0,kitchen,SHINEd_sun_auticobqsbwgoppi.tif,104,0.0666666666666667,0.0666666666666667,0.716666666666667,1707.977377625,1709.490555958,9,1708.03915125,1708.100204375,1709.502608416,1710.212614041,1,1.51317833300004
115,14,8,categorization,0,bathroom,SHINEd_sun_abjtwfukuwddzted.tif,15,0.0666666666666667,0.0666666666666667,1.41666666666667,1710.2172465,1711.337722625,13,1710.279065625,1710.340110583,1711.341712958,1712.751769416,1,1.12047612499987
115,15,8,categorization,0,kitchen,SHINEd_sun_admlmbcdswaszruo.tif,79,0.0666666666666667,0.0666666666666667,1.21666666666667,1712.764669791,1714.228730125,9,1712.832783708,1712.897158958,1714.255887791,1715.465922208,1,1.46406033400012
115,16,8,categorization,0,bathroom,SHINEd_sun_acduarbnmmoglmiv.tif,16,0.0666666666666667,0.0666666666666667,1.61666666666667,1715.483459916,1716.89177925,13,1715.551480625,1715.616349375,1716.908109625,1718.5181565,1,1.408319334
115,17,8,categorization,0,bathroom,SHINEd_sun_aapitsgbtktqubfy.tif,12,0.0666666666666667,0.0666666666666667,0.783333333333333,1718.53567225,1719.567265333,13,1718.601727458,1718.66870825,1719.591938041,1720.368609625,1,1.03159308299996
115,18,8,categorization,0,bathroom,SHINEd_sun_akiytfaagpdsphgz.tif,31,0.0666666666666667,0.0666666666666667,1.98333333333333,1720.373872416,1721.426503875,13,1720.435640416,1720.496697708,1721.431997708,1723.40870625,1,1.05263145899994
115,19,8,categorization,0,kitchen,SHINEd_sun_ajkqhtgcbgpcwrwn.tif,97,0.0666666666666667,0.0666666666666667,0.983333333333333,1723.425986958,1724.375026958,9,1723.492406333,1723.5586975,1724.3992285,1725.375901208,1,0.949039999999968
115,20,8,categorization,0,kitchen,SHINEd_sun_akcjzhbbjlbogpdi.tif,99,0.0666666666666667,0.0666666666666667,0.8,1725.381034333,1726.610375541,9,1725.442815333,1725.503774916,1726.623043,1727.416382,1,1.22934120800005
115,21,8,categorization,0,kitchen,SHINEd_sun_avszsnwsbuqfgzbn.tif,105,0.0666666666666667,0.0666666666666667,0.733333333333333,1727.421093833,1728.754070541,9,1727.482877416,1727.543851375,1728.763041541,1729.489713583,1,1.33297670799993
115,22,8,categorization,0,bathroom,SHINEd_sun_apynckhmoftszqoq.tif,47,0.0666666666666667,0.0666666666666667,0.966666666666667,1729.4947825,1730.466511125,13,1729.556568375,1729.617450458,1730.486046708,1731.446052125,1,0.971728624999969
115,23,8,categorization,0,bathroom,SHINEd_sun_alkosphxlxwjwgjd.tif,34,0.0666666666666667,0.0666666666666667,0.866666666666667,1731.451144375,1733.1460825,13,1731.5128755,1731.5738255,1733.15929025,1734.019297125,1,1.69493812499991
115,24,8,categorization,0,kitchen,SHINEd_sun_ahljzhgcdpomplvg.tif,91,0.0666666666666667,0.0666666666666667,1.23333333333333,1734.024780125,1735.009734166,9,1734.086475666,1734.14759775,1735.016535125,1736.243251041,1,0.984954041000037
115,25,8,categorization,0,kitchen,SHINEd_sun_adgqasybjyktddhj.tif,78,0.0666666666666667,0.0666666666666667,1.9,1736.262252041,1738.930291083,9,1736.329013666,1736.395167083,1738.94800175,1740.841377708,1,2.66803904199992
115,26,8,categorization,0,kitchen,SHINEd_sun_agzzivivdpnawacl.tif,89,0.0666666666666667,0.0666666666666667,0.866666666666667,1740.860419541,1742.578545166,13,1740.927496333,1740.993303583,1742.595873083,1743.455877875,0,1.71812562499986
115,27,8,categorization,0,kitchen,SHINEd_labelme_rykdqxenmhulbdn.tif,63,0.0666666666666667,0.0666666666666667,0.966666666666667,1743.46116025,1746.066713583,9,1743.523184291,1743.583990833,1746.086659791,1747.04666575,1,2.60555333299999
115,28,8,categorization,0,kitchen,SHINEd_sun_agorklincwxrdtga.tif,87,0.0666666666666667,0.0666666666666667,0.916666666666667,1747.054315666,1748.530342375,9,1747.116000416,1747.177002166,1748.546062083,1749.456066458,1,1.47602670899983
115,29,8,categorization,0,kitchen,SHINEd_sun_axyyrmzcupyhlivc.tif,107,0.0666666666666667,0.0666666666666667,0.916666666666667,1749.460949375,1751.841908916,9,1749.522748375,1749.583691458,1751.852882208,1752.762886875,1,2.38095954100004
115,30,8,categorization,0,kitchen,SHINEd_sun_aunzlwrbjumxhwdj.tif,103,0.0666666666666667,0.0666666666666667,1.4,1752.76830125,1754.322137875,9,1752.830035416,1752.891055125,1754.326889583,1755.720255916,1,1.55383662500003
115,31,8,categorization,0,bathroom,SHINEd_sun_awnqiikzaispgmwo.tif,56,0.0666666666666667,0.0666666666666667,1.75,1755.7395445,1758.042420875,9,1755.80635525,1755.872304875,1758.058369,1759.801759458,0,2.3028763750001
115,32,8,categorization,0,kitchen,SHINEd_sun_acfmftudsenhrfhy.tif,74,0.0666666666666667,0.0666666666666667,1.25,1759.818833708,1761.386524791,9,1759.885253708,1759.953113208,1761.405428666,1762.648821041,1,1.567691083
115,33,8,categorization,0,bathroom,SHINEd_sun_ajlawzvmubibwbpy.tif,30,0.0666666666666667,0.0666666666666667,1.05,1762.665812666,1764.76991525,9,1762.733901333,1762.798469166,1764.784377375,1765.827756583,0,2.10410258399997
115,34,8,categorization,0,bathroom,SHINEd_sun_apmqjbnwghzuhhzh.tif,46,0.0666666666666667,0.0666666666666667,1.06666666666667,1765.838523125,1766.877369333,13,1765.903884041,1765.969453583,1766.891972875,1767.952013541,1,1.038846208
115,35,8,categorization,0,bathroom,SHINEd_sun_anryaplzeujmzfkd.tif,39,0.0666666666666667,0.0666666666666667,1.21666666666667,1767.961030208,1769.246032291,13,1768.025821541,1768.095065166,1769.269825583,1770.479878125,1,1.28500208299988
115,36,8,categorization,0,bathroom,SHINEd_sun_azqyogdvyhahyram.tif,60,0.0666666666666667,0.0666666666666667,0.95,1770.494983,1771.5803195,13,1770.563264625,1770.627862958,1771.600932625,1772.544270458,1,1.08533650000004
115,37,8,categorization,0,kitchen,SHINEd_sun_aaxxjlsuzvqlgylf.tif,68,0.0666666666666667,0.0666666666666667,0.9,1772.549012541,1774.138239875,9,1772.610721208,1772.67172,1774.157555916,1775.050894791,1,1.58922733400004
115,38,8,categorization,0,bathroom,SHINEd_sun_aoybiabnpadelefl.tif,41,0.0666666666666667,0.0666666666666667,1.78333333333333,1775.055896375,1777.210380875,9,1775.117615083,1775.178654583,1777.214187625,1778.990886791,0,2.15448450000008
115,39,8,categorization,0,bathroom,SHINEd_sun_aofnryafpsjimzsb.tif,40,0.0666666666666667,0.0666666666666667,1.16666666666667,1779.007884375,1781.218374208,13,1779.074461333,1779.140293708,1781.225713041,1782.385763541,1,2.21048983299988
115,40,8,categorization,0,bathroom,SHINEd_sun_alotolagknyrgtsk.tif,35,0.0666666666666667,0.0666666666666667,0.783333333333333,1782.394971666,1783.81945225,9,1782.462084666,1782.527791333,1783.83602275,1784.612695041,0,1.42448058400009
115,41,8,categorization,0,kitchen,SHINEd_sun_aymvwlarqodbwuoc.tif,108,0.0666666666666667,0.0666666666666667,1.23333333333333,1784.618005083,1787.737694791,13,1784.679809625,1784.740768666,1787.743195333,1788.969916541,0,3.1196897079999
115,42,8,categorization,0,bathroom,SHINEd_sun_aspsyogrekjtfozg.tif,50,0.0666666666666667,0.0666666666666667,0.9,1788.9865335,1791.585809208,9,1789.054671708,1789.118259333,1791.60418375,1792.49752125,0,2.59927570800005
115,43,8,categorization,0,bathroom,SHINEd_sun_ahijqszoswveeyji.tif,28,0.0666666666666667,0.0666666666666667,0.7,1792.503665375,1793.609612583,13,1792.56551125,1792.626417166,1793.628484,1794.3218215,1,1.10594720799986
115,44,8,categorization,0,kitchen,SHINEd_sun_amjjdeyrggfqgmom.tif,100,0.0666666666666667,0.0666666666666667,1.23333333333333,1794.327131333,1795.433561875,9,1794.388845041,1794.449882166,1795.451753208,1796.678456,1,1.106430542
115,45,8,categorization,0,kitchen,SHINEd_sun_aapllqyqlykszopd.tif,66,0.0666666666666667,0.0666666666666667,1,1796.694609541,1798.373486875,9,1796.761460291,1796.82745775,1798.403294083,1799.396631333,1,1.67887733399994
115,46,8,categorization,0,kitchen,SHINEd_sun_acgtpgfybqjmzeyw.tif,75,0.0666666666666667,0.0666666666666667,1.38333333333333,1799.403607708,1800.9220885,13,1799.465354916,1799.526311,1800.929033833,1802.305746458,0,1.51848079199999
115,47,8,categorization,0,bathroom,SHINEd_sun_agyqfjcfkdcydepw.tif,25,0.0666666666666667,0.0666666666666667,1.3,1802.323757791,1804.162174416,9,1802.390380708,1802.456531625,1804.175943666,1805.469328083,0,1.83841662500004
115,48,8,categorization,0,kitchen,SHINEd_sun_aggjlwcdjsjcaemh.tif,86,0.0666666666666667,0.0666666666666667,0.833333333333333,1805.490675791,1807.786157875,13,1805.557432625,1805.62341875,1807.793393833,1808.620064916,0,2.29548208400001
115,49,8,categorization,0,bathroom,SHINEd_sun_aggnnqpdorgxpvce.tif,21,0.0666666666666667,0.0666666666666667,0.95,1808.624919416,1810.265466,9,1808.686748041,1808.747683916,1810.283293666,1811.226633,0,1.64054658400005
115,50,8,categorization,0,kitchen,SHINEd_sun_acxkpeoqbwcxfvip.tif,77,0.0666666666666667,0.0666666666666667,1.43333333333333,1811.231399416,1813.170233041,13,1811.293038666,1811.354136041,1813.189699583,1814.6164175,0,1.93883362500014
115,1,9,categorization,0,bathroom,SHINEd_sun_axyrejkiiaqiurjk.tif,59,0.0666666666666667,0.0666666666666667,1.08333333333333,1864.145338083,1865.401358916,13,1864.207876166,1864.268226166,1865.420917833,1866.497616916,1,1.25602083299987
115,2,9,categorization,0,kitchen,SHINEd_sun_aamedkxepzlwuxes.tif,65,0.0666666666666667,0.0666666666666667,0.8,1866.5082775,1867.407638958,13,1866.573318583,1866.641005708,1867.4311,1868.224488583,0,0.89936145799993
115,3,9,categorization,0,bathroom,SHINEd_sun_aspsyogrekjtfozg.tif,50,0.0666666666666667,0.0666666666666667,0.833333333333333,1868.240458375,1869.098248666,13,1868.306783375,1868.369049,1869.10419975,1869.930872666,1,0.857790291000128
115,4,9,categorization,0,kitchen,SHINEd_sun_ajkqhtgcbgpcwrwn.tif,97,0.0666666666666667,0.0666666666666667,1.45,1869.936540958,1871.265087166,9,1869.998379,1870.059346625,1871.278139916,1872.7215055,1,1.32854620800003
115,5,9,categorization,0,kitchen,SHINEd_sun_aunzlwrbjumxhwdj.tif,103,0.0666666666666667,0.0666666666666667,1.3,1872.739458083,1874.098099208,13,1872.806243083,1872.872314375,1874.114131083,1875.407512458,0,1.35864112499985
115,6,9,categorization,0,bathroom,SHINEd_sun_abapwbhyhkfixyex.tif,14,0.0666666666666667,0.0666666666666667,1.21666666666667,1875.424424375,1876.501678875,9,1875.491606875,1875.557503666,1876.529929416,1877.739968416,0,1.07725449999998
115,7,9,categorization,0,kitchen,SHINEd_sun_aarfiyshqohlwkmo.tif,67,0.0666666666666667,0.0666666666666667,0.733333333333333,1877.756761416,1879.14613675,13,1877.8234555,1877.889631291,1879.164046833,1879.890720333,0,1.38937533400008
115,8,9,categorization,0,bathroom,SHINEd_sun_acduarbnmmoglmiv.tif,16,0.0666666666666667,0.0666666666666667,1.03333333333333,1879.896334,1881.361251958,13,1879.958141125,1880.019106166,1881.371404791,1882.398115958,1,1.46491795799989
115,9,9,categorization,0,bathroom,SHINEd_sun_aggnnqpdorgxpvce.tif,21,0.0666666666666667,0.0666666666666667,1.1,1882.40974625,1883.518619166,9,1882.474481,1882.540923791,1883.548446583,1884.641832208,0,1.10887291600011
115,10,9,categorization,0,kitchen,SHINEd_sun_amjjdeyrggfqgmom.tif,100,0.0666666666666667,0.0666666666666667,1.25,1884.655144125,1886.03404525,9,1884.720380458,1884.788000375,1886.063722458,1887.307101875,1,1.37890112499986
115,11,9,categorization,0,bathroom,SHINEd_sun_apmqjbnwghzuhhzh.tif,46,0.0666666666666667,0.0666666666666667,1.4,1887.320836,1888.0992825,13,1887.387597666,1887.453398,1888.126612625,1889.519981875,1,0.778446499999973
115,12,9,categorization,0,kitchen,SHINEd_sun_agzzivivdpnawacl.tif,89,0.0666666666666667,0.0666666666666667,1.43333333333333,1889.537710458,1892.305598458,13,1889.604461,1889.67046875,1892.323195833,1893.749901708,0,2.76788800000008
115,13,9,categorization,0,kitchen,SHINEd_sun_acxkpeoqbwcxfvip.tif,77,0.0666666666666667,0.0666666666666667,1.26666666666667,1893.767074333,1895.014805333,9,1893.833427833,1893.900872708,1895.042142375,1896.30218825,1,1.24773099999993
115,14,9,categorization,0,kitchen,SHINEd_sun_aeqdocilnnpuvuhx.tif,83,0.0666666666666667,0.0666666666666667,0.916666666666667,1896.32226475,1897.252942791,13,1896.389128541,1896.455105833,1897.278429916,1898.1884365,0,0.930678040999965
115,15,9,categorization,0,kitchen,SHINEd_labelme_brsyyvweiuaazfr.tif,61,0.0666666666666667,0.0666666666666667,1.05,1898.194352625,1899.88191075,9,1898.256172125,1898.317170041,1899.886442416,1900.929825958,1,1.68755812500012
115,16,9,categorization,0,bathroom,SHINEd_sun_apkruvsevgegsdwp.tif,44,0.0666666666666667,0.0666666666666667,1.53333333333333,1900.943041041,1902.917931291,9,1901.008300625,1901.074079,1902.949045333,1904.475750625,0,1.97489025000004
115,17,9,categorization,0,kitchen,SHINEd_sun_aenotlpyftoioydp.tif,82,0.0666666666666667,0.0666666666666667,1.11666666666667,1904.493062791,1906.09792825,9,1904.559667583,1904.625802583,1906.111808208,1907.22186025,1,1.60486545899994
115,18,9,categorization,0,bathroom,SHINEd_sun_acgyywnybuveqsro.tif,18,0.0666666666666667,0.0666666666666667,1.05,1907.23198675,1907.970115833,13,1907.296771375,1907.3647435,1907.987303333,1909.030693083,1,0.738129082999876
115,19,9,categorization,0,kitchen,SHINEd_sun_abrcnpqqhmjwekyf.tif,73,0.0666666666666667,0.0666666666666667,1.66666666666667,1909.045705041,1910.217227541,9,1909.110517208,1909.17043975,1910.223125,1911.883163666,1,1.17152250000004
115,20,9,categorization,0,bathroom,SHINEd_sun_ausgutylgojavyoq.tif,53,0.0666666666666667,0.0666666666666667,1.98333333333333,1911.899282291,1912.779980416,13,1911.966215708,1912.032043333,1912.805141958,1914.781864416,1,0.880698124999981
115,21,9,categorization,0,kitchen,SHINEd_sun_akchetnepxlcxhsu.tif,98,0.0666666666666667,0.0666666666666667,1.06666666666667,1914.800144916,1915.537313125,13,1914.866962083,1914.93304875,1915.555907208,1916.615961916,0,0.737168209000174
115,22,9,categorization,0,bathroom,SHINEd_sun_aleqenyvunhactkl.tif,32,0.0666666666666667,0.0666666666666667,1.31666666666667,1916.626350291,1917.636838541,13,1916.69077,1916.7576655,1917.664189833,1918.974230833,1,1.01048824999998
115,23,9,categorization,0,bathroom,SHINEd_sun_amzlamotzwfkwjco.tif,37,0.0666666666666667,0.0666666666666667,1.78333333333333,1918.991669916,1920.064940708,9,1919.058494083,1919.124458166,1920.080486291,1921.857195333,0,1.0732707919999
115,24,9,categorization,0,bathroom,SHINEd_labelme_sfxiulhjbhlyiyt.tif,11,0.0666666666666667,0.0666666666666667,0.816666666666667,1921.873347166,1922.670391875,13,1921.94045825,1922.006836166,1922.696909916,1923.50691625,1,0.79704470899992
115,25,9,categorization,0,bathroom,SHINEd_sun_apeeialkgkuxddgh.tif,42,0.0666666666666667,0.0666666666666667,0.933333333333333,1923.512634916,1924.201411125,13,1923.574267416,1923.63542775,1924.220880125,1925.147551166,1,0.688776209000025
115,26,9,categorization,0,kitchen,SHINEd_sun_abpwyqmlzafvklqo.tif,72,0.0666666666666667,0.0666666666666667,1.33333333333333,1925.153401125,1926.913038833,9,1925.215283708,1925.276133583,1926.928841541,1928.25555525,1,1.7596377079999
115,27,9,categorization,0,bathroom,SHINEd_sun_avhrdrntsqrjzccq.tif,55,0.0666666666666667,0.0666666666666667,0.833333333333333,1928.273775041,1929.886099458,9,1928.341267541,1928.40711175,1929.917115583,1930.743787583,0,1.61232441700008
115,28,9,categorization,0,bathroom,SHINEd_sun_anhioqovhscjqqwb.tif,38,0.0666666666666667,0.0666666666666667,0.933333333333333,1930.7495755,1931.377520083,13,1930.811596125,1930.872371875,1931.390914708,1932.317587625,1,0.627944583000044
115,29,9,categorization,0,kitchen,SHINEd_sun_acgtpgfybqjmzeyw.tif,75,0.0666666666666667,0.0666666666666667,1.85,1932.323167125,1933.472983666,9,1932.384882125,1932.445906125,1933.4813845,1935.324750625,1,1.14981654099984
