sub_num,trial,block,task,is_practice,category,image,texture,duration,mask_dur,jitter,stim_time,time_of_resp,trial_response,mask_time,fix_time,jit_onset,trial_end,trial_accuracy,RT
117,6,0,complexity,1,kitchen,kitchen_practice5.tif,230,1.5,0,1.46666666666667,3614.348269291,3617.446396791,3,NaN,3617.454781458,3617.473635041,3618.93372425,NaN,NaN
117,7,0,complexity,1,kitchen,kitchen_practice2.tif,227,1.5,0,1.31666666666667,3618.95434075,3621.518693,5,NaN,3621.524070291,3621.5425285,3622.852617125,NaN,NaN
117,8,0,complexity,1,kitchen,kitchen_practice4.tif,229,1.5,0,1.76666666666667,3622.86648475,3625.397917416,5,NaN,3625.4032865,3625.42212375,3627.182187916,NaN,NaN
117,9,0,complexity,1,kitchen,kitchen_practice1.tif,226,1.5,0,0.816666666666667,3627.201353916,3630.166094583,6,NaN,3630.193102666,3630.216791083,3631.026801291,NaN,NaN
117,10,0,complexity,1,kitchen,kitchen_practice3.tif,228,1.5,0,0.9,3631.037213583,3636.59013075,5,NaN,3636.59547775,3636.613883958,3637.507224291,NaN,NaN
117,1,1,complexity,0,kitchen,sun_avszsnwsbuqfgzbn.tif,215,1.5,0,1.15,3641.984952583,3644.440964,6,NaN,3644.46007175,3644.482719958,3645.626152958,NaN,NaN
117,2,1,complexity,0,kitchen,sun_ahpczsiumwwocjkv.tif,202,1.5,0,1.33333333333333,3645.635987958,3648.277701666,5,NaN,3648.283181416,3648.301644708,3649.628394,NaN,NaN
117,3,1,complexity,0,kitchen,sun_aeqdocilnnpuvuhx.tif,193,1.5,0,1.75,3649.648364375,3652.639341,5,NaN,3652.644558166,3652.662913125,3654.406345041,NaN,NaN
117,4,1,complexity,0,kitchen,sun_ahywdevtimnqcsln.tif,204,1.5,0,1.2,3654.423196125,3657.365848875,5,NaN,3657.394703208,3657.418407583,3658.611838458,NaN,NaN
117,5,1,complexity,0,kitchen,sun_aqeaevwwwjoqhzvl.tif,211,1.5,0,1.46666666666667,3658.623247291,3661.430006291,6,NaN,3661.435493708,3661.454226166,3662.914313666,NaN,NaN
117,6,1,complexity,0,kitchen,sun_aehawpgmrlhlvcow.tif,191,1.5,0,1.01666666666667,3662.926218333,3667.973856291,5,NaN,3667.979206625,3667.997473208,3669.007552375,NaN,NaN
117,7,1,complexity,0,kitchen,sun_agorklincwxrdtga.tif,197,1.5,0,1.18333333333333,3669.02041575,3671.949975333,5,NaN,3671.955389625,3671.973751041,3673.150506333,NaN,NaN
117,8,1,complexity,0,kitchen,sun_agzzivivdpnawacl.tif,199,1.5,0,1.03333333333333,3673.162824041,3676.197427333,2,NaN,3676.202971,3676.221694208,3677.248422541,NaN,NaN
117,9,1,complexity,0,kitchen,sun_acfmftudsenhrfhy.tif,184,1.5,0,1.25,3677.271177208,3681.125579208,3,NaN,3681.131144083,3681.149499083,3682.392933333,NaN,NaN
117,10,1,complexity,0,kitchen,sun_aarfiyshqohlwkmo.tif,177,1.5,0,0.733333333333333,3682.410497541,3686.717416916,4,NaN,3686.723038208,3686.741434,3687.468108375,NaN,NaN
117,11,1,complexity,0,kitchen,labelme_rykdqxenmhulbdn.tif,173,1.5,0,1.01666666666667,3687.486883291,3690.009753333,3,NaN,3690.036766791,3690.059862958,3691.069949958,NaN,NaN
117,12,1,complexity,0,kitchen,sun_aexklacwqwezaorf.tif,194,1.5,0,1.53333333333333,3691.079764916,3695.205649958,5,NaN,3695.210866708,3695.229148458,3696.755881166,NaN,NaN
117,13,1,complexity,0,kitchen,sun_aunzlwrbjumxhwdj.tif,213,1.5,0,1.33333333333333,3696.775539375,3699.405387708,2,NaN,3699.410921083,3699.429223708,3700.755984541,NaN,NaN
117,14,1,complexity,0,kitchen,sun_ahljzhgcdpomplvg.tif,201,1.5,0,1.53333333333333,3700.774370875,3706.693348041,3,NaN,3706.698772583,3706.717139583,3708.243914583,NaN,NaN
117,15,1,complexity,0,kitchen,labelme_kxvouciolcpqplr.tif,172,1.5,0,1.01666666666667,3708.263514041,3711.03788975,2,NaN,3711.043512541,3711.061720375,3712.071821125,NaN,NaN
117,16,1,complexity,0,kitchen,sun_awcpdzzznmweyyhv.tif,216,1.5,0,1.23333333333333,3712.079866083,3715.117587208,6,NaN,3715.122996916,3715.141335958,3716.368092291,NaN,NaN
117,17,1,complexity,0,kitchen,sun_aaxxjlsuzvqlgylf.tif,178,1.5,0,1.18333333333333,3716.381099208,3720.989948708,4,NaN,3720.995471125,3721.013842708,3722.190608458,NaN,NaN
117,18,1,complexity,0,kitchen,sun_aamedkxepzlwuxes.tif,175,1.5,0,0.783333333333333,3722.199772583,3725.781141958,6,NaN,3725.786754041,3725.805190125,3726.581868416,NaN,NaN
117,19,1,complexity,0,kitchen,sun_ajcbwwvdlsvjyzje.tif,206,1.5,0,1.73333333333333,3726.586160041,3729.062777291,7,NaN,3729.087853291,3729.110903375,3730.83763,NaN,NaN
117,20,1,complexity,0,kitchen,sun_azmutvzbxypaceni.tif,220,1.5,0,1.21666666666667,3730.8571795,3733.501206291,3,NaN,3733.528731,3733.551853541,3734.761922,NaN,NaN
117,21,1,complexity,0,kitchen,sun_acxkpeoqbwcxfvip.tif,187,1.5,0,1.26666666666667,3734.781508625,3738.053253875,5,NaN,3738.058695333,3738.077139125,3739.337204375,NaN,NaN
117,22,1,complexity,0,kitchen,sun_aggjlwcdjsjcaemh.tif,196,1.5,0,0.783333333333333,3739.351618,3742.653128791,5,NaN,3742.659203291,3742.677637125,3743.454314875,NaN,NaN
117,23,1,complexity,0,kitchen,sun_aadbddgrdsjugojn.tif,174,1.5,0,1.48333333333333,3743.458628625,3746.958410458,4,NaN,3746.963763583,3746.982195666,3748.458948625,NaN,NaN
117,24,1,complexity,0,kitchen,sun_acwjdupvyjsugpay.tif,186,1.5,0,1.36666666666667,3748.475665625,3751.733677208,2,NaN,3751.739105416,3751.757507083,3753.117577916,NaN,NaN
117,25,1,complexity,0,kitchen,sun_auticobqsbwgoppi.tif,214,1.5,0,0.983333333333333,3753.1288275,3756.461675125,2,NaN,3756.466988916,3756.485611,3757.462288833,NaN,NaN
117,1,2,complexity,0,kitchen,sun_aixorpehvfykdynp.tif,205,1.5,0,1.26666666666667,3765.112577083,3768.089328625,3,NaN,3768.114492583,3768.13874375,3769.398839791,NaN,NaN
117,2,2,complexity,0,kitchen,sun_aypmqwcualkenuoe.tif,219,1.5,0,1.11666666666667,3769.4160885,3771.748824625,5,NaN,3771.754793958,3771.7731445,3772.883235208,NaN,NaN
117,3,2,complexity,0,kitchen,sun_aymvwlarqodbwuoc.tif,218,1.5,0,1.43333333333333,3772.892304041,3775.933704291,3,NaN,3775.939106791,3775.957372666,3777.384127375,NaN,NaN
117,4,2,complexity,0,kitchen,sun_amjjdeyrggfqgmom.tif,210,1.5,0,0.8,3777.404076875,3780.893398791,2,NaN,3780.898794583,3780.91714975,3781.710492166,NaN,NaN
117,5,2,complexity,0,kitchen,sun_akcjzhbbjlbogpdi.tif,209,1.5,0,0.733333333333333,3781.714842666,3784.781683,3,NaN,3784.809914333,3784.833051916,3785.559724833,NaN,NaN
117,6,2,complexity,0,kitchen,sun_abdxkyyxwfskuaqb.tif,180,1.5,0,1.03333333333333,3785.564537708,3789.548769,6,NaN,3789.5545445,3789.572802291,3790.599568541,NaN,NaN
117,7,2,complexity,0,kitchen,sun_acgtpgfybqjmzeyw.tif,185,1.5,0,1.56666666666667,3790.610217333,3793.253482083,3,NaN,3793.258678125,3793.277036916,3794.837098458,NaN,NaN
117,8,2,complexity,0,kitchen,sun_ahdycvpopffkzzsu.tif,200,1.5,0,0.866666666666667,3794.856974916,3798.197229125,4,NaN,3798.202848458,3798.221434708,3799.081441208,NaN,NaN
117,9,2,complexity,0,kitchen,sun_ajkqhtgcbgpcwrwn.tif,207,1.5,0,0.716666666666667,3799.085724666,3801.55629675,6,NaN,3801.583965333,3801.607205125,3802.31721825,NaN,NaN
117,10,2,complexity,0,kitchen,sun_agubuxuukhzyzpdp.tif,198,1.5,0,1.33333333333333,3802.321537833,3804.826688416,4,NaN,3804.849884458,3804.873828708,3806.200587125,NaN,NaN
117,11,2,complexity,0,kitchen,sun_aegoxogugdkwpmpj.tif,190,1.5,0,1.01666666666667,3806.218300416,3808.853531541,7,NaN,3808.858909041,3808.877314708,3809.887383958,NaN,NaN
117,12,2,complexity,0,kitchen,sun_aenotlpyftoioydp.tif,192,1.5,0,0.733333333333333,3809.896209375,3813.516987291,2,NaN,3813.522556208,3813.540799125,3814.267477083,NaN,NaN
117,13,2,complexity,0,kitchen,sun_auaiucuqpdausiva.tif,212,1.5,0,1.38333333333333,3814.286077541,3817.653468125,3,NaN,3817.659086875,3817.677485916,3819.054232333,NaN,NaN
117,14,2,complexity,0,kitchen,sun_aapllqyqlykszopd.tif,176,1.5,0,1.06666666666667,3819.073364125,3821.860678041,3,NaN,3821.866024458,3821.884360541,3822.944447708,NaN,NaN
117,15,2,complexity,0,kitchen,sun_adgqasybjyktddhj.tif,188,1.5,0,0.85,3822.954531583,3825.949028458,3,NaN,3825.954333083,3825.972613208,3826.815955083,NaN,NaN
117,16,2,complexity,0,kitchen,labelme_brsyyvweiuaazfr.tif,171,1.5,0,0.9,3826.820784416,3830.213129958,3,NaN,3830.218512541,3830.236762833,3831.130107083,NaN,NaN
117,17,2,complexity,0,kitchen,sun_admlmbcdswaszruo.tif,189,1.5,0,1.55,3831.134444041,3834.39689075,6,NaN,3834.402511041,3834.420928208,3835.964323166,NaN,NaN
117,18,2,complexity,0,kitchen,sun_abrcnpqqhmjwekyf.tif,183,1.5,0,0.7,3835.983282583,3840.173252291,4,NaN,3840.178589333,3840.19693625,3840.890277916,NaN,NaN
117,19,2,complexity,0,kitchen,sun_abdenxonkemggwsq.tif,179,1.5,0,0.716666666666667,3840.8946705,3843.652656,6,NaN,3843.681164291,3843.704101916,3844.414109708,NaN,NaN
117,20,2,complexity,0,kitchen,sun_akchetnepxlcxhsu.tif,208,1.5,0,0.85,3844.41881525,3848.149396875,5,NaN,3848.154684583,3848.173116541,3849.016459625,NaN,NaN
117,21,2,complexity,0,kitchen,sun_axyyrmzcupyhlivc.tif,217,1.5,0,1.35,3849.021071583,3851.860703916,4,NaN,3851.888998708,3851.91140975,3853.25482425,NaN,NaN
117,22,2,complexity,0,kitchen,sun_abftihopvusyfakt.tif,181,1.5,0,1.96666666666667,3853.273911375,3855.877270708,6,NaN,3855.882614333,3855.900937125,3857.861031958,NaN,NaN
117,23,2,complexity,0,kitchen,sun_afuyedyxivkhecmu.tif,195,1.5,0,0.933333333333333,3857.8766885,3861.420619125,3,NaN,3861.426245416,3861.444587625,3862.371260416,NaN,NaN
117,24,2,complexity,0,kitchen,sun_ahspylgoovwmwvgk.tif,203,1.5,0,1.33333333333333,3862.375645875,3865.82886375,3,NaN,3865.8344295,3865.852755541,3867.179487791,NaN,NaN
117,25,2,complexity,0,kitchen,sun_abpwyqmlzafvklqo.tif,182,1.5,0,1.16666666666667,3867.197358,3871.124951375,5,NaN,3871.130364375,3871.148612458,3872.308716208,NaN,NaN
