sub_num,trial,block,task,is_practice,category,image,texture,duration,mask_dur,jitter,stim_time,time_of_resp,trial_response,mask_time,fix_time,jit_onset,trial_end,trial_accuracy,RT
125,6,0,typicality,1,kitchen,kitchen_practice2.tif,227,1.5,0,0.966666666666667,2139.7269485,2148.131144666,3,NaN,2148.15318875,2148.174511291,2149.134602375,NaN,NaN
125,7,0,typicality,1,kitchen,kitchen_practice5.tif,230,1.5,0,1.58333333333333,2149.145321166,2155.12323525,3,NaN,2155.132706416,2155.151623625,2156.728544208,NaN,NaN
125,8,0,typicality,1,kitchen,kitchen_practice1.tif,226,1.5,0,1.03333333333333,2156.75656725,2162.770369041,2,NaN,2162.777287416,2162.795751958,2163.822515083,NaN,NaN
125,9,0,typicality,1,kitchen,kitchen_practice4.tif,229,1.5,0,1.68333333333333,2163.842474083,2167.091265333,3,NaN,2167.098163166,2167.116494083,2168.793218083,NaN,NaN
125,10,0,typicality,1,kitchen,kitchen_practice3.tif,228,1.5,0,1.45,2168.824909625,2171.91829125,4,NaN,2171.963616041,2171.985455833,2173.428858333,NaN,NaN
125,1,1,typicality,0,kitchen,sun_agubuxuukhzyzpdp.tif,198,1.5,0,0.733333333333333,2178.536211958,2182.370817791,4,NaN,2182.376973583,2182.39536125,2183.122035333,NaN,NaN
125,2,1,typicality,0,kitchen,sun_ahpczsiumwwocjkv.tif,202,1.5,0,1.18333333333333,2183.126319833,2186.315055583,3,NaN,2186.320867708,2186.339374666,2187.516105583,NaN,NaN
125,3,1,typicality,0,kitchen,sun_aapllqyqlykszopd.tif,176,1.5,0,0.7,2187.528662125,2190.474577666,5,NaN,2190.480361,2190.498653416,2191.191994916,NaN,NaN
125,4,1,typicality,0,kitchen,sun_auaiucuqpdausiva.tif,212,1.5,0,1.2,2191.196400208,2195.195355916,3,NaN,2195.200909833,2195.219296583,2196.412680541,NaN,NaN
125,5,1,typicality,0,kitchen,sun_adgqasybjyktddhj.tif,188,1.5,0,0.966666666666667,2196.426238625,2199.490954583,6,NaN,2199.4967395,2199.5152105,2200.475218666,NaN,NaN
125,6,1,typicality,0,kitchen,sun_aaxxjlsuzvqlgylf.tif,178,1.5,0,1.3,2200.479681333,2207.082347125,2,NaN,2207.088943958,2207.107397708,2208.400814916,NaN,NaN
125,7,1,typicality,0,kitchen,labelme_kxvouciolcpqplr.tif,172,1.5,0,1.65,2208.418579291,2213.106700541,4,NaN,2213.1127865,2213.13119125,2214.774623958,NaN,NaN
125,8,1,typicality,0,kitchen,sun_amjjdeyrggfqgmom.tif,210,1.5,0,1.63333333333333,2214.787734125,2217.366374583,2,NaN,2217.39165875,2217.415100875,2219.041827375,NaN,NaN
125,9,1,typicality,0,kitchen,sun_acfmftudsenhrfhy.tif,184,1.5,0,0.9,2219.059167083,2222.146511875,5,NaN,2222.1756435,2222.198324875,2223.091667333,NaN,NaN
125,10,1,typicality,0,kitchen,sun_aypmqwcualkenuoe.tif,219,1.5,0,0.95,2223.096420875,2225.927306041,1,NaN,2225.955286416,2225.976809791,2226.920150958,NaN,NaN
125,11,1,typicality,0,kitchen,sun_avszsnwsbuqfgzbn.tif,215,1.5,0,0.816666666666667,2226.924885958,2232.970978541,3,NaN,2232.976513541,2232.994895791,2233.804905333,NaN,NaN
125,12,1,typicality,0,kitchen,sun_aarfiyshqohlwkmo.tif,177,1.5,0,1.96666666666667,2233.809335708,2237.507045583,4,NaN,2237.512600958,2237.530931125,2239.491025458,NaN,NaN
125,13,1,typicality,0,kitchen,sun_aeqdocilnnpuvuhx.tif,193,1.5,0,0.783333333333333,2239.508991708,2244.802787041,3,NaN,2244.808659916,2244.826890375,2245.603567958,NaN,NaN
125,14,1,typicality,0,kitchen,sun_ahdycvpopffkzzsu.tif,200,1.5,0,0.733333333333333,2245.607942833,2248.826727333,7,NaN,2248.83235825,2248.850764125,2249.577438166,NaN,NaN
125,15,1,typicality,0,kitchen,sun_acgtpgfybqjmzeyw.tif,185,1.5,0,1.9,2249.582108041,2253.002373125,6,NaN,2253.008026583,2253.026316833,2254.91974725,NaN,NaN
125,16,1,typicality,0,kitchen,sun_aqeaevwwwjoqhzvl.tif,211,1.5,0,0.75,2254.936597125,2261.227077916,5,NaN,2261.23257675,2261.251023416,2261.994366166,NaN,NaN
125,17,1,typicality,0,kitchen,sun_aenotlpyftoioydp.tif,192,1.5,0,0.916666666666667,2261.998656958,2265.458342333,4,NaN,2265.464021416,2265.482309166,2266.392320625,NaN,NaN
125,18,1,typicality,0,kitchen,sun_ajkqhtgcbgpcwrwn.tif,207,1.5,0,0.733333333333333,2266.396980666,2269.167150333,7,NaN,2269.195448416,2269.217891833,2269.944569333,NaN,NaN
125,19,1,typicality,0,kitchen,sun_acxkpeoqbwcxfvip.tif,187,1.5,0,1.81666666666667,2269.949247791,2274.5624055,3,NaN,2274.568144625,2274.586599166,2276.396684375,NaN,NaN
125,20,1,typicality,0,kitchen,labelme_rykdqxenmhulbdn.tif,173,1.5,0,1.16666666666667,2276.4140735,2279.682694083,7,NaN,2279.711115041,2279.73426725,2280.894335958,NaN,NaN
125,21,1,typicality,0,kitchen,sun_agorklincwxrdtga.tif,197,1.5,0,1.81666666666667,2280.903035833,2284.04231225,5,NaN,2284.048038708,2284.066340708,2285.876413416,NaN,NaN
125,22,1,typicality,0,kitchen,sun_aexklacwqwezaorf.tif,194,1.5,0,1.35,2285.893695708,2290.722462583,2,NaN,2290.728517875,2290.74716375,2292.090578541,NaN,NaN
125,23,1,typicality,0,kitchen,sun_ahywdevtimnqcsln.tif,204,1.5,0,1.25,2292.108570958,2295.003041291,6,NaN,2295.008474916,2295.026795166,2296.270202375,NaN,NaN
125,24,1,typicality,0,kitchen,sun_aamedkxepzlwuxes.tif,175,1.5,0,1.05,2296.286745541,2300.25899675,5,NaN,2300.264477416,2300.282870333,2301.326292166,NaN,NaN
125,25,1,typicality,0,kitchen,sun_ajcbwwvdlsvjyzje.tif,206,1.5,0,0.916666666666667,2301.3349595,2304.011226125,7,NaN,2304.01761125,2304.035927708,2304.945934958,NaN,NaN
125,1,2,typicality,0,kitchen,sun_awcpdzzznmweyyhv.tif,216,1.5,0,1.56666666666667,2309.079004583,2312.043297416,2,NaN,2312.0681195,2312.091326416,2313.651388875,NaN,NaN
125,2,2,typicality,0,kitchen,sun_aegoxogugdkwpmpj.tif,190,1.5,0,0.883333333333333,2313.669878916,2316.730348,3,NaN,2316.735908416,2316.754252791,2317.630929916,NaN,NaN
125,3,2,typicality,0,kitchen,sun_aixorpehvfykdynp.tif,205,1.5,0,0.75,2317.635258166,2320.64694175,5,NaN,2320.675523458,2320.698665291,2321.442006875,NaN,NaN
125,4,2,typicality,0,kitchen,sun_aehawpgmrlhlvcow.tif,191,1.5,0,1.23333333333333,2321.446763541,2324.578129583,1,NaN,2324.585553208,2324.6039655,2325.830731208,NaN,NaN
125,5,2,typicality,0,kitchen,sun_acwjdupvyjsugpay.tif,186,1.5,0,0.85,2325.847331291,2329.066051416,7,NaN,2329.071994041,2329.090304791,2329.933648333,NaN,NaN
125,6,2,typicality,0,kitchen,labelme_brsyyvweiuaazfr.tif,171,1.5,0,0.916666666666667,2329.938170416,2333.138679708,5,NaN,2333.14491025,2333.163210208,2334.073219791,NaN,NaN
125,7,2,typicality,0,kitchen,sun_akchetnepxlcxhsu.tif,208,1.5,0,1.75,2334.077674541,2336.913487083,6,NaN,2336.942029541,2336.964744833,2338.708153125,NaN,NaN
125,8,2,typicality,0,kitchen,sun_ahljzhgcdpomplvg.tif,201,1.5,0,1.43333333333333,2338.725403166,2341.831186916,2,NaN,2341.859650583,2341.88317225,2343.309940958,NaN,NaN
125,9,2,typicality,0,kitchen,sun_abpwyqmlzafvklqo.tif,182,1.5,0,0.783333333333333,2343.327090083,2346.50665325,6,NaN,2346.512059875,2346.530312208,2347.306987125,NaN,NaN
125,10,2,typicality,0,kitchen,sun_axyyrmzcupyhlivc.tif,217,1.5,0,1.76666666666667,2347.311289333,2350.665936916,6,NaN,2350.671839541,2350.689962708,2352.450035625,NaN,NaN
125,11,2,typicality,0,kitchen,sun_auticobqsbwgoppi.tif,214,1.5,0,1.78333333333333,2352.46773,2355.833257416,7,NaN,2355.862735666,2355.886169041,2357.662906291,NaN,NaN
125,12,2,typicality,0,kitchen,sun_aymvwlarqodbwuoc.tif,218,1.5,0,1.85,2357.680968208,2361.026443625,2,NaN,2361.033760291,2361.052443625,2362.89587725,NaN,NaN
125,13,2,typicality,0,kitchen,sun_ahspylgoovwmwvgk.tif,203,1.5,0,1.18333333333333,2362.914295541,2366.94674975,3,NaN,2366.952224458,2366.97064575,2368.147416916,NaN,NaN
125,14,2,typicality,0,kitchen,sun_aggjlwcdjsjcaemh.tif,196,1.5,0,1.01666666666667,2368.156788583,2371.354568083,7,NaN,2371.360142958,2371.378418666,2372.3885035,NaN,NaN
125,15,2,typicality,0,kitchen,sun_aunzlwrbjumxhwdj.tif,213,1.5,0,1.65,2372.396454708,2377.250677125,1,NaN,2377.256531916,2377.274833125,2378.918228416,NaN,NaN
125,16,2,typicality,0,kitchen,sun_abrcnpqqhmjwekyf.tif,183,1.5,0,1.83333333333333,2378.937465625,2382.009678083,6,NaN,2382.030338708,2382.053137,2383.879872041,NaN,NaN
125,17,2,typicality,0,kitchen,sun_agzzivivdpnawacl.tif,199,1.5,0,1.58333333333333,2383.899290458,2387.181598333,4,NaN,2387.210707208,2387.23320825,2388.809951958,NaN,NaN
125,18,2,typicality,0,kitchen,sun_abftihopvusyfakt.tif,181,1.5,0,1.85,2388.826515375,2392.198849833,5,NaN,2392.227495708,2392.250057583,2394.093483458,NaN,NaN
125,19,2,typicality,0,kitchen,sun_afuyedyxivkhecmu.tif,195,1.5,0,0.766666666666667,2394.111140166,2397.546330708,1,NaN,2397.552443166,2397.57077925,2398.330786625,NaN,NaN
125,20,2,typicality,0,kitchen,sun_aadbddgrdsjugojn.tif,174,1.5,0,0.716666666666667,2398.335458625,2401.93853875,2,NaN,2401.9440295,2401.962235333,2402.6722445,NaN,NaN
125,21,2,typicality,0,kitchen,sun_azmutvzbxypaceni.tif,220,1.5,0,1.38333333333333,2402.676577958,2405.761707166,7,NaN,2405.769613125,2405.787993666,2407.164737125,NaN,NaN
125,22,2,typicality,0,kitchen,sun_abdxkyyxwfskuaqb.tif,180,1.5,0,0.866666666666667,2407.182873291,2410.018506541,1,NaN,2410.024146208,2410.042612125,2410.902619916,NaN,NaN
125,23,2,typicality,0,kitchen,sun_akcjzhbbjlbogpdi.tif,209,1.5,0,1.4,2410.907228458,2414.449882125,3,NaN,2414.455687375,2414.473920125,2415.867329291,NaN,NaN
125,24,2,typicality,0,kitchen,sun_admlmbcdswaszruo.tif,189,1.5,0,1,2415.884435,2418.770094166,6,NaN,2418.77577825,2418.794418,2419.787757958,NaN,NaN
125,25,2,typicality,0,kitchen,sun_abdenxonkemggwsq.tif,179,1.5,0,1.28333333333333,2419.792396833,2422.898316791,2,NaN,2422.905053041,2422.923182375,2424.199937666,NaN,NaN
