sub_num,trial,block,task,is_practice,category,image,texture,duration,mask_dur,jitter,stim_time,time_of_resp,trial_response,mask_time,fix_time,jit_onset,trial_end,trial_accuracy,RT
119,6,0,aesthetic,1,kitchen,kitchen_practice2.tif,227,1.5,0,1.08333333333333,9665.028355958,9668.867168042,5,NaN,9668.873927875,9668.892520708,9669.969278833,NaN,NaN
119,7,0,aesthetic,1,kitchen,kitchen_practice1.tif,226,1.5,0,1.06666666666667,9669.980138708,9672.643986292,4,NaN,9672.649677417,9672.668311042,9673.728411,NaN,NaN
119,8,0,aesthetic,1,kitchen,kitchen_practice4.tif,229,1.5,0,1.11666666666667,9673.747383875,9679.331663083,5,NaN,9679.337423875,9679.356194833,9680.466302,NaN,NaN
119,9,0,aesthetic,1,kitchen,kitchen_practice3.tif,228,1.5,0,0.95,9680.476856708,9683.851465083,6,NaN,9683.857161333,9683.875623375,9684.818964125,NaN,NaN
119,10,0,aesthetic,1,kitchen,kitchen_practice5.tif,230,1.5,0,0.9,9684.8238175,9687.955348625,5,NaN,9687.963094958,9687.981517917,9688.87485975,NaN,NaN
119,1,1,aesthetic,0,kitchen,sun_ahljzhgcdpomplvg.tif,201,1.5,0,1.48333333333333,9693.72080025,9697.891236625,6,NaN,9697.89858025,9697.9172975,9699.394051375,NaN,NaN
119,2,1,aesthetic,0,kitchen,sun_afuyedyxivkhecmu.tif,195,1.5,0,1.46666666666667,9699.414166708,9703.531977667,4,NaN,9703.537524333,9703.556043792,9705.016152833,NaN,NaN
119,3,1,aesthetic,0,kitchen,sun_adgqasybjyktddhj.tif,188,1.5,0,0.766666666666667,9705.033903417,9710.179428208,5,NaN,9710.185753583,9710.204389167,9710.964395583,NaN,NaN
119,4,1,aesthetic,0,kitchen,sun_ahpczsiumwwocjkv.tif,202,1.5,0,1.16666666666667,9710.969057583,9713.992548625,6,NaN,9714.007361458,9714.029219917,9715.189317417,NaN,NaN
119,5,1,aesthetic,0,kitchen,sun_agorklincwxrdtga.tif,197,1.5,0,1.6,9715.200812417,9717.93177125,7,NaN,9717.937375083,9717.95590725,9719.549312,NaN,NaN
119,6,1,aesthetic,0,kitchen,sun_auaiucuqpdausiva.tif,212,1.5,0,1.68333333333333,9719.569853708,9722.58790175,5,NaN,9722.615249708,9722.639029917,9724.315759667,NaN,NaN
119,7,1,aesthetic,0,kitchen,sun_aapllqyqlykszopd.tif,176,1.5,0,1.5,9724.336259833,9727.539110875,5,NaN,9727.568630917,9727.591964708,9729.085368375,NaN,NaN
119,8,1,aesthetic,0,kitchen,sun_awcpdzzznmweyyhv.tif,216,1.5,0,0.833333333333333,9729.104353083,9732.347018,6,NaN,9732.353093625,9732.371607833,9733.198283083,NaN,NaN
119,9,1,aesthetic,0,kitchen,sun_aadbddgrdsjugojn.tif,174,1.5,0,0.9,9733.202872333,9737.259335417,4,NaN,9737.265084458,9737.283519375,9738.176861042,NaN,NaN
119,10,1,aesthetic,0,kitchen,sun_aegoxogugdkwpmpj.tif,190,1.5,0,0.933333333333333,9738.181288667,9740.908775083,3,NaN,9740.934608458,9740.95864475,9741.885320792,NaN,NaN
119,11,1,aesthetic,0,kitchen,sun_abrcnpqqhmjwekyf.tif,183,1.5,0,0.9,9741.890370875,9744.627249167,3,NaN,9744.657445042,9744.68181425,9745.575153833,NaN,NaN
119,12,1,aesthetic,0,kitchen,sun_avszsnwsbuqfgzbn.tif,215,1.5,0,0.85,9745.581023292,9748.794770333,4,NaN,9748.8016215,9748.820316125,9749.663657625,NaN,NaN
119,13,1,aesthetic,0,kitchen,labelme_kxvouciolcpqplr.tif,172,1.5,0,1.83333333333333,9749.668129042,9753.514960333,3,NaN,9753.521032042,9753.539562833,9755.366316208,NaN,NaN
119,14,1,aesthetic,0,kitchen,sun_agzzivivdpnawacl.tif,199,1.5,0,0.733333333333333,9755.3827005,9758.635985167,2,NaN,9758.660967583,9758.684717,9759.411391667,NaN,NaN
119,15,1,aesthetic,0,kitchen,sun_aunzlwrbjumxhwdj.tif,213,1.5,0,1.63333333333333,9759.416638125,9762.270050958,1,NaN,9762.294487167,9762.316179375,9763.942944,NaN,NaN
119,16,1,aesthetic,0,kitchen,sun_aymvwlarqodbwuoc.tif,218,1.5,0,0.766666666666667,9763.963353875,9766.599086333,4,NaN,9766.627831208,9766.651542292,9767.411618083,NaN,NaN
119,17,1,aesthetic,0,kitchen,sun_abpwyqmlzafvklqo.tif,182,1.5,0,1.71666666666667,9767.424844625,9770.939536917,3,NaN,9770.945349375,9770.963876542,9772.673954958,NaN,NaN
119,18,1,aesthetic,0,kitchen,sun_abdxkyyxwfskuaqb.tif,180,1.5,0,1.51666666666667,9772.689208292,9775.562480417,4,NaN,9775.592730333,9775.616767375,9777.12685625,NaN,NaN
119,19,1,aesthetic,0,kitchen,sun_aaxxjlsuzvqlgylf.tif,178,1.5,0,1.25,9777.142319583,9781.051685083,5,NaN,9781.057346667,9781.075972,9782.319379708,NaN,NaN
119,20,1,aesthetic,0,kitchen,sun_azmutvzbxypaceni.tif,220,1.5,0,1.41666666666667,9782.333983167,9785.035490875,4,NaN,9785.041262542,9785.05988575,9786.469966792,NaN,NaN
119,21,1,aesthetic,0,kitchen,sun_axyyrmzcupyhlivc.tif,217,1.5,0,1.1,9786.491212833,9789.603567917,6,NaN,9789.609181625,9789.627755042,9790.721179583,NaN,NaN
119,22,1,aesthetic,0,kitchen,sun_ajkqhtgcbgpcwrwn.tif,207,1.5,0,0.95,9790.73221825,9793.6914695,3,NaN,9793.697138958,9793.715557667,9794.658899125,NaN,NaN
119,23,1,aesthetic,0,kitchen,sun_aamedkxepzlwuxes.tif,175,1.5,0,1.45,9794.664493542,9799.027254792,4,NaN,9799.03299875,9799.051539542,9800.494945958,NaN,NaN
119,24,1,aesthetic,0,kitchen,sun_akcjzhbbjlbogpdi.tif,209,1.5,0,0.883333333333333,9800.516922125,9804.579045542,3,NaN,9804.584753375,9804.603301,9805.479974833,NaN,NaN
119,25,1,aesthetic,0,kitchen,sun_ahywdevtimnqcsln.tif,204,1.5,0,1.23333333333333,9805.484459292,9808.18260475,4,NaN,9808.21091275,9808.23369275,9809.460389792,NaN,NaN
119,1,2,aesthetic,0,kitchen,sun_aeqdocilnnpuvuhx.tif,193,1.5,0,1.78333333333333,9813.21162575,9815.864587292,6,NaN,9815.891867583,9815.915222417,9817.691964,NaN,NaN
119,2,2,aesthetic,0,kitchen,sun_aggjlwcdjsjcaemh.tif,196,1.5,0,1.8,9817.706308625,9820.686744625,2,NaN,9820.716680792,9820.740733875,9822.534142583,NaN,NaN
119,3,2,aesthetic,0,kitchen,sun_aixorpehvfykdynp.tif,205,1.5,0,0.8,9822.551785375,9826.123051,3,NaN,9826.129030125,9826.147644708,9826.940988083,NaN,NaN
119,4,2,aesthetic,0,kitchen,sun_acfmftudsenhrfhy.tif,184,1.5,0,1.01666666666667,9826.96204425,9830.579113333,4,NaN,9830.58485375,9830.6033825,9831.613453875,NaN,NaN
119,5,2,aesthetic,0,kitchen,sun_acxkpeoqbwcxfvip.tif,187,1.5,0,0.85,9831.622324208,9834.218558375,5,NaN,9834.224720875,9834.243375417,9835.086716,NaN,NaN
119,6,2,aesthetic,0,kitchen,sun_admlmbcdswaszruo.tif,189,1.5,0,1.83333333333333,9835.095410208,9838.338499,5,NaN,9838.34479525,9838.363827542,9840.190589,NaN,NaN
119,7,2,aesthetic,0,kitchen,sun_aexklacwqwezaorf.tif,194,1.5,0,1.11666666666667,9840.205046,9842.963205792,5,NaN,9842.992327833,9843.015954625,9844.12603,NaN,NaN
119,8,2,aesthetic,0,kitchen,sun_agubuxuukhzyzpdp.tif,198,1.5,0,1.88333333333333,9844.135248208,9846.866898833,5,NaN,9846.872694958,9846.8911725,9848.767902,NaN,NaN
119,9,2,aesthetic,0,kitchen,sun_aypmqwcualkenuoe.tif,219,1.5,0,0.916666666666667,9848.789115667,9851.422734917,5,NaN,9851.45146025,9851.475286875,9852.385295917,NaN,NaN
119,10,2,aesthetic,0,kitchen,labelme_rykdqxenmhulbdn.tif,173,1.5,0,1.05,9852.390340167,9855.39113325,4,NaN,9855.417387583,9855.438728583,9856.482124708,NaN,NaN
119,11,2,aesthetic,0,kitchen,sun_aqeaevwwwjoqhzvl.tif,211,1.5,0,1.35,9856.490195917,9859.091462708,5,NaN,9859.097052292,9859.115550292,9860.458985458,NaN,NaN
119,12,2,aesthetic,0,kitchen,sun_ahspylgoovwmwvgk.tif,203,1.5,0,1.01666666666667,9860.473653125,9863.114859167,6,NaN,9863.120734417,9863.139293542,9864.149395125,NaN,NaN
119,13,2,aesthetic,0,kitchen,sun_aehawpgmrlhlvcow.tif,191,1.5,0,2,9864.159449125,9866.722397042,7,NaN,9866.728666,9866.747007083,9868.740435875,NaN,NaN
119,14,2,aesthetic,0,kitchen,sun_ahdycvpopffkzzsu.tif,200,1.5,0,0.9,9868.759682583,9871.622402042,1,NaN,9871.648540333,9871.671673667,9872.565018792,NaN,NaN
119,15,2,aesthetic,0,kitchen,sun_akchetnepxlcxhsu.tif,208,1.5,0,1.15,9872.570054542,9875.520529917,2,NaN,9875.550811458,9875.57515725,9876.718603375,NaN,NaN
119,16,2,aesthetic,0,kitchen,sun_abdenxonkemggwsq.tif,179,1.5,0,1.23333333333333,9876.73211975,9879.226491042,5,NaN,9879.232653958,9879.251164125,9880.477916,NaN,NaN
119,17,2,aesthetic,0,kitchen,sun_ajcbwwvdlsvjyzje.tif,206,1.5,0,1.03333333333333,9880.501072542,9882.747364125,6,NaN,9882.75293975,9882.77147675,9883.798216917,NaN,NaN
119,18,2,aesthetic,0,kitchen,sun_acgtpgfybqjmzeyw.tif,185,1.5,0,0.783333333333333,9883.808218708,9886.378560542,3,NaN,9886.384621667,9886.403134292,9887.179809,NaN,NaN
119,19,2,aesthetic,0,kitchen,sun_acwjdupvyjsugpay.tif,186,1.5,0,0.766666666666667,9887.184389875,9890.139039125,3,NaN,9890.166795125,9890.18974975,9890.949756417,NaN,NaN
119,20,2,aesthetic,0,kitchen,sun_auticobqsbwgoppi.tif,214,1.5,0,1.18333333333333,9890.9545705,9894.274990792,2,NaN,9894.280797,9894.299272667,9895.476006542,NaN,NaN
119,21,2,aesthetic,0,kitchen,sun_aenotlpyftoioydp.tif,192,1.5,0,0.7,9895.487307083,9898.891389708,1,NaN,9898.8970095,9898.915483542,9899.608823917,NaN,NaN
119,22,2,aesthetic,0,kitchen,labelme_brsyyvweiuaazfr.tif,171,1.5,0,0.7,9899.613472958,9901.700820458,5,NaN,9901.730717792,9901.753647,9902.447047625,NaN,NaN
119,23,2,aesthetic,0,kitchen,sun_abftihopvusyfakt.tif,181,1.5,0,1.55,9902.461630292,9905.179303958,7,NaN,9905.207676708,9905.230718292,9906.7741315,NaN,NaN
119,24,2,aesthetic,0,kitchen,sun_aarfiyshqohlwkmo.tif,177,1.5,0,1.16666666666667,9906.787496333,9909.17868225,5,NaN,9909.184408,9909.202977792,9910.363078125,NaN,NaN
119,25,2,aesthetic,0,kitchen,sun_amjjdeyrggfqgmom.tif,210,1.5,0,1.68333333333333,9910.373374708,9913.283322083,5,NaN,9913.288857,9913.307348667,9914.984119083,NaN,NaN
