sub_num,trial,block,task,is_practice,category,image,texture,duration,mask_dur,jitter,stim_time,time_of_resp,trial_response,mask_time,fix_time,jit_onset,trial_end,trial_accuracy,RT
111,6,0,complexity,1,kitchen,kitchen_practice5.tif,230,1.5,0,1.46666666666667,3065.384442083,3069.818609125,3,NaN,3069.8243155,3069.842442125,3071.302494458,NaN,NaN
111,7,0,complexity,1,kitchen,kitchen_practice2.tif,227,1.5,0,1.31666666666667,3071.319091583,3074.250572583,7,NaN,3074.25614,3074.274667291,3075.584708958,NaN,NaN
111,8,0,complexity,1,kitchen,kitchen_practice4.tif,229,1.5,0,1.76666666666667,3075.603588958,3079.347029,7,NaN,3079.352507458,3079.370940875,3081.130983291,NaN,NaN
111,9,0,complexity,1,kitchen,kitchen_practice1.tif,226,1.5,0,0.816666666666667,3081.145610583,3084.594921458,6,NaN,3084.601724625,3084.619920125,3085.429926208,NaN,NaN
111,10,0,complexity,1,kitchen,kitchen_practice3.tif,228,1.5,0,0.9,3085.434507625,3088.407215083,3,NaN,3088.436017041,3088.457227958,3089.350565958,NaN,NaN
111,1,1,complexity,0,kitchen,sun_avszsnwsbuqfgzbn.tif,215,1.5,0,1.15,3093.34888275,3095.975751625,6,NaN,3096.003260333,3096.026727166,3097.170114375,NaN,NaN
111,2,1,complexity,0,kitchen,sun_ahpczsiumwwocjkv.tif,202,1.5,0,1.33333333333333,3097.17998775,3100.202217833,5,NaN,3100.207833208,3100.226036041,3101.552739041,NaN,NaN
111,3,1,complexity,0,kitchen,sun_aeqdocilnnpuvuhx.tif,193,1.5,0,1.75,3101.569782166,3104.338734,3,NaN,3104.344200208,3104.362523833,3106.105892666,NaN,NaN
111,4,1,complexity,0,kitchen,sun_ahywdevtimnqcsln.tif,204,1.5,0,1.2,3106.123888291,3109.045808625,5,NaN,3109.076629916,3109.099960875,3110.293323583,NaN,NaN
111,5,1,complexity,0,kitchen,sun_aqeaevwwwjoqhzvl.tif,211,1.5,0,1.46666666666667,3110.30665575,3112.874911083,6,NaN,3112.88027875,3112.898561291,3114.358610583,NaN,NaN
111,6,1,complexity,0,kitchen,sun_aehawpgmrlhlvcow.tif,191,1.5,0,1.01666666666667,3114.378665541,3121.306484666,2,NaN,3121.313452041,3121.332280166,3122.342307875,NaN,NaN
111,7,1,complexity,0,kitchen,sun_agorklincwxrdtga.tif,197,1.5,0,1.18333333333333,3122.349681625,3124.770721333,5,NaN,3124.776081666,3124.794388583,3125.971104125,NaN,NaN
111,8,1,complexity,0,kitchen,sun_agzzivivdpnawacl.tif,199,1.5,0,1.03333333333333,3125.980897041,3129.762429791,5,NaN,3129.768112458,3129.786458458,3130.813159125,NaN,NaN
111,9,1,complexity,0,kitchen,sun_acfmftudsenhrfhy.tif,184,1.5,0,1.25,3130.821923791,3133.794470625,6,NaN,3133.799894541,3133.818149833,3135.061528958,NaN,NaN
111,10,1,complexity,0,kitchen,sun_aarfiyshqohlwkmo.tif,177,1.5,0,0.733333333333333,3135.077930541,3137.954878,6,NaN,3137.9602225,3137.978563291,3138.705235625,NaN,NaN
111,11,1,complexity,0,kitchen,labelme_rykdqxenmhulbdn.tif,173,1.5,0,1.01666666666667,3138.723517958,3141.350180458,4,NaN,3141.37611575,3141.399131791,3142.409172583,NaN,NaN
111,12,1,complexity,0,kitchen,sun_aexklacwqwezaorf.tif,194,1.5,0,1.53333333333333,3142.424981833,3145.234212375,6,NaN,3145.2400085,3145.258415083,3146.7851195,NaN,NaN
111,13,1,complexity,0,kitchen,sun_aunzlwrbjumxhwdj.tif,213,1.5,0,1.33333333333333,3146.803100583,3149.89844325,7,NaN,3149.903971625,3149.922246083,3151.248953958,NaN,NaN
111,14,1,complexity,0,kitchen,sun_ahljzhgcdpomplvg.tif,201,1.5,0,1.53333333333333,3151.267181208,3154.201966333,3,NaN,3154.207802458,3154.226119625,3155.752824958,NaN,NaN
111,15,1,complexity,0,kitchen,labelme_kxvouciolcpqplr.tif,172,1.5,0,1.01666666666667,3155.769934333,3158.426454333,2,NaN,3158.431926041,3158.450466833,3159.46050325,NaN,NaN
111,16,1,complexity,0,kitchen,sun_awcpdzzznmweyyhv.tif,216,1.5,0,1.23333333333333,3159.468255541,3162.0664185,4,NaN,3162.071804416,3162.090097791,3163.316801166,NaN,NaN
111,17,1,complexity,0,kitchen,sun_aaxxjlsuzvqlgylf.tif,178,1.5,0,1.18333333333333,3163.335706416,3166.354769166,5,NaN,3166.360248166,3166.37862075,3167.555306791,NaN,NaN
111,18,1,complexity,0,kitchen,sun_aamedkxepzlwuxes.tif,175,1.5,0,0.783333333333333,3167.563873416,3170.522274708,6,NaN,3170.527751541,3170.546138125,3171.322809833,NaN,NaN
111,19,1,complexity,0,kitchen,sun_ajcbwwvdlsvjyzje.tif,206,1.5,0,1.73333333333333,3171.32733725,3174.205619875,7,NaN,3174.234203666,3174.257448208,3175.984156416,NaN,NaN
111,20,1,complexity,0,kitchen,sun_azmutvzbxypaceni.tif,220,1.5,0,1.21666666666667,3175.997910666,3179.986293583,1,NaN,3179.991788791,3180.010080125,3181.22012825,NaN,NaN
111,21,1,complexity,0,kitchen,sun_acxkpeoqbwcxfvip.tif,187,1.5,0,1.26666666666667,3181.235426041,3184.489919916,5,NaN,3184.495684,3184.514080958,3185.774140375,NaN,NaN
111,22,1,complexity,0,kitchen,sun_aggjlwcdjsjcaemh.tif,196,1.5,0,0.783333333333333,3185.788209583,3188.322189,4,NaN,3188.327965333,3188.346309291,3189.122981333,NaN,NaN
111,23,1,complexity,0,kitchen,sun_aadbddgrdsjugojn.tif,174,1.5,0,1.48333333333333,3189.139879958,3192.003499541,5,NaN,3192.031881166,3192.054153,3193.530878375,NaN,NaN
111,24,1,complexity,0,kitchen,sun_acwjdupvyjsugpay.tif,186,1.5,0,1.36666666666667,3193.547993666,3196.193951916,2,NaN,3196.199424125,3196.217780958,3197.577815791,NaN,NaN
111,25,1,complexity,0,kitchen,sun_auticobqsbwgoppi.tif,214,1.5,0,0.983333333333333,3197.59558925,3200.626464416,3,NaN,3200.631853083,3200.650167083,3201.626839125,NaN,NaN
111,1,2,complexity,0,kitchen,sun_aixorpehvfykdynp.tif,205,1.5,0,1.26666666666667,3209.844715666,3213.0095575,3,NaN,3213.018316708,3213.037286375,3214.297332083,NaN,NaN
111,2,2,complexity,0,kitchen,sun_aypmqwcualkenuoe.tif,219,1.5,0,1.11666666666667,3214.315983541,3216.882006583,7,NaN,3216.887532333,3216.906300583,3218.016355458,NaN,NaN
111,3,2,complexity,0,kitchen,sun_aymvwlarqodbwuoc.tif,218,1.5,0,1.43333333333333,3218.025492,3221.545692166,5,NaN,3221.551598666,3221.569899333,3222.996626625,NaN,NaN
111,4,2,complexity,0,kitchen,sun_amjjdeyrggfqgmom.tif,210,1.5,0,0.8,3223.013166666,3225.802477791,4,NaN,3225.807885541,3225.826058125,3226.619396416,NaN,NaN
111,5,2,complexity,0,kitchen,sun_akcjzhbbjlbogpdi.tif,209,1.5,0,0.733333333333333,3226.624410958,3229.21003425,3,NaN,3229.237995458,3229.261365583,3229.988036416,NaN,NaN
111,6,2,complexity,0,kitchen,sun_abdxkyyxwfskuaqb.tif,180,1.5,0,1.03333333333333,3229.992833375,3232.734969291,5,NaN,3232.763410916,3232.78614975,3233.812859333,NaN,NaN
111,7,2,complexity,0,kitchen,sun_acgtpgfybqjmzeyw.tif,185,1.5,0,1.56666666666667,3233.823247041,3236.409815625,3,NaN,3236.415431875,3236.433815083,3237.993852916,NaN,NaN
111,8,2,complexity,0,kitchen,sun_ahdycvpopffkzzsu.tif,200,1.5,0,0.866666666666667,3238.012493791,3240.602524541,4,NaN,3240.60840725,3240.626751666,3241.486756666,NaN,NaN
111,9,2,complexity,0,kitchen,sun_ajkqhtgcbgpcwrwn.tif,207,1.5,0,0.716666666666667,3241.491714208,3244.283089041,6,NaN,3244.311866708,3244.3350145,3245.045019083,NaN,NaN
111,10,2,complexity,0,kitchen,sun_agubuxuukhzyzpdp.tif,198,1.5,0,1.33333333333333,3245.056435083,3247.493493625,5,NaN,3247.521784333,3247.545139166,3248.87184925,NaN,NaN
111,11,2,complexity,0,kitchen,sun_aegoxogugdkwpmpj.tif,190,1.5,0,1.01666666666667,3248.891448833,3251.38553,7,NaN,3251.391326041,3251.40955925,3252.419615791,NaN,NaN
111,12,2,complexity,0,kitchen,sun_aenotlpyftoioydp.tif,192,1.5,0,0.733333333333333,3252.427583875,3254.882088958,1,NaN,3254.887541291,3254.905875166,3255.632546083,NaN,NaN
111,13,2,complexity,0,kitchen,sun_auaiucuqpdausiva.tif,212,1.5,0,1.38333333333333,3255.636790208,3258.178364791,5,NaN,3258.206482666,3258.229528875,3259.606245166,NaN,NaN
111,14,2,complexity,0,kitchen,sun_aapllqyqlykszopd.tif,176,1.5,0,1.06666666666667,3259.624797875,3262.3294825,4,NaN,3262.335275541,3262.353544125,3263.413601833,NaN,NaN
111,15,2,complexity,0,kitchen,sun_adgqasybjyktddhj.tif,188,1.5,0,0.85,3263.424825458,3265.969530208,3,NaN,3265.975255041,3265.993659,3266.836996541,NaN,NaN
111,16,2,complexity,0,kitchen,labelme_brsyyvweiuaazfr.tif,171,1.5,0,0.9,3266.84143775,3269.686726041,5,NaN,3269.715350125,3269.738339625,3270.631677666,NaN,NaN
111,17,2,complexity,0,kitchen,sun_admlmbcdswaszruo.tif,189,1.5,0,1.55,3270.636414916,3273.265819375,6,NaN,3273.293959916,3273.317388833,3274.860773375,NaN,NaN
111,18,2,complexity,0,kitchen,sun_abrcnpqqhmjwekyf.tif,183,1.5,0,0.7,3274.877202041,3277.826865291,4,NaN,3277.8560535,3277.878901375,3278.572239125,NaN,NaN
111,19,2,complexity,0,kitchen,sun_abdenxonkemggwsq.tif,179,1.5,0,0.716666666666667,3278.576886458,3281.357560291,6,NaN,3281.383740833,3281.406528875,3282.116534083,NaN,NaN
111,20,2,complexity,0,kitchen,sun_akchetnepxlcxhsu.tif,208,1.5,0,0.85,3282.121306708,3284.722758541,5,NaN,3284.751109083,3284.774472666,3285.617811125,NaN,NaN
111,21,2,complexity,0,kitchen,sun_axyyrmzcupyhlivc.tif,217,1.5,0,1.35,3285.622593583,3288.604054208,5,NaN,3288.620879541,3288.642435083,3289.985810541,NaN,NaN
111,22,2,complexity,0,kitchen,sun_abftihopvusyfakt.tif,181,1.5,0,1.96666666666667,3290.002241791,3292.50606275,4,NaN,3292.511480541,3292.529758125,3294.489798625,NaN,NaN
111,23,2,complexity,0,kitchen,sun_afuyedyxivkhecmu.tif,195,1.5,0,0.933333333333333,3294.507651958,3297.584952958,7,NaN,3297.614303041,3297.637548208,3298.564219375,NaN,NaN
111,24,2,complexity,0,kitchen,sun_ahspylgoovwmwvgk.tif,203,1.5,0,1.33333333333333,3298.568928333,3301.309426625,3,NaN,3301.332416291,3301.355776416,3302.682492,NaN,NaN
111,25,2,complexity,0,kitchen,sun_abpwyqmlzafvklqo.tif,182,1.5,0,1.16666666666667,3302.694081583,3305.258272958,2,NaN,3305.263703791,3305.281967291,3306.442026041,NaN,NaN
