slide,sub1,sub2,pairID,trialID,stim1,stim2,instructionsLoop.thisRepN,instructionsLoop.thisTrialN,instructionsLoop.thisN,instructionsLoop.thisIndex,practice.thisRepN,practice.thisTrialN,practice.thisN,practice.thisIndex,trials.thisRepN,trials.thisTrialN,trials.thisN,trials.thisIndex,thisRow.t,notes,preparation.started,preparation.stopped,instructions.started,startResponse.started,slide_img.started,instructions.stopped,startResponse.keys,startResponse.rt,startResponse.duration,trial.started,polygon.started,polygon_2.started,image1.started,image2.started,rating_1.started,question.started,rating_2.started,question_2.started,block_text.started,trial.stopped,stim1pos,stim2pos,block,rating_1.response,rating_1.rt,rating_2.response,rating_2.rt,ITI.started,text.started,text.stopped,ITI.stopped,practice_over.started,text_2.started,space_practice_over.started,practice_over.stopped,space_practice_over.keys,space_practice_over.rt,space_practice_over.duration,breakBlocks.started,breakBlocks.stopped,startBlock.keys,startBlock.started,startBlock.rt,startBlock.duration,end.started,message_end.started,key_resp.started,end.stopped,key_resp.keys,key_resp.rt,key_resp.duration,participant,session,session_number,date,expName,psychopyVersion,frameRate,expStart,
instructions/Slide2.jpg,,,,,,,0,0,0,0,,,,,,,,,0.026072583000086524,,0.0020200419999127917,0.0021282079999309644,0.009437707999950362,0.026072583000086524,0.026072583000086524,16.334343250000074,space,16.308009625000068,None,,,,,,,,,,,,,,,,,,,,,,,,,,,,,,,,,,,,,,,,,,,209,kitchen,1,2024-03-21_11h42.09.306,image_similarity_rating,2023.2.3,None,2024-03-21 11h42.19.717301 +0100,
instructions/Slide3.jpg,,,,,,,0,1,1,1,,,,,,,,,16.35627245799992,,,,16.335242166999933,16.35627245799992,16.35627245799992,24.793545541999947,space,8.43702241599999,None,,,,,,,,,,,,,,,,,,,,,,,,,,,,,,,,,,,,,,,,,,,209,kitchen,1,2024-03-21_11h42.09.306,image_similarity_rating,2023.2.3,None,2024-03-21 11h42.19.717301 +0100,
instructions/Slide4.jpg,,,,,,,0,2,2,2,,,,,,,,,24.81563858300001,,,,24.79413070800001,24.81563858300001,24.81563858300001,26.147456292000015,space,1.3314567499999157,None,,,,,,,,,,,,,,,,,,,,,,,,,,,,,,,,,,,,,,,,,,,209,kitchen,1,2024-03-21_11h42.09.306,image_similarity_rating,2023.2.3,None,2024-03-21 11h42.19.717301 +0100,
instructions/Slide5.jpg,,,,,,,0,3,3,3,,,,,,,,,26.175261458000023,,,,26.148388708000084,26.175261458000023,26.175261458000023,28.748032457999898,space,2.572381499999892,None,,,,,,,,,,,,,,,,,,,,,,,,,,,,,,,,,,,,,,,,,,,209,kitchen,1,2024-03-21_11h42.09.306,image_similarity_rating,2023.2.3,None,2024-03-21 11h42.19.717301 +0100,
,110,107,practice,4,stimuli/own/kitchen/110_kit.jpg,stimuli/own/kitchen/107_kit.jpg,,,,,0,0,0,3,,,,,28.954696083000044,,,,,,,,,,,28.774106000000074,28.954696083000044,28.954696083000044,28.954696083000044,28.954696083000044,28.954696083000044,28.954696083000044,28.954696083000044,28.954696083000044,28.954696083000044,65.29091570800006,-7,7,0,3.0,20.30385799999999,2.0,35.009319917000084,65.291143917,65.29289104200006,65.742950458,65.57777537499987,,,,,,,,,,,,,,,,,,,,,209,kitchen,1,2024-03-21_11h42.09.306,image_similarity_rating,2023.2.3,None,2024-03-21 11h42.19.717301 +0100,
,110,133,practice,1,stimuli/own/kitchen/110_kit.jpg,stimuli/own/kitchen/133_kit.jpg,,,,,0,1,1,0,,,,,65.742950458,,,,,,,,,,,65.57808629200008,65.742950458,65.742950458,65.742950458,65.742950458,65.742950458,65.742950458,65.742950458,65.742950458,65.742950458,104.31593195799996,7,-7,0,4.0,38.40758120800001,4.0,29.88268141599997,104.31607766699994,104.32156125000006,104.77522429200008,104.60603183299986,,,,,,,,,,,,,,,,,,,,,209,kitchen,1,2024-03-21_11h42.09.306,image_similarity_rating,2023.2.3,None,2024-03-21 11h42.19.717301 +0100,
,108,133,practice,10,stimuli/own/kitchen/108_kit.jpg,stimuli/own/kitchen/133_kit.jpg,,,,,0,2,2,9,,,,,104.77522429200008,,,,,,,,,,,104.60646825000003,104.77522429200008,104.77522429200008,104.77522429200008,104.77522429200008,104.77522429200008,104.77522429200008,104.77522429200008,104.77522429200008,104.77522429200008,135.55385366699988,-7,7,0,4.0,30.591574832999868,3.0,27.18701795900006,135.55399520800006,135.5562971249999,136.00887745799992,135.84059424999987,,,,,,,,,,,,,,,,,,,,,209,kitchen,1,2024-03-21_11h42.09.306,image_similarity_rating,2023.2.3,None,2024-03-21 11h42.19.717301 +0100,
,128,133,practice,6,stimuli/own/kitchen/128_kit.jpg,stimuli/own/kitchen/133_kit.jpg,,,,,0,3,3,5,,,,,136.00887745799992,,,,,,,,,,,135.84115566700007,136.00887745799992,136.00887745799992,136.00887745799992,136.00887745799992,136.00887745799992,136.00887745799992,136.00887745799992,136.00887745799992,136.00887745799992,157.22038491700005,7,-7,0,3.0,17.788395291999905,4.0,20.986919499999885,157.22052545799988,157.223100875,157.67332262500008,157.506086375,,,,,,,,,,,,,,,,,,,,,209,kitchen,1,2024-03-21_11h42.09.306,image_similarity_rating,2023.2.3,None,2024-03-21 11h42.19.717301 +0100,
,107,128,practice,7,stimuli/own/kitchen/107_kit.jpg,stimuli/own/kitchen/128_kit.jpg,,,,,0,4,4,6,,,,,157.67332262500008,,,,,,,,,,,157.50652208299994,157.67332262500008,157.67332262500008,157.67332262500008,157.67332262500008,157.67332262500008,157.67332262500008,157.67332262500008,157.67332262500008,157.67332262500008,174.83752787499998,7,-7,0,4.0,17.100076417000082,4.0,12.272203042000001,174.837669,174.83983620799995,175.292790125,175.12712229199997,,,,,,,,,,,,,,,,,,,,,209,kitchen,1,2024-03-21_11h42.09.306,image_similarity_rating,2023.2.3,None,2024-03-21 11h42.19.717301 +0100,
,107,133,practice,9,stimuli/own/kitchen/107_kit.jpg,stimuli/own/kitchen/133_kit.jpg,,,,,0,5,5,8,,,,,175.292790125,,,,,,,,,,,175.12743987499994,175.292790125,175.292790125,175.292790125,175.292790125,175.292790125,175.292790125,175.292790125,175.292790125,175.292790125,193.17349458299987,-7,7,0,4.0,14.541049499999872,3.0,17.627062790999844,193.1736505419999,193.17572074999998,193.623310167,193.4597007499999,,,,,,,,,,,,,,,,,,,,,209,kitchen,1,2024-03-21_11h42.09.306,image_similarity_rating,2023.2.3,None,2024-03-21 11h42.19.717301 +0100,
,108,110,practice,8,stimuli/own/kitchen/108_kit.jpg,stimuli/own/kitchen/110_kit.jpg,,,,,0,6,6,7,,,,,193.623310167,,,,,,,,,,,193.460010625,193.623310167,193.623310167,193.623310167,193.623310167,193.623310167,193.623310167,193.623310167,193.623310167,193.623310167,208.03640462499993,7,-7,0,4.0,14.349551667000014,4.0,11.034032374999924,208.03654875000007,208.03927691700005,208.48938987499992,208.3225506670001,,,,,,,,,,,,,,,,,,,,,209,kitchen,1,2024-03-21_11h42.09.306,image_similarity_rating,2023.2.3,None,2024-03-21 11h42.19.717301 +0100,
,128,108,practice,3,stimuli/own/kitchen/128_kit.jpg,stimuli/own/kitchen/108_kit.jpg,,,,,0,7,7,2,,,,,208.48938987499992,,,,,,,,,,,208.3229638749999,208.48938987499992,208.48938987499992,208.48938987499992,208.48938987499992,208.48938987499992,208.48938987499992,208.48938987499992,208.48938987499992,208.48938987499992,219.5900993329999,-7,7,0,4.0,11.061383666999973,3.0,6.632671332999962,219.59024079200003,219.59231458299996,220.0438167499999,219.87620812499995,,,,,,,,,,,,,,,,,,,,,209,kitchen,1,2024-03-21_11h42.09.306,image_similarity_rating,2023.2.3,None,2024-03-21 11h42.19.717301 +0100,
,110,128,practice,2,stimuli/own/kitchen/110_kit.jpg,stimuli/own/kitchen/128_kit.jpg,,,,,0,8,8,1,,,,,220.0438167499999,,,,,,,,,,,219.876572333,220.0438167499999,220.0438167499999,220.0438167499999,220.0438167499999,220.0438167499999,220.0438167499999,220.0438167499999,220.0438167499999,220.0438167499999,235.70661937499995,7,-7,0,4.0,15.526687417000176,3.0,14.585379332999992,235.706760583,235.7085565,236.15818558299998,235.9926304579999,,,,,,,,,,,,,,,,,,,,,209,kitchen,1,2024-03-21_11h42.09.306,image_similarity_rating,2023.2.3,None,2024-03-21 11h42.19.717301 +0100,
,107,108,practice,5,stimuli/own/kitchen/107_kit.jpg,stimuli/own/kitchen/108_kit.jpg,,,,,0,9,9,4,,,,,236.15818558299998,,,,,,,,,,,235.99300066699993,236.15818558299998,236.15818558299998,236.15818558299998,236.15818558299998,236.15818558299998,236.15818558299998,236.15818558299998,236.15818558299998,236.15818558299998,240.15693633299998,7,-7,0,4.0,2.976707499999975,4.0,3.89819783300004,240.15707900000007,240.15886625000007,240.45497154200007,240.44331387500006,,,,,,,,,,,,,,,,,,,,,209,kitchen,1,2024-03-21_11h42.09.306,image_similarity_rating,2023.2.3,None,2024-03-21 11h42.19.717301 +0100,
,,,,,,,,,,,,,,,,,,,,,,,,,,,,,,,,,,,,,,,,,,,,,,,,,,,,240.44337741699997,240.45497154200007,240.45497154200007,242.9615658749999,space,2.506340874999978,None,,,,,,,,,,,,,,209,kitchen,1,2024-03-21_11h42.09.306,image_similarity_rating,2023.2.3,None,2024-03-21 11h42.19.717301 +0100,
,122,134,452,452,stimuli/own/kitchen/122_kit.jpg,stimuli/own/kitchen/134_kit.jpg,,,,,,,,,0,0,0,451,243.010987375,,,,,,,,,,,243.29387566700007,243.46687124999994,243.46687124999994,243.46687124999994,243.46687124999994,243.46687124999994,243.46687124999994,243.46687124999994,243.46687124999994,243.46687124999994,347.689578083,-7,7,1,3.0,87.66469966699992,3.0,101.44798925000009,243.00872616700008,243.010987375,243.46687124999994,243.29386533299999,,,,,,,,242.99560295800006,243.00844595800004,None,,,,,,,,,,,209,kitchen,1,2024-03-21_11h42.09.306,image_similarity_rating,2023.2.3,None,2024-03-21 11h42.19.717301 +0100,
,101,140,33,33,stimuli/own/kitchen/101_kit.jpg,stimuli/own/kitchen/140_kit.jpg,,,,,,,,,0,1,1,32,347.69814908299986,,,,,,,,,,,347.9884104999999,348.162144958,348.162144958,348.162144958,348.162144958,348.162144958,348.162144958,348.162144958,348.162144958,348.162144958,370.38588270800005,-7,7,1,3.0,21.88844558300002,4.0,12.315537667000171,347.6960282499999,347.69814908299986,348.162144958,347.98839354200004,,,,,,,,347.69015779200004,347.69597858299994,None,,,,,,,,,,,209,kitchen,1,2024-03-21_11h42.09.306,image_similarity_rating,2023.2.3,None,2024-03-21 11h42.19.717301 +0100,
,135,140,579,579,stimuli/own/kitchen/135_kit.jpg,stimuli/own/kitchen/140_kit.jpg,,,,,,,,,0,2,2,578,370.3916005419999,,,,,,,,,,,370.6750085419999,370.83848791700007,370.83848791700007,370.83848791700007,370.83848791700007,370.83848791700007,370.83848791700007,370.83848791700007,370.83848791700007,370.83848791700007,387.18574620799996,-7,7,1,3.0,16.05880358399986,3.0,10.893536666999807,370.389676042,370.3916005419999,370.83848791700007,370.67499820800003,,,,,,,,370.38612791700007,370.38962791699987,None,,,,,,,,,,,209,kitchen,1,2024-03-21_11h42.09.306,image_similarity_rating,2023.2.3,None,2024-03-21 11h42.19.717301 +0100,
,106,126,176,176,stimuli/own/kitchen/106_kit.jpg,stimuli/own/kitchen/126_kit.jpg,,,,,,,,,0,3,3,175,387.19161254200003,,,,,,,,,,,387.475385833,387.6404705,387.6404705,387.6404705,387.6404705,387.6404705,387.6404705,387.6404705,387.6404705,387.6404705,398.53574649999996,-7,7,1,3.0,10.830045874999996,2.0,3.53405004199999,387.18953458300007,387.19161254200003,387.6404705,387.475375708,,,,,,,,387.185996208,387.189486792,None,,,,,,,,,,,209,kitchen,1,2024-03-21_11h42.09.306,image_similarity_rating,2023.2.3,None,2024-03-21 11h42.19.717301 +0100,
,117,127,352,352,stimuli/own/kitchen/117_kit.jpg,stimuli/own/kitchen/127_kit.jpg,,,,,,,,,0,4,4,351,398.541616125,,,,,,,,,,,398.82549062499993,398.990497583,398.990497583,398.990497583,398.990497583,398.990497583,398.990497583,398.990497583,398.990497583,398.990497583,408.69776054199997,-7,7,1,3.0,9.617472707999923,3.0,6.685520332999886,398.53967487499995,398.541616125,398.990497583,398.825478042,,,,,,,,398.53599733300007,398.5396270419999,None,,,,,,,,,,,209,kitchen,1,2024-03-21_11h42.09.306,image_similarity_rating,2023.2.3,None,2024-03-21 11h42.19.717301 +0100,
,129,135,534,534,stimuli/own/kitchen/129_kit.jpg,stimuli/own/kitchen/135_kit.jpg,,,,,,,,,0,5,5,533,408.7034134579999,,,,,,,,,,,408.988161667,409.1541622499999,409.1541622499999,409.1541622499999,409.1541622499999,409.1541622499999,409.1541622499999,409.1541622499999,409.1541622499999,409.1541622499999,424.1560757499999,7,-7,1,3.0,14.825744125000028,2.0,13.711062708999862,408.70146616700004,408.7034134579999,409.1541622499999,408.98814637500004,,,,,,,,408.6979880419999,408.7014180419999,None,,,,,,,,,,,209,kitchen,1,2024-03-21_11h42.09.306,image_similarity_rating,2023.2.3,None,2024-03-21 11h42.19.717301 +0100,
,129,136,535,535,stimuli/own/kitchen/129_kit.jpg,stimuli/own/kitchen/136_kit.jpg,,,,,,,,,0,6,6,534,424.16172866700003,,,,,,,,,,,424.45490674999996,424.6197071249999,424.6197071249999,424.6197071249999,424.6197071249999,424.6197071249999,424.6197071249999,424.6197071249999,424.6197071249999,424.6197071249999,436.00584891699987,-7,7,1,3.0,10.498319249999895,2.0,8.837425416000087,424.15979583299986,424.16172866700003,424.6197071249999,424.454894042,,,,,,,,424.1563007919999,424.159745208,None,,,,,,,,,,,209,kitchen,1,2024-03-21_11h42.09.306,image_similarity_rating,2023.2.3,None,2024-03-21 11h42.19.717301 +0100,
,130,131,541,541,stimuli/own/kitchen/130_kit.jpg,stimuli/own/kitchen/131_kit.jpg,,,,,,,,,0,7,7,540,436.011490417,,,,,,,,,,,436.3047127499999,436.4733972920001,436.4733972920001,436.4733972920001,436.4733972920001,436.4733972920001,436.4733972920001,436.4733972920001,436.4733972920001,436.4733972920001,450.026448542,7,-7,1,3.0,13.402365707999934,2.0,11.846877291000055,436.00954983299994,436.011490417,436.4733972920001,436.30469133299994,,,,,,,,436.00607245800006,436.0095019999999,None,,,,,,,,,,,209,kitchen,1,2024-03-21_11h42.09.306,image_similarity_rating,2023.2.3,None,2024-03-21 11h42.19.717301 +0100,
,126,127,505,505,stimuli/own/kitchen/126_kit.jpg,stimuli/own/kitchen/127_kit.jpg,,,,,,,,,0,8,8,504,450.03671054200004,,,,,,,,,,,450.32124837499987,450.48892991699995,450.48892991699995,450.48892991699995,450.48892991699995,450.48892991699995,450.48892991699995,450.48892991699995,450.48892991699995,450.48892991699995,454.085386125,7,-7,1,3.0,2.4973133329999655,3.0,3.525138332999859,450.03016624999987,450.03671054200004,450.48892991699995,450.32122725,,,,,,,,450.02667275,450.03011916700007,None,,,,,,,,,,,209,kitchen,1,2024-03-21_11h42.09.306,image_similarity_rating,2023.2.3,None,2024-03-21 11h42.19.717301 +0100,
,120,130,414,414,stimuli/own/kitchen/120_kit.jpg,stimuli/own/kitchen/130_kit.jpg,,,,,,,,,0,9,9,413,454.09115533299996,,,,,,,,,,,454.37546062499996,454.54141875000005,454.54141875000005,454.54141875000005,454.54141875000005,454.54141875000005,454.54141875000005,454.54141875000005,454.54141875000005,454.54141875000005,462.889233292,-7,7,1,3.0,6.767380125000045,3.0,8.242824874999997,454.089219083,454.09115533299996,454.54141875000005,454.375447292,,,,,,,,454.0856134169999,454.0891718329999,None,,,,,,,,,,,209,kitchen,1,2024-03-21_11h42.09.306,image_similarity_rating,2023.2.3,None,2024-03-21 11h42.19.717301 +0100,
,102,139,65,604,stimuli/own/kitchen/102_kit.jpg,stimuli/own/kitchen/139_kit.jpg,,,,,,,,,0,10,10,603,462.895035,,,,,,,,,,,463.18788975000007,463.35434858300005,463.35434858300005,463.35434858300005,463.35434858300005,463.35434858300005,463.35434858300005,463.35434858300005,463.35434858300005,463.35434858300005,472.135612625,7,-7,1,3.0,7.377611500000057,2.0,8.618747041000006,462.89294766700004,462.895035,463.35434858300005,463.18787524999993,,,,,,,,462.88945549999994,462.89290004200006,None,,,,,,,,,,,209,kitchen,1,2024-03-21_11h42.09.306,image_similarity_rating,2023.2.3,None,2024-03-21 11h42.19.717301 +0100,
,103,140,98,98,stimuli/own/kitchen/103_kit.jpg,stimuli/own/kitchen/140_kit.jpg,,,,,,,,,0,11,11,97,472.14126533299986,,,,,,,,,,,472.42474908300005,472.58813424999994,472.58813424999994,472.58813424999994,472.58813424999994,472.58813424999994,472.58813424999994,472.58813424999994,472.58813424999994,472.58813424999994,476.67725233300007,7,-7,1,3.0,3.1367764169999646,3.0,3.7867027919999146,472.1393391669999,472.14126533299986,472.58813424999994,472.4247352499999,,,,,,,,472.1358425000001,472.139291167,None,,,,,,,,,,,209,kitchen,1,2024-03-21_11h42.09.306,image_similarity_rating,2023.2.3,None,2024-03-21 11h42.19.717301 +0100,
,114,119,299,299,stimuli/own/kitchen/114_kit.jpg,stimuli/own/kitchen/119_kit.jpg,,,,,,,,,0,12,12,298,476.68657237499997,,,,,,,,,,,476.9711883329999,477.1397070830001,477.1397070830001,477.1397070830001,477.1397070830001,477.1397070830001,477.1397070830001,477.1397070830001,477.1397070830001,477.1397070830001,492.310837667,-7,7,1,4.0,13.937480584000014,3.0,14.973639583000022,476.6809559169999,476.68657237499997,477.1397070830001,476.9711676249999,,,,,,,,476.677484542,476.6809082499999,None,,,,,,,,,,,209,kitchen,1,2024-03-21_11h42.09.306,image_similarity_rating,2023.2.3,None,2024-03-21 11h42.19.717301 +0100,
,105,123,144,144,stimuli/own/kitchen/105_kit.jpg,stimuli/own/kitchen/123_kit.jpg,,,,,,,,,0,13,13,143,492.319788,,,,,,,,,,,492.60441816699995,492.770939,492.770939,492.770939,492.770939,492.770939,492.770939,492.770939,492.770939,492.770939,500.14296616699994,-7,7,1,3.0,6.6688509170001,3.0,7.349300500000027,492.3145327079999,492.319788,492.770939,492.6044045419999,,,,,,,,492.31106075,492.314485292,None,,,,,,,,,,,209,kitchen,1,2024-03-21_11h42.09.306,image_similarity_rating,2023.2.3,None,2024-03-21 11h42.19.717301 +0100,
,126,135,511,511,stimuli/own/kitchen/126_kit.jpg,stimuli/own/kitchen/135_kit.jpg,,,,,,,,,0,14,14,510,500.15320620800003,,,,,,,,,,,500.4377991250001,500.60444574999997,500.60444574999997,500.60444574999997,500.60444574999997,500.60444574999997,500.60444574999997,500.60444574999997,500.60444574999997,500.60444574999997,515.718584208,7,-7,1,4.0,11.816153084000007,3.0,14.939166499999828,500.14666687499994,500.15320620800003,500.60444574999997,500.43778391699993,,,,,,,,500.14318691699987,500.1466190829999,None,,,,,,,,,,,209,kitchen,1,2024-03-21_11h42.09.306,image_similarity_rating,2023.2.3,None,2024-03-21 11h42.19.717301 +0100,
,112,141,270,270,stimuli/own/kitchen/112_kit.jpg,stimuli/own/kitchen/141_kit.jpg,,,,,,,,,0,15,15,269,515.7240755,,,,,,,,,,,516.0086779999999,516.175693417,516.175693417,516.175693417,516.175693417,516.175693417,516.175693417,516.175693417,516.175693417,516.175693417,527.638743125,7,-7,1,3.0,11.461848916000008,2.0,8.03153558300005,515.722324625,515.7240755,516.175693417,516.0086652919999,,,,,,,,515.7188323329999,515.7222769580001,None,,,,,,,,,,,209,kitchen,1,2024-03-21_11h42.09.306,image_similarity_rating,2023.2.3,None,2024-03-21 11h42.19.717301 +0100,
,112,138,267,267,stimuli/own/kitchen/112_kit.jpg,stimuli/own/kitchen/138_kit.jpg,,,,,,,,,0,16,16,266,527.6443825419999,,,,,,,,,,,527.9377465,528.10897,528.10897,528.10897,528.10897,528.10897,528.10897,528.10897,528.10897,528.10897,536.6183974169999,7,-7,1,4.0,8.53478783300011,2.0,5.310914750000165,527.6424529169999,527.6443825419999,528.10897,527.9377173329999,,,,,,,,527.6389670419999,527.6424050830001,None,,,,,,,,,,,209,kitchen,1,2024-03-21_11h42.09.306,image_similarity_rating,2023.2.3,None,2024-03-21 11h42.19.717301 +0100,
,111,118,223,223,stimuli/own/kitchen/111_kit.jpg,stimuli/own/kitchen/118_kit.jpg,,,,,,,,,0,17,17,222,536.6242957079999,,,,,,,,,,,536.9098490419999,537.076279875,537.076279875,537.076279875,537.076279875,537.076279875,537.076279875,537.076279875,537.076279875,537.076279875,547.938760083,7,-7,1,4.0,10.186577416999853,5.0,6.21537037500002,536.6222326669999,536.6242957079999,537.076279875,536.9098343329999,,,,,,,,536.618632167,536.6221853750001,None,,,,,,,,,,,209,kitchen,1,2024-03-21_11h42.09.306,image_similarity_rating,2023.2.3,None,2024-03-21 11h42.19.717301 +0100,
,125,136,499,499,stimuli/own/kitchen/125_kit.jpg,stimuli/own/kitchen/136_kit.jpg,,,,,,,,,0,18,18,498,547.9443799579999,,,,,,,,,,,548.2377616250001,548.4057634169999,548.4057634169999,548.4057634169999,548.4057634169999,548.4057634169999,548.4057634169999,548.4057634169999,548.4057634169999,548.4057634169999,553.4762008749999,7,-7,1,5.0,4.198793165999859,5.0,4.934990958000071,547.9424792499999,547.9443799579999,548.4057634169999,548.237746042,,,,,,,,547.9389846249999,547.9424316249999,None,,,,,,,,,,,209,kitchen,1,2024-03-21_11h42.09.306,image_similarity_rating,2023.2.3,None,2024-03-21 11h42.19.717301 +0100,
,116,140,341,341,stimuli/own/kitchen/116_kit.jpg,stimuli/own/kitchen/140_kit.jpg,,,,,,,,,0,19,19,340,553.4862369580001,,,,,,,,,,,553.7709528749999,553.9428888749999,553.9428888749999,553.9428888749999,553.9428888749999,553.9428888749999,553.9428888749999,553.9428888749999,553.9428888749999,553.9428888749999,562.2402601670001,7,-7,1,4.0,8.308408082999904,3.0,7.429505917000142,553.479902417,553.4862369580001,553.9428888749999,553.7709360829999,,,,,,,,553.476424042,553.479854875,None,,,,,,,,,,,209,kitchen,1,2024-03-21_11h42.09.306,image_similarity_rating,2023.2.3,None,2024-03-21 11h42.19.717301 +0100,
,105,113,135,135,stimuli/own/kitchen/105_kit.jpg,stimuli/own/kitchen/113_kit.jpg,,,,,,,,,0,20,20,134,562.252842542,,,,,,,,,,,562.537482667,562.707997125,562.707997125,562.707997125,562.707997125,562.707997125,562.707997125,562.707997125,562.707997125,562.707997125,569.3638798750001,7,-7,1,3.0,6.354019709000113,4.0,4.242876707999812,562.243988833,562.252842542,562.707997125,562.5374669170001,,,,,,,,562.2405005830001,562.2439413330001,None,,,,,,,,,,,209,kitchen,1,2024-03-21_11h42.09.306,image_similarity_rating,2023.2.3,None,2024-03-21 11h42.19.717301 +0100,
,101,123,18,18,stimuli/own/kitchen/101_kit.jpg,stimuli/own/kitchen/123_kit.jpg,,,,,,,,,0,21,21,17,569.3694148330001,,,,,,,,,,,569.654382167,569.819928917,569.819928917,569.819928917,569.819928917,569.819928917,569.819928917,569.819928917,569.819928917,569.819928917,574.596984542,-7,7,1,5.0,3.1051669589999165,5.0,4.690026500000158,569.3675599579999,569.3694148330001,569.819928917,569.6543699169999,,,,,,,,569.3640989579999,569.367509875,None,,,,,,,,,,,209,kitchen,1,2024-03-21_11h42.09.306,image_similarity_rating,2023.2.3,None,2024-03-21 11h42.19.717301 +0100,
,102,139,65,607,stimuli/own/kitchen/102_kit.jpg,stimuli/own/kitchen/139_kit.jpg,,,,,,,,,0,22,22,606,574.602786292,,,,,,,,,,,574.8874161670001,575.0539233330001,575.0539233330001,575.0539233330001,575.0539233330001,575.0539233330001,575.0539233330001,575.0539233330001,575.0539233330001,575.0539233330001,580.5475227080001,7,-7,1,5.0,4.250209417000178,5.0,5.2557556249998925,574.600673917,574.602786292,575.0539233330001,574.8873886669999,,,,,,,,574.597206333,574.600626375,None,,,,,,,,,,,209,kitchen,1,2024-03-21_11h42.09.306,image_similarity_rating,2023.2.3,None,2024-03-21 11h42.19.717301 +0100,
,101,103,2,2,stimuli/own/kitchen/101_kit.jpg,stimuli/own/kitchen/103_kit.jpg,,,,,,,,,0,23,23,1,580.5696908749999,,,,,,,,,,,580.8536595420001,581.019040417,581.019040417,581.019040417,581.019040417,581.019040417,581.019040417,581.019040417,581.019040417,581.019040417,587.972484417,-7,7,1,4.0,6.969830000000002,4.0,6.042897792000076,580.5512168749999,580.5696908749999,,580.8536422079999,,,,,,,,580.5477438329999,580.5511697079999,None,,,,,,,,,,,209,kitchen,1,2024-03-21_11h42.09.306,image_similarity_rating,2023.2.3,None,2024-03-21 11h42.19.717301 +0100,
,120,134,417,417,stimuli/own/kitchen/120_kit.jpg,stimuli/own/kitchen/134_kit.jpg,,,,,,,,,0,24,24,416,587.9861402920001,,,,,,,,,,,588.2708411670001,588.436640875,588.436640875,588.436640875,588.436640875,588.436640875,588.436640875,588.436640875,588.436640875,588.436640875,596.531538292,-7,7,1,4.0,4.6839330000000245,3.0,7.91860179199989,587.976284292,587.9861402920001,588.436640875,588.2708263750001,,,,,,,,587.9727081670001,587.9762344999999,None,,,,,,,,,,,209,kitchen,1,2024-03-21_11h42.09.306,image_similarity_rating,2023.2.3,None,2024-03-21 11h42.19.717301 +0100,
,103,132,91,91,stimuli/own/kitchen/103_kit.jpg,stimuli/own/kitchen/132_kit.jpg,,,,,,,,,0,25,25,90,596.537364542,,,,,,,,,,,596.820671292,596.993402458,596.993402458,596.993402458,596.993402458,596.993402458,596.993402458,596.993402458,596.993402458,596.993402458,608.288660208,-7,7,1,4.0,10.808462458999884,3.0,7.6155394580000575,596.5353453749999,596.537364542,596.993402458,596.820654417,,,,,,,,596.531768333,596.535297208,None,,,,,,,,,,,209,kitchen,1,2024-03-21_11h42.09.306,image_similarity_rating,2023.2.3,None,2024-03-21 11h42.19.717301 +0100,
,114,118,298,298,stimuli/own/kitchen/114_kit.jpg,stimuli/own/kitchen/118_kit.jpg,,,,,,,,,0,26,26,297,608.294168333,,,,,,,,,,,608.5872858329999,608.7572902919999,608.7572902919999,608.7572902919999,608.7572902919999,608.7572902919999,608.7572902919999,608.7572902919999,608.7572902919999,608.7572902919999,617.8300986669999,7,-7,1,4.0,9.035661833000177,3.0,6.253462958,608.2923987920001,608.294168333,608.7572902919999,608.587269417,,,,,,,,608.2888841669999,608.2923506249999,None,,,,,,,,,,,209,kitchen,1,2024-03-21_11h42.09.306,image_similarity_rating,2023.2.3,None,2024-03-21 11h42.19.717301 +0100,
,134,135,568,568,stimuli/own/kitchen/134_kit.jpg,stimuli/own/kitchen/135_kit.jpg,,,,,,,,,0,27,27,567,617.8357013329999,,,,,,,,,,,618.120616375,618.284597375,618.284597375,618.284597375,618.284597375,618.284597375,618.284597375,618.284597375,618.284597375,618.284597375,638.0642534579999,-7,7,1,4.0,19.71307683300006,4.0,18.04881304200012,617.833789083,617.8357013329999,618.284597375,618.120604042,,,,,,,,617.830322542,617.8337416669999,None,,,,,,,,,,,209,kitchen,1,2024-03-21_11h42.09.306,image_similarity_rating,2023.2.3,None,2024-03-21 11h42.19.717301 +0100,
,102,141,67,67,stimuli/own/kitchen/102_kit.jpg,stimuli/own/kitchen/141_kit.jpg,,,,,,,,,0,28,28,66,638.0711771670001,,,,,,,,,,,638.3578693750001,638.5226948750001,638.5226948750001,638.5226948750001,638.5226948750001,638.5226948750001,638.5226948750001,638.5226948750001,638.5226948750001,638.5226948750001,644.2812079999999,7,-7,1,4.0,5.717204749999837,5.0,3.5810022919999938,638.0679948750001,638.0711771670001,638.5226948750001,638.3578592920001,,,,,,,,638.0644789170001,638.067947583,None,,,,,,,,,,,209,kitchen,1,2024-03-21_11h42.09.306,image_similarity_rating,2023.2.3,None,2024-03-21 11h42.19.717301 +0100,
,118,125,371,371,stimuli/own/kitchen/118_kit.jpg,stimuli/own/kitchen/125_kit.jpg,,,,,,,,,0,29,29,370,644.2870238749999,,,,,,,,,,,644.5713244169999,644.737813167,644.737813167,644.737813167,644.737813167,644.737813167,644.737813167,644.737813167,644.737813167,644.737813167,648.251234417,7,-7,1,5.0,2.8407272499998726,5.0,3.3632014580000487,644.2849518329999,644.2870238749999,644.737813167,644.5713034170001,,,,,,,,644.2814284579999,644.2848900829999,None,,,,,,,,,,,209,kitchen,1,2024-03-21_11h42.09.306,image_similarity_rating,2023.2.3,None,2024-03-21 11h42.19.717301 +0100,
,102,103,35,35,stimuli/own/kitchen/102_kit.jpg,stimuli/own/kitchen/103_kit.jpg,,,,,,,,,0,30,30,34,648.256758042,,,,,,,,,,,648.541070625,648.7065378749999,648.7065378749999,648.7065378749999,648.7065378749999,648.7065378749999,648.7065378749999,648.7065378749999,648.7065378749999,648.7065378749999,661.3049194170001,-7,7,1,3.0,11.66132312500008,4.0,12.50074299999983,648.2549551249999,648.256758042,648.7065378749999,648.5410577499999,,,,,,,,648.2514595,648.254907792,None,,,,,,,,,,,209,kitchen,1,2024-03-21_11h42.09.306,image_similarity_rating,2023.2.3,None,2024-03-21 11h42.19.717301 +0100,
,101,135,28,28,stimuli/own/kitchen/101_kit.jpg,stimuli/own/kitchen/135_kit.jpg,,,,,,,,,0,31,31,27,661.3105396670001,,,,,,,,,,,661.6038247500001,661.7693367499999,661.7693367499999,661.7693367499999,661.7693367499999,661.7693367499999,661.7693367499999,661.7693367499999,661.7693367499999,661.7693367499999,665.506016542,7,-7,1,4.0,3.047764625000127,4.0,2.2820597499999167,661.308607708,661.3105396670001,661.7693367499999,661.603809875,,,,,,,,661.3051393329999,661.30856025,None,,,,,,,,,,,209,kitchen,1,2024-03-21_11h42.09.306,image_similarity_rating,2023.2.3,None,2024-03-21 11h42.19.717301 +0100,
,129,137,536,536,stimuli/own/kitchen/129_kit.jpg,stimuli/own/kitchen/137_kit.jpg,,,,,,,,,0,32,32,535,665.5116687499999,,,,,,,,,,,665.803866167,665.973549417,665.973549417,665.973549417,665.973549417,665.973549417,665.973549417,665.973549417,665.973549417,665.973549417,678.163423,7,-7,1,3.0,8.993096500000092,2.0,12.067034499999863,665.5097257499999,665.5116687499999,665.973549417,665.803843417,,,,,,,,665.506241542,665.5096785420001,None,,,,,,,,,,,209,kitchen,1,2024-03-21_11h42.09.306,image_similarity_rating,2023.2.3,None,2024-03-21 11h42.19.717301 +0100,
,106,136,184,184,stimuli/own/kitchen/106_kit.jpg,stimuli/own/kitchen/136_kit.jpg,,,,,,,,,0,33,33,183,678.1689316669999,,,,,,,,,,,678.453656417,678.619324792,678.619324792,678.619324792,678.619324792,678.619324792,678.619324792,678.619324792,678.619324792,678.619324792,695.213719958,7,-7,1,4.0,16.58143070899996,5.0,11.84221841700014,678.1671202079999,678.1689316669999,678.619324792,678.4536411669999,,,,,,,,678.1636443329999,678.1670697079999,None,,,,,,,,,,,209,kitchen,1,2024-03-21_11h42.09.306,image_similarity_rating,2023.2.3,None,2024-03-21 11h42.19.717301 +0100,
,123,132,467,467,stimuli/own/kitchen/123_kit.jpg,stimuli/own/kitchen/132_kit.jpg,,,,,,,,,0,34,34,466,695.2356627500001,,,,,,,,,,,695.519812542,695.6921635419999,695.6921635419999,695.6921635419999,695.6921635419999,695.6921635419999,695.6921635419999,695.6921635419999,695.6921635419999,695.6921635419999,701.363265958,7,-7,1,4.0,4.755572207999876,4.0,5.548786290999942,695.2174137499999,695.2356627500001,,695.51978925,,,,,,,,695.2139426250001,695.2173662079999,None,,,,,,,,,,,209,kitchen,1,2024-03-21_11h42.09.306,image_similarity_rating,2023.2.3,None,2024-03-21 11h42.19.717301 +0100,
,103,106,70,70,stimuli/own/kitchen/103_kit.jpg,stimuli/own/kitchen/106_kit.jpg,,,,,,,,,0,35,35,69,701.36874575,,,,,,,,,,,701.6533155,701.817938833,701.817938833,701.817938833,701.817938833,701.817938833,701.817938833,701.817938833,701.817938833,701.817938833,708.3633278330001,7,-7,1,3.0,6.568651332999934,2.0,4.332271208000066,701.3669621249999,701.36874575,701.817938833,701.653293583,,,,,,,,701.363488833,701.366914875,None,,,,,,,,,,,209,kitchen,1,2024-03-21_11h42.09.306,image_similarity_rating,2023.2.3,None,2024-03-21 11h42.19.717301 +0100,
,129,132,532,532,stimuli/own/kitchen/129_kit.jpg,stimuli/own/kitchen/132_kit.jpg,,,,,,,,,0,36,36,531,708.3688046249999,,,,,,,,,,,708.6537168329999,708.823379875,708.823379875,708.823379875,708.823379875,708.823379875,708.823379875,708.823379875,708.823379875,708.823379875,712.5801114169999,-7,7,1,3.0,3.807492791999948,2.0,2.3294062919999305,708.3670186249999,708.3688046249999,708.823379875,708.6536914169999,,,,,,,,708.363551917,708.366971125,None,,,,,,,,,,,209,kitchen,1,2024-03-21_11h42.09.306,image_similarity_rating,2023.2.3,None,2024-03-21 11h42.19.717301 +0100,
,132,134,560,560,stimuli/own/kitchen/132_kit.jpg,stimuli/own/kitchen/134_kit.jpg,,,,,,,,,0,37,37,559,712.602361,,,,,,,,,,,712.886407125,713.0533163749999,713.0533163749999,713.0533163749999,713.0533163749999,713.0533163749999,713.0533163749999,713.0533163749999,713.0533163749999,713.0533163749999,716.379958167,7,-7,1,5.0,2.888200667000092,5.0,3.2166989170000306,712.583821083,712.602361,,712.886388417,,,,,,,,712.5803344999999,712.5837725419999,None,,,,,,,,,,,209,kitchen,1,2024-03-21_11h42.09.306,image_similarity_rating,2023.2.3,None,2024-03-21 11h42.19.717301 +0100,
,114,139,317,317,stimuli/own/kitchen/114_kit.jpg,stimuli/own/kitchen/139_kit.jpg,,,,,,,,,0,38,38,316,716.3855207080001,,,,,,,,,,,716.670447667,716.835802375,716.835802375,716.835802375,716.835802375,716.835802375,716.835802375,716.835802375,716.835802375,716.835802375,724.417725458,-7,7,1,4.0,7.553623125000058,3.0,5.469277166999973,716.383746042,716.3855207080001,716.835802375,716.67043375,,,,,,,,716.3801812080001,716.383698292,None,,,,,,,,,,,209,kitchen,1,2024-03-21_11h42.09.306,image_similarity_rating,2023.2.3,None,2024-03-21 11h42.19.717301 +0100,
,118,122,368,368,stimuli/own/kitchen/118_kit.jpg,stimuli/own/kitchen/122_kit.jpg,,,,,,,,,0,39,39,367,724.423700583,,,,,,,,,,,724.709011417,724.8738805830001,724.8738805830001,724.8738805830001,724.8738805830001,724.8738805830001,724.8738805830001,724.8738805830001,724.8738805830001,724.8738805830001,732.300844208,7,-7,1,4.0,6.08421566700008,4.0,7.231666791999942,724.4214527500001,724.423700583,724.8738805830001,724.7089982499999,,,,,,,,724.41796,724.421404792,None,,,,,,,,,,,209,kitchen,1,2024-03-21_11h42.09.306,image_similarity_rating,2023.2.3,None,2024-03-21 11h42.19.717301 +0100,
,119,130,395,395,stimuli/own/kitchen/119_kit.jpg,stimuli/own/kitchen/130_kit.jpg,,,,,,,,,0,40,40,394,732.306585542,,,,,,,,,,,732.590748417,732.7560402920001,732.7560402920001,732.7560402920001,732.7560402920001,732.7560402920001,732.7560402920001,732.7560402920001,732.7560402920001,732.7560402920001,738.2464439999999,-7,7,1,4.0,4.4769408330000715,4.0,5.405966125000077,732.30460225,732.306585542,732.7560402920001,732.590736458,,,,,,,,732.3010682920001,732.304553958,None,,,,,,,,,,,209,kitchen,1,2024-03-21_11h42.09.306,image_similarity_rating,2023.2.3,None,2024-03-21 11h42.19.717301 +0100,
,116,119,322,322,stimuli/own/kitchen/116_kit.jpg,stimuli/own/kitchen/119_kit.jpg,,,,,,,,,0,41,41,321,738.2518821670001,,,,,,,,,,,738.5368935419999,738.7029212079999,738.7029212079999,738.7029212079999,738.7029212079999,738.7029212079999,738.7029212079999,738.7029212079999,738.7029212079999,738.7029212079999,748.663729958,7,-7,1,4.0,9.894771541999944,5.0,8.105954958999973,738.2501292079999,738.2518821670001,738.7029212079999,738.536879792,,,,,,,,738.246666625,738.2500814580001,None,,,,,,,,,,,209,kitchen,1,2024-03-21_11h42.09.306,image_similarity_rating,2023.2.3,None,2024-03-21 11h42.19.717301 +0100,
,104,127,118,118,stimuli/own/kitchen/104_kit.jpg,stimuli/own/kitchen/127_kit.jpg,,,,,,,,,0,42,42,117,748.6701204579999,,,,,,,,,,,748.954012375,749.1195685,749.1195685,749.1195685,749.1195685,749.1195685,749.1195685,749.1195685,749.1195685,749.1195685,752.321926542,7,-7,1,5.0,2.663854666999896,5.0,3.0786070000001473,748.667480583,748.6701204579999,749.1195685,748.9539955,,,,,,,,748.663955708,748.6674332919999,None,,,,,,,,,,,209,kitchen,1,2024-03-21_11h42.09.306,image_similarity_rating,2023.2.3,None,2024-03-21 11h42.19.717301 +0100,
,116,126,329,329,stimuli/own/kitchen/116_kit.jpg,stimuli/own/kitchen/126_kit.jpg,,,,,,,,,0,43,43,328,752.327706,,,,,,,,,,,752.6200960419999,752.786165875,752.786165875,752.786165875,752.786165875,752.786165875,752.786165875,752.786165875,752.786165875,752.786165875,759.558359417,7,-7,1,4.0,6.645089666999866,3.0,5.318898459000138,752.325600917,752.327706,752.786165875,752.6200811250001,,,,,,,,752.3221496250001,752.325553958,None,,,,,,,,,,,209,kitchen,1,2024-03-21_11h42.09.306,image_similarity_rating,2023.2.3,None,2024-03-21 11h42.19.717301 +0100,
,122,141,459,459,stimuli/own/kitchen/122_kit.jpg,stimuli/own/kitchen/141_kit.jpg,,,,,,,,,0,44,44,458,759.568856917,,,,,,,,,,,759.853414875,760.0170021249999,760.0170021249999,760.0170021249999,760.0170021249999,760.0170021249999,760.0170021249999,760.0170021249999,760.0170021249999,760.0170021249999,768.459696375,7,-7,1,4.0,8.387737166000079,4.0,6.98903949999999,759.5620383329999,759.568856917,760.0170021249999,759.853400042,,,,,,,,759.558581583,759.561991542,None,,,,,,,,,,,209,kitchen,1,2024-03-21_11h42.09.306,image_similarity_rating,2023.2.3,None,2024-03-21 11h42.19.717301 +0100,
,114,125,305,305,stimuli/own/kitchen/114_kit.jpg,stimuli/own/kitchen/125_kit.jpg,,,,,,,,,0,45,45,304,768.468646708,,,,,,,,,,,768.7535632080001,768.9181250419999,768.9181250419999,768.9181250419999,768.9181250419999,768.9181250419999,768.9181250419999,768.9181250419999,768.9181250419999,768.9181250419999,772.5230058750001,-7,7,1,5.0,3.5433078749999822,5.0,2.929990332999978,768.4633652919999,768.468646708,768.9181250419999,768.753550167,,,,,,,,768.4599205,768.4633180000001,None,,,,,,,,,,,209,kitchen,1,2024-03-21_11h42.09.306,image_similarity_rating,2023.2.3,None,2024-03-21 11h42.19.717301 +0100,
,121,127,430,430,stimuli/own/kitchen/121_kit.jpg,stimuli/own/kitchen/127_kit.jpg,,,,,,,,,0,46,46,429,772.535347625,,,,,,,,,,,772.8206459999999,772.9873123329999,772.9873123329999,772.9873123329999,772.9873123329999,772.9873123329999,772.9873123329999,772.9873123329999,772.9873123329999,772.9873123329999,779.421152292,-7,7,1,5.0,6.406632333000061,5.0,5.758521125000016,772.5266755,772.535347625,772.9873123329999,772.820631,,,,,,,,772.5232256669999,772.526628458,None,,,,,,,,,,,209,kitchen,1,2024-03-21_11h42.09.306,image_similarity_rating,2023.2.3,None,2024-03-21 11h42.19.717301 +0100,
,122,136,454,454,stimuli/own/kitchen/122_kit.jpg,stimuli/own/kitchen/136_kit.jpg,,,,,,,,,0,47,47,453,779.426577917,,,,,,,,,,,779.7204743749999,779.8857620829999,779.8857620829999,779.8857620829999,779.8857620829999,779.8857620829999,779.8857620829999,779.8857620829999,779.8857620829999,779.8857620829999,785.538519958,7,-7,1,5.0,4.141342207999969,5.0,5.104537250000021,779.424829458,779.426577917,779.8857620829999,779.720461458,,,,,,,,779.421375417,779.4247823329999,None,,,,,,,,,,,209,kitchen,1,2024-03-21_11h42.09.306,image_similarity_rating,2023.2.3,None,2024-03-21 11h42.19.717301 +0100,
,120,125,410,410,stimuli/own/kitchen/120_kit.jpg,stimuli/own/kitchen/125_kit.jpg,,,,,,,,,0,48,48,409,785.5441411669999,,,,,,,,,,,785.8366007499999,786.0023028329999,786.0023028329999,786.0023028329999,786.0023028329999,786.0023028329999,786.0023028329999,786.0023028329999,786.0023028329999,786.0023028329999,797.4389404169999,7,-7,1,5.0,8.425853249999818,5.0,11.29254987499985,785.542197125,785.5441411669999,786.0023028329999,785.836586958,,,,,,,,785.5387566249999,785.542150083,None,,,,,,,,,,,209,kitchen,1,2024-03-21_11h42.09.306,image_similarity_rating,2023.2.3,None,2024-03-21 11h42.19.717301 +0100,
,111,120,225,225,stimuli/own/kitchen/111_kit.jpg,stimuli/own/kitchen/120_kit.jpg,,,,,,,,,0,49,49,224,797.451959125,,,,,,,,,,,797.7366585,797.907848375,797.907848375,797.907848375,797.907848375,797.907848375,797.907848375,797.907848375,797.907848375,797.907848375,805.5385637080001,7,-7,1,4.0,7.444629874999919,5.0,2.893860249999989,797.4429379579999,797.451959125,797.907848375,797.7366420000001,,,,,,,,797.4391822919999,797.4428882919999,None,,,,,,,,,,,209,kitchen,1,2024-03-21_11h42.09.306,image_similarity_rating,2023.2.3,None,2024-03-21 11h42.19.717301 +0100,
,124,127,478,478,stimuli/own/kitchen/124_kit.jpg,stimuli/own/kitchen/127_kit.jpg,,,,,,,,,0,50,50,477,805.544148875,,,,,,,,,,,805.837291667,806.001976125,806.001976125,806.001976125,806.001976125,806.001976125,806.001976125,806.001976125,806.001976125,806.001976125,812.142278583,7,-7,1,5.0,5.491389417000164,5.0,6.034526500000084,805.542248167,805.544148875,806.001976125,805.8372744579999,,,,,,,,805.5387874579999,805.542201167,None,,,,,,,,,,,209,kitchen,1,2024-03-21_11h42.09.306,image_similarity_rating,2023.2.3,None,2024-03-21 11h42.19.717301 +0100,
,104,118,109,109,stimuli/own/kitchen/104_kit.jpg,stimuli/own/kitchen/118_kit.jpg,,,,,,,,,0,51,51,108,812.151851333,,,,,,,,,,,812.4367824169999,812.603247042,812.603247042,812.603247042,812.603247042,812.603247042,812.603247042,812.603247042,812.603247042,812.603247042,821.7507659170001,-7,7,1,4.0,6.67728133300011,4.0,8.961256041999832,812.1459473749999,812.151851333,812.603247042,812.4367682499999,,,,,,,,812.142501458,812.145900167,None,,,,,,,,,,,209,kitchen,1,2024-03-21_11h42.09.306,image_similarity_rating,2023.2.3,None,2024-03-21 11h42.19.717301 +0100,
,119,136,400,400,stimuli/own/kitchen/119_kit.jpg,stimuli/own/kitchen/136_kit.jpg,,,,,,,,,0,52,52,399,821.7565334579999,,,,,,,,,,,822.040069333,822.2028599579999,822.2028599579999,822.2028599579999,822.2028599579999,822.2028599579999,822.2028599579999,822.2028599579999,822.2028599579999,822.2028599579999,829.130031917,7,-7,1,5.0,6.798119332999931,5.0,2.746233916999927,821.7546097919999,821.7565334579999,822.2028599579999,822.0400587920001,,,,,,,,821.7510164170001,821.754562583,None,,,,,,,,,,,209,kitchen,1,2024-03-21_11h42.09.306,image_similarity_rating,2023.2.3,None,2024-03-21 11h42.19.717301 +0100,
,111,125,230,230,stimuli/own/kitchen/111_kit.jpg,stimuli/own/kitchen/125_kit.jpg,,,,,,,,,0,53,53,229,829.152077875,,,,,,,,,,,829.4360174999999,829.602626417,829.602626417,829.602626417,829.602626417,829.602626417,829.602626417,829.602626417,829.602626417,829.602626417,841.946562375,7,-7,1,4.0,11.262069707999899,5.0,12.256218042,829.133780208,829.152077875,,829.43600025,,,,,,,,829.130256167,829.1337329579999,None,,,,,,,,,,,209,kitchen,1,2024-03-21_11h42.09.306,image_similarity_rating,2023.2.3,None,2024-03-21 11h42.19.717301 +0100,
,106,141,189,189,stimuli/own/kitchen/106_kit.jpg,stimuli/own/kitchen/141_kit.jpg,,,,,,,,,0,54,54,188,841.9686629170001,,,,,,,,,,,842.2526572080001,842.4182941669999,842.4182941669999,842.4182941669999,842.4182941669999,842.4182941669999,842.4182941669999,842.4182941669999,842.4182941669999,842.4182941669999,852.1715220419999,-7,7,1,4.0,9.684165083000153,2.0,8.83466204199999,841.9502707500001,841.9686629170001,,842.2526398329999,,,,,,,,841.9467836250001,841.9502235,None,,,,,,,,,,,209,kitchen,1,2024-03-21_11h42.09.306,image_similarity_rating,2023.2.3,None,2024-03-21 11h42.19.717301 +0100,
,102,134,60,60,stimuli/own/kitchen/102_kit.jpg,stimuli/own/kitchen/134_kit.jpg,,,,,,,,,0,55,55,59,852.185003542,,,,,,,,,,,852.469748167,852.6393512919999,852.6393512919999,852.6393512919999,852.6393512919999,852.6393512919999,852.6393512919999,852.6393512919999,852.6393512919999,852.6393512919999,865.3004980000001,-7,7,1,3.0,11.283843417000071,4.0,12.549743165999871,852.175388375,852.185003542,852.6393512919999,852.4697262499999,,,,,,,,852.17175275,852.17533925,None,,,,,,,,,,,209,kitchen,1,2024-03-21_11h42.09.306,image_similarity_rating,2023.2.3,None,2024-03-21 11h42.19.717301 +0100,
,127,135,523,523,stimuli/own/kitchen/127_kit.jpg,stimuli/own/kitchen/135_kit.jpg,,,,,,,,,0,56,56,522,865.3061634579999,,,,,,,,,,,865.5906882919999,865.758578208,865.758578208,865.758578208,865.758578208,865.758578208,865.758578208,865.758578208,865.758578208,865.758578208,869.9672270829999,-7,7,1,4.0,3.6207412919998205,4.0,4.090937166999993,865.3042284169999,865.3061634579999,865.758578208,865.590675208,,,,,,,,865.3007467499999,865.3041809169999,None,,,,,,,,,,,209,kitchen,1,2024-03-21_11h42.09.306,image_similarity_rating,2023.2.3,None,2024-03-21 11h42.19.717301 +0100,
,113,126,282,282,stimuli/own/kitchen/113_kit.jpg,stimuli/own/kitchen/126_kit.jpg,,,,,,,,,0,57,57,281,869.9727101670001,,,,,,,,,,,870.2579728329999,870.422061625,870.422061625,870.422061625,870.422061625,870.422061625,870.422061625,870.422061625,870.422061625,870.422061625,882.5791719169999,7,-7,1,3.0,10.378934165999908,4.0,12.03165416700017,869.9709546669999,869.9727101670001,870.422061625,870.2579626669999,,,,,,,,869.967477375,869.970893292,None,,,,,,,,,,,209,kitchen,1,2024-03-21_11h42.09.306,image_similarity_rating,2023.2.3,None,2024-03-21 11h42.19.717301 +0100,
,112,125,256,256,stimuli/own/kitchen/112_kit.jpg,stimuli/own/kitchen/125_kit.jpg,,,,,,,,,0,58,58,255,882.5846086249999,,,,,,,,,,,882.869548958,883.0388003749999,883.0388003749999,883.0388003749999,883.0388003749999,883.0388003749999,883.0388003749999,883.0388003749999,883.0388003749999,883.0388003749999,892.641885583,7,-7,1,2.0,6.682148374999997,2.0,9.49161325,882.5828455829999,882.5846086249999,883.0388003749999,882.8695326249999,,,,,,,,882.5793954169999,882.5827986249999,None,,,,,,,,,,,209,kitchen,1,2024-03-21_11h42.09.306,image_similarity_rating,2023.2.3,None,2024-03-21 11h42.19.717301 +0100,
,106,113,164,164,stimuli/own/kitchen/106_kit.jpg,stimuli/own/kitchen/113_kit.jpg,,,,,,,,,0,59,59,163,892.6517725419999,,,,,,,,,,,892.9358542499999,893.1019773749999,893.1019773749999,893.1019773749999,893.1019773749999,893.1019773749999,893.1019773749999,893.1019773749999,893.1019773749999,893.1019773749999,897.679278458,-7,7,1,3.0,4.602892166999936,2.0,1.9391464170000745,892.645781917,892.6517725419999,893.1019773749999,892.9358400419999,,,,,,,,892.6421083329999,892.6457317919999,None,,,,,,,,,,,209,kitchen,1,2024-03-21_11h42.09.306,image_similarity_rating,2023.2.3,None,2024-03-21 11h42.19.717301 +0100,
,121,140,441,441,stimuli/own/kitchen/121_kit.jpg,stimuli/own/kitchen/140_kit.jpg,,,,,,,,,0,60,60,440,897.7015859999999,,,,,,,,,,,897.9858080829999,898.151983833,898.151983833,898.151983833,898.151983833,898.151983833,898.151983833,898.151983833,898.151983833,898.151983833,902.741368083,-7,7,1,5.0,3.5544124580001153,5.0,4.453000583999938,897.6829465829999,897.7015859999999,,897.9857904999999,,,,,,,,897.6795010000001,897.6829003329999,None,,,,,,,,,,,209,kitchen,1,2024-03-21_11h42.09.306,image_similarity_rating,2023.2.3,None,2024-03-21 11h42.19.717301 +0100,
,124,131,481,481,stimuli/own/kitchen/124_kit.jpg,stimuli/own/kitchen/131_kit.jpg,,,,,,,,,0,61,61,480,902.7515410829999,,,,,,,,,,,903.0364246249999,903.2006738329999,903.2006738329999,903.2006738329999,903.2006738329999,903.2006738329999,903.2006738329999,903.2006738329999,903.2006738329999,903.2006738329999,918.2168570830001,7,-7,1,3.0,14.813508291000062,3.0,13.79858712500004,902.7450462500001,902.7515410829999,903.2006738329999,903.036411417,,,,,,,,902.741588458,902.744999,None,,,,,,,,,,,209,kitchen,1,2024-03-21_11h42.09.306,image_similarity_rating,2023.2.3,None,2024-03-21 11h42.19.717301 +0100,
,114,137,315,315,stimuli/own/kitchen/114_kit.jpg,stimuli/own/kitchen/137_kit.jpg,,,,,,,,,0,62,62,314,918.222366625,,,,,,,,,,,918.520263833,918.6898829169997,918.6898829169997,918.6898829169997,918.6898829169997,918.6898829169997,918.6898829169997,918.6898829169997,918.6898829169997,918.6898829169997,922.6372839580001,7,-7,1,3.0,3.973737875000097,2.0,3.2961238330003653,918.2205582919999,918.222366625,918.6898829169997,918.5202447919999,,,,,,,,918.2170818329998,918.2205105830001,None,,,,,,,,,,,209,kitchen,1,2024-03-21_11h42.09.306,image_similarity_rating,2023.2.3,None,2024-03-21 11h42.19.717301 +0100,
,118,140,384,384,stimuli/own/kitchen/118_kit.jpg,stimuli/own/kitchen/140_kit.jpg,,,,,,,,,0,63,63,383,922.6429565420001,,,,,,,,,,,927.436047167,927.609970917,927.609970917,927.609970917,927.609970917,927.609970917,927.609970917,927.609970917,927.609970917,927.609970917,939.4411014999998,-7,7,2,4.0,9.70243579199996,4.0,11.697795875000338,927.1374550829998,927.141304167,927.609970917,927.4360307499999,,,,,,,,922.6375058329998,927.1361165830001,space,922.6429565420001,4.49291358299979,None,,,,,,,,209,kitchen,1,2024-03-21_11h42.09.306,image_similarity_rating,2023.2.3,None,2024-03-21 11h42.19.717301 +0100,
,136,139,583,602,stimuli/own/kitchen/136_kit.jpg,stimuli/own/kitchen/139_kit.jpg,,,,,,,,,0,64,64,601,939.4515356670001,,,,,,,,,,,939.7360973329999,939.9082138329998,939.9082138329998,939.9082138329998,939.9082138329998,939.9082138329998,939.9082138329998,939.9082138329998,939.9082138329998,939.9082138329998,957.6039172079998,7,-7,2,4.0,14.693631292000191,3.0,17.50807316700002,939.445482292,939.4515356670001,939.9082138329998,939.7360806250001,,,,,,,,939.4413220829999,939.4454344170001,None,,,,,,,,,,,209,kitchen,1,2024-03-21_11h42.09.306,image_similarity_rating,2023.2.3,None,2024-03-21 11h42.19.717301 +0100,
,127,141,529,529,stimuli/own/kitchen/127_kit.jpg,stimuli/own/kitchen/141_kit.jpg,,,,,,,,,0,65,65,528,957.609470917,,,,,,,,,,,957.9031633749998,958.0697564999998,958.0697564999998,958.0697564999998,958.0697564999998,958.0697564999998,958.0697564999998,958.0697564999998,958.0697564999998,958.0697564999998,960.807792583,7,-7,2,4.0,2.1588063330000296,4.0,2.565390791000027,957.6077092080002,957.609470917,958.0697564999998,957.9031487499999,,,,,,,,957.6041365419999,957.6076624999998,None,,,,,,,,,,,209,kitchen,1,2024-03-21_11h42.09.306,image_similarity_rating,2023.2.3,None,2024-03-21 11h42.19.717301 +0100,
,119,138,402,402,stimuli/own/kitchen/119_kit.jpg,stimuli/own/kitchen/138_kit.jpg,,,,,,,,,0,66,66,401,960.8179662079999,,,,,,,,,,,961.10258,961.2677907919999,961.2677907919999,961.2677907919999,961.2677907919999,961.2677907919999,961.2677907919999,961.2677907919999,961.2677907919999,961.2677907919999,967.5559000420001,-7,7,2,4.0,6.180037207999703,3.0,5.3310743750002985,960.811567042,960.8179662079999,961.2677907919999,961.1025660419998,,,,,,,,960.808015333,960.8115190420001,None,,,,,,,,,,,209,kitchen,1,2024-03-21_11h42.09.306,image_similarity_rating,2023.2.3,None,2024-03-21 11h42.19.717301 +0100,
,113,122,278,278,stimuli/own/kitchen/113_kit.jpg,stimuli/own/kitchen/122_kit.jpg,,,,,,,,,0,67,67,277,967.5679297079998,,,,,,,,,,,967.8535925829999,968.0193178749998,968.0193178749998,968.0193178749998,968.0193178749998,968.0193178749998,968.0193178749998,968.0193178749998,968.0193178749998,968.0193178749998,972.6680443329999,7,-7,2,4.0,3.8656888329996946,2.0,4.63044466700012,967.5596706670001,967.5679297079998,968.0193178749998,967.853574042,,,,,,,,967.5561190420001,967.5596239170002,None,,,,,,,,,,,209,kitchen,1,2024-03-21_11h42.09.306,image_similarity_rating,2023.2.3,None,2024-03-21 11h42.19.717301 +0100,
,127,137,525,525,stimuli/own/kitchen/127_kit.jpg,stimuli/own/kitchen/137_kit.jpg,,,,,,,,,0,68,68,524,972.6741481249999,,,,,,,,,,,972.969175083,973.1360038330001,973.1360038330001,973.1360038330001,973.1360038330001,973.1360038330001,973.1360038330001,973.1360038330001,973.1360038330001,973.1360038330001,977.4507796669998,-7,7,2,4.0,4.252286499999627,3.0,3.6020306249997702,972.6718416669999,972.6741481249999,973.1360038330001,972.9691599999999,,,,,,,,972.668286333,972.671795,None,,,,,,,,,,,209,kitchen,1,2024-03-21_11h42.09.306,image_similarity_rating,2023.2.3,None,2024-03-21 11h42.19.717301 +0100,
,122,123,443,443,stimuli/own/kitchen/122_kit.jpg,stimuli/own/kitchen/123_kit.jpg,,,,,,,,,0,69,69,442,977.4564014579998,,,,,,,,,,,977.740652958,977.9052577079999,977.9052577079999,977.9052577079999,977.9052577079999,977.9052577079999,977.9052577079999,977.9052577079999,977.9052577079999,977.9052577079999,987.02552825,-7,7,2,4.0,9.006753458000276,2.0,7.456356582999888,977.4544631249998,977.4564014579998,977.9052577079999,977.7406431249999,,,,,,,,977.4509983330001,977.4544162919999,None,,,,,,,,,,,209,kitchen,1,2024-03-21_11h42.09.306,image_similarity_rating,2023.2.3,None,2024-03-21 11h42.19.717301 +0100,
,101,130,24,24,stimuli/own/kitchen/101_kit.jpg,stimuli/own/kitchen/130_kit.jpg,,,,,,,,,0,70,70,23,987.0343850830002,,,,,,,,,,,987.3190589170001,987.4842773329999,987.4842773329999,987.4842773329999,987.4842773329999,987.4842773329999,987.4842773329999,987.4842773329999,987.4842773329999,987.4842773329999,992.8534966250002,7,-7,2,5.0,4.092000457999802,5.0,4.696396542000002,987.029222333,987.0343850830002,987.4842773329999,987.3190453330001,,,,,,,,987.0257478330002,987.0291756670001,None,,,,,,,,,,,209,kitchen,1,2024-03-21_11h42.09.306,image_similarity_rating,2023.2.3,None,2024-03-21 11h42.19.717301 +0100,
,127,129,518,518,stimuli/own/kitchen/127_kit.jpg,stimuli/own/kitchen/129_kit.jpg,,,,,,,,,0,71,71,517,992.8592607499997,,,,,,,,,,,993.152452,993.3190292080001,993.3190292080001,993.3190292080001,993.3190292080001,993.3190292080001,993.3190292080001,993.3190292080001,993.3190292080001,993.3190292080001,998.9409889579999,7,-7,2,5.0,4.655712832999598,5.0,5.384516582999822,992.857156625,992.8592607499997,993.3190292080001,993.1524372920001,,,,,,,,992.8537158749998,992.8571097920001,None,,,,,,,,,,,209,kitchen,1,2024-03-21_11h42.09.306,image_similarity_rating,2023.2.3,None,2024-03-21 11h42.19.717301 +0100,
,122,127,447,447,stimuli/own/kitchen/122_kit.jpg,stimuli/own/kitchen/127_kit.jpg,,,,,,,,,0,72,72,446,998.9511217920001,,,,,,,,,,,999.235688125,999.4007596250001,999.4007596250001,999.4007596250001,999.4007596250001,999.4007596250001,999.4007596250001,999.4007596250001,999.4007596250001,999.4007596250001,1003.600280417,-7,7,2,5.0,4.157791292000184,5.0,2.662127416000203,998.9446645,998.9511217920001,999.4007596250001,999.2356739999998,,,,,,,,998.9412089999998,998.9446179170002,None,,,,,,,,,,,209,kitchen,1,2024-03-21_11h42.09.306,image_similarity_rating,2023.2.3,None,2024-03-21 11h42.19.717301 +0100,
,103,113,74,74,stimuli/own/kitchen/103_kit.jpg,stimuli/own/kitchen/113_kit.jpg,,,,,,,,,0,73,73,73,1003.6059130000001,,,,,,,,,,,1003.8909273329998,1004.0566711250001,1004.0566711250001,1004.0566711250001,1004.0566711250001,1004.0566711250001,1004.0566711250001,1004.0566711250001,1004.0566711250001,1004.0566711250001,1008.2620774169998,7,-7,2,4.0,4.164618958000119,5.0,2.609647208000297,1003.6039814170001,1003.6059130000001,1004.0566711250001,1003.8909114579999,,,,,,,,1003.600500792,1003.6039346669997,None,,,,,,,,,,,209,kitchen,1,2024-03-21_11h42.09.306,image_similarity_rating,2023.2.3,None,2024-03-21 11h42.19.717301 +0100,
,103,135,93,93,stimuli/own/kitchen/103_kit.jpg,stimuli/own/kitchen/135_kit.jpg,,,,,,,,,0,74,74,92,1008.2677234579999,,,,,,,,,,,1008.5530046249999,1008.7185805420002,1008.7185805420002,1008.7185805420002,1008.7185805420002,1008.7185805420002,1008.7185805420002,1008.7185805420002,1008.7185805420002,1008.7185805420002,1011.8401080830001,-7,7,2,5.0,3.066997082999933,5.0,2.214983625000059,1008.2657617080001,1008.2677234579999,1008.7185805420002,1008.5529924169998,,,,,,,,1008.262298208,1008.2657150419998,None,,,,,,,,,,,209,kitchen,1,2024-03-21_11h42.09.306,image_similarity_rating,2023.2.3,None,2024-03-21 11h42.19.717301 +0100,
,114,126,306,306,stimuli/own/kitchen/114_kit.jpg,stimuli/own/kitchen/126_kit.jpg,,,,,,,,,0,75,75,305,1011.851025833,,,,,,,,,,,1012.1364621249998,1012.3049079579998,1012.3049079579998,1012.3049079579998,1012.3049079579998,1012.3049079579998,1012.3049079579998,1012.3049079579998,1012.3049079579998,1012.3049079579998,1017.5499069999998,7,-7,2,5.0,4.665031583999735,5.0,5.108814708999944,1011.8438307079998,1011.851025833,1012.3049079579998,1012.1364473749998,,,,,,,,1011.8403322080001,1011.843784417,None,,,,,,,,,,,209,kitchen,1,2024-03-21_11h42.09.306,image_similarity_rating,2023.2.3,None,2024-03-21 11h42.19.717301 +0100,
,105,138,157,157,stimuli/own/kitchen/105_kit.jpg,stimuli/own/kitchen/138_kit.jpg,,,,,,,,,0,76,76,156,1017.5556035000002,,,,,,,,,,,1017.8396019169998,1018.005121125,1018.005121125,1018.005121125,1018.005121125,1018.005121125,1018.005121125,1018.005121125,1018.005121125,1018.005121125,1024.817383708,7,-7,2,4.0,6.70341899999994,5.0,5.56931508300022,1017.5536565,1017.5556035000002,1018.005121125,1017.8395909580001,,,,,,,,1017.5501540419998,1017.5536092499999,None,,,,,,,,,,,209,kitchen,1,2024-03-21_11h42.09.306,image_similarity_rating,2023.2.3,None,2024-03-21 11h42.19.717301 +0100,
,130,141,550,550,stimuli/own/kitchen/130_kit.jpg,stimuli/own/kitchen/141_kit.jpg,,,,,,,,,0,77,77,549,1024.8233346670002,,,,,,,,,,,1025.107770333,1025.272508625,1025.272508625,1025.272508625,1025.272508625,1025.272508625,1025.272508625,1025.272508625,1025.272508625,1025.272508625,1030.4456212080001,7,-7,2,5.0,5.069111957999667,4.0,3.4603140829999575,1024.8212725,1024.8233346670002,1025.272508625,1025.107754458,,,,,,,,1024.817611917,1024.8212255,None,,,,,,,,,,,209,kitchen,1,2024-03-21_11h42.09.306,image_similarity_rating,2023.2.3,None,2024-03-21 11h42.19.717301 +0100,
,112,131,261,261,stimuli/own/kitchen/112_kit.jpg,stimuli/own/kitchen/131_kit.jpg,,,,,,,,,0,78,78,260,1030.4679428329998,,,,,,,,,,,1030.7519490829998,1030.9181409999999,1030.9181409999999,1030.9181409999999,1030.9181409999999,1030.9181409999999,1030.9181409999999,1030.9181409999999,1030.9181409999999,1030.9181409999999,1037.416332292,-7,7,2,3.0,6.3096695420003925,2.0,3.420716832999915,1030.449292958,1030.4679428329998,,1030.751921708,,,,,,,,1030.445842333,1030.4492466250001,None,,,,,,,,,,,209,kitchen,1,2024-03-21_11h42.09.306,image_similarity_rating,2023.2.3,None,2024-03-21 11h42.19.717301 +0100,
,135,139,578,578,stimuli/own/kitchen/135_kit.jpg,stimuli/own/kitchen/139_kit.jpg,,,,,,,,,0,79,79,577,1037.4219057080002,,,,,,,,,,,1037.7066270829998,1037.874744,1037.874744,1037.874744,1037.874744,1037.874744,1037.874744,1037.874744,1037.874744,1037.874744,1045.230281667,7,-7,2,4.0,7.222951291999834,5.0,4.4595934580001995,1037.420082083,1037.4219057080002,1037.874744,1037.7066132500001,,,,,,,,1037.416556042,1037.4200317920001,None,,,,,,,,,,,209,kitchen,1,2024-03-21_11h42.09.306,image_similarity_rating,2023.2.3,None,2024-03-21 11h42.19.717301 +0100,
,129,134,533,533,stimuli/own/kitchen/129_kit.jpg,stimuli/own/kitchen/134_kit.jpg,,,,,,,,,0,80,80,532,1045.236173,,,,,,,,,,,1045.5196722079997,1045.68548875,1045.68548875,1045.68548875,1045.68548875,1045.68548875,1045.68548875,1045.68548875,1045.68548875,1045.68548875,1054.6292233329998,7,-7,2,3.0,7.890256708000379,2.0,8.631611958000121,1045.234007375,1045.236173,1045.68548875,1045.5196563329998,,,,,,,,1045.2304999579999,1045.2339609580001,None,,,,,,,,,,,209,kitchen,1,2024-03-21_11h42.09.306,image_similarity_rating,2023.2.3,None,2024-03-21 11h42.19.717301 +0100,
,117,136,359,359,stimuli/own/kitchen/117_kit.jpg,stimuli/own/kitchen/136_kit.jpg,,,,,,,,,0,81,81,358,1054.63585675,,,,,,,,,,,1054.9190995000001,1055.083244833,1055.083244833,1055.083244833,1055.083244833,1055.083244833,1055.083244833,1055.083244833,1055.083244833,1055.083244833,1059.6371607079998,-7,7,2,5.0,4.049156415999732,5.0,2.9588147919998846,1054.6329264170001,1054.63585675,1055.083244833,1054.9190866249999,,,,,,,,1054.629444375,1054.6328798749998,None,,,,,,,,,,,209,kitchen,1,2024-03-21_11h42.09.306,image_similarity_rating,2023.2.3,None,2024-03-21 11h42.19.717301 +0100,
,114,121,301,301,stimuli/own/kitchen/114_kit.jpg,stimuli/own/kitchen/121_kit.jpg,,,,,,,,,0,82,82,300,1059.6430134169998,,,,,,,,,,,1059.935516375,1060.100042542,1060.100042542,1060.100042542,1060.100042542,1060.100042542,1060.100042542,1060.100042542,1060.100042542,1060.100042542,1069.6998942920002,-7,7,2,5.0,8.80183041700002,5.0,9.425947208999787,1059.641053875,1059.6430134169998,1060.100042542,1059.9355063750002,,,,,,,,1059.6373888750002,1059.64100575,None,,,,,,,,,,,209,kitchen,1,2024-03-21_11h42.09.306,image_similarity_rating,2023.2.3,None,2024-03-21 11h42.19.717301 +0100,
,106,109,161,161,stimuli/own/kitchen/106_kit.jpg,stimuli/own/kitchen/109_kit.jpg,,,,,,,,,0,83,83,160,1069.7053672499999,,,,,,,,,,,1069.9895250000002,1070.154688708,1070.154688708,1070.154688708,1070.154688708,1070.154688708,1070.154688708,1070.154688708,1070.154688708,1070.154688708,1081.616480333,-7,7,2,2.0,11.37041179200014,2.0,7.319426916999873,1069.703618708,1069.7053672499999,1070.154688708,1069.989514,,,,,,,,1069.700129875,1069.7035712079999,None,,,,,,,,,,,209,kitchen,1,2024-03-21_11h42.09.306,image_similarity_rating,2023.2.3,None,2024-03-21 11h42.19.717301 +0100,
,109,112,191,191,stimuli/own/kitchen/109_kit.jpg,stimuli/own/kitchen/112_kit.jpg,,,,,,,,,0,84,84,190,1081.6220112499998,,,,,,,,,,,1081.91969025,1082.0896864580002,1082.0896864580002,1082.0896864580002,1082.0896864580002,1082.0896864580002,1082.0896864580002,1082.0896864580002,1082.0896864580002,1082.0896864580002,1087.73365275,-7,7,2,3.0,5.606819374999759,2.0,2.2121486669998376,1081.620188708,1081.6220112499998,1082.0896864580002,1081.919674,,,,,,,,1081.6167189169998,1081.62014175,None,,,,,,,,,,,209,kitchen,1,2024-03-21_11h42.09.306,image_similarity_rating,2023.2.3,None,2024-03-21 11h42.19.717301 +0100,
,101,124,19,19,stimuli/own/kitchen/101_kit.jpg,stimuli/own/kitchen/124_kit.jpg,,,,,,,,,0,85,85,18,1087.7393627919998,,,,,,,,,,,1088.036218375,1088.202337125,1088.202337125,1088.202337125,1088.202337125,1088.202337125,1088.202337125,1088.202337125,1088.202337125,1088.202337125,1091.7041272919998,7,-7,2,4.0,3.4183839170000283,4.0,2.3605512919998546,1087.7373852919998,1087.7393627919998,1088.202337125,1088.036202208,,,,,,,,1087.7338714579998,1087.7373383329998,None,,,,,,,,,,,209,kitchen,1,2024-03-21_11h42.09.306,image_similarity_rating,2023.2.3,None,2024-03-21 11h42.19.717301 +0100,
,109,126,204,204,stimuli/own/kitchen/109_kit.jpg,stimuli/own/kitchen/126_kit.jpg,,,,,,,,,0,86,86,203,1091.7097420829998,,,,,,,,,,,1092.002171542,1092.168674792,1092.168674792,1092.168674792,1092.168674792,1092.168674792,1092.168674792,1092.168674792,1092.168674792,1092.168674792,1095.8783754170001,-7,7,2,3.0,3.633448542000224,2.0,1.6313212079999175,1091.707806833,1091.7097420829998,1092.168674792,1092.0021575419998,,,,,,,,1091.7043499580002,1091.707760125,None,,,,,,,,,,,209,kitchen,1,2024-03-21_11h42.09.306,image_similarity_rating,2023.2.3,None,2024-03-21 11h42.19.717301 +0100,
,102,126,54,54,stimuli/own/kitchen/102_kit.jpg,stimuli/own/kitchen/126_kit.jpg,,,,,,,,,0,87,87,53,1095.8838185000002,,,,,,,,,,,1096.1695051670001,1096.3348063330002,1096.3348063330002,1096.3348063330002,1096.3348063330002,1096.3348063330002,1096.3348063330002,1096.3348063330002,1096.3348063330002,1096.3348063330002,1101.261571917,-7,7,2,3.0,4.041249249999964,4.0,4.852526125000168,1095.882031125,1095.8838185000002,1096.3348063330002,1096.169492583,,,,,,,,1095.8785948749999,1095.8819851249998,None,,,,,,,,,,,209,kitchen,1,2024-03-21_11h42.09.306,image_similarity_rating,2023.2.3,None,2024-03-21 11h42.19.717301 +0100,
,112,137,266,266,stimuli/own/kitchen/112_kit.jpg,stimuli/own/kitchen/137_kit.jpg,,,,,,,,,0,88,88,265,1101.2674589169999,,,,,,,,,,,1101.5520478750002,1101.720338625,1101.720338625,1101.720338625,1101.720338625,1101.720338625,1101.720338625,1101.720338625,1101.720338625,1101.720338625,1114.20369,7,-7,2,2.0,12.522160666000218,1.0,9.945137459000307,1101.2652420000002,1101.2674589169999,1101.720338625,1101.552031333,,,,,,,,1101.2617896250001,1101.2651952919998,None,,,,,,,,,,,209,kitchen,1,2024-03-21_11h42.09.306,image_similarity_rating,2023.2.3,None,2024-03-21 11h42.19.717301 +0100,
,106,130,179,179,stimuli/own/kitchen/106_kit.jpg,stimuli/own/kitchen/130_kit.jpg,,,,,,,,,0,89,89,178,1114.2096064999998,,,,,,,,,,,1114.5025187499998,1114.667577,1114.667577,1114.667577,1114.667577,1114.667577,1114.667577,1114.667577,1114.667577,1114.667577,1121.5037989579998,7,-7,2,2.0,6.840237458000047,1.0,5.012387041000238,1114.207488875,1114.2096064999998,1114.667577,1114.502504833,,,,,,,,1114.2039162919998,1114.2074409579998,None,,,,,,,,,,,209,kitchen,1,2024-03-21_11h42.09.306,image_similarity_rating,2023.2.3,None,2024-03-21 11h42.19.717301 +0100,
,118,126,372,372,stimuli/own/kitchen/118_kit.jpg,stimuli/own/kitchen/126_kit.jpg,,,,,,,,,0,90,90,371,1121.5094862079998,,,,,,,,,,,1121.802177583,1121.9670320829998,1121.9670320829998,1121.9670320829998,1121.9670320829998,1121.9670320829998,1121.9670320829998,1121.9670320829998,1121.9670320829998,1121.9670320829998,1130.816376042,-7,7,2,2.0,5.619168375000299,2.0,8.73103487499975,1121.5075502500001,1121.5094862079998,1121.9670320829998,1121.8021632500001,,,,,,,,1121.504020875,1121.5075032500001,None,,,,,,,,,,,209,kitchen,1,2024-03-21_11h42.09.306,image_similarity_rating,2023.2.3,None,2024-03-21 11h42.19.717301 +0100,
,103,130,89,89,stimuli/own/kitchen/103_kit.jpg,stimuli/own/kitchen/130_kit.jpg,,,,,,,,,0,91,91,88,1130.822017917,,,,,,,,,,,1131.10607375,1131.270484292,1131.270484292,1131.270484292,1131.270484292,1131.270484292,1131.270484292,1131.270484292,1131.270484292,1131.270484292,1135.311533833,-7,7,2,4.0,3.3054338329998245,4.0,3.9427615829999922,1130.820081,1130.822017917,1131.270484292,1131.1060608330001,,,,,,,,1130.816600583,1130.8200342920002,None,,,,,,,,,,,209,kitchen,1,2024-03-21_11h42.09.306,image_similarity_rating,2023.2.3,None,2024-03-21 11h42.19.717301 +0100,
,105,119,140,140,stimuli/own/kitchen/105_kit.jpg,stimuli/own/kitchen/119_kit.jpg,,,,,,,,,0,92,92,139,1135.31719425,,,,,,,,,,,1135.601893625,1135.771050042,1135.771050042,1135.771050042,1135.771050042,1135.771050042,1135.771050042,1135.771050042,1135.771050042,1135.771050042,1145.4327005419998,-7,7,2,3.0,6.184049750000213,2.0,9.600487749999957,1135.315354083,1135.31719425,1135.771050042,1135.6018634579998,,,,,,,,1135.3117595,1135.315306583,None,,,,,,,,,,,209,kitchen,1,2024-03-21_11h42.09.306,image_similarity_rating,2023.2.3,None,2024-03-21 11h42.19.717301 +0100,
,104,140,129,129,stimuli/own/kitchen/104_kit.jpg,stimuli/own/kitchen/140_kit.jpg,,,,,,,,,0,93,93,128,1145.4384656670002,,,,,,,,,,,1145.722962083,1145.890430708,1145.890430708,1145.890430708,1145.890430708,1145.890430708,1145.890430708,1145.890430708,1145.890430708,1145.890430708,1149.4902635,7,-7,2,4.0,3.0333892080002443,4.0,3.5151109580001503,1145.4365183749999,1145.4384656670002,1145.890430708,1145.722948583,,,,,,,,1145.432932333,1145.4364708750002,None,,,,,,,,,,,209,kitchen,1,2024-03-21_11h42.09.306,image_similarity_rating,2023.2.3,None,2024-03-21 11h42.19.717301 +0100,
,122,130,449,449,stimuli/own/kitchen/122_kit.jpg,stimuli/own/kitchen/130_kit.jpg,,,,,,,,,0,94,94,448,1149.500983625,,,,,,,,,,,1149.7851668750002,1149.9536660830001,1149.9536660830001,1149.9536660830001,1149.9536660830001,1149.9536660830001,1149.9536660830001,1149.9536660830001,1149.9536660830001,1149.9536660830001,1153.887944667,7,-7,2,4.0,3.947078457999851,3.0,3.1116590410001663,1149.494031208,1149.500983625,1149.9536660830001,1149.7851508749998,,,,,,,,1149.4904830829998,1149.493984292,None,,,,,,,,,,,209,kitchen,1,2024-03-21_11h42.09.306,image_similarity_rating,2023.2.3,None,2024-03-21 11h42.19.717301 +0100,
,117,122,347,347,stimuli/own/kitchen/117_kit.jpg,stimuli/own/kitchen/122_kit.jpg,,,,,,,,,0,95,95,346,1153.900499792,,,,,,,,,,,1154.1854016250002,1154.350586333,1154.350586333,1154.350586333,1154.350586333,1154.350586333,1154.350586333,1154.350586333,1154.350586333,1154.350586333,1156.945086292,-7,7,2,4.0,2.5788489579999805,4.0,1.831696207999812,1153.8919914169999,1153.900499792,1154.350586333,1154.185388833,,,,,,,,1153.888177125,1153.89194225,None,,,,,,,,,,,209,kitchen,1,2024-03-21_11h42.09.306,image_similarity_rating,2023.2.3,None,2024-03-21 11h42.19.717301 +0100,
,105,117,138,599,stimuli/own/kitchen/105_kit.jpg,stimuli/own/kitchen/117_kit.jpg,,,,,,,,,0,96,96,598,1156.9674310829998,,,,,,,,,,,1157.251798042,1157.419258792,1157.419258792,1157.419258792,1157.419258792,1157.419258792,1157.419258792,1157.419258792,1157.419258792,1157.419258792,1162.4828599169998,-7,7,2,6.0,3.7740769590000127,6.0,4.738942875000248,1156.948893083,1156.9674310829998,,1157.2517757499998,,,,,,,,1156.9453034169999,1156.948845708,None,,,,,,,,,,,209,kitchen,1,2024-03-21_11h42.09.306,image_similarity_rating,2023.2.3,None,2024-03-21 11h42.19.717301 +0100,
,130,138,547,547,stimuli/own/kitchen/130_kit.jpg,stimuli/own/kitchen/138_kit.jpg,,,,,,,,,0,97,97,546,1162.4886011249998,,,,,,,,,,,1162.772819083,1162.9417746249999,1162.9417746249999,1162.9417746249999,1162.9417746249999,1162.9417746249999,1162.9417746249999,1162.9417746249999,1162.9417746249999,1162.9417746249999,1170.873779542,-7,7,2,5.0,7.431982582999808,5.0,5.736797208000098,1162.4866682499999,1162.4886011249998,1162.9417746249999,1162.7728046250002,,,,,,,,1162.4831014170002,1162.486621708,None,,,,,,,,,,,209,kitchen,1,2024-03-21_11h42.09.306,image_similarity_rating,2023.2.3,None,2024-03-21 11h42.19.717301 +0100,
,136,137,581,581,stimuli/own/kitchen/136_kit.jpg,stimuli/own/kitchen/137_kit.jpg,,,,,,,,,0,98,98,580,1170.8839097500002,,,,,,,,,,,1171.168506792,1171.334604333,1171.334604333,1171.334604333,1171.334604333,1171.334604333,1171.334604333,1171.334604333,1171.334604333,1171.334604333,1176.3954430420001,7,-7,2,4.0,4.985685708999881,2.0,3.76918920900016,1170.8775950830002,1170.8839097500002,1171.334604333,1171.168490833,,,,,,,,1170.8740129579999,1170.877547708,None,,,,,,,,,,,209,kitchen,1,2024-03-21_11h42.09.306,image_similarity_rating,2023.2.3,None,2024-03-21 11h42.19.717301 +0100,
,102,139,65,65,stimuli/own/kitchen/102_kit.jpg,stimuli/own/kitchen/139_kit.jpg,,,,,,,,,0,99,99,64,1176.4021760419998,,,,,,,,,,,1176.6852471250002,1176.847592458,1176.847592458,1176.847592458,1176.847592458,1176.847592458,1176.847592458,1176.847592458,1176.847592458,1176.847592458,1183.1412335419998,-7,7,2,5.0,6.215903916000116,5.0,5.383584790999976,1176.399273958,1176.4021760419998,1176.847592458,1176.685236958,,,,,,,,1176.3956650419998,1176.399225417,None,,,,,,,,,,,209,kitchen,1,2024-03-21_11h42.09.306,image_similarity_rating,2023.2.3,None,2024-03-21 11h42.19.717301 +0100,
,102,119,47,47,stimuli/own/kitchen/102_kit.jpg,stimuli/own/kitchen/119_kit.jpg,,,,,,,,,0,100,100,46,1183.1504359580001,,,,,,,,,,,1183.435106667,1183.599995542,1183.599995542,1183.599995542,1183.599995542,1183.599995542,1183.599995542,1183.599995542,1183.599995542,1183.599995542,1187.4737472079998,-7,7,2,5.0,3.1697728330000245,5.0,3.7746707080000306,1183.1449532079998,1183.1504359580001,1183.599995542,1183.4350917499999,,,,,,,,1183.1414619579998,1183.144906375,None,,,,,,,,,,,209,kitchen,1,2024-03-21_11h42.09.306,image_similarity_rating,2023.2.3,None,2024-03-21 11h42.19.717301 +0100,
,111,121,226,226,stimuli/own/kitchen/111_kit.jpg,stimuli/own/kitchen/121_kit.jpg,,,,,,,,,0,101,101,225,1187.4839236669998,,,,,,,,,,,1187.7684695,1187.9404284169998,1187.9404284169998,1187.9404284169998,1187.9404284169998,1187.9404284169998,1187.9404284169998,1187.9404284169998,1187.9404284169998,1187.9404284169998,1191.857577167,-7,7,2,5.0,2.8335132920001342,4.0,3.86987391699995,1187.477398833,1187.4839236669998,1187.9404284169998,1187.768449042,,,,,,,,1187.473965583,1187.477352,None,,,,,,,,,,,209,kitchen,1,2024-03-21_11h42.09.306,image_similarity_rating,2023.2.3,None,2024-03-21 11h42.19.717301 +0100,
,101,119,14,14,stimuli/own/kitchen/101_kit.jpg,stimuli/own/kitchen/119_kit.jpg,,,,,,,,,0,102,102,13,1191.8674859999999,,,,,,,,,,,1192.1516092079999,1192.3157159169998,1192.3157159169998,1192.3157159169998,1192.3157159169998,1192.3157159169998,1192.3157159169998,1192.3157159169998,1192.3157159169998,1192.3157159169998,1196.658605458,7,-7,2,5.0,4.256151999999929,5.0,3.7247132090001287,1191.8613699169998,1191.8674859999999,1192.3157159169998,1192.1515966250001,,,,,,,,1191.8577967919998,1191.861323167,None,,,,,,,,,,,209,kitchen,1,2024-03-21_11h42.09.306,image_similarity_rating,2023.2.3,None,2024-03-21 11h42.19.717301 +0100,
,119,126,392,392,stimuli/own/kitchen/119_kit.jpg,stimuli/own/kitchen/126_kit.jpg,,,,,,,,,0,103,103,391,1196.6670448749999,,,,,,,,,,,1196.951955375,1197.115680917,1197.115680917,1197.115680917,1197.115680917,1197.115680917,1197.115680917,1197.115680917,1197.115680917,1197.115680917,1201.3212864999998,7,-7,2,5.0,4.0773204160000205,5.0,3.2345282500000394,1196.662399875,1196.6670448749999,1197.115680917,1196.951942458,,,,,,,,1196.658826917,1196.662353167,None,,,,,,,,,,,209,kitchen,1,2024-03-21_11h42.09.306,image_similarity_rating,2023.2.3,None,2024-03-21 11h42.19.717301 +0100,
,112,140,269,269,stimuli/own/kitchen/112_kit.jpg,stimuli/own/kitchen/140_kit.jpg,,,,,,,,,0,104,104,268,1201.333776792,,,,,,,,,,,1201.61895475,1201.7837459999998,1201.7837459999998,1201.7837459999998,1201.7837459999998,1201.7837459999998,1201.7837459999998,1201.7837459999998,1201.7837459999998,1201.7837459999998,1210.515787917,7,-7,2,5.0,8.604465083999912,4.0,6.264522875000239,1201.3249882500002,1201.333776792,1201.7837459999998,1201.618937208,,,,,,,,1201.3215092920002,1201.3249415419998,None,,,,,,,,,,,209,kitchen,1,2024-03-21_11h42.09.306,image_similarity_rating,2023.2.3,None,2024-03-21 11h42.19.717301 +0100,
,105,117,138,598,stimuli/own/kitchen/105_kit.jpg,stimuli/own/kitchen/117_kit.jpg,,,,,,,,,0,105,105,597,1210.521255667,,,,,,,,,,,1210.805589708,1210.9708480420002,1210.9708480420002,1210.9708480420002,1210.9708480420002,1210.9708480420002,1210.9708480420002,1210.9708480420002,1210.9708480420002,1210.9708480420002,1216.59042175,-7,7,2,6.0,4.417971375000434,6.0,5.2443199159997675,1210.5195044169998,1210.521255667,1210.9708480420002,1210.8055777920001,,,,,,,,1210.5160294169998,1210.519457792,None,,,,,,,,,,,209,kitchen,1,2024-03-21_11h42.09.306,image_similarity_rating,2023.2.3,None,2024-03-21 11h42.19.717301 +0100,
,120,141,424,424,stimuli/own/kitchen/120_kit.jpg,stimuli/own/kitchen/141_kit.jpg,,,,,,,,,0,106,106,423,1216.6003868330001,,,,,,,,,,,1216.8851675419999,1217.055143875,1217.055143875,1217.055143875,1217.055143875,1217.055143875,1217.055143875,1217.055143875,1217.055143875,1217.055143875,1230.995375708,7,-7,2,5.0,13.826338958000179,5.0,11.788082791999841,1216.5940825,1216.6003868330001,1217.055143875,1216.885149375,,,,,,,,1216.590646417,1216.594035625,None,,,,,,,,,,,209,kitchen,1,2024-03-21_11h42.09.306,image_similarity_rating,2023.2.3,None,2024-03-21 11h42.19.717301 +0100,
,112,124,255,255,stimuli/own/kitchen/112_kit.jpg,stimuli/own/kitchen/124_kit.jpg,,,,,,,,,0,107,107,254,1231.001553208,,,,,,,,,,,1231.2855471669998,1231.449956917,1231.449956917,1231.449956917,1231.449956917,1231.449956917,1231.449956917,1231.449956917,1231.449956917,1231.449956917,1235.9292830000002,-7,7,2,5.0,4.482170250000308,4.0,3.6289883750000627,1230.9992223749998,1231.001553208,1231.449956917,1231.2855351249998,,,,,,,,1230.9956,1230.999166208,None,,,,,,,,,,,209,kitchen,1,2024-03-21_11h42.09.306,image_similarity_rating,2023.2.3,None,2024-03-21 11h42.19.717301 +0100,
,121,139,440,440,stimuli/own/kitchen/121_kit.jpg,stimuli/own/kitchen/139_kit.jpg,,,,,,,,,0,108,108,439,1235.9350742499998,,,,,,,,,,,1236.2190589579998,1236.385159833,1236.385159833,1236.385159833,1236.385159833,1236.385159833,1236.385159833,1236.385159833,1236.385159833,1236.385159833,1241.5533600420001,-7,7,2,5.0,4.243896208000024,5.0,5.056043540999781,1235.933032958,1235.9350742499998,1236.385159833,1236.2190425000001,,,,,,,,1235.9295025,1235.932986,None,,,,,,,,,,,209,kitchen,1,2024-03-21_11h42.09.306,image_similarity_rating,2023.2.3,None,2024-03-21 11h42.19.717301 +0100,
,134,136,569,569,stimuli/own/kitchen/134_kit.jpg,stimuli/own/kitchen/136_kit.jpg,,,,,,,,,0,109,109,568,1241.558959583,,,,,,,,,,,1241.8514456249998,1242.020125958,1242.020125958,1242.020125958,1242.020125958,1242.020125958,1242.020125958,1242.020125958,1242.020125958,1242.020125958,1248.5447377080002,-7,7,2,6.0,4.852265457999692,6.0,5.162182415999723,1241.5570237079999,1241.558959583,1242.020125958,1241.8514292500001,,,,,,,,1241.5535804170001,1241.556977167,None,,,,,,,,,,,209,kitchen,1,2024-03-21_11h42.09.306,image_similarity_rating,2023.2.3,None,2024-03-21 11h42.19.717301 +0100,
,113,140,294,294,stimuli/own/kitchen/113_kit.jpg,stimuli/own/kitchen/140_kit.jpg,,,,,,,,,0,110,110,293,1248.567277583,,,,,,,,,,,1248.8509735,1249.0191859579998,1249.0191859579998,1249.0191859579998,1249.0191859579998,1249.0191859579998,1249.0191859579998,1249.0191859579998,1249.0191859579998,1249.0191859579998,1259.682288833,-7,7,2,6.0,10.15590474999999,6.0,10.5380757920002,1248.548420708,1248.567277583,,1248.850953167,,,,,,,,1248.544958833,1248.5483740829998,None,,,,,,,,,,,209,kitchen,1,2024-03-21_11h42.09.306,image_similarity_rating,2023.2.3,None,2024-03-21 11h42.19.717301 +0100,
,124,134,483,483,stimuli/own/kitchen/124_kit.jpg,stimuli/own/kitchen/134_kit.jpg,,,,,,,,,0,111,111,482,1259.6880547499998,,,,,,,,,,,1259.9848936249998,1260.1525221670001,1260.1525221670001,1260.1525221670001,1260.1525221670001,1260.1525221670001,1260.1525221670001,1260.1525221670001,1260.1525221670001,1260.1525221670001,1272.0988609580002,7,-7,2,6.0,10.580639332999908,6.0,11.841389416999846,1259.6859940420002,1259.6880547499998,1260.1525221670001,1259.984876875,,,,,,,,1259.6825274169998,1259.685946458,None,,,,,,,,,,,209,kitchen,1,2024-03-21_11h42.09.306,image_similarity_rating,2023.2.3,None,2024-03-21 11h42.19.717301 +0100,
,125,140,503,503,stimuli/own/kitchen/125_kit.jpg,stimuli/own/kitchen/140_kit.jpg,,,,,,,,,0,112,112,502,1272.104515708,,,,,,,,,,,1272.388810667,1272.5543022919999,1272.5543022919999,1272.5543022919999,1272.5543022919999,1272.5543022919999,1272.5543022919999,1272.5543022919999,1272.5543022919999,1272.5543022919999,1276.229079208,-7,7,2,6.0,2.899601000000075,6.0,1.996309583999846,1272.1025876669999,1272.104515708,1272.5543022919999,1272.3887997919999,,,,,,,,1272.099087708,1272.1025406249998,None,,,,,,,,,,,209,kitchen,1,2024-03-21_11h42.09.306,image_similarity_rating,2023.2.3,None,2024-03-21 11h42.19.717301 +0100,
,112,135,264,264,stimuli/own/kitchen/112_kit.jpg,stimuli/own/kitchen/135_kit.jpg,,,,,,,,,0,113,113,263,1276.2351968330001,,,,,,,,,,,1276.522748833,1276.688194917,1276.688194917,1276.688194917,1276.688194917,1276.688194917,1276.688194917,1276.688194917,1276.688194917,1276.688194917,1282.09507625,-7,7,2,5.0,5.143599500000164,5.0,4.132624791000126,1276.2327834169998,1276.2351968330001,1276.688194917,1276.5227364579998,,,,,,,,1276.229298042,1276.232737042,None,,,,,,,,,,,209,kitchen,1,2024-03-21_11h42.09.306,image_similarity_rating,2023.2.3,None,2024-03-21 11h42.19.717301 +0100,
,102,138,64,64,stimuli/own/kitchen/102_kit.jpg,stimuli/own/kitchen/138_kit.jpg,,,,,,,,,0,114,114,63,1282.1013835,,,,,,,,,,,1282.3847870420002,1282.5519161250002,1282.5519161250002,1282.5519161250002,1282.5519161250002,1282.5519161250002,1282.5519161250002,1282.5519161250002,1282.5519161250002,1282.5519161250002,1287.104569125,7,-7,2,5.0,4.4571788329999436,4.0,3.290935792000255,1282.098795,1282.1013835,1282.5519161250002,1282.3847709170002,,,,,,,,1282.0953057079998,1282.0987482500002,None,,,,,,,,,,,209,kitchen,1,2024-03-21_11h42.09.306,image_similarity_rating,2023.2.3,None,2024-03-21 11h42.19.717301 +0100,
,104,135,124,124,stimuli/own/kitchen/104_kit.jpg,stimuli/own/kitchen/135_kit.jpg,,,,,,,,,0,115,115,123,1287.1166848750001,,,,,,,,,,,1287.401372167,1287.5683846250001,1287.5683846250001,1287.5683846250001,1287.5683846250001,1287.5683846250001,1287.5683846250001,1287.5683846250001,1287.5683846250001,1287.5683846250001,1293.6857709170001,7,-7,2,5.0,5.187917041999754,4.0,5.969761250000374,1287.1082415829999,1287.1166848750001,1287.5683846250001,1287.401350625,,,,,,,,1287.1047889170002,1287.10819475,None,,,,,,,,,,,209,kitchen,1,2024-03-21_11h42.09.306,image_similarity_rating,2023.2.3,None,2024-03-21 11h42.19.717301 +0100,
,104,112,104,104,stimuli/own/kitchen/104_kit.jpg,stimuli/own/kitchen/112_kit.jpg,,,,,,,,,0,116,116,103,1293.691358333,,,,,,,,,,,1293.984472625,1294.149877917,1294.149877917,1294.149877917,1294.149877917,1294.149877917,1294.149877917,1294.149877917,1294.149877917,1294.149877917,1300.752739292,-7,7,2,5.0,6.350644583999838,3.0,5.220801208000012,1293.6894223749998,1293.691358333,1294.149877917,1293.984459,,,,,,,,1293.6859886670002,1293.6893755419999,None,,,,,,,,,,,209,kitchen,1,2024-03-21_11h42.09.306,image_similarity_rating,2023.2.3,None,2024-03-21 11h42.19.717301 +0100,
,123,134,468,468,stimuli/own/kitchen/123_kit.jpg,stimuli/own/kitchen/134_kit.jpg,,,,,,,,,0,117,117,467,1300.758443292,,,,,,,,,,,1301.0513549169998,1301.2167942079998,1301.2167942079998,1301.2167942079998,1301.2167942079998,1301.2167942079998,1301.2167942079998,1301.2167942079998,1301.2167942079998,1301.2167942079998,1304.902343125,-7,7,2,5.0,2.6027859589999025,3.0,3.599689708000369,1300.756515667,1300.758443292,1301.2167942079998,1301.0513397920001,,,,,,,,1300.752961458,1300.756468875,None,,,,,,,,,,,209,kitchen,1,2024-03-21_11h42.09.306,image_similarity_rating,2023.2.3,None,2024-03-21 11h42.19.717301 +0100,
,131,137,555,555,stimuli/own/kitchen/131_kit.jpg,stimuli/own/kitchen/137_kit.jpg,,,,,,,,,0,118,118,554,1304.907935292,,,,,,,,,,,1305.2012983329998,1305.3705244999999,1305.3705244999999,1305.3705244999999,1305.3705244999999,1305.3705244999999,1305.3705244999999,1305.3705244999999,1305.3705244999999,1305.3705244999999,1309.985762,-7,7,2,5.0,4.539234917000158,3.0,2.3939573329998893,1304.906007625,1304.907935292,1305.3705244999999,1305.2012822079998,,,,,,,,1304.9025638750002,1304.905961542,None,,,,,,,,,,,209,kitchen,1,2024-03-21_11h42.09.306,image_similarity_rating,2023.2.3,None,2024-03-21 11h42.19.717301 +0100,
,131,139,557,557,stimuli/own/kitchen/131_kit.jpg,stimuli/own/kitchen/139_kit.jpg,,,,,,,,,0,119,119,556,1309.991171125,,,,,,,,,,,1310.2846390829998,1310.4506428329998,1310.4506428329998,1310.4506428329998,1310.4506428329998,1310.4506428329998,1310.4506428329998,1310.4506428329998,1310.4506428329998,1310.4506428329998,1319.5489048329998,7,-7,2,2.0,9.022018000000116,3.0,6.283435457999985,1309.9894229170002,1309.991171125,1310.4506428329998,1310.284624917,,,,,,,,1309.98597975,1309.9893759170002,None,,,,,,,,,,,209,kitchen,1,2024-03-21_11h42.09.306,image_similarity_rating,2023.2.3,None,2024-03-21 11h42.19.717301 +0100,
,126,140,516,516,stimuli/own/kitchen/126_kit.jpg,stimuli/own/kitchen/140_kit.jpg,,,,,,,,,0,120,120,515,1319.554548375,,,,,,,,,,,1319.8390107500002,1320.0041562919998,1320.0041562919998,1320.0041562919998,1320.0041562919998,1320.0041562919998,1320.0041562919998,1320.0041562919998,1320.0041562919998,1320.0041562919998,1332.3608269580002,7,-7,2,5.0,11.669724416000008,5.0,12.358371124999849,1319.5526258749999,1319.554548375,1320.0041562919998,1319.838997042,,,,,,,,1319.5491451249998,1319.55257925,None,,,,,,,,,,,209,kitchen,1,2024-03-21_11h42.09.306,image_similarity_rating,2023.2.3,None,2024-03-21 11h42.19.717301 +0100,
,129,140,539,539,stimuli/own/kitchen/129_kit.jpg,stimuli/own/kitchen/140_kit.jpg,,,,,,,,,0,121,121,538,1332.366442417,,,,,,,,,,,1332.651251292,1332.8171762079999,1332.8171762079999,1332.8171762079999,1332.8171762079999,1332.8171762079999,1332.8171762079999,1332.8171762079999,1332.8171762079999,1332.8171762079999,1344.368897833,-7,7,2,3.0,11.42655645800005,2.0,5.7784666249999646,1332.3644899580001,1332.366442417,1332.8171762079999,1332.651236417,,,,,,,,1332.3610446249997,1332.364443542,None,,,,,,,,,,,209,kitchen,1,2024-03-21_11h42.09.306,image_similarity_rating,2023.2.3,None,2024-03-21 11h42.19.717301 +0100,
,120,124,409,409,stimuli/own/kitchen/120_kit.jpg,stimuli/own/kitchen/124_kit.jpg,,,,,,,,,0,122,122,408,1344.3743214170001,,,,,,,,,,,1344.667873875,1344.8403421249998,1344.8403421249998,1344.8403421249998,1344.8403421249998,1344.8403421249998,1344.8403421249998,1344.8403421249998,1344.8403421249998,1344.8403421249998,1350.4900180000002,7,-7,2,3.0,4.705536250000023,3.0,5.477548165999906,1344.3725632919998,1344.3743214170001,1344.8403421249998,1344.667856583,,,,,,,,1344.3691165419998,1344.3725164579998,None,,,,,,,,,,,209,kitchen,1,2024-03-21_11h42.09.306,image_similarity_rating,2023.2.3,None,2024-03-21 11h42.19.717301 +0100,
,109,125,203,203,stimuli/own/kitchen/109_kit.jpg,stimuli/own/kitchen/125_kit.jpg,,,,,,,,,0,123,123,202,1350.4997901670001,,,,,,,,,,,1350.7845722499999,1350.9482501250002,1350.9482501250002,1350.9482501250002,1350.9482501250002,1350.9482501250002,1350.9482501250002,1350.9482501250002,1350.9482501250002,1350.9482501250002,1359.0574920420001,-7,7,2,3.0,8.079691624999668,1.0,4.5242920000000595,1350.4937683330002,1350.4997901670001,1350.9482501250002,1350.7845595420001,,,,,,,,1350.490237542,1350.4937226250001,None,,,,,,,,,,,209,kitchen,1,2024-03-21_11h42.09.306,image_similarity_rating,2023.2.3,None,2024-03-21 11h42.19.717301 +0100,
,105,117,138,138,stimuli/own/kitchen/105_kit.jpg,stimuli/own/kitchen/117_kit.jpg,,,,,,,,,0,124,124,137,1359.0664479169998,,,,,,,,,,,1359.351066,1359.519493,1359.519493,1359.519493,1359.519493,1359.519493,1359.519493,1359.519493,1359.519493,1359.519493,1362.8606258749999,-7,7,2,6.0,2.438153749999856,6.0,3.065748542000165,1359.061169208,1359.0664479169998,1359.519493,1359.3510492500002,,,,,,,,1359.057715625,1359.061122417,None,,,,,,,,,,,209,kitchen,1,2024-03-21_11h42.09.306,image_similarity_rating,2023.2.3,None,2024-03-21 11h42.19.717301 +0100,
,121,137,438,438,stimuli/own/kitchen/121_kit.jpg,stimuli/own/kitchen/137_kit.jpg,,,,,,,,,0,125,125,437,1362.866455958,,,,,,,,,,,1363.1510445830002,1363.3162599169998,1363.3162599169998,1363.3162599169998,1363.3162599169998,1363.3162599169998,1363.3162599169998,1363.3162599169998,1363.3162599169998,1363.3162599169998,1372.785784375,7,-7,2,4.0,7.530768499999795,4.0,9.345316833999732,1362.864278542,1362.866455958,1363.3162599169998,1363.151029292,,,,,,,,1362.8608469170001,1362.8642320830002,None,,,,,,,,,,,209,kitchen,1,2024-03-21_11h42.09.306,image_similarity_rating,2023.2.3,None,2024-03-21 11h42.19.717301 +0100,
,109,129,206,206,stimuli/own/kitchen/109_kit.jpg,stimuli/own/kitchen/129_kit.jpg,,,,,,,,,0,126,126,205,1372.791455708,,,,,,,,,,,1376.051239958,1376.2252180829998,1376.2252180829998,1376.2252180829998,1376.2252180829998,1376.2252180829998,1376.2252180829998,1376.2252180829998,1376.2252180829998,1376.2252180829998,1382.168886875,-7,7,3,3.0,5.9196048750000045,1.0,4.435969665999892,1375.7538522920001,1375.757974417,1376.2252180829998,1376.051203917,,,,,,,,1372.7860053749998,1375.7531657920001,space,1372.791455708,2.9614501249998284,None,,,,,,,,209,kitchen,1,2024-03-21_11h42.09.306,image_similarity_rating,2023.2.3,None,2024-03-21 11h42.19.717301 +0100,
,102,136,62,62,stimuli/own/kitchen/102_kit.jpg,stimuli/own/kitchen/136_kit.jpg,,,,,,,,,0,127,127,61,1382.175029875,,,,,,,,,,,1382.4677132499999,1382.634179542,1382.634179542,1382.634179542,1382.634179542,1382.634179542,1382.634179542,1382.634179542,1382.634179542,1382.634179542,1395.153481125,7,-7,3,3.0,11.742150000000038,3.0,12.45118333299979,1382.173104542,1382.175029875,1382.634179542,1382.4676970829998,,,,,,,,1382.169120792,1382.173056667,None,,,,,,,,,,,209,kitchen,1,2024-03-21_11h42.09.306,image_similarity_rating,2023.2.3,None,2024-03-21 11h42.19.717301 +0100,
,112,132,262,609,stimuli/own/kitchen/112_kit.jpg,stimuli/own/kitchen/132_kit.jpg,,,,,,,,,0,128,128,608,1395.166316083,,,,,,,,,,,1395.4508882080002,1395.6169634169999,1395.6169634169999,1395.6169634169999,1395.6169634169999,1395.6169634169999,1395.6169634169999,1395.6169634169999,1395.6169634169999,1395.6169634169999,1401.8900556669998,7,-7,3,5.0,5.6366632919998665,4.0,6.250126999999793,1395.157270292,1395.166316083,1395.6169634169999,1395.450874333,,,,,,,,1395.1537042920002,1395.1572213329998,None,,,,,,,,,,,209,kitchen,1,2024-03-21_11h42.09.306,image_similarity_rating,2023.2.3,None,2024-03-21 11h42.19.717301 +0100,
,137,139,587,587,stimuli/own/kitchen/137_kit.jpg,stimuli/own/kitchen/139_kit.jpg,,,,,,,,,0,129,129,586,1401.8996065,,,,,,,,,,,1402.184302375,1402.349337167,1402.349337167,1402.349337167,1402.349337167,1402.349337167,1402.349337167,1402.349337167,1402.349337167,1402.349337167,1406.454369708,7,-7,3,4.0,3.9763675419999345,5.0,3.2558648330000324,1401.893779792,1401.8996065,1402.349337167,1402.184285875,,,,,,,,1401.8902943330002,1401.893732625,None,,,,,,,,,,,209,kitchen,1,2024-03-21_11h42.09.306,image_similarity_rating,2023.2.3,None,2024-03-21 11h42.19.717301 +0100,
,114,134,312,312,stimuli/own/kitchen/114_kit.jpg,stimuli/own/kitchen/134_kit.jpg,,,,,,,,,0,130,130,311,1406.4662154579999,,,,,,,,,,,1406.7518037920001,1406.9167045830002,1406.9167045830002,1406.9167045830002,1406.9167045830002,1406.9167045830002,1406.9167045830002,1406.9167045830002,1406.9167045830002,1406.9167045830002,1410.627477917,-7,7,3,6.0,3.1642241660001673,6.0,3.636031415999696,1406.458034292,1406.4662154579999,1406.9167045830002,1406.7517905829998,,,,,,,,1406.454589542,1406.4579878749998,None,,,,,,,,,,,209,kitchen,1,2024-03-21_11h42.09.306,image_similarity_rating,2023.2.3,None,2024-03-21 11h42.19.717301 +0100,
,105,127,148,148,stimuli/own/kitchen/105_kit.jpg,stimuli/own/kitchen/127_kit.jpg,,,,,,,,,0,131,131,147,1410.6495777080002,,,,,,,,,,,1410.93373575,1411.0986919169998,1411.0986919169998,1411.0986919169998,1411.0986919169998,1411.0986919169998,1411.0986919169998,1411.0986919169998,1411.0986919169998,1411.0986919169998,1424.4353721670002,7,-7,3,5.0,13.24596829200027,6.0,5.131657790999725,1410.631226667,1410.6495777080002,,1410.9337135419999,,,,,,,,1410.627696875,1410.63117975,None,,,,,,,,,,,209,kitchen,1,2024-03-21_11h42.09.306,image_similarity_rating,2023.2.3,None,2024-03-21 11h42.19.717301 +0100,
,113,117,273,273,stimuli/own/kitchen/113_kit.jpg,stimuli/own/kitchen/117_kit.jpg,,,,,,,,,0,132,132,272,1424.4409551249998,,,,,,,,,,,1424.734188625,1424.902022083,1424.902022083,1424.902022083,1424.902022083,1424.902022083,1424.902022083,1424.902022083,1424.902022083,1424.902022083,1430.50684325,7,-7,3,5.0,4.657354082999973,4.0,5.423891791999722,1424.439033625,1424.4409551249998,1424.902022083,1424.7341722079998,,,,,,,,1424.435591958,1424.4389872499999,None,,,,,,,,,,,209,kitchen,1,2024-03-21_11h42.09.306,image_similarity_rating,2023.2.3,None,2024-03-21 11h42.19.717301 +0100,
,101,127,22,22,stimuli/own/kitchen/101_kit.jpg,stimuli/own/kitchen/127_kit.jpg,,,,,,,,,0,133,133,21,1430.5166001250002,,,,,,,,,,,1430.800813875,1430.97044725,1430.97044725,1430.97044725,1430.97044725,1430.97044725,1430.97044725,1430.97044725,1430.97044725,1430.97044725,1436.9936410419998,-7,7,3,5.0,5.507087375000083,6.0,5.937020958000176,1430.5106000419999,1430.5166001250002,1430.97044725,1430.800797708,,,,,,,,1430.5070630829998,1430.510553625,None,,,,,,,,,,,209,kitchen,1,2024-03-21_11h42.09.306,image_similarity_rating,2023.2.3,None,2024-03-21 11h42.19.717301 +0100,
,104,113,105,105,stimuli/own/kitchen/104_kit.jpg,stimuli/own/kitchen/113_kit.jpg,,,,,,,,,0,134,134,104,1436.999470042,,,,,,,,,,,1437.2840144999998,1437.4505177919998,1437.4505177919998,1437.4505177919998,1437.4505177919998,1437.4505177919998,1437.4505177919998,1437.4505177919998,1437.4505177919998,1437.4505177919998,1443.2482285419999,7,-7,3,5.0,4.996777416999976,6.0,5.69703491700011,1436.9973091670001,1436.999470042,1437.4505177919998,1437.28399875,,,,,,,,1436.9938635,1436.997263,None,,,,,,,,,,,209,kitchen,1,2024-03-21_11h42.09.306,image_similarity_rating,2023.2.3,None,2024-03-21 11h42.19.717301 +0100,
,118,120,366,366,stimuli/own/kitchen/118_kit.jpg,stimuli/own/kitchen/120_kit.jpg,,,,,,,,,0,135,135,365,1443.2537331249998,,,,,,,,,,,1443.538672167,1443.70337,1443.70337,1443.70337,1443.70337,1443.70337,1443.70337,1443.70337,1443.70337,1443.70337,1450.531762167,7,-7,3,5.0,6.253139375000046,4.0,4.641923292000229,1443.251929875,1443.2537331249998,1443.70337,1443.538658542,,,,,,,,1443.2484603330001,1443.251882625,None,,,,,,,,,,,209,kitchen,1,2024-03-21_11h42.09.306,image_similarity_rating,2023.2.3,None,2024-03-21 11h42.19.717301 +0100,
,113,119,275,275,stimuli/own/kitchen/113_kit.jpg,stimuli/own/kitchen/119_kit.jpg,,,,,,,,,0,136,136,274,1450.537558417,,,,,,,,,,,1450.8214075829999,1450.987908542,1450.987908542,1450.987908542,1450.987908542,1450.987908542,1450.987908542,1450.987908542,1450.987908542,1450.987908542,1458.0857347079998,-7,7,3,4.0,7.017442208000375,3.0,3.9857617080001546,1450.5354695419999,1450.537558417,1450.987908542,1450.821396167,,,,,,,,1450.5319957079998,1450.535422833,None,,,,,,,,,,,209,kitchen,1,2024-03-21_11h42.09.306,image_similarity_rating,2023.2.3,None,2024-03-21 11h42.19.717301 +0100,
,117,137,360,360,stimuli/own/kitchen/117_kit.jpg,stimuli/own/kitchen/137_kit.jpg,,,,,,,,,0,137,137,359,1458.091266958,,,,,,,,,,,1458.384171083,1458.5497435,1458.5497435,1458.5497435,1458.5497435,1458.5497435,1458.5497435,1458.5497435,1458.5497435,1458.5497435,1464.464780042,-7,7,3,5.0,5.814866667000388,3.0,3.614451332999579,1458.0895005,1458.091266958,1458.5497435,1458.384157583,,,,,,,,1458.0859589999998,1458.0894527500002,None,,,,,,,,,,,209,kitchen,1,2024-03-21_11h42.09.306,image_similarity_rating,2023.2.3,None,2024-03-21 11h42.19.717301 +0100,
,113,114,271,271,stimuli/own/kitchen/113_kit.jpg,stimuli/own/kitchen/114_kit.jpg,,,,,,,,,0,138,138,270,1464.4704128330002,,,,,,,,,,,1464.7544893329998,1464.921135458,1464.921135458,1464.921135458,1464.921135458,1464.921135458,1464.921135458,1464.921135458,1464.921135458,1464.921135458,1473.735116875,7,-7,3,5.0,8.538991875000193,4.0,7.237683415999982,1464.4684816669999,1464.4704128330002,1464.921135458,1464.754476167,,,,,,,,1464.465002875,1464.468435,None,,,,,,,,,,,209,kitchen,1,2024-03-21_11h42.09.306,image_similarity_rating,2023.2.3,None,2024-03-21 11h42.19.717301 +0100,
,131,132,551,551,stimuli/own/kitchen/131_kit.jpg,stimuli/own/kitchen/132_kit.jpg,,,,,,,,,0,139,139,550,1473.740825958,,,,,,,,,,,1474.0341472500002,1474.1972778329998,1474.1972778329998,1474.1972778329998,1474.1972778329998,1474.1972778329998,1474.1972778329998,1474.1972778329998,1474.1972778329998,1474.1972778329998,1479.648105292,-7,7,3,4.0,5.496909333000076,2.0,3.5216215000000375,1473.738878167,1473.740825958,1474.1972778329998,1474.0341369169998,,,,,,,,1473.735337375,1473.73882875,None,,,,,,,,,,,209,kitchen,1,2024-03-21_11h42.09.306,image_similarity_rating,2023.2.3,None,2024-03-21 11h42.19.717301 +0100,
,136,139,583,583,stimuli/own/kitchen/136_kit.jpg,stimuli/own/kitchen/139_kit.jpg,,,,,,,,,0,140,140,582,1479.6538657499998,,,,,,,,,,,1479.9378332079998,1480.1015331669998,1480.1015331669998,1480.1015331669998,1480.1015331669998,1480.1015331669998,1480.1015331669998,1480.1015331669998,1480.1015331669998,1480.1015331669998,1489.3481678750002,-7,7,3,4.0,5.573635124999782,3.0,4.0959361250002075,1479.651941167,1479.6538657499998,1480.1015331669998,1479.9378205,,,,,,,,1479.6483391250001,1479.651894625,None,,,,,,,,,,,209,kitchen,1,2024-03-21_11h42.09.306,image_similarity_rating,2023.2.3,None,2024-03-21 11h42.19.717301 +0100,
,136,139,583,600,stimuli/own/kitchen/136_kit.jpg,stimuli/own/kitchen/139_kit.jpg,,,,,,,,,0,141,141,599,1489.3538757919998,,,,,,,,,,,1489.637892042,1489.803882292,1489.803882292,1489.803882292,1489.803882292,1489.803882292,1489.803882292,1489.803882292,1489.803882292,1489.803882292,1496.806171458,7,-7,3,4.0,7.051019250000081,2.0,4.865652874999796,1489.3519168330001,1489.3538757919998,1489.803882292,1489.637874833,,,,,,,,1489.3484181249999,1489.351870708,None,,,,,,,,,,,209,kitchen,1,2024-03-21_11h42.09.306,image_similarity_rating,2023.2.3,None,2024-03-21 11h42.19.717301 +0100,
,111,132,236,236,stimuli/own/kitchen/111_kit.jpg,stimuli/own/kitchen/132_kit.jpg,,,,,,,,,0,142,142,235,1496.816043042,,,,,,,,,,,1497.100558375,1497.2664809169999,1497.2664809169999,1497.2664809169999,1497.2664809169999,1497.2664809169999,1497.2664809169999,1497.2664809169999,1497.2664809169999,1497.2664809169999,1500.876799125,7,-7,3,5.0,2.591196249999939,5.0,3.4846647499998653,1496.809838458,1496.816043042,1497.2664809169999,1497.1005444169998,,,,,,,,1496.8063896249998,1496.809792375,None,,,,,,,,,,,209,kitchen,1,2024-03-21_11h42.09.306,image_similarity_rating,2023.2.3,None,2024-03-21 11h42.19.717301 +0100,
,134,141,574,574,stimuli/own/kitchen/134_kit.jpg,stimuli/own/kitchen/141_kit.jpg,,,,,,,,,0,143,143,573,1500.8823453749999,,,,,,,,,,,1501.167187708,1501.330428083,1501.330428083,1501.330428083,1501.330428083,1501.330428083,1501.330428083,1501.330428083,1501.330428083,1501.330428083,1506.10591025,7,-7,3,6.0,3.764138374999675,6.0,4.613894290999724,1500.8804429169998,1500.8823453749999,1501.330428083,1501.1671751249999,,,,,,,,1500.8770187920002,1500.880396792,None,,,,,,,,,,,209,kitchen,1,2024-03-21_11h42.09.306,image_similarity_rating,2023.2.3,None,2024-03-21 11h42.19.717301 +0100,
,113,137,291,291,stimuli/own/kitchen/113_kit.jpg,stimuli/own/kitchen/137_kit.jpg,,,,,,,,,0,144,144,290,1506.116081417,,,,,,,,,,,1506.4005599169998,1506.5637328750001,1506.5637328750001,1506.5637328750001,1506.5637328750001,1506.5637328750001,1506.5637328750001,1506.5637328750001,1506.5637328750001,1506.5637328750001,1509.804125667,7,-7,3,4.0,3.227833708000162,2.0,2.0914147920002506,1506.1097213750002,1506.116081417,1506.5637328750001,1506.400549667,,,,,,,,1506.1061310829998,1506.1096742500001,None,,,,,,,,,,,209,kitchen,1,2024-03-21_11h42.09.306,image_similarity_rating,2023.2.3,None,2024-03-21 11h42.19.717301 +0100,
,130,132,542,542,stimuli/own/kitchen/130_kit.jpg,stimuli/own/kitchen/132_kit.jpg,,,,,,,,,0,145,145,541,1509.815981375,,,,,,,,,,,1510.100748042,1510.26605975,1510.26605975,1510.26605975,1510.26605975,1510.26605975,1510.26605975,1510.26605975,1510.26605975,1510.26605975,1513.2986951669998,-7,7,3,6.0,2.993621707999864,6.0,2.2270195419996526,1509.8078212920002,1509.815981375,1510.26605975,1510.1007351249998,,,,,,,,1509.8043433750001,1509.8077746249999,None,,,,,,,,,,,209,kitchen,1,2024-03-21_11h42.09.306,image_similarity_rating,2023.2.3,None,2024-03-21 11h42.19.717301 +0100,
,106,129,178,178,stimuli/own/kitchen/106_kit.jpg,stimuli/own/kitchen/129_kit.jpg,,,,,,,,,0,146,146,177,1513.3044795829999,,,,,,,,,,,1513.5880917920001,1513.753298208,1513.753298208,1513.753298208,1513.753298208,1513.753298208,1513.753298208,1513.753298208,1513.753298208,1513.753298208,1516.964610667,7,-7,3,6.0,2.441471041999648,6.0,2.823363624999729,1513.302376583,1513.3044795829999,1513.753298208,1513.588079458,,,,,,,,1513.29891375,1513.3023300829998,None,,,,,,,,,,,209,kitchen,1,2024-03-21_11h42.09.306,image_similarity_rating,2023.2.3,None,2024-03-21 11h42.19.717301 +0100,
,130,137,546,546,stimuli/own/kitchen/130_kit.jpg,stimuli/own/kitchen/137_kit.jpg,,,,,,,,,0,147,147,545,1516.970150542,,,,,,,,,,,1517.2547307920001,1517.4225209580002,1517.4225209580002,1517.4225209580002,1517.4225209580002,1517.4225209580002,1517.4225209580002,1517.4225209580002,1517.4225209580002,1517.4225209580002,1525.5320638750002,-7,7,3,3.0,8.009728916999848,2.0,5.404745874999662,1516.9683243749998,1516.970150542,1517.4225209580002,1517.2547174580002,,,,,,,,1516.9648382080002,1516.968277625,None,,,,,,,,,,,209,kitchen,1,2024-03-21_11h42.09.306,image_similarity_rating,2023.2.3,None,2024-03-21 11h42.19.717301 +0100,
,118,135,379,379,stimuli/own/kitchen/118_kit.jpg,stimuli/own/kitchen/135_kit.jpg,,,,,,,,,0,148,148,378,1525.5382495830002,,,,,,,,,,,1525.821210583,1525.9859335419999,1525.9859335419999,1525.9859335419999,1525.9859335419999,1525.9859335419999,1525.9859335419999,1525.9859335419999,1525.9859335419999,1525.9859335419999,1530.8016489170002,7,-7,3,4.0,4.713736708999932,2.0,2.5534097500003554,1525.5360574580002,1525.5382495830002,1525.9859335419999,1525.8211991249998,,,,,,,,1525.532281083,1525.5360081249999,None,,,,,,,,,,,209,kitchen,1,2024-03-21_11h42.09.306,image_similarity_rating,2023.2.3,None,2024-03-21 11h42.19.717301 +0100,
,117,124,349,349,stimuli/own/kitchen/117_kit.jpg,stimuli/own/kitchen/124_kit.jpg,,,,,,,,,0,149,149,348,1530.8070828329999,,,,,,,,,,,1531.100926375,1531.266387083,1531.266387083,1531.266387083,1531.266387083,1531.266387083,1531.266387083,1531.266387083,1531.266387083,1531.266387083,1538.793380458,-7,7,3,6.0,3.76633612500018,5.0,6.93976370900009,1530.805319833,1530.8070828329999,1531.266387083,1531.1009105,,,,,,,,1530.801870208,1530.805274,None,,,,,,,,,,,209,kitchen,1,2024-03-21_11h42.09.306,image_similarity_rating,2023.2.3,None,2024-03-21 11h42.19.717301 +0100,
,124,138,487,487,stimuli/own/kitchen/124_kit.jpg,stimuli/own/kitchen/138_kit.jpg,,,,,,,,,0,150,150,486,1538.798984417,,,,,,,,,,,1539.0850498329999,1539.252342083,1539.252342083,1539.252342083,1539.252342083,1539.252342083,1539.252342083,1539.252342083,1539.252342083,1539.252342083,1543.660371708,-7,7,3,6.0,2.7564259169998877,5.0,4.196899292000126,1538.797049167,1538.798984417,1539.252342083,1539.0850349169998,,,,,,,,1538.7936002919998,1538.79700225,None,,,,,,,,,,,209,kitchen,1,2024-03-21_11h42.09.306,image_similarity_rating,2023.2.3,None,2024-03-21 11h42.19.717301 +0100,
,125,138,501,501,stimuli/own/kitchen/125_kit.jpg,stimuli/own/kitchen/138_kit.jpg,,,,,,,,,0,151,151,500,1543.682673083,,,,,,,,,,,1543.9666144579999,1544.1339490829998,1544.1339490829998,1544.1339490829998,1544.1339490829998,1544.1339490829998,1544.1339490829998,1544.1339490829998,1544.1339490829998,1544.1339490829998,1547.605657708,-7,7,3,6.0,2.231110833999992,6.0,3.3726928340001905,1543.664127417,1543.682673083,,1543.9665954999998,,,,,,,,1543.6605939580002,1543.6640810420001,None,,,,,,,,,,,209,kitchen,1,2024-03-21_11h42.09.306,image_similarity_rating,2023.2.3,None,2024-03-21 11h42.19.717301 +0100,
,104,105,100,100,stimuli/own/kitchen/104_kit.jpg,stimuli/own/kitchen/105_kit.jpg,,,,,,,,,0,152,152,99,1547.6158577499998,,,,,,,,,,,1547.900394,1548.066642083,1548.066642083,1548.066642083,1548.066642083,1548.066642083,1548.066642083,1548.066642083,1548.066642083,1548.066642083,1552.918832042,-7,7,3,6.0,4.811666958999922,6.0,3.945074792000014,1547.6092997079998,1547.6158577499998,1548.066642083,1547.900379125,,,,,,,,1547.605872458,1547.609253708,None,,,,,,,,,,,209,kitchen,1,2024-03-21_11h42.09.306,image_similarity_rating,2023.2.3,None,2024-03-21 11h42.19.717301 +0100,
,122,139,457,457,stimuli/own/kitchen/122_kit.jpg,stimuli/own/kitchen/139_kit.jpg,,,,,,,,,0,153,153,456,1552.9244350830002,,,,,,,,,,,1553.217006917,1553.3822929169999,1553.3822929169999,1553.3822929169999,1553.3822929169999,1553.3822929169999,1553.3822929169999,1553.3822929169999,1553.3822929169999,1553.3822929169999,1561.2387270830002,-7,7,3,6.0,6.6050721250003335,4.0,7.776573790999919,1552.9224984579998,1552.9244350830002,1553.3822929169999,1553.2169928750002,,,,,,,,1552.9190527919998,1552.922452125,None,,,,,,,,,,,209,kitchen,1,2024-03-21_11h42.09.306,image_similarity_rating,2023.2.3,None,2024-03-21 11h42.19.717301 +0100,
