sub_num,trial,block,task,is_practice,category,image,texture,duration,mask_dur,jitter,stim_time,time_of_resp,trial_response,mask_time,fix_time,jit_onset,trial_end,trial_accuracy,RT
126,6,0,usability,1,kitchen,kitchen_practice2.tif,227,1.5,0,1.13333333333333,9690.040984666,9692.680689166,6,NaN,9692.70193175,9692.724640458,9693.851388208,NaN,NaN
126,7,0,usability,1,kitchen,kitchen_practice3.tif,228,1.5,0,0.933333333333333,9693.8640925,9696.18547125,5,NaN,9696.190818666,9696.209246375,9697.135919666,NaN,NaN
126,8,0,usability,1,kitchen,kitchen_practice1.tif,226,1.5,0,1.48333333333333,9697.140353083,9699.930712333,5,NaN,9699.957864166,9699.981479541,9701.458211333,NaN,NaN
126,9,0,usability,1,kitchen,kitchen_practice4.tif,229,1.5,0,1.33333333333333,9701.476115333,9704.120784916,4,NaN,9704.126646875,9704.144935958,9705.471694083,NaN,NaN
126,10,0,usability,1,kitchen,kitchen_practice5.tif,230,1.5,0,1.3,9705.490808,9707.929172333,7,NaN,9707.934709,9707.953478791,9709.246866208,NaN,NaN
126,1,1,usability,0,kitchen,sun_amjjdeyrggfqgmom.tif,210,1.5,0,1.91666666666667,9716.989347833,9720.105369083,7,NaN,9720.113115333,9720.131574625,9722.0416785,NaN,NaN
126,2,1,usability,0,kitchen,sun_aymvwlarqodbwuoc.tif,218,1.5,0,0.85,9722.060034666,9724.572992458,4,NaN,9724.598903375,9724.622767833,9725.466112208,NaN,NaN
126,3,1,usability,0,kitchen,labelme_rykdqxenmhulbdn.tif,173,1.5,0,0.7,9725.471541791,9728.516520875,4,NaN,9728.545619958,9728.569791958,9729.263137083,NaN,NaN
126,4,1,usability,0,kitchen,sun_adgqasybjyktddhj.tif,188,1.5,0,1.6,9729.267993375,9731.828697333,3,NaN,9731.857230958,9731.880784708,9733.474196166,NaN,NaN
126,5,1,usability,0,kitchen,sun_aehawpgmrlhlvcow.tif,191,1.5,0,1.13333333333333,9733.490939416,9735.944528625,5,NaN,9735.950461708,9735.968860791,9737.09559225,NaN,NaN
126,6,1,usability,0,kitchen,sun_aadbddgrdsjugojn.tif,174,1.5,0,0.716666666666667,9737.107456708,9739.553469166,2,NaN,9739.5588945,9739.577147833,9740.287157833,NaN,NaN
126,7,1,usability,0,kitchen,sun_acwjdupvyjsugpay.tif,186,1.5,0,1.6,9740.291553458,9742.869202666,4,NaN,9742.897627041,9742.921280166,9744.514679958,NaN,NaN
126,8,1,usability,0,kitchen,sun_aixorpehvfykdynp.tif,205,1.5,0,1.68333333333333,9744.532192208,9747.713348541,4,NaN,9747.740553958,9747.764386125,9749.441147875,NaN,NaN
126,9,1,usability,0,kitchen,sun_auaiucuqpdausiva.tif,212,1.5,0,1.41666666666667,9749.46169625,9752.218857583,6,NaN,9752.248028,9752.272698625,9753.682762875,NaN,NaN
126,10,1,usability,0,kitchen,sun_aamedkxepzlwuxes.tif,175,1.5,0,1,9753.702752166,9756.641232,3,NaN,9756.646654708,9756.664982791,9757.65832325,NaN,NaN
126,11,1,usability,0,kitchen,sun_ahpczsiumwwocjkv.tif,202,1.5,0,1.33333333333333,9757.662811375,9761.233375208,6,NaN,9761.2388555,9761.257296416,9762.584028958,NaN,NaN
126,12,1,usability,0,kitchen,sun_aenotlpyftoioydp.tif,192,1.5,0,1.15,9762.603257541,9765.936674333,5,NaN,9765.942483,9765.960858916,9767.104258166,NaN,NaN
126,13,1,usability,0,kitchen,sun_aexklacwqwezaorf.tif,194,1.5,0,1.86666666666667,9767.114745416,9769.816439875,5,NaN,9769.822095166,9769.840459291,9771.700521708,NaN,NaN
126,14,1,usability,0,kitchen,sun_aapllqyqlykszopd.tif,176,1.5,0,1.18333333333333,9771.715279041,9774.985330333,3,NaN,9774.991859416,9775.010304875,9776.187074,NaN,NaN
126,15,1,usability,0,kitchen,sun_ahywdevtimnqcsln.tif,204,1.5,0,1.71666666666667,9776.199194083,9780.425090541,3,NaN,9780.430539416,9780.448975875,9782.159042041,NaN,NaN
126,16,1,usability,0,kitchen,sun_aggjlwcdjsjcaemh.tif,196,1.5,0,1.1,9782.177561458,9785.184753833,2,NaN,9785.214460125,9785.238857208,9786.332256416,NaN,NaN
126,17,1,usability,0,kitchen,sun_acxkpeoqbwcxfvip.tif,187,1.5,0,0.983333333333333,9786.342047791,9789.169078458,3,NaN,9789.174492041,9789.192861958,9790.169537375,NaN,NaN
126,18,1,usability,0,kitchen,sun_aeqdocilnnpuvuhx.tif,193,1.5,0,0.916666666666667,9790.174093541,9792.889982625,5,NaN,9792.918053458,9792.941203625,9793.851212916,NaN,NaN
126,19,1,usability,0,kitchen,sun_akcjzhbbjlbogpdi.tif,209,1.5,0,0.716666666666667,9793.855901625,9796.989624833,1,NaN,9797.0043095,9797.022967541,9797.732974416,NaN,NaN
126,20,1,usability,0,kitchen,sun_ajcbwwvdlsvjyzje.tif,206,1.5,0,0.883333333333333,9797.737941375,9801.224496166,2,NaN,9801.230226708,9801.248466916,9802.125144541,NaN,NaN
126,21,1,usability,0,kitchen,sun_azmutvzbxypaceni.tif,220,1.5,0,1.93333333333333,9802.129656375,9804.644323541,3,NaN,9804.672361125,9804.695911333,9806.622662458,NaN,NaN
126,22,1,usability,0,kitchen,sun_awcpdzzznmweyyhv.tif,216,1.5,0,0.9,9806.640613625,9809.846097583,2,NaN,9809.875143416,9809.899060458,9810.792407166,NaN,NaN
126,23,1,usability,0,kitchen,sun_aunzlwrbjumxhwdj.tif,213,1.5,0,1.13333333333333,9810.797268833,9813.516639041,1,NaN,9813.540815291,9813.562946083,9814.689671708,NaN,NaN
126,24,1,usability,0,kitchen,labelme_kxvouciolcpqplr.tif,172,1.5,0,0.766666666666667,9814.699411166,9818.296208,4,NaN,9818.302307,9818.320902125,9819.080910666,NaN,NaN
126,25,1,usability,0,kitchen,sun_agubuxuukhzyzpdp.tif,198,1.5,0,0.966666666666667,9819.085571541,9821.693021625,6,NaN,9821.721998416,9821.746251833,9822.706264166,NaN,NaN
126,1,2,usability,0,kitchen,sun_ajkqhtgcbgpcwrwn.tif,207,1.5,0,1.56666666666667,9829.316309458,9832.704812708,4,NaN,9832.710261458,9832.728466916,9834.288529666,NaN,NaN
126,2,2,usability,0,kitchen,sun_avszsnwsbuqfgzbn.tif,215,1.5,0,1.2,9834.307047083,9837.008803458,3,NaN,9837.014232875,9837.032611958,9838.226017708,NaN,NaN
126,3,2,usability,0,kitchen,sun_admlmbcdswaszruo.tif,189,1.5,0,1.73333333333333,9838.238649291,9841.432597,5,NaN,9841.438212166,9841.456717666,9843.183448458,NaN,NaN
126,4,2,usability,0,kitchen,sun_abdxkyyxwfskuaqb.tif,180,1.5,0,1.61666666666667,9843.203281541,9847.377083916,6,NaN,9847.38265925,9847.400984791,9849.011064041,NaN,NaN
126,5,2,usability,0,kitchen,sun_aypmqwcualkenuoe.tif,219,1.5,0,1.38333333333333,9849.031166416,9851.592030833,3,NaN,9851.5980325,9851.616428583,9852.993186625,NaN,NaN
126,6,2,usability,0,kitchen,sun_agzzivivdpnawacl.tif,199,1.5,0,1.73333333333333,9853.010919458,9856.0246305,3,NaN,9856.03019775,9856.048571333,9857.775299875,NaN,NaN
126,7,2,usability,0,kitchen,sun_aaxxjlsuzvqlgylf.tif,178,1.5,0,1.96666666666667,9857.793559333,9860.220553625,7,NaN,9860.245555166,9860.269333375,9862.229415708,NaN,NaN
126,8,2,usability,0,kitchen,sun_abftihopvusyfakt.tif,181,1.5,0,0.883333333333333,9862.248972375,9864.843938208,5,NaN,9864.87241425,9864.895464,9865.772140458,NaN,NaN
126,9,2,usability,0,kitchen,sun_agorklincwxrdtga.tif,197,1.5,0,1.06666666666667,9865.785457041,9868.415611625,4,NaN,9868.443882083,9868.467343375,9869.527443833,NaN,NaN
126,10,2,usability,0,kitchen,labelme_brsyyvweiuaazfr.tif,171,1.5,0,1.06666666666667,9869.539435125,9872.224548708,3,NaN,9872.230135875,9872.2485555,9873.3086315,NaN,NaN
126,11,2,usability,0,kitchen,sun_afuyedyxivkhecmu.tif,195,1.5,0,0.966666666666667,9873.318977416,9879.024457625,4,NaN,9879.030087666,9879.048424125,9880.008431666,NaN,NaN
126,12,2,usability,0,kitchen,sun_aegoxogugdkwpmpj.tif,190,1.5,0,1.78333333333333,9880.013171,9884.032207416,3,NaN,9884.038008541,9884.0562495,9885.832999,NaN,NaN
126,13,2,usability,0,kitchen,sun_axyyrmzcupyhlivc.tif,217,1.5,0,1.68333333333333,9885.85417875,9890.863904125,3,NaN,9890.869824125,9890.888065583,9892.564809708,NaN,NaN
126,14,2,usability,0,kitchen,sun_abpwyqmlzafvklqo.tif,182,1.5,0,0.983333333333333,9892.585471666,9897.61675575,4,NaN,9897.622531333,9897.640929833,9898.617608291,NaN,NaN
126,15,2,usability,0,kitchen,sun_abdenxonkemggwsq.tif,179,1.5,0,1.33333333333333,9898.622441958,9901.2440815,5,NaN,9901.272634583,9901.296826208,9902.623584875,NaN,NaN
126,16,2,usability,0,kitchen,sun_acgtpgfybqjmzeyw.tif,185,1.5,0,1.56666666666667,9902.639548125,9905.600854875,2,NaN,9905.606407583,9905.624649833,9907.184719375,NaN,NaN
126,17,2,usability,0,kitchen,sun_ahspylgoovwmwvgk.tif,203,1.5,0,1.66666666666667,9907.205701333,9909.7768435,4,NaN,9909.782225541,9909.800458041,9911.46055825,NaN,NaN
126,18,2,usability,0,kitchen,sun_auticobqsbwgoppi.tif,214,1.5,0,1.86666666666667,9911.481152541,9914.083577291,3,NaN,9914.112946583,9914.137065583,9915.9971595,NaN,NaN
126,19,2,usability,0,kitchen,sun_aqeaevwwwjoqhzvl.tif,211,1.5,0,1.95,9916.017797833,9918.716091333,7,NaN,9918.742683916,9918.766670083,9920.710104375,NaN,NaN
126,20,2,usability,0,kitchen,sun_acfmftudsenhrfhy.tif,184,1.5,0,0.966666666666667,9920.731145416,9923.657366083,6,NaN,9923.679706958,9923.704868,9924.664878666,NaN,NaN
126,21,2,usability,0,kitchen,sun_abrcnpqqhmjwekyf.tif,183,1.5,0,1.43333333333333,9924.670469041,9927.2677495,4,NaN,9927.294494166,9927.318815166,9928.745562833,NaN,NaN
126,22,2,usability,0,kitchen,sun_ahdycvpopffkzzsu.tif,200,1.5,0,0.85,9928.766035958,9932.192278333,5,NaN,9932.1978525,9932.216321458,9933.059662541,NaN,NaN
126,23,2,usability,0,kitchen,sun_ahljzhgcdpomplvg.tif,201,1.5,0,1.53333333333333,9933.06392225,9936.090094791,4,NaN,9936.117456791,9936.13923125,9937.665983541,NaN,NaN
126,24,2,usability,0,kitchen,sun_akchetnepxlcxhsu.tif,208,1.5,0,1.18333333333333,9937.677862416,9940.208339375,3,NaN,9940.213883416,9940.232291208,9941.409027166,NaN,NaN
126,25,2,usability,0,kitchen,sun_aarfiyshqohlwkmo.tif,177,1.5,0,1.86666666666667,9941.418483291,9944.328359458,2,NaN,9944.333831708,9944.35235725,9946.212452541,NaN,NaN
