sub_num,trial,block,task,is_practice,category,image,texture,duration,mask_dur,jitter,stim_time,time_of_resp,trial_response,mask_time,fix_time,jit_onset,trial_end,trial_accuracy,RT
106,6,0,typicality,1,kitchen,kitchen_practice2.tif,227,1.5,0,0.966666666666667,8792.004976083,8796.397568166,6,NaN,8796.418986833,8796.440179041,8797.400317166,NaN,NaN
106,7,0,typicality,1,kitchen,kitchen_practice5.tif,230,1.5,0,1.58333333333333,8797.411482416,8800.733831666,3,NaN,8800.743534625,8800.762571541,8802.339471333,NaN,NaN
106,8,0,typicality,1,kitchen,kitchen_practice1.tif,226,1.5,0,1.03333333333333,8802.363523833,8805.965652375,2,NaN,8805.971932625,8805.990439333,8807.017202166,NaN,NaN
106,9,0,typicality,1,kitchen,kitchen_practice4.tif,229,1.5,0,1.68333333333333,8807.037815125,8810.1568215,6,NaN,8810.163557333,8810.182262458,8811.859001791,NaN,NaN
106,10,0,typicality,1,kitchen,kitchen_practice3.tif,228,1.5,0,1.45,8811.889722166,8815.423631625,5,NaN,8815.442221666,8815.461363791,8816.904757833,NaN,NaN
106,1,1,typicality,0,kitchen,sun_agubuxuukhzyzpdp.tif,198,1.5,0,0.733333333333333,8825.38963025,8828.813289666,4,NaN,8828.819428,8828.837638458,8829.564314875,NaN,NaN
106,2,1,typicality,0,kitchen,sun_ahpczsiumwwocjkv.tif,202,1.5,0,1.18333333333333,8829.568648416,8832.265097833,6,NaN,8832.293880875,8832.317244083,8833.4940105,NaN,NaN
106,3,1,typicality,0,kitchen,sun_aapllqyqlykszopd.tif,176,1.5,0,0.7,8833.503578583,8836.740567583,4,NaN,8836.746514791,8836.76530625,8837.458646666,NaN,NaN
106,4,1,typicality,0,kitchen,sun_auaiucuqpdausiva.tif,212,1.5,0,1.2,8837.462831875,8840.957425583,3,NaN,8840.962882208,8840.981333125,8842.174750583,NaN,NaN
106,5,1,typicality,0,kitchen,sun_adgqasybjyktddhj.tif,188,1.5,0,0.966666666666667,8842.190554416,8845.900606083,5,NaN,8845.906551791,8845.924977791,8846.884988625,NaN,NaN
106,6,1,typicality,0,kitchen,sun_aaxxjlsuzvqlgylf.tif,178,1.5,0,1.3,8846.889226708,8849.902234666,6,NaN,8849.931870541,8849.955128666,8851.248525208,NaN,NaN
106,7,1,typicality,0,kitchen,labelme_kxvouciolcpqplr.tif,172,1.5,0,1.65,8851.269476958,8853.973293708,2,NaN,8853.978768875,8853.997055208,8855.640463708,NaN,NaN
106,8,1,typicality,0,kitchen,sun_amjjdeyrggfqgmom.tif,210,1.5,0,1.63333333333333,8855.657893416,8858.601064125,2,NaN,8858.630710166,8858.654077875,8860.280801958,NaN,NaN
106,9,1,typicality,0,kitchen,sun_acfmftudsenhrfhy.tif,184,1.5,0,0.9,8860.30441775,8863.332899416,5,NaN,8863.338523416,8863.356861708,8864.250204333,NaN,NaN
106,10,1,typicality,0,kitchen,sun_aypmqwcualkenuoe.tif,219,1.5,0,0.95,8864.254731125,8867.324935666,2,NaN,8867.339008333,8867.358432333,8868.301775458,NaN,NaN
106,11,1,typicality,0,kitchen,sun_avszsnwsbuqfgzbn.tif,215,1.5,0,0.816666666666667,8868.306358916,8871.444654166,2,NaN,8871.450571666,8871.4689585,8872.278969458,NaN,NaN
106,12,1,typicality,0,kitchen,sun_aarfiyshqohlwkmo.tif,177,1.5,0,1.96666666666667,8872.283583291,8876.54140475,3,NaN,8876.547059916,8876.565389708,8878.525464875,NaN,NaN
106,13,1,typicality,0,kitchen,sun_aeqdocilnnpuvuhx.tif,193,1.5,0,0.783333333333333,8878.544440666,8881.472110666,4,NaN,8881.49862225,8881.521828083,8882.298505083,NaN,NaN
106,14,1,typicality,0,kitchen,sun_ahdycvpopffkzzsu.tif,200,1.5,0,0.733333333333333,8882.303227458,8885.589340375,6,NaN,8885.594783125,8885.613067541,8886.339741791,NaN,NaN
106,15,1,typicality,0,kitchen,sun_acgtpgfybqjmzeyw.tif,185,1.5,0,1.9,8886.344170375,8889.006415208,6,NaN,8889.035559333,8889.058973291,8890.952357583,NaN,NaN
106,16,1,typicality,0,kitchen,sun_aqeaevwwwjoqhzvl.tif,211,1.5,0,0.75,8890.963030333,8893.958851208,2,NaN,8893.982602708,8894.003769041,8894.747109625,NaN,NaN
106,17,1,typicality,0,kitchen,sun_aenotlpyftoioydp.tif,192,1.5,0,0.916666666666667,8894.752202666,8897.417364416,1,NaN,8897.443843875,8897.467689291,8898.377700291,NaN,NaN
106,18,1,typicality,0,kitchen,sun_ajkqhtgcbgpcwrwn.tif,207,1.5,0,0.733333333333333,8898.387505875,8901.836417541,4,NaN,8901.842353666,8901.86073325,8902.58740675,NaN,NaN
106,19,1,typicality,0,kitchen,sun_acxkpeoqbwcxfvip.tif,187,1.5,0,1.81666666666667,8902.591746416,8905.360252958,6,NaN,8905.389630541,8905.412710458,8907.222768625,NaN,NaN
106,20,1,typicality,0,kitchen,labelme_rykdqxenmhulbdn.tif,173,1.5,0,1.16666666666667,8907.242152041,8910.021926041,4,NaN,8910.051598375,8910.07493925,8911.235038541,NaN,NaN
106,21,1,typicality,0,kitchen,sun_agorklincwxrdtga.tif,197,1.5,0,1.81666666666667,8911.244880791,8914.044789291,6,NaN,8914.050739291,8914.069131833,8915.879161291,NaN,NaN
106,22,1,typicality,0,kitchen,sun_aexklacwqwezaorf.tif,194,1.5,0,1.35,8915.888733125,8919.54057475,4,NaN,8919.546295708,8919.564981458,8920.908370291,NaN,NaN
106,23,1,typicality,0,kitchen,sun_ahywdevtimnqcsln.tif,204,1.5,0,1.25,8920.920438666,8923.788808541,6,NaN,8923.794652833,8923.812940916,8925.056338166,NaN,NaN
106,24,1,typicality,0,kitchen,sun_aamedkxepzlwuxes.tif,175,1.5,0,1.05,8925.075154291,8927.956991583,5,NaN,8927.9625425,8927.981197041,8929.02462525,NaN,NaN
106,25,1,typicality,0,kitchen,sun_ajcbwwvdlsvjyzje.tif,206,1.5,0,0.916666666666667,8929.034171458,8931.901151833,6,NaN,8931.906708166,8931.925119083,8932.835127833,NaN,NaN
106,1,2,typicality,0,kitchen,sun_awcpdzzznmweyyhv.tif,216,1.5,0,1.56666666666667,8938.123126958,8941.581233291,6,NaN,8941.586856583,8941.605394791,8943.165493666,NaN,NaN
106,2,2,typicality,0,kitchen,sun_aegoxogugdkwpmpj.tif,190,1.5,0,0.883333333333333,8943.185540208,8945.988993916,6,NaN,8945.994610083,8946.013084333,8946.889761916,NaN,NaN
106,3,2,typicality,0,kitchen,sun_aixorpehvfykdynp.tif,205,1.5,0,0.75,8946.89406975,8950.548415375,6,NaN,8950.554411208,8950.572793125,8951.316134416,NaN,NaN
106,4,2,typicality,0,kitchen,sun_aehawpgmrlhlvcow.tif,191,1.5,0,1.23333333333333,8951.320403291,8955.0208975,5,NaN,8955.026401666,8955.044756833,8956.271503833,NaN,NaN
106,5,2,typicality,0,kitchen,sun_acwjdupvyjsugpay.tif,186,1.5,0,0.85,8956.284028166,8959.452520708,5,NaN,8959.458262958,8959.476826875,8960.320170333,NaN,NaN
106,6,2,typicality,0,kitchen,labelme_brsyyvweiuaazfr.tif,171,1.5,0,0.916666666666667,8960.330884666,8964.237163625,6,NaN,8964.242656541,8964.260993791,8965.171002916,NaN,NaN
106,7,2,typicality,0,kitchen,sun_akchetnepxlcxhsu.tif,208,1.5,0,1.75,8965.175405375,8968.110504458,6,NaN,8968.13773425,8968.160976833,8969.904401583,NaN,NaN
106,8,2,typicality,0,kitchen,sun_ahljzhgcdpomplvg.tif,201,1.5,0,1.43333333333333,8969.92178475,8972.928463333,5,NaN,8972.949284625,8972.970661916,8974.397392833,NaN,NaN
106,9,2,typicality,0,kitchen,sun_abpwyqmlzafvklqo.tif,182,1.5,0,0.783333333333333,8974.415989833,8978.508820541,5,NaN,8978.514282166,8978.532574041,8979.309248416,NaN,NaN
106,10,2,typicality,0,kitchen,sun_axyyrmzcupyhlivc.tif,217,1.5,0,1.76666666666667,8979.313554916,8982.580576541,4,NaN,8982.58610725,8982.604474666,8984.364534041,NaN,NaN
106,11,2,typicality,0,kitchen,sun_auticobqsbwgoppi.tif,214,1.5,0,1.78333333333333,8984.387188375,8987.775506583,4,NaN,8987.801247208,8987.82151875,8989.598278916,NaN,NaN
106,12,2,typicality,0,kitchen,sun_aymvwlarqodbwuoc.tif,218,1.5,0,1.85,8989.619182958,8993.124697291,4,NaN,8993.133467916,8993.15217125,8994.995560083,NaN,NaN
106,13,2,typicality,0,kitchen,sun_ahspylgoovwmwvgk.tif,203,1.5,0,1.18333333333333,8995.010634333,8999.612187458,3,NaN,8999.61800775,8999.636399166,9000.813132708,NaN,NaN
106,14,2,typicality,0,kitchen,sun_aggjlwcdjsjcaemh.tif,196,1.5,0,1.01666666666667,9000.824848833,9003.972768083,6,NaN,9003.978331666,9003.996742875,9005.006793541,NaN,NaN
106,15,2,typicality,0,kitchen,sun_aunzlwrbjumxhwdj.tif,213,1.5,0,1.65,9005.01723975,9009.41284175,3,NaN,9009.418439875,9009.436905125,9011.080341291,NaN,NaN
106,16,2,typicality,0,kitchen,sun_abrcnpqqhmjwekyf.tif,183,1.5,0,1.83333333333333,9011.097883541,9014.632017208,6,NaN,9014.662327625,9014.683210708,9016.509967375,NaN,NaN
106,17,2,typicality,0,kitchen,sun_agzzivivdpnawacl.tif,199,1.5,0,1.58333333333333,9016.530456,9019.749865958,6,NaN,9019.779121791,9019.802226916,9021.37895875,NaN,NaN
106,18,2,typicality,0,kitchen,sun_abftihopvusyfakt.tif,181,1.5,0,1.85,9021.40225125,9024.471774,7,NaN,9024.501020416,9024.524674416,9026.36808575,NaN,NaN
106,19,2,typicality,0,kitchen,sun_afuyedyxivkhecmu.tif,195,1.5,0,0.766666666666667,9026.385965416,9029.32756075,2,NaN,9029.357118083,9029.380972291,9030.140980833,NaN,NaN
106,20,2,typicality,0,kitchen,sun_aadbddgrdsjugojn.tif,174,1.5,0,0.716666666666667,9030.145815625,9033.340029916,2,NaN,9033.346065708,9033.364456208,9034.074464541,NaN,NaN
106,21,2,typicality,0,kitchen,sun_azmutvzbxypaceni.tif,220,1.5,0,1.38333333333333,9034.079230416,9037.892737208,6,NaN,9037.898382375,9037.916600208,9039.293365416,NaN,NaN
106,22,2,typicality,0,kitchen,sun_abdxkyyxwfskuaqb.tif,180,1.5,0,0.866666666666667,9039.309923541,9041.995934541,1,NaN,9042.001849541,9042.020250958,9042.880260083,NaN,NaN
106,23,2,typicality,0,kitchen,sun_akcjzhbbjlbogpdi.tif,209,1.5,0,1.4,9042.88480175,9046.052363583,4,NaN,9046.059884166,9046.078319083,9047.471744166,NaN,NaN
106,24,2,typicality,0,kitchen,sun_admlmbcdswaszruo.tif,189,1.5,0,1,9047.489276125,9051.244418541,4,NaN,9051.25015425,9051.268553083,9052.261893583,NaN,NaN
106,25,2,typicality,0,kitchen,sun_abdenxonkemggwsq.tif,179,1.5,0,1.28333333333333,9052.266644625,9055.756552416,2,NaN,9055.762049166,9055.781038208,9057.057775041,NaN,NaN
