sub_num,trial,block,task,is_practice,category,image,texture,duration,mask_dur,jitter,stim_time,time_of_resp,trial_response,mask_time,fix_time,jit_onset,trial_end,trial_accuracy,RT
106,6,0,familiarity,1,kitchen,kitchen_practice2.tif,227,1.5,0,0.733333333333333,9081.285104125,9084.293309666,1,NaN,9084.322452833,9084.343759166,9085.070434166,NaN,NaN
106,7,0,familiarity,1,kitchen,kitchen_practice3.tif,228,1.5,0,1.3,9085.07515225,9088.042088208,2,NaN,9088.077603541,9088.103000833,9089.396419041,NaN,NaN
106,8,0,familiarity,1,kitchen,kitchen_practice1.tif,226,1.5,0,2,9089.4150205,9092.068108666,1,NaN,9092.073908291,9092.092290458,9094.085703,NaN,NaN
106,9,0,familiarity,1,kitchen,kitchen_practice5.tif,230,1.5,0,1.81666666666667,9094.102826333,9097.159425791,2,NaN,9097.190533541,9097.215736833,9099.025824625,NaN,NaN
106,10,0,familiarity,1,kitchen,kitchen_practice4.tif,229,1.5,0,0.75,9099.045991166,9101.713173583,2,NaN,9101.742553583,9101.76678325,9102.510125583,NaN,NaN
106,1,1,familiarity,0,kitchen,sun_acxkpeoqbwcxfvip.tif,187,1.5,0,0.866666666666667,9107.446312458,9111.051719875,2,NaN,9111.058426916,9111.077339916,9111.937408208,NaN,NaN
106,2,1,familiarity,0,kitchen,sun_aggjlwcdjsjcaemh.tif,196,1.5,0,1.01666666666667,9111.942666458,9114.964394416,4,NaN,9114.992820541,9115.017822208,9116.028006833,NaN,NaN
106,3,1,familiarity,0,kitchen,sun_agorklincwxrdtga.tif,197,1.5,0,1.78333333333333,9116.036297791,9118.971448958,2,NaN,9118.977515458,9118.995928416,9120.77266925,NaN,NaN
106,4,1,familiarity,0,kitchen,sun_aadbddgrdsjugojn.tif,174,1.5,0,1.85,9120.78607675,9124.331802916,2,NaN,9124.339427625,9124.357634458,9126.20100275,NaN,NaN
106,5,1,familiarity,0,kitchen,sun_ahdycvpopffkzzsu.tif,200,1.5,0,1.83333333333333,9126.212593666,9129.692555375,3,NaN,9129.699213333,9129.717866125,9131.54463975,NaN,NaN
106,6,1,familiarity,0,kitchen,sun_ahljzhgcdpomplvg.tif,201,1.5,0,1.56666666666667,9131.564839083,9136.380002833,3,NaN,9136.385666333,9136.404073,9137.964177166,NaN,NaN
106,7,1,familiarity,0,kitchen,sun_agzzivivdpnawacl.tif,199,1.5,0,1.31666666666667,9137.991243375,9141.923498375,3,NaN,9141.929371708,9141.948881958,9143.258960416,NaN,NaN
106,8,1,familiarity,0,kitchen,sun_ahspylgoovwmwvgk.tif,203,1.5,0,1.75,9143.273929416,9146.651685958,3,NaN,9146.65767225,9146.676102291,9148.41949125,NaN,NaN
106,9,1,familiarity,0,kitchen,sun_azmutvzbxypaceni.tif,220,1.5,0,1.9,9148.435091208,9152.676150958,4,NaN,9152.681688875,9152.699980625,9154.593405041,NaN,NaN
106,10,1,familiarity,0,kitchen,sun_agubuxuukhzyzpdp.tif,198,1.5,0,1.76666666666667,9154.613357875,9158.156075416,3,NaN,9158.162376166,9158.180782541,9159.940878625,NaN,NaN
106,11,1,familiarity,0,kitchen,labelme_kxvouciolcpqplr.tif,172,1.5,0,1.05,9159.962117833,9165.099732291,5,NaN,9165.10540725,9165.123825416,9166.167221208,NaN,NaN
106,12,1,familiarity,0,kitchen,labelme_brsyyvweiuaazfr.tif,171,1.5,0,1.58333333333333,9166.176218458,9170.579399375,4,NaN,9170.585676625,9170.604064375,9172.180791458,NaN,NaN
106,13,1,familiarity,0,kitchen,sun_aegoxogugdkwpmpj.tif,190,1.5,0,0.983333333333333,9172.202486541,9177.115987083,4,NaN,9177.121665166,9177.140054958,9178.11673075,NaN,NaN
106,14,1,familiarity,0,kitchen,sun_adgqasybjyktddhj.tif,188,1.5,0,0.733333333333333,9178.121435625,9182.604221416,3,NaN,9182.609686833,9182.627994708,9183.354668541,NaN,NaN
106,15,1,familiarity,0,kitchen,sun_akchetnepxlcxhsu.tif,208,1.5,0,1.13333333333333,9183.358993791,9186.675410791,3,NaN,9186.681144666,9186.6994555,9187.826224,NaN,NaN
106,16,1,familiarity,0,kitchen,sun_acgtpgfybqjmzeyw.tif,185,1.5,0,1.58333333333333,9187.837441541,9192.243987958,6,NaN,9192.249840083,9192.268190666,9193.844912083,NaN,NaN
106,17,1,familiarity,0,kitchen,sun_abrcnpqqhmjwekyf.tif,183,1.5,0,0.783333333333333,9193.863163041,9197.172173791,5,NaN,9197.17786275,9197.196199708,9197.9728745,NaN,NaN
106,18,1,familiarity,0,kitchen,sun_aapllqyqlykszopd.tif,176,1.5,0,0.8,9197.977184875,9200.749014625,3,NaN,9200.778131125,9200.801552375,9201.594893375,NaN,NaN
106,19,1,familiarity,0,kitchen,sun_aymvwlarqodbwuoc.tif,218,1.5,0,1.7,9201.599846166,9205.139475,2,NaN,9205.145298166,9205.163736916,9206.857114791,NaN,NaN
106,20,1,familiarity,0,kitchen,sun_abftihopvusyfakt.tif,181,1.5,0,1.48333333333333,9206.8694655,9211.8520955,2,NaN,9211.857776708,9211.876225041,9213.3529745,NaN,NaN
106,21,1,familiarity,0,kitchen,sun_acwjdupvyjsugpay.tif,186,1.5,0,0.966666666666667,9213.362488916,9216.667758791,2,NaN,9216.673249041,9216.691592375,9217.651603083,NaN,NaN
106,22,1,familiarity,0,kitchen,sun_aexklacwqwezaorf.tif,194,1.5,0,1.28333333333333,9217.656304875,9221.499045166,1,NaN,9221.505146208,9221.5234545,9222.8002095,NaN,NaN
106,23,1,familiarity,0,kitchen,sun_auaiucuqpdausiva.tif,212,1.5,0,0.783333333333333,9222.81940425,9226.179557666,1,NaN,9226.185351291,9226.203643916,9226.980321416,NaN,NaN
106,24,1,familiarity,0,kitchen,sun_aamedkxepzlwuxes.tif,175,1.5,0,1.36666666666667,9226.984523958,9229.980509958,2,NaN,9230.009849541,9230.034074541,9231.394145083,NaN,NaN
106,25,1,familiarity,0,kitchen,labelme_rykdqxenmhulbdn.tif,173,1.5,0,1.45,9231.408913291,9234.195981916,2,NaN,9234.201551208,9234.21985975,9235.663282333,NaN,NaN
106,1,2,familiarity,0,kitchen,sun_ajcbwwvdlsvjyzje.tif,206,1.5,0,1.81666666666667,9240.496211541,9243.835335958,2,NaN,9243.840990291,9243.859406333,9245.669458666,NaN,NaN
106,2,2,familiarity,0,kitchen,sun_aypmqwcualkenuoe.tif,219,1.5,0,0.816666666666667,9245.683733458,9248.207250958,1,NaN,9248.236512833,9248.259135375,9249.069215166,NaN,NaN
106,3,2,familiarity,0,kitchen,sun_ahpczsiumwwocjkv.tif,202,1.5,0,0.9,9249.084592333,9252.0788395,2,NaN,9252.107853583,9252.130639916,9253.023983041,NaN,NaN
106,4,2,familiarity,0,kitchen,sun_acfmftudsenhrfhy.tif,184,1.5,0,0.933333333333333,9253.028825583,9256.077174375,2,NaN,9256.107542083,9256.131651708,9257.05832625,NaN,NaN
106,5,2,familiarity,0,kitchen,sun_afuyedyxivkhecmu.tif,195,1.5,0,1.48333333333333,9257.064703416,9260.078879583,1,NaN,9260.1083605,9260.13225125,9261.609013583,NaN,NaN
106,6,2,familiarity,0,kitchen,sun_axyyrmzcupyhlivc.tif,217,1.5,0,1.48333333333333,9261.628871791,9264.891424583,2,NaN,9264.897206083,9264.915476916,9266.392212166,NaN,NaN
106,7,2,familiarity,0,kitchen,sun_aenotlpyftoioydp.tif,192,1.5,0,1.43333333333333,9266.40888675,9269.731794916,1,NaN,9269.737349416,9269.755624083,9271.182355708,NaN,NaN
106,8,2,familiarity,0,kitchen,sun_avszsnwsbuqfgzbn.tif,215,1.5,0,0.733333333333333,9271.201835791,9273.76390175,1,NaN,9273.769481666,9273.787822125,9274.514498666,NaN,NaN
106,9,2,familiarity,0,kitchen,sun_abpwyqmlzafvklqo.tif,182,1.5,0,0.966666666666667,9274.518858291,9278.403346291,5,NaN,9278.409124708,9278.427410958,9279.387418666,NaN,NaN
106,10,2,familiarity,0,kitchen,sun_aixorpehvfykdynp.tif,205,1.5,0,0.916666666666667,9279.3919315,9283.755324708,6,NaN,9283.76124925,9283.779643083,9284.689649708,NaN,NaN
106,11,2,familiarity,0,kitchen,sun_abdxkyyxwfskuaqb.tif,180,1.5,0,1.03333333333333,9284.694132541,9287.518710208,1,NaN,9287.549119208,9287.572776041,9288.599532958,NaN,NaN
106,12,2,familiarity,0,kitchen,sun_abdenxonkemggwsq.tif,179,1.5,0,0.733333333333333,9288.6099765,9291.339853208,1,NaN,9291.345444583,9291.364314208,9292.090992041,NaN,NaN
106,13,2,familiarity,0,kitchen,sun_aehawpgmrlhlvcow.tif,191,1.5,0,1.13333333333333,9292.095225333,9295.170856416,1,NaN,9295.180250041,9295.198803875,9296.325528708,NaN,NaN
106,14,2,familiarity,0,kitchen,sun_ajkqhtgcbgpcwrwn.tif,207,1.5,0,0.883333333333333,9296.334676666,9300.139383,1,NaN,9300.145086625,9300.163559833,9301.040233541,NaN,NaN
106,15,2,familiarity,0,kitchen,sun_aarfiyshqohlwkmo.tif,177,1.5,0,1.85,9301.044684375,9304.482807625,2,NaN,9304.489027458,9304.507275291,9306.350663458,NaN,NaN
106,16,2,familiarity,0,kitchen,sun_aeqdocilnnpuvuhx.tif,193,1.5,0,0.733333333333333,9306.370213625,9309.49237625,1,NaN,9309.518617791,9309.542642833,9310.269319625,NaN,NaN
106,17,2,familiarity,0,kitchen,sun_aqeaevwwwjoqhzvl.tif,211,1.5,0,1.95,9310.274230583,9313.874914666,1,NaN,9313.880808333,9313.899032333,9315.84246925,NaN,NaN
106,18,2,familiarity,0,kitchen,sun_auticobqsbwgoppi.tif,214,1.5,0,1.1,9315.857032833,9318.735919083,2,NaN,9318.766125,9318.790131291,9319.883523708,NaN,NaN
106,19,2,familiarity,0,kitchen,sun_aaxxjlsuzvqlgylf.tif,178,1.5,0,1.31666666666667,9319.893954541,9323.155118541,1,NaN,9323.160947875,9323.179720083,9324.489818208,NaN,NaN
106,20,2,familiarity,0,kitchen,sun_amjjdeyrggfqgmom.tif,210,1.5,0,1.78333333333333,9324.500454458,9327.331667,1,NaN,9327.337320583,9327.35559575,9329.132318416,NaN,NaN
106,21,2,familiarity,0,kitchen,sun_aunzlwrbjumxhwdj.tif,213,1.5,0,1.33333333333333,9329.154081833,9332.18363925,1,NaN,9332.213325208,9332.236768166,9333.563507375,NaN,NaN
106,22,2,familiarity,0,kitchen,sun_awcpdzzznmweyyhv.tif,216,1.5,0,0.95,9333.584878166,9336.338910916,1,NaN,9336.344835416,9336.363328375,9337.306671583,NaN,NaN
106,23,2,familiarity,0,kitchen,sun_akcjzhbbjlbogpdi.tif,209,1.5,0,1.93333333333333,9337.311148958,9340.397119916,2,NaN,9340.408899541,9340.428123625,9342.354847291,NaN,NaN
106,24,2,familiarity,0,kitchen,sun_ahywdevtimnqcsln.tif,204,1.5,0,1.28333333333333,9342.373073666,9345.986558416,5,NaN,9345.992427208,9346.010923333,9347.287658875,NaN,NaN
106,25,2,familiarity,0,kitchen,sun_admlmbcdswaszruo.tif,189,1.5,0,1.43333333333333,9347.306384041,9351.018715916,6,NaN,9351.024706416,9351.042964041,9352.469732875,NaN,NaN
