sub_num,trial,block,task,is_practice,category,image,texture,duration,mask_dur,jitter,stim_time,time_of_resp,trial_response,mask_time,fix_time,jit_onset,trial_end,trial_accuracy,RT
122,1,0,categorization,1,bathroom,SHINEd_bathroom_practice5.tif,115,0.0666666666666667,0.0666666666666667,1.21666666666667,15984.976037583,15986.41668225,13,15985.042056166,15985.101971125,15986.439135416,15987.649327958,1,1.44064466700002
122,2,0,categorization,1,kitchen,SHINEd_kitchen_practice2.tif,117,0.0666666666666667,0.0666666666666667,1.36666666666667,15987.701884333,15988.816794083,9,15987.774774,15987.835839625,15988.862091291,15990.222334083,1,1.11490975000015
122,3,0,categorization,1,kitchen,SHINEd_kitchen_practice3.tif,118,0.0666666666666667,0.0666666666666667,1.85,15990.274084083,15991.082059375,9,15990.348442666,15990.408675875,15991.117131041,15992.960702958,1,0.807975292000265
122,4,0,categorization,1,kitchen,SHINEd_kitchen_practice1.tif,116,0.0666666666666667,0.0666666666666667,1.55,15992.982984416,15994.751988333,13,15993.053329041,15993.116654,15994.769435458,15996.312953541,0,1.7690039170011
122,5,0,categorization,1,kitchen,SHINEd_kitchen_practice5.tif,120,0.0666666666666667,0.0666666666666667,1.48333333333333,15996.345446,15997.79177825,9,15996.418980041,15996.479456791,15997.840869125,15999.318366333,1,1.44633225000143
122,6,0,categorization,1,bathroom,SHINEd_bathroom_practice3.tif,113,0.0666666666666667,0.0666666666666667,1.15,15999.344257916,16001.767854416,13,15999.413283541,15999.4776115,16001.780055916,16002.923549333,1,2.42359650000071
122,7,0,categorization,1,bathroom,SHINEd_bathroom_practice4.tif,114,0.0666666666666667,0.0666666666666667,0.733333333333333,16002.933774416,16003.867118,13,16003.000637791,16003.067765458,16003.891122458,16004.617955041,1,0.933343583999886
122,8,0,categorization,1,kitchen,SHINEd_kitchen_practice4.tif,119,0.0666666666666667,0.0666666666666667,1.6,16004.632097958,16005.880151833,9,16004.698605625,16004.764771166,16005.883934291,16007.477327791,1,1.24805387500055
122,9,0,categorization,1,bathroom,SHINEd_bathroom_practice2.tif,112,0.0666666666666667,0.0666666666666667,0.716666666666667,16007.496340666,16008.794906583,13,16007.562844041,16007.62952525,16008.820974666,16009.530981125,1,1.298565916999
122,10,0,categorization,1,bathroom,SHINEd_bathroom_practice1.tif,111,0.0666666666666667,0.0666666666666667,1.21666666666667,16009.536133708,16011.439907291,13,16009.597901458,16009.658926958,16011.444380625,16012.654432166,1,1.90377358300066
122,1,1,categorization,0,bathroom,SHINEd_sun_anryaplzeujmzfkd.tif,39,0.0666666666666667,0.0666666666666667,1.23333333333333,16067.343349791,16068.11189225,13,16067.40545725,16067.466015416,16068.118257708,16069.344969041,1,0.768542459001765
122,2,1,categorization,0,bathroom,SHINEd_sun_apeeialkgkuxddgh.tif,42,0.0666666666666667,0.0666666666666667,0.783333333333333,16069.357419333,16070.029558875,13,16069.424111208,16069.49011675,16070.045875041,16070.822574541,1,0.672139541999059
122,3,1,categorization,0,bathroom,SHINEd_sun_aspsyogrekjtfozg.tif,50,0.0666666666666667,0.0666666666666667,0.75,16070.838456583,16071.535567833,13,16070.904985666,16070.971103166,16071.540129541,16072.28346775,1,0.69711124999958
122,4,1,categorization,0,bathroom,SHINEd_sun_agyqfjcfkdcydepw.tif,25,0.0666666666666667,0.0666666666666667,1.23333333333333,16072.288254666,16073.231935583,13,16072.349935583,16072.411062958,16073.246202125,16074.4729115,1,0.943680917000165
122,5,1,categorization,0,bathroom,SHINEd_sun_axxbkopsgyouuebh.tif,58,0.0666666666666667,0.0666666666666667,1.13333333333333,16074.489884041,16076.528447416,13,16074.556740541,16074.622520833,16076.541600208,16077.668302291,1,2.03856337499928
122,6,1,categorization,0,kitchen,SHINEd_sun_auaiucuqpdausiva.tif,102,0.0666666666666667,0.0666666666666667,0.95,16077.67776675,16080.424264333,13,16077.742429958,16077.810377416,16080.429796541,16081.373133916,0,2.74649758300075
122,7,1,categorization,0,kitchen,SHINEd_sun_aegoxogugdkwpmpj.tif,80,0.0666666666666667,0.0666666666666667,0.733333333333333,16081.377970125,16082.391786375,9,16081.439661,16081.500873083,16082.403034,16083.129703916,1,1.01381624999885
122,8,1,categorization,0,kitchen,SHINEd_sun_abpwyqmlzafvklqo.tif,72,0.0666666666666667,0.0666666666666667,1.31666666666667,16083.134370958,16083.839516,9,16083.195986958,16083.257148083,16083.859404041,16085.169449458,1,0.705145042000368
122,9,1,categorization,0,kitchen,SHINEd_sun_abdenxonkemggwsq.tif,69,0.0666666666666667,0.0666666666666667,0.8,16085.183027791,16086.776723208,9,16085.249644666,16085.315571583,16086.807072,16087.60041125,1,1.59369541700107
122,10,1,categorization,0,bathroom,SHINEd_sun_aqrpegblszgcoujh.tif,48,0.0666666666666667,0.0666666666666667,0.716666666666667,16087.605408541,16088.599888,13,16087.667090625,16087.728120833,16088.613886416,16089.323890041,1,0.994479459001013
122,11,1,categorization,0,kitchen,SHINEd_sun_aunzlwrbjumxhwdj.tif,103,0.0666666666666667,0.0666666666666667,0.916666666666667,16089.330248791,16090.271679333,9,16089.391945875,16089.452893333,16090.288575666,16091.198579833,1,0.94143054199958
122,12,1,categorization,0,kitchen,SHINEd_sun_azmutvzbxypaceni.tif,110,0.0666666666666667,0.0666666666666667,0.95,16091.203318333,16092.919720541,9,16091.265002208,16091.326301708,16092.929122416,16093.872459916,1,1.71640220799964
122,13,1,categorization,0,kitchen,SHINEd_sun_abrcnpqqhmjwekyf.tif,73,0.0666666666666667,0.0666666666666667,0.833333333333333,16093.877348916,16094.623630875,9,16093.93900225,16094.000034041,16094.635325458,16095.461997125,1,0.746281959000044
122,14,1,categorization,0,kitchen,SHINEd_sun_aymvwlarqodbwuoc.tif,108,0.0666666666666667,0.0666666666666667,0.75,16095.4669735,16096.687419916,13,16095.528657791,16095.589658583,16096.691897,16097.435236,0,1.22044641599859
122,15,1,categorization,0,bathroom,SHINEd_sun_aghyqhbptboemmoq.tif,23,0.0666666666666667,0.0666666666666667,1.53333333333333,16097.44052325,16098.632172708,9,16097.502290083,16097.563318333,16098.649080916,16100.175779666,0,1.19164945800003
122,16,1,categorization,0,bathroom,SHINEd_sun_asfwthctfqerjvxr.tif,49,0.0666666666666667,0.0666666666666667,1.05,16100.193447958,16101.66534225,13,16100.260254125,16100.325957166,16101.683626416,16102.727014958,1,1.4718942920008
122,17,1,categorization,0,kitchen,SHINEd_sun_abftihopvusyfakt.tif,71,0.0666666666666667,0.0666666666666667,0.9,16102.736792291,16103.727130583,9,16102.8007795,16102.868371375,16103.740648833,16104.634041375,1,0.99033829200016
122,18,1,categorization,0,bathroom,SHINEd_labelme_sfxiulhjbhlyiyt.tif,11,0.0666666666666667,0.0666666666666667,1.18333333333333,16104.649709958,16105.607946458,13,16104.71616625,16104.780899958,16105.61610275,16106.792801625,1,0.958236500000567
122,19,1,categorization,0,bathroom,SHINEd_sun_aoybiabnpadelefl.tif,41,0.0666666666666667,0.0666666666666667,0.9,16106.8025375,16108.30928375,9,16106.869324125,16106.936635583,16108.328617166,16109.2219555,0,1.50674625000102
122,20,1,categorization,0,kitchen,SHINEd_sun_aapllqyqlykszopd.tif,66,0.0666666666666667,0.0666666666666667,1.66666666666667,16109.226918666,16110.288377625,13,16109.288644041,16109.349662125,16110.301730166,16111.961775333,0,1.06145895900045
122,21,1,categorization,0,bathroom,SHINEd_sun_ambriybtogmepttm.tif,36,0.0666666666666667,0.0666666666666667,1.13333333333333,16111.978157291,16112.691597625,13,16112.045755791,16112.110794333,16112.7168335,16113.843554416,1,0.713440334000552
122,22,1,categorization,0,bathroom,SHINEd_sun_aclfzgynxzxlbepz.tif,19,0.0666666666666667,0.0666666666666667,1.3,16113.8533405,16114.55281425,9,16113.91849625,16113.986093958,16114.575948791,16115.869327208,0,0.699473750000834
122,23,1,categorization,0,bathroom,SHINEd_sun_aunuadmjocsddsrl.tif,52,0.0666666666666667,0.0666666666666667,1.93333333333333,16115.885671833,16116.970947666,13,16115.952197791,16116.018550416,16116.991883,16118.918595666,1,1.08527583299838
122,24,1,categorization,0,bathroom,SHINEd_sun_ahijqszoswveeyji.tif,28,0.0666666666666667,0.0666666666666667,1,16118.9359135,16119.893293625,9,16119.002325041,16119.068573666,16119.907605958,16120.900944416,0,0.957380125000782
122,25,1,categorization,0,bathroom,SHINEd_sun_acgyywnybuveqsro.tif,18,0.0666666666666667,0.0666666666666667,0.883333333333333,16120.905874791,16121.799533833,13,16120.967940666,16121.028643916,16121.813831416,16122.69050225,1,0.893659041999854
122,26,1,categorization,0,kitchen,SHINEd_sun_aixorpehvfykdynp.tif,95,0.0666666666666667,0.0666666666666667,1.95,16122.696222833,16123.839627541,13,16122.758128541,16122.819053791,16123.854696583,16125.798072208,0,1.14340470800016
122,27,1,categorization,0,kitchen,SHINEd_sun_aeqdocilnnpuvuhx.tif,83,0.0666666666666667,0.0666666666666667,1.25,16125.81654175,16127.696094666,13,16125.883128208,16125.94925375,16127.701672666,16128.94504775,0,1.87955291599974
122,28,1,categorization,0,kitchen,SHINEd_sun_ahpczsiumwwocjkv.tif,92,0.0666666666666667,0.0666666666666667,1.95,16128.958034791,16129.6648505,9,16129.025383375,16129.090815583,16129.679919166,16131.623288708,1,0.706815708999784
122,29,1,categorization,0,bathroom,SHINEd_sun_amzlamotzwfkwjco.tif,37,0.0666666666666667,0.0666666666666667,1.91666666666667,16131.639558666,16132.831238625,9,16131.706936166,16131.772055333,16132.860050125,16134.770103958,0,1.19167995899988
122,30,1,categorization,0,bathroom,SHINEd_sun_ahaulkltgpkeeemi.tif,26,0.0666666666666667,0.0666666666666667,1.41666666666667,16134.787668875,16135.94322275,13,16134.856429166,16134.920316666,16135.956298583,16137.3663345,1,1.1555538749999
122,31,1,categorization,0,bathroom,SHINEd_sun_aofnryafpsjimzsb.tif,40,0.0666666666666667,0.0666666666666667,0.716666666666667,16137.383018125,16138.914754375,9,16137.4496605,16137.51598775,16138.941993541,16139.651999416,0,1.5317362500009
122,32,1,categorization,0,bathroom,SHINEd_sun_aavhrsfjbserjtht.tif,13,0.0666666666666667,0.0666666666666667,1.28333333333333,16139.656985625,16140.727854458,9,16139.718721708,16139.779744083,16140.7321,16142.008805625,0,1.07086883299962
122,33,1,categorization,0,bathroom,SHINEd_sun_apjevzvycyhuqghb.tif,43,0.0666666666666667,0.0666666666666667,0.9,16142.026418916,16143.2650605,13,16142.092908625,16142.158839666,16143.28257125,16144.17591025,1,1.2386415839992
122,34,1,categorization,0,kitchen,SHINEd_sun_acxkpeoqbwcxfvip.tif,77,0.0666666666666667,0.0666666666666667,0.8,16144.181440166,16145.103188708,9,16144.24313825,16144.304166375,16145.122874583,16145.916211375,1,0.921748542001296
122,35,1,categorization,0,kitchen,SHINEd_sun_ajcbwwvdlsvjyzje.tif,96,0.0666666666666667,0.0666666666666667,1.01666666666667,16145.920997916,16146.592002916,13,16145.982625416,16146.043696625,16146.595898791,16147.60593975,0,0.67100500000015
122,36,1,categorization,0,kitchen,SHINEd_sun_ahspylgoovwmwvgk.tif,93,0.0666666666666667,0.0666666666666667,0.85,16147.613767041,16148.303333583,9,16147.678444708,16147.744647083,16148.315563916,16149.158915458,1,0.689566541999739
122,37,1,categorization,0,kitchen,SHINEd_sun_aggjlwcdjsjcaemh.tif,86,0.0666666666666667,0.0666666666666667,1.51666666666667,16149.168061458,16150.007647333,9,16149.232937541,16149.300557541,16150.019730625,16151.52978175,1,0.839585874999102
122,38,1,categorization,0,kitchen,SHINEd_sun_agubuxuukhzyzpdp.tif,88,0.0666666666666667,0.0666666666666667,1.83333333333333,16151.549903875,16152.532955458,9,16151.616634541,16151.682458166,16152.555714916,16154.382434083,1,0.983051582999906
122,39,1,categorization,0,bathroom,SHINEd_sun_alotolagknyrgtsk.tif,35,0.0666666666666667,0.0666666666666667,0.716666666666667,16154.400436166,16155.144883583,13,16154.46723325,16154.53292375,16155.153832125,16155.86383775,1,0.74444741699881
122,40,1,categorization,0,kitchen,SHINEd_sun_aehawpgmrlhlvcow.tif,81,0.0666666666666667,0.0666666666666667,0.9,16155.869767541,16156.775598375,9,16155.931460416,16155.992498166,16156.794813583,16157.688152541,1,0.905830833999062
122,41,1,categorization,0,kitchen,SHINEd_sun_ahywdevtimnqcsln.tif,94,0.0666666666666667,0.0666666666666667,0.916666666666667,16157.69317525,16158.391329625,9,16157.754918583,16157.815895166,16158.401050208,16159.31105425,1,0.698154374998921
122,42,1,categorization,0,bathroom,SHINEd_sun_agrwbmhcpmfuwmsg.tif,24,0.0666666666666667,0.0666666666666667,0.816666666666667,16159.31588,16160.07163225,13,16159.37761,16159.438550208,16160.090669333,16160.900673125,1,0.755752249999205
122,43,1,categorization,0,kitchen,SHINEd_sun_abdxkyyxwfskuaqb.tif,70,0.0666666666666667,0.0666666666666667,1.88333333333333,16160.905502791,16161.952232166,9,16160.967119958,16161.028195833,16161.963764875,16163.840480333,1,1.04672937500072
122,44,1,categorization,0,kitchen,SHINEd_sun_aexklacwqwezaorf.tif,84,0.0666666666666667,0.0666666666666667,0.9,16163.856784291,16164.688197083,9,16163.923209083,16163.989440625,16164.712553541,16165.605892708,1,0.831412792000265
122,45,1,categorization,0,kitchen,SHINEd_sun_axyyrmzcupyhlivc.tif,107,0.0666666666666667,0.0666666666666667,1,16165.610941375,16166.415184708,9,16165.672839625,16165.733687791,16166.419222,16167.412560333,1,0.804243332999249
122,46,1,categorization,0,kitchen,SHINEd_sun_akcjzhbbjlbogpdi.tif,99,0.0666666666666667,0.0666666666666667,0.733333333333333,16167.417536291,16168.095358041,9,16167.479206166,16167.540250833,16168.108996041,16168.835666125,1,0.677821750001385
122,47,1,categorization,0,kitchen,SHINEd_sun_ahljzhgcdpomplvg.tif,91,0.0666666666666667,0.0666666666666667,0.883333333333333,16168.841169208,16169.775286333,9,16168.902815666,16168.963946916,16169.782378041,16170.659048833,1,0.93411712499983
122,48,1,categorization,0,bathroom,SHINEd_sun_abjtwfukuwddzted.tif,15,0.0666666666666667,0.0666666666666667,1.73333333333333,16170.663798791,16171.959803708,9,16170.725523375,16170.786513166,16171.9721885,16173.698894916,0,1.29600491699966
122,49,1,categorization,0,kitchen,SHINEd_sun_aenotlpyftoioydp.tif,82,0.0666666666666667,0.0666666666666667,1.91666666666667,16173.715481958,16174.601103833,9,16173.781589416,16173.848594166,16174.620976708,16176.531013416,1,0.885621875000652
122,50,1,categorization,0,kitchen,SHINEd_labelme_rykdqxenmhulbdn.tif,63,0.0666666666666667,0.0666666666666667,1.35,16176.549016125,16177.216181083,9,16176.615843416,16176.681483125,16177.237968833,16178.581358583,1,0.667164958000285
122,1,2,categorization,0,bathroom,SHINEd_sun_ausgutylgojavyoq.tif,53,0.0666666666666667,0.0666666666666667,0.95,16190.71520775,16191.502996375,13,16190.777265791,16190.838324666,16191.506710666,16192.450049666,1,0.787788625000758
122,2,2,categorization,0,bathroom,SHINEd_sun_aleqenyvunhactkl.tif,32,0.0666666666666667,0.0666666666666667,0.75,16192.455750625,16193.159177166,9,16192.517344708,16192.578441208,16193.163459833,16193.906797875,0,0.703426541000226
122,3,2,categorization,0,bathroom,SHINEd_sun_abapwbhyhkfixyex.tif,14,0.0666666666666667,0.0666666666666667,1.68333333333333,16193.913110375,16194.960085458,9,16193.974889083,16194.035778833,16194.970963958,16196.647680458,0,1.04697508299978
122,4,2,categorization,0,kitchen,SHINEd_sun_afuyedyxivkhecmu.tif,85,0.0666666666666667,0.0666666666666667,0.816666666666667,16196.66740125,16197.556123791,13,16196.733984333,16196.800549958,16197.573288083,16198.383292166,0,0.888722540999879
122,5,2,categorization,0,bathroom,SHINEd_sun_aggnnqpdorgxpvce.tif,21,0.0666666666666667,0.0666666666666667,0.916666666666667,16198.389064291,16199.1598335,9,16198.450709041,16198.511892375,16199.163459791,16200.073465,0,0.770769209000719
122,6,2,categorization,0,bathroom,SHINEd_sun_agguqiubmwhqqunb.tif,22,0.0666666666666667,0.0666666666666667,1.21666666666667,16200.079868041,16200.983109583,9,16200.141597791,16200.202500208,16200.988180833,16202.198227916,0,0.903241541998796
122,7,2,categorization,0,kitchen,SHINEd_sun_ajkqhtgcbgpcwrwn.tif,97,0.0666666666666667,0.0666666666666667,0.9,16202.215839208,16203.691294541,13,16202.282203625,16202.349016375,16203.70870175,16204.60203925,0,1.47545533300035
122,8,2,categorization,0,kitchen,SHINEd_sun_adgqasybjyktddhj.tif,78,0.0666666666666667,0.0666666666666667,1.65,16204.607878083,16205.207733166,9,16204.6698115,16204.730620541,16205.215805333,16206.859172166,1,0.599855083000875
122,9,2,categorization,0,kitchen,SHINEd_sun_aamedkxepzlwuxes.tif,65,0.0666666666666667,0.0666666666666667,1.15,16206.876829791,16207.538669166,9,16206.944418208,16207.009966708,16207.565836791,16208.709225166,1,0.661839375001364
122,10,2,categorization,0,kitchen,SHINEd_sun_akchetnepxlcxhsu.tif,98,0.0666666666666667,0.0666666666666667,1.13333333333333,16208.718564958,16209.483733041,13,16208.785049041,16208.851198833,16209.507804666,16210.634507125,0,0.765168082998571
122,11,2,categorization,0,kitchen,SHINEd_labelme_brsyyvweiuaazfr.tif,61,0.0666666666666667,0.0666666666666667,1.76666666666667,16210.650714875,16211.367772458,9,16210.713372916,16210.773396833,16211.375407583,16213.135452666,1,0.717057582998677
122,12,2,categorization,0,bathroom,SHINEd_sun_ahcvzmoyaycdoftf.tif,27,0.0666666666666667,0.0666666666666667,1.8,16213.147377083,16213.828399958,9,16213.212454166,16213.280371583,16213.853293125,16215.646660791,0,0.681022875000053
122,13,2,categorization,0,bathroom,SHINEd_sun_ahqjwnzgolcaoidx.tif,29,0.0666666666666667,0.0666666666666667,0.9,16215.664585458,16216.249817791,13,16215.731911958,16215.797570208,16216.270951,16217.164289208,1,0.585232333000022
122,14,2,categorization,0,bathroom,SHINEd_sun_acegryoqftbzowsg.tif,17,0.0666666666666667,0.0666666666666667,0.716666666666667,16217.169351458,16217.815657791,9,16217.23105425,16217.292108791,16217.82738575,16218.537390791,0,0.646306332999302
122,15,2,categorization,0,kitchen,SHINEd_sun_aqeaevwwwjoqhzvl.tif,101,0.0666666666666667,0.0666666666666667,1.36666666666667,16218.543033833,16219.239765458,9,16218.604729291,16218.665745333,16219.250776083,16220.610807083,1,0.696731624999302
122,16,2,categorization,0,bathroom,SHINEd_sun_auzqhkafidnkrwmo.tif,54,0.0666666666666667,0.0666666666666667,0.916666666666667,16220.624750416,16221.315769833,9,16220.692468583,16220.757131708,16221.329497708,16222.239535208,0,0.691019416999552
122,17,2,categorization,0,bathroom,SHINEd_sun_acduarbnmmoglmiv.tif,16,0.0666666666666667,0.0666666666666667,0.716666666666667,16222.256739916,16223.063148833,9,16222.323387,16222.381195666,16223.066447333,16223.776451625,0,0.806408917000226
122,18,2,categorization,0,kitchen,SHINEd_sun_admlmbcdswaszruo.tif,79,0.0666666666666667,0.0666666666666667,0.766666666666667,16223.782102666,16224.5349215,9,16223.843695,16223.905005875,16224.540107541,16225.30011275,1,0.752818834000209
122,19,2,categorization,0,kitchen,SHINEd_sun_avszsnwsbuqfgzbn.tif,105,0.0666666666666667,0.0666666666666667,1.06666666666667,16225.304958625,16225.911624208,13,16225.366630416,16225.427750041,16225.9297505,16226.989793166,0,0.606665582999995
122,20,2,categorization,0,bathroom,SHINEd_sun_aljolscmmzydegqp.tif,33,0.0666666666666667,0.0666666666666667,0.8,16226.99791725,16227.724656166,9,16227.062319333,16227.12480225,16227.748071041,16228.541447666,0,0.726738915998794
122,21,2,categorization,0,bathroom,SHINEd_sun_afcoljnjfoxjtgja.tif,20,0.0666666666666667,0.0666666666666667,0.866666666666667,16228.557548416,16229.215858916,9,16228.62386025,16228.689900291,16229.225074083,16230.085079791,0,0.65831050000088
122,22,2,categorization,0,bathroom,SHINEd_sun_aapitsgbtktqubfy.tif,12,0.0666666666666667,0.0666666666666667,1.48333333333333,16230.090768041,16230.751154583,13,16230.152460583,16230.213491666,16230.765735333,16232.242438916,1,0.660386542000197
122,23,2,categorization,0,kitchen,SHINEd_sun_agzzivivdpnawacl.tif,89,0.0666666666666667,0.0666666666666667,1.1,16232.257660041,16233.903055625,13,16232.32421475,16232.39010675,16233.909532041,16235.002906958,0,1.64539558400065
122,24,2,categorization,0,kitchen,SHINEd_sun_awcpdzzznmweyyhv.tif,106,0.0666666666666667,0.0666666666666667,0.783333333333333,16235.013225458,16235.651409083,9,16235.077937833,16235.145175833,16235.667944,16236.44466675,1,0.638183625000238
122,25,2,categorization,0,kitchen,SHINEd_sun_amjjdeyrggfqgmom.tif,100,0.0666666666666667,0.0666666666666667,0.866666666666667,16236.460969541,16237.031120541,9,16236.527195375,16236.593718458,16237.046230583,16237.906236708,1,0.570150999999896
122,26,2,categorization,0,bathroom,SHINEd_sun_axldvoqbuvuggfmq.tif,57,0.0666666666666667,0.0666666666666667,1.83333333333333,16237.912872625,16238.54290775,9,16237.974533083,16238.035556625,16238.554548166,16240.381251375,0,0.630035124999267
122,27,2,categorization,0,kitchen,SHINEd_sun_aypmqwcualkenuoe.tif,109,0.0666666666666667,0.0666666666666667,0.7,16240.399340375,16240.925070458,9,16240.466043166,16240.531564791,16240.954791541,16241.648131541,1,0.52573008300169
122,28,2,categorization,0,kitchen,SHINEd_sun_aadbddgrdsjugojn.tif,64,0.0666666666666667,0.0666666666666667,1.33333333333333,16241.65372075,16242.239935583,9,16241.715394916,16241.776341875,16242.245054416,16243.571771041,1,0.586214832999758
122,29,2,categorization,0,bathroom,SHINEd_sun_axyrejkiiaqiurjk.tif,59,0.0666666666666667,0.0666666666666667,1.33333333333333,16243.587193875,16244.315549833,9,16243.653468541,16243.720362,16244.343495958,16245.670211541,0,0.728355957999156
122,30,2,categorization,0,bathroom,SHINEd_sun_avhrdrntsqrjzccq.tif,55,0.0666666666666667,0.0666666666666667,1.38333333333333,16245.688156416,16246.330945416,9,16245.755046166,16245.818307875,16246.357667125,16247.734373041,0,0.642789000001358
122,31,2,categorization,0,bathroom,SHINEd_sun_apkruvsevgegsdwp.tif,44,0.0666666666666667,0.0666666666666667,1.25,16247.751045791,16248.345812791,13,16247.817739958,16247.882375416,16248.372397416,16249.615778458,1,0.594767000000502
122,32,2,categorization,0,kitchen,SHINEd_sun_agorklincwxrdtga.tif,87,0.0666666666666667,0.0666666666666667,1.55,16249.634500375,16250.287377916,9,16249.697057625,16249.757223916,16250.292586416,16251.835958041,1,0.652877541000635
122,33,2,categorization,0,bathroom,SHINEd_sun_anhioqovhscjqqwb.tif,38,0.0666666666666667,0.0666666666666667,1.61666666666667,16251.852297375,16252.544252291,13,16251.918888583,16251.985022666,16252.575446458,16254.185480458,1,0.691954915999304
122,34,2,categorization,0,bathroom,SHINEd_sun_apkxzenqapsujocq.tif,45,0.0666666666666667,0.0666666666666667,1.33333333333333,16254.203291291,16254.704131208,9,16254.26974675,16254.336178166,16254.72587525,16256.052592166,0,0.500839917000121
122,35,2,categorization,0,bathroom,SHINEd_sun_akiytfaagpdsphgz.tif,31,0.0666666666666667,0.0666666666666667,0.833333333333333,16256.0698635,16256.829348333,9,16256.137760291,16256.202574,16256.859000916,16257.685712541,0,0.759484832999078
122,36,2,categorization,0,bathroom,SHINEd_sun_ajlawzvmubibwbpy.tif,30,0.0666666666666667,0.0666666666666667,1.45,16257.701051208,16258.607692083,13,16257.767667208,16257.833608458,16258.619485791,16260.062864416,1,0.906640875000448
122,37,2,categorization,0,kitchen,SHINEd_sun_ahdycvpopffkzzsu.tif,90,0.0666666666666667,0.0666666666666667,0.933333333333333,16260.082949916,16260.809228666,9,16260.150149458,16260.215848916,16260.820210041,16261.7469315,1,0.726278749998528
122,38,2,categorization,0,kitchen,SHINEd_sun_auticobqsbwgoppi.tif,104,0.0666666666666667,0.0666666666666667,1.65,16261.754707791,16262.591449333,9,16261.816465041,16261.877505583,16262.596343916,16264.2397345,1,0.8367415419998
122,39,2,categorization,0,kitchen,SHINEd_sun_acgtpgfybqjmzeyw.tif,75,0.0666666666666667,0.0666666666666667,1.23333333333333,16264.256545416,16264.978460708,9,16264.323738333,16264.389540083,16264.9956395,16266.222366416,1,0.721915292000631
122,40,2,categorization,0,bathroom,SHINEd_sun_apmqjbnwghzuhhzh.tif,46,0.0666666666666667,0.0666666666666667,0.766666666666667,16266.239177,16266.743839708,9,16266.307285666,16266.37163025,16266.761158166,16267.521192666,0,0.504662708000978
122,41,2,categorization,0,kitchen,SHINEd_sun_acfmftudsenhrfhy.tif,74,0.0666666666666667,0.0666666666666667,1.78333333333333,16267.538032708,16268.175713708,9,16267.604516208,16267.6708375,16268.18991275,16269.966611625,1,0.637681000000157
122,42,2,categorization,0,kitchen,SHINEd_sun_acwjdupvyjsugpay.tif,76,0.0666666666666667,0.0666666666666667,1.11666666666667,16269.983233625,16270.497276958,9,16270.0500245,16270.1159085,16270.522333583,16271.632388166,1,0.51404333299979
122,43,2,categorization,0,bathroom,SHINEd_sun_atstyziqcmkahyxk.tif,51,0.0666666666666667,0.0666666666666667,1.85,16271.641227541,16272.430743,13,16271.706207791,16271.774911125,16272.447526083,16274.290892416,1,0.78951545900054
122,44,2,categorization,0,kitchen,SHINEd_sun_aaxxjlsuzvqlgylf.tif,68,0.0666666666666667,0.0666666666666667,0.733333333333333,16274.307716666,16275.083343541,9,16274.375756416,16274.4404395,16275.11186375,16275.838535833,1,0.775626874999944
122,45,2,categorization,0,bathroom,SHINEd_sun_alkosphxlxwjwgjd.tif,34,0.0666666666666667,0.0666666666666667,0.783333333333333,16275.846217875,16276.798947541,9,16275.907989208,16275.969097208,16276.804734875,16277.581407083,0,0.952729665999868
122,46,2,categorization,0,bathroom,SHINEd_sun_awnqiikzaispgmwo.tif,56,0.0666666666666667,0.0666666666666667,1.5,16277.587164208,16278.27962725,13,16277.648830166,16277.709877916,16278.295212,16279.788594458,1,0.692463041999872
122,47,2,categorization,0,kitchen,SHINEd_sun_aarfiyshqohlwkmo.tif,67,0.0666666666666667,0.0666666666666667,0.733333333333333,16279.807218625,16280.591896125,9,16279.8738985,16279.940180958,16280.615569583,16281.342284333,1,0.784677500001635
122,48,2,categorization,0,kitchen,SHINEd_labelme_kxvouciolcpqplr.tif,62,0.0666666666666667,0.0666666666666667,1.1,16281.359073458,16281.999548333,13,16281.421513666,16281.481846708,16282.016859291,16283.110243583,0,0.640474875001019
122,49,2,categorization,0,bathroom,SHINEd_sun_azqyogdvyhahyram.tif,60,0.0666666666666667,0.0666666666666667,1.6,16283.119812083,16283.817490958,9,16283.184533916,16283.25089125,16283.839259833,16285.432629416,0,0.697678874999838
122,50,2,categorization,0,bathroom,SHINEd_sun_apynckhmoftszqoq.tif,47,0.0666666666666667,0.0666666666666667,1.06666666666667,16285.449904041,16286.259520458,9,16285.516615833,16285.5827275,16286.270912041,16287.330946,0,0.809616417000143
122,1,3,categorization,0,bathroom,SHINEd_sun_apkxzenqapsujocq.tif,45,0.0666666666666667,0.0666666666666667,0.85,16299.45135375,16300.150598208,13,16299.514059708,16299.574187625,16300.159652791,16301.00299225,1,0.699244457999157
122,2,3,categorization,0,bathroom,SHINEd_sun_abjtwfukuwddzted.tif,15,0.0666666666666667,0.0666666666666667,1.65,16301.008501333,16301.783040208,9,16301.07024925,16301.131163458,16301.800043,16303.443420041,0,0.774538874999052
122,3,3,categorization,0,bathroom,SHINEd_sun_aapitsgbtktqubfy.tif,12,0.0666666666666667,0.0666666666666667,0.783333333333333,16303.461100875,16304.886506583,13,16303.527486875,16303.594175333,16304.896811,16305.673482708,1,1.42540570799974
122,4,3,categorization,0,kitchen,SHINEd_labelme_kxvouciolcpqplr.tif,62,0.0666666666666667,0.0666666666666667,0.933333333333333,16305.678933625,16306.815182208,9,16305.740729083,16305.801701791,16306.820873375,16307.747544833,1,1.13624858299954
122,5,3,categorization,0,kitchen,SHINEd_sun_afuyedyxivkhecmu.tif,85,0.0666666666666667,0.0666666666666667,0.866666666666667,16307.7530645,16308.622917125,9,16307.814813875,16307.875702875,16308.628248916,16309.488254166,1,0.869852624999112
122,6,3,categorization,0,bathroom,SHINEd_sun_apmqjbnwghzuhhzh.tif,46,0.0666666666666667,0.0666666666666667,1.11666666666667,16309.493285583,16311.183096333,9,16309.55504475,16309.616193125,16311.201699708,16312.311754083,0,1.68981075000011
122,7,3,categorization,0,kitchen,SHINEd_sun_axyyrmzcupyhlivc.tif,107,0.0666666666666667,0.0666666666666667,0.966666666666667,16312.320834583,16313.668813791,9,16312.385009833,16312.453245166,16313.696430875,16314.656439875,1,1.34797920799974
122,8,3,categorization,0,bathroom,SHINEd_sun_axyrejkiiaqiurjk.tif,59,0.0666666666666667,0.0666666666666667,1.78333333333333,16314.66317475,16315.471154666,13,16314.724916541,16314.785831958,16315.487985416,16317.264696833,1,0.807979916000477
122,9,3,categorization,0,kitchen,SHINEd_sun_adgqasybjyktddhj.tif,78,0.0666666666666667,0.0666666666666667,1.55,16317.280301666,16317.902948791,9,16317.346646791,16317.412769166,16317.918240875,16319.461603125,1,0.622647124999276
122,10,3,categorization,0,kitchen,SHINEd_sun_agzzivivdpnawacl.tif,89,0.0666666666666667,0.0666666666666667,1.41666666666667,16319.483281666,16320.583854708,13,16319.549695583,16319.615925291,16320.605739458,16322.015795458,0,1.10057304200018
122,11,3,categorization,0,bathroom,SHINEd_sun_apeeialkgkuxddgh.tif,42,0.0666666666666667,0.0666666666666667,0.8,16322.032183375,16323.110825791,13,16322.09867675,16322.164683833,16323.13743725,16323.930775083,1,1.07864241599964
122,12,3,categorization,0,bathroom,SHINEd_sun_ahijqszoswveeyji.tif,28,0.0666666666666667,0.0666666666666667,1.28333333333333,16323.936519375,16324.566685541,9,16323.998301583,16324.059408583,16324.577814625,16325.854547791,0,0.630166165999981
122,13,3,categorization,0,kitchen,SHINEd_sun_agorklincwxrdtga.tif,87,0.0666666666666667,0.0666666666666667,1.66666666666667,16325.870754125,16326.984102708,9,16325.938756833,16326.001760583,16327.008359625,16328.668401666,1,1.11334858299961
122,14,3,categorization,0,kitchen,SHINEd_sun_agubuxuukhzyzpdp.tif,88,0.0666666666666667,0.0666666666666667,1.81666666666667,16328.683240541,16329.3872205,13,16328.749994125,16328.815766083,16329.405715708,16331.21576425,0,0.703979959000208
122,15,3,categorization,0,bathroom,SHINEd_sun_aunuadmjocsddsrl.tif,52,0.0666666666666667,0.0666666666666667,1.35,16331.227775,16332.002265625,9,16331.294607458,16331.360343,16332.014977958,16333.358353958,0,0.774490625000908
122,16,3,categorization,0,bathroom,SHINEd_sun_avhrdrntsqrjzccq.tif,55,0.0666666666666667,0.0666666666666667,0.916666666666667,16333.376143916,16334.646240958,9,16333.442796916,16333.508485208,16334.665542791,16335.575548166,0,1.27009704199918
122,17,3,categorization,0,kitchen,SHINEd_sun_azmutvzbxypaceni.tif,110,0.0666666666666667,0.0666666666666667,0.916666666666667,16335.581159,16336.27071425,13,16335.642966625,16335.703873375,16336.289362583,16337.199366041,0,0.689555250000922
122,18,3,categorization,0,kitchen,SHINEd_sun_aeqdocilnnpuvuhx.tif,83,0.0666666666666667,0.0666666666666667,1.31666666666667,16337.204157875,16338.135265791,9,16337.26576725,16337.326957416,16338.145329333,16339.455366791,1,0.931107915999746
122,19,3,categorization,0,kitchen,SHINEd_sun_ahspylgoovwmwvgk.tif,93,0.0666666666666667,0.0666666666666667,1.45,16339.4734225,16340.756297208,9,16339.539836583,16339.605867,16340.781087708,16342.224475666,1,1.28287470800024
122,20,3,categorization,0,bathroom,SHINEd_sun_akiytfaagpdsphgz.tif,31,0.0666666666666667,0.0666666666666667,0.95,16342.243251416,16343.328579208,13,16342.309564916,16342.375287666,16343.348305541,16344.291644833,1,1.08532779200141
122,21,3,categorization,0,bathroom,SHINEd_sun_azqyogdvyhahyram.tif,60,0.0666666666666667,0.0666666666666667,1.38333333333333,16344.297479541,16345.287166125,13,16344.359327458,16344.42061,16345.305926875,16346.682641875,1,0.989686584000083
122,22,3,categorization,0,bathroom,SHINEd_sun_anryaplzeujmzfkd.tif,39,0.0666666666666667,0.0666666666666667,1.16666666666667,16346.699700916,16347.611097375,9,16346.766364375,16346.832245583,16347.6385165,16348.798548875,0,0.911396458999661
122,23,3,categorization,0,bathroom,SHINEd_sun_apkruvsevgegsdwp.tif,44,0.0666666666666667,0.0666666666666667,1.61666666666667,16348.808119125,16349.500684583,13,16348.874815541,16348.940588333,16349.530440958,16351.140466166,1,0.692565457999081
122,24,3,categorization,0,bathroom,SHINEd_sun_ahaulkltgpkeeemi.tif,26,0.0666666666666667,0.0666666666666667,1.38333333333333,16351.151750375,16351.817169875,13,16351.219863166,16351.284346958,16351.840399583,16353.217125375,1,0.665419499999189
122,25,3,categorization,0,bathroom,SHINEd_sun_aoybiabnpadelefl.tif,41,0.0666666666666667,0.0666666666666667,1.78333333333333,16353.229936333,16353.908183083,9,16353.296123416,16353.362589875,16353.935714833,16355.712440166,0,0.678246749999744
122,26,3,categorization,0,bathroom,SHINEd_sun_acegryoqftbzowsg.tif,17,0.0666666666666667,0.0666666666666667,0.783333333333333,16355.732795583,16356.360675041,13,16355.799753125,16355.865364916,16356.388951541,16357.16562425,1,0.62787945799937
122,27,3,categorization,0,kitchen,SHINEd_sun_akchetnepxlcxhsu.tif,98,0.0666666666666667,0.0666666666666667,1.65,16357.170698625,16357.774572333,9,16357.232446541,16357.293452458,16357.778678083,16359.422052208,1,0.603873708001629
122,28,3,categorization,0,bathroom,SHINEd_sun_aqrpegblszgcoujh.tif,48,0.0666666666666667,0.0666666666666667,1.86666666666667,16359.438973333,16360.387902708,13,16359.50693875,16359.5716785,16360.411770833,16362.271833958,1,0.948929374999352
122,29,3,categorization,0,kitchen,SHINEd_sun_aenotlpyftoioydp.tif,82,0.0666666666666667,0.0666666666666667,1.23333333333333,16362.289634416,16362.969161916,9,16362.356164125,16362.422265541,16362.995326625,16364.222048375,1,0.679527500000404
122,30,3,categorization,0,bathroom,SHINEd_sun_aggnnqpdorgxpvce.tif,21,0.0666666666666667,0.0666666666666667,0.7,16364.239537541,16364.985279458,9,16364.306147541,16364.37208925,16365.011687625,16365.7050605,0,0.745741917000487
122,31,3,categorization,0,bathroom,SHINEd_sun_awnqiikzaispgmwo.tif,56,0.0666666666666667,0.0666666666666667,0.716666666666667,16365.721580375,16366.542993166,13,16365.788010166,16365.854145541,16366.55649725,16367.266501166,1,0.821412790999602
122,32,3,categorization,0,kitchen,SHINEd_sun_aehawpgmrlhlvcow.tif,81,0.0666666666666667,0.0666666666666667,1.05,16367.271653833,16368.127380208,13,16367.3333035,16367.394366083,16368.146101708,16369.189472625,0,0.855726374998994
122,33,3,categorization,0,kitchen,SHINEd_sun_ahpczsiumwwocjkv.tif,92,0.0666666666666667,0.0666666666666667,1.1,16369.19801725,16369.830314916,9,16369.262633958,16369.32922825,16369.852317125,16370.94568575,1,0.632297665999431
122,34,3,categorization,0,bathroom,SHINEd_labelme_sfxiulhjbhlyiyt.tif,11,0.0666666666666667,0.0666666666666667,1.13333333333333,16370.962270916,16372.102888916,13,16371.030270416,16371.095225208,16372.114272208,16373.240982916,1,1.14061800000127
122,35,3,categorization,0,kitchen,SHINEd_sun_aymvwlarqodbwuoc.tif,108,0.0666666666666667,0.0666666666666667,1.38333333333333,16373.249196791,16374.001170666,9,16373.314299208,16373.381727125,16374.021144583,16375.397858,1,0.751973875001568
122,36,3,categorization,0,bathroom,SHINEd_sun_apynckhmoftszqoq.tif,47,0.0666666666666667,0.0666666666666667,1.5,16375.416131541,16376.165989166,9,16375.482746208,16375.54871225,16376.188348458,16377.68172125,0,0.749857625000004
122,37,3,categorization,0,kitchen,SHINEd_sun_aadbddgrdsjugojn.tif,64,0.0666666666666667,0.0666666666666667,1.61666666666667,16377.69979125,16378.324556333,13,16377.766335958,16377.832788666,16378.33830925,16379.948364083,0,0.624765083000966
122,38,3,categorization,0,kitchen,SHINEd_sun_acxkpeoqbwcxfvip.tif,77,0.0666666666666667,0.0666666666666667,0.983333333333333,16379.967449333,16380.563480458,13,16380.034125833,16380.099967166,16380.591211875,16381.567887833,0,0.596031125000081
122,39,3,categorization,0,bathroom,SHINEd_sun_abapwbhyhkfixyex.tif,14,0.0666666666666667,0.0666666666666667,1.3,16381.573936916,16382.271362125,9,16381.635717958,16381.696718458,16382.281825875,16383.575201041,0,0.697425209000357
122,40,3,categorization,0,kitchen,SHINEd_sun_aexklacwqwezaorf.tif,84,0.0666666666666667,0.0666666666666667,1.03333333333333,16383.591692708,16384.456438125,9,16383.658524833,16383.724351625,16384.481010375,16385.507709833,1,0.86474541699863
122,41,3,categorization,0,kitchen,SHINEd_sun_abdenxonkemggwsq.tif,69,0.0666666666666667,0.0666666666666667,1.45,16385.5167895,16386.906581125,9,16385.581753166,16385.6486495,16386.922574291,16388.365948666,1,1.38979162499891
122,42,3,categorization,0,bathroom,SHINEd_sun_acduarbnmmoglmiv.tif,16,0.0666666666666667,0.0666666666666667,1.23333333333333,16388.383573958,16389.295353375,9,16388.450300958,16388.517086208,16389.324496416,16390.55121275,0,0.911779417001526
122,43,3,categorization,0,kitchen,SHINEd_sun_aegoxogugdkwpmpj.tif,80,0.0666666666666667,0.0666666666666667,1.26666666666667,16390.568163666,16391.597973458,9,16390.634861208,16390.701424708,16391.625196583,16392.885237166,1,1.02980979199856
122,44,3,categorization,0,bathroom,SHINEd_sun_alkosphxlxwjwgjd.tif,34,0.0666666666666667,0.0666666666666667,1.03333333333333,16392.900862208,16393.804855125,13,16392.967080041,16393.033737,16393.823071958,16394.849778041,1,0.903992916999414
122,45,3,categorization,0,bathroom,SHINEd_sun_aavhrsfjbserjtht.tif,13,0.0666666666666667,0.0666666666666667,1.31666666666667,16394.863750583,16395.962204208,13,16394.928476291,16394.995110875,16395.985271,16397.295314833,1,1.09845362499982
122,46,3,categorization,0,bathroom,SHINEd_sun_atstyziqcmkahyxk.tif,51,0.0666666666666667,0.0666666666666667,1.7,16397.314870291,16398.097519083,9,16397.381721916,16397.447728458,16398.121224791,16399.81461425,0,0.782648791999236
122,47,3,categorization,0,bathroom,SHINEd_sun_aghyqhbptboemmoq.tif,23,0.0666666666666667,0.0666666666666667,1.35,16399.8326865,16400.48066125,9,16399.899688208,16399.965276208,16400.505483625,16401.848870416,0,0.647974749997957
122,48,3,categorization,0,kitchen,SHINEd_sun_abpwyqmlzafvklqo.tif,72,0.0666666666666667,0.0666666666666667,0.8,16401.867478958,16403.11181225,13,16401.934398416,16402.000588375,16403.1393105,16403.932647708,0,1.2443332920011
122,49,3,categorization,0,kitchen,SHINEd_sun_awcpdzzznmweyyhv.tif,106,0.0666666666666667,0.0666666666666667,0.766666666666667,16403.938659875,16405.7268885,13,16404.000342291,16404.061466833,16405.747349083,16406.5073525,0,1.78822862500238
122,50,3,categorization,0,bathroom,SHINEd_sun_ajlawzvmubibwbpy.tif,30,0.0666666666666667,0.0666666666666667,1.38333333333333,16406.512843541,16407.942534708,13,16406.57464075,16406.635562625,16407.955016,16409.331720291,1,1.42969116699896
122,1,4,categorization,0,bathroom,SHINEd_sun_agguqiubmwhqqunb.tif,22,0.0666666666666667,0.0666666666666667,1,16434.2127535,16435.406406583,13,16434.275545291,16434.335500166,16435.420615791,16436.413954833,1,1.19365308299894
122,2,4,categorization,0,kitchen,SHINEd_sun_ahljzhgcdpomplvg.tif,91,0.0666666666666667,0.0666666666666667,0.966666666666667,16436.419622375,16437.046681083,9,16436.48154,16436.542304166,16437.061002666,16438.021008791,1,0.627058707999822
122,3,4,categorization,0,kitchen,SHINEd_sun_acfmftudsenhrfhy.tif,74,0.0666666666666667,0.0666666666666667,1.75,16438.026606791,16438.750764041,9,16438.0882465,16438.14928525,16438.768154458,16440.511543875,1,0.724157249998825
122,4,4,categorization,0,bathroom,SHINEd_sun_apjevzvycyhuqghb.tif,43,0.0666666666666667,0.0666666666666667,1.68333333333333,16440.528154166,16441.383894041,9,16440.596224541,16440.660816625,16441.3999695,16443.076694625,0,0.855739874998108
122,5,4,categorization,0,kitchen,SHINEd_sun_abftihopvusyfakt.tif,71,0.0666666666666667,0.0666666666666667,1.58333333333333,16443.094483708,16443.79533,9,16443.159062125,16443.225987708,16443.815131208,16445.39184075,1,0.700846292002097
122,6,4,categorization,0,kitchen,SHINEd_sun_aggjlwcdjsjcaemh.tif,86,0.0666666666666667,0.0666666666666667,1,16445.408659041,16446.319982875,9,16445.475076666,16445.541334541,16446.347811166,16447.341149,1,0.911323833999631
122,7,4,categorization,0,bathroom,SHINEd_sun_acgyywnybuveqsro.tif,18,0.0666666666666667,0.0666666666666667,1.33333333333333,16447.346363208,16448.126849458,13,16447.407965041,16447.469099041,16448.137673833,16449.464396208,1,0.780486250001559
122,8,4,categorization,0,kitchen,SHINEd_sun_admlmbcdswaszruo.tif,79,0.0666666666666667,0.0666666666666667,1.26666666666667,16449.481443,16450.202525333,9,16449.547818833,16449.61409625,16450.220020416,16451.480071375,1,0.721082332998776
122,9,4,categorization,0,kitchen,SHINEd_sun_auticobqsbwgoppi.tif,104,0.0666666666666667,0.0666666666666667,0.883333333333333,16451.496584333,16452.272592375,9,16451.5628045,16451.629445916,16452.302810625,16453.179527916,1,0.776008042001195
122,10,4,categorization,0,kitchen,SHINEd_sun_akcjzhbbjlbogpdi.tif,99,0.0666666666666667,0.0666666666666667,1.26666666666667,16453.188962083,16454.590048041,9,16453.255572958,16453.320224958,16454.606104375,16455.866143458,1,1.40108595799757
122,11,4,categorization,0,bathroom,SHINEd_sun_axxbkopsgyouuebh.tif,58,0.0666666666666667,0.0666666666666667,2,16455.884285458,16456.587237208,13,16455.951223416,16456.016764625,16456.606623,16458.600001291,1,0.702951750001375
122,12,4,categorization,0,bathroom,SHINEd_sun_ahqjwnzgolcaoidx.tif,29,0.0666666666666667,0.0666666666666667,0.733333333333333,16458.61827925,16459.856258958,13,16458.685273583,16458.751176375,16459.872430708,16460.599102,1,1.23797970799933
122,13,4,categorization,0,bathroom,SHINEd_sun_aclfzgynxzxlbepz.tif,19,0.0666666666666667,0.0666666666666667,0.883333333333333,16460.605031333,16461.518681,13,16460.666826125,16460.72775575,16461.529696916,16462.406368875,1,0.913649666999845
122,14,4,categorization,0,kitchen,SHINEd_sun_abrcnpqqhmjwekyf.tif,73,0.0666666666666667,0.0666666666666667,0.983333333333333,16462.411596791,16463.31040775,9,16462.47330175,16462.534431791,16463.319589875,16464.296261375,1,0.898810958999093
122,15,4,categorization,0,kitchen,SHINEd_sun_aypmqwcualkenuoe.tif,109,0.0666666666666667,0.0666666666666667,1.56666666666667,16464.301120416,16465.070903541,9,16464.362903541,16464.424034708,16465.075986708,16466.636031958,1,0.769783125000686
122,16,4,categorization,0,kitchen,SHINEd_sun_aamedkxepzlwuxes.tif,65,0.0666666666666667,0.0666666666666667,1.08333333333333,16466.653121875,16467.410450125,9,16466.719948125,16466.785667625,16467.4246375,16468.501338625,1,0.757328250001592
122,17,4,categorization,0,kitchen,SHINEd_sun_acwjdupvyjsugpay.tif,76,0.0666666666666667,0.0666666666666667,0.75,16468.512730958,16469.259661916,13,16468.577760791,16468.644155375,16469.283938416,16470.027310666,0,0.74693095800103
122,18,4,categorization,0,kitchen,SHINEd_sun_aunzlwrbjumxhwdj.tif,103,0.0666666666666667,0.0666666666666667,0.966666666666667,16470.044971041,16470.782368833,9,16470.111310416,16470.1776085,16470.796493083,16471.756497333,1,0.737397791999683
122,19,4,categorization,0,kitchen,SHINEd_sun_acgtpgfybqjmzeyw.tif,75,0.0666666666666667,0.0666666666666667,1.63333333333333,16471.76202625,16472.374274958,9,16471.823746708,16471.884844,16472.386614541,16474.013324458,1,0.61224870800288
122,20,4,categorization,0,bathroom,SHINEd_sun_aleqenyvunhactkl.tif,32,0.0666666666666667,0.0666666666666667,1.46666666666667,16474.030943,16474.703491083,13,16474.097308458,16474.163749958,16474.719333083,16476.179383666,1,0.672548082999128
122,21,4,categorization,0,bathroom,SHINEd_sun_aofnryafpsjimzsb.tif,40,0.0666666666666667,0.0666666666666667,0.933333333333333,16476.196672125,16477.025358125,9,16476.26324025,16476.329893083,16477.052840541,16477.979511458,0,0.828686000000744
122,22,4,categorization,0,kitchen,SHINEd_sun_aixorpehvfykdynp.tif,95,0.0666666666666667,0.0666666666666667,1.45,16477.985238625,16478.886669416,9,16478.046931333,16478.107976291,16478.89342425,16480.336802583,1,0.901430791000166
122,23,4,categorization,0,kitchen,SHINEd_sun_aaxxjlsuzvqlgylf.tif,68,0.0666666666666667,0.0666666666666667,0.966666666666667,16480.348520583,16481.561925166,9,16480.41658225,16480.481144166,16481.587129875,16482.547135916,1,1.21340458299892
122,24,4,categorization,0,kitchen,SHINEd_labelme_rykdqxenmhulbdn.tif,63,0.0666666666666667,0.0666666666666667,0.816666666666667,16482.552955125,16483.94296325,9,16482.614954875,16482.676049291,16483.9619295,16484.771936625,1,1.39000812499944
122,25,4,categorization,0,kitchen,SHINEd_sun_abdxkyyxwfskuaqb.tif,70,0.0666666666666667,0.0666666666666667,1.96666666666667,16484.778261083,16485.88625875,9,16484.840051458,16484.900950083,16485.903379875,16487.863417875,1,1.10799766700075
122,26,4,categorization,0,kitchen,SHINEd_sun_aqeaevwwwjoqhzvl.tif,101,0.0666666666666667,0.0666666666666667,0.916666666666667,16487.882309333,16489.118338541,9,16487.9486505,16488.014957458,16489.134120166,16490.044124916,1,1.23602920800113
122,27,4,categorization,0,bathroom,SHINEd_sun_alotolagknyrgtsk.tif,35,0.0666666666666667,0.0666666666666667,1.28333333333333,16490.04973375,16490.9503285,9,16490.111350458,16490.172605291,16490.958205958,16492.2349215,0,0.900594750000892
122,28,4,categorization,0,kitchen,SHINEd_sun_avszsnwsbuqfgzbn.tif,105,0.0666666666666667,0.0666666666666667,1.8,16492.251782583,16492.847016125,13,16492.318410833,16492.384746125,16492.874423375,16494.667792958,0,0.595233542000642
122,29,4,categorization,0,bathroom,SHINEd_sun_asfwthctfqerjvxr.tif,49,0.0666666666666667,0.0666666666666667,1.33333333333333,16494.685257666,16495.672734708,13,16494.75190825,16494.817978375,16495.690847666,16497.017556166,1,0.987477042002865
122,30,4,categorization,0,bathroom,SHINEd_sun_aljolscmmzydegqp.tif,33,0.0666666666666667,0.0666666666666667,1.06666666666667,16497.033940125,16497.792587458,9,16497.09991325,16497.164833916,16497.821267875,16498.881303833,0,0.758647333001136
122,31,4,categorization,0,bathroom,SHINEd_sun_agrwbmhcpmfuwmsg.tif,24,0.0666666666666667,0.0666666666666667,1.03333333333333,16498.890198166,16500.199970958,13,16498.954969583,16499.023082208,16500.211693291,16501.238397541,1,1.30977279200306
122,32,4,categorization,0,kitchen,SHINEd_sun_aarfiyshqohlwkmo.tif,67,0.0666666666666667,0.0666666666666667,0.733333333333333,16501.246798291,16501.90413225,9,16501.311010458,16501.378074875,16501.9343885,16502.661106625,1,0.657333959003154
122,33,4,categorization,0,kitchen,SHINEd_sun_ajcbwwvdlsvjyzje.tif,96,0.0666666666666667,0.0666666666666667,0.766666666666667,16502.675433791,16503.462340416,13,16502.741682708,16502.807696916,16503.476690083,16504.236694291,0,0.786906625002302
122,34,4,categorization,0,bathroom,SHINEd_sun_ausgutylgojavyoq.tif,53,0.0666666666666667,0.0666666666666667,1.1,16504.2414825,16505.062229083,13,16504.303223208,16504.364164666,16505.066316166,16506.159707708,1,0.820746582998254
122,35,4,categorization,0,bathroom,SHINEd_sun_afcoljnjfoxjtgja.tif,20,0.0666666666666667,0.0666666666666667,1.81666666666667,16506.168680291,16506.977247583,13,16506.233743458,16506.301269375,16507.007256958,16508.817296458,1,0.80856729199877
122,36,4,categorization,0,kitchen,SHINEd_sun_aapllqyqlykszopd.tif,66,0.0666666666666667,0.0666666666666667,0.883333333333333,16508.834540583,16509.67500275,13,16508.901085416,16508.967169041,16509.68975375,16510.56642375,0,0.840462166997895
122,37,4,categorization,0,bathroom,SHINEd_sun_amzlamotzwfkwjco.tif,37,0.0666666666666667,0.0666666666666667,1.7,16510.571387583,16511.4859365,9,16510.633107375,16510.694335791,16511.496102,16513.189481833,0,0.914548917000502
122,38,4,categorization,0,kitchen,SHINEd_sun_ajkqhtgcbgpcwrwn.tif,97,0.0666666666666667,0.0666666666666667,1.58333333333333,16513.200634208,16514.042807958,9,16513.26889125,16513.333176208,16514.056009666,16515.632730791,1,0.842173750002985
122,39,4,categorization,0,bathroom,SHINEd_sun_ahcvzmoyaycdoftf.tif,27,0.0666666666666667,0.0666666666666667,0.833333333333333,16515.652396958,16516.472181,9,16515.720007375,16515.785695625,16516.491885875,16517.318559125,0,0.81978404199981
122,40,4,categorization,0,bathroom,SHINEd_sun_anhioqovhscjqqwb.tif,38,0.0666666666666667,0.0666666666666667,0.95,16517.324753583,16518.270017041,13,16517.38648225,16517.44785875,16518.283027416,16519.226365458,1,0.945263457997498
122,41,4,categorization,0,bathroom,SHINEd_sun_auzqhkafidnkrwmo.tif,54,0.0666666666666667,0.0666666666666667,1.06666666666667,16519.230995833,16520.493950208,13,16519.2928125,16519.353683416,16520.506049375,16521.566085458,1,1.26295437500085
122,42,4,categorization,0,kitchen,SHINEd_sun_amjjdeyrggfqgmom.tif,100,0.0666666666666667,0.0666666666666667,1.68333333333333,16521.574368958,16522.222998916,9,16521.638846333,16521.705605166,16522.245196083,16523.921905041,1,0.648629957999219
122,43,4,categorization,0,kitchen,SHINEd_sun_ahywdevtimnqcsln.tif,94,0.0666666666666667,0.0666666666666667,1.31666666666667,16523.938348541,16524.6761895,13,16524.004917666,16524.070948791,16524.693388125,16526.003425416,0,0.737840959001915
122,44,4,categorization,0,bathroom,SHINEd_sun_aspsyogrekjtfozg.tif,50,0.0666666666666667,0.0666666666666667,1.61666666666667,16526.0207035,16527.238169791,13,16526.087053041,16526.153169541,16527.259589125,16528.869623,1,1.21746629100016
122,45,4,categorization,0,bathroom,SHINEd_sun_axldvoqbuvuggfmq.tif,57,0.0666666666666667,0.0666666666666667,1.15,16528.888544416,16529.799417666,9,16528.954904708,16529.021098333,16529.827691166,16530.971065041,0,0.910873249998986
122,46,4,categorization,0,kitchen,SHINEd_sun_ahdycvpopffkzzsu.tif,90,0.0666666666666667,0.0666666666666667,1.25,16530.981145375,16531.777792333,13,16531.047639583,16531.110322375,16531.800436208,16533.043802541,0,0.796646957998746
122,47,4,categorization,0,bathroom,SHINEd_sun_agyqfjcfkdcydepw.tif,25,0.0666666666666667,0.0666666666666667,1.1,16533.059437916,16534.162589833,13,16533.123848291,16533.190809375,16534.180674833,16535.274047,1,1.1031519169992
122,48,4,categorization,0,kitchen,SHINEd_sun_auaiucuqpdausiva.tif,102,0.0666666666666667,0.0666666666666667,0.9,16535.282164875,16536.153041333,13,16535.347425625,16535.414701875,16536.170657083,16537.064041666,0,0.870876458000566
122,49,4,categorization,0,bathroom,SHINEd_sun_ambriybtogmepttm.tif,36,0.0666666666666667,0.0666666666666667,1.3,16537.079621875,16537.934742208,9,16537.145952041,16537.2115735,16537.9473805,16539.240746958,0,0.855120332998922
122,50,4,categorization,0,kitchen,SHINEd_labelme_brsyyvweiuaazfr.tif,61,0.0666666666666667,0.0666666666666667,1.25,16539.257058208,16540.315369875,9,16539.322085958,16539.390746958,16540.329207208,16541.572586916,1,1.05831166699863
122,1,5,categorization,0,kitchen,SHINEd_sun_axyyrmzcupyhlivc.tif,107,0.0666666666666667,0.0666666666666667,1.7,16575.86285975,16577.142425833,9,16575.925238625,16575.985608416,16577.154445958,16578.847835125,1,1.27956608300155
122,2,5,categorization,0,bathroom,SHINEd_sun_aghyqhbptboemmoq.tif,23,0.0666666666666667,0.0666666666666667,1.81666666666667,16578.8679515,16579.792110208,13,16578.934909708,16579.001113291,16579.824933375,16581.63498925,1,0.924158707999595
122,3,5,categorization,0,bathroom,SHINEd_sun_awnqiikzaispgmwo.tif,56,0.0666666666666667,0.0666666666666667,1.23333333333333,16581.653024541,16582.301628375,13,16581.720471958,16581.78652925,16582.326808583,16583.553526125,1,0.648603834000824
122,4,5,categorization,0,bathroom,SHINEd_sun_axxbkopsgyouuebh.tif,58,0.0666666666666667,0.0666666666666667,1.4,16583.570550625,16584.328674291,9,16583.639132875,16583.703492041,16584.342821125,16585.736197541,0,0.758123665997118
122,5,5,categorization,0,kitchen,SHINEd_sun_adgqasybjyktddhj.tif,78,0.0666666666666667,0.0666666666666667,1.03333333333333,16585.754131333,16586.327969458,9,16585.821373125,16585.887118291,16586.343564916,16587.370278458,1,0.573838125001203
122,6,5,categorization,0,kitchen,SHINEd_sun_agorklincwxrdtga.tif,87,0.0666666666666667,0.0666666666666667,1.38333333333333,16587.383222583,16588.382073166,9,16587.449031333,16587.508250833,16588.393506333,16589.770209375,1,0.998850583000603
122,7,5,categorization,0,kitchen,SHINEd_sun_awcpdzzznmweyyhv.tif,106,0.0666666666666667,0.0666666666666667,2,16589.787139291,16590.555404916,9,16589.853813833,16589.920092916,16590.576794583,16592.570187583,1,0.768265624999913
122,8,5,categorization,0,kitchen,SHINEd_sun_aymvwlarqodbwuoc.tif,108,0.0666666666666667,0.0666666666666667,1.85,16592.58734075,16593.469150166,9,16592.654254458,16592.719308958,16593.491147666,16595.334525666,1,0.881809416001488
122,9,5,categorization,0,kitchen,SHINEd_sun_amjjdeyrggfqgmom.tif,100,0.0666666666666667,0.0666666666666667,0.816666666666667,16595.351791958,16596.093285166,9,16595.418742958,16595.484340916,16596.106892541,16596.916901041,1,0.741493207999156
122,10,5,categorization,0,kitchen,SHINEd_sun_aexklacwqwezaorf.tif,84,0.0666666666666667,0.0666666666666667,1.85,16596.922824083,16597.6056785,9,16596.984496208,16597.045591541,16597.614039708,16599.457422583,1,0.682854416998453
122,11,5,categorization,0,bathroom,SHINEd_sun_agrwbmhcpmfuwmsg.tif,24,0.0666666666666667,0.0666666666666667,0.733333333333333,16599.474468416,16600.141364875,9,16599.540772458,16599.60727875,16600.163359583,16600.89002975,0,0.666896458998963
122,12,5,categorization,0,bathroom,SHINEd_sun_apjevzvycyhuqghb.tif,43,0.0666666666666667,0.0666666666666667,0.716666666666667,16600.89564275,16601.982215416,13,16600.957323916,16601.018290125,16601.987431083,16602.697436791,1,1.08657266599766
122,13,5,categorization,0,bathroom,SHINEd_sun_agyqfjcfkdcydepw.tif,25,0.0666666666666667,0.0666666666666667,0.833333333333333,16602.702875708,16603.405810958,9,16602.764602,16602.825646291,16603.410677583,16604.237348458,0,0.702935249999427
122,14,5,categorization,0,bathroom,SHINEd_sun_axldvoqbuvuggfmq.tif,57,0.0666666666666667,0.0666666666666667,0.95,16604.242120125,16604.901781458,9,16604.303813,16604.364996833,16604.917323416,16605.860663375,0,0.659661333000258
122,15,5,categorization,0,bathroom,SHINEd_sun_azqyogdvyhahyram.tif,60,0.0666666666666667,0.0666666666666667,1.96666666666667,16605.866311791,16606.557350875,13,16605.928048208,16605.989103791,16606.574499,16608.534539541,1,0.691039083998476
122,16,5,categorization,0,bathroom,SHINEd_sun_aleqenyvunhactkl.tif,32,0.0666666666666667,0.0666666666666667,1.86666666666667,16608.550331291,16609.576432416,9,16608.616848958,16608.683395166,16609.606485666,16611.466531333,0,1.02610112500042
122,17,5,categorization,0,bathroom,SHINEd_sun_acgyywnybuveqsro.tif,18,0.0666666666666667,0.0666666666666667,1.51666666666667,16611.482245958,16612.074957916,13,16611.548648416,16611.614757416,16612.104415833,16613.6144705,1,0.592711958001019
122,18,5,categorization,0,kitchen,SHINEd_sun_aegoxogugdkwpmpj.tif,80,0.0666666666666667,0.0666666666666667,1.3,16613.631726625,16614.317834625,9,16613.698457958,16613.764485291,16614.337453541,16615.630820666,1,0.686107999998057
122,19,5,categorization,0,bathroom,SHINEd_sun_aggnnqpdorgxpvce.tif,21,0.0666666666666667,0.0666666666666667,1.91666666666667,16615.648434125,16616.310988375,9,16615.714918041,16615.781704833,16616.338281125,16618.248339041,0,0.662554250000539
122,20,5,categorization,0,kitchen,SHINEd_sun_aamedkxepzlwuxes.tif,65,0.0666666666666667,0.0666666666666667,1.23333333333333,16618.266215875,16618.889348458,9,16618.332981583,16618.39870425,16618.904511083,16620.13122375,1,0.623132583001279
122,21,5,categorization,0,bathroom,SHINEd_sun_aofnryafpsjimzsb.tif,40,0.0666666666666667,0.0666666666666667,0.866666666666667,16620.148038291,16620.829054708,13,16620.21501875,16620.280706791,16620.854232833,16621.714284083,1,0.681016416998318
122,22,5,categorization,0,bathroom,SHINEd_sun_aunuadmjocsddsrl.tif,52,0.0666666666666667,0.0666666666666667,0.8,16621.730033625,16622.413415166,9,16621.796271125,16621.862839833,16622.431964583,16623.225302958,0,0.683381540999108
122,23,5,categorization,0,kitchen,SHINEd_sun_abdxkyyxwfskuaqb.tif,70,0.0666666666666667,0.0666666666666667,1.51666666666667,16623.230128375,16623.89413025,13,16623.291794125,16623.352824458,16623.9049555,16625.415011916,0,0.664001875000395
122,24,5,categorization,0,bathroom,SHINEd_sun_ahaulkltgpkeeemi.tif,26,0.0666666666666667,0.0666666666666667,1.18333333333333,16625.432226291,16626.064620208,13,16625.498116125,16625.564735,16626.087457375,16627.264175875,1,0.632393916999717
122,25,5,categorization,0,bathroom,SHINEd_sun_ahqjwnzgolcaoidx.tif,29,0.0666666666666667,0.0666666666666667,1.6,16627.274183583,16627.842291958,13,16627.3394815,16627.407115791,16627.863189958,16629.456569625,1,0.568108375002339
122,26,5,categorization,0,bathroom,SHINEd_sun_ahijqszoswveeyji.tif,28,0.0666666666666667,0.0666666666666667,1.56666666666667,16629.473093708,16629.968138375,13,16629.540392958,16629.605622875,16629.995324625,16631.555375458,1,0.495044667000911
122,27,5,categorization,0,kitchen,SHINEd_sun_aehawpgmrlhlvcow.tif,81,0.0666666666666667,0.0666666666666667,1.36666666666667,16631.571326208,16632.384823583,9,16631.638897,16631.70381575,16632.410691083,16633.770748916,1,0.813497375002044
122,28,5,categorization,0,kitchen,SHINEd_sun_azmutvzbxypaceni.tif,110,0.0666666666666667,0.0666666666666667,1.53333333333333,16633.788059708,16634.474372875,13,16633.855531916,16633.920939958,16634.493532333,16636.020248958,0,0.686313166999753
122,29,5,categorization,0,kitchen,SHINEd_labelme_kxvouciolcpqplr.tif,62,0.0666666666666667,0.0666666666666667,1.4,16636.036672583,16636.592470041,13,16636.104181833,16636.169042083,16636.607879375,16638.00124775,0,0.555797458000598
122,30,5,categorization,0,bathroom,SHINEd_sun_apkxzenqapsujocq.tif,45,0.0666666666666667,0.0666666666666667,1.06666666666667,16638.019274625,16638.669507166,13,16638.086032833,16638.152115875,16638.692085,16639.752121708,1,0.65023254100015
122,31,5,categorization,0,bathroom,SHINEd_sun_aljolscmmzydegqp.tif,33,0.0666666666666667,0.0666666666666667,1.63333333333333,16639.762087125,16640.520221416,13,16639.826655916,16639.89261625,16640.549177833,16642.175895416,1,0.758134291001625
122,32,5,categorization,0,kitchen,SHINEd_sun_ahljzhgcdpomplvg.tif,91,0.0666666666666667,0.0666666666666667,1.8,16642.193334916,16642.879360083,9,16642.259280416,16642.325867166,16642.898449583,16644.691828916,1,0.68602516700048
122,33,5,categorization,0,bathroom,SHINEd_sun_aavhrsfjbserjtht.tif,13,0.0666666666666667,0.0666666666666667,1.53333333333333,16644.70815925,16645.37579575,13,16644.775976833,16644.841184416,16645.397209791,16646.923925458,1,0.66763649999848
122,34,5,categorization,0,bathroom,SHINEd_sun_avhrdrntsqrjzccq.tif,55,0.0666666666666667,0.0666666666666667,0.766666666666667,16646.940474,16647.569841916,13,16647.008134125,16647.072661916,16647.595787,16648.355823375,1,0.629367916000774
122,35,5,categorization,0,kitchen,SHINEd_sun_acgtpgfybqjmzeyw.tif,75,0.0666666666666667,0.0666666666666667,1.86666666666667,16648.37161875,16648.973489,9,16648.434458708,16648.494618458,16648.979766333,16650.8398245,1,0.601870250000502
122,36,5,categorization,0,kitchen,SHINEd_sun_acwjdupvyjsugpay.tif,76,0.0666666666666667,0.0666666666666667,1.13333333333333,16650.857726125,16651.522527791,13,16650.924382375,16650.990269833,16651.546053833,16652.67275375,0,0.66480166600013
122,37,5,categorization,0,bathroom,SHINEd_sun_abjtwfukuwddzted.tif,15,0.0666666666666667,0.0666666666666667,1.73333333333333,16652.682524083,16653.376445166,13,16652.747611208,16652.815149166,16653.385943583,16655.112666541,1,0.693921082998713
122,38,5,categorization,0,bathroom,SHINEd_sun_aapitsgbtktqubfy.tif,12,0.0666666666666667,0.0666666666666667,0.766666666666667,16655.122637791,16655.609757083,9,16655.187722166,16655.255569041,16655.628055333,16656.388094708,0,0.487119291999988
122,39,5,categorization,0,kitchen,SHINEd_labelme_brsyyvweiuaazfr.tif,61,0.0666666666666667,0.0666666666666667,1.85,16656.403430958,16657.101366958,9,16656.469825541,16656.536184875,16657.105152958,16658.948530166,1,0.697936000000482
122,40,5,categorization,0,bathroom,SHINEd_sun_acegryoqftbzowsg.tif,17,0.0666666666666667,0.0666666666666667,0.966666666666667,16658.965367291,16659.559712625,13,16659.032046,16659.098318791,16659.588012958,16660.548019583,1,0.594345334000536
122,41,5,categorization,0,kitchen,SHINEd_sun_aaxxjlsuzvqlgylf.tif,68,0.0666666666666667,0.0666666666666667,1.06666666666667,16660.553864625,16661.517579458,13,16660.615591791,16660.676518875,16661.528446291,16662.588482833,0,0.963714833000267
122,42,5,categorization,0,bathroom,SHINEd_sun_aqrpegblszgcoujh.tif,48,0.0666666666666667,0.0666666666666667,1.38333333333333,16662.6000365,16663.271396666,13,16662.664672541,16662.730480291,16663.286021458,16664.662697958,1,0.67136016600125
122,43,5,categorization,0,bathroom,SHINEd_sun_aspsyogrekjtfozg.tif,50,0.0666666666666667,0.0666666666666667,0.766666666666667,16664.668580916,16665.229603583,13,16664.730320333,16664.791285416,16665.242983833,16666.002990375,1,0.561022666999634
122,44,5,categorization,0,bathroom,SHINEd_sun_abapwbhyhkfixyex.tif,14,0.0666666666666667,0.0666666666666667,0.866666666666667,16666.008628916,16666.573446083,9,16666.070311208,16666.131266875,16666.583517041,16667.443521916,0,0.564817167000001
122,45,5,categorization,0,kitchen,SHINEd_sun_aqeaevwwwjoqhzvl.tif,101,0.0666666666666667,0.0666666666666667,1.25,16667.448266791,16668.189841416,9,16667.509907583,16667.571064875,16668.206417583,16669.449791375,1,0.741574624997156
122,46,5,categorization,0,kitchen,SHINEd_sun_aenotlpyftoioydp.tif,82,0.0666666666666667,0.0666666666666667,1.03333333333333,16669.465596333,16670.054941416,13,16669.531782916,16669.598272625,16670.070626375,16671.0973335,0,0.589345083000808
122,47,5,categorization,0,kitchen,SHINEd_sun_ajkqhtgcbgpcwrwn.tif,97,0.0666666666666667,0.0666666666666667,0.783333333333333,16671.111877625,16671.686152666,13,16671.17679975,16671.244012833,16671.696369833,16672.473040375,0,0.574275040999055
122,48,5,categorization,0,bathroom,SHINEd_sun_aoybiabnpadelefl.tif,41,0.0666666666666667,0.0666666666666667,0.7,16672.477841291,16673.077658291,13,16672.539430125,16672.600446708,16673.085904375,16673.779244083,1,0.599817000002076
122,49,5,categorization,0,bathroom,SHINEd_sun_alkosphxlxwjwgjd.tif,34,0.0666666666666667,0.0666666666666667,1.75,16673.784841083,16674.525501208,9,16673.846474208,16673.907585458,16674.542803916,16676.286180583,0,0.740660125000431
122,50,5,categorization,0,bathroom,SHINEd_sun_alotolagknyrgtsk.tif,35,0.0666666666666667,0.0666666666666667,1.36666666666667,16676.301860541,16677.021135708,13,16676.369599375,16676.434592125,16677.040695125,16678.400749833,1,0.719275167000887
122,1,6,categorization,0,bathroom,SHINEd_sun_auzqhkafidnkrwmo.tif,54,0.0666666666666667,0.0666666666666667,0.966666666666667,16779.356455,16779.917271458,13,16779.419140625,16779.47912575,16779.930826916,16780.890832583,1,0.560816458000772
122,2,6,categorization,0,kitchen,SHINEd_sun_ajcbwwvdlsvjyzje.tif,96,0.0666666666666667,0.0666666666666667,1.73333333333333,16780.896099666,16781.573219458,13,16780.957747333,16781.018801041,16781.587386958,16783.314097291,0,0.677119792002486
122,3,6,categorization,0,kitchen,SHINEd_labelme_rykdqxenmhulbdn.tif,63,0.0666666666666667,0.0666666666666667,1.91666666666667,16783.331279125,16783.944699208,9,16783.39787575,16783.463866791,16783.970126208,16785.880180125,1,0.613420083001984
122,4,6,categorization,0,bathroom,SHINEd_sun_apkruvsevgegsdwp.tif,44,0.0666666666666667,0.0666666666666667,0.766666666666667,16785.896638291,16786.529992041,13,16785.963159458,16786.029414791,16786.5526145,16787.312618583,1,0.633353749999515
122,5,6,categorization,0,bathroom,SHINEd_sun_acduarbnmmoglmiv.tif,16,0.0666666666666667,0.0666666666666667,0.916666666666667,16787.31772925,16787.756964833,13,16787.379310041,16787.44053175,16787.77574,16788.68574425,1,0.439235582998663
122,6,6,categorization,0,bathroom,SHINEd_sun_asfwthctfqerjvxr.tif,49,0.0666666666666667,0.0666666666666667,1.18333333333333,16788.690858875,16789.293250416,13,16788.752589541,16788.8134775,16789.298604041,16790.475290458,1,0.602391541000543
122,7,6,categorization,0,bathroom,SHINEd_sun_amzlamotzwfkwjco.tif,37,0.0666666666666667,0.0666666666666667,1.8,16790.48449775,16790.998588875,13,16790.550771125,16790.616991916,16791.023226958,16792.816595625,1,0.514091125001869
122,8,6,categorization,0,bathroom,SHINEd_sun_anryaplzeujmzfkd.tif,39,0.0666666666666667,0.0666666666666667,0.883333333333333,16792.8338235,16793.341024958,13,16792.899824,16792.966502333,16793.354969208,16794.23168125,1,0.507201458000054
122,9,6,categorization,0,bathroom,SHINEd_sun_atstyziqcmkahyxk.tif,51,0.0666666666666667,0.0666666666666667,1.83333333333333,16794.246742291,16794.797730958,13,16794.313030375,16794.379185208,16794.81444475,16796.641150083,1,0.550988666997
122,10,6,categorization,0,kitchen,SHINEd_sun_aeqdocilnnpuvuhx.tif,83,0.0666666666666667,0.0666666666666667,1.76666666666667,16796.656928666,16797.128716541,13,16796.725010625,16796.789627041,16797.143785,16798.9038535,0,0.471787874997972
122,11,6,categorization,0,kitchen,SHINEd_sun_akchetnepxlcxhsu.tif,98,0.0666666666666667,0.0666666666666667,0.983333333333333,16798.921067041,16799.551679166,13,16798.987509291,16799.053863083,16799.576733416,16800.55340725,0,0.63061212500179
122,12,6,categorization,0,bathroom,SHINEd_sun_akiytfaagpdsphgz.tif,31,0.0666666666666667,0.0666666666666667,0.883333333333333,16800.56024575,16801.533394416,9,16800.621930166,16800.682930125,16801.551871666,16802.428543416,0,0.973148666002089
122,13,6,categorization,0,kitchen,SHINEd_sun_abrcnpqqhmjwekyf.tif,73,0.0666666666666667,0.0666666666666667,0.85,16802.433878916,16803.069471666,9,16802.495598458,16802.556574458,16803.075529875,16803.918868208,1,0.635592750000797
122,14,6,categorization,0,kitchen,SHINEd_sun_akcjzhbbjlbogpdi.tif,99,0.0666666666666667,0.0666666666666667,0.733333333333333,16803.923621708,16804.604720166,9,16803.985267958,16804.046439833,16804.6152805,16805.341951833,1,0.681098458000633
122,15,6,categorization,0,kitchen,SHINEd_sun_ahspylgoovwmwvgk.tif,93,0.0666666666666667,0.0666666666666667,1.88333333333333,16805.346874791,16805.988784375,9,16805.408514125,16805.469570166,16806.004933375,16807.881633166,1,0.641909583999222
122,16,6,categorization,0,kitchen,SHINEd_sun_auaiucuqpdausiva.tif,102,0.0666666666666667,0.0666666666666667,0.816666666666667,16807.898940666,16808.44593875,9,16807.965573291,16808.031485916,16808.471320083,16809.28132325,1,0.546998083998915
122,17,6,categorization,0,kitchen,SHINEd_sun_afuyedyxivkhecmu.tif,85,0.0666666666666667,0.0666666666666667,1.9,16809.286233291,16809.908820833,13,16809.347967375,16809.408929708,16809.927353708,16811.820728833,0,0.622587541998655
122,18,6,categorization,0,bathroom,SHINEd_labelme_sfxiulhjbhlyiyt.tif,11,0.0666666666666667,0.0666666666666667,0.983333333333333,16811.836842541,16812.465022166,13,16811.904710958,16811.969737958,16812.493143875,16813.469816833,1,0.628179625000485
122,19,6,categorization,0,kitchen,SHINEd_sun_ahdycvpopffkzzsu.tif,90,0.0666666666666667,0.0666666666666667,0.75,16813.476805166,16814.765363416,9,16813.538585166,16813.5994775,16814.785429125,16815.528768083,1,1.2885582500021
122,20,6,categorization,0,kitchen,SHINEd_sun_aypmqwcualkenuoe.tif,109,0.0666666666666667,0.0666666666666667,1.6,16815.533907833,16816.3726115,9,16815.595659583,16815.656692666,16816.392080833,16817.985460541,1,0.838703666999209
122,21,6,categorization,0,bathroom,SHINEd_sun_apmqjbnwghzuhhzh.tif,46,0.0666666666666667,0.0666666666666667,1.58333333333333,16818.001811166,16818.548515083,13,16818.068396291,16818.134451,16818.57415525,16820.150879583,1,0.546703916999832
122,22,6,categorization,0,bathroom,SHINEd_sun_anhioqovhscjqqwb.tif,38,0.0666666666666667,0.0666666666666667,1.11666666666667,16820.16677775,16820.674400708,13,16820.233048875,16820.29906175,16820.6877975,16821.79785675,1,0.507622958000866
122,23,6,categorization,0,kitchen,SHINEd_sun_auticobqsbwgoppi.tif,104,0.0666666666666667,0.0666666666666667,1.53333333333333,16821.807915,16822.606912958,9,16821.873966708,16821.940321791,16822.629861083,16824.156569416,1,0.798997957997926
122,24,6,categorization,0,bathroom,SHINEd_sun_ajlawzvmubibwbpy.tif,30,0.0666666666666667,0.0666666666666667,1.48333333333333,16824.17296425,16824.677981333,13,16824.2395575,16824.305421416,16824.693959291,16826.170661583,1,0.505017082999984
122,25,6,categorization,0,kitchen,SHINEd_sun_aapllqyqlykszopd.tif,66,0.0666666666666667,0.0666666666666667,1.1,16826.188572458,16827.085168041,9,16826.255425166,16826.321652375,16827.109646625,16828.203025875,1,0.896595583002636
122,26,6,categorization,0,kitchen,SHINEd_sun_abdenxonkemggwsq.tif,69,0.0666666666666667,0.0666666666666667,0.933333333333333,16828.213414958,16828.807243291,13,16828.280148083,16828.346195166,16828.836111041,16829.762825416,0,0.593828332999692
122,27,6,categorization,0,bathroom,SHINEd_sun_ambriybtogmepttm.tif,36,0.0666666666666667,0.0666666666666667,0.816666666666667,16829.778599791,16830.997282583,13,16829.845576083,16829.911269666,16831.013922333,16831.823926541,1,1.21868279200135
122,28,6,categorization,0,kitchen,SHINEd_sun_agzzivivdpnawacl.tif,89,0.0666666666666667,0.0666666666666667,1.78333333333333,16831.828808791,16832.644424916,13,16831.890449041,16831.951524625,16832.653952166,16834.43066975,0,0.815616125000815
122,29,6,categorization,0,kitchen,SHINEd_sun_agubuxuukhzyzpdp.tif,88,0.0666666666666667,0.0666666666666667,0.766666666666667,16834.445707291,16835.41432125,13,16834.512080666,16834.578083,16835.4343725,16836.194376833,0,0.968613958997594
122,30,6,categorization,0,kitchen,SHINEd_sun_acxkpeoqbwcxfvip.tif,77,0.0666666666666667,0.0666666666666667,1.45,16836.2001885,16836.773399125,9,16836.2619865,16836.322923875,16836.791564666,16838.234949666,1,0.573210624999774
122,31,6,categorization,0,kitchen,SHINEd_sun_aixorpehvfykdynp.tif,95,0.0666666666666667,0.0666666666666667,0.75,16838.246581833,16838.91804525,9,16838.314047916,16838.379186791,16838.934446541,16839.677817041,1,0.671463417002087
122,32,6,categorization,0,kitchen,SHINEd_sun_abftihopvusyfakt.tif,71,0.0666666666666667,0.0666666666666667,1.36666666666667,16839.695150875,16840.477001833,9,16839.761553791,16839.826626666,16840.495771875,16841.855821416,1,0.781850957999268
122,33,6,categorization,0,kitchen,SHINEd_sun_avszsnwsbuqfgzbn.tif,105,0.0666666666666667,0.0666666666666667,0.75,16841.8725435,16842.374038166,9,16841.93903875,16842.005389916,16842.395018791,16843.138381458,1,0.501494665997598
122,34,6,categorization,0,kitchen,SHINEd_sun_ahywdevtimnqcsln.tif,94,0.0666666666666667,0.0666666666666667,0.783333333333333,16843.148618666,16843.853436208,9,16843.213469333,16843.281344583,16843.867219958,16844.643891875,1,0.704817541998636
122,35,6,categorization,0,bathroom,SHINEd_sun_afcoljnjfoxjtgja.tif,20,0.0666666666666667,0.0666666666666667,1.11666666666667,16844.648710333,16845.188901208,9,16844.710374,16844.771404833,16845.206502041,16846.316539166,0,0.540190874999098
122,36,6,categorization,0,bathroom,SHINEd_sun_aclfzgynxzxlbepz.tif,19,0.0666666666666667,0.0666666666666667,0.766666666666667,16846.3278795,16846.909587916,13,16846.391820333,16846.460494541,16846.933464375,16847.693520833,1,0.581708416000765
122,37,6,categorization,0,kitchen,SHINEd_sun_acfmftudsenhrfhy.tif,74,0.0666666666666667,0.0666666666666667,0.716666666666667,16847.709534583,16848.804997583,9,16847.775567041,16847.842052708,16848.810900666,16849.520904541,1,1.09546300000147
122,38,6,categorization,0,kitchen,SHINEd_sun_abpwyqmlzafvklqo.tif,72,0.0666666666666667,0.0666666666666667,1.33333333333333,16849.526770833,16850.284897083,9,16849.5884905,16849.649609666,16850.301499416,16851.628211125,1,0.758126249998895
122,39,6,categorization,0,bathroom,SHINEd_sun_ausgutylgojavyoq.tif,53,0.0666666666666667,0.0666666666666667,1.75,16851.647401208,16852.4493515,13,16851.713745,16851.779852958,16852.469300208,16854.2126845,1,0.801950291999674
122,40,6,categorization,0,kitchen,SHINEd_sun_aadbddgrdsjugojn.tif,64,0.0666666666666667,0.0666666666666667,1.13333333333333,16854.2305825,16854.885271708,9,16854.297018541,16854.363223208,16854.902605333,16856.029320458,1,0.654689208000491
122,41,6,categorization,0,bathroom,SHINEd_sun_apeeialkgkuxddgh.tif,42,0.0666666666666667,0.0666666666666667,1.63333333333333,16856.039982375,16856.58157725,13,16856.104968458,16856.17383325,16856.595818458,16858.222532708,1,0.541594874997827
122,42,6,categorization,0,kitchen,SHINEd_sun_admlmbcdswaszruo.tif,79,0.0666666666666667,0.0666666666666667,1.43333333333333,16858.238472458,16858.749091625,9,16858.305969916,16858.37096,16858.777347458,16860.204055958,1,0.510619166998367
122,43,6,categorization,0,bathroom,SHINEd_sun_agguqiubmwhqqunb.tif,22,0.0666666666666667,0.0666666666666667,1.83333333333333,16860.220554208,16861.119882875,9,16860.286938791,16860.353313916,16861.142394708,16862.969109375,0,0.899328666997462
122,44,6,categorization,0,kitchen,SHINEd_sun_aggjlwcdjsjcaemh.tif,86,0.0666666666666667,0.0666666666666667,1.93333333333333,16862.987284416,16864.097680833,9,16863.054378958,16863.1151105,16864.122498541,16866.049207166,1,1.11039641699972
122,45,6,categorization,0,bathroom,SHINEd_sun_ahcvzmoyaycdoftf.tif,27,0.0666666666666667,0.0666666666666667,1.26666666666667,16866.067150916,16867.084556916,9,16866.134476416,16866.200345291,16867.106437125,16868.366483291,0,1.01740600000267
122,46,6,categorization,0,kitchen,SHINEd_sun_ahpczsiumwwocjkv.tif,92,0.0666666666666667,0.0666666666666667,1.86666666666667,16868.385516125,16869.026035916,9,16868.452705625,16868.518380875,16869.041124708,16870.901182458,1,0.640519790998951
122,47,6,categorization,0,bathroom,SHINEd_sun_axyrejkiiaqiurjk.tif,59,0.0666666666666667,0.0666666666666667,1.41666666666667,16870.920026958,16872.620724375,13,16870.987223333,16871.052951583,16872.638666541,16874.048698916,1,1.7006974169999
122,48,6,categorization,0,kitchen,SHINEd_sun_aunzlwrbjumxhwdj.tif,103,0.0666666666666667,0.0666666666666667,1.11666666666667,16874.066153208,16874.862653916,9,16874.132850541,16874.199086166,16874.889454333,16875.999498625,1,0.796500707998348
122,49,6,categorization,0,kitchen,SHINEd_sun_aarfiyshqohlwkmo.tif,67,0.0666666666666667,0.0666666666666667,1.8,16876.01097875,16877.028234916,13,16876.076185916,16876.143993583,16877.050540916,16878.843915208,0,1.01725616600015
122,50,6,categorization,0,bathroom,SHINEd_sun_apynckhmoftszqoq.tif,47,0.0666666666666667,0.0666666666666667,1.25,16878.855667666,16879.508320625,13,16878.922375791,16878.988439958,16879.528037416,16880.771424375,1,0.652652958997351
122,1,7,categorization,0,kitchen,SHINEd_sun_azmutvzbxypaceni.tif,110,0.0666666666666667,0.0666666666666667,0.883333333333333,16891.615724,16892.213230916,13,16891.678094041,16891.738485958,16892.223767958,16893.100441333,0,0.597506916001294
122,2,7,categorization,0,bathroom,SHINEd_sun_auzqhkafidnkrwmo.tif,54,0.0666666666666667,0.0666666666666667,1.03333333333333,16893.106087375,16893.7885375,13,16893.167724875,16893.228806708,16893.797550875,16894.824260791,1,0.682450125001196
122,3,7,categorization,0,bathroom,SHINEd_sun_apmqjbnwghzuhhzh.tif,46,0.0666666666666667,0.0666666666666667,1.06666666666667,16894.835082541,16895.745035291,13,16894.900087583,16894.966202083,16895.772499791,16896.832552291,1,0.909952749996592
122,4,7,categorization,0,kitchen,SHINEd_sun_abrcnpqqhmjwekyf.tif,73,0.0666666666666667,0.0666666666666667,0.833333333333333,16896.847808958,16897.58921325,9,16896.910363916,16896.970480041,16897.6060895,16898.432761458,1,0.741404292002699
122,5,7,categorization,0,bathroom,SHINEd_sun_awnqiikzaispgmwo.tif,56,0.0666666666666667,0.0666666666666667,0.716666666666667,16898.438396666,16899.07654525,13,16898.500048791,16898.561046125,16899.079734833,16899.789739375,1,0.63814858400292
122,6,7,categorization,0,kitchen,SHINEd_sun_aegoxogugdkwpmpj.tif,80,0.0666666666666667,0.0666666666666667,0.733333333333333,16899.795499041,16900.388810208,9,16899.857119916,16899.918143333,16900.403193791,16901.129863541,1,0.593311167001957
122,7,7,categorization,0,bathroom,SHINEd_sun_aunuadmjocsddsrl.tif,52,0.0666666666666667,0.0666666666666667,1.38333333333333,16901.134431,16901.892336583,13,16901.196064125,16901.257080166,16901.909608833,16903.28630825,1,0.757905583002866
122,8,7,categorization,0,kitchen,SHINEd_sun_ajkqhtgcbgpcwrwn.tif,97,0.0666666666666667,0.0666666666666667,0.9,16903.302497958,16903.961846416,9,16903.368982125,16903.435066833,16903.992026416,16904.885395958,1,0.65934845800075
122,9,7,categorization,0,kitchen,SHINEd_sun_abdxkyyxwfskuaqb.tif,70,0.0666666666666667,0.0666666666666667,0.816666666666667,16904.902097875,16905.572389083,9,16904.965003875,16905.024862958,16905.5767985,16906.386805583,1,0.670291207999981
122,10,7,categorization,0,kitchen,SHINEd_sun_aunzlwrbjumxhwdj.tif,103,0.0666666666666667,0.0666666666666667,0.85,16906.392796625,16907.613242,13,16906.454473041,16906.515511875,16907.61764875,16908.460985916,0,1.22044537499823
122,11,7,categorization,0,bathroom,SHINEd_sun_aspsyogrekjtfozg.tif,50,0.0666666666666667,0.0666666666666667,1.6,16908.465876708,16910.084433333,13,16908.527650041,16908.588527458,16910.091239916,16911.684625625,1,1.61855662499875
122,12,7,categorization,0,kitchen,SHINEd_sun_aaxxjlsuzvqlgylf.tif,68,0.0666666666666667,0.0666666666666667,1.75,16911.701221875,16912.326415541,9,16911.768833166,16911.833924041,16912.339474875,16914.082865666,1,0.625193666000996
122,13,7,categorization,0,kitchen,SHINEd_labelme_brsyyvweiuaazfr.tif,61,0.0666666666666667,0.0666666666666667,1.1,16914.099693666,16915.119644125,9,16914.167421875,16914.232210541,16915.137207166,16916.230591833,1,1.01995045899821
122,14,7,categorization,0,kitchen,SHINEd_sun_aymvwlarqodbwuoc.tif,108,0.0666666666666667,0.0666666666666667,1.46666666666667,16916.239553875,16917.116279583,9,16916.304496041,16916.372172208,16917.125906583,16918.585962416,1,0.876725707999867
122,15,7,categorization,0,kitchen,SHINEd_sun_aqeaevwwwjoqhzvl.tif,101,0.0666666666666667,0.0666666666666667,1.25,16918.602657083,16919.506599291,13,16918.6707225,16918.735185583,16919.524524125,16920.76789875,0,0.903942207998625
122,16,7,categorization,0,bathroom,SHINEd_sun_afcoljnjfoxjtgja.tif,20,0.0666666666666667,0.0666666666666667,1.13333333333333,16920.784061041,16921.503123458,13,16920.851881291,16920.916739375,16921.523240375,16922.649956541,1,0.719062416999805
122,17,7,categorization,0,bathroom,SHINEd_sun_acgyywnybuveqsro.tif,18,0.0666666666666667,0.0666666666666667,1.33333333333333,16922.660372166,16923.442248958,9,16922.72717675,16922.792982125,16923.465947625,16924.792654416,0,0.781876791999821
122,18,7,categorization,0,kitchen,SHINEd_sun_awcpdzzznmweyyhv.tif,106,0.0666666666666667,0.0666666666666667,1.86666666666667,16924.813304375,16925.89524175,9,16924.879725041,16924.945807333,16925.919131041,16927.77918575,1,1.08193737500187
122,19,7,categorization,0,kitchen,SHINEd_sun_abftihopvusyfakt.tif,71,0.0666666666666667,0.0666666666666667,1.58333333333333,16927.797271,16928.943125,9,16927.863681333,16927.929118,16928.968516916,16930.545233583,1,1.14585400000215
122,20,7,categorization,0,bathroom,SHINEd_sun_ahaulkltgpkeeemi.tif,26,0.0666666666666667,0.0666666666666667,1.05,16930.561226458,16931.382125875,13,16930.627960416,16930.694115333,16931.400170708,16932.443562583,1,0.820899416998145
122,21,7,categorization,0,kitchen,SHINEd_sun_ahljzhgcdpomplvg.tif,91,0.0666666666666667,0.0666666666666667,0.9,16932.454824791,16933.15769,9,16932.519799208,16932.586277708,16933.174984333,16934.068357708,1,0.702865209001175
122,22,7,categorization,0,bathroom,SHINEd_sun_aleqenyvunhactkl.tif,32,0.0666666666666667,0.0666666666666667,0.7,16934.081496666,16934.981071958,9,16934.14845375,16934.214406083,16935.0002975,16935.693634791,0,0.89957529199819
122,23,7,categorization,0,bathroom,SHINEd_sun_apkruvsevgegsdwp.tif,44,0.0666666666666667,0.0666666666666667,0.933333333333333,16935.69873625,16936.445150416,9,16935.760487833,16935.821509625,16936.456894416,16937.383565041,0,0.746414165998431
122,24,7,categorization,0,bathroom,SHINEd_sun_abapwbhyhkfixyex.tif,14,0.0666666666666667,0.0666666666666667,1.95,16937.38846425,16938.461030166,9,16937.450099833,16937.511261166,16938.480337541,16940.423713875,0,1.07256591599798
122,25,7,categorization,0,kitchen,SHINEd_sun_amjjdeyrggfqgmom.tif,100,0.0666666666666667,0.0666666666666667,1.06666666666667,16940.439902041,16941.004993666,13,16940.5073015,16940.572822166,16941.0287705,16942.088812625,0,0.565091625001514
122,26,7,categorization,0,kitchen,SHINEd_sun_agorklincwxrdtga.tif,87,0.0666666666666667,0.0666666666666667,1.2,16942.098353583,16942.83707075,9,16942.163267958,16942.226153916,16942.865809375,16944.059189791,1,0.738717167001596
122,27,7,categorization,0,kitchen,SHINEd_sun_aarfiyshqohlwkmo.tif,67,0.0666666666666667,0.0666666666666667,0.75,16944.072090458,16944.86051725,9,16944.134826625,16944.194830083,16944.879927791,16945.623265958,1,0.788426791998063
122,28,7,categorization,0,kitchen,SHINEd_sun_agubuxuukhzyzpdp.tif,88,0.0666666666666667,0.0666666666666667,0.816666666666667,16945.628837416,16946.380128708,9,16945.690536041,16945.751494291,16946.386562125,16947.196567416,1,0.751291291999223
122,29,7,categorization,0,bathroom,SHINEd_labelme_sfxiulhjbhlyiyt.tif,11,0.0666666666666667,0.0666666666666667,1.96666666666667,16947.201366291,16947.996270416,13,16947.263086625,16947.324146333,16948.009231083,16949.969283083,1,0.794904124999448
122,30,7,categorization,0,bathroom,SHINEd_sun_alotolagknyrgtsk.tif,35,0.0666666666666667,0.0666666666666667,1.2,16949.986220291,16950.732485708,9,16950.053807833,16950.119800333,16950.759389958,16951.952766041,0,0.74626541699763
122,31,7,categorization,0,kitchen,SHINEd_sun_agzzivivdpnawacl.tif,89,0.0666666666666667,0.0666666666666667,0.883333333333333,16951.963594625,16952.548262875,9,16952.030724333,16952.096301583,16952.568964208,16953.44567325,1,0.584668250001414
122,32,7,categorization,0,kitchen,SHINEd_sun_ahdycvpopffkzzsu.tif,90,0.0666666666666667,0.0666666666666667,1.33333333333333,16953.461113791,16954.133093583,9,16953.527601583,16953.593830583,16954.145971875,16955.472677583,1,0.671979792001366
122,33,7,categorization,0,kitchen,SHINEd_labelme_rykdqxenmhulbdn.tif,63,0.0666666666666667,0.0666666666666667,1.45,16955.489011875,16956.0695445,9,16955.555512625,16955.622611791,16956.095516,16957.538898666,1,0.580532624997431
122,34,7,categorization,0,kitchen,SHINEd_labelme_kxvouciolcpqplr.tif,62,0.0666666666666667,0.0666666666666667,1.15,16957.555885375,16958.110083625,9,16957.6222245,16957.688392083,16958.127321583,16959.270697375,1,0.554198249999899
122,35,7,categorization,0,bathroom,SHINEd_sun_aoybiabnpadelefl.tif,41,0.0666666666666667,0.0666666666666667,0.966666666666667,16959.285990583,16959.884717125,9,16959.348904125,16959.408881291,16959.894575458,16960.854581916,0,0.598726542000804
122,36,7,categorization,0,bathroom,SHINEd_sun_akiytfaagpdsphgz.tif,31,0.0666666666666667,0.0666666666666667,1.45,16960.85995475,16961.395971625,9,16960.921579333,16960.982696041,16961.401093458,16962.84447675,0,0.536016874997586
122,37,7,categorization,0,bathroom,SHINEd_sun_anryaplzeujmzfkd.tif,39,0.0666666666666667,0.0666666666666667,0.8,16962.863335875,16963.29379,9,16962.929647958,16962.996066333,16963.319356458,16964.11273,0,0.430454124998505
122,38,7,categorization,0,bathroom,SHINEd_sun_asfwthctfqerjvxr.tif,49,0.0666666666666667,0.0666666666666667,1.45,16964.127731958,16964.732177041,9,16964.193750875,16964.26023325,16964.746099666,16966.189467583,0,0.604445083001337
122,39,7,categorization,0,kitchen,SHINEd_sun_ahywdevtimnqcsln.tif,94,0.0666666666666667,0.0666666666666667,1.1,16966.205674833,16967.022221166,9,16966.27338175,16966.338182083,16967.044416458,16968.137797041,1,0.816546333000588
122,40,7,categorization,0,bathroom,SHINEd_sun_ajlawzvmubibwbpy.tif,30,0.0666666666666667,0.0666666666666667,1.16666666666667,16968.147317666,16968.693612708,13,16968.212814875,16968.279673125,16968.719340041,16969.879392416,1,0.546295042000565
122,41,7,categorization,0,kitchen,SHINEd_sun_acgtpgfybqjmzeyw.tif,75,0.0666666666666667,0.0666666666666667,1.31666666666667,16969.895104,16970.596812,9,16969.961603833,16970.027598541,16970.613209333,16971.923243333,1,0.701708000000508
122,42,7,categorization,0,kitchen,SHINEd_sun_axyyrmzcupyhlivc.tif,107,0.0666666666666667,0.0666666666666667,1.68333333333333,16971.935850208,16972.378211333,9,16972.001550416,16972.069582833,16972.39168225,16974.068395541,1,0.442361125002208
122,43,7,categorization,0,kitchen,SHINEd_sun_aenotlpyftoioydp.tif,82,0.0666666666666667,0.0666666666666667,0.966666666666667,16974.084437291,16974.596911791,9,16974.1511345,16974.217012833,16974.623644083,16975.583694291,1,0.512474499999371
122,44,7,categorization,0,kitchen,SHINEd_sun_acxkpeoqbwcxfvip.tif,77,0.0666666666666667,0.0666666666666667,1.4,16975.599813875,16976.292200375,9,16975.666461416,16975.732164666,16976.301160208,16977.694533333,1,0.692386499998975
122,45,7,categorization,0,kitchen,SHINEd_sun_admlmbcdswaszruo.tif,79,0.0666666666666667,0.0666666666666667,0.783333333333333,16977.712505375,16978.318438416,9,16977.7789015,16977.845338708,16978.334356291,16979.111045916,1,0.605933041002572
122,46,7,categorization,0,kitchen,SHINEd_sun_ajcbwwvdlsvjyzje.tif,96,0.0666666666666667,0.0666666666666667,1.08333333333333,16979.120971541,16979.996863958,9,16979.185913583,16979.253369416,16980.005929,16981.082642791,1,0.875892416999704
122,47,7,categorization,0,kitchen,SHINEd_sun_aexklacwqwezaorf.tif,84,0.0666666666666667,0.0666666666666667,1.43333333333333,16981.0935895,16982.095216208,9,16981.1580555,16981.224702333,16982.11372025,16983.540432083,1,1.00162670799909
122,48,7,categorization,0,kitchen,SHINEd_sun_aamedkxepzlwuxes.tif,65,0.0666666666666667,0.0666666666666667,1.75,16983.556866791,16984.118042,9,16983.623159125,16983.689124583,16984.145386125,16985.888772166,1,0.561175208997156
122,49,7,categorization,0,bathroom,SHINEd_sun_aapitsgbtktqubfy.tif,12,0.0666666666666667,0.0666666666666667,1.21666666666667,16985.906306375,16986.83121475,13,16985.973876166,16986.038608666,16986.842751041,16988.0527635,1,0.924908375000086
122,50,7,categorization,0,kitchen,SHINEd_sun_auaiucuqpdausiva.tif,102,0.0666666666666667,0.0666666666666667,1.31666666666667,16988.062980458,16988.73688,9,16988.129560166,16988.195516708,16988.751035125,16990.061077875,1,0.673899542001891
122,1,8,categorization,0,kitchen,SHINEd_sun_auticobqsbwgoppi.tif,104,0.0666666666666667,0.0666666666666667,1.18333333333333,17014.857397041,17015.74068375,13,17014.920040541,17014.98035075,17015.748878708,17016.925580208,0,0.883286708998639
122,2,8,categorization,0,bathroom,SHINEd_sun_azqyogdvyhahyram.tif,60,0.0666666666666667,0.0666666666666667,0.983333333333333,17016.935690666,17017.5671395,13,17017.003816833,17017.067889541,17017.590863875,17018.567570458,1,0.631448833999457
122,3,8,categorization,0,bathroom,SHINEd_sun_apynckhmoftszqoq.tif,47,0.0666666666666667,0.0666666666666667,1.65,17018.583208708,17019.18799,13,17018.649358875,17018.715867583,17019.20100775,17020.844381666,1,0.604781291996915
122,4,8,categorization,0,bathroom,SHINEd_sun_agrwbmhcpmfuwmsg.tif,24,0.0666666666666667,0.0666666666666667,1.23333333333333,17020.862686166,17021.657787708,9,17020.928644833,17020.995367208,17021.684879,17022.911585291,0,0.795101542000339
122,5,8,categorization,0,bathroom,SHINEd_sun_acduarbnmmoglmiv.tif,16,0.0666666666666667,0.0666666666666667,0.916666666666667,17022.929709083,17023.671568916,9,17022.9962315,17023.062060083,17023.684470625,17024.594521541,0,0.74185983300049
122,6,8,categorization,0,bathroom,SHINEd_sun_axxbkopsgyouuebh.tif,58,0.0666666666666667,0.0666666666666667,1.56666666666667,17024.610722125,17025.755689416,13,17024.677409625,17024.738936708,17025.774427458,17027.334468,1,1.1449672910021
122,7,8,categorization,0,kitchen,SHINEd_sun_aadbddgrdsjugojn.tif,64,0.0666666666666667,0.0666666666666667,1.63333333333333,17027.349902916,17028.051514041,9,17027.416274291,17027.484058208,17028.073908958,17029.700614375,1,0.701611124997726
122,8,8,categorization,0,bathroom,SHINEd_sun_anhioqovhscjqqwb.tif,38,0.0666666666666667,0.0666666666666667,1.1,17029.718280166,17030.380956125,13,17029.786306333,17029.851320333,17030.407740208,17031.501117458,1,0.662675958999898
122,9,8,categorization,0,bathroom,SHINEd_sun_ambriybtogmepttm.tif,36,0.0666666666666667,0.0666666666666667,1.38333333333333,17031.511127375,17032.280748291,13,17031.576653083,17031.6439065,17032.300061041,17033.676767958,1,0.76962091599853
122,10,8,categorization,0,bathroom,SHINEd_sun_axyrejkiiaqiurjk.tif,59,0.0666666666666667,0.0666666666666667,0.766666666666667,17033.695295125,17034.329227458,13,17033.761890916,17033.828019375,17034.351148083,17035.111195041,1,0.633932333003031
122,11,8,categorization,0,bathroom,SHINEd_sun_agguqiubmwhqqunb.tif,22,0.0666666666666667,0.0666666666666667,1.45,17035.121006041,17035.732010625,13,17035.186162833,17035.253510791,17035.739194125,17037.1825625,1,0.611004583999602
122,12,8,categorization,0,bathroom,SHINEd_sun_aqrpegblszgcoujh.tif,48,0.0666666666666667,0.0666666666666667,0.983333333333333,17037.193986708,17037.809154291,13,17037.260488708,17037.326985625,17037.833258083,17038.809964958,1,0.615167583000584
122,13,8,categorization,0,kitchen,SHINEd_sun_aehawpgmrlhlvcow.tif,81,0.0666666666666667,0.0666666666666667,0.716666666666667,17038.82721625,17039.84383,9,17038.889796416,17038.949952708,17039.852305666,17040.5623095,1,1.01661375000185
122,14,8,categorization,0,bathroom,SHINEd_sun_axldvoqbuvuggfmq.tif,57,0.0666666666666667,0.0666666666666667,1.41666666666667,17040.567156,17041.299914541,13,17040.628885416,17040.6897745,17041.308121958,17042.718157166,1,0.732758540998475
122,15,8,categorization,0,bathroom,SHINEd_sun_aggnnqpdorgxpvce.tif,21,0.0666666666666667,0.0666666666666667,1.21666666666667,17042.734005833,17043.937150583,13,17042.801668291,17042.866667,17043.956267625,17045.166302375,1,1.20314474999759
122,16,8,categorization,0,kitchen,SHINEd_sun_abpwyqmlzafvklqo.tif,72,0.0666666666666667,0.0666666666666667,1.61666666666667,17045.177260708,17046.023054166,13,17045.241982875,17045.310050916,17046.049534666,17047.659596583,0,0.845793458000117
122,17,8,categorization,0,bathroom,SHINEd_sun_aofnryafpsjimzsb.tif,40,0.0666666666666667,0.0666666666666667,0.783333333333333,17047.67979375,17048.50909775,13,17047.746824208,17047.812610083,17048.535977666,17049.312651833,1,0.829303999998956
122,18,8,categorization,0,kitchen,SHINEd_sun_acwjdupvyjsugpay.tif,76,0.0666666666666667,0.0666666666666667,1.98333333333333,17049.31836475,17050.16407925,13,17049.380043041,17049.441114916,17050.176503958,17052.153222166,0,0.845714499999303
122,19,8,categorization,0,kitchen,SHINEd_sun_aeqdocilnnpuvuhx.tif,83,0.0666666666666667,0.0666666666666667,0.983333333333333,17052.169499708,17052.910808375,9,17052.236057541,17052.302531041,17052.924701083,17053.901374625,1,0.74130866699852
122,20,8,categorization,0,kitchen,SHINEd_sun_abdenxonkemggwsq.tif,69,0.0666666666666667,0.0666666666666667,0.8,17053.909487125,17054.772358083,13,17053.97127,17054.032290791,17054.784803583,17055.578141583,0,0.862870957997075
122,21,8,categorization,0,bathroom,SHINEd_sun_avhrdrntsqrjzccq.tif,55,0.0666666666666667,0.0666666666666667,0.733333333333333,17055.583356083,17056.379611833,13,17055.6450785,17055.706285791,17056.391415333,17057.118086916,1,0.796255749999546
122,22,8,categorization,0,bathroom,SHINEd_sun_ausgutylgojavyoq.tif,53,0.0666666666666667,0.0666666666666667,0.966666666666667,17057.122813041,17058.780231166,13,17057.184514875,17057.24558275,17058.797741541,17059.757747416,1,1.65741812499982
122,23,8,categorization,0,bathroom,SHINEd_sun_agyqfjcfkdcydepw.tif,25,0.0666666666666667,0.0666666666666667,0.866666666666667,17059.762630208,17060.524350916,13,17059.824461375,17059.885371416,17060.53708625,17061.397089708,1,0.761720708000212
122,24,8,categorization,0,kitchen,SHINEd_sun_ahspylgoovwmwvgk.tif,93,0.0666666666666667,0.0666666666666667,1.23333333333333,17061.402047208,17062.003786958,9,17061.463672958,17061.52465625,17062.010148708,17063.236856875,1,0.601739749999979
122,25,8,categorization,0,bathroom,SHINEd_sun_apkxzenqapsujocq.tif,45,0.0666666666666667,0.0666666666666667,1.9,17063.247533625,17064.013409958,13,17063.313907083,17063.380671458,17064.037079708,17065.930450583,1,0.765876333000051
122,26,8,categorization,0,bathroom,SHINEd_sun_ahijqszoswveeyji.tif,28,0.0666666666666667,0.0666666666666667,0.866666666666667,17065.947320416,17066.720367208,13,17066.01378,17066.080118375,17066.735722583,17067.595727416,1,0.773046792000969
122,27,8,categorization,0,bathroom,SHINEd_sun_aavhrsfjbserjtht.tif,13,0.0666666666666667,0.0666666666666667,0.966666666666667,17067.601542458,17068.428505708,13,17067.663515375,17067.724278458,17068.443238083,17069.403242791,1,0.826963250001427
122,28,8,categorization,0,bathroom,SHINEd_sun_amzlamotzwfkwjco.tif,37,0.0666666666666667,0.0666666666666667,0.916666666666667,17069.409139333,17070.227995208,13,17069.470925791,17069.531798166,17070.23407225,17071.144078041,1,0.818855874997098
122,29,8,categorization,0,bathroom,SHINEd_sun_ahqjwnzgolcaoidx.tif,29,0.0666666666666667,0.0666666666666667,0.916666666666667,17071.148787583,17072.04393175,13,17071.210435166,17071.271486125,17072.056962,17072.966966791,1,0.895144166999671
122,30,8,categorization,0,bathroom,SHINEd_sun_apeeialkgkuxddgh.tif,42,0.0666666666666667,0.0666666666666667,1.4,17072.971740708,17073.84378675,13,17073.033412958,17073.0944695,17073.863404916,17075.256789291,1,0.872046042000875
122,31,8,categorization,0,bathroom,SHINEd_sun_acegryoqftbzowsg.tif,17,0.0666666666666667,0.0666666666666667,1.75,17075.272665583,17076.0981205,9,17075.340240958,17075.405372291,17076.128313083,17077.871703166,0,0.825454916997842
122,32,8,categorization,0,bathroom,SHINEd_sun_aclfzgynxzxlbepz.tif,19,0.0666666666666667,0.0666666666666667,1.25,17077.88819025,17078.486204458,13,17077.954747291,17078.020539916,17078.510563416,17079.753937583,1,0.598014208000677
122,33,8,categorization,0,kitchen,SHINEd_sun_adgqasybjyktddhj.tif,78,0.0666666666666667,0.0666666666666667,1.05,17079.7707955,17080.436807958,9,17079.837625,17079.903322708,17080.459857791,17081.503231958,1,0.666012458001205
122,34,8,categorization,0,bathroom,SHINEd_sun_alkosphxlxwjwgjd.tif,34,0.0666666666666667,0.0666666666666667,1.06666666666667,17081.518836166,17082.148467166,13,17081.586763166,17081.644292333,17082.163129541,17083.223179375,1,0.62963099999979
122,35,8,categorization,0,kitchen,SHINEd_sun_acfmftudsenhrfhy.tif,74,0.0666666666666667,0.0666666666666667,1.21666666666667,17083.231548708,17084.017209958,9,17083.29642725,17083.362803541,17084.03551125,17085.245562,1,0.785661249999976
122,36,8,categorization,0,kitchen,SHINEd_sun_avszsnwsbuqfgzbn.tif,105,0.0666666666666667,0.0666666666666667,0.95,17085.262122041,17085.844217833,9,17085.3248,17085.384880958,17085.853390125,17086.796727708,1,0.582095792000473
122,37,8,categorization,0,kitchen,SHINEd_sun_aapllqyqlykszopd.tif,66,0.0666666666666667,0.0666666666666667,0.9,17086.801753541,17087.459793958,13,17086.863880375,17086.924468583,17087.476251791,17088.36959075,0,0.658040417001757
122,38,8,categorization,0,kitchen,SHINEd_sun_akcjzhbbjlbogpdi.tif,99,0.0666666666666667,0.0666666666666667,1.78333333333333,17088.375311208,17089.011692375,9,17088.437230833,17088.498037708,17089.016760041,17090.79347725,1,0.636381166998035
122,39,8,categorization,0,bathroom,SHINEd_sun_abjtwfukuwddzted.tif,15,0.0666666666666667,0.0666666666666667,1.16666666666667,17090.811357625,17091.583126083,13,17090.878373416,17090.943757541,17091.599619291,17092.759666375,1,0.771768457998405
122,40,8,categorization,0,kitchen,SHINEd_sun_akchetnepxlcxhsu.tif,98,0.0666666666666667,0.0666666666666667,0.783333333333333,17092.769690333,17093.473197583,13,17092.83701725,17092.902135666,17093.491616333,17094.268327541,0,0.703507250000257
122,41,8,categorization,0,kitchen,SHINEd_sun_aypmqwcualkenuoe.tif,109,0.0666666666666667,0.0666666666666667,1.23333333333333,17094.284672583,17094.923775666,9,17094.351454625,17094.417262,17094.936379083,17096.16309225,1,0.639103083001828
122,42,8,categorization,0,kitchen,SHINEd_sun_afuyedyxivkhecmu.tif,85,0.0666666666666667,0.0666666666666667,0.9,17096.179085833,17096.781938958,9,17096.245420375,17096.312068333,17096.80202975,17097.695405166,1,0.602853125001275
122,43,8,categorization,0,bathroom,SHINEd_sun_atstyziqcmkahyxk.tif,51,0.0666666666666667,0.0666666666666667,0.7,17097.711007833,17098.523400708,13,17097.777572458,17097.84372675,17098.529378625,17099.222717625,1,0.812392874999205
122,44,8,categorization,0,bathroom,SHINEd_sun_aljolscmmzydegqp.tif,33,0.0666666666666667,0.0666666666666667,1.23333333333333,17099.2276165,17099.811514333,9,17099.289395666,17099.3502645,17099.818808583,17101.045516041,0,0.583897832999355
122,45,8,categorization,0,bathroom,SHINEd_sun_apjevzvycyhuqghb.tif,43,0.0666666666666667,0.0666666666666667,1,17101.063404125,17101.789675041,9,17101.127879375,17101.194498,17101.8170805,17102.810469625,0,0.726270915998612
122,46,8,categorization,0,kitchen,SHINEd_sun_ahpczsiumwwocjkv.tif,92,0.0666666666666667,0.0666666666666667,1.38333333333333,17102.827202958,17103.555622,9,17102.893451666,17102.951105708,17103.569551166,17104.946269791,1,0.728419041999587
122,47,8,categorization,0,bathroom,SHINEd_sun_aghyqhbptboemmoq.tif,23,0.0666666666666667,0.0666666666666667,1.3,17104.962852208,17105.631073041,9,17105.029176083,17105.095220583,17105.651142,17106.944508833,0,0.668220833002124
122,48,8,categorization,0,kitchen,SHINEd_sun_aggjlwcdjsjcaemh.tif,86,0.0666666666666667,0.0666666666666667,0.833333333333333,17106.961363333,17107.737040416,13,17107.0277825,17107.094229333,17107.766801541,17108.59350425,0,0.7756770829983
122,49,8,categorization,0,bathroom,SHINEd_sun_ahcvzmoyaycdoftf.tif,27,0.0666666666666667,0.0666666666666667,0.95,17108.610001791,17109.444063333,13,17108.67618725,17108.74270425,17109.4611495,17110.404488541,1,0.834061542002019
122,50,8,categorization,0,kitchen,SHINEd_sun_aixorpehvfykdynp.tif,95,0.0666666666666667,0.0666666666666667,1.43333333333333,17110.409830083,17111.051530541,13,17110.471502208,17110.5325225,17111.067974791,17112.494680916,0,0.641700457999832
122,1,9,categorization,0,kitchen,SHINEd_labelme_kxvouciolcpqplr.tif,62,0.0666666666666667,0.0666666666666667,1.08333333333333,17135.4733465,17136.1242585,13,17135.536188583,17135.596028583,17136.131387375,17137.2080875,0,0.650912000000972
122,2,9,categorization,0,bathroom,SHINEd_sun_anhioqovhscjqqwb.tif,38,0.0666666666666667,0.0666666666666667,0.8,17137.216507583,17137.856315666,13,17137.281526666,17137.347770041,17137.870007791,17138.663395666,1,0.639808082996751
122,3,9,categorization,0,bathroom,SHINEd_labelme_sfxiulhjbhlyiyt.tif,11,0.0666666666666667,0.0666666666666667,0.833333333333333,17138.679070958,17139.331965583,13,17138.745481666,17138.811816916,17139.347690708,17140.174363333,1,0.652894625000044
122,4,9,categorization,0,bathroom,SHINEd_sun_ausgutylgojavyoq.tif,53,0.0666666666666667,0.0666666666666667,1.45,17140.180004791,17140.787916083,13,17140.241600166,17140.302702416,17140.804686416,17142.248058958,1,0.607911292001518
122,5,9,categorization,0,bathroom,SHINEd_sun_acegryoqftbzowsg.tif,17,0.0666666666666667,0.0666666666666667,1.3,17142.26408425,17142.941263166,9,17142.330057,17142.396886125,17142.969765375,17144.2631325,0,0.677178916001139
122,6,9,categorization,0,kitchen,SHINEd_sun_aixorpehvfykdynp.tif,95,0.0666666666666667,0.0666666666666667,1.21666666666667,17144.280544541,17144.935848083,9,17144.347244375,17144.413384166,17144.952639958,17146.162700458,1,0.655303542000183
122,7,9,categorization,0,kitchen,SHINEd_sun_ajcbwwvdlsvjyzje.tif,96,0.0666666666666667,0.0666666666666667,0.733333333333333,17146.172324416,17146.79983025,13,17146.239706458,17146.305109916,17146.828330416,17147.55505575,0,0.627505833999749
122,8,9,categorization,0,kitchen,SHINEd_sun_azmutvzbxypaceni.tif,110,0.0666666666666667,0.0666666666666667,1.03333333333333,17147.571133875,17148.2680985,13,17147.637231166,17147.703545458,17148.272656291,17149.29937425,0,0.696964624999964
122,9,9,categorization,0,bathroom,SHINEd_sun_auzqhkafidnkrwmo.tif,54,0.0666666666666667,0.0666666666666667,1.1,17149.30969775,17150.334622875,13,17149.37470875,17149.440856291,17150.3639435,17151.457311625,1,1.02492512500248
122,10,9,categorization,0,kitchen,SHINEd_sun_ahdycvpopffkzzsu.tif,90,0.0666666666666667,0.0666666666666667,1.25,17151.466483916,17152.425084958,13,17151.533154625,17151.6002575,17152.439160625,17153.682541916,0,0.958601041998918
122,11,9,categorization,0,bathroom,SHINEd_sun_acgyywnybuveqsro.tif,18,0.0666666666666667,0.0666666666666667,1.4,17153.699792958,17154.31936975,13,17153.766408375,17153.8321295,17154.338096916,17155.731489125,1,0.619576791999862
