sub_num,trial,block,task,is_practice,category,image,texture,duration,mask_dur,jitter,stim_time,time_of_resp,trial_response,mask_time,fix_time,jit_onset,trial_end,trial_accuracy,RT
122,1,20,categorization,0,kitchen,SHINEd_sun_admlmbcdswaszruo.tif,79,0.0666666666666667,0.0666666666666667,1.95,18485.790002833,18486.534582583,13,18485.85259575,18485.912795083,18486.547903208,18488.491288291,0,0.744579750000412
122,2,20,categorization,0,kitchen,SHINEd_sun_acfmftudsenhrfhy.tif,74,0.0666666666666667,0.0666666666666667,0.85,18488.5094295,18489.16568225,9,18488.576346791,18488.6420725,18489.179872791,18490.023212833,1,0.656252749999112
122,3,20,categorization,0,kitchen,SHINEd_sun_abdxkyyxwfskuaqb.tif,70,0.0666666666666667,0.0666666666666667,0.816666666666667,18490.028944708,18490.702747125,9,18490.090597708,18490.151848583,18490.720629375,18491.530633791,1,0.673802417000843
122,4,20,categorization,0,bathroom,SHINEd_sun_atstyziqcmkahyxk.tif,51,0.0666666666666667,0.0666666666666667,0.983333333333333,18491.536374375,18492.174753333,13,18491.597951833,18491.659018041,18492.194410541,18493.171080208,1,0.638378958003159
122,5,20,categorization,0,kitchen,SHINEd_sun_abrcnpqqhmjwekyf.tif,73,0.0666666666666667,0.0666666666666667,0.75,18493.175727041,18493.878819875,9,18493.23735875,18493.298344833,18493.883896708,18494.627233541,1,0.703092833999108
122,6,20,categorization,0,bathroom,SHINEd_sun_agguqiubmwhqqunb.tif,22,0.0666666666666667,0.0666666666666667,1.48333333333333,18494.63268875,18495.366313958,9,18494.694428791,18494.755373916,18495.373914416,18496.85063275,0,0.733625207998557
122,7,20,categorization,0,bathroom,SHINEd_sun_agyqfjcfkdcydepw.tif,25,0.0666666666666667,0.0666666666666667,0.75,18496.867109291,18497.882776125,13,18496.934689625,18496.999998208,18497.906583583,18498.649923458,1,1.01566683399869
122,8,20,categorization,0,kitchen,SHINEd_sun_aamedkxepzlwuxes.tif,65,0.0666666666666667,0.0666666666666667,1.58333333333333,18498.655640541,18499.534853208,9,18498.71739675,18498.778346041,18499.546795041,18501.123487208,1,0.879212666997773
122,9,20,categorization,0,kitchen,SHINEd_sun_acxkpeoqbwcxfvip.tif,77,0.0666666666666667,0.0666666666666667,1.88333333333333,18501.139602708,18501.758371583,9,18501.203805625,18501.272419125,18501.778641125,18503.655347375,1,0.61876887499966
122,10,20,categorization,0,kitchen,SHINEd_sun_aypmqwcualkenuoe.tif,109,0.0666666666666667,0.0666666666666667,1.18333333333333,18503.673690125,18504.370672791,9,18503.740114791,18503.806709541,18504.396304,18505.573024166,1,0.696982665998803
122,11,20,categorization,0,kitchen,SHINEd_sun_akcjzhbbjlbogpdi.tif,99,0.0666666666666667,0.0666666666666667,1.65,18505.582532125,18506.134732958,9,18505.648745041,18505.714823291,18506.1539565,18507.797344208,1,0.552200832997187
122,12,20,categorization,0,kitchen,SHINEd_sun_aggjlwcdjsjcaemh.tif,86,0.0666666666666667,0.0666666666666667,1.33333333333333,18507.81478,18508.552764583,9,18507.881990375,18507.947012416,18508.569587583,18509.896292625,1,0.73798458300007
122,13,20,categorization,0,kitchen,SHINEd_sun_agubuxuukhzyzpdp.tif,88,0.0666666666666667,0.0666666666666667,0.95,18509.91227675,18510.488165333,9,18509.978873875,18510.045440458,18510.518606333,18511.461999583,1,0.575888583000051
122,14,20,categorization,0,kitchen,SHINEd_sun_agorklincwxrdtga.tif,87,0.0666666666666667,0.0666666666666667,1.56666666666667,18511.477778541,18512.166667583,9,18511.544194166,18511.610529958,18512.179244541,18513.73929175,1,0.688889041997754
122,15,20,categorization,0,bathroom,SHINEd_sun_axxbkopsgyouuebh.tif,58,0.0666666666666667,0.0666666666666667,1.91666666666667,18513.755788291,18514.2842285,13,18513.822478666,18513.888182166,18514.311038666,18516.221091125,1,0.528440209000109
122,16,20,categorization,0,kitchen,SHINEd_sun_akchetnepxlcxhsu.tif,98,0.0666666666666667,0.0666666666666667,1.75,18516.239787416,18516.905752958,13,18516.304377125,18516.372333875,18516.928920875,18518.6722995,0,0.665965541997139
122,17,20,categorization,0,bathroom,SHINEd_sun_awnqiikzaispgmwo.tif,56,0.0666666666666667,0.0666666666666667,0.966666666666667,18518.688551708,18519.44999325,13,18518.754935708,18518.821302,18519.477666625,18520.43767175,1,0.761441541999375
122,18,20,categorization,0,bathroom,SHINEd_sun_aggnnqpdorgxpvce.tif,21,0.0666666666666667,0.0666666666666667,1.15,18520.443136458,18521.157917708,9,18520.504769291,18520.565889208,18521.16769125,18522.311082708,0,0.714781249997031
122,19,20,categorization,0,kitchen,SHINEd_sun_axyyrmzcupyhlivc.tif,107,0.0666666666666667,0.0666666666666667,0.733333333333333,18522.320551958,18522.858341208,9,18522.388333583,18522.453110916,18522.876018458,18523.602725791,1,0.53778925000006
122,20,20,categorization,0,bathroom,SHINEd_sun_asfwthctfqerjvxr.tif,49,0.0666666666666667,0.0666666666666667,1.41666666666667,18523.617979166,18524.534781625,13,18523.684388958,18523.750743291,18524.553244958,18525.963283208,1,0.916802458999882
122,21,20,categorization,0,bathroom,SHINEd_sun_aapitsgbtktqubfy.tif,12,0.0666666666666667,0.0666666666666667,0.916666666666667,18525.9798285,18526.619756583,9,18526.046452458,18526.112482166,18526.635094875,18527.545145416,0,0.639928083000996
122,22,20,categorization,0,bathroom,SHINEd_sun_axyrejkiiaqiurjk.tif,59,0.0666666666666667,0.0666666666666667,1.05,18527.560975208,18528.182721416,9,18527.627598375,18527.685802083,18528.187697625,18529.231088375,0,0.621746207998513
122,23,20,categorization,0,kitchen,SHINEd_sun_ajcbwwvdlsvjyzje.tif,96,0.0666666666666667,0.0666666666666667,1,18529.240234791,18529.984665125,13,18529.305267375,18529.371729541,18530.01141675,18531.004788625,0,0.744430334001663
122,24,20,categorization,0,kitchen,SHINEd_sun_aymvwlarqodbwuoc.tif,108,0.0666666666666667,0.0666666666666667,0.766666666666667,18531.020276833,18531.7422065,13,18531.086631041,18531.14836975,18531.750911791,18532.510917166,0,0.72192966700095
122,25,20,categorization,0,kitchen,SHINEd_sun_aunzlwrbjumxhwdj.tif,103,0.0666666666666667,0.0666666666666667,0.783333333333333,18532.516531125,18533.118917291,9,18532.578278291,18532.639208208,18533.124142208,18533.900814166,1,0.602386166003271
122,26,20,categorization,0,bathroom,SHINEd_sun_aghyqhbptboemmoq.tif,23,0.0666666666666667,0.0666666666666667,1.45,18533.906431416,18534.718787875,13,18533.96798875,18534.02917375,18534.731410166,18536.174787375,1,0.812356459002331
122,27,20,categorization,0,kitchen,SHINEd_sun_awcpdzzznmweyyhv.tif,106,0.0666666666666667,0.0666666666666667,1.15,18536.186892791,18537.111683833,13,18536.252958333,18536.31967275,18537.124132375,18538.267520791,0,0.924791042001743
122,28,20,categorization,0,bathroom,SHINEd_sun_acegryoqftbzowsg.tif,17,0.0666666666666667,0.0666666666666667,1.35,18538.277170083,18539.153247791,13,18538.343540083,18538.411054625,18539.164812208,18540.508191083,1,0.876077707998775
122,29,20,categorization,0,bathroom,SHINEd_sun_acgyywnybuveqsro.tif,18,0.0666666666666667,0.0666666666666667,1.26666666666667,18540.525608625,18541.073120875,13,18540.592283583,18540.658281583,18541.098328,18542.358368375,1,0.547512249999272
122,30,20,categorization,0,kitchen,SHINEd_sun_ahdycvpopffkzzsu.tif,90,0.0666666666666667,0.0666666666666667,1.05,18542.376026333,18543.086870083,13,18542.43859,18542.498926583,18543.100691041,18544.144069541,0,0.710843749999185
122,31,20,categorization,0,bathroom,SHINEd_sun_ausgutylgojavyoq.tif,53,0.0666666666666667,0.0666666666666667,0.8,18544.154443583,18544.717789083,13,18544.218368916,18544.285106833,18544.741322916,18545.534688875,1,0.563345499998832
122,32,20,categorization,0,kitchen,SHINEd_sun_aqeaevwwwjoqhzvl.tif,101,0.0666666666666667,0.0666666666666667,0.866666666666667,18545.550884833,18546.19115325,13,18545.617445625,18545.683458458,18546.202654125,18547.062658666,0,0.640268417002517
122,33,20,categorization,0,bathroom,SHINEd_sun_alotolagknyrgtsk.tif,35,0.0666666666666667,0.0666666666666667,0.866666666666667,18547.068483,18548.0779855,13,18547.130135833,18547.191158458,18548.09346525,18548.953470083,1,1.00950250000096
122,34,20,categorization,0,bathroom,SHINEd_sun_aqrpegblszgcoujh.tif,48,0.0666666666666667,0.0666666666666667,1.53333333333333,18548.959058666,18549.950408666,13,18549.020838875,18549.081723916,18549.96740725,18551.4941065,1,0.991350000000239
122,35,20,categorization,0,kitchen,SHINEd_sun_aarfiyshqohlwkmo.tif,67,0.0666666666666667,0.0666666666666667,1.66666666666667,18551.511225791,18551.939303166,9,18551.578000708,18551.644082416,18551.967449666,18553.627495666,1,0.428077374999702
122,36,20,categorization,0,bathroom,SHINEd_sun_ahijqszoswveeyji.tif,28,0.0666666666666667,0.0666666666666667,1.95,18553.644707916,18554.151615166,9,18553.710880625,18553.7770265,18554.165934333,18556.109308,0,0.50690725000095
122,37,20,categorization,0,bathroom,SHINEd_sun_akiytfaagpdsphgz.tif,31,0.0666666666666667,0.0666666666666667,1.3,18556.12559475,18556.542892416,9,18556.192163916,18556.257912958,18556.564022,18557.8574075,0,0.417297666001105
122,38,20,categorization,0,kitchen,SHINEd_sun_abpwyqmlzafvklqo.tif,72,0.0666666666666667,0.0666666666666667,1.25,18557.875317583,18559.05696275,13,18557.941723583,18558.008067875,18559.08177925,18560.325150166,0,1.18164516700199
122,39,20,categorization,0,bathroom,SHINEd_sun_aleqenyvunhactkl.tif,32,0.0666666666666667,0.0666666666666667,1.2,18560.34271,18561.05343975,13,18560.4095045,18560.475375833,18561.081987208,18562.275363708,1,0.71072975000061
122,40,20,categorization,0,kitchen,SHINEd_sun_adgqasybjyktddhj.tif,78,0.0666666666666667,0.0666666666666667,1.61666666666667,18562.29179875,18562.952788166,9,18562.355646333,18562.421340833,18562.977334916,18564.587377208,1,0.660989415999211
122,41,20,categorization,0,bathroom,SHINEd_sun_aspsyogrekjtfozg.tif,50,0.0666666666666667,0.0666666666666667,1.65,18564.602451,18565.177150166,9,18564.666253625,18564.732219791,18565.203283166,18566.846674916,0,0.574699166001665
122,42,20,categorization,0,kitchen,SHINEd_sun_ajkqhtgcbgpcwrwn.tif,97,0.0666666666666667,0.0666666666666667,0.9,18566.870855791,18567.370118875,9,18566.938124833,18567.003776458,18567.393841375,18568.287235333,1,0.499263083998812
122,43,20,categorization,0,bathroom,SHINEd_sun_avhrdrntsqrjzccq.tif,55,0.0666666666666667,0.0666666666666667,0.816666666666667,18568.303688458,18568.861966541,9,18568.3708,18568.436732416,18568.872303291,18569.682309208,0,0.558278083000914
122,44,20,categorization,0,kitchen,SHINEd_sun_afuyedyxivkhecmu.tif,85,0.0666666666666667,0.0666666666666667,1.86666666666667,18569.687745541,18570.302589083,9,18569.749629666,18569.810529916,18570.312264916,18572.172446958,1,0.614843542000017
122,45,20,categorization,0,kitchen,SHINEd_sun_aehawpgmrlhlvcow.tif,81,0.0666666666666667,0.0666666666666667,1.38333333333333,18572.186410208,18572.934543416,9,18572.252496,18572.315128416,18572.955120375,18574.332198708,1,0.748133207998762
122,46,20,categorization,0,kitchen,SHINEd_labelme_brsyyvweiuaazfr.tif,61,0.0666666666666667,0.0666666666666667,1.63333333333333,18574.350563666,18575.135658416,9,18574.417607625,18574.483675041,18575.155757625,18576.782482875,1,0.78509474999737
122,47,20,categorization,0,kitchen,SHINEd_sun_azmutvzbxypaceni.tif,110,0.0666666666666667,0.0666666666666667,1.56666666666667,18576.800083666,18577.311719,9,18576.867847416,18576.932568291,18577.339774708,18578.899830666,1,0.511635334001767
122,48,20,categorization,0,bathroom,SHINEd_sun_acduarbnmmoglmiv.tif,16,0.0666666666666667,0.0666666666666667,1.21666666666667,18578.917450875,18579.659628416,9,18578.98464925,18579.050124666,18579.69055275,18580.900588083,0,0.742177541000274
122,49,20,categorization,0,bathroom,SHINEd_labelme_sfxiulhjbhlyiyt.tif,11,0.0666666666666667,0.0666666666666667,0.716666666666667,18580.918982583,18581.751600458,13,18580.987052041,18581.051825583,18581.775687041,18582.48573375,1,0.832617874999414
122,50,20,categorization,0,kitchen,SHINEd_sun_aenotlpyftoioydp.tif,82,0.0666666666666667,0.0666666666666667,0.966666666666667,18582.503393416,18583.094206208,9,18582.570014083,18582.636427625,18583.105074708,18584.065078958,1,0.590812792001088
