sub_num,trial,block,task,is_practice,category,image,texture,duration,mask_dur,jitter,stim_time,time_of_resp,trial_response,mask_time,fix_time,jit_onset,trial_end,trial_accuracy,RT
122,1,21,categorization,0,kitchen,SHINEd_sun_agorklincwxrdtga.tif,87,0.0666666666666667,0.0666666666666667,0.8,18620.482121541,18621.310087875,9,18620.544999625,18620.604858625,18621.323213666,18622.116550958,1,0.827966333999939
122,2,21,categorization,0,bathroom,SHINEd_sun_apkxzenqapsujocq.tif,45,0.0666666666666667,0.0666666666666667,1.18333333333333,18622.121632083,18622.741990583,13,18622.18321875,18622.244255875,18622.74610625,18623.922816708,1,0.620358500000293
122,3,21,categorization,0,bathroom,SHINEd_sun_apjevzvycyhuqghb.tif,43,0.0666666666666667,0.0666666666666667,1.25,18623.932375166,18624.547339958,9,18623.999844375,18624.065070708,18624.571271666,18625.814614625,0,0.614964791999228
122,4,21,categorization,0,kitchen,SHINEd_sun_ahljzhgcdpomplvg.tif,91,0.0666666666666667,0.0666666666666667,0.85,18625.820541208,18626.478305583,9,18625.882288625,18625.943321333,18626.495631458,18627.338969125,1,0.657764375002444
122,5,21,categorization,0,kitchen,SHINEd_sun_amjjdeyrggfqgmom.tif,100,0.0666666666666667,0.0666666666666667,1.16666666666667,18627.343920208,18628.094199875,9,18627.405561875,18627.466607458,18628.102134416,18629.262179,1,0.750279666997812
122,6,21,categorization,0,kitchen,SHINEd_sun_awcpdzzznmweyyhv.tif,106,0.0666666666666667,0.0666666666666667,1.51666666666667,18629.271015125,18629.917633125,9,18629.336354458,18629.403281791,18629.942693958,18631.452729791,1,0.646617999998853
122,7,21,categorization,0,kitchen,SHINEd_sun_azmutvzbxypaceni.tif,110,0.0666666666666667,0.0666666666666667,0.75,18631.472377083,18632.024193,9,18631.538818541,18631.60518275,18632.044623666,18632.788013125,1,0.551815917002386
122,8,21,categorization,0,bathroom,SHINEd_sun_amzlamotzwfkwjco.tif,37,0.0666666666666667,0.0666666666666667,0.983333333333333,18632.803394833,18633.6863435,9,18632.869730041,18632.936008083,18633.705005,18634.681677166,0,0.882948667000164
122,9,21,categorization,0,kitchen,SHINEd_sun_auaiucuqpdausiva.tif,102,0.0666666666666667,0.0666666666666667,0.966666666666667,18634.686479875,18635.325581,9,18634.74834625,18634.809165958,18635.344277291,18636.304281916,1,0.639101125001616
122,10,21,categorization,0,bathroom,SHINEd_sun_aggnnqpdorgxpvce.tif,21,0.0666666666666667,0.0666666666666667,1.33333333333333,18636.309387041,18637.085666916,9,18636.371004333,18636.432270625,18637.10111375,18638.42783275,0,0.776279874997272
122,11,21,categorization,0,bathroom,SHINEd_sun_aoybiabnpadelefl.tif,41,0.0666666666666667,0.0666666666666667,1.46666666666667,18638.44558275,18639.207179,9,18638.512318791,18638.57817625,18639.215821458,18640.675861166,0,0.761596250002185
122,12,21,categorization,0,bathroom,SHINEd_sun_axyrejkiiaqiurjk.tif,59,0.0666666666666667,0.0666666666666667,1.03333333333333,18640.69230625,18641.575749875,9,18640.758599875,18640.824894416,18641.597831333,18642.624539416,0,0.883443624999927
122,13,21,categorization,0,kitchen,SHINEd_sun_abpwyqmlzafvklqo.tif,72,0.0666666666666667,0.0666666666666667,1.76666666666667,18642.636587125,18643.447965708,13,18642.701649875,18642.767642708,18643.474011833,18645.234066458,0,0.811378583002806
122,14,21,categorization,0,kitchen,SHINEd_sun_aarfiyshqohlwkmo.tif,67,0.0666666666666667,0.0666666666666667,1.58333333333333,18645.248937458,18645.918932875,9,18645.316113708,18645.381948458,18645.938366083,18647.515076916,1,0.669995416999882
122,15,21,categorization,0,kitchen,SHINEd_sun_ahspylgoovwmwvgk.tif,93,0.0666666666666667,0.0666666666666667,0.783333333333333,18647.532425875,18648.111116791,9,18647.5987835,18647.664673166,18648.137185875,18648.913894291,1,0.578690915997868
122,16,21,categorization,0,bathroom,SHINEd_sun_ausgutylgojavyoq.tif,53,0.0666666666666667,0.0666666666666667,0.75,18648.929906958,18649.54991275,13,18648.99588125,18649.062521166,18649.564587916,18650.307925875,1,0.620005791999574
122,17,21,categorization,0,kitchen,SHINEd_sun_ajkqhtgcbgpcwrwn.tif,97,0.0666666666666667,0.0666666666666667,1.05,18650.312727291,18651.101925583,9,18650.374373833,18650.435388041,18651.120946916,18652.164324291,1,0.789198292000947
122,18,21,categorization,0,kitchen,SHINEd_sun_aapllqyqlykszopd.tif,66,0.0666666666666667,0.0666666666666667,0.716666666666667,18652.173533833,18653.128562125,9,18652.238260541,18652.304931541,18653.143270458,18653.853326291,1,0.955028291999042
122,19,21,categorization,0,kitchen,SHINEd_sun_auticobqsbwgoppi.tif,104,0.0666666666666667,0.0666666666666667,1.31666666666667,18653.869373541,18654.413421416,13,18653.935788458,18654.001897666,18654.421217416,18655.73125625,0,0.544047874998796
122,20,21,categorization,0,kitchen,SHINEd_sun_ajcbwwvdlsvjyzje.tif,96,0.0666666666666667,0.0666666666666667,1.35,18655.7477145,18656.37745225,13,18655.81401575,18655.88150725,18656.404323416,18657.747704125,0,0.62973774999773
122,21,21,categorization,0,bathroom,SHINEd_sun_axldvoqbuvuggfmq.tif,57,0.0666666666666667,0.0666666666666667,1.56666666666667,18657.76321675,18658.405246375,13,18657.829679208,18657.896103958,18658.435859666,18659.995898875,1,0.64202962499985
122,22,21,categorization,0,kitchen,SHINEd_sun_admlmbcdswaszruo.tif,79,0.0666666666666667,0.0666666666666667,1.26666666666667,18660.011355416,18660.655815125,9,18660.077749,18660.143937,18660.6840075,18661.944064125,1,0.644459708997601
122,23,21,categorization,0,bathroom,SHINEd_sun_asfwthctfqerjvxr.tif,49,0.0666666666666667,0.0666666666666667,1.06666666666667,18661.961349916,18662.587456708,13,18662.027683666,18662.094182083,18662.616919958,18663.676952583,1,0.626106791998609
122,24,21,categorization,0,bathroom,SHINEd_sun_avhrdrntsqrjzccq.tif,55,0.0666666666666667,0.0666666666666667,1,18663.693133041,18664.333303041,9,18663.761198583,18663.818435791,18664.3373085,18665.330646125,0,0.640169999998761
122,25,21,categorization,0,bathroom,SHINEd_sun_acegryoqftbzowsg.tif,17,0.0666666666666667,0.0666666666666667,0.933333333333333,18665.335608541,18665.870221625,13,18665.397173125,18665.458427125,18665.876850708,18666.803522125,1,0.534613083997101
122,26,21,categorization,0,kitchen,SHINEd_sun_aymvwlarqodbwuoc.tif,108,0.0666666666666667,0.0666666666666667,0.716666666666667,18666.808356541,18667.341388708,13,18666.870016083,18666.931029625,18667.349518,18668.059522875,0,0.533032166997145
122,27,21,categorization,0,bathroom,SHINEd_sun_ahijqszoswveeyji.tif,28,0.0666666666666667,0.0666666666666667,0.783333333333333,18668.064207958,18668.733331833,13,18668.125840208,18668.186922291,18668.73897875,18669.51564975,1,0.669123874999059
122,28,21,categorization,0,bathroom,SHINEd_sun_apkruvsevgegsdwp.tif,44,0.0666666666666667,0.0666666666666667,1.18333333333333,18669.521315916,18670.085617333,13,18669.582895,18669.643991625,18670.095543458,18671.272241958,1,0.564301416998205
122,29,21,categorization,0,bathroom,SHINEd_sun_aqrpegblszgcoujh.tif,48,0.0666666666666667,0.0666666666666667,0.866666666666667,18671.28249175,18671.866837291,13,18671.350273333,18671.415779791,18671.88996525,18672.750010875,1,0.584345540999493
122,30,21,categorization,0,bathroom,SHINEd_sun_ahqjwnzgolcaoidx.tif,29,0.0666666666666667,0.0666666666666667,0.933333333333333,18672.771217458,18673.326291541,13,18672.838378916,18672.904246958,18673.339715583,18674.266386041,1,0.555074083000363
122,31,21,categorization,0,bathroom,SHINEd_sun_aofnryafpsjimzsb.tif,40,0.0666666666666667,0.0666666666666667,0.75,18674.271088166,18674.837750708,13,18674.332792083,18674.393874875,18674.845893416,18675.58923225,1,0.566662542001723
122,32,21,categorization,0,kitchen,SHINEd_sun_aqeaevwwwjoqhzvl.tif,101,0.0666666666666667,0.0666666666666667,1.23333333333333,18675.594039375,18676.389638333,9,18675.655690208,18675.716801666,18676.402609541,18677.62930825,1,0.795598958000483
122,33,21,categorization,0,bathroom,SHINEd_sun_axxbkopsgyouuebh.tif,58,0.0666666666666667,0.0666666666666667,1.18333333333333,18677.644629708,18678.237743,13,18677.711024333,18677.777278333,18678.266848041,18679.443555333,1,0.593113292001362
122,34,21,categorization,0,bathroom,SHINEd_sun_auzqhkafidnkrwmo.tif,54,0.0666666666666667,0.0666666666666667,1.73333333333333,18679.459930583,18679.950177291,13,18679.526430416,18679.584346583,18679.969515583,18681.69622375,1,0.490246707999177
122,35,21,categorization,0,bathroom,SHINEd_sun_ambriybtogmepttm.tif,36,0.0666666666666667,0.0666666666666667,1,18681.712105708,18682.243121583,13,18681.7783425,18681.8446445,18682.267582541,18683.260920583,1,0.531015874999866
122,36,21,categorization,0,bathroom,SHINEd_sun_aspsyogrekjtfozg.tif,50,0.0666666666666667,0.0666666666666667,1.3,18683.2682535,18683.814257041,13,18683.330155375,18683.391033625,18683.826181208,18685.119531375,1,0.546003540999664
122,37,21,categorization,0,bathroom,SHINEd_sun_abjtwfukuwddzted.tif,15,0.0666666666666667,0.0666666666666667,1.15,18685.128827875,18685.643239625,13,18685.193701541,18685.26070425,18685.667008041,18686.810375166,1,0.514411749998544
122,38,21,categorization,0,kitchen,SHINEd_sun_aegoxogugdkwpmpj.tif,80,0.0666666666666667,0.0666666666666667,0.966666666666667,18686.825439375,18687.5256885,9,18686.888161166,18686.948148166,18687.533275166,18688.493280083,1,0.700249125002301
122,39,21,categorization,0,kitchen,SHINEd_sun_aeqdocilnnpuvuhx.tif,83,0.0666666666666667,0.0666666666666667,1.85,18688.498062458,18688.893159458,9,18688.559785833,18688.620775375,18688.906252833,18690.749635666,1,0.395097000000533
122,40,21,categorization,0,kitchen,SHINEd_sun_akchetnepxlcxhsu.tif,98,0.0666666666666667,0.0666666666666667,1.11666666666667,18690.771271541,18691.271708708,9,18690.83853975,18690.904362583,18691.295517791,18692.405556083,1,0.500437166996562
122,41,21,categorization,0,kitchen,SHINEd_sun_acxkpeoqbwcxfvip.tif,77,0.0666666666666667,0.0666666666666667,0.916666666666667,18692.414412333,18692.961822541,9,18692.480014625,18692.548466416,18692.988219208,18693.898261958,1,0.547410208000656
122,42,21,categorization,0,bathroom,SHINEd_sun_anhioqovhscjqqwb.tif,38,0.0666666666666667,0.0666666666666667,1.61666666666667,18693.915708416,18694.509135833,13,18693.9821565,18694.048695041,18694.518237375,18696.128271791,1,0.593427416999475
122,43,21,categorization,0,bathroom,SHINEd_sun_aghyqhbptboemmoq.tif,23,0.0666666666666667,0.0666666666666667,0.766666666666667,18696.145189,18696.758880375,13,18696.21164975,18696.277899666,18696.784616375,18697.544663208,1,0.613691375001508
122,44,21,categorization,0,bathroom,SHINEd_sun_alkosphxlxwjwgjd.tif,34,0.0666666666666667,0.0666666666666667,0.85,18697.5531795,18698.229990416,13,18697.615391,18697.675822916,18698.244471,18699.087808958,1,0.67681091600025
122,45,21,categorization,0,kitchen,SHINEd_sun_adgqasybjyktddhj.tif,78,0.0666666666666667,0.0666666666666667,1.8,18699.092596166,18699.693878583,9,18699.154211833,18699.215327458,18699.700525416,18701.493918541,1,0.601282416999311
122,46,21,categorization,0,kitchen,SHINEd_sun_aenotlpyftoioydp.tif,82,0.0666666666666667,0.0666666666666667,0.833333333333333,18701.511179916,18701.95762,9,18701.577414541,18701.644318125,18701.983835916,18702.810546291,1,0.446440084000642
122,47,21,categorization,0,bathroom,SHINEd_sun_aavhrsfjbserjtht.tif,13,0.0666666666666667,0.0666666666666667,1.05,18702.826134375,18703.421129333,9,18702.888489416,18702.94896175,18703.434139166,18704.47751375,0,0.594994958002644
122,48,21,categorization,0,kitchen,SHINEd_sun_aypmqwcualkenuoe.tif,109,0.0666666666666667,0.0666666666666667,1.68333333333333,18704.487888291,18705.233689625,9,18704.553113916,18704.619000666,18705.258638166,18706.935341541,1,0.745801334000134
122,49,21,categorization,0,bathroom,SHINEd_sun_aljolscmmzydegqp.tif,33,0.0666666666666667,0.0666666666666667,1.7,18706.953386791,18707.559996333,13,18707.019613583,18707.085802,18707.574697291,18709.268068708,1,0.606609541999205
122,50,21,categorization,0,kitchen,SHINEd_sun_agubuxuukhzyzpdp.tif,88,0.0666666666666667,0.0666666666666667,1.01666666666667,18709.279721166,18709.959070458,9,18709.345961541,18709.413520791,18709.986840875,18710.996845375,1,0.679349292000552
