sub_num,trial,block,task,is_practice,category,image,texture,duration,mask_dur,jitter,stim_time,time_of_resp,trial_response,mask_time,fix_time,jit_onset,trial_end,trial_accuracy,RT
109,1,0,usability,1,bathroom,bathroom_practice3.tif,223,1.5,0,0.983333333333333,7428.103844458,7432.886731042,6,NaN,7432.893313542,7432.912036292,7433.888778083,NaN,NaN
109,2,0,usability,1,bathroom,bathroom_practice4.tif,224,1.5,0,1.78333333333333,7433.894687958,7437.086236458,6,NaN,7437.093171583,7437.111774958,7438.888603958,NaN,NaN
109,3,0,usability,1,bathroom,bathroom_practice5.tif,225,1.5,0,1.78333333333333,7438.90658525,7444.133956625,7,NaN,7444.140098417,7444.158696125,7445.935404583,NaN,NaN
109,4,0,usability,1,bathroom,bathroom_practice2.tif,222,1.5,0,1.26666666666667,7445.954074667,7449.075075833,1,NaN,7449.105022958,7449.128679083,7450.3887335,NaN,NaN
109,5,0,usability,1,bathroom,bathroom_practice1.tif,221,1.5,0,1.05,7450.406548583,7454.045826167,4,NaN,7454.052032167,7454.070437417,7455.113809458,NaN,NaN
109,1,1,usability,0,bathroom,sun_apynckhmoftszqoq.tif,157,1.5,0,1.01666666666667,7460.411577708,7463.590930667,3,NaN,7463.597974375,7463.616394958,7464.626428667,NaN,NaN
109,2,1,usability,0,bathroom,sun_avhrdrntsqrjzccq.tif,165,1.5,0,1.61666666666667,7464.636932458,7468.141907708,4,NaN,7468.148033375,7468.166477542,7469.776513708,NaN,NaN
109,3,1,usability,0,bathroom,sun_apkxzenqapsujocq.tif,155,1.5,0,1.16666666666667,7469.794398833,7474.061756083,5,NaN,7474.06801575,7474.0864245,7475.246459333,NaN,NaN
109,4,1,usability,0,bathroom,sun_aoybiabnpadelefl.tif,151,1.5,0,0.983333333333333,7475.255401417,7479.694446292,1,NaN,7479.700317917,7479.718616167,7480.695287042,NaN,NaN
109,5,1,usability,0,bathroom,sun_aggnnqpdorgxpvce.tif,131,1.5,0,0.783333333333333,7480.699781083,7483.734092583,4,NaN,7483.760153208,7483.780328667,7484.55699925,NaN,NaN
109,6,1,usability,0,bathroom,sun_ambriybtogmepttm.tif,146,1.5,0,0.816666666666667,7484.562490667,7487.7342885,1,NaN,7487.741252917,7487.759654333,7488.569660708,NaN,NaN
109,7,1,usability,0,bathroom,sun_agrwbmhcpmfuwmsg.tif,134,1.5,0,1.1,7488.575226,7492.134421083,4,NaN,7492.1407905,7492.159049,7493.252422875,NaN,NaN
109,8,1,usability,0,bathroom,sun_amzlamotzwfkwjco.tif,147,1.5,0,1.65,7493.264796042,7496.598193792,2,NaN,7496.604202125,7496.622466292,7498.265842,NaN,NaN
109,9,1,usability,0,bathroom,sun_afcoljnjfoxjtgja.tif,130,1.5,0,1.13333333333333,7498.282559958,7502.582310167,5,NaN,7502.588184167,7502.606523583,7503.73323025,NaN,NaN
109,10,1,usability,0,bathroom,sun_aofnryafpsjimzsb.tif,150,1.5,0,0.766666666666667,7503.744551333,7509.046234417,4,NaN,7509.052074917,7509.070431083,7509.830434792,NaN,NaN
109,11,1,usability,0,bathroom,sun_apeeialkgkuxddgh.tif,152,1.5,0,1.25,7509.835387958,7513.773597292,5,NaN,7513.77972275,7513.797966083,7515.041344375,NaN,NaN
109,12,1,usability,0,bathroom,sun_aavhrsfjbserjtht.tif,123,1.5,0,1.5,7515.0625655,7517.982182,7,NaN,7517.988019083,7518.006364917,7519.499739958,NaN,NaN
109,13,1,usability,0,bathroom,labelme_sfxiulhjbhlyiyt.tif,121,1.5,0,1.56666666666667,7519.51917475,7522.72569125,5,NaN,7522.731986083,7522.7502485,7524.310289792,NaN,NaN
109,14,1,usability,0,bathroom,sun_alkosphxlxwjwgjd.tif,144,1.5,0,1.45,7524.327844417,7527.853674375,3,NaN,7527.860131417,7527.878433167,7529.321801083,NaN,NaN
109,15,1,usability,0,bathroom,sun_atstyziqcmkahyxk.tif,161,1.5,0,1.53333333333333,7529.336106458,7533.597976083,4,NaN,7533.603880542,7533.622255417,7535.1489745,NaN,NaN
109,16,1,usability,0,bathroom,sun_aleqenyvunhactkl.tif,142,1.5,0,0.8,7535.166550833,7538.686421042,4,NaN,7538.692300625,7538.710595208,7539.503934708,NaN,NaN
109,17,1,usability,0,bathroom,sun_ahaulkltgpkeeemi.tif,136,1.5,0,0.933333333333333,7539.509042208,7543.685363917,5,NaN,7543.691930708,7543.710155,7544.636824875,NaN,NaN
109,18,1,usability,0,bathroom,sun_aljolscmmzydegqp.tif,143,1.5,0,1.75,7544.641609417,7548.757909917,5,NaN,7548.763839583,7548.782198667,7550.52557875,NaN,NaN
109,19,1,usability,0,bathroom,sun_ahijqszoswveeyji.tif,138,1.5,0,1.48333333333333,7550.546183125,7554.053851375,4,NaN,7554.062806333,7554.081732,7555.558450125,NaN,NaN
109,20,1,usability,0,bathroom,sun_aclfzgynxzxlbepz.tif,129,1.5,0,1.03333333333333,7555.578396,7559.45445675,2,NaN,7559.460269958,7559.478657917,7560.50537525,NaN,NaN
109,21,1,usability,0,bathroom,sun_alotolagknyrgtsk.tif,145,1.5,0,1.23333333333333,7560.516338583,7563.557723708,1,NaN,7563.56355925,7563.58188975,7564.808609833,NaN,NaN
109,22,1,usability,0,bathroom,sun_axxbkopsgyouuebh.tif,168,1.5,0,1.28333333333333,7564.820190708,7568.686140083,5,NaN,7568.6920565,7568.710459208,7569.987182667,NaN,NaN
109,23,1,usability,0,bathroom,sun_ahcvzmoyaycdoftf.tif,137,1.5,0,1.66666666666667,7570.002451458,7574.109268917,6,NaN,7574.116310583,7574.134544708,7575.794588792,NaN,NaN
109,24,1,usability,0,bathroom,sun_aghyqhbptboemmoq.tif,133,1.5,0,1.26666666666667,7575.813622583,7579.337003917,5,NaN,7579.36742725,7579.390047958,7580.650085042,NaN,NaN
109,25,1,usability,0,bathroom,sun_awnqiikzaispgmwo.tif,166,1.5,0,1.4,7580.663222,7583.453908583,3,NaN,7583.459734,7583.47810125,7584.87148025,NaN,NaN
109,1,2,usability,0,bathroom,sun_abjtwfukuwddzted.tif,125,1.5,0,1.66666666666667,7589.633425583,7593.5491835,2,NaN,7593.555372042,7593.573814542,7595.233857708,NaN,NaN
109,2,2,usability,0,bathroom,sun_aqrpegblszgcoujh.tif,158,1.5,0,1.85,7595.252682167,7599.373516583,7,NaN,7599.379573875,7599.397917792,7601.241294917,NaN,NaN
109,3,2,usability,0,bathroom,sun_acgyywnybuveqsro.tif,128,1.5,0,1.65,7601.254688375,7604.966153583,6,NaN,7604.971989792,7604.990410375,7606.633789125,NaN,NaN
109,4,2,usability,0,bathroom,sun_azqyogdvyhahyram.tif,170,1.5,0,0.95,7606.644888792,7609.990302042,5,NaN,7610.012725458,7610.032867,7610.976204458,NaN,NaN
109,5,2,usability,0,bathroom,sun_apmqjbnwghzuhhzh.tif,156,1.5,0,0.783333333333333,7610.9897085,7614.822205208,2,NaN,7614.828088833,7614.846439083,7615.623109833,NaN,NaN
109,6,2,usability,0,bathroom,sun_ajlawzvmubibwbpy.tif,140,1.5,0,1.13333333333333,7615.628454875,7619.606082208,7,NaN,7619.613517542,7619.63185025,7620.758569875,NaN,NaN
109,7,2,usability,0,bathroom,sun_akiytfaagpdsphgz.tif,141,1.5,0,1.63333333333333,7620.767549375,7623.934227292,6,NaN,7623.939988875,7623.9580935,7625.584803042,NaN,NaN
109,8,2,usability,0,bathroom,sun_acduarbnmmoglmiv.tif,126,1.5,0,1.2,7625.601653417,7628.722246458,4,NaN,7628.752662125,7628.776521375,7629.96988375,NaN,NaN
109,9,2,usability,0,bathroom,sun_ahqjwnzgolcaoidx.tif,139,1.5,0,1.71666666666667,7629.980721583,7633.085454542,3,NaN,7633.091426792,7633.109683208,7634.819747375,NaN,NaN
109,10,2,usability,0,bathroom,sun_asfwthctfqerjvxr.tif,159,1.5,0,0.9,7634.836529,7640.133368708,5,NaN,7640.139751083,7640.159671917,7641.053010375,NaN,NaN
109,11,2,usability,0,bathroom,sun_apjevzvycyhuqghb.tif,153,1.5,0,0.9,7641.05847825,7645.477372167,3,NaN,7645.483708875,7645.50225,7646.395588167,NaN,NaN
109,12,2,usability,0,bathroom,sun_agguqiubmwhqqunb.tif,132,1.5,0,0.766666666666667,7646.400901167,7651.357430167,4,NaN,7651.36325875,7651.381606667,7652.141611792,NaN,NaN
109,13,2,usability,0,bathroom,sun_acegryoqftbzowsg.tif,127,1.5,0,0.966666666666667,7652.156478083,7656.317234542,3,NaN,7656.323209542,7656.3414345,7657.30143925,NaN,NaN
109,14,2,usability,0,bathroom,sun_apkruvsevgegsdwp.tif,154,1.5,0,0.7,7657.308028583,7660.973522042,4,NaN,7660.979411833,7660.997687875,7661.691026375,NaN,NaN
109,15,2,usability,0,bathroom,sun_aunuadmjocsddsrl.tif,162,1.5,0,1.1,7661.696185333,7666.093429042,4,NaN,7666.099484083,7666.117852417,7667.211220875,NaN,NaN
109,16,2,usability,0,bathroom,sun_axyrejkiiaqiurjk.tif,169,1.5,0,1.33333333333333,7667.220963542,7670.373940583,2,NaN,7670.37999475,7670.398381,7671.725094458,NaN,NaN
109,17,2,usability,0,bathroom,sun_ausgutylgojavyoq.tif,163,1.5,0,1.15,7671.744297417,7675.077166625,2,NaN,7675.0831255,7675.101312833,7676.244695417,NaN,NaN
109,18,2,usability,0,bathroom,sun_aapitsgbtktqubfy.tif,122,1.5,0,1.28333333333333,7676.254298458,7679.75001625,4,NaN,7679.75583175,7679.774111667,7681.050836625,NaN,NaN
109,19,2,usability,0,bathroom,sun_agyqfjcfkdcydepw.tif,135,1.5,0,1.35,7681.069444208,7684.301801333,1,NaN,7684.307594,7684.3258995,7685.669289875,NaN,NaN
109,20,2,usability,0,bathroom,sun_abapwbhyhkfixyex.tif,124,1.5,0,1.43333333333333,7685.688454792,7688.893483792,6,NaN,7688.899271167,7688.917629417,7690.344345375,NaN,NaN
109,21,2,usability,0,bathroom,sun_auzqhkafidnkrwmo.tif,164,1.5,0,0.916666666666667,7690.363454083,7694.380783292,6,NaN,7694.387171542,7694.405597625,7695.315603458,NaN,NaN
109,22,2,usability,0,bathroom,sun_anryaplzeujmzfkd.tif,149,1.5,0,0.766666666666667,7695.320319,7698.925512208,7,NaN,7698.931309792,7698.949827167,7699.709832958,NaN,NaN
109,23,2,usability,0,bathroom,sun_anhioqovhscjqqwb.tif,148,1.5,0,0.866666666666667,7699.71521675,7704.085202,3,NaN,7704.091569875,7704.109883125,7704.969889167,NaN,NaN
109,24,2,usability,0,bathroom,sun_axldvoqbuvuggfmq.tif,167,1.5,0,0.833333333333333,7704.975185167,7707.800999417,4,NaN,7707.830005792,7707.851455208,7708.678130042,NaN,NaN
109,25,2,usability,0,bathroom,sun_aspsyogrekjtfozg.tif,160,1.5,0,0.75,7708.682562042,7711.528886417,2,NaN,7711.558521417,7711.581583292,7712.324920625,NaN,NaN
