sub_num,trial,block,task,is_practice,category,image,texture,duration,mask_dur,jitter,stim_time,time_of_resp,trial_response,mask_time,fix_time,jit_onset,trial_end,trial_accuracy,RT
139,1,6,categorization,0,kitchen,SHINEd_sun_auaiucuqpdausiva.tif,102,0.0666666666666667,0.0666666666666667,0.966666666666667,1323.757714333,1325.705962041,9,1323.820171208,1323.880428541,1325.716288458,1326.676292416,1,1.94824770800005
139,2,6,categorization,0,bathroom,SHINEd_sun_ahaulkltgpkeeemi.tif,26,0.0666666666666667,0.0666666666666667,1.73333333333333,1326.681197958,1327.962038333,9,1326.742887375,1326.803750708,1327.972299166,1329.699011458,0,1.28084037500003
139,3,6,categorization,0,bathroom,SHINEd_sun_aoybiabnpadelefl.tif,41,0.0666666666666667,0.0666666666666667,1.91666666666667,1329.717052125,1330.66101725,9,1329.783547791,1329.847344666,1330.687035958,1332.597093416,0,0.943965124999977
139,4,6,categorization,0,kitchen,SHINEd_sun_ajcbwwvdlsvjyzje.tif,96,0.0666666666666667,0.0666666666666667,0.766666666666667,1332.615623416,1333.922231291,13,1332.681895208,1332.747527375,1333.933654166,1334.693658791,0,1.30660787499983
139,5,6,categorization,0,kitchen,SHINEd_sun_aqeaevwwwjoqhzvl.tif,101,0.0666666666666667,0.0666666666666667,0.916666666666667,1334.69828675,1336.434184458,9,1334.7601,1334.820897916,1336.439818458,1337.349822791,1,1.73589770799981
139,6,6,categorization,0,kitchen,SHINEd_sun_aeqdocilnnpuvuhx.tif,83,0.0666666666666667,0.0666666666666667,1.18333333333333,1337.354568583,1338.690559083,9,1337.416383625,1337.477265208,1338.696457291,1339.873172375,1,1.33599049999998
139,7,6,categorization,0,bathroom,SHINEd_sun_agyqfjcfkdcydepw.tif,25,0.0666666666666667,0.0666666666666667,1.8,1339.883077833,1341.436286125,13,1339.950045916,1340.015660375,1341.4572905,1343.250660291,1,1.55320829199991
139,8,6,categorization,0,kitchen,SHINEd_sun_acgtpgfybqjmzeyw.tif,75,0.0666666666666667,0.0666666666666667,0.883333333333333,1343.269000208,1344.351356625,9,1343.335834916,1343.401851416,1344.375276375,1345.251947875,1,1.08235641700003
139,9,6,categorization,0,kitchen,SHINEd_sun_avszsnwsbuqfgzbn.tif,105,0.0666666666666667,0.0666666666666667,1.83333333333333,1345.256801541,1346.194182583,9,1345.318630416,1345.379440541,1346.197872041,1348.024587291,1,0.93738104199997
139,10,6,categorization,0,bathroom,SHINEd_sun_ahqjwnzgolcaoidx.tif,29,0.0666666666666667,0.0666666666666667,1.76666666666667,1348.04261975,1348.941455166,13,1348.109083791,1348.175094291,1348.96380175,1350.723858791,1,0.898835415999883
139,11,6,categorization,0,kitchen,SHINEd_sun_aegoxogugdkwpmpj.tif,80,0.0666666666666667,0.0666666666666667,0.983333333333333,1350.741952,1351.321223416,9,1350.807163333,1350.870199708,1351.343562,1352.320234,1,0.579271415999983
139,12,6,categorization,0,kitchen,SHINEd_sun_aadbddgrdsjugojn.tif,64,0.0666666666666667,0.0666666666666667,0.883333333333333,1352.325157958,1353.130152708,9,1352.386841041,1352.447874666,1353.149802208,1354.026473583,1,0.804994749999878
139,13,6,categorization,0,kitchen,SHINEd_sun_abdenxonkemggwsq.tif,69,0.0666666666666667,0.0666666666666667,0.85,1354.031289958,1354.714157,13,1354.092970916,1354.154026625,1354.722535625,1355.565876583,0,0.682867041999998
139,14,6,categorization,0,bathroom,SHINEd_sun_ahcvzmoyaycdoftf.tif,27,0.0666666666666667,0.0666666666666667,0.733333333333333,1355.570647666,1356.562360708,13,1355.632328958,1355.693316875,1356.578611666,1357.305283875,1,0.991713041999901
139,15,6,categorization,0,bathroom,SHINEd_sun_akiytfaagpdsphgz.tif,31,0.0666666666666667,0.0666666666666667,1.88333333333333,1357.310018416,1357.769794041,9,1357.371741416,1357.43261325,1357.784499708,1359.661221541,0,0.45977562500002
139,16,6,categorization,0,kitchen,SHINEd_sun_auticobqsbwgoppi.tif,104,0.0666666666666667,0.0666666666666667,0.816666666666667,1359.683284083,1360.660253333,9,1359.750237791,1359.8160155,1360.689086208,1361.499089875,1,0.976969249999911
139,17,6,categorization,0,bathroom,SHINEd_sun_axyrejkiiaqiurjk.tif,59,0.0666666666666667,0.0666666666666667,1.9,1361.50394175,1362.162111041,9,1361.5659355,1361.626633625,1362.178387208,1364.071754208,0,0.658169290999922
139,18,6,categorization,0,bathroom,SHINEd_sun_apkxzenqapsujocq.tif,45,0.0666666666666667,0.0666666666666667,0.983333333333333,1364.090147,1365.092584083,13,1364.156936625,1364.222526416,1365.112086416,1366.08875675,1,1.00243708300013
139,19,6,categorization,0,bathroom,SHINEd_sun_aqrpegblszgcoujh.tif,48,0.0666666666666667,0.0666666666666667,0.75,1366.093828916,1368.154027166,9,1366.155675541,1366.217019166,1368.169487041,1368.912824916,0,2.06019825000021
139,20,6,categorization,0,kitchen,SHINEd_sun_aixorpehvfykdynp.tif,95,0.0666666666666667,0.0666666666666667,1.6,1368.917617916,1369.881682416,9,1368.979408958,1369.040372625,1369.892303625,1371.485672375,1,0.964064500000177
139,21,6,categorization,0,bathroom,SHINEd_sun_avhrdrntsqrjzccq.tif,55,0.0666666666666667,0.0666666666666667,1.58333333333333,1371.5029695,1372.377280916,9,1371.5697925,1371.635381708,1372.391208041,1373.967930625,0,0.874311415999955
139,22,6,categorization,0,bathroom,SHINEd_sun_asfwthctfqerjvxr.tif,49,0.0666666666666667,0.0666666666666667,1.11666666666667,1373.984921541,1374.764610916,9,1374.051753625,1374.117846666,1374.789739166,1375.899788041,0,0.779689375000089
139,23,6,categorization,0,bathroom,SHINEd_sun_aunuadmjocsddsrl.tif,52,0.0666666666666667,0.0666666666666667,1.53333333333333,1375.909701083,1376.748090333,9,1375.97448875,1376.042520916,1376.76524225,1378.291958083,0,0.838389249999864
139,24,6,categorization,0,kitchen,SHINEd_sun_aarfiyshqohlwkmo.tif,67,0.0666666666666667,0.0666666666666667,1.48333333333333,1378.310711166,1378.98849125,9,1378.377556958,1378.443003666,1379.014862625,1380.491582083,1,0.677780084000005
139,25,6,categorization,0,kitchen,SHINEd_sun_ahljzhgcdpomplvg.tif,91,0.0666666666666667,0.0666666666666667,1.1,1380.506050333,1381.244181625,9,1380.572713875,1380.638537583,1381.261566833,1382.35494025,1,0.738131291999935
139,26,6,categorization,0,kitchen,SHINEd_sun_acfmftudsenhrfhy.tif,74,0.0666666666666667,0.0666666666666667,0.933333333333333,1382.365191833,1383.037228541,9,1382.430333958,1382.497660208,1383.053879458,1383.980592416,1,0.672036708000178
139,27,6,categorization,0,kitchen,SHINEd_sun_ahywdevtimnqcsln.tif,94,0.0666666666666667,0.0666666666666667,0.816666666666667,1383.998544791,1384.642134208,9,1384.065357166,1384.131190166,1384.650542833,1385.46054825,1,0.64358941699993
139,28,6,categorization,0,bathroom,SHINEd_sun_amzlamotzwfkwjco.tif,37,0.0666666666666667,0.0666666666666667,1.78333333333333,1385.465289916,1386.217850333,9,1385.526887083,1385.588042166,1386.223108458,1387.999823875,0,0.752560416999813
139,29,6,categorization,0,kitchen,SHINEd_sun_acxkpeoqbwcxfvip.tif,77,0.0666666666666667,0.0666666666666667,0.766666666666667,1388.017702583,1388.587798166,9,1388.08432325,1388.150017333,1388.606526166,1389.36653025,1,0.570095583000011
139,30,6,categorization,0,bathroom,SHINEd_sun_aavhrsfjbserjtht.tif,13,0.0666666666666667,0.0666666666666667,1.45,1389.3719885,1389.946065041,9,1389.433596958,1389.494723958,1389.963346958,1391.406718,0,0.574076541000068
139,31,6,categorization,0,kitchen,SHINEd_sun_acwjdupvyjsugpay.tif,76,0.0666666666666667,0.0666666666666667,0.75,1391.4236905,1392.378794041,9,1391.490240791,1391.556141416,1392.3955355,1393.138873333,1,0.955103540999971
139,32,6,categorization,0,bathroom,SHINEd_sun_acgyywnybuveqsro.tif,18,0.0666666666666667,0.0666666666666667,1.36666666666667,1393.146870875,1394.0982915,13,1393.208727625,1393.269598291,1394.105173541,1395.465205708,1,0.951420624999855
139,33,6,categorization,0,bathroom,SHINEd_sun_alkosphxlxwjwgjd.tif,34,0.0666666666666667,0.0666666666666667,0.75,1395.482020416,1396.309432166,9,1395.548341875,1395.614568583,1396.337423,1397.080792583,0,0.82741175000001
139,34,6,categorization,0,kitchen,SHINEd_sun_abdxkyyxwfskuaqb.tif,70,0.0666666666666667,0.0666666666666667,0.783333333333333,1397.09814975,1397.929321958,9,1397.164728208,1397.224005125,1397.94316425,1398.7198345,1,0.831172207999998
139,35,6,categorization,0,kitchen,SHINEd_sun_aexklacwqwezaorf.tif,84,0.0666666666666667,0.0666666666666667,1.11666666666667,1398.72463825,1399.377788958,9,1398.7863315,1398.847323208,1399.382585458,1400.492633416,1,0.653150708000112
139,36,6,categorization,0,kitchen,SHINEd_sun_admlmbcdswaszruo.tif,79,0.0666666666666667,0.0666666666666667,0.766666666666667,1400.502348625,1401.381131833,9,1400.566896041,1400.634895458,1401.4082595,1402.168293708,1,0.878783207999959
139,37,6,categorization,0,bathroom,SHINEd_labelme_sfxiulhjbhlyiyt.tif,11,0.0666666666666667,0.0666666666666667,0.716666666666667,1402.1839555,1402.802226583,9,1402.250368666,1402.316401041,1402.818138541,1403.528142375,0,0.618271083000081
139,38,6,categorization,0,kitchen,SHINEd_sun_afuyedyxivkhecmu.tif,85,0.0666666666666667,0.0666666666666667,1.33333333333333,1403.533014,1404.16943675,9,1403.594977166,1403.655720166,1404.174472916,1405.501187916,1,0.636422749999838
139,39,6,categorization,0,bathroom,SHINEd_sun_ambriybtogmepttm.tif,36,0.0666666666666667,0.0666666666666667,1.75,1405.51807925,1406.179216958,13,1405.584932125,1405.65083875,1406.207194083,1407.95056475,1,0.661137708000069
139,40,6,categorization,0,bathroom,SHINEd_sun_azqyogdvyhahyram.tif,60,0.0666666666666667,0.0666666666666667,1.13333333333333,1407.960815083,1409.04971,13,1408.027667416,1408.093289916,1409.065836,1410.192542666,1,1.08889491700006
139,41,6,categorization,0,kitchen,SHINEd_sun_ahspylgoovwmwvgk.tif,93,0.0666666666666667,0.0666666666666667,1.63333333333333,1410.202277666,1411.180311333,9,1410.267729833,1410.334897458,1411.2072725,1412.833970291,1,0.978033666999863
139,42,6,categorization,0,bathroom,SHINEd_sun_aleqenyvunhactkl.tif,32,0.0666666666666667,0.0666666666666667,1.43333333333333,1412.844856333,1413.763549666,9,1412.91081725,1412.973068333,1413.779040875,1415.205746666,0,0.918693332999965
139,43,6,categorization,0,kitchen,SHINEd_sun_ajkqhtgcbgpcwrwn.tif,97,0.0666666666666667,0.0666666666666667,1.83333333333333,1415.222785375,1415.939838833,9,1415.289633541,1415.355192458,1415.96207525,1417.788779333,1,0.717053458000009
139,44,6,categorization,0,kitchen,SHINEd_labelme_kxvouciolcpqplr.tif,62,0.0666666666666667,0.0666666666666667,1.93333333333333,1417.80688575,1419.889902416,9,1417.873238541,1417.939453208,1419.908584416,1421.835311916,1,2.08301666600005
139,45,6,categorization,0,bathroom,SHINEd_sun_apjevzvycyhuqghb.tif,43,0.0666666666666667,0.0666666666666667,1.26666666666667,1421.853632916,1422.583480666,9,1421.921608208,1421.986166375,1422.609538291,1423.869598416,0,0.72984775000009
139,46,6,categorization,0,bathroom,SHINEd_sun_apmqjbnwghzuhhzh.tif,46,0.0666666666666667,0.0666666666666667,1.86666666666667,1423.887115083,1424.844840916,13,1423.95405675,1424.019715708,1424.857670291,1426.717706041,1,0.95772583300004
139,47,6,categorization,0,bathroom,SHINEd_sun_atstyziqcmkahyxk.tif,51,0.0666666666666667,0.0666666666666667,1.41666666666667,1426.735122833,1427.559565791,13,1426.800605375,1426.865076958,1427.588498416,1428.998541333,1,0.824442957999963
139,48,6,categorization,0,kitchen,SHINEd_sun_aunzlwrbjumxhwdj.tif,103,0.0666666666666667,0.0666666666666667,1.11666666666667,1429.016124083,1429.628731375,13,1429.083168583,1429.149535041,1429.656550041,1430.766589333,0,0.612607291999893
139,49,6,categorization,0,bathroom,SHINEd_sun_aclfzgynxzxlbepz.tif,19,0.0666666666666667,0.0666666666666667,1.8,1430.780286791,1431.6517,13,1430.846045541,1430.912094875,1431.66881425,1433.462186791,1,0.871413208999911
139,50,6,categorization,0,bathroom,SHINEd_sun_apeeialkgkuxddgh.tif,42,0.0666666666666667,0.0666666666666667,1.25,1433.481731708,1434.422020458,13,1433.548336625,1433.614539041,1434.437344958,1435.680719416,1,0.940288749999809
