sub_num,trial,block,task,is_practice,category,image,texture,duration,mask_dur,jitter,stim_time,time_of_resp,trial_response,mask_time,fix_time,jit_onset,trial_end,trial_accuracy,RT
139,1,14,categorization,0,kitchen,SHINEd_sun_auticobqsbwgoppi.tif,104,0.0666666666666667,0.0666666666666667,1.38333333333333,2623.268019708,2624.08405325,13,2623.33062575,2623.390669208,2624.092586791,2625.469298541,0,0.816033542000241
139,2,14,categorization,0,kitchen,SHINEd_sun_aarfiyshqohlwkmo.tif,67,0.0666666666666667,0.0666666666666667,1.48333333333333,2625.487519,2626.611699125,13,2625.554707166,2625.620237083,2626.626271416,2628.102980833,0,1.12418012500029
139,3,14,categorization,0,bathroom,SHINEd_labelme_sfxiulhjbhlyiyt.tif,11,0.0666666666666667,0.0666666666666667,0.966666666666667,2628.115012166,2628.86149975,13,2628.18163,2628.247578208,2628.886373333,2629.846378708,1,0.746487584000079
139,4,14,categorization,0,bathroom,SHINEd_sun_acgyywnybuveqsro.tif,18,0.0666666666666667,0.0666666666666667,0.916666666666667,2629.852009,2630.6044895,13,2629.913739416,2629.974647625,2630.610259791,2631.520265083,1,0.75248049999982
139,5,14,categorization,0,kitchen,SHINEd_sun_aymvwlarqodbwuoc.tif,108,0.0666666666666667,0.0666666666666667,1.6,2631.525176291,2632.484807208,13,2631.586859208,2631.647833166,2632.499685458,2634.093064083,0,0.959630916999686
139,6,14,categorization,0,bathroom,SHINEd_sun_apjevzvycyhuqghb.tif,43,0.0666666666666667,0.0666666666666667,0.7,2634.110567458,2634.96609175,13,2634.176525958,2634.24182525,2634.979821291,2635.673158625,1,0.855524292000155
139,7,14,categorization,0,kitchen,SHINEd_sun_abpwyqmlzafvklqo.tif,72,0.0666666666666667,0.0666666666666667,1.7,2635.678282125,2637.036038708,13,2635.739926,2635.800989541,2637.053280541,2638.746645958,0,1.35775658300008
139,8,14,categorization,0,kitchen,SHINEd_sun_ahdycvpopffkzzsu.tif,90,0.0666666666666667,0.0666666666666667,1.05,2638.765103833,2639.633364,13,2638.832098416,2638.896041166,2639.652373,2640.695738833,0,0.868260166999789
139,9,14,categorization,0,bathroom,SHINEd_sun_acduarbnmmoglmiv.tif,16,0.0666666666666667,0.0666666666666667,1.15,2640.707714208,2641.444150208,9,2640.771698833,2640.837938291,2641.460712041,2642.60411375,0,0.736435999999685
139,10,14,categorization,0,bathroom,SHINEd_sun_anryaplzeujmzfkd.tif,39,0.0666666666666667,0.0666666666666667,1.85,2642.621690958,2643.781008625,9,2642.685328125,2642.745292791,2643.797668916,2645.641042083,0,1.15931766700032
139,11,14,categorization,0,bathroom,SHINEd_sun_axxbkopsgyouuebh.tif,58,0.0666666666666667,0.0666666666666667,1.2,2645.660464583,2646.678772208,13,2645.726703375,2645.792942625,2646.698494625,2647.891886916,1,1.01830762500003
139,12,14,categorization,0,kitchen,SHINEd_sun_aehawpgmrlhlvcow.tif,81,0.0666666666666667,0.0666666666666667,1.11666666666667,2647.903379875,2648.975283916,9,2647.969963,2648.0373395,2648.992473333,2650.102519208,1,1.07190404099993
139,13,14,categorization,0,kitchen,SHINEd_sun_aunzlwrbjumxhwdj.tif,103,0.0666666666666667,0.0666666666666667,1.41666666666667,2650.114422041,2651.188750125,9,2650.179776875,2650.247177,2651.20346925,2652.613528833,1,1.07432808399972
139,14,14,categorization,0,kitchen,SHINEd_sun_auaiucuqpdausiva.tif,102,0.0666666666666667,0.0666666666666667,1.05,2652.629985125,2653.469905708,9,2652.698349958,2652.762359375,2653.48512225,2654.5285075,1,0.839920583000094
139,15,14,categorization,0,kitchen,SHINEd_sun_aggjlwcdjsjcaemh.tif,86,0.0666666666666667,0.0666666666666667,1.26666666666667,2654.541420166,2655.4065165,9,2654.606383875,2654.672459208,2655.4294025,2656.68944525,1,0.8650963340001
139,16,14,categorization,0,kitchen,SHINEd_sun_avszsnwsbuqfgzbn.tif,105,0.0666666666666667,0.0666666666666667,1.46666666666667,2656.709052125,2658.062260083,9,2656.773952958,2656.839561916,2658.081379875,2659.541425625,1,1.35320795799998
139,17,14,categorization,0,bathroom,SHINEd_sun_apmqjbnwghzuhhzh.tif,46,0.0666666666666667,0.0666666666666667,0.8,2659.559451416,2661.095344041,13,2659.626916541,2659.692198541,2661.119436583,2661.912775041,1,1.53589262500009
139,18,14,categorization,0,kitchen,SHINEd_sun_aenotlpyftoioydp.tif,82,0.0666666666666667,0.0666666666666667,1.4,2661.918328166,2662.876884833,13,2661.980085541,2662.04107825,2662.892951666,2664.28632825,0,0.958556667000266
139,19,14,categorization,0,bathroom,SHINEd_sun_agyqfjcfkdcydepw.tif,25,0.0666666666666667,0.0666666666666667,0.966666666666667,2664.304112541,2665.133359,9,2664.371731833,2664.436887625,2665.160328333,2666.120332416,0,0.829246458999933
139,20,14,categorization,0,kitchen,SHINEd_sun_aexklacwqwezaorf.tif,84,0.0666666666666667,0.0666666666666667,0.916666666666667,2666.126058541,2666.9721115,9,2666.187717125,2666.248685541,2666.983834833,2667.893840375,1,0.84605295900019
139,21,14,categorization,0,bathroom,SHINEd_sun_afcoljnjfoxjtgja.tif,20,0.0666666666666667,0.0666666666666667,1.11666666666667,2667.898668416,2668.636276375,9,2667.960339375,2668.02129875,2668.639935916,2669.749972458,0,0.737607958999888
139,22,14,categorization,0,kitchen,SHINEd_sun_abftihopvusyfakt.tif,71,0.0666666666666667,0.0666666666666667,0.85,2669.759709166,2670.58517325,13,2669.823955833,2669.892247208,2670.615691708,2671.459077791,0,0.825464084000032
139,23,14,categorization,0,kitchen,SHINEd_sun_ajcbwwvdlsvjyzje.tif,96,0.0666666666666667,0.0666666666666667,1.81666666666667,2671.475418166,2672.252586375,13,2671.542133416,2671.607728,2672.260188208,2674.070238208,0,0.777168209000138
139,24,14,categorization,0,bathroom,SHINEd_sun_ausgutylgojavyoq.tif,53,0.0666666666666667,0.0666666666666667,1.81666666666667,2674.088109541,2674.713663208,13,2674.154605,2674.220809958,2674.726256666,2676.53629925,1,0.625553667000077
139,25,14,categorization,0,bathroom,SHINEd_sun_abjtwfukuwddzted.tif,15,0.0666666666666667,0.0666666666666667,1.33333333333333,2676.554564416,2677.008125166,9,2676.62114375,2676.687429291,2677.027107041,2678.353815625,0,0.453560749999724
139,26,14,categorization,0,bathroom,SHINEd_sun_aunuadmjocsddsrl.tif,52,0.0666666666666667,0.0666666666666667,1,2678.372386875,2679.20825825,9,2678.439040416,2678.505151208,2679.228747125,2680.2220875,0,0.835871375000352
139,27,14,categorization,0,kitchen,SHINEd_sun_aeqdocilnnpuvuhx.tif,83,0.0666666666666667,0.0666666666666667,1.13333333333333,2680.227846375,2680.868272958,9,2680.289547416,2680.350451125,2680.885614375,2682.012312375,1,0.640426583000135
139,28,14,categorization,0,bathroom,SHINEd_sun_aghyqhbptboemmoq.tif,23,0.0666666666666667,0.0666666666666667,1.16666666666667,2682.022524625,2682.758488916,9,2682.08681675,2682.154794125,2682.775753833,2683.935792666,0,0.735964290999618
139,29,14,categorization,0,bathroom,SHINEd_sun_azqyogdvyhahyram.tif,60,0.0666666666666667,0.0666666666666667,0.75,2683.95333375,2684.915716916,13,2684.015884208,2684.076142041,2684.927909375,2685.671247875,1,0.962383165999654
139,30,14,categorization,0,kitchen,SHINEd_sun_akcjzhbbjlbogpdi.tif,99,0.0666666666666667,0.0666666666666667,0.85,2685.676098916,2686.276396,13,2685.738107708,2685.798726583,2686.283837833,2687.12717725,0,0.600297084000431
139,31,14,categorization,0,bathroom,SHINEd_sun_ambriybtogmepttm.tif,36,0.0666666666666667,0.0666666666666667,1.28333333333333,2687.13198975,2687.9727005,13,2687.193772458,2687.254698,2687.989799666,2689.266515458,1,0.840710750000198
139,32,14,categorization,0,bathroom,SHINEd_sun_alotolagknyrgtsk.tif,35,0.0666666666666667,0.0666666666666667,0.9,2689.28373175,2689.988751166,13,2689.350303666,2689.416227666,2690.005823916,2690.899215833,1,0.705019416000141
139,33,14,categorization,0,kitchen,SHINEd_sun_ahspylgoovwmwvgk.tif,93,0.0666666666666667,0.0666666666666667,0.766666666666667,2690.910715208,2692.427734666,9,2690.975776,2691.034841416,2692.437502791,2693.197509333,1,1.51701945800005
139,34,14,categorization,0,bathroom,SHINEd_sun_abapwbhyhkfixyex.tif,14,0.0666666666666667,0.0666666666666667,1.5,2693.202236916,2693.836047333,9,2693.264319666,2693.325048791,2693.843454625,2695.336837458,0,0.63381041699995
139,35,14,categorization,0,bathroom,SHINEd_sun_apynckhmoftszqoq.tif,47,0.0666666666666667,0.0666666666666667,0.8,2695.354835166,2696.299881083,9,2695.421223291,2695.4873525,2696.328015166,2697.12135275,0,0.945045916999788
139,36,14,categorization,0,kitchen,SHINEd_sun_admlmbcdswaszruo.tif,79,0.0666666666666667,0.0666666666666667,0.75,2697.126397291,2697.948625041,9,2697.188159375,2697.249019166,2697.967424583,2698.710763416,1,0.822227749999911
139,37,14,categorization,0,kitchen,SHINEd_sun_azmutvzbxypaceni.tif,110,0.0666666666666667,0.0666666666666667,1.83333333333333,2698.715479375,2699.404157708,9,2698.777149125,2698.838324375,2699.42363125,2701.25034725,1,0.688678333000098
139,38,14,categorization,0,bathroom,SHINEd_sun_agrwbmhcpmfuwmsg.tif,24,0.0666666666666667,0.0666666666666667,0.933333333333333,2701.268157,2702.084541833,13,2701.334997333,2701.400414541,2702.106819291,2703.033490125,1,0.816384833000029
139,39,14,categorization,0,kitchen,SHINEd_sun_awcpdzzznmweyyhv.tif,106,0.0666666666666667,0.0666666666666667,1.61666666666667,2703.039647041,2703.988396541,13,2703.101443708,2703.162579791,2703.998274875,2705.6083285,0,0.948749499999849
139,40,14,categorization,0,kitchen,SHINEd_sun_abdxkyyxwfskuaqb.tif,70,0.0666666666666667,0.0666666666666667,0.883333333333333,2705.625814041,2706.495571125,9,2705.69244625,2705.758523875,2706.514784125,2707.391456375,1,0.869757083999957
139,41,14,categorization,0,kitchen,SHINEd_sun_aqeaevwwwjoqhzvl.tif,101,0.0666666666666667,0.0666666666666667,1.35,2707.396397041,2708.084652208,9,2707.458114541,2707.519082125,2708.104777,2709.44815125,1,0.688255167000079
139,42,14,categorization,0,kitchen,SHINEd_sun_acgtpgfybqjmzeyw.tif,75,0.0666666666666667,0.0666666666666667,1.35,2709.465820416,2710.326902416,9,2709.532669416,2709.598330041,2710.355362125,2711.698727791,1,0.861081999999897
139,43,14,categorization,0,kitchen,SHINEd_sun_ahljzhgcdpomplvg.tif,91,0.0666666666666667,0.0666666666666667,1.66666666666667,2711.717487291,2712.265049208,9,2711.7858315,2711.849813208,2712.289645833,2713.949702708,1,0.547561917000166
139,44,14,categorization,0,kitchen,SHINEd_sun_agzzivivdpnawacl.tif,89,0.0666666666666667,0.0666666666666667,0.766666666666667,2713.968100125,2714.749960458,9,2714.034735,2714.101250041,2714.773051708,2715.533099333,1,0.781860332999713
139,45,14,categorization,0,bathroom,SHINEd_sun_apkxzenqapsujocq.tif,45,0.0666666666666667,0.0666666666666667,1.18333333333333,2715.548970458,2716.115857916,9,2715.61148175,2715.671565125,2716.123312333,2717.300031541,0,0.56688745800011
139,46,14,categorization,0,bathroom,SHINEd_sun_aspsyogrekjtfozg.tif,50,0.0666666666666667,0.0666666666666667,1.43333333333333,2717.31107075,2717.836397375,9,2717.377914125,2717.442918541,2717.865901833,2719.292602125,0,0.525326625000162
139,47,14,categorization,0,kitchen,SHINEd_sun_aadbddgrdsjugojn.tif,64,0.0666666666666667,0.0666666666666667,0.933333333333333,2719.305049166,2719.800273666,9,2719.372251208,2719.437832083,2719.8279205,2720.75463625,1,0.495224499999949
139,48,14,categorization,0,kitchen,SHINEd_labelme_rykdqxenmhulbdn.tif,63,0.0666666666666667,0.0666666666666667,1.23333333333333,2720.771093375,2721.316826916,9,2720.836135708,2720.9032225,2721.342298666,2722.569001291,1,0.545733541000118
139,49,14,categorization,0,bathroom,SHINEd_sun_aavhrsfjbserjtht.tif,13,0.0666666666666667,0.0666666666666667,0.783333333333333,2722.587391083,2722.981245375,9,2722.653843583,2722.719838208,2722.990800333,2723.767511875,0,0.393854292000015
139,50,14,categorization,0,kitchen,SHINEd_sun_ahywdevtimnqcsln.tif,94,0.0666666666666667,0.0666666666666667,1.05,2723.781277541,2724.564675083,13,2723.847848708,2723.911527458,2724.58059875,2725.62396875,0,0.78339754200033
