sub_num,trial,block,task,is_practice,category,image,texture,duration,mask_dur,jitter,stim_time,time_of_resp,trial_response,mask_time,fix_time,jit_onset,trial_end,trial_accuracy,RT
139,1,12,categorization,0,bathroom,SHINEd_sun_aofnryafpsjimzsb.tif,40,0.0666666666666667,0.0666666666666667,1.01666666666667,2101.694397208,2103.03905025,9,2101.756504041,2101.817379,2103.053077083,2104.063124541,0,1.34465304200012
139,2,12,categorization,0,kitchen,SHINEd_sun_abpwyqmlzafvklqo.tif,72,0.0666666666666667,0.0666666666666667,0.766666666666667,2104.074461708,2104.951114083,9,2104.138415208,2104.204132375,2104.976727708,2105.736776916,1,0.876652375000049
139,3,12,categorization,0,kitchen,SHINEd_sun_abftihopvusyfakt.tif,71,0.0666666666666667,0.0666666666666667,0.716666666666667,2105.753932458,2107.910449375,9,2105.821013791,2105.886562625,2107.922348416,2108.632352208,1,2.15651691700032
139,4,12,categorization,0,bathroom,SHINEd_sun_apjevzvycyhuqghb.tif,43,0.0666666666666667,0.0666666666666667,0.816666666666667,2108.637101583,2109.407076416,9,2108.698837375,2108.759755958,2109.411784208,2110.22179,0,0.769974833000106
139,5,12,categorization,0,kitchen,SHINEd_sun_azmutvzbxypaceni.tif,110,0.0666666666666667,0.0666666666666667,1.96666666666667,2110.226486958,2110.846137708,13,2110.288269291,2110.349154916,2110.850962083,2112.811013291,0,0.619650749999892
139,6,12,categorization,0,bathroom,SHINEd_sun_anryaplzeujmzfkd.tif,39,0.0666666666666667,0.0666666666666667,0.85,2112.82915175,2113.496163208,13,2112.894046208,2112.959796208,2113.515735958,2114.359074125,1,0.667011457999706
139,7,12,categorization,0,bathroom,SHINEd_sun_aqrpegblszgcoujh.tif,48,0.0666666666666667,0.0666666666666667,0.7,2114.363996,2115.4787425,13,2114.425739625,2114.486716333,2115.488802083,2116.182141041,1,1.11474649999991
139,8,12,categorization,0,kitchen,SHINEd_sun_aadbddgrdsjugojn.tif,64,0.0666666666666667,0.0666666666666667,1.23333333333333,2116.186624333,2117.230268708,9,2116.248376,2116.309532125,2117.244778541,2118.471478791,1,1.04364437499999
139,9,12,categorization,0,bathroom,SHINEd_sun_apeeialkgkuxddgh.tif,42,0.0666666666666667,0.0666666666666667,1.13333333333333,2118.490107166,2119.70369975,13,2118.556723125,2118.622467833,2119.730145208,2120.856859291,1,1.2135925839998
139,10,12,categorization,0,bathroom,SHINEd_sun_apynckhmoftszqoq.tif,47,0.0666666666666667,0.0666666666666667,0.95,2120.866952708,2122.166914458,13,2120.931706916,2120.998058041,2122.190081791,2123.1334195,1,1.29996174999997
139,11,12,categorization,0,bathroom,SHINEd_sun_aspsyogrekjtfozg.tif,50,0.0666666666666667,0.0666666666666667,1.83333333333333,2123.138661541,2123.926186125,13,2123.200431958,2123.26137625,2123.9301785,2125.756892583,1,0.787524584000039
139,12,12,categorization,0,bathroom,SHINEd_sun_abapwbhyhkfixyex.tif,14,0.0666666666666667,0.0666666666666667,1.41666666666667,2125.774784708,2126.753990833,9,2125.841321791,2125.907494041,2126.779261666,2128.189312125,0,0.979206125000019
139,13,12,categorization,0,bathroom,SHINEd_sun_aggnnqpdorgxpvce.tif,21,0.0666666666666667,0.0666666666666667,1.06666666666667,2128.205854791,2129.050404125,9,2128.272899416,2128.338092708,2129.078046666,2130.138098875,0,0.844549334000021
139,14,12,categorization,0,kitchen,SHINEd_sun_acxkpeoqbwcxfvip.tif,77,0.0666666666666667,0.0666666666666667,0.716666666666667,2130.150300708,2130.822109,9,2130.214737875,2130.281380875,2130.835838958,2131.545889083,1,0.671808292000151
139,15,12,categorization,0,kitchen,SHINEd_sun_abdxkyyxwfskuaqb.tif,70,0.0666666666666667,0.0666666666666667,1.4,2131.562364833,2132.334663291,9,2131.629084875,2131.694535,2132.346897458,2133.740289166,1,0.772298458000023
139,16,12,categorization,0,bathroom,SHINEd_sun_ahcvzmoyaycdoftf.tif,27,0.0666666666666667,0.0666666666666667,1.36666666666667,2133.7580715,2134.16589175,9,2133.824560208,2133.890219291,2134.179113583,2135.539150041,0,0.407820249999986
139,17,12,categorization,0,kitchen,SHINEd_sun_aarfiyshqohlwkmo.tif,67,0.0666666666666667,0.0666666666666667,0.983333333333333,2135.554256708,2136.056179791,9,2135.620968541,2135.686645041,2136.07635975,2137.053063375,1,0.501923082999838
139,18,12,categorization,0,bathroom,SHINEd_sun_ajlawzvmubibwbpy.tif,30,0.0666666666666667,0.0666666666666667,1.93333333333333,2137.068769708,2137.598623791,9,2137.135440625,2137.201553708,2137.603974375,2139.530691458,0,0.529854082999918
139,19,12,categorization,0,bathroom,SHINEd_sun_aapitsgbtktqubfy.tif,12,0.0666666666666667,0.0666666666666667,1.81666666666667,2139.547405083,2139.959367666,9,2139.614206375,2139.680147791,2139.988122708,2141.798176875,0,0.411962583000332
139,20,12,categorization,0,kitchen,SHINEd_sun_abrcnpqqhmjwekyf.tif,73,0.0666666666666667,0.0666666666666667,1.15,2141.816234333,2142.514788125,9,2141.882902083,2141.948654791,2142.538591041,2143.681981666,1,0.698553791999984
139,21,12,categorization,0,kitchen,SHINEd_sun_aymvwlarqodbwuoc.tif,108,0.0666666666666667,0.0666666666666667,1.65,2143.693929666,2144.235080666,9,2143.759560041,2143.826289333,2144.249033625,2145.892415625,1,0.541151000000355
139,22,12,categorization,0,bathroom,SHINEd_sun_ahijqszoswveeyji.tif,28,0.0666666666666667,0.0666666666666667,1.66666666666667,2145.911300708,2146.51289475,9,2145.977866958,2146.043568166,2146.533535833,2148.193568708,0,0.601594042000215
139,23,12,categorization,0,kitchen,SHINEd_labelme_rykdqxenmhulbdn.tif,63,0.0666666666666667,0.0666666666666667,1.01666666666667,2148.210909583,2148.738948541,9,2148.27780175,2148.343662833,2148.767169208,2149.777205541,1,0.528038957999797
139,24,12,categorization,0,kitchen,SHINEd_sun_admlmbcdswaszruo.tif,79,0.0666666666666667,0.0666666666666667,1.98333333333333,2149.794172833,2150.366516208,9,2149.857407833,2149.917404708,2150.385873,2152.362581875,1,0.572343374999946
139,25,12,categorization,0,bathroom,SHINEd_sun_avhrdrntsqrjzccq.tif,55,0.0666666666666667,0.0666666666666667,1.03333333333333,2152.379440041,2153.264747833,9,2152.4461385,2152.512069958,2153.285345125,2154.312057833,0,0.885307791999821
139,26,12,categorization,0,bathroom,SHINEd_sun_acegryoqftbzowsg.tif,17,0.0666666666666667,0.0666666666666667,1.5,2154.322514875,2155.103421083,13,2154.387296541,2154.453308083,2155.126853708,2156.620225708,1,0.780906208000033
139,27,12,categorization,0,bathroom,SHINEd_sun_anhioqovhscjqqwb.tif,38,0.0666666666666667,0.0666666666666667,1.1,2156.636406791,2157.154983791,13,2156.704210541,2156.769250125,2157.176054666,2158.269430125,1,0.518577000000278
139,28,12,categorization,0,kitchen,SHINEd_sun_aunzlwrbjumxhwdj.tif,103,0.0666666666666667,0.0666666666666667,0.783333333333333,2158.285542583,2158.9823595,9,2158.352255416,2158.417723916,2158.986400791,2159.76307325,1,0.696816916999978
139,29,12,categorization,0,kitchen,SHINEd_sun_aamedkxepzlwuxes.tif,65,0.0666666666666667,0.0666666666666667,1.21666666666667,2159.767948583,2162.885912083,13,2159.829619916,2159.890699875,2162.89316625,2164.103220375,0,3.11796350000031
139,30,12,categorization,0,kitchen,SHINEd_sun_ahljzhgcdpomplvg.tif,91,0.0666666666666667,0.0666666666666667,1.41666666666667,2164.118773833,2164.79381325,13,2164.186764208,2164.251319708,2164.805560708,2166.215602416,0,0.67503941699988
139,31,12,categorization,0,kitchen,SHINEd_sun_aegoxogugdkwpmpj.tif,80,0.0666666666666667,0.0666666666666667,1.28333333333333,2166.233472541,2166.821932958,9,2166.300486208,2166.366018166,2166.837391708,2168.11410475,1,0.588460417000078
139,32,12,categorization,0,kitchen,SHINEd_sun_aexklacwqwezaorf.tif,84,0.0666666666666667,0.0666666666666667,0.95,2168.123701875,2168.73184825,9,2168.190157916,2168.256208875,2168.74538225,2169.688761958,1,0.60814637500016
139,33,12,categorization,0,bathroom,SHINEd_sun_agrwbmhcpmfuwmsg.tif,24,0.0666666666666667,0.0666666666666667,1.73333333333333,2169.70494375,2170.351018416,9,2169.771693875,2169.837231791,2170.356483,2172.083202916,0,0.646074666000004
139,34,12,categorization,0,bathroom,SHINEd_sun_axldvoqbuvuggfmq.tif,57,0.0666666666666667,0.0666666666666667,1.56666666666667,2172.1017795,2172.895705458,9,2172.168467083,2172.234279791,2172.922649708,2174.482699375,0,0.793925958000273
139,35,12,categorization,0,kitchen,SHINEd_labelme_brsyyvweiuaazfr.tif,61,0.0666666666666667,0.0666666666666667,1.05,2174.500045875,2174.977101875,9,2174.566848166,2174.632945916,2174.987444625,2176.030830833,1,0.47705599999972
139,36,12,categorization,0,kitchen,SHINEd_sun_aqeaevwwwjoqhzvl.tif,101,0.0666666666666667,0.0666666666666667,0.916666666666667,2176.040478375,2176.723102666,9,2176.106647041,2176.173070041,2176.746497791,2177.656539125,1,0.682624291000138
139,37,12,categorization,0,kitchen,SHINEd_sun_acgtpgfybqjmzeyw.tif,75,0.0666666666666667,0.0666666666666667,1.61666666666667,2177.673458916,2178.390213708,9,2177.739934,2177.805810791,2178.408126083,2180.018167958,1,0.716754791999847
139,38,12,categorization,0,kitchen,SHINEd_sun_aehawpgmrlhlvcow.tif,81,0.0666666666666667,0.0666666666666667,0.916666666666667,2180.036227666,2180.539383708,9,2180.103137083,2180.168865,2180.558053958,2181.468064125,1,0.503156042000228
139,39,12,categorization,0,bathroom,SHINEd_sun_ahqjwnzgolcaoidx.tif,29,0.0666666666666667,0.0666666666666667,0.916666666666667,2181.475687541,2181.934603916,9,2181.537382916,2181.598461416,2181.950206625,2182.860211875,0,0.458916375000172
139,40,12,categorization,0,bathroom,SHINEd_sun_axxbkopsgyouuebh.tif,58,0.0666666666666667,0.0666666666666667,0.916666666666667,2182.865058958,2183.678125458,9,2182.926808875,2182.987817916,2183.689946708,2184.599952041,0,0.813066499999877
139,41,12,categorization,0,kitchen,SHINEd_sun_agzzivivdpnawacl.tif,89,0.0666666666666667,0.0666666666666667,1.28333333333333,2184.604662375,2185.278718916,9,2184.66627275,2184.727271,2185.295926083,2186.572632208,1,0.674056541000027
139,42,12,categorization,0,bathroom,SHINEd_sun_agguqiubmwhqqunb.tif,22,0.0666666666666667,0.0666666666666667,0.916666666666667,2186.590844166,2187.154425958,9,2186.657324416,2186.723454416,2187.179966708,2188.090021708,0,0.56358179200015
139,43,12,categorization,0,bathroom,SHINEd_sun_atstyziqcmkahyxk.tif,51,0.0666666666666667,0.0666666666666667,1.68333333333333,2188.106369958,2188.534487083,9,2188.172545875,2188.238462291,2188.541055208,2190.21775525,0,0.428117124999972
139,44,12,categorization,0,bathroom,SHINEd_sun_apmqjbnwghzuhhzh.tif,46,0.0666666666666667,0.0666666666666667,0.933333333333333,2190.236560833,2190.664279666,9,2190.3031325,2190.369160708,2190.692388041,2191.6191115,0,0.427718832999744
139,45,12,categorization,0,kitchen,SHINEd_sun_ajkqhtgcbgpcwrwn.tif,97,0.0666666666666667,0.0666666666666667,1.86666666666667,2191.634385291,2193.030627958,13,2191.696328583,2191.757111875,2193.04263125,2194.902665708,0,1.39624266700002
139,46,12,categorization,0,kitchen,SHINEd_labelme_kxvouciolcpqplr.tif,62,0.0666666666666667,0.0666666666666667,1.03333333333333,2194.913715625,2195.795535375,9,2194.979175958,2195.04621575,2195.819295791,2196.846017958,1,0.881819749999977
139,47,12,categorization,0,bathroom,SHINEd_sun_agyqfjcfkdcydepw.tif,25,0.0666666666666667,0.0666666666666667,1.43333333333333,2196.854687875,2198.175128458,13,2196.919023541,2196.985246583,2198.193892625,2199.620617666,1,1.32044058300016
139,48,12,categorization,0,bathroom,SHINEd_sun_aavhrsfjbserjtht.tif,13,0.0666666666666667,0.0666666666666667,0.833333333333333,2199.638058333,2200.499248375,13,2199.704918333,2199.770438625,2200.527106083,2201.35378325,1,0.861190042000089
139,49,12,categorization,0,kitchen,SHINEd_sun_acfmftudsenhrfhy.tif,74,0.0666666666666667,0.0666666666666667,0.833333333333333,2201.359738041,2202.382757333,13,2201.421471833,2201.482460375,2202.400960958,2203.227633375,0,1.02301929199984
139,50,12,categorization,0,kitchen,SHINEd_sun_abdenxonkemggwsq.tif,69,0.0666666666666667,0.0666666666666667,0.916666666666667,2203.232468083,2203.902673708,9,2203.294180333,2203.355135333,2203.907241083,2204.817246375,1,0.670205624999653
