sub_num,trial,block,task,is_practice,category,image,texture,duration,mask_dur,jitter,stim_time,time_of_resp,trial_response,mask_time,fix_time,jit_onset,trial_end,trial_accuracy,RT
139,1,24,categorization,0,bathroom,SHINEd_sun_apmqjbnwghzuhhzh.tif,46,0.0666666666666667,0.0666666666666667,0.733333333333333,3805.078822875,3805.759483791,9,3805.141197875,3805.201730958,3805.770203583,3806.496876125,0,0.680660916000306
139,2,24,categorization,0,kitchen,SHINEd_sun_aunzlwrbjumxhwdj.tif,103,0.0666666666666667,0.0666666666666667,1.26666666666667,3806.501632625,3807.199299166,9,3806.563273291,3806.62432575,3807.209810416,3808.469846666,1,0.697666540999762
139,3,24,categorization,0,bathroom,SHINEd_sun_acduarbnmmoglmiv.tif,16,0.0666666666666667,0.0666666666666667,0.75,3808.48760375,3809.190766333,9,3808.553071791,3808.619252708,3809.208839125,3809.952217291,0,0.703162582999994
139,4,24,categorization,0,kitchen,SHINEd_sun_aamedkxepzlwuxes.tif,65,0.0666666666666667,0.0666666666666667,1.08333333333333,3809.9693615,3810.543699125,9,3810.035318666,3810.100144583,3810.552142958,3811.628854333,1,0.574337624999771
139,5,24,categorization,0,bathroom,SHINEd_sun_amzlamotzwfkwjco.tif,37,0.0666666666666667,0.0666666666666667,1.28333333333333,3811.638694541,3812.497452666,9,3811.703099708,3811.769988708,3812.526760916,3813.803463875,0,0.858758124999895
139,6,24,categorization,0,kitchen,SHINEd_labelme_rykdqxenmhulbdn.tif,63,0.0666666666666667,0.0666666666666667,0.9,3813.820674,3814.673932416,9,3813.8868405,3813.953248791,3814.693296833,3815.586671708,1,0.85325841599979
139,7,24,categorization,0,kitchen,SHINEd_sun_aapllqyqlykszopd.tif,66,0.0666666666666667,0.0666666666666667,1.8,3815.603093916,3816.39164875,9,3815.669338416,3815.734808333,3816.403879208,3818.197262,1,0.788554834000024
139,8,24,categorization,0,bathroom,SHINEd_sun_alkosphxlxwjwgjd.tif,34,0.0666666666666667,0.0666666666666667,1.06666666666667,3818.214946041,3818.744680166,9,3818.2811585,3818.347209833,3818.771162375,3819.83120175,0,0.529734124999777
139,9,24,categorization,0,bathroom,SHINEd_sun_apkxzenqapsujocq.tif,45,0.0666666666666667,0.0666666666666667,0.783333333333333,3819.842909958,3820.715540416,13,3819.907838208,3819.973462916,3820.7293995,3821.506116083,1,0.872630458000003
139,10,24,categorization,0,kitchen,SHINEd_sun_axyyrmzcupyhlivc.tif,107,0.0666666666666667,0.0666666666666667,0.966666666666667,3821.522533625,3822.623857375,13,3821.58935775,3821.654849166,3822.64055275,3823.600557916,0,1.10132375000012
139,11,24,categorization,0,kitchen,SHINEd_sun_abdxkyyxwfskuaqb.tif,70,0.0666666666666667,0.0666666666666667,0.95,3823.605562833,3824.335219541,9,3823.667394291,3823.728464166,3824.347342791,3825.29068025,1,0.729656707999766
139,12,24,categorization,0,bathroom,SHINEd_sun_apynckhmoftszqoq.tif,47,0.0666666666666667,0.0666666666666667,0.966666666666667,3825.29561,3826.000010666,13,3825.357212833,3825.418458041,3826.003918333,3826.963923916,1,0.704400665999856
139,13,24,categorization,0,bathroom,SHINEd_sun_aoybiabnpadelefl.tif,41,0.0666666666666667,0.0666666666666667,1.31666666666667,3826.968859916,3827.655493666,13,3827.03051425,3827.091585208,3827.660300708,3828.970323416,1,0.686633750000055
139,14,24,categorization,0,kitchen,SHINEd_sun_aggjlwcdjsjcaemh.tif,86,0.0666666666666667,0.0666666666666667,0.766666666666667,3828.981848541,3829.452293666,13,3829.048351375,3829.114021333,3829.470063916,3830.230095333,0,0.470445124999969
139,15,24,categorization,0,kitchen,SHINEd_labelme_brsyyvweiuaazfr.tif,61,0.0666666666666667,0.0666666666666667,1.61666666666667,3830.245544083,3830.951497125,9,3830.312223458,3830.377722291,3830.962992208,3832.573053375,1,0.705953042000147
139,16,24,categorization,0,bathroom,SHINEd_sun_auzqhkafidnkrwmo.tif,54,0.0666666666666667,0.0666666666666667,1.93333333333333,3832.588509458,3832.951196416,9,3832.654739,3832.7208745,3832.976279666,3834.903000083,0,0.362686958000268
139,17,24,categorization,0,kitchen,SHINEd_sun_aarfiyshqohlwkmo.tif,67,0.0666666666666667,0.0666666666666667,0.733333333333333,3834.913960416,3835.423877166,9,3834.978900916,3835.046292375,3835.45263675,3836.179313708,1,0.509916749999775
139,18,24,categorization,0,bathroom,SHINEd_sun_ahijqszoswveeyji.tif,28,0.0666666666666667,0.0666666666666667,1.63333333333333,3836.185323,3837.951969375,9,3836.246956958,3836.308067666,3837.960635833,3839.587336458,0,1.76664637499971
139,19,24,categorization,0,bathroom,SHINEd_sun_ahcvzmoyaycdoftf.tif,27,0.0666666666666667,0.0666666666666667,1.51666666666667,3839.605037125,3840.028168583,9,3839.672051333,3839.737968166,3840.043954333,3841.554008583,0,0.423131458000171
139,20,24,categorization,0,kitchen,SHINEd_sun_akcjzhbbjlbogpdi.tif,99,0.0666666666666667,0.0666666666666667,1.68333333333333,3841.571712083,3842.091259,9,3841.638650083,3841.704457833,3842.11070225,3843.787423333,1,0.519546916999843
139,21,24,categorization,0,bathroom,SHINEd_sun_ausgutylgojavyoq.tif,53,0.0666666666666667,0.0666666666666667,1.28333333333333,3843.805284375,3844.201696541,9,3843.872246291,3843.938115666,3844.228023875,3845.504735375,0,0.396412165999664
139,22,24,categorization,0,bathroom,SHINEd_sun_aqrpegblszgcoujh.tif,48,0.0666666666666667,0.0666666666666667,0.766666666666667,3845.522224125,3845.969795625,9,3845.589000791,3845.655585458,3845.995556083,3846.755600791,0,0.447571500000322
139,23,24,categorization,0,bathroom,SHINEd_sun_awnqiikzaispgmwo.tif,56,0.0666666666666667,0.0666666666666667,1.1,3846.769914625,3847.297244916,9,3846.836257541,3846.901112416,3847.324594083,3848.41795925,0,0.527330290999998
139,24,24,categorization,0,bathroom,SHINEd_sun_anryaplzeujmzfkd.tif,39,0.0666666666666667,0.0666666666666667,1.55,3848.429036875,3848.835933458,9,3848.493676458,3848.56154,3848.84967425,3850.39302225,0,0.406896583000162
139,25,24,categorization,0,kitchen,SHINEd_labelme_kxvouciolcpqplr.tif,62,0.0666666666666667,0.0666666666666667,1.88333333333333,3850.403591583,3850.751570208,9,3850.466144041,3850.526266333,3850.761453708,3852.638173541,1,0.347978624999996
139,26,24,categorization,0,bathroom,SHINEd_sun_anhioqovhscjqqwb.tif,38,0.0666666666666667,0.0666666666666667,1.05,3852.656105083,3853.047501416,9,3852.723000041,3852.783827458,3853.073981916,3854.117359166,0,0.391396333000102
139,27,24,categorization,0,bathroom,SHINEd_sun_afcoljnjfoxjtgja.tif,20,0.0666666666666667,0.0666666666666667,0.933333333333333,3854.128618583,3854.656365833,9,3854.1935055,3854.258403666,3854.681628791,3855.608329708,0,0.527747250000175
139,28,24,categorization,0,kitchen,SHINEd_sun_aehawpgmrlhlvcow.tif,81,0.0666666666666667,0.0666666666666667,1.4,3855.625170458,3857.487475666,9,3855.692176375,3855.75768975,3857.493312875,3858.886684916,1,1.86230520800018
139,29,24,categorization,0,kitchen,SHINEd_sun_ahywdevtimnqcsln.tif,94,0.0666666666666667,0.0666666666666667,1.85,3858.896754791,3859.34470775,9,3858.962112458,3859.029402666,3859.368748791,3861.212130958,1,0.447952958999849
139,30,24,categorization,0,bathroom,SHINEd_sun_abapwbhyhkfixyex.tif,14,0.0666666666666667,0.0666666666666667,1.2,3861.229963083,3861.600869708,9,3861.296058125,3861.362613708,3861.61833225,3862.811700916,0,0.370906625000316
139,31,24,categorization,0,bathroom,SHINEd_sun_acgyywnybuveqsro.tif,18,0.0666666666666667,0.0666666666666667,1.33333333333333,3862.82264875,3863.353372916,9,3862.887780666,3862.952347083,3863.375200416,3864.701907083,0,0.5307241659998
139,32,24,categorization,0,kitchen,SHINEd_sun_abftihopvusyfakt.tif,71,0.0666666666666667,0.0666666666666667,0.8,3864.7192605,3865.687638,9,3864.783379458,3864.848382291,3865.700537583,3866.49387575,1,0.96837749999986
139,33,24,categorization,0,kitchen,SHINEd_sun_ahspylgoovwmwvgk.tif,93,0.0666666666666667,0.0666666666666667,0.7,3866.501133166,3866.911828458,9,3866.562805958,3866.623845083,3866.925617083,3867.618955833,1,0.410695292000128
139,34,24,categorization,0,kitchen,SHINEd_sun_admlmbcdswaszruo.tif,79,0.0666666666666667,0.0666666666666667,1.26666666666667,3867.623263458,3868.063497416,9,3867.685142,3867.745933416,3868.08137175,3869.341404333,1,0.440233957999681
139,35,24,categorization,0,bathroom,SHINEd_sun_atstyziqcmkahyxk.tif,51,0.0666666666666667,0.0666666666666667,1.98333333333333,3869.359061291,3869.726884583,9,3869.425953083,3869.491215166,3869.745864541,3871.722571583,0,0.367823291999684
139,36,24,categorization,0,kitchen,SHINEd_sun_amjjdeyrggfqgmom.tif,100,0.0666666666666667,0.0666666666666667,1.18333333333333,3871.740650666,3872.218926375,9,3871.807631291,3871.873177833,3872.24592475,3873.422628333,1,0.478275709000172
139,37,24,categorization,0,kitchen,SHINEd_sun_ahpczsiumwwocjkv.tif,92,0.0666666666666667,0.0666666666666667,0.916666666666667,3873.438538541,3873.815474708,9,3873.505079666,3873.57118375,3873.844261583,3874.754314375,1,0.376936166999712
139,38,24,categorization,0,kitchen,SHINEd_sun_agubuxuukhzyzpdp.tif,88,0.0666666666666667,0.0666666666666667,1,3874.7709645,3875.34430025,9,3874.836328083,3874.903082166,3875.3558025,3876.349139583,1,0.573335749999842
139,39,24,categorization,0,bathroom,SHINEd_sun_aleqenyvunhactkl.tif,32,0.0666666666666667,0.0666666666666667,1.63333333333333,3876.353854791,3876.847582458,9,3876.415581541,3876.476548416,3876.861741416,3878.488451625,0,0.493727667000257
139,40,24,categorization,0,bathroom,SHINEd_sun_akiytfaagpdsphgz.tif,31,0.0666666666666667,0.0666666666666667,1.36666666666667,3878.506229208,3878.97905625,9,3878.573327791,3878.6351125,3879.007276791,3880.367317333,0,0.472827042000063
139,41,24,categorization,0,bathroom,SHINEd_sun_axyrejkiiaqiurjk.tif,59,0.0666666666666667,0.0666666666666667,1.1,3880.385779833,3880.92859875,9,3880.453205083,3880.518400875,3880.939861333,3882.033235875,0,0.542818917000204
139,42,24,categorization,0,bathroom,SHINEd_sun_axldvoqbuvuggfmq.tif,57,0.0666666666666667,0.0666666666666667,1.43333333333333,3882.05240475,3882.559214125,9,3882.117441458,3882.176119458,3882.578164791,3884.004869666,0,0.506809375000103
139,43,24,categorization,0,bathroom,SHINEd_sun_apeeialkgkuxddgh.tif,42,0.0666666666666667,0.0666666666666667,0.883333333333333,3884.024226416,3884.33357225,9,3884.091351125,3884.157260166,3884.364923583,3885.241626,0,0.309345833999942
139,44,24,categorization,0,kitchen,SHINEd_sun_aegoxogugdkwpmpj.tif,80,0.0666666666666667,0.0666666666666667,1.86666666666667,3885.257759041,3885.902780708,9,3885.324685916,3885.390887333,3885.910244083,3887.770300333,1,0.645021667000037
139,45,24,categorization,0,bathroom,SHINEd_sun_ahaulkltgpkeeemi.tif,26,0.0666666666666667,0.0666666666666667,0.966666666666667,3887.787900916,3888.145888583,9,3887.854826625,3887.920907666,3888.159747625,3889.119752375,0,0.357987667000089
139,46,24,categorization,0,bathroom,SHINEd_sun_aclfzgynxzxlbepz.tif,19,0.0666666666666667,0.0666666666666667,1.86666666666667,3889.125296666,3889.774942375,9,3889.187008875,3889.248013541,3889.783101791,3891.643153916,0,0.649645709000197
139,47,24,categorization,0,kitchen,SHINEd_sun_auticobqsbwgoppi.tif,104,0.0666666666666667,0.0666666666666667,1.33333333333333,3891.661716583,3891.968967833,9,3891.728573,3891.794238791,3891.983215625,3893.309925291,1,0.307251250000263
139,48,24,categorization,0,bathroom,SHINEd_sun_aggnnqpdorgxpvce.tif,21,0.0666666666666667,0.0666666666666667,0.766666666666667,3893.325576208,3893.874374458,9,3893.392348791,3893.458509458,3893.898520416,3894.65857175,0,0.548798250000345
139,49,24,categorization,0,bathroom,SHINEd_sun_agyqfjcfkdcydepw.tif,25,0.0666666666666667,0.0666666666666667,1,3894.675127833,3895.22300525,9,3894.74207575,3894.806021708,3895.24202675,3896.235365666,0,0.547877417000109
139,50,24,categorization,0,kitchen,SHINEd_sun_aenotlpyftoioydp.tif,82,0.0666666666666667,0.0666666666666667,0.716666666666667,3896.240198,3896.72724475,9,3896.30186225,3896.362864208,3896.731340875,3897.441345083,1,0.48704674999999
