sub_num,trial,block,task,is_practice,category,image,texture,duration,mask_dur,jitter,stim_time,time_of_resp,trial_response,mask_time,fix_time,jit_onset,trial_end,trial_accuracy,RT
139,1,4,categorization,0,bathroom,SHINEd_sun_afcoljnjfoxjtgja.tif,20,0.0666666666666667,0.0666666666666667,1,1032.01750175,1032.907707208,13,1032.079752875,1032.140183791,1032.925300416,1033.918639375,1,0.890205457999855
139,2,4,categorization,0,bathroom,SHINEd_sun_acgyywnybuveqsro.tif,18,0.0666666666666667,0.0666666666666667,0.966666666666667,1033.923411458,1034.54711125,13,1033.985048291,1034.046130875,1034.564518333,1035.524522916,1,0.623699792000025
139,3,4,categorization,0,kitchen,SHINEd_sun_abdxkyyxwfskuaqb.tif,70,0.0666666666666667,0.0666666666666667,1.75,1035.529354791,1036.426948708,9,1035.591203041,1035.652228375,1036.437367375,1038.180732083,1,0.897593916999995
139,4,4,categorization,0,kitchen,SHINEd_sun_aypmqwcualkenuoe.tif,109,0.0666666666666667,0.0666666666666667,1.68333333333333,1038.20020775,1038.96664525,9,1038.266989083,1038.332907791,1038.988295458,1040.664997083,1,0.766437500000166
139,5,4,categorization,0,kitchen,SHINEd_sun_acfmftudsenhrfhy.tif,74,0.0666666666666667,0.0666666666666667,1.58333333333333,1040.683700375,1041.278669541,9,1040.750797416,1040.81209625,1041.302333375,1042.87905525,1,0.594969166000055
139,6,4,categorization,0,kitchen,SHINEd_sun_aarfiyshqohlwkmo.tif,67,0.0666666666666667,0.0666666666666667,1,1042.889570833,1043.504368875,9,1042.954459541,1043.021903625,1043.528126833,1044.521466625,1,0.614798041999848
139,7,4,categorization,0,bathroom,SHINEd_sun_aofnryafpsjimzsb.tif,40,0.0666666666666667,0.0666666666666667,1.33333333333333,1044.527196208,1045.187286083,9,1044.588807333,1044.6499355,1045.201813833,1046.52853,0,0.660089874999812
139,8,4,categorization,0,bathroom,SHINEd_sun_ambriybtogmepttm.tif,36,0.0666666666666667,0.0666666666666667,1.26666666666667,1046.546822,1047.221228041,9,1046.6133385,1046.679168416,1047.234626958,1048.49466,0,0.674406040999884
139,9,4,categorization,0,bathroom,SHINEd_sun_agyqfjcfkdcydepw.tif,25,0.0666666666666667,0.0666666666666667,0.883333333333333,1048.512598041,1048.973286291,9,1048.579389333,1048.645212833,1049.001720708,1049.878430833,0,0.460688249999976
139,10,4,categorization,0,kitchen,SHINEd_sun_aaxxjlsuzvqlgylf.tif,68,0.0666666666666667,0.0666666666666667,1.26666666666667,1049.894375708,1050.378972666,9,1049.960690208,1050.026880041,1050.396165041,1051.656213708,1,0.484596957999884
139,11,4,categorization,0,bathroom,SHINEd_sun_aleqenyvunhactkl.tif,32,0.0666666666666667,0.0666666666666667,2,1051.674908916,1052.18356425,9,1051.742282458,1051.808011958,1052.197759083,1054.191129166,0,0.508655333999968
139,12,4,categorization,0,bathroom,SHINEd_sun_apkxzenqapsujocq.tif,45,0.0666666666666667,0.0666666666666667,0.733333333333333,1054.208758958,1055.007161791,13,1054.275947291,1054.341136375,1055.031877708,1055.758548875,1,0.798402832999955
139,13,4,categorization,0,kitchen,SHINEd_sun_aeqdocilnnpuvuhx.tif,83,0.0666666666666667,0.0666666666666667,0.883333333333333,1055.765491708,1056.619356,9,1055.827456,1055.888118458,1056.62334925,1057.500021541,1,0.853864292000026
139,14,4,categorization,0,bathroom,SHINEd_sun_apkruvsevgegsdwp.tif,44,0.0666666666666667,0.0666666666666667,0.983333333333333,1057.505110875,1058.0914795,9,1057.567254541,1057.627739166,1058.096730791,1059.073400541,0,0.586368625000205
139,15,4,categorization,0,bathroom,SHINEd_sun_apynckhmoftszqoq.tif,47,0.0666666666666667,0.0666666666666667,1.56666666666667,1059.078135083,1059.651269166,9,1059.139904333,1059.200840416,1059.669364291,1061.229418375,0,0.573134083000014
139,16,4,categorization,0,kitchen,SHINEd_sun_aenotlpyftoioydp.tif,82,0.0666666666666667,0.0666666666666667,1.08333333333333,1061.251510416,1061.974415208,9,1061.318643083,1061.384240875,1061.989012791,1063.065727583,1,0.722904792000008
139,17,4,categorization,0,kitchen,SHINEd_sun_awcpdzzznmweyyhv.tif,106,0.0666666666666667,0.0666666666666667,0.75,1063.078172583,1063.701841916,9,1063.143109541,1063.207981166,1063.731096958,1064.474484125,1,0.623669332999953
139,18,4,categorization,0,kitchen,SHINEd_sun_aqeaevwwwjoqhzvl.tif,101,0.0666666666666667,0.0666666666666667,0.966666666666667,1064.491407541,1065.323637041,13,1064.558200875,1064.623841916,1065.343083583,1066.303087666,0,0.832229500000039
139,19,4,categorization,0,bathroom,SHINEd_sun_aapitsgbtktqubfy.tif,12,0.0666666666666667,0.0666666666666667,1.63333333333333,1066.30788025,1067.051490916,9,1066.3699495,1066.430594291,1067.065739666,1068.692445875,0,0.743610665999995
139,20,4,categorization,0,bathroom,SHINEd_sun_akiytfaagpdsphgz.tif,31,0.0666666666666667,0.0666666666666667,1.46666666666667,1068.709495291,1069.166764,9,1068.774676083,1068.838699958,1069.195908541,1070.655940375,0,0.457268709000118
139,21,4,categorization,0,bathroom,SHINEd_sun_aghyqhbptboemmoq.tif,23,0.0666666666666667,0.0666666666666667,0.933333333333333,1070.674561625,1071.05047675,9,1070.741773291,1070.804584166,1071.078346791,1072.005049541,0,0.375915124999892
139,22,4,categorization,0,bathroom,SHINEd_sun_anryaplzeujmzfkd.tif,39,0.0666666666666667,0.0666666666666667,1.45,1072.021621125,1072.875360083,13,1072.088242041,1072.154126166,1072.889409166,1074.332783083,1,0.853738958000122
139,23,4,categorization,0,kitchen,SHINEd_sun_acwjdupvyjsugpay.tif,76,0.0666666666666667,0.0666666666666667,0.966666666666667,1074.350700291,1075.2309445,9,1074.416895208,1074.48300975,1075.256536875,1076.216542333,1,0.880244209000011
139,24,4,categorization,0,bathroom,SHINEd_sun_acduarbnmmoglmiv.tif,16,0.0666666666666667,0.0666666666666667,0.816666666666667,1076.221470833,1076.786814416,9,1076.28327175,1076.344215666,1076.7960385,1077.606042583,0,0.565343582999958
139,25,4,categorization,0,bathroom,SHINEd_sun_axldvoqbuvuggfmq.tif,57,0.0666666666666667,0.0666666666666667,1.96666666666667,1077.610923833,1078.363608291,13,1077.672706041,1077.733765916,1078.368868833,1080.328921166,1,0.752684457999976
139,26,4,categorization,0,bathroom,SHINEd_sun_auzqhkafidnkrwmo.tif,54,0.0666666666666667,0.0666666666666667,0.916666666666667,1080.348166833,1081.350172083,9,1080.415410666,1080.4807835,1081.371056791,1082.281063333,0,1.00200524999991
139,27,4,categorization,0,bathroom,SHINEd_sun_anhioqovhscjqqwb.tif,38,0.0666666666666667,0.0666666666666667,1.28333333333333,1082.286745833,1082.915588166,9,1082.348521583,1082.4093985,1082.927756208,1084.204462208,0,0.628842332999966
139,28,4,categorization,0,kitchen,SHINEd_sun_abpwyqmlzafvklqo.tif,72,0.0666666666666667,0.0666666666666667,1.8,1084.222208958,1084.8960605,9,1084.288489458,1084.354687458,1084.910187708,1086.703566416,1,0.673851541999966
139,29,4,categorization,0,kitchen,SHINEd_sun_aggjlwcdjsjcaemh.tif,86,0.0666666666666667,0.0666666666666667,1.33333333333333,1086.72252525,1087.087980958,9,1086.786894625,1086.850745541,1087.107485125,1088.434192541,1,0.365455707999899
139,30,4,categorization,0,kitchen,SHINEd_labelme_kxvouciolcpqplr.tif,62,0.0666666666666667,0.0666666666666667,1.06666666666667,1088.450045541,1089.213773166,13,1088.515614708,1088.580036666,1089.236854791,1090.296902416,0,0.763727625000001
139,31,4,categorization,0,bathroom,SHINEd_sun_alotolagknyrgtsk.tif,35,0.0666666666666667,0.0666666666666667,1.03333333333333,1090.314212958,1091.267271583,9,1090.37693325,1090.437017125,1091.272268625,1092.298984,0,0.953058624999812
139,32,4,categorization,0,kitchen,SHINEd_sun_agzzivivdpnawacl.tif,89,0.0666666666666667,0.0666666666666667,0.733333333333333,1092.310930666,1093.331393583,9,1092.375850333,1092.441863708,1093.347690708,1094.074390333,1,1.0204629169998
139,33,4,categorization,0,bathroom,SHINEd_sun_agguqiubmwhqqunb.tif,22,0.0666666666666667,0.0666666666666667,0.766666666666667,1094.090462458,1094.851693166,9,1094.158250291,1094.222798458,1094.857975291,1095.617979291,0,0.761230707999857
139,34,4,categorization,0,bathroom,SHINEd_sun_azqyogdvyhahyram.tif,60,0.0666666666666667,0.0666666666666667,1.1,1095.623103416,1096.33890775,9,1095.684742875,1095.745969041,1096.347827625,1097.44119775,0,0.71580433400004
139,35,4,categorization,0,kitchen,SHINEd_sun_afuyedyxivkhecmu.tif,85,0.0666666666666667,0.0666666666666667,1.81666666666667,1097.449746208,1098.076001208,9,1097.514989208,1097.582513375,1098.106236916,1099.916272958,1,0.626254999999901
139,36,4,categorization,0,kitchen,SHINEd_sun_abftihopvusyfakt.tif,71,0.0666666666666667,0.0666666666666667,0.883333333333333,1099.933774875,1100.560973583,9,1100.000564166,1100.066245875,1100.589626541,1101.466338083,1,0.627198708000151
139,37,4,categorization,0,bathroom,SHINEd_sun_ausgutylgojavyoq.tif,53,0.0666666666666667,0.0666666666666667,1.7,1101.483214375,1101.979266875,9,1101.54597425,1101.606069041,1101.991249583,1103.684630625,0,0.496052499999905
139,38,4,categorization,0,kitchen,SHINEd_sun_admlmbcdswaszruo.tif,79,0.0666666666666667,0.0666666666666667,1.58333333333333,1103.702555625,1104.253820541,13,1103.769426625,1103.835116208,1104.274852125,1105.851561083,0,0.551264916000036
139,39,4,categorization,0,kitchen,SHINEd_sun_axyyrmzcupyhlivc.tif,107,0.0666666666666667,0.0666666666666667,0.833333333333333,1105.868729541,1106.371800625,13,1105.935482291,1106.001169166,1106.3906915,1107.217407875,0,0.503071084000112
139,40,4,categorization,0,kitchen,SHINEd_sun_aixorpehvfykdynp.tif,95,0.0666666666666667,0.0666666666666667,0.95,1107.233338,1107.882977458,9,1107.300047,1107.357674791,1107.892804958,1108.836141958,1,0.649639457999911
139,41,4,categorization,0,bathroom,SHINEd_sun_amzlamotzwfkwjco.tif,37,0.0666666666666667,0.0666666666666667,1.06666666666667,1108.840978166,1109.274793083,9,1108.902726416,1108.963670625,1109.282202625,1110.342250208,0,0.433814917000063
139,42,4,categorization,0,bathroom,SHINEd_sun_apjevzvycyhuqghb.tif,43,0.0666666666666667,0.0666666666666667,1.68333333333333,1110.352190625,1110.862282666,9,1110.417141583,1110.481455,1110.8866585,1112.56337175,0,0.510092041000007
139,43,4,categorization,0,kitchen,SHINEd_sun_agubuxuukhzyzpdp.tif,88,0.0666666666666667,0.0666666666666667,1.31666666666667,1112.583884791,1113.22330425,9,1112.6505295,1112.716525291,1113.239126166,1114.549170916,1,0.63941945900001
139,44,4,categorization,0,kitchen,SHINEd_sun_ajcbwwvdlsvjyzje.tif,96,0.0666666666666667,0.0666666666666667,1.61666666666667,1114.560478125,1115.119680666,9,1114.626854875,1114.692794958,1115.149236458,1116.759275125,1,0.559202541000104
139,45,4,categorization,0,kitchen,SHINEd_sun_aymvwlarqodbwuoc.tif,108,0.0666666666666667,0.0666666666666667,1.15,1116.769627625,1117.197246041,9,1116.834059041,1116.901722791,1117.225443166,1118.36881525,1,0.427618415999859
139,46,4,categorization,0,kitchen,SHINEd_sun_avszsnwsbuqfgzbn.tif,105,0.0666666666666667,0.0666666666666667,1.25,1118.383339041,1118.866836166,9,1118.4501985,1118.515595166,1118.884208625,1120.127572458,1,0.483497124999985
139,47,4,categorization,0,kitchen,SHINEd_sun_adgqasybjyktddhj.tif,78,0.0666666666666667,0.0666666666666667,1.1,1120.144759166,1120.562302083,9,1120.211092708,1120.276963916,1120.583221125,1121.676613166,1,0.417542916999992
139,48,4,categorization,0,bathroom,SHINEd_sun_apeeialkgkuxddgh.tif,42,0.0666666666666667,0.0666666666666667,0.9,1121.693339291,1122.10697275,9,1121.758266,1121.825725208,1122.111010916,1123.004348291,0,0.413633459000039
139,49,4,categorization,0,kitchen,SHINEd_labelme_brsyyvweiuaazfr.tif,61,0.0666666666666667,0.0666666666666667,1.3,1123.00905775,1123.387450875,9,1123.07068425,1123.131780291,1123.400190833,1124.693566625,1,0.378393125000002
139,50,4,categorization,0,bathroom,SHINEd_sun_avhrdrntsqrjzccq.tif,55,0.0666666666666667,0.0666666666666667,1.25,1124.710855083,1124.891177791,9,1124.775470833,1124.838699791,1124.909954375,1126.153334208,0,0.180322707999949
