sub_num,trial,block,task,is_practice,category,image,texture,duration,mask_dur,jitter,stim_time,time_of_resp,trial_response,mask_time,fix_time,jit_onset,trial_end,trial_accuracy,RT
118,6,0,complexity,1,kitchen,kitchen_practice5.tif,230,1.5,0,1.46666666666667,19388.754559584,19394.532333709,4,NaN,19394.538727959,19394.557103292,19396.017165292,NaN,NaN
118,7,0,complexity,1,kitchen,kitchen_practice2.tif,227,1.5,0,1.31666666666667,19396.037889709,19398.412547917,7,NaN,19398.41822675,19398.436582209,19399.746648459,NaN,NaN
118,8,0,complexity,1,kitchen,kitchen_practice4.tif,229,1.5,0,1.76666666666667,19399.764402542,19402.148459792,6,NaN,19402.154248834,19402.172696792,19403.932774167,NaN,NaN
118,9,0,complexity,1,kitchen,kitchen_practice1.tif,226,1.5,0,0.816666666666667,19403.953685209,19406.636662125,6,NaN,19406.661408209,19406.685246209,19407.49525375,NaN,NaN
118,10,0,complexity,1,kitchen,kitchen_practice3.tif,228,1.5,0,0.9,19407.5001955,19410.255437,4,NaN,19410.285813834,19410.30924675,19411.202588167,NaN,NaN
118,1,1,complexity,0,kitchen,sun_avszsnwsbuqfgzbn.tif,215,1.5,0,1.15,19415.352444084,19418.30413675,5,NaN,19418.332443875,19418.355006667,19419.498402084,NaN,NaN
118,2,1,complexity,0,kitchen,sun_ahpczsiumwwocjkv.tif,202,1.5,0,1.33333333333333,19419.508598584,19422.131880584,3,NaN,19422.137835334,19422.156209209,19423.482968459,NaN,NaN
118,3,1,complexity,0,kitchen,sun_aeqdocilnnpuvuhx.tif,193,1.5,0,1.75,19423.496817667,19426.251937667,4,NaN,19426.257705042,19426.276018792,19428.01942025,NaN,NaN
118,4,1,complexity,0,kitchen,sun_ahywdevtimnqcsln.tif,204,1.5,0,1.2,19428.037281917,19430.754016167,6,NaN,19430.783826292,19430.807301125,19432.000678959,NaN,NaN
118,5,1,complexity,0,kitchen,sun_aqeaevwwwjoqhzvl.tif,211,1.5,0,1.46666666666667,19432.01145975,19434.908368,7,NaN,19434.914153625,19434.93244725,19436.392521209,NaN,NaN
118,6,1,complexity,0,kitchen,sun_aehawpgmrlhlvcow.tif,191,1.5,0,1.01666666666667,19436.415063959,19439.859399917,3,NaN,19439.865720334,19439.884098709,19440.894157709,NaN,NaN
118,7,1,complexity,0,kitchen,sun_agorklincwxrdtga.tif,197,1.5,0,1.18333333333333,19440.90333025,19443.286552334,4,NaN,19443.292665709,19443.311071584,19444.487805334,NaN,NaN
118,8,1,complexity,0,kitchen,sun_agzzivivdpnawacl.tif,199,1.5,0,1.03333333333333,19444.501314292,19447.483388584,3,NaN,19447.4897255,19447.508052709,19448.534796334,NaN,NaN
118,9,1,complexity,0,kitchen,sun_acfmftudsenhrfhy.tif,184,1.5,0,1.25,19448.544236375,19451.276402167,5,NaN,19451.282149084,19451.300517459,19452.543942292,NaN,NaN
118,10,1,complexity,0,kitchen,sun_aarfiyshqohlwkmo.tif,177,1.5,0,0.733333333333333,19452.562593459,19455.075649459,2,NaN,19455.081723292,19455.100073042,19455.826747,NaN,NaN
118,11,1,complexity,0,kitchen,labelme_rykdqxenmhulbdn.tif,173,1.5,0,1.01666666666667,19455.832236125,19458.563204792,2,NaN,19458.5938115,19458.616782334,19459.626846167,NaN,NaN
118,12,1,complexity,0,kitchen,sun_aexklacwqwezaorf.tif,194,1.5,0,1.53333333333333,19459.635881084,19462.6115775,4,NaN,19462.617626292,19462.636011542,19464.162750375,NaN,NaN
118,13,1,complexity,0,kitchen,sun_aunzlwrbjumxhwdj.tif,213,1.5,0,1.33333333333333,19464.182031334,19466.5801495,3,NaN,19466.586378334,19466.604747375,19467.93150075,NaN,NaN
118,14,1,complexity,0,kitchen,sun_ahljzhgcdpomplvg.tif,201,1.5,0,1.53333333333333,19467.947339917,19470.651973167,4,NaN,19470.657709667,19470.676212375,19472.202950959,NaN,NaN
118,15,1,complexity,0,kitchen,labelme_kxvouciolcpqplr.tif,172,1.5,0,1.01666666666667,19472.222442834,19474.547805417,2,NaN,19474.553564584,19474.571954125,19475.582043959,NaN,NaN
118,16,1,complexity,0,kitchen,sun_awcpdzzznmweyyhv.tif,216,1.5,0,1.23333333333333,19475.591431834,19478.283569042,3,NaN,19478.289493667,19478.307887875,19479.534638584,NaN,NaN
118,17,1,complexity,0,kitchen,sun_aaxxjlsuzvqlgylf.tif,178,1.5,0,1.18333333333333,19479.550448375,19481.892439417,6,NaN,19481.8981025,19481.916455917,19483.093176875,NaN,NaN
118,18,1,complexity,0,kitchen,sun_aamedkxepzlwuxes.tif,175,1.5,0,0.783333333333333,19483.1027005,19485.836446709,6,NaN,19485.842040167,19485.860390792,19486.637066167,NaN,NaN
118,19,1,complexity,0,kitchen,sun_ajcbwwvdlsvjyzje.tif,206,1.5,0,1.73333333333333,19486.641368875,19489.604703792,7,NaN,19489.632724834,19489.656085625,19491.38284675,NaN,NaN
118,20,1,complexity,0,kitchen,sun_azmutvzbxypaceni.tif,220,1.5,0,1.21666666666667,19491.40265575,19493.848100959,2,NaN,19493.877281,19493.900765542,19495.110857709,NaN,NaN
118,21,1,complexity,0,kitchen,sun_acxkpeoqbwcxfvip.tif,187,1.5,0,1.26666666666667,19495.127979792,19499.227728125,5,NaN,19499.233501625,19499.251922042,19500.511980792,NaN,NaN
118,22,1,complexity,0,kitchen,sun_aggjlwcdjsjcaemh.tif,196,1.5,0,0.783333333333333,19500.526934584,19503.067727084,6,NaN,19503.0737675,19503.092189584,19503.868863292,NaN,NaN
118,23,1,complexity,0,kitchen,sun_aadbddgrdsjugojn.tif,174,1.5,0,1.48333333333333,19503.873286,19507.16408375,5,NaN,19507.16988775,19507.188312917,19508.665077334,NaN,NaN
118,24,1,complexity,0,kitchen,sun_acwjdupvyjsugpay.tif,186,1.5,0,1.36666666666667,19508.68650025,19511.107811167,1,NaN,19511.113587709,19511.131773875,19512.491869125,NaN,NaN
118,25,1,complexity,0,kitchen,sun_auticobqsbwgoppi.tif,214,1.5,0,0.983333333333333,19512.510100959,19514.779560667,2,NaN,19514.785525334,19514.80395175,19515.780628084,NaN,NaN
118,1,2,complexity,0,kitchen,sun_aixorpehvfykdynp.tif,205,1.5,0,1.26666666666667,19523.199820417,19527.139355375,3,NaN,19527.145308417,19527.163862667,19528.423956084,NaN,NaN
118,2,2,complexity,0,kitchen,sun_aypmqwcualkenuoe.tif,219,1.5,0,1.11666666666667,19528.443942042,19530.908047959,5,NaN,19530.91402025,19530.932264417,19532.042340459,NaN,NaN
118,3,2,complexity,0,kitchen,sun_aymvwlarqodbwuoc.tif,218,1.5,0,1.43333333333333,19532.053196459,19535.979393584,5,NaN,19535.985478042,19536.003687875,19537.430452917,NaN,NaN
118,4,2,complexity,0,kitchen,sun_amjjdeyrggfqgmom.tif,210,1.5,0,0.8,19537.452371417,19540.251350875,6,NaN,19540.257385334,19540.275890042,19541.069230417,NaN,NaN
118,5,2,complexity,0,kitchen,sun_akcjzhbbjlbogpdi.tif,209,1.5,0,0.733333333333333,19541.0736355,19544.371527042,2,NaN,19544.377922667,19544.396343625,19545.123020375,NaN,NaN
118,6,2,complexity,0,kitchen,sun_abdxkyyxwfskuaqb.tif,180,1.5,0,1.03333333333333,19545.127562125,19548.627442584,6,NaN,19548.633308334,19548.651590375,19549.678342834,NaN,NaN
118,7,2,complexity,0,kitchen,sun_acgtpgfybqjmzeyw.tif,185,1.5,0,1.56666666666667,19549.688379667,19552.723948834,5,NaN,19552.729748125,19552.747993834,19554.308093584,NaN,NaN
118,8,2,complexity,0,kitchen,sun_ahdycvpopffkzzsu.tif,200,1.5,0,0.866666666666667,19554.325810917,19557.520891292,3,NaN,19557.551109667,19557.574836792,19558.434843917,NaN,NaN
118,9,2,complexity,0,kitchen,sun_ajkqhtgcbgpcwrwn.tif,207,1.5,0,0.716666666666667,19558.4396335,19561.052252292,5,NaN,19561.082836917,19561.106243167,19561.816249542,NaN,NaN
118,10,2,complexity,0,kitchen,sun_agubuxuukhzyzpdp.tif,198,1.5,0,1.33333333333333,19561.82103,19564.423208292,3,NaN,19564.44963925,19564.473359292,19565.8001045,NaN,NaN
118,11,2,complexity,0,kitchen,sun_aegoxogugdkwpmpj.tif,190,1.5,0,1.01666666666667,19565.817705917,19568.333716625,7,NaN,19568.352683,19568.371085167,19569.381160917,NaN,NaN
118,12,2,complexity,0,kitchen,sun_aenotlpyftoioydp.tif,192,1.5,0,0.733333333333333,19569.38959475,19572.331518167,5,NaN,19572.337419834,19572.355760292,19573.082437375,NaN,NaN
118,13,2,complexity,0,kitchen,sun_auaiucuqpdausiva.tif,212,1.5,0,1.38333333333333,19573.08659925,19576.1636895,7,NaN,19576.17273225,19576.191767,19577.568506167,NaN,NaN
118,14,2,complexity,0,kitchen,sun_aapllqyqlykszopd.tif,176,1.5,0,1.06666666666667,19577.58621625,19580.147407542,6,NaN,19580.153165209,19580.171569459,19581.231647125,NaN,NaN
118,15,2,complexity,0,kitchen,sun_adgqasybjyktddhj.tif,188,1.5,0,0.85,19581.240992209,19583.69637275,2,NaN,19583.712808042,19583.731161,19584.574503625,NaN,NaN
118,16,2,complexity,0,kitchen,labelme_brsyyvweiuaazfr.tif,171,1.5,0,0.9,19584.579212917,19587.382841584,7,NaN,19587.409753959,19587.433342792,19588.326684875,NaN,NaN
118,17,2,complexity,0,kitchen,sun_admlmbcdswaszruo.tif,189,1.5,0,1.55,19588.331274042,19591.048285209,4,NaN,19591.096047209,19591.119095917,19592.662489,NaN,NaN
118,18,2,complexity,0,kitchen,sun_abrcnpqqhmjwekyf.tif,183,1.5,0,0.7,19592.6801655,19595.371978042,3,NaN,19595.377732792,19595.396154834,19596.089497334,NaN,NaN
118,19,2,complexity,0,kitchen,sun_abdenxonkemggwsq.tif,179,1.5,0,0.716666666666667,19596.096038,19599.330886334,5,NaN,19599.33703575,19599.355342209,19600.065350417,NaN,NaN
118,20,2,complexity,0,kitchen,sun_akchetnepxlcxhsu.tif,208,1.5,0,0.85,19600.069786834,19602.426419667,4,NaN,19602.456123417,19602.479771917,19603.323112459,NaN,NaN
118,21,2,complexity,0,kitchen,sun_axyyrmzcupyhlivc.tif,217,1.5,0,1.35,19603.327883959,19605.966547709,4,NaN,19605.995585125,19606.018588292,19607.362003667,NaN,NaN
118,22,2,complexity,0,kitchen,sun_abftihopvusyfakt.tif,181,1.5,0,1.96666666666667,19607.376992875,19609.691840375,6,NaN,19609.697539,19609.715695,19611.675779875,NaN,NaN
118,23,2,complexity,0,kitchen,sun_afuyedyxivkhecmu.tif,195,1.5,0,0.933333333333333,19611.692662625,19616.379115167,7,NaN,19616.385049875,19616.403500459,19617.330177834,NaN,NaN
118,24,2,complexity,0,kitchen,sun_ahspylgoovwmwvgk.tif,203,1.5,0,1.33333333333333,19617.33445275,19620.49083125,7,NaN,19620.497119292,19620.515483667,19621.842240209,NaN,NaN
118,25,2,complexity,0,kitchen,sun_abpwyqmlzafvklqo.tif,182,1.5,0,1.16666666666667,19621.858752875,19624.44356575,3,NaN,19624.449561625,19624.467929125,19625.628003584,NaN,NaN
