sub_num,trial,block,task,is_practice,category,image,texture,duration,mask_dur,jitter,stim_time,time_of_resp,trial_response,mask_time,fix_time,jit_onset,trial_end,trial_accuracy,RT
109,1,0,aesthetic,1,bathroom,bathroom_practice1.tif,221,1.5,0,1.6,7131.252216583,7135.215646917,3,NaN,7135.221622208,7135.240098375,7136.833489083,NaN,NaN
109,2,0,aesthetic,1,bathroom,bathroom_practice2.tif,222,1.5,0,1.26666666666667,7136.850854125,7139.687394667,1,NaN,7139.693232,7139.711549667,7140.971607208,NaN,NaN
109,3,0,aesthetic,1,bathroom,bathroom_practice3.tif,223,1.5,0,1.15,7140.990787417,7143.943952042,2,NaN,7143.949749917,7143.968206917,7145.111594167,NaN,NaN
109,4,0,aesthetic,1,bathroom,bathroom_practice4.tif,224,1.5,0,1.75,7145.121528792,7148.183433917,1,NaN,7148.189161417,7148.207616875,7149.950982167,NaN,NaN
109,5,0,aesthetic,1,bathroom,bathroom_practice5.tif,225,1.5,0,0.85,7149.969245625,7152.978709792,4,NaN,7153.009387042,7153.03175975,7153.875099042,NaN,NaN
109,1,1,aesthetic,0,bathroom,sun_acgyywnybuveqsro.tif,128,1.5,0,0.933333333333333,7158.819206458,7161.9991285,3,NaN,7162.006576333,7162.025029542,7162.951699875,NaN,NaN
109,2,1,aesthetic,0,bathroom,sun_ahcvzmoyaycdoftf.tif,137,1.5,0,1.18333333333333,7162.956229625,7166.175889667,2,NaN,7166.181891208,7166.200369667,7167.377091458,NaN,NaN
109,3,1,aesthetic,0,bathroom,sun_ahqjwnzgolcaoidx.tif,139,1.5,0,1.56666666666667,7167.387818875,7171.191297083,3,NaN,7171.197847542,7171.216470125,7172.7765185,NaN,NaN
109,4,1,aesthetic,0,bathroom,sun_ambriybtogmepttm.tif,146,1.5,0,1.38333333333333,7172.796476542,7178.334986958,1,NaN,7178.341148417,7178.359759333,7179.736480875,NaN,NaN
109,5,1,aesthetic,0,bathroom,sun_apkruvsevgegsdwp.tif,154,1.5,0,1.23333333333333,7179.751334375,7182.94348025,1,NaN,7182.949325625,7182.967733792,7184.194438292,NaN,NaN
109,6,1,aesthetic,0,bathroom,sun_apkxzenqapsujocq.tif,155,1.5,0,1.83333333333333,7184.214005417,7186.975664458,4,NaN,7186.981397167,7186.999760875,7188.826475208,NaN,NaN
109,7,1,aesthetic,0,bathroom,sun_agyqfjcfkdcydepw.tif,135,1.5,0,1.1,7188.847634208,7192.567774042,4,NaN,7192.573673583,7192.59219375,7193.685577917,NaN,NaN
109,8,1,aesthetic,0,bathroom,sun_anhioqovhscjqqwb.tif,148,1.5,0,1.71666666666667,7193.694581042,7198.071296333,4,NaN,7198.077136125,7198.095426708,7199.805480583,NaN,NaN
109,9,1,aesthetic,0,bathroom,sun_alotolagknyrgtsk.tif,145,1.5,0,1.01666666666667,7199.824866375,7202.606560708,2,NaN,7202.629441375,7202.650694,7203.66072975,NaN,NaN
109,10,1,aesthetic,0,bathroom,sun_auzqhkafidnkrwmo.tif,164,1.5,0,1.36666666666667,7203.670117542,7207.399196917,5,NaN,7207.405139292,7207.423512125,7208.783549583,NaN,NaN
109,11,1,aesthetic,0,bathroom,sun_agguqiubmwhqqunb.tif,132,1.5,0,0.75,7208.80235825,7211.742714708,2,NaN,7211.749091375,7211.767335667,7212.510673417,NaN,NaN
109,12,1,aesthetic,0,bathroom,sun_acduarbnmmoglmiv.tif,126,1.5,0,1.31666666666667,7212.515760833,7215.783332958,3,NaN,7215.788974833,7215.807360417,7217.117394708,NaN,NaN
109,13,1,aesthetic,0,bathroom,sun_aclfzgynxzxlbepz.tif,129,1.5,0,1.33333333333333,7217.135316875,7220.447113583,2,NaN,7220.453027625,7220.47135825,7221.798076417,NaN,NaN
109,14,1,aesthetic,0,bathroom,sun_axxbkopsgyouuebh.tif,168,1.5,0,1.41666666666667,7221.8162085,7224.870687375,1,NaN,7224.877039,7224.895376708,7226.305416083,NaN,NaN
109,15,1,aesthetic,0,bathroom,sun_avhrdrntsqrjzccq.tif,165,1.5,0,1.93333333333333,7226.325038542,7229.391490333,5,NaN,7229.397378958,7229.415646958,7231.342360958,NaN,NaN
109,16,1,aesthetic,0,bathroom,sun_ahijqszoswveeyji.tif,138,1.5,0,1.68333333333333,7231.36394775,7234.475310083,5,NaN,7234.504708833,7234.528253458,7236.204962542,NaN,NaN
109,17,1,aesthetic,0,bathroom,sun_atstyziqcmkahyxk.tif,161,1.5,0,0.783333333333333,7236.223730667,7238.733153292,1,NaN,7238.760865958,7238.784821667,7239.561536958,NaN,NaN
109,18,1,aesthetic,0,bathroom,sun_asfwthctfqerjvxr.tif,159,1.5,0,1.93333333333333,7239.57805925,7243.207247875,7,NaN,7243.213144375,7243.231506917,7245.158205,NaN,NaN
109,19,1,aesthetic,0,bathroom,sun_aofnryafpsjimzsb.tif,150,1.5,0,1.18333333333333,7245.17071875,7248.2023,6,NaN,7248.23304975,7248.2562235,7249.432941167,NaN,NaN
109,20,1,aesthetic,0,bathroom,sun_afcoljnjfoxjtgja.tif,130,1.5,0,1.61666666666667,7249.445074625,7252.719021333,3,NaN,7252.724877458,7252.743161542,7254.353215958,NaN,NaN
109,21,1,aesthetic,0,bathroom,sun_akiytfaagpdsphgz.tif,141,1.5,0,1.16666666666667,7254.371227083,7257.554107083,6,NaN,7257.584277458,7257.607603292,7258.767639875,NaN,NaN
109,22,1,aesthetic,0,bathroom,sun_awnqiikzaispgmwo.tif,166,1.5,0,1.85,7258.778489583,7262.070597,2,NaN,7262.076754833,7262.095015583,7263.938408708,NaN,NaN
109,23,1,aesthetic,0,bathroom,sun_apjevzvycyhuqghb.tif,153,1.5,0,1.68333333333333,7263.953241458,7267.774865375,5,NaN,7267.781055375,7267.799492333,7269.476211292,NaN,NaN
109,24,1,aesthetic,0,bathroom,sun_apynckhmoftszqoq.tif,157,1.5,0,1.98333333333333,7269.49574875,7272.695505417,3,NaN,7272.722717708,7272.745869667,7274.72258525,NaN,NaN
109,25,1,aesthetic,0,bathroom,sun_aoybiabnpadelefl.tif,151,1.5,0,1.28333333333333,7274.741314375,7279.534955625,6,NaN,7279.540860583,7279.559673833,7280.836383292,NaN,NaN
109,1,2,aesthetic,0,bathroom,sun_apmqjbnwghzuhhzh.tif,156,1.5,0,0.9,7285.587046333,7288.663026875,2,NaN,7288.68402325,7288.70421125,7289.597550833,NaN,NaN
109,2,2,aesthetic,0,bathroom,sun_aapitsgbtktqubfy.tif,122,1.5,0,1.95,7289.602338792,7292.418637458,4,NaN,7292.448061333,7292.471077875,7294.414444167,NaN,NaN
109,3,2,aesthetic,0,bathroom,sun_axyrejkiiaqiurjk.tif,169,1.5,0,1,7294.432138583,7298.13547375,6,NaN,7298.141284583,7298.159558375,7299.152896833,NaN,NaN
109,4,2,aesthetic,0,bathroom,sun_ahaulkltgpkeeemi.tif,136,1.5,0,0.733333333333333,7299.157602,7303.814851625,5,NaN,7303.820737042,7303.839067125,7304.565738667,NaN,NaN
109,5,2,aesthetic,0,bathroom,sun_amzlamotzwfkwjco.tif,147,1.5,0,1.2,7304.570712583,7308.046346167,3,NaN,7308.052759333,7308.07135425,7309.264719125,NaN,NaN
109,6,2,aesthetic,0,bathroom,sun_aunuadmjocsddsrl.tif,162,1.5,0,1.21666666666667,7309.278689208,7311.951108458,1,NaN,7311.956896167,7311.975210208,7313.18526625,NaN,NaN
109,7,2,aesthetic,0,bathroom,sun_azqyogdvyhahyram.tif,170,1.5,0,0.933333333333333,7313.20367375,7316.31927725,1,NaN,7316.325014375,7316.343164375,7317.269834958,NaN,NaN
109,8,2,aesthetic,0,bathroom,sun_aqrpegblszgcoujh.tif,158,1.5,0,0.916666666666667,7317.274459625,7320.503090583,5,NaN,7320.509848042,7320.528100708,7321.438105875,NaN,NaN
109,9,2,aesthetic,0,bathroom,sun_aspsyogrekjtfozg.tif,160,1.5,0,1.1,7321.443511583,7324.418814833,6,NaN,7324.448893708,7324.472133917,7325.565519583,NaN,NaN
109,10,2,aesthetic,0,bathroom,sun_axldvoqbuvuggfmq.tif,167,1.5,0,1.16666666666667,7325.578019708,7328.798625583,3,NaN,7328.804709917,7328.822983833,7329.983038333,NaN,NaN
109,11,2,aesthetic,0,bathroom,sun_abjtwfukuwddzted.tif,125,1.5,0,0.783333333333333,7329.994756917,7332.926907542,1,NaN,7332.932777292,7332.95128575,7333.727957042,NaN,NaN
109,12,2,aesthetic,0,bathroom,sun_abapwbhyhkfixyex.tif,124,1.5,0,1.95,7333.7324265,7336.911330042,6,NaN,7336.918840667,7336.937195833,7338.880567625,NaN,NaN
109,13,2,aesthetic,0,bathroom,sun_anryaplzeujmzfkd.tif,149,1.5,0,1.05,7338.894523833,7342.07820025,4,NaN,7342.10854325,7342.129069292,7343.172443917,NaN,NaN
109,14,2,aesthetic,0,bathroom,sun_ausgutylgojavyoq.tif,163,1.5,0,1.03333333333333,7343.192666625,7347.183160417,2,NaN,7347.189331083,7347.208071208,7348.234772042,NaN,NaN
109,15,2,aesthetic,0,bathroom,sun_aggnnqpdorgxpvce.tif,131,1.5,0,1.45,7348.243701,7352.07048775,7,NaN,7352.076668583,7352.095061083,7353.538428042,NaN,NaN
109,16,2,aesthetic,0,bathroom,sun_aljolscmmzydegqp.tif,143,1.5,0,0.966666666666667,7353.558952458,7357.638697292,5,NaN,7357.644604542,7357.663075208,7358.623081125,NaN,NaN
109,17,2,aesthetic,0,bathroom,sun_aghyqhbptboemmoq.tif,133,1.5,0,0.966666666666667,7358.627751917,7362.134776917,1,NaN,7362.140514625,7362.15895175,7363.118956208,NaN,NaN
109,18,2,aesthetic,0,bathroom,sun_alkosphxlxwjwgjd.tif,144,1.5,0,1.2,7363.123521708,7366.934084375,5,NaN,7366.940685583,7366.959648125,7368.1530265,NaN,NaN
109,19,2,aesthetic,0,bathroom,sun_apeeialkgkuxddgh.tif,152,1.5,0,0.933333333333333,7368.175406708,7371.934426292,4,NaN,7371.940246583,7371.959355875,7372.886028167,NaN,NaN
109,20,2,aesthetic,0,bathroom,sun_aleqenyvunhactkl.tif,142,1.5,0,1.31666666666667,7372.890318917,7376.119040667,4,NaN,7376.124881792,7376.143157583,7377.453206667,NaN,NaN
109,21,2,aesthetic,0,bathroom,sun_ajlawzvmubibwbpy.tif,140,1.5,0,1.18333333333333,7377.470413792,7380.398480125,7,NaN,7380.404303542,7380.42275925,7381.599471,NaN,NaN
109,22,2,aesthetic,0,bathroom,labelme_sfxiulhjbhlyiyt.tif,121,1.5,0,1.71666666666667,7381.611152667,7384.374412,4,NaN,7384.38035525,7384.398655583,7386.108699708,NaN,NaN
109,23,2,aesthetic,0,bathroom,sun_aavhrsfjbserjtht.tif,123,1.5,0,1.53333333333333,7386.123937417,7389.077444375,3,NaN,7389.107670042,7389.130897792,7390.657602542,NaN,NaN
109,24,2,aesthetic,0,bathroom,sun_acegryoqftbzowsg.tif,127,1.5,0,0.933333333333333,7390.667428208,7393.942782833,2,NaN,7393.948627667,7393.967116042,7394.893786292,NaN,NaN
109,25,2,aesthetic,0,bathroom,sun_agrwbmhcpmfuwmsg.tif,134,1.5,0,0.916666666666667,7394.8984885,7398.461886125,2,NaN,7398.468198542,7398.486579125,7399.396582583,NaN,NaN
