sub_num,trial,block,task,is_practice,category,image,texture,duration,mask_dur,jitter,stim_time,time_of_resp,trial_response,mask_time,fix_time,jit_onset,trial_end,trial_accuracy,RT
106,1,0,aesthetic,1,bathroom,bathroom_practice1.tif,221,1.5,0,1.6,7764.891732125,7770.193135166,2,NaN,7770.199467375,7770.217838666,7771.811253291,NaN,NaN
106,2,0,aesthetic,1,bathroom,bathroom_practice2.tif,222,1.5,0,1.26666666666667,7771.830305083,7775.913927041,4,NaN,7775.920677375,7775.939014041,7777.199077708,NaN,NaN
106,3,0,aesthetic,1,bathroom,bathroom_practice3.tif,223,1.5,0,1.15,7777.21778425,7780.72988625,4,NaN,7780.73532,7780.753847833,7781.89726125,NaN,NaN
106,4,0,aesthetic,1,bathroom,bathroom_practice4.tif,224,1.5,0,1.75,7781.907182916,7787.393142875,3,NaN,7787.399125291,7787.417572166,7789.160975625,NaN,NaN
106,5,0,aesthetic,1,bathroom,bathroom_practice5.tif,225,1.5,0,0.85,7789.17370575,7792.587130333,4,NaN,7792.611079583,7792.631986125,7793.475329833,NaN,NaN
106,1,1,aesthetic,0,bathroom,sun_acgyywnybuveqsro.tif,128,1.5,0,0.933333333333333,7799.271257083,7802.681182583,6,NaN,7802.687733125,7802.706635875,7803.633366291,NaN,NaN
106,2,1,aesthetic,0,bathroom,sun_ahcvzmoyaycdoftf.tif,137,1.5,0,1.18333333333333,7803.638382666,7806.442252708,4,NaN,7806.473247458,7806.497675416,7807.674610333,NaN,NaN
106,3,1,aesthetic,0,bathroom,sun_ahqjwnzgolcaoidx.tif,139,1.5,0,1.56666666666667,7807.687011708,7810.961337416,3,NaN,7810.966979583,7810.985454208,7812.545546458,NaN,NaN
106,4,1,aesthetic,0,bathroom,sun_ambriybtogmepttm.tif,146,1.5,0,1.38333333333333,7812.565343916,7816.3208,5,NaN,7816.326772875,7816.345238166,7817.72198525,NaN,NaN
106,5,1,aesthetic,0,bathroom,sun_apkruvsevgegsdwp.tif,154,1.5,0,1.23333333333333,7817.736181666,7820.977094083,3,NaN,7820.983071416,7821.001414958,7822.228140958,NaN,NaN
106,6,1,aesthetic,0,bathroom,sun_apkxzenqapsujocq.tif,155,1.5,0,1.83333333333333,7822.242533583,7825.409647458,4,NaN,7825.415319041,7825.433784916,7827.26053225,NaN,NaN
106,7,1,aesthetic,0,bathroom,sun_agyqfjcfkdcydepw.tif,135,1.5,0,1.1,7827.280935166,7830.736902083,5,NaN,7830.743282625,7830.761666541,7831.855075458,NaN,NaN
106,8,1,aesthetic,0,bathroom,sun_anhioqovhscjqqwb.tif,148,1.5,0,1.71666666666667,7831.863511958,7834.577651291,6,NaN,7834.583110958,7834.6013995,7836.311465291,NaN,NaN
106,9,1,aesthetic,0,bathroom,sun_alotolagknyrgtsk.tif,145,1.5,0,1.01666666666667,7836.330966,7839.265175041,6,NaN,7839.2944895,7839.318164083,7840.3282555,NaN,NaN
106,10,1,aesthetic,0,bathroom,sun_auzqhkafidnkrwmo.tif,164,1.5,0,1.36666666666667,7840.336407875,7843.233030833,5,NaN,7843.238669583,7843.256900125,7844.616993,NaN,NaN
106,11,1,aesthetic,0,bathroom,sun_agguqiubmwhqqunb.tif,132,1.5,0,0.75,7844.634993666,7847.361622583,4,NaN,7847.367089791,7847.385634333,7848.128979291,NaN,NaN
106,12,1,aesthetic,0,bathroom,sun_acduarbnmmoglmiv.tif,126,1.5,0,1.31666666666667,7848.133269708,7850.528686833,3,NaN,7850.557581541,7850.581006541,7851.891072666,NaN,NaN
106,13,1,aesthetic,0,bathroom,sun_aclfzgynxzxlbepz.tif,129,1.5,0,1.33333333333333,7851.909361875,7854.961086291,3,NaN,7854.96691125,7854.985292875,7856.312046416,NaN,NaN
106,14,1,aesthetic,0,bathroom,sun_axxbkopsgyouuebh.tif,168,1.5,0,1.41666666666667,7856.331229333,7859.320635125,3,NaN,7859.326571125,7859.344997,7860.755086875,NaN,NaN
106,15,1,aesthetic,0,bathroom,sun_avhrdrntsqrjzccq.tif,165,1.5,0,1.93333333333333,7860.774802041,7863.712598041,7,NaN,7863.71857075,7863.736944833,7865.663694625,NaN,NaN
106,16,1,aesthetic,0,bathroom,sun_ahijqszoswveeyji.tif,138,1.5,0,1.68333333333333,7865.682536583,7868.584241333,6,NaN,7868.613601416,7868.637662291,7870.314406416,NaN,NaN
106,17,1,aesthetic,0,bathroom,sun_atstyziqcmkahyxk.tif,161,1.5,0,0.783333333333333,7870.332637458,7873.65803625,3,NaN,7873.689286875,7873.713140958,7874.489818375,NaN,NaN
106,18,1,aesthetic,0,bathroom,sun_asfwthctfqerjvxr.tif,159,1.5,0,1.93333333333333,7874.494920958,7877.673628958,5,NaN,7877.681588625,7877.700316125,7879.627040083,NaN,NaN
106,19,1,aesthetic,0,bathroom,sun_aofnryafpsjimzsb.tif,150,1.5,0,1.18333333333333,7879.6452425,7884.297441083,6,NaN,7884.303013708,7884.321268875,7885.498011583,NaN,NaN
106,20,1,aesthetic,0,bathroom,sun_afcoljnjfoxjtgja.tif,130,1.5,0,1.61666666666667,7885.508276333,7888.7927965,5,NaN,7888.798631333,7888.817003083,7890.427090833,NaN,NaN
106,21,1,aesthetic,0,bathroom,sun_akiytfaagpdsphgz.tif,141,1.5,0,1.16666666666667,7890.446037,7893.79723675,6,NaN,7893.827215625,7893.851271291,7895.011350083,NaN,NaN
106,22,1,aesthetic,0,bathroom,sun_awnqiikzaispgmwo.tif,166,1.5,0,1.85,7895.021681583,7897.785471916,3,NaN,7897.791155083,7897.809498625,7899.652908375,NaN,NaN
106,23,1,aesthetic,0,bathroom,sun_apjevzvycyhuqghb.tif,153,1.5,0,1.68333333333333,7899.673327666,7904.377315833,4,NaN,7904.382887791,7904.401183708,7906.077951875,NaN,NaN
106,24,1,aesthetic,0,bathroom,sun_apynckhmoftszqoq.tif,157,1.5,0,1.98333333333333,7906.09727925,7909.170156875,2,NaN,7909.199054875,7909.222772291,7911.199512958,NaN,NaN
106,25,1,aesthetic,0,bathroom,sun_aoybiabnpadelefl.tif,151,1.5,0,1.28333333333333,7911.219608916,7915.033072333,6,NaN,7915.038724083,7915.05713075,7916.333896375,NaN,NaN
106,1,2,aesthetic,0,bathroom,sun_apmqjbnwghzuhhzh.tif,156,1.5,0,0.9,7920.942756833,7924.120928333,2,NaN,7924.126425125,7924.1448565,7925.038199375,NaN,NaN
106,2,2,aesthetic,0,bathroom,sun_aapitsgbtktqubfy.tif,122,1.5,0,1.95,7925.042518958,7927.929469666,4,NaN,7927.958723041,7927.98243875,7929.92585575,NaN,NaN
106,3,2,aesthetic,0,bathroom,sun_axyrejkiiaqiurjk.tif,169,1.5,0,1,7929.944560125,7932.873361708,6,NaN,7932.898775,7932.921005333,7933.9143495,NaN,NaN
106,4,2,aesthetic,0,bathroom,sun_ahaulkltgpkeeemi.tif,136,1.5,0,0.733333333333333,7933.918945333,7936.676507208,2,NaN,7936.706197583,7936.72984375,7937.456518416,NaN,NaN
106,5,2,aesthetic,0,bathroom,sun_amzlamotzwfkwjco.tif,147,1.5,0,1.2,7937.461480458,7941.145108833,6,NaN,7941.150665083,7941.169652625,7942.363069333,NaN,NaN
106,6,2,aesthetic,0,bathroom,sun_aunuadmjocsddsrl.tif,162,1.5,0,1.21666666666667,7942.375281958,7946.6090745,2,NaN,7946.614709666,7946.633075458,7947.843171083,NaN,NaN
106,7,2,aesthetic,0,bathroom,sun_azqyogdvyhahyram.tif,170,1.5,0,0.933333333333333,7947.858566291,7950.848591958,3,NaN,7950.854369916,7950.872585458,7951.799259666,NaN,NaN
106,8,2,aesthetic,0,bathroom,sun_aqrpegblszgcoujh.tif,158,1.5,0,0.916666666666667,7951.804239833,7954.752629125,4,NaN,7954.782884958,7954.80659975,7955.716609416,NaN,NaN
106,9,2,aesthetic,0,bathroom,sun_aspsyogrekjtfozg.tif,160,1.5,0,1.1,7955.721423916,7958.559850583,5,NaN,7958.588995458,7958.6124265,7959.705850333,NaN,NaN
106,10,2,aesthetic,0,bathroom,sun_axldvoqbuvuggfmq.tif,167,1.5,0,1.16666666666667,7959.715828833,7962.424252083,4,NaN,7962.430096541,7962.448401208,7963.608470333,NaN,NaN
106,11,2,aesthetic,0,bathroom,sun_abjtwfukuwddzted.tif,125,1.5,0,0.783333333333333,7963.6182655,7966.616704916,3,NaN,7966.6222895,7966.640589916,7967.417265083,NaN,NaN
106,12,2,aesthetic,0,bathroom,sun_abapwbhyhkfixyex.tif,124,1.5,0,1.95,7967.421994291,7970.462267791,6,NaN,7970.483856916,7970.503833833,7972.44722525,NaN,NaN
106,13,2,aesthetic,0,bathroom,sun_anryaplzeujmzfkd.tif,149,1.5,0,1.05,7972.458831208,7975.519720375,5,NaN,7975.549188875,7975.573293,7976.616716375,NaN,NaN
106,14,2,aesthetic,0,bathroom,sun_ausgutylgojavyoq.tif,163,1.5,0,1.03333333333333,7976.626399291,7980.344614916,3,NaN,7980.350319791,7980.369362375,7981.396097791,NaN,NaN
106,15,2,aesthetic,0,bathroom,sun_aggnnqpdorgxpvce.tif,131,1.5,0,1.45,7981.4060495,7984.737121916,6,NaN,7984.742706291,7984.761027583,7986.204455541,NaN,NaN
106,16,2,aesthetic,0,bathroom,sun_aljolscmmzydegqp.tif,143,1.5,0,0.966666666666667,7986.2251705,7989.392737708,3,NaN,7989.39818225,7989.416497958,7990.376507416,NaN,NaN
106,17,2,aesthetic,0,bathroom,sun_aghyqhbptboemmoq.tif,133,1.5,0,0.966666666666667,7990.381095708,7992.907210833,4,NaN,7992.925546041,7992.947205416,7993.907215125,NaN,NaN
106,18,2,aesthetic,0,bathroom,sun_alkosphxlxwjwgjd.tif,144,1.5,0,1.2,7993.918771708,7997.496249791,3,NaN,7997.502113541,7997.520606625,7998.71403675,NaN,NaN
106,19,2,aesthetic,0,bathroom,sun_apeeialkgkuxddgh.tif,152,1.5,0,0.933333333333333,7998.727036625,8002.328752791,3,NaN,8002.334271875,8002.352684333,8003.279359416,NaN,NaN
106,20,2,aesthetic,0,bathroom,sun_aleqenyvunhactkl.tif,142,1.5,0,1.31666666666667,8003.283701541,8006.705083416,5,NaN,8006.710921875,8006.72929125,8008.039375291,NaN,NaN
106,21,2,aesthetic,0,bathroom,sun_ajlawzvmubibwbpy.tif,140,1.5,0,1.18333333333333,8008.058634416,8011.184343625,6,NaN,8011.190209541,8011.208542166,8012.385267666,NaN,NaN
106,22,2,aesthetic,0,bathroom,labelme_sfxiulhjbhlyiyt.tif,121,1.5,0,1.71666666666667,8012.394534,8015.5044635,2,NaN,8015.5101425,8015.528865541,8017.23894725,NaN,NaN
106,23,2,aesthetic,0,bathroom,sun_aavhrsfjbserjtht.tif,123,1.5,0,1.53333333333333,8017.260555541,8021.040019666,5,NaN,8021.046524791,8021.064890541,8022.591643875,NaN,NaN
106,24,2,aesthetic,0,bathroom,sun_acegryoqftbzowsg.tif,127,1.5,0,0.933333333333333,8022.609985833,8026.233009916,6,NaN,8026.2386955,8026.257148125,8027.183823291,NaN,NaN
106,25,2,aesthetic,0,bathroom,sun_agrwbmhcpmfuwmsg.tif,134,1.5,0,0.916666666666667,8027.188766541,8031.464312625,4,NaN,8031.470076958,8031.488439125,8032.398449916,NaN,NaN
