sub_num,trial,block,task,is_practice,category,image,texture,duration,mask_dur,jitter,stim_time,time_of_resp,trial_response,mask_time,fix_time,jit_onset,trial_end,trial_accuracy,RT
164,1,1,categorization,0,kitchen,SHINEd_sun_ahspylgoovwmwvgk.tif,93,0.0666666666666667,0.0666666666666667,1.23333333333333,86863.3465858,NaN,NaN,NaN,NaN,NaN,NaN,NaN,NaN
164,2,1,categorization,0,kitchen,SHINEd_sun_abftihopvusyfakt.tif,71,0.0666666666666667,0.0666666666666667,0.783333333333333,NaN,NaN,NaN,NaN,NaN,NaN,NaN,NaN,NaN
164,3,1,categorization,0,bathroom,SHINEd_sun_agrwbmhcpmfuwmsg.tif,24,0.0666666666666667,0.0666666666666667,0.75,NaN,NaN,NaN,NaN,NaN,NaN,NaN,NaN,NaN
164,4,1,categorization,0,kitchen,SHINEd_sun_awcpdzzznmweyyhv.tif,106,0.0666666666666667,0.0666666666666667,1.23333333333333,NaN,NaN,NaN,NaN,NaN,NaN,NaN,NaN,NaN
164,5,1,categorization,0,bathroom,SHINEd_sun_aunuadmjocsddsrl.tif,52,0.0666666666666667,0.0666666666666667,1.13333333333333,NaN,NaN,NaN,NaN,NaN,NaN,NaN,NaN,NaN
164,6,1,categorization,0,kitchen,SHINEd_sun_aixorpehvfykdynp.tif,95,0.0666666666666667,0.0666666666666667,0.95,NaN,NaN,NaN,NaN,NaN,NaN,NaN,NaN,NaN
164,7,1,categorization,0,bathroom,SHINEd_sun_acegryoqftbzowsg.tif,17,0.0666666666666667,0.0666666666666667,0.733333333333333,NaN,NaN,NaN,NaN,NaN,NaN,NaN,NaN,NaN
164,8,1,categorization,0,kitchen,SHINEd_sun_auaiucuqpdausiva.tif,102,0.0666666666666667,0.0666666666666667,1.31666666666667,NaN,NaN,NaN,NaN,NaN,NaN,NaN,NaN,NaN
164,9,1,categorization,0,bathroom,SHINEd_sun_ausgutylgojavyoq.tif,53,0.0666666666666667,0.0666666666666667,0.8,NaN,NaN,NaN,NaN,NaN,NaN,NaN,NaN,NaN
164,10,1,categorization,0,kitchen,SHINEd_sun_aarfiyshqohlwkmo.tif,67,0.0666666666666667,0.0666666666666667,0.716666666666667,NaN,NaN,NaN,NaN,NaN,NaN,NaN,NaN,NaN
164,11,1,categorization,0,bathroom,SHINEd_sun_aghyqhbptboemmoq.tif,23,0.0666666666666667,0.0666666666666667,0.916666666666667,NaN,NaN,NaN,NaN,NaN,NaN,NaN,NaN,NaN
164,12,1,categorization,0,kitchen,SHINEd_labelme_kxvouciolcpqplr.tif,62,0.0666666666666667,0.0666666666666667,0.95,NaN,NaN,NaN,NaN,NaN,NaN,NaN,NaN,NaN
164,13,1,categorization,0,bathroom,SHINEd_sun_aofnryafpsjimzsb.tif,40,0.0666666666666667,0.0666666666666667,0.833333333333333,NaN,NaN,NaN,NaN,NaN,NaN,NaN,NaN,NaN
164,14,1,categorization,0,bathroom,SHINEd_sun_aqrpegblszgcoujh.tif,48,0.0666666666666667,0.0666666666666667,0.75,NaN,NaN,NaN,NaN,NaN,NaN,NaN,NaN,NaN
164,15,1,categorization,0,bathroom,SHINEd_sun_afcoljnjfoxjtgja.tif,20,0.0666666666666667,0.0666666666666667,1.53333333333333,NaN,NaN,NaN,NaN,NaN,NaN,NaN,NaN,NaN
164,16,1,categorization,0,kitchen,SHINEd_sun_aqeaevwwwjoqhzvl.tif,101,0.0666666666666667,0.0666666666666667,1.05,NaN,NaN,NaN,NaN,NaN,NaN,NaN,NaN,NaN
164,17,1,categorization,0,bathroom,SHINEd_sun_anryaplzeujmzfkd.tif,39,0.0666666666666667,0.0666666666666667,0.9,NaN,NaN,NaN,NaN,NaN,NaN,NaN,NaN,NaN
164,18,1,categorization,0,bathroom,SHINEd_sun_apjevzvycyhuqghb.tif,43,0.0666666666666667,0.0666666666666667,1.18333333333333,NaN,NaN,NaN,NaN,NaN,NaN,NaN,NaN,NaN
164,19,1,categorization,0,bathroom,SHINEd_sun_amzlamotzwfkwjco.tif,37,0.0666666666666667,0.0666666666666667,0.9,NaN,NaN,NaN,NaN,NaN,NaN,NaN,NaN,NaN
164,20,1,categorization,0,kitchen,SHINEd_sun_agzzivivdpnawacl.tif,89,0.0666666666666667,0.0666666666666667,1.66666666666667,NaN,NaN,NaN,NaN,NaN,NaN,NaN,NaN,NaN
164,21,1,categorization,0,kitchen,SHINEd_sun_aeqdocilnnpuvuhx.tif,83,0.0666666666666667,0.0666666666666667,1.13333333333333,NaN,NaN,NaN,NaN,NaN,NaN,NaN,NaN,NaN
164,22,1,categorization,0,bathroom,SHINEd_sun_apmqjbnwghzuhhzh.tif,46,0.0666666666666667,0.0666666666666667,1.3,NaN,NaN,NaN,NaN,NaN,NaN,NaN,NaN,NaN
164,23,1,categorization,0,bathroom,SHINEd_sun_apynckhmoftszqoq.tif,47,0.0666666666666667,0.0666666666666667,1.93333333333333,NaN,NaN,NaN,NaN,NaN,NaN,NaN,NaN,NaN
164,24,1,categorization,0,kitchen,SHINEd_sun_aunzlwrbjumxhwdj.tif,103,0.0666666666666667,0.0666666666666667,1,NaN,NaN,NaN,NaN,NaN,NaN,NaN,NaN,NaN
164,25,1,categorization,0,kitchen,SHINEd_sun_azmutvzbxypaceni.tif,110,0.0666666666666667,0.0666666666666667,0.883333333333333,NaN,NaN,NaN,NaN,NaN,NaN,NaN,NaN,NaN
164,26,1,categorization,0,kitchen,SHINEd_sun_acfmftudsenhrfhy.tif,74,0.0666666666666667,0.0666666666666667,1.95,NaN,NaN,NaN,NaN,NaN,NaN,NaN,NaN,NaN
164,27,1,categorization,0,kitchen,SHINEd_sun_aenotlpyftoioydp.tif,82,0.0666666666666667,0.0666666666666667,1.25,NaN,NaN,NaN,NaN,NaN,NaN,NaN,NaN,NaN
164,28,1,categorization,0,bathroom,SHINEd_sun_aavhrsfjbserjtht.tif,13,0.0666666666666667,0.0666666666666667,1.95,NaN,NaN,NaN,NaN,NaN,NaN,NaN,NaN,NaN
164,29,1,categorization,0,bathroom,SHINEd_sun_ahqjwnzgolcaoidx.tif,29,0.0666666666666667,0.0666666666666667,1.91666666666667,NaN,NaN,NaN,NaN,NaN,NaN,NaN,NaN,NaN
164,30,1,categorization,0,kitchen,SHINEd_sun_abdenxonkemggwsq.tif,69,0.0666666666666667,0.0666666666666667,1.41666666666667,NaN,NaN,NaN,NaN,NaN,NaN,NaN,NaN,NaN
164,31,1,categorization,0,bathroom,SHINEd_sun_aapitsgbtktqubfy.tif,12,0.0666666666666667,0.0666666666666667,0.716666666666667,NaN,NaN,NaN,NaN,NaN,NaN,NaN,NaN,NaN
164,32,1,categorization,0,kitchen,SHINEd_sun_admlmbcdswaszruo.tif,79,0.0666666666666667,0.0666666666666667,1.28333333333333,NaN,NaN,NaN,NaN,NaN,NaN,NaN,NaN,NaN
164,33,1,categorization,0,bathroom,SHINEd_sun_agguqiubmwhqqunb.tif,22,0.0666666666666667,0.0666666666666667,0.9,NaN,NaN,NaN,NaN,NaN,NaN,NaN,NaN,NaN
164,34,1,categorization,0,kitchen,SHINEd_sun_acxkpeoqbwcxfvip.tif,77,0.0666666666666667,0.0666666666666667,0.8,NaN,NaN,NaN,NaN,NaN,NaN,NaN,NaN,NaN
164,35,1,categorization,0,kitchen,SHINEd_sun_ahywdevtimnqcsln.tif,94,0.0666666666666667,0.0666666666666667,1.01666666666667,NaN,NaN,NaN,NaN,NaN,NaN,NaN,NaN,NaN
164,36,1,categorization,0,bathroom,SHINEd_sun_axldvoqbuvuggfmq.tif,57,0.0666666666666667,0.0666666666666667,0.85,NaN,NaN,NaN,NaN,NaN,NaN,NaN,NaN,NaN
164,37,1,categorization,0,bathroom,SHINEd_labelme_sfxiulhjbhlyiyt.tif,11,0.0666666666666667,0.0666666666666667,1.51666666666667,NaN,NaN,NaN,NaN,NaN,NaN,NaN,NaN,NaN
164,38,1,categorization,0,kitchen,SHINEd_sun_adgqasybjyktddhj.tif,78,0.0666666666666667,0.0666666666666667,1.83333333333333,NaN,NaN,NaN,NaN,NaN,NaN,NaN,NaN,NaN
164,39,1,categorization,0,kitchen,SHINEd_sun_aymvwlarqodbwuoc.tif,108,0.0666666666666667,0.0666666666666667,0.716666666666667,NaN,NaN,NaN,NaN,NaN,NaN,NaN,NaN,NaN
164,40,1,categorization,0,kitchen,SHINEd_sun_ajcbwwvdlsvjyzje.tif,96,0.0666666666666667,0.0666666666666667,0.9,NaN,NaN,NaN,NaN,NaN,NaN,NaN,NaN,NaN
164,41,1,categorization,0,bathroom,SHINEd_sun_auzqhkafidnkrwmo.tif,54,0.0666666666666667,0.0666666666666667,0.916666666666667,NaN,NaN,NaN,NaN,NaN,NaN,NaN,NaN,NaN
164,42,1,categorization,0,kitchen,SHINEd_sun_aexklacwqwezaorf.tif,84,0.0666666666666667,0.0666666666666667,0.816666666666667,NaN,NaN,NaN,NaN,NaN,NaN,NaN,NaN,NaN
164,43,1,categorization,0,bathroom,SHINEd_sun_ambriybtogmepttm.tif,36,0.0666666666666667,0.0666666666666667,1.88333333333333,NaN,NaN,NaN,NaN,NaN,NaN,NaN,NaN,NaN
164,44,1,categorization,0,kitchen,SHINEd_sun_ahljzhgcdpomplvg.tif,91,0.0666666666666667,0.0666666666666667,0.9,NaN,NaN,NaN,NaN,NaN,NaN,NaN,NaN,NaN
164,45,1,categorization,0,bathroom,SHINEd_sun_ahaulkltgpkeeemi.tif,26,0.0666666666666667,0.0666666666666667,1,NaN,NaN,NaN,NaN,NaN,NaN,NaN,NaN,NaN
164,46,1,categorization,0,bathroom,SHINEd_sun_awnqiikzaispgmwo.tif,56,0.0666666666666667,0.0666666666666667,0.733333333333333,NaN,NaN,NaN,NaN,NaN,NaN,NaN,NaN,NaN
164,47,1,categorization,0,kitchen,SHINEd_sun_ahpczsiumwwocjkv.tif,92,0.0666666666666667,0.0666666666666667,0.883333333333333,NaN,NaN,NaN,NaN,NaN,NaN,NaN,NaN,NaN
164,48,1,categorization,0,kitchen,SHINEd_sun_abrcnpqqhmjwekyf.tif,73,0.0666666666666667,0.0666666666666667,1.73333333333333,NaN,NaN,NaN,NaN,NaN,NaN,NaN,NaN,NaN
164,49,1,categorization,0,bathroom,SHINEd_sun_abjtwfukuwddzted.tif,15,0.0666666666666667,0.0666666666666667,1.91666666666667,NaN,NaN,NaN,NaN,NaN,NaN,NaN,NaN,NaN
164,50,1,categorization,0,kitchen,SHINEd_sun_amjjdeyrggfqgmom.tif,100,0.0666666666666667,0.0666666666666667,1.35,NaN,NaN,NaN,NaN,NaN,NaN,NaN,NaN,NaN
