sub_num,trial,block,task,is_practice,category,image,texture,duration,mask_dur,jitter,stim_time,time_of_resp,trial_response,mask_time,fix_time,jit_onset,trial_end,trial_accuracy,RT
114,1,0,categorization,1,bathroom,SHINEd_bathroom_practice2.tif,112,0.0666666666666667,0.0666666666666667,1.21666666666667,27909.40113025,27910.571538583,9,27909.467030333,27909.526957417,27910.596995417,27911.807220292,0,1.17040833300052
114,2,0,categorization,1,kitchen,SHINEd_kitchen_practice5.tif,120,0.0666666666666667,0.0666666666666667,1.36666666666667,27911.855090458,27913.173160042,9,27911.927744375,27911.988570208,27913.219177083,27914.579412458,1,1.31806958399829
114,3,0,categorization,1,kitchen,SHINEd_kitchen_practice1.tif,116,0.0666666666666667,0.0666666666666667,1.85,27914.620575667,27915.829355083,9,27914.695954167,27914.755502,27915.868227875,27917.711805292,1,1.20877941599974
114,4,0,categorization,1,kitchen,SHINEd_kitchen_practice3.tif,118,0.0666666666666667,0.0666666666666667,1.55,27917.736934917,27918.855316708,9,27917.807306292,27917.870839792,27918.880167458,27920.423734708,1,1.11838179099868
114,5,0,categorization,1,bathroom,SHINEd_bathroom_practice5.tif,115,0.0666666666666667,0.0666666666666667,1.48333333333333,27920.458095833,27921.278226958,13,27920.53126125,27920.592143083,27921.322813292,27922.800522708,1,0.820131124997715
114,6,0,categorization,1,kitchen,SHINEd_kitchen_practice2.tif,117,0.0666666666666667,0.0666666666666667,1.15,27922.829588542,27923.65589025,9,27922.898687167,27922.963425875,27923.689126667,27924.832671917,1,0.826301707998937
114,7,0,categorization,1,bathroom,SHINEd_bathroom_practice3.tif,113,0.0666666666666667,0.0666666666666667,0.733333333333333,27924.844083958,27925.730740792,13,27924.911406583,27924.978315333,27925.752335792,27926.479042292,1,0.886656834001769
114,8,0,categorization,1,bathroom,SHINEd_bathroom_practice1.tif,111,0.0666666666666667,0.0666666666666667,1.6,27926.494859875,27927.819623542,13,27926.56151625,27926.628024833,27927.830452292,27929.423840917,1,1.32476366699848
114,9,0,categorization,1,bathroom,SHINEd_bathroom_practice4.tif,114,0.0666666666666667,0.0666666666666667,0.716666666666667,27929.443126208,27930.3569955,13,27929.511658792,27929.57614925,27930.38242275,27931.092428292,1,0.913869291998708
114,10,0,categorization,1,kitchen,SHINEd_kitchen_practice4.tif,119,0.0666666666666667,0.0666666666666667,1.21666666666667,27931.097416167,27931.995034333,9,27931.159128708,27931.220132625,27932.005279958,27933.215324667,1,0.897618166000029
114,1,1,categorization,0,kitchen,SHINEd_sun_aenotlpyftoioydp.tif,82,0.0666666666666667,0.0666666666666667,1.23333333333333,27950.099538,27950.867068417,9,27950.16199525,27950.22230775,27950.874128042,27952.100855167,1,0.767530417000671
114,2,1,categorization,0,bathroom,SHINEd_sun_aunuadmjocsddsrl.tif,52,0.0666666666666667,0.0666666666666667,0.783333333333333,27952.117012292,27953.0556245,9,27952.18356125,27952.250429,27953.07237625,27953.849086667,0,0.93861220799954
114,3,1,categorization,0,bathroom,SHINEd_sun_anhioqovhscjqqwb.tif,38,0.0666666666666667,0.0666666666666667,0.75,27953.865702375,27954.5316695,13,27953.928434083,27953.988442167,27954.540297208,27955.283636458,1,0.665967125001771
114,4,1,categorization,0,bathroom,SHINEd_sun_akiytfaagpdsphgz.tif,31,0.0666666666666667,0.0666666666666667,1.23333333333333,27955.2885915,27956.123487667,13,27955.350290375,27955.411278083,27956.130035958,27957.356742583,1,0.834896166998078
114,5,1,categorization,0,kitchen,SHINEd_sun_adgqasybjyktddhj.tif,78,0.0666666666666667,0.0666666666666667,1.13333333333333,27957.372847583,27958.116452625,9,27957.439737125,27957.505243042,27958.145055167,27959.271769292,1,0.743605042000127
114,6,1,categorization,0,kitchen,SHINEd_sun_ahdycvpopffkzzsu.tif,90,0.0666666666666667,0.0666666666666667,0.95,27959.281477,27960.10118425,9,27959.347043875,27959.414078792,27960.120732917,27961.064114667,1,0.819707250000647
114,7,1,categorization,0,kitchen,SHINEd_sun_auticobqsbwgoppi.tif,104,0.0666666666666667,0.0666666666666667,0.733333333333333,27961.082010583,27961.851758125,13,27961.14913925,27961.214899833,27961.866731083,27962.593402583,0,0.769747542002733
114,8,1,categorization,0,bathroom,SHINEd_sun_agrwbmhcpmfuwmsg.tif,24,0.0666666666666667,0.0666666666666667,1.31666666666667,27962.599128083,27963.531319375,13,27962.660732375,27962.721932542,27963.540442833,27964.850499917,1,0.932191292002244
114,9,1,categorization,0,bathroom,SHINEd_sun_agyqfjcfkdcydepw.tif,25,0.0666666666666667,0.0666666666666667,0.8,27964.865320333,27965.755502875,9,27964.932142083,27964.997661583,27965.770018667,27966.563389917,0,0.89018254199982
114,10,1,categorization,0,kitchen,SHINEd_sun_avszsnwsbuqfgzbn.tif,105,0.0666666666666667,0.0666666666666667,0.716666666666667,27966.582999,27967.379598917,9,27966.645685875,27966.705665625,27967.391159083,27968.101162667,1,0.796599917001004
114,11,1,categorization,0,bathroom,SHINEd_sun_ausgutylgojavyoq.tif,53,0.0666666666666667,0.0666666666666667,0.916666666666667,27968.106035125,27968.811279625,13,27968.167670167,27968.228717125,27968.830757083,27969.740760667,1,0.705244499997207
114,12,1,categorization,0,bathroom,SHINEd_sun_acegryoqftbzowsg.tif,17,0.0666666666666667,0.0666666666666667,0.95,27969.747103292,27970.587563,9,27969.808936042,27969.869989042,27970.605253375,27971.548592208,0,0.840459708000708
114,13,1,categorization,0,kitchen,SHINEd_sun_ahywdevtimnqcsln.tif,94,0.0666666666666667,0.0666666666666667,0.833333333333333,27971.553621,27972.362843583,9,27971.615298042,27971.676368417,27972.37877475,27973.20544675,1,0.809222583000519
114,14,1,categorization,0,kitchen,SHINEd_sun_acwjdupvyjsugpay.tif,76,0.0666666666666667,0.0666666666666667,0.75,27973.21036025,27974.107413375,9,27973.272133625,27973.333119625,27974.118564167,27974.861901125,1,0.897053125001548
114,15,1,categorization,0,bathroom,SHINEd_labelme_sfxiulhjbhlyiyt.tif,11,0.0666666666666667,0.0666666666666667,1.53333333333333,27974.866755375,27975.563467542,13,27974.928459167,27974.989366083,27975.5745755,27977.101279458,1,0.696712167002261
114,16,1,categorization,0,kitchen,SHINEd_sun_acfmftudsenhrfhy.tif,74,0.0666666666666667,0.0666666666666667,1.05,27977.115344333,27978.14980725,9,27977.182250083,27977.247993667,27978.171197667,27979.214581792,1,1.03446291699947
114,17,1,categorization,0,bathroom,SHINEd_sun_ahijqszoswveeyji.tif,28,0.0666666666666667,0.0666666666666667,0.9,27979.226651333,27980.3043635,9,27979.290928667,27979.357728167,27980.331084875,27981.22446025,0,1.07771216699985
114,18,1,categorization,0,bathroom,SHINEd_sun_atstyziqcmkahyxk.tif,51,0.0666666666666667,0.0666666666666667,1.18333333333333,27981.236072875,27982.115472167,13,27981.297999917,27981.358656583,27982.127339417,27983.304048542,1,0.879399292000016
114,19,1,categorization,0,bathroom,SHINEd_sun_afcoljnjfoxjtgja.tif,20,0.0666666666666667,0.0666666666666667,0.9,27983.3134265,27984.313331958,9,27983.3801965,27983.445878083,27984.335109458,27985.228447958,0,0.999905458000285
114,20,1,categorization,0,kitchen,SHINEd_sun_acxkpeoqbwcxfvip.tif,77,0.0666666666666667,0.0666666666666667,1.66666666666667,27985.233426083,27986.123651583,9,27985.295191708,27985.356130292,27986.141321792,27987.801357833,1,0.89022549999936
114,21,1,categorization,0,bathroom,SHINEd_sun_auzqhkafidnkrwmo.tif,54,0.0666666666666667,0.0666666666666667,1.13333333333333,27987.819097042,27988.598816958,9,27987.885726542,27987.952066583,27988.624407,27989.751114625,0,0.779719916001341
114,22,1,categorization,0,kitchen,SHINEd_sun_amjjdeyrggfqgmom.tif,100,0.0666666666666667,0.0666666666666667,1.3,27989.759916625,27990.938771833,9,27989.824795333,27989.892585625,27990.965865625,27992.259257833,1,1.17885520799973
114,23,1,categorization,0,bathroom,SHINEd_sun_ajlawzvmubibwbpy.tif,30,0.0666666666666667,0.0666666666666667,1.93333333333333,27992.276117333,27993.133179875,9,27992.342809958,27992.408957167,27993.148203208,27995.074916208,0,0.857062541999767
114,24,1,categorization,0,kitchen,SHINEd_sun_ahpczsiumwwocjkv.tif,92,0.0666666666666667,0.0666666666666667,1,27995.094313958,27995.994904167,9,27995.16053125,27995.226655167,27996.016516583,27997.009855292,1,0.900590208999347
114,25,1,categorization,0,bathroom,SHINEd_sun_azqyogdvyhahyram.tif,60,0.0666666666666667,0.0666666666666667,0.883333333333333,27997.014807667,27997.931269417,9,27997.076463792,27997.1374705,27997.939244667,27998.815917,0,0.916461749999144
114,26,1,categorization,0,kitchen,SHINEd_sun_auaiucuqpdausiva.tif,102,0.0666666666666667,0.0666666666666667,1.95,27998.82082675,27999.84339825,9,27998.882455917,27998.943712167,27999.862342042,28001.8057115,1,1.02257149999787
114,27,1,categorization,0,bathroom,SHINEd_sun_axldvoqbuvuggfmq.tif,57,0.0666666666666667,0.0666666666666667,1.25,28001.823338458,28002.592762417,9,28001.890005625,28001.955777583,28002.612065792,28003.855454292,0,0.769423958998232
114,28,1,categorization,0,kitchen,SHINEd_sun_ajkqhtgcbgpcwrwn.tif,97,0.0666666666666667,0.0666666666666667,1.95,28003.875038917,28004.811084417,9,28003.941999625,28004.007608583,28004.830395208,28006.773782333,1,0.936045499998727
114,29,1,categorization,0,bathroom,SHINEd_sun_apkruvsevgegsdwp.tif,44,0.0666666666666667,0.0666666666666667,1.91666666666667,28006.791441917,28007.728944625,9,28006.857848292,28006.924459042,28007.746126667,28009.656185958,0,0.937502707998647
114,30,1,categorization,0,kitchen,SHINEd_labelme_kxvouciolcpqplr.tif,62,0.0666666666666667,0.0666666666666667,1.41666666666667,28009.67330275,28010.502478833,9,28009.739926375,28009.806608458,28010.529319625,28011.939355792,1,0.829176082999766
114,31,1,categorization,0,kitchen,SHINEd_sun_aixorpehvfykdynp.tif,95,0.0666666666666667,0.0666666666666667,0.716666666666667,28011.958099667,28012.813349083,9,28012.024842167,28012.090836083,28012.829716708,28013.539772667,1,0.855249415999424
114,32,1,categorization,0,bathroom,SHINEd_sun_agguqiubmwhqqunb.tif,22,0.0666666666666667,0.0666666666666667,1.28333333333333,28013.552672542,28014.64298325,9,28013.615569625,28013.675467417,28014.661841333,28015.938550375,0,1.0903107080012
114,33,1,categorization,0,bathroom,SHINEd_sun_aggnnqpdorgxpvce.tif,21,0.0666666666666667,0.0666666666666667,0.9,28015.957015417,28016.884310542,9,28016.023757125,28016.08939325,28016.912693583,28017.806032875,0,0.927295124998636
114,34,1,categorization,0,bathroom,SHINEd_sun_anryaplzeujmzfkd.tif,39,0.0666666666666667,0.0666666666666667,0.8,28017.813701417,28019.0027325,9,28017.875422708,28017.936392833,28019.022254167,28019.8155905,0,1.18903108300219
114,35,1,categorization,0,kitchen,SHINEd_sun_aunzlwrbjumxhwdj.tif,103,0.0666666666666667,0.0666666666666667,1.01666666666667,28019.820097167,28021.4754335,9,28019.8818045,28019.942809042,28021.495092625,28022.505134,1,1.65533633299856
114,36,1,categorization,0,kitchen,SHINEd_sun_aapllqyqlykszopd.tif,66,0.0666666666666667,0.0666666666666667,0.85,28022.515098,28024.014548792,9,28022.579286292,28022.645959458,28024.03918275,28024.8825195,1,1.49945079200188
114,37,1,categorization,0,bathroom,SHINEd_sun_acduarbnmmoglmiv.tif,16,0.0666666666666667,0.0666666666666667,1.51666666666667,28024.887363083,28026.347491167,9,28024.949032167,28025.010095125,28026.362610375,28027.872646625,0,1.46012808399973
114,38,1,categorization,0,bathroom,SHINEd_sun_avhrdrntsqrjzccq.tif,55,0.0666666666666667,0.0666666666666667,1.83333333333333,28027.889985833,28029.176673,13,28027.958320208,28028.022624333,28029.198605083,28031.025309125,1,1.28668716700122
114,39,1,categorization,0,kitchen,SHINEd_sun_aeqdocilnnpuvuhx.tif,83,0.0666666666666667,0.0666666666666667,0.716666666666667,28031.042879875,28032.475237667,9,28031.109598792,28031.175440917,28032.494576792,28033.20458175,1,1.4323577920004
114,40,1,categorization,0,kitchen,SHINEd_sun_aqeaevwwwjoqhzvl.tif,101,0.0666666666666667,0.0666666666666667,0.9,28033.209093208,28034.067241125,9,28033.270817292,28033.3317315,28034.083953667,28034.977291958,1,0.858147917002498
114,41,1,categorization,0,kitchen,SHINEd_sun_aexklacwqwezaorf.tif,84,0.0666666666666667,0.0666666666666667,0.916666666666667,28034.982222042,28035.875162417,9,28035.044007333,28035.104836125,28035.889969458,28036.799974083,1,0.892940375000762
114,42,1,categorization,0,bathroom,SHINEd_sun_apeeialkgkuxddgh.tif,42,0.0666666666666667,0.0666666666666667,0.816666666666667,28036.8050025,28037.579115,13,28036.866737042,28036.928009292,28037.596174917,28038.40618025,1,0.774112499999319
114,43,1,categorization,0,kitchen,SHINEd_sun_aggjlwcdjsjcaemh.tif,86,0.0666666666666667,0.0666666666666667,1.88333333333333,28038.413607125,28039.386597958,9,28038.475404042,28038.536252875,28039.404985083,28041.281690375,1,0.972990833000949
114,44,1,categorization,0,bathroom,SHINEd_sun_apjevzvycyhuqghb.tif,43,0.0666666666666667,0.0666666666666667,0.9,28041.298804583,28042.058198875,9,28041.365356625,28041.431121042,28042.087363917,28042.980702417,0,0.759394291999342
114,45,1,categorization,0,bathroom,SHINEd_sun_ahcvzmoyaycdoftf.tif,27,0.0666666666666667,0.0666666666666667,1,28042.985725667,28043.755008792,13,28043.0472975,28043.108405292,28043.760266125,28044.753603,1,0.769283124998765
114,46,1,categorization,0,bathroom,SHINEd_sun_ambriybtogmepttm.tif,36,0.0666666666666667,0.0666666666666667,0.733333333333333,28044.75838425,28045.714634,9,28044.820016958,28044.881044958,28045.732872333,28046.459544625,0,0.956249750001007
114,47,1,categorization,0,kitchen,SHINEd_sun_afuyedyxivkhecmu.tif,85,0.0666666666666667,0.0666666666666667,0.883333333333333,28046.46443125,28047.386662875,9,28046.526190625,28046.5872735,28047.40628375,28048.28295575,1,0.922231625001587
114,48,1,categorization,0,bathroom,SHINEd_sun_apkxzenqapsujocq.tif,45,0.0666666666666667,0.0666666666666667,1.73333333333333,28048.287923833,28048.9625705,13,28048.349698375,28048.410637792,28048.979494708,28050.706211,1,0.67464666700107
114,49,1,categorization,0,kitchen,SHINEd_sun_abftihopvusyfakt.tif,71,0.0666666666666667,0.0666666666666667,1.91666666666667,28050.723648625,28051.482321417,9,28050.790442958,28050.856679667,28051.495498958,28053.405533,1,0.758672791998833
114,50,1,categorization,0,kitchen,SHINEd_sun_acgtpgfybqjmzeyw.tif,75,0.0666666666666667,0.0666666666666667,1.35,28053.42036075,28054.162116833,9,28053.487219292,28053.552955875,28054.173990417,28055.517365042,1,0.741756082999927
114,1,2,categorization,0,kitchen,SHINEd_sun_agzzivivdpnawacl.tif,89,0.0666666666666667,0.0666666666666667,0.95,28063.631688625,28064.346718708,13,28063.693568875,28063.754263875,28064.356093708,28065.299431708,0,0.715030082999874
114,2,2,categorization,0,kitchen,SHINEd_sun_aegoxogugdkwpmpj.tif,80,0.0666666666666667,0.0666666666666667,0.75,28065.304297458,28066.331073833,9,28065.366013417,28065.427214333,28066.345696542,28067.0890355,1,1.02677637500165
114,3,2,categorization,0,bathroom,SHINEd_sun_abapwbhyhkfixyex.tif,14,0.0666666666666667,0.0666666666666667,1.68333333333333,28067.09382875,28068.011066833,9,28067.155605125,28067.21654475,28068.01830475,28069.69503325,0,0.917238083002303
114,4,2,categorization,0,kitchen,SHINEd_sun_akchetnepxlcxhsu.tif,98,0.0666666666666667,0.0666666666666667,0.816666666666667,28069.715257792,28070.475712292,13,28069.78193425,28069.847851875,28070.504218583,28071.314223,0,0.760454499999469
114,5,2,categorization,0,kitchen,SHINEd_sun_aamedkxepzlwuxes.tif,65,0.0666666666666667,0.0666666666666667,0.916666666666667,28071.319123917,28072.44287875,9,28071.380910542,28071.441845458,28072.460258208,28073.37026275,1,1.12375483299911
114,6,2,categorization,0,kitchen,SHINEd_labelme_rykdqxenmhulbdn.tif,63,0.0666666666666667,0.0666666666666667,1.21666666666667,28073.375595208,28074.458532125,9,28073.437448167,28073.498286708,28074.466603042,28075.676639458,1,1.08293691700237
114,7,2,categorization,0,kitchen,SHINEd_sun_abdenxonkemggwsq.tif,69,0.0666666666666667,0.0666666666666667,0.9,28075.688132792,28076.567443792,9,28075.756239458,28075.820679458,28076.593994625,28077.487368458,1,0.879311000000598
114,8,2,categorization,0,bathroom,SHINEd_sun_amzlamotzwfkwjco.tif,37,0.0666666666666667,0.0666666666666667,1.65,28077.500889083,28078.354572875,13,28077.567963625,28077.624984,28078.360514542,28080.00386975,1,0.853683792000083
114,9,2,categorization,0,kitchen,SHINEd_sun_aehawpgmrlhlvcow.tif,81,0.0666666666666667,0.0666666666666667,1.15,28080.015279,28080.726990042,9,28080.082311458,28080.147961542,28080.75486275,28081.898243958,1,0.711711042000388
114,10,2,categorization,0,bathroom,SHINEd_sun_acgyywnybuveqsro.tif,18,0.0666666666666667,0.0666666666666667,1.13333333333333,28081.908748958,28082.620037875,13,28081.975557833,28082.041328542,28082.647713333,28083.774420875,1,0.711288916998456
114,11,2,categorization,0,kitchen,SHINEd_sun_abpwyqmlzafvklqo.tif,72,0.0666666666666667,0.0666666666666667,1.76666666666667,28083.792011542,28084.587215083,9,28083.858617083,28083.916442333,28084.602126917,28086.362168708,1,0.795203541001683
114,12,2,categorization,0,kitchen,SHINEd_sun_aymvwlarqodbwuoc.tif,108,0.0666666666666667,0.0666666666666667,1.8,28086.381598167,28087.283276083,9,28086.448205625,28086.514338417,28087.304105875,28089.097494875,1,0.901677915997425
114,13,2,categorization,0,kitchen,SHINEd_sun_admlmbcdswaszruo.tif,79,0.0666666666666667,0.0666666666666667,0.9,28089.115001667,28089.891244042,9,28089.181766958,28089.247557208,28089.921149042,28090.814487833,1,0.776242374999129
114,14,2,categorization,0,bathroom,SHINEd_sun_aghyqhbptboemmoq.tif,23,0.0666666666666667,0.0666666666666667,0.716666666666667,28090.819426375,28091.946446292,13,28090.881085833,28090.942145917,28091.961115333,28092.671120833,1,1.12701991699942
114,15,2,categorization,0,bathroom,SHINEd_sun_aleqenyvunhactkl.tif,32,0.0666666666666667,0.0666666666666667,1.36666666666667,28092.67568225,28093.570771083,13,28092.73749075,28092.798385042,28093.583357375,28094.943392583,1,0.895088833000045
114,16,2,categorization,0,kitchen,SHINEd_sun_aypmqwcualkenuoe.tif,109,0.0666666666666667,0.0666666666666667,0.916666666666667,28094.960992458,28095.669159542,9,28095.027606375,28095.094022292,28095.681146667,28096.591195792,1,0.708167084001616
114,17,2,categorization,0,bathroom,SHINEd_sun_axxbkopsgyouuebh.tif,58,0.0666666666666667,0.0666666666666667,0.716666666666667,28096.607473833,28097.346996167,13,28096.674042292,28096.732221375,28097.351014542,28098.061018792,1,0.739522334002686
114,18,2,categorization,0,kitchen,SHINEd_sun_axyyrmzcupyhlivc.tif,107,0.0666666666666667,0.0666666666666667,0.766666666666667,28098.065827708,28098.890256542,9,28098.127506458,28098.18846125,28098.907067583,28099.667071375,1,0.824428833999264
114,19,2,categorization,0,bathroom,SHINEd_sun_ahaulkltgpkeeemi.tif,26,0.0666666666666667,0.0666666666666667,1.06666666666667,28099.671790708,28100.578790833,13,28099.733420458,28099.794554625,28100.596552292,28101.656608708,1,0.907000125000195
114,20,2,categorization,0,kitchen,SHINEd_sun_abdxkyyxwfskuaqb.tif,70,0.0666666666666667,0.0666666666666667,0.8,28101.666006042,28102.493111333,9,28101.730600875,28101.794740625,28102.51829675,28103.311683208,1,0.827105290998588
114,21,2,categorization,0,kitchen,SHINEd_sun_akcjzhbbjlbogpdi.tif,99,0.0666666666666667,0.0666666666666667,0.866666666666667,28103.329064333,28104.258975958,9,28103.395886167,28103.46169075,28104.263760917,28105.123766125,1,0.929911625000386
114,22,2,categorization,0,kitchen,SHINEd_sun_ajcbwwvdlsvjyzje.tif,96,0.0666666666666667,0.0666666666666667,1.48333333333333,28105.129534958,28106.211272958,9,28105.191261208,28105.252200917,28106.220840417,28107.697558833,1,1.08173800000077
114,23,2,categorization,0,bathroom,SHINEd_sun_apmqjbnwghzuhhzh.tif,46,0.0666666666666667,0.0666666666666667,1.1,28107.714752167,28108.426597458,13,28107.781388458,28107.847703083,28108.454223875,28109.54761775,1,0.711845290999918
114,24,2,categorization,0,kitchen,SHINEd_sun_ahljzhgcdpomplvg.tif,91,0.0666666666666667,0.0666666666666667,0.783333333333333,28109.556767375,28110.332012542,9,28109.621746417,28109.686363875,28110.359939625,28111.136663042,1,0.775245166998502
114,25,2,categorization,0,bathroom,SHINEd_sun_aclfzgynxzxlbepz.tif,19,0.0666666666666667,0.0666666666666667,0.866666666666667,28111.153248625,28112.202288917,9,28111.219867208,28111.285862792,28112.221215,28113.081219792,0,1.04904029200043
114,26,2,categorization,0,kitchen,SHINEd_sun_ahspylgoovwmwvgk.tif,93,0.0666666666666667,0.0666666666666667,1.83333333333333,28113.086099417,28114.010506542,9,28113.147859292,28113.208787542,28114.027446958,28115.854154833,1,0.924407124999561
114,27,2,categorization,0,kitchen,SHINEd_sun_azmutvzbxypaceni.tif,110,0.0666666666666667,0.0666666666666667,0.7,28115.873019875,28116.733091,9,28115.939406125,28116.006102625,28116.762363667,28117.455701667,1,0.860071124996466
114,28,2,categorization,0,bathroom,SHINEd_sun_aspsyogrekjtfozg.tif,50,0.0666666666666667,0.0666666666666667,1.33333333333333,28117.46342775,28118.170435125,13,28117.52513375,28117.585997167,28118.188114333,28119.514816667,1,0.707007375000103
114,29,2,categorization,0,bathroom,SHINEd_sun_aqrpegblszgcoujh.tif,48,0.0666666666666667,0.0666666666666667,1.33333333333333,28119.532953042,28120.253255458,9,28119.598508208,28119.665960583,28120.272009042,28121.598730542,0,0.720302416000777
114,30,2,categorization,0,kitchen,SHINEd_sun_agubuxuukhzyzpdp.tif,88,0.0666666666666667,0.0666666666666667,1.38333333333333,28121.613573667,28122.364800458,9,28121.678328083,28121.746380958,28122.386064917,28123.76279275,1,0.751226790998771
114,31,2,categorization,0,bathroom,SHINEd_sun_alkosphxlxwjwgjd.tif,34,0.0666666666666667,0.0666666666666667,1.25,28123.785428792,28124.468237208,13,28123.852280042,28123.918409375,28124.491532333,28125.734921375,1,0.682808415996988
114,32,2,categorization,0,kitchen,SHINEd_labelme_brsyyvweiuaazfr.tif,61,0.0666666666666667,0.0666666666666667,1.55,28125.75301325,28126.42015225,9,28125.8197135,28125.885677625,28126.4421005,28127.985491958,1,0.667139000001043
114,33,2,categorization,0,bathroom,SHINEd_sun_abjtwfukuwddzted.tif,15,0.0666666666666667,0.0666666666666667,1.61666666666667,28128.003192292,28128.686302,13,28128.069762167,28128.135665583,28128.708872875,28130.318927542,1,0.683109707999392
114,34,2,categorization,0,bathroom,SHINEd_sun_axyrejkiiaqiurjk.tif,59,0.0666666666666667,0.0666666666666667,1.33333333333333,28130.33656975,28130.95811975,9,28130.403369667,28130.469442583,28130.975291083,28132.302014542,0,0.621549999999843
114,35,2,categorization,0,kitchen,SHINEd_sun_agorklincwxrdtga.tif,87,0.0666666666666667,0.0666666666666667,0.833333333333333,28132.319857792,28133.033923417,13,28132.386517042,28132.452736208,28133.059216333,28133.885933708,0,0.714065624997602
114,36,2,categorization,0,bathroom,SHINEd_sun_apynckhmoftszqoq.tif,47,0.0666666666666667,0.0666666666666667,1.45,28133.902156667,28134.618449458,13,28133.968812458,28134.034660792,28134.63714525,28136.080519208,1,0.716292790999432
114,37,2,categorization,0,kitchen,SHINEd_sun_aadbddgrdsjugojn.tif,64,0.0666666666666667,0.0666666666666667,0.933333333333333,28136.097959708,28136.797994458,9,28136.164618833,28136.230488375,28136.819950875,28137.746625625,1,0.700034749999759
114,38,2,categorization,0,bathroom,SHINEd_sun_alotolagknyrgtsk.tif,35,0.0666666666666667,0.0666666666666667,1.65,28137.752534625,28138.522883458,9,28137.814227958,28137.87534725,28138.527127292,28140.170519667,0,0.770348833000753
114,39,2,categorization,0,bathroom,SHINEd_sun_aoybiabnpadelefl.tif,41,0.0666666666666667,0.0666666666666667,1.23333333333333,28140.188081208,28140.985947708,9,28140.254697792,28140.32092525,28141.010745542,28142.237457042,0,0.797866499997326
114,40,2,categorization,0,bathroom,SHINEd_sun_awnqiikzaispgmwo.tif,56,0.0666666666666667,0.0666666666666667,0.766666666666667,28142.255411542,28143.031939333,13,28142.322360208,28142.388086792,28143.060956458,28143.820993958,1,0.776527791000262
114,41,2,categorization,0,kitchen,SHINEd_sun_awcpdzzznmweyyhv.tif,106,0.0666666666666667,0.0666666666666667,1.78333333333333,28143.837582375,28144.530988708,9,28143.904104125,28143.970059292,28144.538694375,28146.315411917,1,0.693406333000894
114,42,2,categorization,0,bathroom,SHINEd_sun_aapitsgbtktqubfy.tif,12,0.0666666666666667,0.0666666666666667,1.11666666666667,28146.332682625,28147.006533375,13,28146.399222958,28146.465363083,28147.02101775,28148.1310765,1,0.673850749997655
114,43,2,categorization,0,kitchen,SHINEd_sun_abrcnpqqhmjwekyf.tif,73,0.0666666666666667,0.0666666666666667,1.85,28148.141747667,28148.861953667,9,28148.206237708,28148.274395125,28148.880417125,28150.723799,1,0.720206000001781
114,44,2,categorization,0,kitchen,SHINEd_sun_aarfiyshqohlwkmo.tif,67,0.0666666666666667,0.0666666666666667,0.733333333333333,28150.738173708,28151.464721667,9,28150.804252667,28150.870711292,28151.494855833,28152.221526833,1,0.726547958998708
114,45,2,categorization,0,bathroom,SHINEd_sun_ahqjwnzgolcaoidx.tif,29,0.0666666666666667,0.0666666666666667,0.783333333333333,28152.226688875,28152.962854333,13,28152.288412208,28152.349437625,28152.968166833,28153.744837375,1,0.736165458001778
114,46,2,categorization,0,kitchen,SHINEd_sun_aaxxjlsuzvqlgylf.tif,68,0.0666666666666667,0.0666666666666667,1.5,28153.749793333,28154.515039875,9,28153.811503458,28153.8724985,28154.5245995,28156.017966875,1,0.765246541999659
114,47,2,categorization,0,bathroom,SHINEd_sun_aavhrsfjbserjtht.tif,13,0.0666666666666667,0.0666666666666667,0.733333333333333,28156.035916833,28156.677363667,9,28156.102471292,28156.168481583,28156.690882792,28157.417585875,0,0.641446834000817
114,48,2,categorization,0,bathroom,SHINEd_sun_aljolscmmzydegqp.tif,33,0.0666666666666667,0.0666666666666667,1.1,28157.433207208,28158.194479458,13,28157.499152125,28157.565923542,28158.201454625,28159.294838833,1,0.761272250001639
114,49,2,categorization,0,bathroom,SHINEd_sun_asfwthctfqerjvxr.tif,49,0.0666666666666667,0.0666666666666667,1.6,28159.304381,28160.178463125,13,28159.369191125,28159.436894917,28160.190681,28161.784049625,1,0.874082124999404
114,50,2,categorization,0,bathroom,SHINEd_sun_aofnryafpsjimzsb.tif,40,0.0666666666666667,0.0666666666666667,1.06666666666667,28161.801253333,28162.676538333,9,28161.867454083,28161.933933875,28162.689192917,28163.749226083,0,0.875284999998257
114,1,3,categorization,0,bathroom,SHINEd_sun_atstyziqcmkahyxk.tif,51,0.0666666666666667,0.0666666666666667,0.85,28170.565712708,28171.258215667,13,28170.628441042,28170.688517667,28171.273744625,28172.117083167,1,0.692502958998375
114,2,3,categorization,0,kitchen,SHINEd_sun_agorklincwxrdtga.tif,87,0.0666666666666667,0.0666666666666667,1.65,28172.122040458,28172.978440667,9,28172.183676417,28172.244794667,28172.9966195,28174.640001292,1,0.856400208998821
114,3,3,categorization,0,bathroom,SHINEd_sun_apynckhmoftszqoq.tif,47,0.0666666666666667,0.0666666666666667,0.783333333333333,28174.658641875,28175.330013708,13,28174.724602042,28174.791251583,28175.347368958,28176.1240405,1,0.671371832999284
114,4,3,categorization,0,bathroom,SHINEd_sun_ambriybtogmepttm.tif,36,0.0666666666666667,0.0666666666666667,0.933333333333333,28176.129174917,28176.794215125,9,28176.190847833,28176.25189875,28176.803598667,28177.730271083,0,0.665040207997663
114,5,3,categorization,0,kitchen,SHINEd_sun_auaiucuqpdausiva.tif,102,0.0666666666666667,0.0666666666666667,0.866666666666667,28177.735367292,28178.602288875,9,28177.797084875,28177.858510875,28178.610466,28179.470471375,1,0.866921583001385
114,6,3,categorization,0,bathroom,SHINEd_sun_aggnnqpdorgxpvce.tif,21,0.0666666666666667,0.0666666666666667,1.11666666666667,28179.476023417,28180.298944542,9,28179.537754417,28179.598620125,28180.31729675,28181.427342333,0,0.822921124999993
114,7,3,categorization,0,kitchen,SHINEd_sun_aixorpehvfykdynp.tif,95,0.0666666666666667,0.0666666666666667,0.966666666666667,28181.436678083,28182.222413208,9,28181.500950542,28181.5666565,28182.239346375,28183.199384417,1,0.785735125002248
114,8,3,categorization,0,kitchen,SHINEd_sun_amjjdeyrggfqgmom.tif,100,0.0666666666666667,0.0666666666666667,1.78333333333333,28183.217361125,28183.970899542,13,28183.284062875,28183.350252458,28183.98561325,28185.762337125,0,0.753538417000527
114,9,3,categorization,0,bathroom,SHINEd_sun_ahcvzmoyaycdoftf.tif,27,0.0666666666666667,0.0666666666666667,1.55,28185.780786,28186.531023667,13,28185.847563042,28185.913435208,28186.5532555,28188.09664175,1,0.750237667001784
114,10,3,categorization,0,kitchen,SHINEd_sun_afuyedyxivkhecmu.tif,85,0.0666666666666667,0.0666666666666667,1.41666666666667,28188.114279792,28188.807939667,9,28188.181189542,28188.247043958,28188.837037167,28190.2470885,1,0.693659874999867
114,11,3,categorization,0,bathroom,SHINEd_sun_aghyqhbptboemmoq.tif,23,0.0666666666666667,0.0666666666666667,0.8,28190.264431042,28191.332182708,13,28190.331383583,28190.397131292,28191.353885625,28192.147222417,1,1.06775166599982
114,12,3,categorization,0,kitchen,SHINEd_sun_aqeaevwwwjoqhzvl.tif,101,0.0666666666666667,0.0666666666666667,1.28333333333333,28192.152142417,28193.554697667,9,28192.213778542,28192.274797833,28193.560425833,28194.837145375,1,1.40255525000248
114,13,3,categorization,0,bathroom,SHINEd_sun_aoybiabnpadelefl.tif,41,0.0666666666666667,0.0666666666666667,1.66666666666667,28194.8544575,28195.701018458,9,28194.9224545,28194.987224583,28195.727107333,28197.387166875,0,0.846560957998008
114,14,3,categorization,0,bathroom,SHINEd_sun_aofnryafpsjimzsb.tif,40,0.0666666666666667,0.0666666666666667,1.81666666666667,28197.402825167,28198.33006825,13,28197.4695805,28197.534150333,28198.357444375,28200.167482667,1,0.927243083002395
114,15,3,categorization,0,kitchen,SHINEd_sun_abdenxonkemggwsq.tif,69,0.0666666666666667,0.0666666666666667,1.35,28200.186880583,28201.004638125,9,28200.253685917,28200.319618125,28201.0261845,28202.369556708,1,0.817757541997707
114,16,3,categorization,0,kitchen,SHINEd_sun_abdxkyyxwfskuaqb.tif,70,0.0666666666666667,0.0666666666666667,0.916666666666667,28202.38869425,28203.169665333,9,28202.456874542,28202.521374,28203.194707792,28204.104718208,1,0.780971083000622
114,17,3,categorization,0,bathroom,SHINEd_sun_ausgutylgojavyoq.tif,53,0.0666666666666667,0.0666666666666667,0.916666666666667,28204.11321675,28204.930465042,13,28204.175154708,28204.235871042,28204.937790125,28205.847795208,1,0.81724829200175
114,18,3,categorization,0,bathroom,SHINEd_sun_aleqenyvunhactkl.tif,32,0.0666666666666667,0.0666666666666667,1.31666666666667,28205.852678083,28206.594599917,13,28205.914303875,28205.975382208,28206.610581917,28207.920634208,1,0.741921834000095
114,19,3,categorization,0,bathroom,SHINEd_sun_awnqiikzaispgmwo.tif,56,0.0666666666666667,0.0666666666666667,1.45,28207.939363792,28208.707823208,13,28208.006170875,28208.072098958,28208.728501625,28210.171878875,1,0.768459415998223
114,20,3,categorization,0,kitchen,SHINEd_sun_aadbddgrdsjugojn.tif,64,0.0666666666666667,0.0666666666666667,0.95,28210.190369042,28210.925121917,9,28210.258768583,28210.32304625,28210.946134042,28211.889472083,1,0.734752874999685
114,21,3,categorization,0,kitchen,SHINEd_sun_acfmftudsenhrfhy.tif,74,0.0666666666666667,0.0666666666666667,1.38333333333333,28211.896021042,28212.681760625,9,28211.957904833,28212.018673917,28212.687502,28214.064220542,1,0.785739582999668
114,22,3,categorization,0,kitchen,SHINEd_labelme_kxvouciolcpqplr.tif,62,0.0666666666666667,0.0666666666666667,1.16666666666667,28214.082023042,28214.819989208,9,28214.148790542,28214.215010667,28214.837927375,28215.997981708,1,0.73796616600157
114,23,3,categorization,0,bathroom,SHINEd_sun_apkxzenqapsujocq.tif,45,0.0666666666666667,0.0666666666666667,1.61666666666667,28216.014241208,28216.715798333,13,28216.081099417,28216.146782417,28216.736473958,28218.346525792,1,0.701557125001273
114,24,3,categorization,0,bathroom,SHINEd_sun_abjtwfukuwddzted.tif,15,0.0666666666666667,0.0666666666666667,1.38333333333333,28218.3644645,28219.071633292,13,28218.431503042,28218.497129792,28219.0860205,28220.462740917,1,0.70716879199972
114,25,3,categorization,0,bathroom,SHINEd_sun_agguqiubmwhqqunb.tif,22,0.0666666666666667,0.0666666666666667,1.78333333333333,28220.481502292,28221.351465375,13,28220.548202792,28220.614204917,28221.370733333,28223.147437208,1,0.869963082997856
114,26,3,categorization,0,kitchen,SHINEd_sun_abftihopvusyfakt.tif,71,0.0666666666666667,0.0666666666666667,0.783333333333333,28223.166292833,28223.804967125,9,28223.232902375,28223.299303875,28223.822096333,28224.598769083,1,0.63867429200036
114,27,3,categorization,0,bathroom,SHINEd_sun_afcoljnjfoxjtgja.tif,20,0.0666666666666667,0.0666666666666667,1.65,28224.604576042,28225.345799542,9,28224.666224667,28224.727327542,28225.362783083,28227.006171125,0,0.74122350000107
114,28,3,categorization,0,kitchen,SHINEd_sun_aenotlpyftoioydp.tif,82,0.0666666666666667,0.0666666666666667,1.86666666666667,28227.023228417,28227.670072917,9,28227.089847417,28227.156260792,28227.695158875,28229.555207375,1,0.646844499999133
114,29,3,categorization,0,kitchen,SHINEd_sun_avszsnwsbuqfgzbn.tif,105,0.0666666666666667,0.0666666666666667,1.23333333333333,28229.566012667,28230.249588292,9,28229.631188167,28229.697523625,28230.268477333,28231.495193042,1,0.683575625000231
114,30,3,categorization,0,bathroom,SHINEd_sun_acgyywnybuveqsro.tif,18,0.0666666666666667,0.0666666666666667,0.7,28231.504646333,28232.196217917,13,28231.570121125,28231.634991625,28232.224931833,28232.918313417,1,0.691571584000485
114,31,3,categorization,0,kitchen,SHINEd_sun_acgtpgfybqjmzeyw.tif,75,0.0666666666666667,0.0666666666666667,0.716666666666667,28232.934403792,28233.602808625,9,28233.000580917,28233.067278917,28233.619397375,28234.329402125,1,0.668404833002569
114,32,3,categorization,0,bathroom,SHINEd_sun_apmqjbnwghzuhhzh.tif,46,0.0666666666666667,0.0666666666666667,1.05,28234.334271042,28235.018064958,9,28234.395894333,28234.456953833,28235.025833208,28236.069226833,0,0.683793915999559
114,33,3,categorization,0,kitchen,SHINEd_sun_aeqdocilnnpuvuhx.tif,83,0.0666666666666667,0.0666666666666667,1.1,28236.082918708,28236.970795917,9,28236.148514125,28236.213737625,28236.986221542,28238.07960875,1,0.887877208999271
114,34,3,categorization,0,bathroom,SHINEd_sun_aunuadmjocsddsrl.tif,52,0.0666666666666667,0.0666666666666667,1.13333333333333,28238.089367833,28239.01054175,9,28238.1540495,28238.221886167,28239.027857625,28240.154571417,0,0.921173917002307
114,35,3,categorization,0,bathroom,SHINEd_sun_acegryoqftbzowsg.tif,17,0.0666666666666667,0.0666666666666667,1.38333333333333,28240.17201025,28241.018298375,13,28240.234638958,28240.295189917,28241.030792792,28242.407520083,1,0.846288124997955
114,36,3,categorization,0,kitchen,SHINEd_sun_agzzivivdpnawacl.tif,89,0.0666666666666667,0.0666666666666667,1.5,28242.425904542,28243.147530792,13,28242.492442708,28242.558626458,28243.164642458,28244.658036083,0,0.721626250000554
114,37,3,categorization,0,bathroom,SHINEd_sun_axldvoqbuvuggfmq.tif,57,0.0666666666666667,0.0666666666666667,1.61666666666667,28244.676043042,28245.514620625,13,28244.743882625,28244.809209375,28245.531880125,28247.141920875,1,0.838577582999278
114,38,3,categorization,0,kitchen,SHINEd_sun_abpwyqmlzafvklqo.tif,72,0.0666666666666667,0.0666666666666667,0.983333333333333,28247.159634875,28248.359712667,13,28247.225693833,28247.29201025,28248.379759208,28249.35643125,0,1.20007779200023
114,39,3,categorization,0,kitchen,SHINEd_sun_ajcbwwvdlsvjyzje.tif,96,0.0666666666666667,0.0666666666666667,1.3,28249.361980125,28250.386305708,9,28249.424074708,28249.484680833,28250.4036485,28251.697021,1,1.02432558300279
114,40,3,categorization,0,kitchen,SHINEd_sun_aexklacwqwezaorf.tif,84,0.0666666666666667,0.0666666666666667,1.03333333333333,28251.714556708,28252.45268375,9,28251.781308292,28251.847152667,28252.469791042,28253.496512917,1,0.738127042000997
114,41,3,categorization,0,kitchen,SHINEd_sun_aegoxogugdkwpmpj.tif,80,0.0666666666666667,0.0666666666666667,1.45,28253.508628375,28254.425586208,9,28253.573193708,28253.639652625,28254.4460035,28255.889381,1,0.916957833000197
114,42,3,categorization,0,kitchen,SHINEd_sun_aggjlwcdjsjcaemh.tif,86,0.0666666666666667,0.0666666666666667,1.23333333333333,28255.906115417,28256.718514667,9,28255.972582458,28256.039349292,28256.745365833,28257.972077542,1,0.812399250000453
114,43,3,categorization,0,bathroom,SHINEd_sun_ahqjwnzgolcaoidx.tif,29,0.0666666666666667,0.0666666666666667,1.26666666666667,28257.989515625,28258.930499792,13,28258.056155417,28258.12219375,28258.944685042,28260.204729042,1,0.940984167002171
114,44,3,categorization,0,bathroom,SHINEd_sun_avhrdrntsqrjzccq.tif,55,0.0666666666666667,0.0666666666666667,1.03333333333333,28260.222701792,28261.531772083,9,28260.289517125,28260.355591833,28261.544862542,28262.571581,0,1.30907029099762
114,45,3,categorization,0,bathroom,SHINEd_sun_aljolscmmzydegqp.tif,33,0.0666666666666667,0.0666666666666667,1.31666666666667,28262.583335708,28263.427636583,13,28262.648259542,28262.714893958,28263.454349292,28264.764406125,1,0.844300875000044
114,46,3,categorization,0,bathroom,SHINEd_sun_apeeialkgkuxddgh.tif,42,0.0666666666666667,0.0666666666666667,1.7,28264.779631167,28265.442896583,13,28264.846214417,28264.913778,28265.47010975,28267.163489458,1,0.663265416002105
114,47,3,categorization,0,kitchen,SHINEd_sun_aymvwlarqodbwuoc.tif,108,0.0666666666666667,0.0666666666666667,1.35,28267.181298,28268.0128325,9,28267.247257125,28267.314149875,28268.037443708,28269.380820833,1,0.831534500000998
114,48,3,categorization,0,bathroom,SHINEd_sun_anhioqovhscjqqwb.tif,38,0.0666666666666667,0.0666666666666667,0.8,28269.3986825,28269.998367875,13,28269.465594125,28269.530631667,28270.020754,28270.814127208,1,0.599685375000263
114,49,3,categorization,0,kitchen,SHINEd_sun_ahpczsiumwwocjkv.tif,92,0.0666666666666667,0.0666666666666667,0.766666666666667,28270.830679375,28271.690510875,13,28270.896969833,28270.963341417,28271.698636542,28272.458641792,0,0.859831499998108
114,50,3,categorization,0,bathroom,SHINEd_sun_azqyogdvyhahyram.tif,60,0.0666666666666667,0.0666666666666667,1.38333333333333,28272.463552958,28273.225770292,13,28272.52529975,28272.586177542,28273.238291708,28274.615015375,1,0.762217333998706
114,1,4,categorization,0,kitchen,SHINEd_sun_aehawpgmrlhlvcow.tif,81,0.0666666666666667,0.0666666666666667,1,28282.349263042,28283.194041083,9,28282.411391875,28282.471961708,28283.207185708,28284.200523917,1,0.84477804099879
114,2,4,categorization,0,bathroom,SHINEd_sun_anryaplzeujmzfkd.tif,39,0.0666666666666667,0.0666666666666667,0.966666666666667,28284.205900458,28284.842266083,9,28284.267541875,28284.329029083,28284.847756958,28285.807762458,0,0.636365624999598
114,3,4,categorization,0,kitchen,SHINEd_sun_aypmqwcualkenuoe.tif,109,0.0666666666666667,0.0666666666666667,1.75,28285.812736208,28286.442485,9,28285.874437,28285.935434208,28286.45401825,28288.197388958,1,0.629748791998281
114,4,4,categorization,0,bathroom,SHINEd_sun_asfwthctfqerjvxr.tif,49,0.0666666666666667,0.0666666666666667,1.68333333333333,28288.214976125,28288.996021708,9,28288.281636375,28288.348092167,28289.021760833,28290.698461833,0,0.781045583000378
114,5,4,categorization,0,bathroom,SHINEd_sun_aapitsgbtktqubfy.tif,12,0.0666666666666667,0.0666666666666667,1.58333333333333,28290.716044625,28291.330216083,13,28290.782925417,28290.848752292,28291.354955708,28292.931678958,1,0.614171457997145
114,6,4,categorization,0,bathroom,SHINEd_sun_agrwbmhcpmfuwmsg.tif,24,0.0666666666666667,0.0666666666666667,1,28292.945735917,28293.585817167,13,28293.012499083,28293.078539667,28293.600424833,28294.593763042,1,0.640081249999639
114,7,4,categorization,0,kitchen,SHINEd_sun_aamedkxepzlwuxes.tif,65,0.0666666666666667,0.0666666666666667,1.33333333333333,28294.598813625,28295.289686125,9,28294.6605985,28294.721626708,28295.307070792,28296.633774833,1,0.690872499999386
114,8,4,categorization,0,kitchen,SHINEd_sun_axyyrmzcupyhlivc.tif,107,0.0666666666666667,0.0666666666666667,1.26666666666667,28296.65089475,28297.42107325,9,28296.717128625,28296.783754542,28297.440549333,28298.70060375,1,0.77017849999902
114,9,4,categorization,0,kitchen,SHINEd_sun_agubuxuukhzyzpdp.tif,88,0.0666666666666667,0.0666666666666667,0.883333333333333,28298.7191405,28299.499818958,9,28298.786233833,28298.852042375,28299.523833958,28300.400539583,1,0.780678457998874
114,10,4,categorization,0,kitchen,SHINEd_sun_auticobqsbwgoppi.tif,104,0.0666666666666667,0.0666666666666667,1.26666666666667,28300.41694425,28301.27376575,9,28300.483589792,28300.549927583,28301.285645417,28302.545695625,1,0.856821500001388
114,11,4,categorization,0,bathroom,SHINEd_sun_aclfzgynxzxlbepz.tif,19,0.0666666666666667,0.0666666666666667,2,28302.567940583,28303.262614958,13,28302.634808625,28302.700724917,28303.29019075,28305.283572875,1,0.694674374997703
114,12,4,categorization,0,kitchen,SHINEd_labelme_rykdqxenmhulbdn.tif,63,0.0666666666666667,0.0666666666666667,0.733333333333333,28305.302644042,28306.028030042,9,28305.370096417,28305.435541875,28306.041005542,28306.767677292,1,0.72538600000189
114,13,4,categorization,0,bathroom,SHINEd_sun_aqrpegblszgcoujh.tif,48,0.0666666666666667,0.0666666666666667,0.883333333333333,28306.772986042,28307.474398958,13,28306.834698333,28306.896121667,28307.481313833,28308.357985708,1,0.701412915997935
114,14,4,categorization,0,kitchen,SHINEd_sun_aaxxjlsuzvqlgylf.tif,68,0.0666666666666667,0.0666666666666667,0.983333333333333,28308.36307275,28309.138237042,9,28308.424770167,28308.485707833,28309.154176542,28310.130847792,1,0.775164292001136
114,15,4,categorization,0,bathroom,SHINEd_sun_ahaulkltgpkeeemi.tif,26,0.0666666666666667,0.0666666666666667,1.56666666666667,28310.136828167,28310.954167083,9,28310.198434,28310.25949175,28310.961255,28312.521296167,0,0.817338916000153
114,16,4,categorization,0,kitchen,SHINEd_sun_akchetnepxlcxhsu.tif,98,0.0666666666666667,0.0666666666666667,1.08333333333333,28312.538912708,28313.486402333,9,28312.605712167,28312.671568917,28313.510252333,28314.58697275,1,0.947489624999434
114,17,4,categorization,0,kitchen,SHINEd_sun_adgqasybjyktddhj.tif,78,0.0666666666666667,0.0666666666666667,0.75,28314.597539333,28315.4951005,9,28314.66232125,28314.727750167,28315.515635375,28316.259027708,1,0.897561166999367
114,18,4,categorization,0,bathroom,SHINEd_sun_aavhrsfjbserjtht.tif,13,0.0666666666666667,0.0666666666666667,0.966666666666667,28316.27596,28317.2662585,13,28316.342435875,28316.408701083,28317.277764375,28318.237769333,1,0.99029850000079
114,19,4,categorization,0,kitchen,SHINEd_sun_admlmbcdswaszruo.tif,79,0.0666666666666667,0.0666666666666667,1.63333333333333,28318.242780667,28319.385515292,9,28318.304587708,28318.365439333,28319.401040292,28321.027741333,1,1.14273462500205
114,20,4,categorization,0,kitchen,SHINEd_sun_ahljzhgcdpomplvg.tif,91,0.0666666666666667,0.0666666666666667,1.46666666666667,28321.04224525,28321.926331625,9,28321.108880375,28321.174779167,28321.948498958,28323.408557708,1,0.884086375001061
114,21,4,categorization,0,kitchen,SHINEd_sun_aarfiyshqohlwkmo.tif,67,0.0666666666666667,0.0666666666666667,0.933333333333333,28323.428179667,28324.207926083,9,28323.495204167,28323.558445708,28324.231918792,28325.158590792,1,0.779746415999398
114,22,4,categorization,0,kitchen,SHINEd_sun_awcpdzzznmweyyhv.tif,106,0.0666666666666667,0.0666666666666667,1.45,28325.164311458,28326.041545667,9,28325.226167458,28325.287108792,28326.055535542,28327.498896292,1,0.877234209001472
114,23,4,categorization,0,bathroom,SHINEd_sun_aspsyogrekjtfozg.tif,50,0.0666666666666667,0.0666666666666667,0.966666666666667,28327.509750042,28328.266294375,13,28327.574942208,28327.641551625,28328.280269,28329.240274708,1,0.756544332998601
114,24,4,categorization,0,bathroom,SHINEd_sun_abapwbhyhkfixyex.tif,14,0.0666666666666667,0.0666666666666667,0.816666666666667,28329.245863708,28330.049977917,9,28329.307553542,28329.368515083,28330.0537515,28330.86375625,0,0.804114208996907
114,25,4,categorization,0,kitchen,SHINEd_sun_abrcnpqqhmjwekyf.tif,73,0.0666666666666667,0.0666666666666667,1.96666666666667,28330.869543792,28332.39355375,13,28330.931174875,28330.9923075,28332.411359542,28334.371400958,0,1.52400995800053
114,26,4,categorization,0,bathroom,SHINEd_sun_axxbkopsgyouuebh.tif,58,0.0666666666666667,0.0666666666666667,0.916666666666667,28334.389535792,28335.211589208,13,28334.457763083,28334.5226135,28335.228483583,28336.13848825,1,0.822053415999108
114,27,4,categorization,0,kitchen,SHINEd_sun_ahdycvpopffkzzsu.tif,90,0.0666666666666667,0.0666666666666667,1.28333333333333,28336.144267542,28337.049954417,9,28336.206122042,28336.267012708,28337.068891542,28338.345616208,1,0.905686875001265
114,28,4,categorization,0,bathroom,SHINEd_sun_apkruvsevgegsdwp.tif,44,0.0666666666666667,0.0666666666666667,1.8,28338.363962375,28339.09912725,13,28338.431199542,28338.497142167,28339.12082925,28340.914203417,1,0.735164875000919
114,29,4,categorization,0,bathroom,SHINEd_sun_acduarbnmmoglmiv.tif,16,0.0666666666666667,0.0666666666666667,1.33333333333333,28340.933328583,28341.819847083,9,28340.999894333,28341.066258333,28341.839642583,28343.166346583,0,0.886518499999511
114,30,4,categorization,0,bathroom,SHINEd_sun_alotolagknyrgtsk.tif,35,0.0666666666666667,0.0666666666666667,1.06666666666667,28343.185347042,28344.038886625,9,28343.252505375,28343.319670792,28344.060466833,28345.120508167,0,0.853539583000384
114,31,4,categorization,0,bathroom,SHINEd_sun_ajlawzvmubibwbpy.tif,30,0.0666666666666667,0.0666666666666667,1.03333333333333,28345.130010708,28345.982763833,13,28345.195003542,28345.260576917,28346.000513958,28347.027220833,1,0.852753125000163
114,32,4,categorization,0,kitchen,SHINEd_sun_ajkqhtgcbgpcwrwn.tif,97,0.0666666666666667,0.0666666666666667,0.733333333333333,28347.046807,28347.857186625,9,28347.113929917,28347.171241375,28347.873030375,28348.599702375,1,0.810379624999769
114,33,4,categorization,0,kitchen,SHINEd_sun_ahspylgoovwmwvgk.tif,93,0.0666666666666667,0.0666666666666667,0.766666666666667,28348.604599083,28349.434005667,9,28348.666331042,28348.727260958,28349.445792417,28350.205796625,1,0.829406584001845
114,34,4,categorization,0,kitchen,SHINEd_sun_acwjdupvyjsugpay.tif,76,0.0666666666666667,0.0666666666666667,1.1,28350.211861292,28351.153438167,9,28350.273862833,28350.33450875,28351.169844167,28352.263221375,1,0.941576875000464
114,35,4,categorization,0,kitchen,SHINEd_sun_aapllqyqlykszopd.tif,66,0.0666666666666667,0.0666666666666667,1.81666666666667,28352.274672792,28353.185366125,9,28352.340121958,28352.407248875,28353.213789667,28355.023831625,1,0.910693333000381
114,36,4,categorization,0,bathroom,SHINEd_sun_apjevzvycyhuqghb.tif,43,0.0666666666666667,0.0666666666666667,0.883333333333333,28355.042635,28355.854693292,9,28355.108949833,28355.175371208,28355.882190875,28356.758862083,0,0.812058291998255
114,37,4,categorization,0,bathroom,SHINEd_sun_ahijqszoswveeyji.tif,28,0.0666666666666667,0.0666666666666667,1.7,28356.763758958,28357.713435333,13,28356.825524958,28356.886540667,28357.721701333,28359.415080042,1,0.949676374999399
114,38,4,categorization,0,bathroom,SHINEd_sun_akiytfaagpdsphgz.tif,31,0.0666666666666667,0.0666666666666667,1.58333333333333,28359.432630958,28360.226114583,13,28359.498255875,28359.562770292,28360.252764375,28361.829471708,1,0.793483625002409
114,39,4,categorization,0,bathroom,SHINEd_sun_amzlamotzwfkwjco.tif,37,0.0666666666666667,0.0666666666666667,0.833333333333333,28361.847224417,28362.645740625,9,28361.9138995,28361.979685542,28362.669641958,28363.496312375,0,0.798516208000365
114,40,4,categorization,0,kitchen,SHINEd_labelme_brsyyvweiuaazfr.tif,61,0.0666666666666667,0.0666666666666667,0.95,28363.501409125,28364.585504292,9,28363.563167375,28363.624457208,28364.593672917,28365.537010375,1,1.08409516699976
114,41,4,categorization,0,kitchen,SHINEd_sun_acxkpeoqbwcxfvip.tif,77,0.0666666666666667,0.0666666666666667,1.06666666666667,28365.541613292,28366.473746042,9,28365.603227833,28365.664404417,28366.4830935,28367.543151333,1,0.932132750000164
114,42,4,categorization,0,bathroom,SHINEd_labelme_sfxiulhjbhlyiyt.tif,11,0.0666666666666667,0.0666666666666667,1.68333333333333,28367.553271958,28368.485033375,13,28367.618239542,28367.684760125,28368.507959792,28370.184679375,1,0.931761416999507
114,43,4,categorization,0,bathroom,SHINEd_sun_axyrejkiiaqiurjk.tif,59,0.0666666666666667,0.0666666666666667,1.31666666666667,28370.203325083,28371.006366667,9,28370.269954958,28370.335938792,28371.025582625,28372.335639875,0,0.803041584000312
114,44,4,categorization,0,kitchen,SHINEd_sun_ahywdevtimnqcsln.tif,94,0.0666666666666667,0.0666666666666667,1.61666666666667,28372.354921875,28373.21403625,9,28372.421384333,28372.487646625,28373.244262125,28374.854308875,1,0.859114374998171
114,45,4,categorization,0,kitchen,SHINEd_sun_aunzlwrbjumxhwdj.tif,103,0.0666666666666667,0.0666666666666667,1.15,28374.8732115,28375.594393167,13,28374.94007675,28375.005741625,28375.611060833,28376.754441333,0,0.721181667002384
114,46,4,categorization,0,bathroom,SHINEd_sun_alkosphxlxwjwgjd.tif,34,0.0666666666666667,0.0666666666666667,1.25,28376.766843708,28378.534444292,9,28376.833505333,28376.899511417,28378.56050775,28379.803881042,0,1.76760058400032
114,47,4,categorization,0,kitchen,SHINEd_sun_azmutvzbxypaceni.tif,110,0.0666666666666667,0.0666666666666667,1.1,28379.820915833,28381.515295667,9,28379.88763125,28379.953918708,28381.527262667,28382.620657125,1,1.69437983399985
114,48,4,categorization,0,kitchen,SHINEd_sun_akcjzhbbjlbogpdi.tif,99,0.0666666666666667,0.0666666666666667,0.9,28382.633105333,28383.8790825,9,28382.698300792,28382.765786042,28383.906448083,28384.799787042,1,1.24597716700009
114,49,4,categorization,0,bathroom,SHINEd_sun_auzqhkafidnkrwmo.tif,54,0.0666666666666667,0.0666666666666667,1.3,28384.80481575,28386.21006675,9,28384.866633917,28384.927609,28386.229910833,28387.52330175,0,1.40525100000013
114,50,4,categorization,0,bathroom,SHINEd_sun_agyqfjcfkdcydepw.tif,25,0.0666666666666667,0.0666666666666667,1.25,28387.537068667,28388.521308667,13,28387.601273583,28387.66990175,28388.543062458,28389.786448833,1,0.984240000001591
114,1,5,categorization,0,bathroom,SHINEd_sun_apynckhmoftszqoq.tif,47,0.0666666666666667,0.0666666666666667,1.7,28399.798344875,28400.721677083,9,28399.860834375,28399.920998417,28400.739450167,28402.432836667,0,0.92333220799992
114,2,5,categorization,0,bathroom,SHINEd_sun_akiytfaagpdsphgz.tif,31,0.0666666666666667,0.0666666666666667,1.81666666666667,28402.451740083,28403.394406375,13,28402.518485542,28402.584471708,28403.424395167,28405.234445708,1,0.942666291997739
114,3,5,categorization,0,kitchen,SHINEd_labelme_kxvouciolcpqplr.tif,62,0.0666666666666667,0.0666666666666667,1.23333333333333,28405.254068208,28406.054471292,9,28405.320838292,28405.386887667,28406.076896542,28407.303612333,1,0.80040308399839
114,4,5,categorization,0,kitchen,SHINEd_sun_avszsnwsbuqfgzbn.tif,105,0.0666666666666667,0.0666666666666667,1.4,28407.321869375,28408.34808025,9,28407.388100125,28407.454684375,28408.378090458,28409.771474,1,1.02621087500302
114,5,5,categorization,0,bathroom,SHINEd_labelme_sfxiulhjbhlyiyt.tif,11,0.0666666666666667,0.0666666666666667,1.03333333333333,28409.788018458,28410.907453083,13,28409.855126375,28409.920494208,28410.9267545,28411.953469917,1,1.1194346250013
114,6,5,categorization,0,bathroom,SHINEd_sun_aljolscmmzydegqp.tif,33,0.0666666666666667,0.0666666666666667,1.38333333333333,28411.965574083,28412.906822625,13,28412.030798917,28412.09685075,28412.936765083,28414.313478583,1,0.941248541999812
114,7,5,categorization,0,bathroom,SHINEd_sun_ahijqszoswveeyji.tif,28,0.0666666666666667,0.0666666666666667,2,28414.331014708,28415.635958375,13,28414.3978495,28414.463743208,28415.656335958,28417.649707917,1,1.30494366700077
114,8,5,categorization,0,kitchen,SHINEd_sun_ajkqhtgcbgpcwrwn.tif,97,0.0666666666666667,0.0666666666666667,1.85,28417.667963083,28418.433426625,9,28417.734885,28417.800958542,28418.457517167,28420.300915083,1,0.765463542000361
114,9,5,categorization,0,kitchen,SHINEd_sun_ahspylgoovwmwvgk.tif,93,0.0666666666666667,0.0666666666666667,0.816666666666667,28420.320406333,28421.133405,9,28420.387575875,28420.453740667,28421.1600995,28421.970104958,1,0.812998666999192
114,10,5,categorization,0,bathroom,SHINEd_sun_agrwbmhcpmfuwmsg.tif,24,0.0666666666666667,0.0666666666666667,1.85,28421.9775995,28423.025731875,9,28422.039614958,28422.100539458,28423.035725333,28424.879119042,0,1.04813237499911
114,11,5,categorization,0,bathroom,SHINEd_sun_axldvoqbuvuggfmq.tif,57,0.0666666666666667,0.0666666666666667,0.733333333333333,28424.896979333,28425.884759333,13,28424.963853125,28425.029741375,28425.902648083,28426.62932125,1,0.987779999999475
114,12,5,categorization,0,bathroom,SHINEd_sun_abapwbhyhkfixyex.tif,14,0.0666666666666667,0.0666666666666667,0.716666666666667,28426.635192875,28427.473563208,9,28426.697194792,28426.75787725,28427.49312725,28428.203132458,0,0.838370333000057
114,13,5,categorization,0,bathroom,SHINEd_sun_aclfzgynxzxlbepz.tif,19,0.0666666666666667,0.0666666666666667,0.833333333333333,28428.2087995,28429.169783292,13,28428.270589,28428.331518292,28429.183690625,28430.010362625,1,0.960983791999752
114,14,5,categorization,0,kitchen,SHINEd_sun_aaxxjlsuzvqlgylf.tif,68,0.0666666666666667,0.0666666666666667,0.95,28430.01583075,28431.025103917,9,28430.077632708,28430.138466458,28431.040443583,28431.983782458,1,1.00927316700108
114,15,5,categorization,0,kitchen,SHINEd_sun_acfmftudsenhrfhy.tif,74,0.0666666666666667,0.0666666666666667,1.96666666666667,28431.989644917,28432.761716458,9,28432.051538792,28432.112306167,28432.78085025,28434.740899,1,0.772071540999605
114,16,5,categorization,0,bathroom,SHINEd_sun_apeeialkgkuxddgh.tif,42,0.0666666666666667,0.0666666666666667,1.86666666666667,28434.758850875,28435.778546625,13,28434.825297208,28434.89167475,28435.798127708,28437.658178917,1,1.01969574999748
114,17,5,categorization,0,kitchen,SHINEd_sun_auaiucuqpdausiva.tif,102,0.0666666666666667,0.0666666666666667,1.51666666666667,28437.67228975,28438.889237417,9,28437.738979,28437.80495925,28438.90747575,28440.417514625,1,1.21694766699875
114,18,5,categorization,0,bathroom,SHINEd_sun_ausgutylgojavyoq.tif,53,0.0666666666666667,0.0666666666666667,1.3,28440.433701792,28441.194388208,13,28440.500220833,28440.566486542,28441.222947125,28442.516331125,1,0.760686416000681
114,19,5,categorization,0,bathroom,SHINEd_sun_aoybiabnpadelefl.tif,41,0.0666666666666667,0.0666666666666667,1.91666666666667,28442.534998083,28443.552513792,9,28442.601655875,28442.667720875,28443.573374125,28445.483410708,0,1.0175157090016
114,20,5,categorization,0,bathroom,SHINEd_sun_azqyogdvyhahyram.tif,60,0.0666666666666667,0.0666666666666667,1.23333333333333,28445.500238125,28446.524681625,13,28445.5673825,28445.632916333,28446.539154625,28447.765847167,1,1.0244434999986
114,21,5,categorization,0,bathroom,SHINEd_sun_auzqhkafidnkrwmo.tif,54,0.0666666666666667,0.0666666666666667,0.866666666666667,28447.782920167,28448.523654792,13,28447.849332042,28447.9158275,28448.538323625,28449.398361208,1,0.740734625000186
114,22,5,categorization,0,kitchen,SHINEd_sun_amjjdeyrggfqgmom.tif,100,0.0666666666666667,0.0666666666666667,0.8,28449.414730292,28450.3212225,9,28449.481569583,28449.543114708,28450.329027833,28451.122365542,1,0.90649220799969
114,23,5,categorization,0,bathroom,SHINEd_sun_amzlamotzwfkwjco.tif,37,0.0666666666666667,0.0666666666666667,1.51666666666667,28451.128023042,28451.928714708,13,28451.189600375,28451.250769167,28451.936178833,28453.4462225,1,0.800691665997874
114,24,5,categorization,0,kitchen,SHINEd_sun_abdenxonkemggwsq.tif,69,0.0666666666666667,0.0666666666666667,1.18333333333333,28453.464605167,28454.197190417,9,28453.5318455,28453.597703,28454.222258333,28455.398961125,1,0.732585249999829
114,25,5,categorization,0,kitchen,SHINEd_sun_aixorpehvfykdynp.tif,95,0.0666666666666667,0.0666666666666667,1.6,28455.411296333,28456.442705333,9,28455.478635,28455.541583917,28456.466334958,28458.05970725,1,1.03140899999926
114,26,5,categorization,0,bathroom,SHINEd_sun_ambriybtogmepttm.tif,36,0.0666666666666667,0.0666666666666667,1.56666666666667,28458.079730792,28458.860648833,9,28458.147255458,28458.213132792,28458.887105833,28460.447150875,0,0.780918041000405
114,27,5,categorization,0,kitchen,SHINEd_sun_aehawpgmrlhlvcow.tif,81,0.0666666666666667,0.0666666666666667,1.36666666666667,28460.46615625,28461.32075625,13,28460.533228042,28460.598748708,28461.339150333,28462.699201125,0,0.854599999998754
114,28,5,categorization,0,bathroom,SHINEd_sun_asfwthctfqerjvxr.tif,49,0.0666666666666667,0.0666666666666667,1.53333333333333,28462.717870875,28463.579761917,9,28462.786754375,28462.851302542,28463.607229917,28465.133952625,0,0.861891042000934
114,29,5,categorization,0,bathroom,SHINEd_sun_atstyziqcmkahyxk.tif,51,0.0666666666666667,0.0666666666666667,1.4,28465.147902167,28465.870255625,13,28465.214989208,28465.281247417,28465.888615375,28467.281985375,1,0.722353458000725
114,30,5,categorization,0,bathroom,SHINEd_sun_aofnryafpsjimzsb.tif,40,0.0666666666666667,0.0666666666666667,1.06666666666667,28467.302812,28468.556878167,9,28467.370645208,28467.435616583,28468.579889958,28469.639936833,0,1.25406616699911
114,31,5,categorization,0,kitchen,SHINEd_sun_aqeaevwwwjoqhzvl.tif,101,0.0666666666666667,0.0666666666666667,1.63333333333333,28469.6487455,28470.581930667,9,28469.713752375,28469.78023475,28470.604690417,28472.231408292,1,0.933185166999465
114,32,5,categorization,0,kitchen,SHINEd_sun_agzzivivdpnawacl.tif,89,0.0666666666666667,0.0666666666666667,1.8,28472.251771542,28473.578376125,13,28472.319406542,28472.384457292,28473.590853333,28475.384239375,0,1.3266045829987
114,33,5,categorization,0,kitchen,SHINEd_sun_aymvwlarqodbwuoc.tif,108,0.0666666666666667,0.0666666666666667,1.53333333333333,28475.40281575,28476.498868417,9,28475.470187,28475.536316833,28476.527414,28478.054121875,1,1.09605266699873
114,34,5,categorization,0,kitchen,SHINEd_sun_aamedkxepzlwuxes.tif,65,0.0666666666666667,0.0666666666666667,0.766666666666667,28478.074158083,28478.913438833,9,28478.141128792,28478.206355292,28478.929475375,28479.689482458,1,0.839280749998579
114,35,5,categorization,0,kitchen,SHINEd_sun_abdxkyyxwfskuaqb.tif,70,0.0666666666666667,0.0666666666666667,1.86666666666667,28479.695798708,28480.521267083,9,28479.757668417,28479.818585792,28480.537069125,28482.397119708,1,0.825468375001947
114,36,5,categorization,0,kitchen,SHINEd_sun_aegoxogugdkwpmpj.tif,80,0.0666666666666667,0.0666666666666667,1.13333333333333,28482.41486475,28483.148721625,9,28482.481964542,28482.548090542,28483.17138625,28484.298111917,1,0.73385687499831
114,37,5,categorization,0,bathroom,SHINEd_sun_aqrpegblszgcoujh.tif,48,0.0666666666666667,0.0666666666666667,1.73333333333333,28484.309154125,28485.3056865,13,28484.374642708,28484.442059125,28485.331753167,28487.058471083,1,0.996532375000243
114,38,5,categorization,0,kitchen,SHINEd_labelme_brsyyvweiuaazfr.tif,61,0.0666666666666667,0.0666666666666667,0.766666666666667,28487.079247375,28488.258790667,9,28487.146380458,28487.212837333,28488.286759667,28489.046764042,1,1.17954329200074
114,39,5,categorization,0,bathroom,SHINEd_sun_anryaplzeujmzfkd.tif,39,0.0666666666666667,0.0666666666666667,1.85,28489.052005792,28489.993602042,9,28489.113784417,28489.174687667,28490.009805667,28491.853179625,0,0.941596249998838
114,40,5,categorization,0,bathroom,SHINEd_sun_apkxzenqapsujocq.tif,45,0.0666666666666667,0.0666666666666667,0.966666666666667,28491.871245542,28492.642517792,13,28491.938159958,28492.003740917,28492.6597175,28493.619720583,1,0.771272250000038
114,41,5,categorization,0,bathroom,SHINEd_sun_alotolagknyrgtsk.tif,35,0.0666666666666667,0.0666666666666667,1.06666666666667,28493.624641042,28494.632707083,9,28493.686330333,28493.747341958,28494.649071708,28495.709119417,0,1.00806604100217
114,42,5,categorization,0,bathroom,SHINEd_sun_avhrdrntsqrjzccq.tif,55,0.0666666666666667,0.0666666666666667,1.38333333333333,28495.718396125,28496.884039875,9,28495.782836208,28495.848645667,28496.908414625,28498.285131417,0,1.16564374999871
114,43,5,categorization,0,kitchen,SHINEd_sun_acgtpgfybqjmzeyw.tif,75,0.0666666666666667,0.0666666666666667,0.766666666666667,28498.302238833,28499.145276417,9,28498.36906725,28498.435219583,28499.175448792,28499.935502083,1,0.843037583999831
114,44,5,categorization,0,bathroom,SHINEd_sun_aunuadmjocsddsrl.tif,52,0.0666666666666667,0.0666666666666667,0.866666666666667,28499.948765542,28501.232974542,9,28500.011404458,28500.072408375,28501.241117833,28502.101122875,0,1.28420899999765
114,45,5,categorization,0,bathroom,SHINEd_sun_aavhrsfjbserjtht.tif,13,0.0666666666666667,0.0666666666666667,1.25,28502.106450542,28503.344803875,13,28502.1682985,28502.229193458,28503.364965292,28504.608344917,1,1.2383533329994
114,46,5,categorization,0,kitchen,SHINEd_sun_aexklacwqwezaorf.tif,84,0.0666666666666667,0.0666666666666667,1.03333333333333,28504.625756583,28505.465317417,9,28504.691955792,28504.758675958,28505.481117333,28506.507842042,1,0.83956083400335
114,47,5,categorization,0,bathroom,SHINEd_sun_apkruvsevgegsdwp.tif,44,0.0666666666666667,0.0666666666666667,0.783333333333333,28506.5194115,28507.293843292,13,28506.584040083,28506.648154083,28507.321264833,28508.097986208,1,0.774431791996903
114,48,5,categorization,0,kitchen,SHINEd_sun_ahljzhgcdpomplvg.tif,91,0.0666666666666667,0.0666666666666667,0.7,28508.113486833,28509.153262875,9,28508.180009708,28508.246085875,28509.165134958,28509.858472125,1,1.03977604199827
114,49,5,categorization,0,kitchen,SHINEd_sun_aadbddgrdsjugojn.tif,64,0.0666666666666667,0.0666666666666667,1.75,28509.863511458,28510.729066,9,28509.92535525,28509.986254,28510.738146917,28512.481516375,1,0.865554542000609
114,50,5,categorization,0,bathroom,SHINEd_sun_agguqiubmwhqqunb.tif,22,0.0666666666666667,0.0666666666666667,1.36666666666667,28512.498313042,28513.373446167,9,28512.56474125,28512.630675958,28513.403713333,28514.763799625,0,0.875133124998683
114,1,6,categorization,0,kitchen,SHINEd_sun_aggjlwcdjsjcaemh.tif,86,0.0666666666666667,0.0666666666666667,0.966666666666667,28521.767401292,28522.560535375,9,28521.829990542,28521.890165,28522.575488625,28523.535493792,1,0.793134083000041
114,2,6,categorization,0,bathroom,SHINEd_sun_aleqenyvunhactkl.tif,32,0.0666666666666667,0.0666666666666667,1.73333333333333,28523.540402583,28525.265332542,9,28523.602139458,28523.663217625,28525.282421083,28527.009134292,0,1.72492995900029
114,3,6,categorization,0,kitchen,SHINEd_sun_ahpczsiumwwocjkv.tif,92,0.0666666666666667,0.0666666666666667,1.91666666666667,28527.03012875,28527.722621875,9,28527.097460792,28527.16305675,28527.753656125,28529.663698542,1,0.692493124999601
114,4,6,categorization,0,kitchen,SHINEd_sun_aenotlpyftoioydp.tif,82,0.0666666666666667,0.0666666666666667,0.766666666666667,28529.678513667,28530.469215625,9,28529.745742708,28529.811571583,28530.484391167,28531.244394625,1,0.790701957997953
114,5,6,categorization,0,bathroom,SHINEd_sun_abjtwfukuwddzted.tif,15,0.0666666666666667,0.0666666666666667,0.916666666666667,28531.250587125,28531.928993042,13,28531.312247875,28531.373276667,28531.941865333,28532.851871333,1,0.678405916998599
114,6,6,categorization,0,bathroom,SHINEd_sun_apjevzvycyhuqghb.tif,43,0.0666666666666667,0.0666666666666667,1.18333333333333,28532.856792833,28533.568983917,9,28532.918681208,28532.979453917,28533.581260917,28534.757968542,0,0.712191083999642
114,7,6,categorization,0,kitchen,SHINEd_sun_axyyrmzcupyhlivc.tif,107,0.0666666666666667,0.0666666666666667,1.8,28534.769382792,28535.5320925,13,28534.836481125,28534.902063083,28535.558858583,28537.352237875,0,0.76270970800033
114,8,6,categorization,0,bathroom,SHINEd_sun_axyrejkiiaqiurjk.tif,59,0.0666666666666667,0.0666666666666667,0.883333333333333,28537.369887792,28538.170400375,9,28537.437201875,28537.500557958,28538.190199083,28539.066872292,0,0.800512582998635
114,9,6,categorization,0,bathroom,SHINEd_sun_axxbkopsgyouuebh.tif,58,0.0666666666666667,0.0666666666666667,1.83333333333333,28539.072750625,28539.785359208,13,28539.1344205,28539.19546075,28539.797156458,28541.623862792,1,0.712608582998655
114,10,6,categorization,0,kitchen,SHINEd_sun_adgqasybjyktddhj.tif,78,0.0666666666666667,0.0666666666666667,1.76666666666667,28541.641964333,28542.412989792,9,28541.708301583,28541.774876417,28542.431026167,28544.191076375,1,0.771025458998338
114,11,6,categorization,0,kitchen,SHINEd_sun_aypmqwcualkenuoe.tif,109,0.0666666666666667,0.0666666666666667,0.983333333333333,28544.209420167,28545.013819583,9,28544.276347625,28544.342329042,28545.0316185,28546.008289083,1,0.804399415999796
114,12,6,categorization,0,bathroom,SHINEd_sun_afcoljnjfoxjtgja.tif,20,0.0666666666666667,0.0666666666666667,0.883333333333333,28546.013689292,28546.776947458,9,28546.07540325,28546.136808792,28546.788617333,28547.665288958,0,0.763258166000014
114,13,6,categorization,0,kitchen,SHINEd_sun_ahywdevtimnqcsln.tif,94,0.0666666666666667,0.0666666666666667,0.85,28547.67009475,28548.704722292,9,28547.731749125,28547.792809542,28548.711177625,28549.554516,1,1.03462754200154
114,14,6,categorization,0,bathroom,SHINEd_sun_agyqfjcfkdcydepw.tif,25,0.0666666666666667,0.0666666666666667,0.733333333333333,28549.560652417,28550.304953542,13,28549.622436,28549.683315917,28550.318511042,28551.04518325,1,0.744301124999765
114,15,6,categorization,0,bathroom,SHINEd_sun_ahcvzmoyaycdoftf.tif,27,0.0666666666666667,0.0666666666666667,1.88333333333333,28551.050886458,28551.697145833,13,28551.112623583,28551.173552292,28551.708669583,28553.585368125,1,0.646259375000227
114,16,6,categorization,0,kitchen,SHINEd_labelme_rykdqxenmhulbdn.tif,63,0.0666666666666667,0.0666666666666667,0.816666666666667,28553.59690025,28554.435888625,9,28553.6638375,28553.729708375,28554.452224125,28555.262229708,1,0.838988375002373
114,17,6,categorization,0,kitchen,SHINEd_sun_azmutvzbxypaceni.tif,110,0.0666666666666667,0.0666666666666667,1.9,28555.267869875,28556.193027375,13,28555.329547042,28555.390558625,28556.20903,28558.102401042,0,0.92515750000166
114,18,6,categorization,0,kitchen,SHINEd_sun_acxkpeoqbwcxfvip.tif,77,0.0666666666666667,0.0666666666666667,0.983333333333333,28558.120050458,28558.877253292,9,28558.186704375,28558.252571875,28558.891462875,28559.868134792,1,0.757202834000054
114,19,6,categorization,0,bathroom,SHINEd_sun_awnqiikzaispgmwo.tif,56,0.0666666666666667,0.0666666666666667,0.75,28559.873153167,28560.569297667,13,28559.934980458,28559.995918542,28560.580995417,28561.324333625,1,0.696144500001537
114,20,6,categorization,0,kitchen,SHINEd_sun_aarfiyshqohlwkmo.tif,67,0.0666666666666667,0.0666666666666667,1.6,28561.32919425,28562.080823208,9,28561.39084875,28561.451800083,28562.087238833,28563.680610708,1,0.751628958001675
114,21,6,categorization,0,kitchen,SHINEd_sun_aapllqyqlykszopd.tif,66,0.0666666666666667,0.0666666666666667,1.58333333333333,28563.689967792,28564.721720167,9,28563.756555542,28563.822539,28564.745949167,28566.322656042,1,1.03175237499818
114,22,6,categorization,0,kitchen,SHINEd_sun_auticobqsbwgoppi.tif,104,0.0666666666666667,0.0666666666666667,1.11666666666667,28566.341175042,28567.145432208,9,28566.407605958,28566.473830542,28567.163060333,28568.273100833,1,0.804257166000752
114,23,6,categorization,0,kitchen,SHINEd_sun_abftihopvusyfakt.tif,71,0.0666666666666667,0.0666666666666667,1.53333333333333,28568.28405475,28569.075018625,9,28568.348814708,28568.416922583,28569.089234042,28570.615957125,1,0.790963874998852
114,24,6,categorization,0,bathroom,SHINEd_sun_aapitsgbtktqubfy.tif,12,0.0666666666666667,0.0666666666666667,1.48333333333333,28570.635211417,28571.539093167,13,28570.702004958,28570.76837525,28571.557147167,28573.033872042,1,0.903881750000437
114,25,6,categorization,0,kitchen,SHINEd_sun_akchetnepxlcxhsu.tif,98,0.0666666666666667,0.0666666666666667,1.1,28573.052431292,28573.710551875,9,28573.119284375,28573.184889375,28573.723778333,28574.817147292,1,0.658120583000709
114,26,6,categorization,0,bathroom,SHINEd_sun_ajlawzvmubibwbpy.tif,30,0.0666666666666667,0.0666666666666667,0.933333333333333,28574.82803075,28575.461719292,13,28574.893029833,28574.960826042,28575.484647292,28576.411364667,1,0.633688542002346
114,27,6,categorization,0,bathroom,SHINEd_sun_ahaulkltgpkeeemi.tif,26,0.0666666666666667,0.0666666666666667,0.816666666666667,28576.428802958,28577.248313625,13,28576.49585275,28576.561539708,28577.264018083,28578.074023042,1,0.81951066700276
114,28,6,categorization,0,kitchen,SHINEd_sun_abrcnpqqhmjwekyf.tif,73,0.0666666666666667,0.0666666666666667,1.78333333333333,28578.079843,28578.720855958,9,28578.141643708,28578.202595625,28578.7376575,28580.514375417,1,0.641012957999919
114,29,6,categorization,0,kitchen,SHINEd_sun_aeqdocilnnpuvuhx.tif,83,0.0666666666666667,0.0666666666666667,0.766666666666667,28580.523849542,28581.241453042,9,28580.590637833,28580.656241208,28581.263057792,28582.023061917,1,0.717603499997495
114,30,6,categorization,0,bathroom,SHINEd_sun_acduarbnmmoglmiv.tif,16,0.0666666666666667,0.0666666666666667,1.45,28582.029175708,28582.920391583,13,28582.090732292,28582.151871958,28582.937092875,28584.380469333,1,0.891215874999034
114,31,6,categorization,0,kitchen,SHINEd_sun_admlmbcdswaszruo.tif,79,0.0666666666666667,0.0666666666666667,0.75,28584.397998917,28585.069972167,9,28584.464503625,28584.530892958,28585.085984958,28585.829342792,1,0.6719732499987
114,32,6,categorization,0,kitchen,SHINEd_sun_ajcbwwvdlsvjyzje.tif,96,0.0666666666666667,0.0666666666666667,1.36666666666667,28585.839442583,28586.696401667,9,28585.906319292,28585.971945583,28586.70752275,28588.067581417,1,0.856959083997936
114,33,6,categorization,0,kitchen,SHINEd_sun_afuyedyxivkhecmu.tif,85,0.0666666666666667,0.0666666666666667,0.75,28588.084797167,28588.846250375,9,28588.151430333,28588.217613375,28588.874547333,28589.617914708,1,0.761453208000603
114,34,6,categorization,0,bathroom,SHINEd_sun_acgyywnybuveqsro.tif,18,0.0666666666666667,0.0666666666666667,0.783333333333333,28589.630218708,28590.320211667,13,28589.697731292,28589.763117958,28590.33224775,28591.108919917,1,0.689992958999937
114,35,6,categorization,0,bathroom,SHINEd_sun_aggnnqpdorgxpvce.tif,21,0.0666666666666667,0.0666666666666667,1.11666666666667,28591.114359417,28591.872402375,9,28591.17603775,28591.237111542,28591.88909475,28592.999140917,0,0.75804295800117
114,36,6,categorization,0,bathroom,SHINEd_sun_anhioqovhscjqqwb.tif,38,0.0666666666666667,0.0666666666666667,0.766666666666667,28593.011958458,28594.124485917,9,28593.07629625,28593.144544292,28594.150825667,28594.910865583,0,1.11252745900129
114,37,6,categorization,0,kitchen,SHINEd_sun_abpwyqmlzafvklqo.tif,72,0.0666666666666667,0.0666666666666667,0.716666666666667,28594.925898208,28596.080634833,9,28594.988587417,28595.048842125,28596.084042375,28596.794045958,1,1.15473662500153
114,38,6,categorization,0,bathroom,SHINEd_sun_acegryoqftbzowsg.tif,17,0.0666666666666667,0.0666666666666667,1.33333333333333,28596.798663458,28597.544791583,13,28596.860462208,28596.92130225,28597.55645075,28598.883155292,1,0.746128124999814
114,39,6,categorization,0,bathroom,SHINEd_sun_alkosphxlxwjwgjd.tif,34,0.0666666666666667,0.0666666666666667,1.75,28598.902025125,28599.569613292,13,28598.968528708,28599.034739625,28599.590362833,28601.333747917,1,0.66758816699803
114,40,6,categorization,0,kitchen,SHINEd_sun_agubuxuukhzyzpdp.tif,88,0.0666666666666667,0.0666666666666667,1.13333333333333,28601.347991167,28602.108888292,9,28601.413971875,28601.480162542,28602.136965625,28603.263676458,1,0.760897125001065
114,41,6,categorization,0,kitchen,SHINEd_sun_acwjdupvyjsugpay.tif,76,0.0666666666666667,0.0666666666666667,1.63333333333333,28603.274162167,28604.413521292,9,28603.339364542,28603.406762167,28604.430790417,28606.05750825,1,1.13935912500165
114,42,6,categorization,0,bathroom,SHINEd_sun_aspsyogrekjtfozg.tif,50,0.0666666666666667,0.0666666666666667,1.43333333333333,28606.069111542,28606.6991495,13,28606.135827125,28606.202167375,28606.725290458,28608.152005875,1,0.630037957998866
114,43,6,categorization,0,kitchen,SHINEd_sun_akcjzhbbjlbogpdi.tif,99,0.0666666666666667,0.0666666666666667,1.83333333333333,28608.169571417,28609.028964125,9,28608.236302542,28608.302271375,28609.058791583,28610.885512208,1,0.859392708000087
114,44,6,categorization,0,kitchen,SHINEd_sun_agorklincwxrdtga.tif,87,0.0666666666666667,0.0666666666666667,1.93333333333333,28610.903520417,28611.620023333,9,28610.970587,28611.036158458,28611.642436792,28613.569154083,1,0.716502915998717
114,45,6,categorization,0,kitchen,SHINEd_sun_awcpdzzznmweyyhv.tif,106,0.0666666666666667,0.0666666666666667,1.26666666666667,28613.585243125,28614.318387042,9,28613.652510125,28613.71804475,28614.340904917,28615.600930292,1,0.733143917001144
114,46,6,categorization,0,kitchen,SHINEd_sun_ahdycvpopffkzzsu.tif,90,0.0666666666666667,0.0666666666666667,1.86666666666667,28615.614920292,28616.493520958,9,28615.680123375,28615.747984875,28616.521187625,28618.381247333,1,0.878600666001148
114,47,6,categorization,0,bathroom,SHINEd_sun_apmqjbnwghzuhhzh.tif,46,0.0666666666666667,0.0666666666666667,1.41666666666667,28618.39902225,28619.205799833,13,28618.466193708,28618.5321775,28619.221477833,28620.631516625,1,0.80677758299862
114,48,6,categorization,0,bathroom,SHINEd_sun_ahqjwnzgolcaoidx.tif,29,0.0666666666666667,0.0666666666666667,1.11666666666667,28620.650121458,28621.341550708,13,28620.716990083,28620.784201292,28621.356852667,28622.466892083,1,0.69142925000051
114,49,6,categorization,0,bathroom,SHINEd_sun_aghyqhbptboemmoq.tif,23,0.0666666666666667,0.0666666666666667,1.8,28622.477263167,28623.334143792,13,28622.541812,28622.610026208,28623.348942333,28625.142328958,1,0.856880625000485
114,50,6,categorization,0,kitchen,SHINEd_sun_aunzlwrbjumxhwdj.tif,103,0.0666666666666667,0.0666666666666667,1.25,28625.161982292,28625.921696167,9,28625.228987958,28625.29462475,28625.951402792,28627.19479425,1,0.759713874998852
114,1,7,categorization,0,bathroom,SHINEd_sun_ahcvzmoyaycdoftf.tif,27,0.0666666666666667,0.0666666666666667,0.883333333333333,28633.370806333,28634.025042708,13,28633.4333025,28633.493533708,28634.028679792,28634.905351667,1,0.654236374997708
114,2,7,categorization,0,kitchen,SHINEd_labelme_kxvouciolcpqplr.tif,62,0.0666666666666667,0.0666666666666667,1.03333333333333,28634.910243917,28635.616429625,9,28634.971839208,28635.032864375,28635.634674583,28636.661376167,1,0.706185708000703
114,3,7,categorization,0,bathroom,SHINEd_sun_aggnnqpdorgxpvce.tif,21,0.0666666666666667,0.0666666666666667,1.06666666666667,28636.672253917,28637.448391083,9,28636.736569542,28636.8033085,28637.476463042,28638.536522625,0,0.77613716599808
114,4,7,categorization,0,bathroom,SHINEd_sun_auzqhkafidnkrwmo.tif,54,0.0666666666666667,0.0666666666666667,0.833333333333333,28638.552913292,28639.280847875,9,28638.61910325,28638.678603125,28639.297012875,28640.12368525,0,0.727934583002934
114,5,7,categorization,0,bathroom,SHINEd_sun_ambriybtogmepttm.tif,36,0.0666666666666667,0.0666666666666667,0.716666666666667,28640.128592917,28640.720733667,9,28640.190193917,28640.251318208,28640.736458542,28641.446464125,0,0.592140749999089
114,6,7,categorization,0,bathroom,SHINEd_sun_axxbkopsgyouuebh.tif,58,0.0666666666666667,0.0666666666666667,0.733333333333333,28641.452051667,28642.152241875,9,28641.513644417,28641.574766958,28642.160040042,28642.886710583,0,0.700190207997366
114,7,7,categorization,0,bathroom,SHINEd_sun_aqrpegblszgcoujh.tif,48,0.0666666666666667,0.0666666666666667,1.38333333333333,28642.893919167,28643.512798042,9,28642.955561375,28643.016613625,28643.518399542,28644.895108792,0,0.618878875000519
114,8,7,categorization,0,kitchen,SHINEd_sun_aypmqwcualkenuoe.tif,109,0.0666666666666667,0.0666666666666667,0.9,28644.912478667,28645.640739375,9,28644.979016292,28645.045652417,28645.649771292,28646.543149542,1,0.728260708001471
114,9,7,categorization,0,bathroom,SHINEd_sun_apjevzvycyhuqghb.tif,43,0.0666666666666667,0.0666666666666667,0.816666666666667,28646.559783042,28647.384186542,9,28646.622509708,28646.682667208,28647.401138792,28648.211143667,0,0.82440349999888
114,10,7,categorization,0,kitchen,SHINEd_sun_agzzivivdpnawacl.tif,89,0.0666666666666667,0.0666666666666667,0.85,28648.216253833,28649.121006958,9,28648.277946125,28648.338937083,28649.124392292,28649.967731375,1,0.904753124999843
114,11,7,categorization,0,bathroom,SHINEd_sun_alkosphxlxwjwgjd.tif,34,0.0666666666666667,0.0666666666666667,1.6,28649.972592333,28650.760269583,13,28650.03432,28650.095320083,28650.763967875,28652.357346875,1,0.787677249998524
114,12,7,categorization,0,bathroom,SHINEd_sun_ahijqszoswveeyji.tif,28,0.0666666666666667,0.0666666666666667,1.75,28652.375641417,28653.801683083,9,28652.442813708,28652.509143,28653.81274725,28655.556126875,0,1.42604166599995
114,13,7,categorization,0,bathroom,SHINEd_sun_anryaplzeujmzfkd.tif,39,0.0666666666666667,0.0666666666666667,1.1,28655.566901,28656.522864375,9,28655.635477208,28655.699585375,28656.539005708,28657.632388917,0,0.955963375003194
114,14,7,categorization,0,kitchen,SHINEd_sun_abftihopvusyfakt.tif,71,0.0666666666666667,0.0666666666666667,1.46666666666667,28657.643895583,28658.499958125,9,28657.708777,28657.776652917,28658.515682917,28659.975729542,1,0.856062541999563
114,15,7,categorization,0,bathroom,SHINEd_sun_aljolscmmzydegqp.tif,33,0.0666666666666667,0.0666666666666667,1.25,28659.995148375,28660.72772275,13,28660.061882958,28660.12782075,28660.750884667,28661.994260208,1,0.732574375000695
114,16,7,categorization,0,bathroom,SHINEd_sun_agguqiubmwhqqunb.tif,22,0.0666666666666667,0.0666666666666667,1.13333333333333,28662.010578833,28662.808041125,9,28662.076896667,28662.143464042,28662.83347475,28663.960179708,0,0.797462292001001
114,17,7,categorization,0,kitchen,SHINEd_sun_aixorpehvfykdynp.tif,95,0.0666666666666667,0.0666666666666667,1.33333333333333,28663.973361875,28664.908617667,9,28664.040002,28664.106184792,28664.928984208,28666.255699208,1,0.935255791999225
114,18,7,categorization,0,kitchen,SHINEd_sun_ahljzhgcdpomplvg.tif,91,0.0666666666666667,0.0666666666666667,1.86666666666667,28666.274146417,28667.092309042,9,28666.342212333,28666.406811167,28667.113214375,28668.9732735,1,0.818162625000696
114,19,7,categorization,0,kitchen,SHINEd_labelme_brsyyvweiuaazfr.tif,61,0.0666666666666667,0.0666666666666667,1.58333333333333,28668.991115042,28669.828718167,9,28669.057819708,28669.124323625,28669.847321583,28671.42402925,1,0.837603124997258
114,20,7,categorization,0,kitchen,SHINEd_sun_acxkpeoqbwcxfvip.tif,77,0.0666666666666667,0.0666666666666667,1.05,28671.442092583,28672.187363125,9,28671.507212625,28671.574120167,28672.214151667,28673.25753175,1,0.745270541996433
114,21,7,categorization,0,bathroom,SHINEd_sun_aunuadmjocsddsrl.tif,52,0.0666666666666667,0.0666666666666667,0.9,28673.272720875,28673.984734792,9,28673.337279917,28673.403814708,28674.010353833,28674.903724458,0,0.712013917000149
114,22,7,categorization,0,kitchen,SHINEd_sun_aaxxjlsuzvqlgylf.tif,68,0.0666666666666667,0.0666666666666667,0.7,28674.915967333,28675.735959583,9,28674.98304025,28675.048531458,28675.750855958,28676.444194,1,0.819992249998904
114,23,7,categorization,0,bathroom,SHINEd_sun_ahaulkltgpkeeemi.tif,26,0.0666666666666667,0.0666666666666667,0.933333333333333,28676.449061208,28677.303983542,13,28676.51083225,28676.571677292,28677.3239575,28678.25063025,1,0.85492233399782
114,24,7,categorization,0,kitchen,SHINEd_sun_axyyrmzcupyhlivc.tif,107,0.0666666666666667,0.0666666666666667,1.95,28678.255935,28678.976020708,9,28678.317570042,28678.378608333,28678.980778375,28680.9241475,1,0.720085707998805
114,25,7,categorization,0,kitchen,SHINEd_sun_akchetnepxlcxhsu.tif,98,0.0666666666666667,0.0666666666666667,1.06666666666667,28680.938943458,28681.659548708,13,28681.005496208,28681.071418125,28681.676202458,28682.736237917,0,0.720605250000517
114,26,7,categorization,0,bathroom,SHINEd_sun_apkxzenqapsujocq.tif,45,0.0666666666666667,0.0666666666666667,1.2,28682.747654458,28683.395572875,13,28682.811990833,28682.8790255,28683.4188445,28684.612231625,1,0.647918417002074
114,27,7,categorization,0,kitchen,SHINEd_sun_ahdycvpopffkzzsu.tif,90,0.0666666666666667,0.0666666666666667,0.75,28684.629421667,28685.295989708,9,28684.695905458,28684.755385708,28685.307451542,28686.050789458,1,0.666568041000573
114,28,7,categorization,0,kitchen,SHINEd_sun_agorklincwxrdtga.tif,87,0.0666666666666667,0.0666666666666667,0.816666666666667,28686.056050667,28686.808683625,9,28686.117685333,28686.178746667,28686.814087542,28687.624092333,1,0.752632957999595
114,29,7,categorization,0,bathroom,SHINEd_sun_amzlamotzwfkwjco.tif,37,0.0666666666666667,0.0666666666666667,1.96666666666667,28687.6291045,28688.496490917,13,28687.690896583,28687.751850792,28688.503922458,28690.463973667,1,0.867386417001399
114,30,7,categorization,0,bathroom,SHINEd_sun_axldvoqbuvuggfmq.tif,57,0.0666666666666667,0.0666666666666667,1.2,28690.481370167,28691.129123792,9,28690.547979417,28690.614557042,28691.154507375,28692.347861917,0,0.647753625002224
114,31,7,categorization,0,kitchen,SHINEd_sun_acgtpgfybqjmzeyw.tif,75,0.0666666666666667,0.0666666666666667,0.883333333333333,28692.36025525,28693.130430125,9,28692.427481,28692.492684,28693.148877292,28694.025582875,1,0.770174874996883
114,32,7,categorization,0,kitchen,SHINEd_sun_agubuxuukhzyzpdp.tif,88,0.0666666666666667,0.0666666666666667,1.33333333333333,28694.042145667,28694.751973417,9,28694.108995292,28694.1748195,28694.760388042,28696.087094667,1,0.709827749997203
114,33,7,categorization,0,kitchen,SHINEd_sun_aadbddgrdsjugojn.tif,64,0.0666666666666667,0.0666666666666667,1.45,28696.103283417,28696.771241042,9,28696.169818083,28696.236291125,28696.792287125,28698.235663125,1,0.667957624998962
114,34,7,categorization,0,kitchen,SHINEd_sun_adgqasybjyktddhj.tif,78,0.0666666666666667,0.0666666666666667,1.15,28698.253287167,28698.935575833,9,28698.320021708,28698.386373833,28698.959298958,28700.102691,1,0.682288665997476
114,35,7,categorization,0,bathroom,SHINEd_sun_afcoljnjfoxjtgja.tif,20,0.0666666666666667,0.0666666666666667,0.966666666666667,28700.112868667,28700.892622042,9,28700.179480708,28700.245643958,28700.918833875,28701.878881,0,0.779753374998108
114,36,7,categorization,0,bathroom,SHINEd_sun_agrwbmhcpmfuwmsg.tif,24,0.0666666666666667,0.0666666666666667,1.45,28701.89522425,28702.648305917,9,28701.962125167,28702.027928125,28702.66339125,28704.106779333,0,0.753081666996877
114,37,7,categorization,0,kitchen,SHINEd_sun_avszsnwsbuqfgzbn.tif,105,0.0666666666666667,0.0666666666666667,0.8,28704.124558417,28704.784907042,9,28704.190851125,28704.257321833,28704.813840625,28705.607198875,1,0.660348625002371
114,38,7,categorization,0,kitchen,SHINEd_sun_ajcbwwvdlsvjyzje.tif,96,0.0666666666666667,0.0666666666666667,1.45,28705.617077917,28706.328425167,13,28705.68332975,28705.74957075,28706.335449667,28707.778833042,0,0.711347250002291
114,39,7,categorization,0,bathroom,SHINEd_sun_aghyqhbptboemmoq.tif,23,0.0666666666666667,0.0666666666666667,1.1,28707.796194167,28708.528884958,9,28707.862553292,28707.92915425,28708.552414167,28709.645794083,0,0.732690790999186
114,40,7,categorization,0,kitchen,SHINEd_sun_acfmftudsenhrfhy.tif,74,0.0666666666666667,0.0666666666666667,1.16666666666667,28709.655108167,28710.308618292,9,28709.719721458,28709.786661875,28710.325882958,28711.485922292,1,0.653510125001048
114,41,7,categorization,0,bathroom,SHINEd_sun_abapwbhyhkfixyex.tif,14,0.0666666666666667,0.0666666666666667,1.31666666666667,28711.499965292,28712.271651042,9,28711.564496417,28711.623345667,28712.2755035,28713.585544958,0,0.771685749998142
114,42,7,categorization,0,bathroom,SHINEd_sun_abjtwfukuwddzted.tif,15,0.0666666666666667,0.0666666666666667,1.68333333333333,28713.601548208,28714.242439958,13,28713.668386458,28713.734396042,28714.257077792,28715.933800208,1,0.640891750001174
114,43,7,categorization,0,kitchen,SHINEd_sun_auticobqsbwgoppi.tif,104,0.0666666666666667,0.0666666666666667,0.966666666666667,28715.952594542,28716.833943625,13,28716.01956,28716.085429083,28716.859194958,28717.819202625,0,0.881349082999805
114,44,7,categorization,0,kitchen,SHINEd_sun_awcpdzzznmweyyhv.tif,106,0.0666666666666667,0.0666666666666667,1.4,28717.824224292,28718.592224375,9,28717.886030292,28717.946889792,28718.598853625,28719.99224675,1,0.768000083000516
114,45,7,categorization,0,bathroom,SHINEd_sun_agyqfjcfkdcydepw.tif,25,0.0666666666666667,0.0666666666666667,0.783333333333333,28720.011795292,28720.901545417,9,28720.07841675,28720.144488,28720.916864792,28721.693537708,0,0.889750124999409
114,46,7,categorization,0,kitchen,SHINEd_sun_amjjdeyrggfqgmom.tif,100,0.0666666666666667,0.0666666666666667,1.08333333333333,28721.699231458,28722.503748917,9,28721.761053458,28721.821966042,28722.506929458,28723.583633708,1,0.804517459000635
114,47,7,categorization,0,bathroom,SHINEd_sun_aavhrsfjbserjtht.tif,13,0.0666666666666667,0.0666666666666667,1.43333333333333,28723.593999292,28724.331973833,9,28723.65829175,28723.72505125,28724.34726825,28725.773987208,0,0.737974540999858
114,48,7,categorization,0,bathroom,SHINEd_sun_acegryoqftbzowsg.tif,17,0.0666666666666667,0.0666666666666667,1.75,28725.792670667,28726.603621375,9,28725.859299625,28725.925331542,28726.63139225,28728.374782583,0,0.810950708000746
114,49,7,categorization,0,bathroom,SHINEd_sun_aspsyogrekjtfozg.tif,50,0.0666666666666667,0.0666666666666667,1.21666666666667,28728.396113542,28729.048756333,13,28728.462627917,28728.528808208,28729.068510208,28730.278558333,1,0.65264279099938
114,50,7,categorization,0,kitchen,SHINEd_sun_ahywdevtimnqcsln.tif,94,0.0666666666666667,0.0666666666666667,1.31666666666667,28730.295854875,28730.901930083,9,28730.36260825,28730.428487583,28730.917741458,28732.227800917,1,0.60607520800113
114,1,8,categorization,0,bathroom,SHINEd_sun_ausgutylgojavyoq.tif,53,0.0666666666666667,0.0666666666666667,1.18333333333333,28741.621184417,28742.3925205,13,28741.683569792,28741.743874708,28742.395588625,28743.572307042,1,0.771336083002097
114,2,8,categorization,0,bathroom,SHINEd_sun_acduarbnmmoglmiv.tif,16,0.0666666666666667,0.0666666666666667,0.983333333333333,28743.581130083,28744.396264083,13,28743.648311583,28743.713851833,28744.420736667,28745.397454042,1,0.815134000000398
114,3,8,categorization,0,bathroom,SHINEd_sun_axyrejkiiaqiurjk.tif,59,0.0666666666666667,0.0666666666666667,1.65,28745.413204042,28746.224367333,9,28745.479961083,28745.537917375,28746.240062708,28747.883432625,0,0.811163291000412
114,4,8,categorization,0,kitchen,SHINEd_sun_aenotlpyftoioydp.tif,82,0.0666666666666667,0.0666666666666667,1.23333333333333,28747.901107292,28748.782042417,9,28747.967815375,28748.033719625,28748.806858292,28750.033566125,1,0.880935124998359
114,5,8,categorization,0,bathroom,SHINEd_sun_aofnryafpsjimzsb.tif,40,0.0666666666666667,0.0666666666666667,0.916666666666667,28750.051492333,28750.7780795,9,28750.118312667,28750.183923792,28750.806785667,28751.716833167,0,0.726587166998797
114,6,8,categorization,0,bathroom,SHINEd_sun_apmqjbnwghzuhhzh.tif,46,0.0666666666666667,0.0666666666666667,1.56666666666667,28751.734001542,28752.432369208,13,28751.800840333,28751.866513042,28752.451839833,28754.011872542,1,0.698367665998376
114,7,8,categorization,0,bathroom,SHINEd_sun_aleqenyvunhactkl.tif,32,0.0666666666666667,0.0666666666666667,1.63333333333333,28754.029727042,28754.751824417,13,28754.097087083,28754.162682625,28754.7695995,28756.39631275,1,0.722097374997247
114,8,8,categorization,0,kitchen,SHINEd_sun_akcjzhbbjlbogpdi.tif,99,0.0666666666666667,0.0666666666666667,1.1,28756.414607042,28757.127467417,9,28756.482034458,28756.547981958,28757.155441583,28758.248824125,1,0.712860375002492
114,9,8,categorization,0,kitchen,SHINEd_sun_ahspylgoovwmwvgk.tif,93,0.0666666666666667,0.0666666666666667,1.38333333333333,28758.259849583,28759.483353333,9,28758.325396417,28758.392792292,28759.49960125,28760.876303333,1,1.22350374999951
114,10,8,categorization,0,bathroom,SHINEd_sun_apkruvsevgegsdwp.tif,44,0.0666666666666667,0.0666666666666667,0.766666666666667,28760.895959125,28761.476767875,13,28760.96347575,28761.02924425,28761.501688167,28762.261722667,1,0.58080875000087
114,11,8,categorization,0,bathroom,SHINEd_sun_akiytfaagpdsphgz.tif,31,0.0666666666666667,0.0666666666666667,1.45,28762.279360792,28763.079945708,13,28762.346598833,28762.412758208,28763.098358792,28764.5417315,1,0.800584915999934
114,12,8,categorization,0,bathroom,SHINEd_labelme_sfxiulhjbhlyiyt.tif,11,0.0666666666666667,0.0666666666666667,0.983333333333333,28764.561302542,28765.2028035,13,28764.628317292,28764.694286542,28765.216661792,28766.193336458,1,0.641500958001416
114,13,8,categorization,0,kitchen,SHINEd_sun_azmutvzbxypaceni.tif,110,0.0666666666666667,0.0666666666666667,0.716666666666667,28766.199257292,28767.072456292,9,28766.260941875,28766.322144125,28767.090861792,28767.800865542,1,0.873199000001478
114,14,8,categorization,0,bathroom,SHINEd_sun_aclfzgynxzxlbepz.tif,19,0.0666666666666667,0.0666666666666667,1.41666666666667,28767.805634292,28768.6721835,13,28767.867402792,28767.928332708,28768.680113792,28770.090154,1,0.866549207999924
114,15,8,categorization,0,bathroom,SHINEd_sun_apynckhmoftszqoq.tif,47,0.0666666666666667,0.0666666666666667,1.21666666666667,28770.10909075,28770.975428125,13,28770.175797792,28770.241535417,28770.998211042,28772.208262125,1,0.866337374998693
114,16,8,categorization,0,bathroom,SHINEd_sun_anhioqovhscjqqwb.tif,38,0.0666666666666667,0.0666666666666667,1.61666666666667,28772.228243417,28773.057408042,13,28772.294521042,28772.361231375,28773.084707833,28774.694766875,1,0.829164624999976
114,17,8,categorization,0,bathroom,SHINEd_sun_ajlawzvmubibwbpy.tif,30,0.0666666666666667,0.0666666666666667,0.783333333333333,28774.712219417,28775.455551833,13,28774.778896917,28774.84500175,28775.484990208,28776.261665917,1,0.743332416001067
114,18,8,categorization,0,bathroom,SHINEd_sun_azqyogdvyhahyram.tif,60,0.0666666666666667,0.0666666666666667,1.98333333333333,28776.267587708,28776.903889833,13,28776.329220958,28776.3904245,28776.908933167,28778.885639375,1,0.636302124999929
114,19,8,categorization,0,kitchen,SHINEd_sun_aegoxogugdkwpmpj.tif,80,0.0666666666666667,0.0666666666666667,0.983333333333333,28778.904257875,28779.523162333,9,28778.971505708,28779.036982333,28779.542871333,28780.519542375,1,0.618904457998724
114,20,8,categorization,0,kitchen,SHINEd_sun_abdxkyyxwfskuaqb.tif,70,0.0666666666666667,0.0666666666666667,0.8,28780.526214583,28781.280018042,9,28780.587993833,28780.648863,28781.284296167,28782.077635125,1,0.753803459003393
114,21,8,categorization,0,kitchen,SHINEd_sun_aehawpgmrlhlvcow.tif,81,0.0666666666666667,0.0666666666666667,0.733333333333333,28782.082543625,28782.783888083,13,28782.144192917,28782.205186167,28782.790482375,28783.517152375,0,0.701344457997038
114,22,8,categorization,0,bathroom,SHINEd_sun_aapitsgbtktqubfy.tif,12,0.0666666666666667,0.0666666666666667,0.966666666666667,28783.522528958,28784.264388167,13,28783.584186417,28783.645244833,28784.280717292,28785.240721792,1,0.741859208999813
114,23,8,categorization,0,kitchen,SHINEd_sun_aqeaevwwwjoqhzvl.tif,101,0.0666666666666667,0.0666666666666667,0.866666666666667,28785.246415,28785.911356917,9,28785.308056,28785.369074958,28785.92092525,28786.780929583,1,0.664941916998941
114,24,8,categorization,0,kitchen,SHINEd_labelme_rykdqxenmhulbdn.tif,63,0.0666666666666667,0.0666666666666667,1.23333333333333,28786.785797833,28787.511332375,9,28786.847419083,28786.908436,28787.526909083,28788.753629167,1,0.725534542001697
114,25,8,categorization,0,kitchen,SHINEd_sun_acwjdupvyjsugpay.tif,76,0.0666666666666667,0.0666666666666667,1.9,28788.770932292,28789.412762,9,28788.8376115,28788.903712,28789.425992208,28791.319392208,1,0.641829707998113
114,26,8,categorization,0,kitchen,SHINEd_sun_abdenxonkemggwsq.tif,69,0.0666666666666667,0.0666666666666667,0.866666666666667,28791.337786958,28792.013871583,9,28791.404284,28791.470425208,28792.043529958,28792.903535,1,0.67608462499993
114,27,8,categorization,0,bathroom,SHINEd_sun_aoybiabnpadelefl.tif,41,0.0666666666666667,0.0666666666666667,0.966666666666667,28792.909480125,28793.576028167,9,28792.971173708,28793.032234125,28793.583866292,28794.543871917,0,0.666548042001523
114,28,8,categorization,0,bathroom,SHINEd_sun_apeeialkgkuxddgh.tif,42,0.0666666666666667,0.0666666666666667,0.916666666666667,28794.549414042,28795.320021042,13,28794.611093917,28794.67201725,28795.32387675,28796.233881042,1,0.770606999998563
114,29,8,categorization,0,kitchen,SHINEd_sun_aggjlwcdjsjcaemh.tif,86,0.0666666666666667,0.0666666666666667,0.916666666666667,28796.238783042,28797.063536125,9,28796.300551417,28796.361525583,28797.080125417,28797.990130167,1,0.824753082997631
114,30,8,categorization,0,kitchen,SHINEd_sun_aamedkxepzlwuxes.tif,65,0.0666666666666667,0.0666666666666667,1.4,28797.996079583,28798.879955792,9,28798.057722792,28798.118683708,28798.887075333,28800.28046225,1,0.883876208998117
114,31,8,categorization,0,bathroom,SHINEd_sun_alotolagknyrgtsk.tif,35,0.0666666666666667,0.0666666666666667,1.75,28800.298445042,28801.004770125,9,28800.365276792,28800.431128417,28801.019819417,28802.763212958,0,0.706325082999683
114,32,8,categorization,0,kitchen,SHINEd_sun_aymvwlarqodbwuoc.tif,108,0.0666666666666667,0.0666666666666667,1.25,28802.779092917,28803.472001083,13,28802.845618667,28802.911926542,28803.500285833,28804.743658833,0,0.692908165998233
114,33,8,categorization,0,kitchen,SHINEd_sun_admlmbcdswaszruo.tif,79,0.0666666666666667,0.0666666666666667,1.05,28804.761035167,28805.47936075,9,28804.827824792,28804.8936175,28805.498854417,28806.542231375,1,0.718325582998659
114,34,8,categorization,0,bathroom,SHINEd_sun_atstyziqcmkahyxk.tif,51,0.0666666666666667,0.0666666666666667,1.06666666666667,28806.560898792,28807.207654125,13,28806.623561292,28806.683530542,28807.218649417,28808.278695083,1,0.646755333000328
114,35,8,categorization,0,kitchen,SHINEd_sun_aapllqyqlykszopd.tif,66,0.0666666666666667,0.0666666666666667,1.21666666666667,28808.288664542,28808.995266792,9,28808.353524208,28808.41927725,28809.00818125,28810.218232625,1,0.706602250000287
114,36,8,categorization,0,kitchen,SHINEd_sun_ahpczsiumwwocjkv.tif,92,0.0666666666666667,0.0666666666666667,0.95,28810.236623417,28810.951843417,9,28810.303567458,28810.361684708,28810.963638542,28811.906975417,1,0.715219999998226
114,37,8,categorization,0,bathroom,SHINEd_sun_awnqiikzaispgmwo.tif,56,0.0666666666666667,0.0666666666666667,0.9,28811.9121245,28812.495803833,13,28811.973888083,28812.034796542,28812.503181125,28813.39652075,1,0.583679333001783
114,38,8,categorization,0,kitchen,SHINEd_sun_auaiucuqpdausiva.tif,102,0.0666666666666667,0.0666666666666667,1.78333333333333,28813.40215625,28814.063411333,9,28813.463744125,28813.524815292,28814.076622833,28815.853334708,1,0.661255083003198
114,39,8,categorization,0,bathroom,SHINEd_sun_avhrdrntsqrjzccq.tif,55,0.0666666666666667,0.0666666666666667,1.16666666666667,28815.869885708,28816.455567375,13,28815.936299167,28816.002530792,28816.475228625,28817.635268833,1,0.585681666998425
114,40,8,categorization,0,bathroom,SHINEd_sun_acgyywnybuveqsro.tif,18,0.0666666666666667,0.0666666666666667,0.783333333333333,28817.644430417,28818.2746905,13,28817.709410167,28817.777065458,28818.299835833,28819.076561583,1,0.630260082998575
114,41,8,categorization,0,kitchen,SHINEd_sun_afuyedyxivkhecmu.tif,85,0.0666666666666667,0.0666666666666667,1.23333333333333,28819.094121625,28819.8960335,9,28819.161040792,28819.226565542,28819.91190325,28821.138604375,1,0.801911875001679
114,42,8,categorization,0,kitchen,SHINEd_sun_aunzlwrbjumxhwdj.tif,103,0.0666666666666667,0.0666666666666667,0.9,28821.155605458,28821.912792708,9,28821.221902042,28821.288452208,28821.927665,28822.821033542,1,0.757187250001152
114,43,8,categorization,0,bathroom,SHINEd_sun_ahqjwnzgolcaoidx.tif,29,0.0666666666666667,0.0666666666666667,0.7,28822.837388208,28823.520238875,13,28822.903737375,28822.969871958,28823.538977708,28824.2323155,1,0.682850666999002
114,44,8,categorization,0,kitchen,SHINEd_sun_abpwyqmlzafvklqo.tif,72,0.0666666666666667,0.0666666666666667,1.23333333333333,28824.238095042,28825.159647083,9,28824.299677667,28824.360717833,28825.179109167,28826.40584125,1,0.921552040999813
114,45,8,categorization,0,kitchen,SHINEd_sun_abrcnpqqhmjwekyf.tif,73,0.0666666666666667,0.0666666666666667,1,28826.422864625,28827.115466458,9,28826.489218292,28826.55519175,28827.14495675,28828.138348958,1,0.692601832997752
114,46,8,categorization,0,kitchen,SHINEd_sun_aarfiyshqohlwkmo.tif,67,0.0666666666666667,0.0666666666666667,1.38333333333333,28828.154406542,28828.9360625,9,28828.2171435,28828.277123417,28828.945895417,28830.322603083,1,0.781655958002375
114,47,8,categorization,0,bathroom,SHINEd_sun_asfwthctfqerjvxr.tif,49,0.0666666666666667,0.0666666666666667,1.3,28830.3412775,28831.522084875,13,28830.408357,28830.473871375,28831.548908792,28832.842292083,1,1.18080737499986
114,48,8,categorization,0,kitchen,SHINEd_sun_ajkqhtgcbgpcwrwn.tif,97,0.0666666666666667,0.0666666666666667,0.833333333333333,28832.861525542,28833.53018775,13,28832.928196,28832.994123208,28833.549197958,28834.37591875,0,0.668662207997841
114,49,8,categorization,0,kitchen,SHINEd_sun_aexklacwqwezaorf.tif,84,0.0666666666666667,0.0666666666666667,0.95,28834.394600667,28835.367809,13,28834.461451417,28834.527059042,28835.379687125,28836.323024083,0,0.973208332998183
114,50,8,categorization,0,kitchen,SHINEd_sun_aeqdocilnnpuvuhx.tif,83,0.0666666666666667,0.0666666666666667,1.43333333333333,28836.327976,28837.103417708,9,28836.389750708,28836.450481,28837.119296333,28838.546008167,1,0.775441707999562
114,1,9,categorization,0,bathroom,SHINEd_sun_aspsyogrekjtfozg.tif,50,0.0666666666666667,0.0666666666666667,1.08333333333333,28872.814021167,28873.59119125,13,28872.876521833,28872.936696083,28873.605081583,28874.681782,1,0.777170083001693
114,2,9,categorization,0,bathroom,SHINEd_sun_aofnryafpsjimzsb.tif,40,0.0666666666666667,0.0666666666666667,0.8,28874.692892,28875.379868417,9,28874.757522333,28874.823435208,28875.396050542,28876.189433042,0,0.686976417000551
114,3,9,categorization,0,kitchen,SHINEd_sun_abdenxonkemggwsq.tif,69,0.0666666666666667,0.0666666666666667,0.833333333333333,28876.206565875,28876.967225792,13,28876.272875625,28876.337691667,28876.973540583,28877.80021125,0,0.76065991699943
114,4,9,categorization,0,kitchen,SHINEd_sun_ahljzhgcdpomplvg.tif,91,0.0666666666666667,0.0666666666666667,1.45,28877.805166583,28878.640044042,9,28877.866932542,28877.927737875,28878.64638,28880.089749625,1,0.834877459001291
114,5,9,categorization,0,bathroom,SHINEd_sun_apeeialkgkuxddgh.tif,42,0.0666666666666667,0.0666666666666667,1.3,28880.107260667,28880.752864542,13,28880.173523208,28880.238295667,28880.778242417,28882.0716265,1,0.645603875000234
114,6,9,categorization,0,kitchen,SHINEd_sun_awcpdzzznmweyyhv.tif,106,0.0666666666666667,0.0666666666666667,1.21666666666667,28882.089929542,28883.002074667,9,28882.156299208,28882.221907667,28883.028066625,28884.238120875,1,0.912145125003008
114,7,9,categorization,0,bathroom,SHINEd_sun_aoybiabnpadelefl.tif,41,0.0666666666666667,0.0666666666666667,0.733333333333333,28884.25664725,28885.067380625,9,28884.322738083,28884.387963125,28885.094731083,28885.821434875,0,0.810733375001291
114,8,9,categorization,0,kitchen,SHINEd_sun_acfmftudsenhrfhy.tif,74,0.0666666666666667,0.0666666666666667,1.03333333333333,28885.837684167,28886.671517167,9,28885.904265167,28885.970273625,28886.689343333,28887.716056208,1,0.833833000000595
114,9,9,categorization,0,kitchen,SHINEd_sun_aymvwlarqodbwuoc.tif,108,0.0666666666666667,0.0666666666666667,1.1,28887.726661458,28888.634391875,9,28887.79067475,28887.857622417,28888.664155208,28889.757535292,1,0.907730416998675
114,10,9,categorization,0,kitchen,SHINEd_sun_amjjdeyrggfqgmom.tif,100,0.0666666666666667,0.0666666666666667,1.25,28889.7676135,28890.541229542,9,28889.833874333,28889.900269542,28890.555537417,28891.798929833,1,0.773616041999048
114,11,9,categorization,0,bathroom,SHINEd_sun_axxbkopsgyouuebh.tif,58,0.0666666666666667,0.0666666666666667,1.4,28891.817038208,28892.607971542,13,28891.879439417,28891.939752792,28892.625074208,28894.01844525,1,0.790933333999419
