sub_num,trial,block,task,is_practice,category,image,texture,duration,mask_dur,jitter,stim_time,time_of_resp,trial_response,mask_time,fix_time,jit_onset,trial_end,trial_accuracy,RT
114,1,3,categorization,0,bathroom,SHINEd_sun_atstyziqcmkahyxk.tif,51,0.0666666666666667,0.0666666666666667,0.85,28170.565712708,28171.258215667,13,28170.628441042,28170.688517667,28171.273744625,28172.117083167,1,0.692502958998375
114,2,3,categorization,0,kitchen,SHINEd_sun_agorklincwxrdtga.tif,87,0.0666666666666667,0.0666666666666667,1.65,28172.122040458,28172.978440667,9,28172.183676417,28172.244794667,28172.9966195,28174.640001292,1,0.856400208998821
114,3,3,categorization,0,bathroom,SHINEd_sun_apynckhmoftszqoq.tif,47,0.0666666666666667,0.0666666666666667,0.783333333333333,28174.658641875,28175.330013708,13,28174.724602042,28174.791251583,28175.347368958,28176.1240405,1,0.671371832999284
114,4,3,categorization,0,bathroom,SHINEd_sun_ambriybtogmepttm.tif,36,0.0666666666666667,0.0666666666666667,0.933333333333333,28176.129174917,28176.794215125,9,28176.190847833,28176.25189875,28176.803598667,28177.730271083,0,0.665040207997663
114,5,3,categorization,0,kitchen,SHINEd_sun_auaiucuqpdausiva.tif,102,0.0666666666666667,0.0666666666666667,0.866666666666667,28177.735367292,28178.602288875,9,28177.797084875,28177.858510875,28178.610466,28179.470471375,1,0.866921583001385
114,6,3,categorization,0,bathroom,SHINEd_sun_aggnnqpdorgxpvce.tif,21,0.0666666666666667,0.0666666666666667,1.11666666666667,28179.476023417,28180.298944542,9,28179.537754417,28179.598620125,28180.31729675,28181.427342333,0,0.822921124999993
114,7,3,categorization,0,kitchen,SHINEd_sun_aixorpehvfykdynp.tif,95,0.0666666666666667,0.0666666666666667,0.966666666666667,28181.436678083,28182.222413208,9,28181.500950542,28181.5666565,28182.239346375,28183.199384417,1,0.785735125002248
114,8,3,categorization,0,kitchen,SHINEd_sun_amjjdeyrggfqgmom.tif,100,0.0666666666666667,0.0666666666666667,1.78333333333333,28183.217361125,28183.970899542,13,28183.284062875,28183.350252458,28183.98561325,28185.762337125,0,0.753538417000527
114,9,3,categorization,0,bathroom,SHINEd_sun_ahcvzmoyaycdoftf.tif,27,0.0666666666666667,0.0666666666666667,1.55,28185.780786,28186.531023667,13,28185.847563042,28185.913435208,28186.5532555,28188.09664175,1,0.750237667001784
114,10,3,categorization,0,kitchen,SHINEd_sun_afuyedyxivkhecmu.tif,85,0.0666666666666667,0.0666666666666667,1.41666666666667,28188.114279792,28188.807939667,9,28188.181189542,28188.247043958,28188.837037167,28190.2470885,1,0.693659874999867
114,11,3,categorization,0,bathroom,SHINEd_sun_aghyqhbptboemmoq.tif,23,0.0666666666666667,0.0666666666666667,0.8,28190.264431042,28191.332182708,13,28190.331383583,28190.397131292,28191.353885625,28192.147222417,1,1.06775166599982
114,12,3,categorization,0,kitchen,SHINEd_sun_aqeaevwwwjoqhzvl.tif,101,0.0666666666666667,0.0666666666666667,1.28333333333333,28192.152142417,28193.554697667,9,28192.213778542,28192.274797833,28193.560425833,28194.837145375,1,1.40255525000248
114,13,3,categorization,0,bathroom,SHINEd_sun_aoybiabnpadelefl.tif,41,0.0666666666666667,0.0666666666666667,1.66666666666667,28194.8544575,28195.701018458,9,28194.9224545,28194.987224583,28195.727107333,28197.387166875,0,0.846560957998008
114,14,3,categorization,0,bathroom,SHINEd_sun_aofnryafpsjimzsb.tif,40,0.0666666666666667,0.0666666666666667,1.81666666666667,28197.402825167,28198.33006825,13,28197.4695805,28197.534150333,28198.357444375,28200.167482667,1,0.927243083002395
114,15,3,categorization,0,kitchen,SHINEd_sun_abdenxonkemggwsq.tif,69,0.0666666666666667,0.0666666666666667,1.35,28200.186880583,28201.004638125,9,28200.253685917,28200.319618125,28201.0261845,28202.369556708,1,0.817757541997707
114,16,3,categorization,0,kitchen,SHINEd_sun_abdxkyyxwfskuaqb.tif,70,0.0666666666666667,0.0666666666666667,0.916666666666667,28202.38869425,28203.169665333,9,28202.456874542,28202.521374,28203.194707792,28204.104718208,1,0.780971083000622
114,17,3,categorization,0,bathroom,SHINEd_sun_ausgutylgojavyoq.tif,53,0.0666666666666667,0.0666666666666667,0.916666666666667,28204.11321675,28204.930465042,13,28204.175154708,28204.235871042,28204.937790125,28205.847795208,1,0.81724829200175
114,18,3,categorization,0,bathroom,SHINEd_sun_aleqenyvunhactkl.tif,32,0.0666666666666667,0.0666666666666667,1.31666666666667,28205.852678083,28206.594599917,13,28205.914303875,28205.975382208,28206.610581917,28207.920634208,1,0.741921834000095
114,19,3,categorization,0,bathroom,SHINEd_sun_awnqiikzaispgmwo.tif,56,0.0666666666666667,0.0666666666666667,1.45,28207.939363792,28208.707823208,13,28208.006170875,28208.072098958,28208.728501625,28210.171878875,1,0.768459415998223
114,20,3,categorization,0,kitchen,SHINEd_sun_aadbddgrdsjugojn.tif,64,0.0666666666666667,0.0666666666666667,0.95,28210.190369042,28210.925121917,9,28210.258768583,28210.32304625,28210.946134042,28211.889472083,1,0.734752874999685
114,21,3,categorization,0,kitchen,SHINEd_sun_acfmftudsenhrfhy.tif,74,0.0666666666666667,0.0666666666666667,1.38333333333333,28211.896021042,28212.681760625,9,28211.957904833,28212.018673917,28212.687502,28214.064220542,1,0.785739582999668
114,22,3,categorization,0,kitchen,SHINEd_labelme_kxvouciolcpqplr.tif,62,0.0666666666666667,0.0666666666666667,1.16666666666667,28214.082023042,28214.819989208,9,28214.148790542,28214.215010667,28214.837927375,28215.997981708,1,0.73796616600157
114,23,3,categorization,0,bathroom,SHINEd_sun_apkxzenqapsujocq.tif,45,0.0666666666666667,0.0666666666666667,1.61666666666667,28216.014241208,28216.715798333,13,28216.081099417,28216.146782417,28216.736473958,28218.346525792,1,0.701557125001273
114,24,3,categorization,0,bathroom,SHINEd_sun_abjtwfukuwddzted.tif,15,0.0666666666666667,0.0666666666666667,1.38333333333333,28218.3644645,28219.071633292,13,28218.431503042,28218.497129792,28219.0860205,28220.462740917,1,0.70716879199972
114,25,3,categorization,0,bathroom,SHINEd_sun_agguqiubmwhqqunb.tif,22,0.0666666666666667,0.0666666666666667,1.78333333333333,28220.481502292,28221.351465375,13,28220.548202792,28220.614204917,28221.370733333,28223.147437208,1,0.869963082997856
114,26,3,categorization,0,kitchen,SHINEd_sun_abftihopvusyfakt.tif,71,0.0666666666666667,0.0666666666666667,0.783333333333333,28223.166292833,28223.804967125,9,28223.232902375,28223.299303875,28223.822096333,28224.598769083,1,0.63867429200036
114,27,3,categorization,0,bathroom,SHINEd_sun_afcoljnjfoxjtgja.tif,20,0.0666666666666667,0.0666666666666667,1.65,28224.604576042,28225.345799542,9,28224.666224667,28224.727327542,28225.362783083,28227.006171125,0,0.74122350000107
114,28,3,categorization,0,kitchen,SHINEd_sun_aenotlpyftoioydp.tif,82,0.0666666666666667,0.0666666666666667,1.86666666666667,28227.023228417,28227.670072917,9,28227.089847417,28227.156260792,28227.695158875,28229.555207375,1,0.646844499999133
114,29,3,categorization,0,kitchen,SHINEd_sun_avszsnwsbuqfgzbn.tif,105,0.0666666666666667,0.0666666666666667,1.23333333333333,28229.566012667,28230.249588292,9,28229.631188167,28229.697523625,28230.268477333,28231.495193042,1,0.683575625000231
114,30,3,categorization,0,bathroom,SHINEd_sun_acgyywnybuveqsro.tif,18,0.0666666666666667,0.0666666666666667,0.7,28231.504646333,28232.196217917,13,28231.570121125,28231.634991625,28232.224931833,28232.918313417,1,0.691571584000485
114,31,3,categorization,0,kitchen,SHINEd_sun_acgtpgfybqjmzeyw.tif,75,0.0666666666666667,0.0666666666666667,0.716666666666667,28232.934403792,28233.602808625,9,28233.000580917,28233.067278917,28233.619397375,28234.329402125,1,0.668404833002569
114,32,3,categorization,0,bathroom,SHINEd_sun_apmqjbnwghzuhhzh.tif,46,0.0666666666666667,0.0666666666666667,1.05,28234.334271042,28235.018064958,9,28234.395894333,28234.456953833,28235.025833208,28236.069226833,0,0.683793915999559
114,33,3,categorization,0,kitchen,SHINEd_sun_aeqdocilnnpuvuhx.tif,83,0.0666666666666667,0.0666666666666667,1.1,28236.082918708,28236.970795917,9,28236.148514125,28236.213737625,28236.986221542,28238.07960875,1,0.887877208999271
114,34,3,categorization,0,bathroom,SHINEd_sun_aunuadmjocsddsrl.tif,52,0.0666666666666667,0.0666666666666667,1.13333333333333,28238.089367833,28239.01054175,9,28238.1540495,28238.221886167,28239.027857625,28240.154571417,0,0.921173917002307
114,35,3,categorization,0,bathroom,SHINEd_sun_acegryoqftbzowsg.tif,17,0.0666666666666667,0.0666666666666667,1.38333333333333,28240.17201025,28241.018298375,13,28240.234638958,28240.295189917,28241.030792792,28242.407520083,1,0.846288124997955
114,36,3,categorization,0,kitchen,SHINEd_sun_agzzivivdpnawacl.tif,89,0.0666666666666667,0.0666666666666667,1.5,28242.425904542,28243.147530792,13,28242.492442708,28242.558626458,28243.164642458,28244.658036083,0,0.721626250000554
114,37,3,categorization,0,bathroom,SHINEd_sun_axldvoqbuvuggfmq.tif,57,0.0666666666666667,0.0666666666666667,1.61666666666667,28244.676043042,28245.514620625,13,28244.743882625,28244.809209375,28245.531880125,28247.141920875,1,0.838577582999278
114,38,3,categorization,0,kitchen,SHINEd_sun_abpwyqmlzafvklqo.tif,72,0.0666666666666667,0.0666666666666667,0.983333333333333,28247.159634875,28248.359712667,13,28247.225693833,28247.29201025,28248.379759208,28249.35643125,0,1.20007779200023
114,39,3,categorization,0,kitchen,SHINEd_sun_ajcbwwvdlsvjyzje.tif,96,0.0666666666666667,0.0666666666666667,1.3,28249.361980125,28250.386305708,9,28249.424074708,28249.484680833,28250.4036485,28251.697021,1,1.02432558300279
114,40,3,categorization,0,kitchen,SHINEd_sun_aexklacwqwezaorf.tif,84,0.0666666666666667,0.0666666666666667,1.03333333333333,28251.714556708,28252.45268375,9,28251.781308292,28251.847152667,28252.469791042,28253.496512917,1,0.738127042000997
114,41,3,categorization,0,kitchen,SHINEd_sun_aegoxogugdkwpmpj.tif,80,0.0666666666666667,0.0666666666666667,1.45,28253.508628375,28254.425586208,9,28253.573193708,28253.639652625,28254.4460035,28255.889381,1,0.916957833000197
114,42,3,categorization,0,kitchen,SHINEd_sun_aggjlwcdjsjcaemh.tif,86,0.0666666666666667,0.0666666666666667,1.23333333333333,28255.906115417,28256.718514667,9,28255.972582458,28256.039349292,28256.745365833,28257.972077542,1,0.812399250000453
114,43,3,categorization,0,bathroom,SHINEd_sun_ahqjwnzgolcaoidx.tif,29,0.0666666666666667,0.0666666666666667,1.26666666666667,28257.989515625,28258.930499792,13,28258.056155417,28258.12219375,28258.944685042,28260.204729042,1,0.940984167002171
114,44,3,categorization,0,bathroom,SHINEd_sun_avhrdrntsqrjzccq.tif,55,0.0666666666666667,0.0666666666666667,1.03333333333333,28260.222701792,28261.531772083,9,28260.289517125,28260.355591833,28261.544862542,28262.571581,0,1.30907029099762
114,45,3,categorization,0,bathroom,SHINEd_sun_aljolscmmzydegqp.tif,33,0.0666666666666667,0.0666666666666667,1.31666666666667,28262.583335708,28263.427636583,13,28262.648259542,28262.714893958,28263.454349292,28264.764406125,1,0.844300875000044
114,46,3,categorization,0,bathroom,SHINEd_sun_apeeialkgkuxddgh.tif,42,0.0666666666666667,0.0666666666666667,1.7,28264.779631167,28265.442896583,13,28264.846214417,28264.913778,28265.47010975,28267.163489458,1,0.663265416002105
114,47,3,categorization,0,kitchen,SHINEd_sun_aymvwlarqodbwuoc.tif,108,0.0666666666666667,0.0666666666666667,1.35,28267.181298,28268.0128325,9,28267.247257125,28267.314149875,28268.037443708,28269.380820833,1,0.831534500000998
114,48,3,categorization,0,bathroom,SHINEd_sun_anhioqovhscjqqwb.tif,38,0.0666666666666667,0.0666666666666667,0.8,28269.3986825,28269.998367875,13,28269.465594125,28269.530631667,28270.020754,28270.814127208,1,0.599685375000263
114,49,3,categorization,0,kitchen,SHINEd_sun_ahpczsiumwwocjkv.tif,92,0.0666666666666667,0.0666666666666667,0.766666666666667,28270.830679375,28271.690510875,13,28270.896969833,28270.963341417,28271.698636542,28272.458641792,0,0.859831499998108
114,50,3,categorization,0,bathroom,SHINEd_sun_azqyogdvyhahyram.tif,60,0.0666666666666667,0.0666666666666667,1.38333333333333,28272.463552958,28273.225770292,13,28272.52529975,28272.586177542,28273.238291708,28274.615015375,1,0.762217333998706
