sub_num,trial,block,task,is_practice,category,image,texture,duration,mask_dur,jitter,stim_time,time_of_resp,trial_response,mask_time,fix_time,jit_onset,trial_end,trial_accuracy,RT
114,1,14,categorization,0,kitchen,SHINEd_sun_ahdycvpopffkzzsu.tif,90,0.0666666666666667,0.0666666666666667,1.38333333333333,29429.267045542,29430.477481208,13,29429.32961325,29429.38976825,29430.491971458,29431.868711042,0,1.21043566599838
114,2,14,categorization,0,kitchen,SHINEd_sun_axyyrmzcupyhlivc.tif,107,0.0666666666666667,0.0666666666666667,1.48333333333333,29431.885447542,29433.22104075,9,29431.952323458,29432.017890625,29433.244237292,29434.720949542,1,1.33559320799759
114,3,14,categorization,0,bathroom,SHINEd_sun_agrwbmhcpmfuwmsg.tif,24,0.0666666666666667,0.0666666666666667,0.966666666666667,29434.738268917,29435.479317375,13,29434.80685525,29434.87103375,29435.493644292,29436.453648333,1,0.741048457999568
114,4,14,categorization,0,bathroom,SHINEd_sun_ausgutylgojavyoq.tif,53,0.0666666666666667,0.0666666666666667,0.916666666666667,29436.459603,29437.093010833,13,29436.52135175,29436.582306208,29437.100850875,29438.010856458,1,0.633407833000092
114,5,14,categorization,0,kitchen,SHINEd_sun_aaxxjlsuzvqlgylf.tif,68,0.0666666666666667,0.0666666666666667,1.6,29438.015807625,29438.837242542,9,29438.077456667,29438.138412167,29438.85687075,29440.450262583,1,0.821434916997532
114,6,14,categorization,0,kitchen,SHINEd_sun_aeqdocilnnpuvuhx.tif,83,0.0666666666666667,0.0666666666666667,0.7,29440.463331583,29441.278488125,9,29440.529920125,29440.596004375,29441.3024995,29441.995838042,1,0.815156542001205
114,7,14,categorization,0,kitchen,SHINEd_sun_ahpczsiumwwocjkv.tif,92,0.0666666666666667,0.0666666666666667,1.7,29442.001620583,29442.829686458,9,29442.063223875,29442.124327833,29442.842903708,29444.536293458,1,0.828065875000902
114,8,14,categorization,0,bathroom,SHINEd_sun_apkxzenqapsujocq.tif,45,0.0666666666666667,0.0666666666666667,1.05,29444.554517583,29445.329454708,13,29444.620887083,29444.687266167,29445.3424535,29446.3858305,1,0.774937124999269
114,9,14,categorization,0,kitchen,SHINEd_sun_acgtpgfybqjmzeyw.tif,75,0.0666666666666667,0.0666666666666667,1.15,29446.3977085,29447.122992083,9,29446.462564958,29446.528760333,29447.1520805,29448.2954615,1,0.725283583000419
114,10,14,categorization,0,kitchen,SHINEd_sun_abftihopvusyfakt.tif,71,0.0666666666666667,0.0666666666666667,1.85,29448.311315917,29449.028815375,9,29448.3776975,29448.441907583,29449.044127792,29450.887507,1,0.717499458001839
114,11,14,categorization,0,bathroom,SHINEd_sun_aoybiabnpadelefl.tif,41,0.0666666666666667,0.0666666666666667,1.2,29450.908049542,29451.566451125,9,29450.97463,29451.041035083,29451.579754083,29452.7731365,0,0.65840158300125
114,12,14,categorization,0,bathroom,SHINEd_sun_awnqiikzaispgmwo.tif,56,0.0666666666666667,0.0666666666666667,1.11666666666667,29452.788398292,29453.508479542,13,29452.855020292,29452.921316333,29453.527955667,29454.637999458,1,0.720081250001385
114,13,14,categorization,0,kitchen,SHINEd_sun_afuyedyxivkhecmu.tif,85,0.0666666666666667,0.0666666666666667,1.41666666666667,29454.648869667,29455.36941825,9,29454.714463333,29454.78148975,29455.387603375,29456.797648708,1,0.720548583001801
114,14,14,categorization,0,bathroom,SHINEd_sun_alotolagknyrgtsk.tif,35,0.0666666666666667,0.0666666666666667,1.05,29456.808904167,29457.807513625,9,29456.87569725,29456.941548417,29457.831737625,29458.875122042,0,0.998609458001738
114,15,14,categorization,0,bathroom,SHINEd_sun_abapwbhyhkfixyex.tif,14,0.0666666666666667,0.0666666666666667,1.26666666666667,29458.886314042,29459.564729167,9,29458.948041833,29459.008964958,29459.577509125,29460.837555792,0,0.678415124999447
114,16,14,categorization,0,bathroom,SHINEd_sun_ahqjwnzgolcaoidx.tif,29,0.0666666666666667,0.0666666666666667,1.46666666666667,29460.855027167,29461.568699833,9,29460.92148,29460.987389667,29461.593870875,29463.053928917,0,0.713672665999184
114,17,14,categorization,0,kitchen,SHINEd_sun_ajcbwwvdlsvjyzje.tif,96,0.0666666666666667,0.0666666666666667,0.8,29463.071748042,29463.9033155,9,29463.138265375,29463.204395042,29463.927521958,29464.720889042,1,0.831567458000791
114,18,14,categorization,0,kitchen,SHINEd_sun_abdenxonkemggwsq.tif,69,0.0666666666666667,0.0666666666666667,1.4,29464.737159667,29465.476705167,9,29464.803148792,29464.861227917,29465.480003,29466.873374792,1,0.739545500000531
114,19,14,categorization,0,bathroom,SHINEd_sun_aofnryafpsjimzsb.tif,40,0.0666666666666667,0.0666666666666667,0.966666666666667,29466.890961417,29467.59726825,9,29466.957601375,29467.02389675,29467.6121965,29468.572242083,0,0.706306832998962
114,20,14,categorization,0,kitchen,SHINEd_sun_aggjlwcdjsjcaemh.tif,86,0.0666666666666667,0.0666666666666667,0.916666666666667,29468.583576417,29469.485254458,9,29468.6460065,29468.706366875,29469.491574667,29470.401580292,1,0.901678040998377
114,21,14,categorization,0,kitchen,SHINEd_sun_aamedkxepzlwuxes.tif,65,0.0666666666666667,0.0666666666666667,1.11666666666667,29470.406357292,29471.173025458,9,29470.467955583,29470.529042208,29471.180922,29472.290981875,1,0.766668166001182
114,22,14,categorization,0,kitchen,SHINEd_sun_ajkqhtgcbgpcwrwn.tif,97,0.0666666666666667,0.0666666666666667,0.85,29472.301078333,29472.993290292,9,29472.366060375,29472.434285625,29473.006891625,29473.850284833,1,0.692211959001725
114,23,14,categorization,0,bathroom,SHINEd_sun_alkosphxlxwjwgjd.tif,34,0.0666666666666667,0.0666666666666667,1.81666666666667,29473.867540708,29474.572703708,13,29473.934547083,29474.000192375,29474.585686333,29476.395723083,1,0.70516299999872
114,24,14,categorization,0,bathroom,SHINEd_sun_aljolscmmzydegqp.tif,33,0.0666666666666667,0.0666666666666667,1.81666666666667,29476.413216125,29477.089591667,13,29476.480225542,29476.545849917,29477.119039292,29478.929101625,1,0.676375541999732
114,25,14,categorization,0,kitchen,SHINEd_sun_azmutvzbxypaceni.tif,110,0.0666666666666667,0.0666666666666667,1.33333333333333,29478.947021083,29479.718031167,9,29479.013863917,29479.079412583,29479.735041208,29481.061770333,1,0.771010084001318
114,26,14,categorization,0,kitchen,SHINEd_sun_aapllqyqlykszopd.tif,66,0.0666666666666667,0.0666666666666667,1,29481.079456958,29481.97792325,9,29481.146250458,29481.212387083,29482.002343792,29482.995683333,1,0.898466292001103
114,27,14,categorization,0,bathroom,SHINEd_sun_acegryoqftbzowsg.tif,17,0.0666666666666667,0.0666666666666667,1.13333333333333,29483.001769375,29483.845122958,9,29483.063683208,29483.124443,29483.859731083,29484.986435042,0,0.843353582997224
114,28,14,categorization,0,kitchen,SHINEd_sun_awcpdzzznmweyyhv.tif,106,0.0666666666666667,0.0666666666666667,1.16666666666667,29484.995921542,29485.838785125,9,29485.060792458,29485.128540875,29485.868170333,29487.028241458,1,0.842863583002327
114,29,14,categorization,0,bathroom,SHINEd_sun_anryaplzeujmzfkd.tif,39,0.0666666666666667,0.0666666666666667,0.75,29487.039814542,29487.984904417,13,29487.106427625,29487.172410417,29488.01202375,29488.75539875,1,0.945089875000122
114,30,14,categorization,0,bathroom,SHINEd_sun_afcoljnjfoxjtgja.tif,20,0.0666666666666667,0.0666666666666667,0.85,29488.772004083,29489.573318167,9,29488.838744,29488.904733583,29489.589936458,29490.433275042,0,0.801314084001206
114,31,14,categorization,0,bathroom,SHINEd_sun_akiytfaagpdsphgz.tif,31,0.0666666666666667,0.0666666666666667,1.28333333333333,29490.439630167,29491.268836625,13,29490.501404042,29490.562362458,29491.281235583,29492.557958,1,0.829206458001863
114,32,14,categorization,0,bathroom,SHINEd_sun_aqrpegblszgcoujh.tif,48,0.0666666666666667,0.0666666666666667,0.9,29492.572976625,29493.33669475,13,29492.639747292,29492.705498667,29493.361882667,29494.255275375,1,0.763718124999286
114,33,14,categorization,0,kitchen,SHINEd_sun_aenotlpyftoioydp.tif,82,0.0666666666666667,0.0666666666666667,0.766666666666667,29494.271551875,29494.996788542,9,29494.338332375,29494.396011,29495.014865458,29495.774870083,1,0.72523666699999
114,34,14,categorization,0,kitchen,SHINEd_sun_agubuxuukhzyzpdp.tif,88,0.0666666666666667,0.0666666666666667,1.5,29495.779794667,29496.500610042,9,29495.841470625,29495.902740292,29496.504856125,29497.998223917,1,0.720815374999802
114,35,14,categorization,0,bathroom,SHINEd_labelme_sfxiulhjbhlyiyt.tif,11,0.0666666666666667,0.0666666666666667,0.8,29498.015839625,29498.644233375,13,29498.082666792,29498.14815225,29498.670574833,29499.463952333,1,0.628393749997485
114,36,14,categorization,0,bathroom,SHINEd_sun_ahcvzmoyaycdoftf.tif,27,0.0666666666666667,0.0666666666666667,0.75,29499.479800708,29500.036798625,13,29499.543204208,29499.602729,29500.054679625,29500.798017875,1,0.556997916999535
114,37,14,categorization,0,kitchen,SHINEd_sun_auticobqsbwgoppi.tif,104,0.0666666666666667,0.0666666666666667,1.83333333333333,29500.802946167,29501.372963792,13,29500.864664917,29500.925591958,29501.37744425,29503.2041645,0,0.570017624999309
114,38,14,categorization,0,bathroom,SHINEd_sun_anhioqovhscjqqwb.tif,38,0.0666666666666667,0.0666666666666667,0.933333333333333,29503.228270792,29503.946856125,13,29503.294819833,29503.361176542,29503.967604792,29504.894276417,1,0.718585333001101
114,39,14,categorization,0,bathroom,SHINEd_sun_asfwthctfqerjvxr.tif,49,0.0666666666666667,0.0666666666666667,1.61666666666667,29504.899911708,29505.628552917,13,29504.961520875,29505.0225835,29505.640945125,29507.250981083,1,0.728641209003399
114,40,14,categorization,0,kitchen,SHINEd_sun_aehawpgmrlhlvcow.tif,81,0.0666666666666667,0.0666666666666667,0.883333333333333,29507.268570667,29508.022068167,13,29507.3350565,29507.401208208,29508.040516083,29508.917188542,0,0.753497499998048
114,41,14,categorization,0,kitchen,SHINEd_sun_abdxkyyxwfskuaqb.tif,70,0.0666666666666667,0.0666666666666667,1.35,29508.922367333,29509.813449958,9,29508.984038458,29509.044949208,29509.83024325,29511.173634958,1,0.891082624999399
114,42,14,categorization,0,bathroom,SHINEd_sun_amzlamotzwfkwjco.tif,37,0.0666666666666667,0.0666666666666667,1.35,29511.191119542,29512.056747167,13,29511.2576975,29511.323854,29512.080288583,29513.423675542,1,0.865627625000343
114,43,14,categorization,0,bathroom,SHINEd_sun_aapitsgbtktqubfy.tif,12,0.0666666666666667,0.0666666666666667,1.66666666666667,29513.441202833,29514.893461833,13,29513.507875917,29513.574005833,29514.915533083,29516.575572083,1,1.45225899999787
114,44,14,categorization,0,kitchen,SHINEd_sun_akcjzhbbjlbogpdi.tif,99,0.0666666666666667,0.0666666666666667,0.766666666666667,29516.592308792,29517.344012208,9,29516.658974208,29516.725312,29517.365441292,29518.12544725,1,0.751703416000964
114,45,14,categorization,0,kitchen,SHINEd_sun_aarfiyshqohlwkmo.tif,67,0.0666666666666667,0.0666666666666667,1.18333333333333,29518.131377042,29518.908621917,13,29518.192981458,29518.254287708,29518.923243042,29520.099967167,0,0.777244875000179
114,46,14,categorization,0,kitchen,SHINEd_sun_acxkpeoqbwcxfvip.tif,77,0.0666666666666667,0.0666666666666667,1.43333333333333,29520.110565917,29521.280315167,9,29520.177243083,29520.24316625,29521.299403542,29522.726113208,1,1.1697492500025
114,47,14,categorization,0,kitchen,SHINEd_sun_agorklincwxrdtga.tif,87,0.0666666666666667,0.0666666666666667,0.933333333333333,29522.743485333,29523.569616875,9,29522.810081417,29522.876088375,29523.598734167,29524.525406417,1,0.82613154199862
114,48,14,categorization,0,bathroom,SHINEd_sun_apjevzvycyhuqghb.tif,43,0.0666666666666667,0.0666666666666667,1.23333333333333,29524.530169,29525.220379875,13,29524.591894042,29524.652853,29525.238325875,29526.465031958,1,0.690210875000048
114,49,14,categorization,0,bathroom,SHINEd_sun_apmqjbnwghzuhhzh.tif,46,0.0666666666666667,0.0666666666666667,0.783333333333333,29526.483508542,29527.138632542,13,29526.550532125,29526.6160715,29527.155249083,29527.931950833,1,0.655123999997159
114,50,14,categorization,0,kitchen,SHINEd_sun_agzzivivdpnawacl.tif,89,0.0666666666666667,0.0666666666666667,1.05,29527.947734125,29529.052309042,13,29528.014309333,29528.080231333,29529.066094333,29530.1094645,0,1.10457491700072
