sub_num,trial,block,task,is_practice,category,image,texture,duration,mask_dur,jitter,stim_time,time_of_resp,trial_response,mask_time,fix_time,jit_onset,trial_end,trial_accuracy,RT
112,6,0,usability,1,kitchen,kitchen_practice2.tif,227,1.5,0,1.13333333333333,2927.19760375,2930.440923958,6,NaN,2930.447173875,2930.465472458,2931.592214333,NaN,NaN
112,7,0,usability,1,kitchen,kitchen_practice3.tif,228,1.5,0,0.933333333333333,2931.601545208,2934.401215666,7,NaN,2934.407217416,2934.425691125,2935.352367833,NaN,NaN
112,8,0,usability,1,kitchen,kitchen_practice1.tif,226,1.5,0,1.48333333333333,2935.356781833,2937.821989666,7,NaN,2937.845041083,2937.865626916,2939.342392666,NaN,NaN
112,9,0,usability,1,kitchen,kitchen_practice4.tif,229,1.5,0,1.33333333333333,2939.363373958,2942.376583541,7,NaN,2942.382900541,2942.401073125,2943.727825708,NaN,NaN
112,10,0,usability,1,kitchen,kitchen_practice5.tif,230,1.5,0,1.3,2943.746678041,2946.753138833,6,NaN,2946.759048458,2946.777962458,2948.0713625,NaN,NaN
112,1,1,usability,0,kitchen,sun_amjjdeyrggfqgmom.tif,210,1.5,0,1.91666666666667,2952.129937666,2955.480662333,5,NaN,2955.486642333,2955.504958541,2957.415029375,NaN,NaN
112,2,1,usability,0,kitchen,sun_aymvwlarqodbwuoc.tif,218,1.5,0,0.85,2957.433206458,2961.424172416,4,NaN,2961.430409291,2961.4487335,2962.292075958,NaN,NaN
112,3,1,usability,0,kitchen,labelme_rykdqxenmhulbdn.tif,173,1.5,0,0.7,2962.296365583,2966.024568166,7,NaN,2966.030566625,2966.048978583,2966.742322708,NaN,NaN
112,4,1,usability,0,kitchen,sun_adgqasybjyktddhj.tif,188,1.5,0,1.6,2966.746750458,2969.725007416,7,NaN,2969.755742333,2969.779440083,2971.372862666,NaN,NaN
112,5,1,usability,0,kitchen,sun_aehawpgmrlhlvcow.tif,191,1.5,0,1.13333333333333,2971.391593916,2974.798024166,3,NaN,2974.82892975,2974.85234225,2975.979067875,NaN,NaN
112,6,1,usability,0,kitchen,sun_aadbddgrdsjugojn.tif,174,1.5,0,0.716666666666667,2975.989363458,2978.7446695,6,NaN,2978.750654375,2978.768888458,2979.478895166,NaN,NaN
112,7,1,usability,0,kitchen,sun_acwjdupvyjsugpay.tif,186,1.5,0,1.6,2979.483132833,2982.561330791,6,NaN,2982.568088833,2982.586312708,2984.179706666,NaN,NaN
112,8,1,usability,0,kitchen,sun_aixorpehvfykdynp.tif,205,1.5,0,1.68333333333333,2984.195258958,2986.970299166,7,NaN,2986.999102875,2987.02233475,2988.699084541,NaN,NaN
112,9,1,usability,0,kitchen,sun_auaiucuqpdausiva.tif,212,1.5,0,1.41666666666667,2988.716534583,2991.3560915,7,NaN,2991.386356166,2991.409954291,2992.820048791,NaN,NaN
112,10,1,usability,0,kitchen,sun_aamedkxepzlwuxes.tif,175,1.5,0,1,2992.838270625,2996.769060041,5,NaN,2996.77499475,2996.793358958,2997.786700833,NaN,NaN
112,11,1,usability,0,kitchen,sun_ahpczsiumwwocjkv.tif,202,1.5,0,1.33333333333333,2997.792530041,3000.608814875,6,NaN,3000.634751916,3000.658209291,3001.98495725,NaN,NaN
112,12,1,usability,0,kitchen,sun_aenotlpyftoioydp.tif,192,1.5,0,1.15,3002.002913416,3005.2566995,2,NaN,3005.262738125,3005.280970375,3006.424367041,NaN,NaN
112,13,1,usability,0,kitchen,sun_aexklacwqwezaorf.tif,194,1.5,0,1.86666666666667,3006.433904541,3009.665150833,7,NaN,3009.671317375,3009.689688416,3011.549758541,NaN,NaN
112,14,1,usability,0,kitchen,sun_aapllqyqlykszopd.tif,176,1.5,0,1.18333333333333,3011.5689705,3014.492919541,6,NaN,3014.521264208,3014.541800791,3015.718559541,NaN,NaN
112,15,1,usability,0,kitchen,sun_ahywdevtimnqcsln.tif,204,1.5,0,1.71666666666667,3015.72990075,3019.321046291,4,NaN,3019.32703575,3019.345279791,3021.055375208,NaN,NaN
112,16,1,usability,0,kitchen,sun_aggjlwcdjsjcaemh.tif,196,1.5,0,1.1,3021.077164875,3025.111953916,6,NaN,3025.118517,3025.136965666,3026.230368291,NaN,NaN
112,17,1,usability,0,kitchen,sun_acxkpeoqbwcxfvip.tif,187,1.5,0,0.983333333333333,3026.238447708,3029.248869916,7,NaN,3029.254779416,3029.273193333,3030.249871583,NaN,NaN
112,18,1,usability,0,kitchen,sun_aeqdocilnnpuvuhx.tif,193,1.5,0,0.916666666666667,3030.25450275,3033.664971916,5,NaN,3033.67112725,3033.689427666,3034.599437416,NaN,NaN
112,19,1,usability,0,kitchen,sun_akcjzhbbjlbogpdi.tif,209,1.5,0,0.716666666666667,3034.603714541,3038.744310958,6,NaN,3038.750281291,3038.768656458,3039.478665958,NaN,NaN
112,20,1,usability,0,kitchen,sun_ajcbwwvdlsvjyzje.tif,206,1.5,0,0.883333333333333,3039.482745708,3042.912631208,5,NaN,3042.918519708,3042.936821125,3043.813498791,NaN,NaN
112,21,1,usability,0,kitchen,sun_azmutvzbxypaceni.tif,220,1.5,0,1.93333333333333,3043.817778916,3047.160436666,6,NaN,3047.16640075,3047.184820166,3049.111541166,NaN,NaN
112,22,1,usability,0,kitchen,sun_awcpdzzznmweyyhv.tif,216,1.5,0,0.9,3049.129575375,3052.10435675,5,NaN,3052.132423916,3052.156107416,3053.049449583,NaN,NaN
112,23,1,usability,0,kitchen,sun_aunzlwrbjumxhwdj.tif,213,1.5,0,1.13333333333333,3053.054132,3056.296362833,2,NaN,3056.302761625,3056.321146666,3057.447873208,NaN,NaN
112,24,1,usability,0,kitchen,labelme_kxvouciolcpqplr.tif,172,1.5,0,0.766666666666667,3057.456119,3060.840960458,4,NaN,3060.84694375,3060.865195416,3061.625203458,NaN,NaN
112,25,1,usability,0,kitchen,sun_agubuxuukhzyzpdp.tif,198,1.5,0,0.966666666666667,3061.629595916,3065.272676958,7,NaN,3065.278545416,3065.296860083,3066.256871041,NaN,NaN
112,1,2,usability,0,kitchen,sun_ajkqhtgcbgpcwrwn.tif,207,1.5,0,1.56666666666667,3069.787059875,3072.524228416,5,NaN,3072.549315583,3072.572033458,3074.132115708,NaN,NaN
112,2,2,usability,0,kitchen,sun_avszsnwsbuqfgzbn.tif,215,1.5,0,1.2,3074.147070125,3076.756285291,7,NaN,3076.783891875,3076.807789208,3078.001194375,NaN,NaN
112,3,2,usability,0,kitchen,sun_admlmbcdswaszruo.tif,189,1.5,0,1.73333333333333,3078.016077041,3080.784230625,6,NaN,3080.790192708,3080.808687958,3082.535393208,NaN,NaN
112,4,2,usability,0,kitchen,sun_abdxkyyxwfskuaqb.tif,180,1.5,0,1.61666666666667,3082.547528833,3085.440798333,3,NaN,3085.471487791,3085.494719666,3087.104819416,NaN,NaN
112,5,2,usability,0,kitchen,sun_aypmqwcualkenuoe.tif,219,1.5,0,1.38333333333333,3087.122928041,3091.192604458,1,NaN,3091.198622333,3091.21700475,3092.593734708,NaN,NaN
112,6,2,usability,0,kitchen,sun_agzzivivdpnawacl.tif,199,1.5,0,1.73333333333333,3092.605674958,3096.295690208,6,NaN,3096.3020055,3096.320423416,3098.047178666,NaN,NaN
112,7,2,usability,0,kitchen,sun_aaxxjlsuzvqlgylf.tif,178,1.5,0,1.96666666666667,3098.063434875,3101.872643458,6,NaN,3101.878526666,3101.896829458,3103.856913041,NaN,NaN
112,8,2,usability,0,kitchen,sun_abftihopvusyfakt.tif,181,1.5,0,0.883333333333333,3103.87679975,3108.920707291,6,NaN,3108.926655916,3108.944922708,3109.821600916,NaN,NaN
112,9,2,usability,0,kitchen,sun_agorklincwxrdtga.tif,197,1.5,0,1.06666666666667,3109.827358666,3113.247898458,7,NaN,3113.25404525,3113.2724605,3114.332526416,NaN,NaN
112,10,2,usability,0,kitchen,labelme_brsyyvweiuaazfr.tif,171,1.5,0,1.06666666666667,3114.340757625,3119.424292958,5,NaN,3119.430250166,3119.448607,3120.508679541,NaN,NaN
112,11,2,usability,0,kitchen,sun_afuyedyxivkhecmu.tif,195,1.5,0,0.966666666666667,3120.5170855,3123.248603875,2,NaN,3123.254819208,3123.273159541,3124.233168291,NaN,NaN
112,12,2,usability,0,kitchen,sun_aegoxogugdkwpmpj.tif,190,1.5,0,1.78333333333333,3124.237524166,3126.611021916,5,NaN,3126.635504625,3126.658976583,3128.435698333,NaN,NaN
112,13,2,usability,0,kitchen,sun_axyyrmzcupyhlivc.tif,217,1.5,0,1.68333333333333,3128.448079333,3132.272403625,6,NaN,3132.27926075,3132.297598416,3133.974348291,NaN,NaN
112,14,2,usability,0,kitchen,sun_abpwyqmlzafvklqo.tif,182,1.5,0,0.983333333333333,3133.993595458,3136.784628916,4,NaN,3136.812263541,3136.835699875,3137.812374666,NaN,NaN
112,15,2,usability,0,kitchen,sun_abdenxonkemggwsq.tif,179,1.5,0,1.33333333333333,3137.81687875,3140.688373666,5,NaN,3140.719214625,3140.742747,3142.06947325,NaN,NaN
112,16,2,usability,0,kitchen,sun_acgtpgfybqjmzeyw.tif,185,1.5,0,1.56666666666667,3142.088319125,3144.783697791,5,NaN,3144.789783333,3144.8081175,3146.3681975,NaN,NaN
112,17,2,usability,0,kitchen,sun_ahspylgoovwmwvgk.tif,203,1.5,0,1.66666666666667,3146.385056875,3149.488537083,4,NaN,3149.494381333,3149.512718375,3151.172784416,NaN,NaN
112,18,2,usability,0,kitchen,sun_auticobqsbwgoppi.tif,214,1.5,0,1.86666666666667,3151.192249791,3155.1440505,4,NaN,3155.150228,3155.168671291,3157.028743458,NaN,NaN
112,19,2,usability,0,kitchen,sun_aqeaevwwwjoqhzvl.tif,211,1.5,0,1.95,3157.045079916,3159.812616458,4,NaN,3159.844986958,3159.868474166,3161.811875458,NaN,NaN
112,20,2,usability,0,kitchen,sun_acfmftudsenhrfhy.tif,184,1.5,0,0.966666666666667,3161.831777583,3165.028715791,7,NaN,3165.059629291,3165.0824835,3166.042495125,NaN,NaN
112,21,2,usability,0,kitchen,sun_abrcnpqqhmjwekyf.tif,183,1.5,0,1.43333333333333,3166.047392291,3169.215345083,6,NaN,3169.222477666,3169.240972,3170.667697041,NaN,NaN
112,22,2,usability,0,kitchen,sun_ahdycvpopffkzzsu.tif,200,1.5,0,0.85,3170.685622833,3173.327924458,5,NaN,3173.333893625,3173.352185291,3174.195526625,NaN,NaN
112,23,2,usability,0,kitchen,sun_ahljzhgcdpomplvg.tif,201,1.5,0,1.53333333333333,3174.208337625,3177.172499291,6,NaN,3177.203020708,3177.22627475,3178.753025916,NaN,NaN
112,24,2,usability,0,kitchen,sun_akchetnepxlcxhsu.tif,208,1.5,0,1.18333333333333,3178.771812166,3181.831697958,7,NaN,3181.837724833,3181.85609275,3183.032818666,NaN,NaN
112,25,2,usability,0,kitchen,sun_aarfiyshqohlwkmo.tif,177,1.5,0,1.86666666666667,3183.044304875,3186.607313416,3,NaN,3186.613576333,3186.63192,3188.491957041,NaN,NaN
