sub_num,trial,block,task,is_practice,category,image,texture,duration,mask_dur,jitter,stim_time,time_of_resp,trial_response,mask_time,fix_time,jit_onset,trial_end,trial_accuracy,RT
129,1,24,categorization,0,bathroom,SHINEd_sun_aqrpegblszgcoujh.tif,48,0.0666666666666667,0.0666666666666667,0.733333333333333,4032.949746125,4033.561417708,9,4033.012344375,4033.072322083,4033.574138875,4034.300810166,0,0.611671583000316
129,2,24,categorization,0,bathroom,SHINEd_sun_apeeialkgkuxddgh.tif,42,0.0666666666666667,0.0666666666666667,1.26666666666667,4034.305552541,4034.865429458,9,4034.36714825,4034.428169375,4034.880267583,4036.140320333,0,0.559876917000111
129,3,24,categorization,0,kitchen,SHINEd_sun_aymvwlarqodbwuoc.tif,108,0.0666666666666667,0.0666666666666667,0.75,4036.157884166,4036.610011208,9,4036.224069875,4036.290100791,4036.629475166,4037.372853291,1,0.452127042000029
129,4,24,categorization,0,kitchen,SHINEd_sun_acxkpeoqbwcxfvip.tif,77,0.0666666666666667,0.0666666666666667,1.08333333333333,4037.387872791,4037.829796333,9,4037.454316375,4037.5201665,4037.842617791,4038.919335291,1,0.44192354200004
129,5,24,categorization,0,bathroom,SHINEd_sun_acgyywnybuveqsro.tif,18,0.0666666666666667,0.0666666666666667,1.28333333333333,4038.927617333,4039.252395375,13,4038.992125208,4039.059878125,4039.264735583,4040.54144375,1,0.324778042000162
129,6,24,categorization,0,kitchen,SHINEd_sun_acwjdupvyjsugpay.tif,76,0.0666666666666667,0.0666666666666667,0.9,4040.559168416,4041.0489125,9,4040.62618425,4040.691661375,4041.0606765,4041.9540155,1,0.489744083999994
129,7,24,categorization,0,bathroom,SHINEd_sun_aclfzgynxzxlbepz.tif,19,0.0666666666666667,0.0666666666666667,1.8,4041.959466833,4042.31302425,9,4042.021172583,4042.082187583,4042.317293416,4044.11067125,0,0.353557417000047
129,8,24,categorization,0,kitchen,SHINEd_sun_afuyedyxivkhecmu.tif,85,0.0666666666666667,0.0666666666666667,1.06666666666667,4044.128187208,4044.706828916,9,4044.195108791,4044.261357333,4044.734521583,4045.794569125,1,0.578641708000305
129,9,24,categorization,0,bathroom,SHINEd_sun_amzlamotzwfkwjco.tif,37,0.0666666666666667,0.0666666666666667,0.783333333333333,4045.803420625,4046.202788541,9,4045.867841208,4045.933868375,4046.224075666,4047.000797875,0,0.399367915999846
129,10,24,categorization,0,kitchen,SHINEd_labelme_kxvouciolcpqplr.tif,62,0.0666666666666667,0.0666666666666667,0.966666666666667,4047.015264541,4047.393847291,13,4047.081507875,4047.144527875,4047.417899625,4048.377904875,0,0.378582750000078
129,11,24,categorization,0,kitchen,SHINEd_sun_abdenxonkemggwsq.tif,69,0.0666666666666667,0.0666666666666667,0.95,4048.382761625,4048.7608135,13,4048.444573083,4048.505408166,4048.773794291,4049.7171315,0,0.378051874999983
129,12,24,categorization,0,bathroom,SHINEd_sun_ajlawzvmubibwbpy.tif,30,0.0666666666666667,0.0666666666666667,0.966666666666667,4049.722080541,4050.120964125,9,4049.783852875,4049.844702333,4050.129896791,4051.089899958,0,0.398883583999577
129,13,24,categorization,0,kitchen,SHINEd_sun_abdxkyyxwfskuaqb.tif,70,0.0666666666666667,0.0666666666666667,1.31666666666667,4051.094534333,4051.457043125,13,4051.156099333,4051.2171175,4051.468776666,4052.778831791,0,0.362508791999971
129,14,24,categorization,0,kitchen,SHINEd_sun_aypmqwcualkenuoe.tif,109,0.0666666666666667,0.0666666666666667,0.766666666666667,4052.795263958,4053.456966541,9,4052.861785583,4052.927895958,4053.484622208,4054.244658291,1,0.661702583000078
129,15,24,categorization,0,kitchen,SHINEd_sun_admlmbcdswaszruo.tif,79,0.0666666666666667,0.0666666666666667,1.61666666666667,4054.261661208,4054.800359625,9,4054.32832775,4054.391845291,4054.810952875,4056.421001291,1,0.538698416999978
129,16,24,categorization,0,kitchen,SHINEd_sun_akchetnepxlcxhsu.tif,98,0.0666666666666667,0.0666666666666667,1.93333333333333,4056.437882916,4057.14544775,9,4056.504107208,4056.570142708,4057.157962041,4059.084665666,1,0.707564834000095
129,17,24,categorization,0,bathroom,SHINEd_sun_ahaulkltgpkeeemi.tif,26,0.0666666666666667,0.0666666666666667,0.733333333333333,4059.100271666,4059.616034166,9,4059.165089708,4059.231826375,4059.637724833,4060.364396791,0,0.515762500000164
129,18,24,categorization,0,kitchen,SHINEd_sun_abftihopvusyfakt.tif,71,0.0666666666666667,0.0666666666666667,1.63333333333333,4060.369658541,4061.04105625,9,4060.431396666,4060.492530333,4061.044347625,4062.671059833,1,0.671397709000303
129,19,24,categorization,0,bathroom,SHINEd_sun_auzqhkafidnkrwmo.tif,54,0.0666666666666667,0.0666666666666667,1.51666666666667,4062.688314625,4063.338642,13,4062.755228458,4062.82047025,4063.360001833,4064.87005375,1,0.650327374999961
129,20,24,categorization,0,bathroom,SHINEd_sun_agrwbmhcpmfuwmsg.tif,24,0.0666666666666667,0.0666666666666667,1.68333333333333,4064.88700575,4065.554623416,9,4064.953539583,4065.019338,4065.575819083,4067.252527541,0,0.667617666000297
129,21,24,categorization,0,bathroom,SHINEd_sun_azqyogdvyhahyram.tif,60,0.0666666666666667,0.0666666666666667,1.28333333333333,4067.263406958,4067.922226041,13,4067.330563208,4067.395982833,4067.9339705,4069.210685291,1,0.658819083000253
129,22,24,categorization,0,bathroom,SHINEd_sun_aljolscmmzydegqp.tif,33,0.0666666666666667,0.0666666666666667,0.766666666666667,4069.220325708,4069.880699208,13,4069.286329666,4069.351520625,4069.908421,4070.66847575,1,0.660373499999878
129,23,24,categorization,0,bathroom,SHINEd_sun_afcoljnjfoxjtgja.tif,20,0.0666666666666667,0.0666666666666667,1.1,4070.684117541,4071.232800791,13,4070.750779541,4070.816343458,4071.251627708,4072.345015375,1,0.548683250000067
129,24,24,categorization,0,bathroom,SHINEd_sun_aghyqhbptboemmoq.tif,23,0.0666666666666667,0.0666666666666667,1.55,4072.35443225,4072.723203791,9,4072.419443625,4072.484753,4072.740546875,4074.283940208,0,0.36877154099966
129,25,24,categorization,0,kitchen,SHINEd_sun_ahywdevtimnqcsln.tif,94,0.0666666666666667,0.0666666666666667,1.88333333333333,4074.29861325,4074.712615125,9,4074.361192458,4074.42190575,4074.723582791,4076.600306541,1,0.41400187499994
129,26,24,categorization,0,bathroom,SHINEd_sun_abapwbhyhkfixyex.tif,14,0.0666666666666667,0.0666666666666667,1.05,4076.618035791,4076.925064541,9,4076.684612291,4076.750359375,4076.93940325,4077.982795875,0,0.307028750000427
129,27,24,categorization,0,kitchen,SHINEd_sun_ajkqhtgcbgpcwrwn.tif,97,0.0666666666666667,0.0666666666666667,0.933333333333333,4077.991296791,4078.464594625,13,4078.055564375,4078.122525333,4078.476745625,4079.403448,0,0.473297833999823
129,28,24,categorization,0,kitchen,SHINEd_sun_aarfiyshqohlwkmo.tif,67,0.0666666666666667,0.0666666666666667,1.4,4079.419420875,4079.792395916,9,4079.485947458,4079.552522541,4079.807688583,4081.201073708,1,0.372975040999791
129,29,24,categorization,0,bathroom,SHINEd_sun_axxbkopsgyouuebh.tif,58,0.0666666666666667,0.0666666666666667,1.85,4081.211205916,4081.565625458,9,4081.276732583,4081.344233875,4081.584086708,4083.427476791,0,0.35441954199996
129,30,24,categorization,0,kitchen,SHINEd_sun_aegoxogugdkwpmpj.tif,80,0.0666666666666667,0.0666666666666667,1.2,4083.445281291,4083.762317375,9,4083.511721666,4083.578041916,4083.784837125,4084.97822175,1,0.317036083999938
129,31,24,categorization,0,bathroom,SHINEd_sun_apkxzenqapsujocq.tif,45,0.0666666666666667,0.0666666666666667,1.33333333333333,4084.995692375,4085.304920041,13,4085.058799,4085.118705958,4085.320451083,4086.647178375,1,0.30922766599997
129,32,24,categorization,0,kitchen,SHINEd_labelme_rykdqxenmhulbdn.tif,63,0.0666666666666667,0.0666666666666667,0.8,4086.663707708,4087.06637875,13,4086.730028791,4086.795686416,4087.084947166,4087.878293666,0,0.402671041999838
129,33,24,categorization,0,kitchen,SHINEd_sun_acfmftudsenhrfhy.tif,74,0.0666666666666667,0.0666666666666667,0.7,4087.888421125,4088.438287291,9,4087.954854083,4088.017265083,4088.454436291,4089.147773125,1,0.549866165999902
129,34,24,categorization,0,bathroom,SHINEd_sun_agguqiubmwhqqunb.tif,22,0.0666666666666667,0.0666666666666667,1.26666666666667,4089.15243825,4089.760928125,9,4089.214210041,4089.275092083,4089.776839875,4091.036876041,0,0.608489875000032
129,35,24,categorization,0,kitchen,SHINEd_sun_abpwyqmlzafvklqo.tif,72,0.0666666666666667,0.0666666666666667,1.98333333333333,4091.048687625,4091.400930666,9,4091.115176958,4091.179645583,4091.418824958,4093.395530375,1,0.352243040999838
129,36,24,categorization,0,kitchen,SHINEd_sun_aenotlpyftoioydp.tif,82,0.0666666666666667,0.0666666666666667,1.18333333333333,4093.412263083,4093.79046175,9,4093.478894,4093.544890291,4093.8178655,4094.994545708,1,0.378198666999651
129,37,24,categorization,0,kitchen,SHINEd_sun_aamedkxepzlwuxes.tif,65,0.0666666666666667,0.0666666666666667,0.916666666666667,4095.0005715,4095.328960291,13,4095.062818291,4095.123126291,4095.341563708,4096.251567375,0,0.328388790999725
129,38,24,categorization,0,kitchen,SHINEd_sun_aexklacwqwezaorf.tif,84,0.0666666666666667,0.0666666666666667,1,4096.256282541,4096.616425916,13,4096.317989833,4096.378849541,4096.630547833,4097.623887083,0,0.360143375000007
129,39,24,categorization,0,bathroom,SHINEd_sun_ahqjwnzgolcaoidx.tif,29,0.0666666666666667,0.0666666666666667,1.63333333333333,4097.629289541,4098.024600958,9,4097.691081916,4097.751914125,4098.037109416,4099.663831541,0,0.395311416999903
129,40,24,categorization,0,bathroom,SHINEd_sun_aofnryafpsjimzsb.tif,40,0.0666666666666667,0.0666666666666667,1.36666666666667,4099.681095166,4102.193176416,9,4099.748336625,4099.813546541,4102.199582333,4103.559639125,0,2.51208124999994
129,41,24,categorization,0,kitchen,SHINEd_sun_akcjzhbbjlbogpdi.tif,99,0.0666666666666667,0.0666666666666667,1.1,4103.579800833,4106.169015416,9,4103.646480875,4103.712605208,4106.18204,4107.275421625,1,2.58921458299938
129,42,24,categorization,0,bathroom,SHINEd_sun_aavhrsfjbserjtht.tif,13,0.0666666666666667,0.0666666666666667,1.43333333333333,4107.283523791,4107.404041125,9,4107.348231416,4107.413493458,4107.436621,4108.86334475,0,0.120517333999487
129,43,24,categorization,0,kitchen,SHINEd_sun_ahljzhgcdpomplvg.tif,91,0.0666666666666667,0.0666666666666667,0.883333333333333,4108.881233458,4109.344395833,9,4108.948014625,4109.014000708,4109.34942875,4110.226101708,1,0.463162375000138
129,44,24,categorization,0,kitchen,SHINEd_sun_ajcbwwvdlsvjyzje.tif,96,0.0666666666666667,0.0666666666666667,1.86666666666667,4110.230889291,4110.624109125,9,4110.292508208,4110.353509416,4110.63860725,4112.498663625,1,0.393219834000774
129,45,24,categorization,0,bathroom,SHINEd_sun_aspsyogrekjtfozg.tif,50,0.0666666666666667,0.0666666666666667,0.966666666666667,4112.51595725,4112.938620791,9,4112.582652291,4112.648305708,4112.953532083,4113.913535791,0,0.422663541000475
129,46,24,categorization,0,bathroom,SHINEd_sun_aoybiabnpadelefl.tif,41,0.0666666666666667,0.0666666666666667,1.86666666666667,4113.918737291,4114.337054833,9,4113.980507291,4114.041374416,4114.343097208,4116.203153291,0,0.418317542000295
129,47,24,categorization,0,bathroom,SHINEd_sun_awnqiikzaispgmwo.tif,56,0.0666666666666667,0.0666666666666667,1.33333333333333,4116.22051975,4116.593397583,9,4116.287300416,4116.352812291,4116.608802875,4117.93551975,0,0.37287783300053
129,48,24,categorization,0,kitchen,SHINEd_sun_aadbddgrdsjugojn.tif,64,0.0666666666666667,0.0666666666666667,0.766666666666667,4117.953255291,4118.545504208,13,4118.02020125,4118.085814625,4118.575832708,4119.335890125,0,0.592248917000688
129,49,24,categorization,0,bathroom,SHINEd_sun_aapitsgbtktqubfy.tif,12,0.0666666666666667,0.0666666666666667,1,4119.351944125,4120.241084208,9,4119.418856833,4119.484499083,4120.253097125,4121.246434666,0,0.889140082999802
129,50,24,categorization,0,kitchen,SHINEd_sun_awcpdzzznmweyyhv.tif,106,0.0666666666666667,0.0666666666666667,0.716666666666667,4121.251263583,4122.040510666,9,4121.312913958,4121.373980458,4122.05905925,4122.769063583,1,0.789247083000191
