sub_num,trial,block,task,is_practice,category,image,texture,duration,mask_dur,jitter,stim_time,time_of_resp,trial_response,mask_time,fix_time,jit_onset,trial_end,trial_accuracy,RT
129,1,21,categorization,0,kitchen,SHINEd_sun_aexklacwqwezaorf.tif,84,0.0666666666666667,0.0666666666666667,0.8,3730.21199425,3730.99410875,9,3730.274707333,3730.334632541,3731.00302225,3731.796359833,1,0.782114500000262
129,2,21,categorization,0,kitchen,SHINEd_sun_aehawpgmrlhlvcow.tif,81,0.0666666666666667,0.0666666666666667,1.18333333333333,3731.801078958,3732.329902666,9,3731.862785833,3731.92382325,3732.342170958,3733.518873541,1,0.528823708000346
129,3,21,categorization,0,bathroom,SHINEd_sun_aclfzgynxzxlbepz.tif,19,0.0666666666666667,0.0666666666666667,1.25,3733.529275666,3734.233755666,13,3733.595726708,3733.661799708,3734.25105375,3735.494422416,1,0.704479999999876
129,4,21,categorization,0,kitchen,SHINEd_sun_akchetnepxlcxhsu.tif,98,0.0666666666666667,0.0666666666666667,0.85,3735.5052325,3736.133574083,9,3735.571530791,3735.637738083,3736.159606791,3737.00299925,1,0.628341582999838
129,5,21,categorization,0,bathroom,SHINEd_sun_anhioqovhscjqqwb.tif,38,0.0666666666666667,0.0666666666666667,1.16666666666667,3737.018832625,3737.617500708,9,3737.085579708,3737.146196458,3737.632271666,3738.792323,0,0.598668083000121
129,6,21,categorization,0,bathroom,SHINEd_sun_agyqfjcfkdcydepw.tif,25,0.0666666666666667,0.0666666666666667,1.51666666666667,3738.802269291,3739.334616791,13,3738.86893875,3738.934485125,3739.357769916,3740.86780275,1,0.532347500000014
129,7,21,categorization,0,kitchen,SHINEd_sun_aaxxjlsuzvqlgylf.tif,68,0.0666666666666667,0.0666666666666667,0.75,3740.885635833,3741.499958041,13,3740.9522225,3741.018039833,3741.524648583,3742.268036208,0,0.614322207999976
129,8,21,categorization,0,kitchen,SHINEd_labelme_kxvouciolcpqplr.tif,62,0.0666666666666667,0.0666666666666667,0.983333333333333,3742.2832975,3743.033465333,13,3742.349564166,3742.415557625,3743.051196416,3744.027869083,0,0.750167832999978
129,9,21,categorization,0,kitchen,SHINEd_sun_aenotlpyftoioydp.tif,82,0.0666666666666667,0.0666666666666667,0.966666666666667,3744.032678625,3744.737785375,13,3744.094401916,3744.155369083,3744.75714825,3745.717151958,0,0.705106750000141
129,10,21,categorization,0,bathroom,SHINEd_sun_alkosphxlxwjwgjd.tif,34,0.0666666666666667,0.0666666666666667,1.33333333333333,3745.721974666,3746.441729333,13,3745.783634083,3745.844781625,3746.446448125,3747.7731705,1,0.719754666999961
129,11,21,categorization,0,bathroom,SHINEd_sun_aunuadmjocsddsrl.tif,52,0.0666666666666667,0.0666666666666667,1.46666666666667,3747.7911365,3748.39328375,9,3747.857775541,3747.923515666,3748.41294525,3749.872979833,0,0.602147250000144
129,12,21,categorization,0,kitchen,SHINEd_sun_abrcnpqqhmjwekyf.tif,73,0.0666666666666667,0.0666666666666667,1.03333333333333,3749.89085275,3750.378146916,9,3749.957266708,3750.022986708,3750.395840708,3751.422548041,1,0.487294166000083
129,13,21,categorization,0,kitchen,SHINEd_sun_auticobqsbwgoppi.tif,104,0.0666666666666667,0.0666666666666667,1.76666666666667,3751.437343166,3751.994157791,9,3751.503732833,3751.56996975,3752.005179416,3753.765214125,1,0.556814624999788
129,14,21,categorization,0,kitchen,SHINEd_sun_aeqdocilnnpuvuhx.tif,83,0.0666666666666667,0.0666666666666667,1.58333333333333,3753.782031833,3754.501530541,9,3753.849130125,3753.914271083,3754.521153,3756.0978705,1,0.719498708000174
129,15,21,categorization,0,kitchen,SHINEd_sun_aapllqyqlykszopd.tif,66,0.0666666666666667,0.0666666666666667,0.783333333333333,3756.111552791,3756.969921958,13,3756.1783795,3756.244247083,3756.98268625,3757.75936,0,0.858369167000092
129,16,21,categorization,0,bathroom,SHINEd_sun_amzlamotzwfkwjco.tif,37,0.0666666666666667,0.0666666666666667,0.75,3757.764199041,3758.346106583,13,3757.82613725,3757.886857916,3758.355129291,3759.098468541,1,0.581907541999954
129,17,21,categorization,0,bathroom,SHINEd_sun_akiytfaagpdsphgz.tif,31,0.0666666666666667,0.0666666666666667,1.05,3759.102922625,3759.737998375,13,3759.164553833,3759.226028333,3759.744332833,3760.78771925,1,0.635075750000397
129,18,21,categorization,0,kitchen,SHINEd_sun_akcjzhbbjlbogpdi.tif,99,0.0666666666666667,0.0666666666666667,0.716666666666667,3760.796135916,3761.427264458,9,3760.860235041,3760.926973708,3761.45014875,3762.160204791,1,0.63112854200017
129,19,21,categorization,0,bathroom,SHINEd_sun_apjevzvycyhuqghb.tif,43,0.0666666666666667,0.0666666666666667,1.31666666666667,3762.175764208,3762.667186916,9,3762.242108,3762.307867958,3762.678508666,3763.9885545,0,0.491422707999845
129,20,21,categorization,0,bathroom,SHINEd_sun_ahaulkltgpkeeemi.tif,26,0.0666666666666667,0.0666666666666667,1.35,3764.006958958,3764.453933666,9,3764.073693791,3764.139399375,3764.479241833,3765.822609416,0,0.446974708000198
129,21,21,categorization,0,kitchen,SHINEd_labelme_rykdqxenmhulbdn.tif,63,0.0666666666666667,0.0666666666666667,1.56666666666667,3765.833886333,3766.310352916,9,3765.8993935,3765.966435833,3766.339943958,3767.899998208,1,0.476466582999819
129,22,21,categorization,0,kitchen,SHINEd_sun_acfmftudsenhrfhy.tif,74,0.0666666666666667,0.0666666666666667,1.26666666666667,3767.911994791,3768.418335833,9,3767.973727541,3768.034596541,3768.436319541,3769.696368708,1,0.506341042000258
129,23,21,categorization,0,kitchen,SHINEd_sun_awcpdzzznmweyyhv.tif,106,0.0666666666666667,0.0666666666666667,1.06666666666667,3769.713570791,3770.310518291,9,3769.779986875,3769.845671083,3770.335536,3771.39556825,1,0.596947499999715
129,24,21,categorization,0,kitchen,SHINEd_sun_avszsnwsbuqfgzbn.tif,105,0.0666666666666667,0.0666666666666667,1,3771.413101416,3771.834133666,9,3771.4796965,3771.545222833,3771.847447166,3772.840784625,1,0.42103225000028
129,25,21,categorization,0,kitchen,SHINEd_sun_ahywdevtimnqcsln.tif,94,0.0666666666666667,0.0666666666666667,0.933333333333333,3772.845882333,3773.282010708,9,3772.907615333,3772.968472291,3773.286906708,3774.21357975,1,0.436128374999953
129,26,21,categorization,0,kitchen,SHINEd_sun_abftihopvusyfakt.tif,71,0.0666666666666667,0.0666666666666667,0.716666666666667,3774.219153291,3774.625870666,9,3774.280749875,3774.34169275,3774.643394916,3775.353398541,1,0.406717374999971
129,27,21,categorization,0,bathroom,SHINEd_sun_aggnnqpdorgxpvce.tif,21,0.0666666666666667,0.0666666666666667,0.783333333333333,3775.357762416,3776.090227375,9,3775.41941825,3775.4803405,3776.098807875,3776.875477541,0,0.732464959000026
129,28,21,categorization,0,kitchen,SHINEd_sun_ahspylgoovwmwvgk.tif,93,0.0666666666666667,0.0666666666666667,1.18333333333333,3776.880031208,3777.561878583,9,3776.941676333,3777.002564333,3777.570998916,3778.747710958,1,0.681847374999961
129,29,21,categorization,0,bathroom,SHINEd_sun_apynckhmoftszqoq.tif,47,0.0666666666666667,0.0666666666666667,0.866666666666667,3778.757142541,3779.244454791,9,3778.823509416,3778.889495666,3779.26104325,3780.121079125,0,0.487312249999832
129,30,21,categorization,0,bathroom,SHINEd_sun_aapitsgbtktqubfy.tif,12,0.0666666666666667,0.0666666666666667,0.933333333333333,3780.13688475,3780.634489875,9,3780.203319625,3780.269161416,3780.655147541,3781.581819125,0,0.497605125000064
129,31,21,categorization,0,kitchen,SHINEd_sun_afuyedyxivkhecmu.tif,85,0.0666666666666667,0.0666666666666667,0.75,3781.586682041,3782.137912208,9,3781.648330125,3781.709346,3782.144387583,3782.887725208,1,0.551230167000085
129,32,21,categorization,0,kitchen,SHINEd_sun_aarfiyshqohlwkmo.tif,67,0.0666666666666667,0.0666666666666667,1.23333333333333,3782.892191583,3783.337856541,9,3782.953911458,3783.014738958,3783.349921208,3784.576631583,1,0.445664957999725
129,33,21,categorization,0,kitchen,SHINEd_sun_agubuxuukhzyzpdp.tif,88,0.0666666666666667,0.0666666666666667,1.18333333333333,3784.58907175,3785.044708416,9,3784.655556958,3784.72129475,3785.060283916,3786.236985083,1,0.455636665999918
129,34,21,categorization,0,kitchen,SHINEd_sun_axyyrmzcupyhlivc.tif,107,0.0666666666666667,0.0666666666666667,1.73333333333333,3786.254153958,3786.617754416,9,3786.318643291,3786.386289458,3786.621594125,3788.348319291,1,0.363600457999837
129,35,21,categorization,0,bathroom,SHINEd_sun_ausgutylgojavyoq.tif,53,0.0666666666666667,0.0666666666666667,1,3788.366176,3788.820903583,9,3788.432696958,3788.499320458,3788.83883375,3789.832172208,0,0.454727583000022
129,36,21,categorization,0,kitchen,SHINEd_sun_agorklincwxrdtga.tif,87,0.0666666666666667,0.0666666666666667,1.3,3789.8371045,3790.22546375,9,3789.898896291,3789.959940541,3790.228169333,3791.521562708,1,0.388359250000121
129,37,21,categorization,0,bathroom,SHINEd_sun_axxbkopsgyouuebh.tif,58,0.0666666666666667,0.0666666666666667,1.15,3791.533551458,3791.71814375,9,3791.599933708,3791.665865458,3791.738855791,3792.882239375,0,0.184592291999707
129,38,21,categorization,0,bathroom,SHINEd_sun_aspsyogrekjtfozg.tif,50,0.0666666666666667,0.0666666666666667,0.966666666666667,3792.898566291,3793.505957916,13,3792.965405583,3793.031268791,3793.516983416,3794.476988833,1,0.607391625000218
129,39,21,categorization,0,kitchen,SHINEd_sun_ahpczsiumwwocjkv.tif,92,0.0666666666666667,0.0666666666666667,1.85,3794.481786208,3795.018128666,9,3794.543430458,3794.604473583,3795.022923833,3796.866311333,1,0.536342458000036
129,40,21,categorization,0,kitchen,SHINEd_sun_acwjdupvyjsugpay.tif,76,0.0666666666666667,0.0666666666666667,1.11666666666667,3796.885548041,3797.396159708,9,3796.952712291,3797.018270291,3797.406752833,3798.516791375,1,0.510611666999921
129,41,21,categorization,0,bathroom,SHINEd_labelme_sfxiulhjbhlyiyt.tif,11,0.0666666666666667,0.0666666666666667,0.916666666666667,3798.52556875,3798.91079975,9,3798.590280625,3798.658435083,3798.931075666,3799.841123666,0,0.385231000000203
129,42,21,categorization,0,kitchen,SHINEd_sun_auaiucuqpdausiva.tif,102,0.0666666666666667,0.0666666666666667,1.61666666666667,3799.857073208,3800.261183125,9,3799.923778416,3799.9893715,3800.279187208,3801.889249583,1,0.404109916999914
129,43,21,categorization,0,bathroom,SHINEd_sun_auzqhkafidnkrwmo.tif,54,0.0666666666666667,0.0666666666666667,0.766666666666667,3801.908734291,3802.313176583,9,3801.975602125,3802.038757291,3802.326864083,3803.086907625,0,0.404442291999658
129,44,21,categorization,0,bathroom,SHINEd_sun_aqrpegblszgcoujh.tif,48,0.0666666666666667,0.0666666666666667,0.85,3803.09847225,3803.625943041,9,3803.163777416,3803.230149875,3803.632682666,3804.476021333,0,0.527470790999814
129,45,21,categorization,0,bathroom,SHINEd_sun_apeeialkgkuxddgh.tif,42,0.0666666666666667,0.0666666666666667,1.8,3804.480670666,3805.121350958,13,3804.542510708,3804.603343458,3805.138510208,3806.931879958,1,0.64068029200007
129,46,21,categorization,0,kitchen,SHINEd_sun_amjjdeyrggfqgmom.tif,100,0.0666666666666667,0.0666666666666667,0.833333333333333,3806.949013708,3807.723265708,13,3807.015685125,3807.082107583,3807.737849666,3808.56452125,0,0.774251999999706
129,47,21,categorization,0,kitchen,SHINEd_sun_aegoxogugdkwpmpj.tif,80,0.0666666666666667,0.0666666666666667,1.05,3808.569243208,3809.233427958,9,3808.63084725,3808.691948875,3809.243767166,3810.2871485,1,0.664184750000004
129,48,21,categorization,0,kitchen,SHINEd_sun_aypmqwcualkenuoe.tif,109,0.0666666666666667,0.0666666666666667,1.68333333333333,3810.297128333,3811.062664666,13,3810.361378583,3810.427512958,3811.0837875,3812.760491125,0,0.765536333
129,49,21,categorization,0,kitchen,SHINEd_sun_ahdycvpopffkzzsu.tif,90,0.0666666666666667,0.0666666666666667,1.7,3812.779348791,3813.259674208,13,3812.845842875,3812.911775666,3813.285267958,3814.978639708,0,0.480325417000131
129,50,21,categorization,0,bathroom,SHINEd_sun_apkxzenqapsujocq.tif,45,0.0666666666666667,0.0666666666666667,1.01666666666667,3814.994535125,3815.638625666,13,3815.061174541,3815.126934,3815.66689075,3816.676897375,1,0.644090540999969
