sub_num,trial,block,task,is_practice,category,image,texture,duration,mask_dur,jitter,stim_time,time_of_resp,trial_response,mask_time,fix_time,jit_onset,trial_end,trial_accuracy,RT
129,1,17,categorization,0,bathroom,SHINEd_sun_abjtwfukuwddzted.tif,15,0.0666666666666667,0.0666666666666667,0.9,3239.9481505,3240.947792791,9,3240.01093475,3240.070812291,3240.956040125,3241.849379666,0,0.999642291000328
129,2,17,categorization,0,kitchen,SHINEd_sun_aixorpehvfykdynp.tif,95,0.0666666666666667,0.0666666666666667,1.65,3241.854082166,3242.795747291,9,3241.915858791,3241.976733833,3242.812311583,3244.455684,1,0.941665125000327
129,3,17,categorization,0,kitchen,SHINEd_sun_aegoxogugdkwpmpj.tif,80,0.0666666666666667,0.0666666666666667,1.18333333333333,3244.473097583,3245.391345208,9,3244.539589083,3244.604751833,3245.411144375,3246.587867291,1,0.918247625000276
129,4,17,categorization,0,kitchen,SHINEd_sun_akchetnepxlcxhsu.tif,98,0.0666666666666667,0.0666666666666667,1.18333333333333,3246.598052416,3247.430956208,13,3246.664276166,3246.730295791,3247.454492583,3248.631197958,0,0.832903792000252
129,5,17,categorization,0,kitchen,SHINEd_sun_aymvwlarqodbwuoc.tif,108,0.0666666666666667,0.0666666666666667,0.766666666666667,3248.649163083,3249.347253166,9,3248.715427833,3248.781795125,3249.372343541,3250.132382,1,0.698090082999897
129,6,17,categorization,0,kitchen,SHINEd_sun_azmutvzbxypaceni.tif,110,0.0666666666666667,0.0666666666666667,1.1,3250.14890425,3250.73978225,9,3250.2157075,3250.281315833,3250.749984333,3251.843361166,1,0.590877999999975
129,7,17,categorization,0,bathroom,SHINEd_sun_amzlamotzwfkwjco.tif,37,0.0666666666666667,0.0666666666666667,1.98333333333333,3251.851456458,3252.560841333,9,3251.916182166,3251.983782541,3252.5905625,3254.567268625,0,0.709384875000069
129,8,17,categorization,0,kitchen,SHINEd_sun_aehawpgmrlhlvcow.tif,81,0.0666666666666667,0.0666666666666667,0.8,3254.584324333,3255.335800333,13,3254.651022708,3254.716523166,3255.356222416,3256.149565,0,0.751475999999911
129,9,17,categorization,0,bathroom,SHINEd_sun_apkruvsevgegsdwp.tif,44,0.0666666666666667,0.0666666666666667,1.68333333333333,3256.154486791,3256.8361895,13,3256.216239583,3256.277057625,3256.845537291,3258.522242875,1,0.681702708999637
129,10,17,categorization,0,bathroom,SHINEd_sun_agguqiubmwhqqunb.tif,22,0.0666666666666667,0.0666666666666667,1.73333333333333,3258.539650958,3259.445076375,13,3258.606046458,3258.6719265,3259.461238,3261.187941291,1,0.90542541700006
129,11,17,categorization,0,kitchen,SHINEd_sun_ajcbwwvdlsvjyzje.tif,96,0.0666666666666667,0.0666666666666667,0.766666666666667,3261.197105791,3261.803748583,9,3261.261873416,3261.329112416,3261.817511666,3262.577563666,1,0.606642792000002
129,12,17,categorization,0,kitchen,SHINEd_sun_aarfiyshqohlwkmo.tif,67,0.0666666666666667,0.0666666666666667,1.43333333333333,3262.588686041,3263.115411125,9,3262.650772833,3262.711369041,3263.129786833,3264.556490333,1,0.526725083999736
129,13,17,categorization,0,kitchen,SHINEd_sun_aamedkxepzlwuxes.tif,65,0.0666666666666667,0.0666666666666667,0.7,3264.57345125,3265.142753166,9,3264.639781625,3264.705944,3265.160447958,3265.853840958,1,0.569301916000313
129,14,17,categorization,0,kitchen,SHINEd_labelme_kxvouciolcpqplr.tif,62,0.0666666666666667,0.0666666666666667,1.01666666666667,3265.869055875,3266.412199083,13,3265.93568075,3266.001438208,3266.420019208,3267.430058875,0,0.543143207999947
129,15,17,categorization,0,bathroom,SHINEd_sun_agyqfjcfkdcydepw.tif,25,0.0666666666666667,0.0666666666666667,1.71666666666667,3267.438719125,3268.030004333,13,3267.502778041,3267.569423125,3268.040636083,3269.750670625,1,0.591285208000045
129,16,17,categorization,0,bathroom,SHINEd_sun_apkxzenqapsujocq.tif,45,0.0666666666666667,0.0666666666666667,1.73333333333333,3269.767442375,3270.384643666,13,3269.833850583,3269.899901333,3270.406601833,3272.133304208,1,0.617201291000129
129,17,17,categorization,0,bathroom,SHINEd_sun_anhioqovhscjqqwb.tif,38,0.0666666666666667,0.0666666666666667,1.93333333333333,3272.150465791,3272.714953958,13,3272.217264708,3272.282754083,3272.7370965,3274.663821625,1,0.564488167000036
129,18,17,categorization,0,bathroom,SHINEd_sun_alotolagknyrgtsk.tif,35,0.0666666666666667,0.0666666666666667,1.1,3274.681683375,3275.343947666,9,3274.748367458,3274.814518583,3275.371406791,3276.464775166,0,0.662264291000156
129,19,17,categorization,0,bathroom,SHINEd_sun_aghyqhbptboemmoq.tif,23,0.0666666666666667,0.0666666666666667,0.933333333333333,3276.474293958,3277.012774416,9,3276.539188333,3276.60613225,3277.028047708,3277.954752833,0,0.538480457999867
129,20,17,categorization,0,bathroom,SHINEd_sun_awnqiikzaispgmwo.tif,56,0.0666666666666667,0.0666666666666667,1.16666666666667,3277.970118416,3278.771501208,13,3278.037215291,3278.102437791,3278.787683,3279.947722666,1,0.801382791999913
129,21,17,categorization,0,bathroom,SHINEd_sun_alkosphxlxwjwgjd.tif,34,0.0666666666666667,0.0666666666666667,1.08333333333333,3279.957742416,3280.982146291,13,3280.024470333,3280.090224125,3280.996091583,3282.072797125,1,1.02440387499973
129,22,17,categorization,0,kitchen,SHINEd_sun_ahywdevtimnqcsln.tif,94,0.0666666666666667,0.0666666666666667,1.36666666666667,3282.082351958,3282.670646,13,3282.146890958,3282.212446375,3282.684636,3284.04467475,0,0.588294042000143
129,23,17,categorization,0,bathroom,SHINEd_sun_aofnryafpsjimzsb.tif,40,0.0666666666666667,0.0666666666666667,1.85,3284.059587708,3284.899707166,9,3284.126187416,3284.183661625,3284.918770958,3286.762157166,0,0.840119458000117
129,24,17,categorization,0,bathroom,SHINEd_sun_acduarbnmmoglmiv.tif,16,0.0666666666666667,0.0666666666666667,1.1,3286.78567025,3287.588489291,13,3286.852572458,3286.918195333,3287.608279041,3288.701653041,1,0.802819041000021
129,25,17,categorization,0,kitchen,SHINEd_sun_aadbddgrdsjugojn.tif,64,0.0666666666666667,0.0666666666666667,1.71666666666667,3288.709949416,3289.892953708,9,3288.774609958,3288.841729833,3289.915018291,3291.625055166,1,1.18300429199962
129,26,17,categorization,0,bathroom,SHINEd_sun_apeeialkgkuxddgh.tif,42,0.0666666666666667,0.0666666666666667,1.6,3291.639631166,3292.301907875,13,3291.706494291,3291.771888958,3292.327754916,3293.9211445,1,0.662276708999798
129,27,17,categorization,0,bathroom,SHINEd_sun_aclfzgynxzxlbepz.tif,19,0.0666666666666667,0.0666666666666667,0.85,3293.936858375,3294.675312875,13,3294.003620166,3294.069212208,3294.691924041,3295.535265875,1,0.738454499999989
129,28,17,categorization,0,bathroom,SHINEd_sun_ajlawzvmubibwbpy.tif,30,0.0666666666666667,0.0666666666666667,1.35,3295.540245333,3296.371870083,9,3295.601902041,3295.662875,3296.381314291,3297.724688458,0,0.831624750000174
129,29,17,categorization,0,bathroom,SHINEd_sun_aoybiabnpadelefl.tif,41,0.0666666666666667,0.0666666666666667,1.65,3297.742341708,3298.446439625,13,3297.808631625,3297.874859541,3298.464225166,3300.107609666,1,0.704097917000126
129,30,17,categorization,0,bathroom,SHINEd_sun_ahijqszoswveeyji.tif,28,0.0666666666666667,0.0666666666666667,1.35,3300.125984083,3300.862002583,13,3300.19268125,3300.258269541,3300.88140075,3302.224789916,1,0.736018500000228
129,31,17,categorization,0,bathroom,SHINEd_sun_apmqjbnwghzuhhzh.tif,46,0.0666666666666667,0.0666666666666667,1.63333333333333,3302.243111833,3303.062324041,13,3302.310000833,3302.375306875,3303.08159275,3304.708297291,1,0.819212207999954
129,32,17,categorization,0,kitchen,SHINEd_labelme_brsyyvweiuaazfr.tif,61,0.0666666666666667,0.0666666666666667,1.1,3304.7266015,3305.615657333,9,3304.793255833,3304.85873875,3305.631178541,3306.724559416,1,0.889055832999929
129,33,17,categorization,0,bathroom,SHINEd_sun_aavhrsfjbserjtht.tif,13,0.0666666666666667,0.0666666666666667,1.11666666666667,3306.733494208,3307.304173208,9,3306.798478291,3306.865906125,3307.322772625,3308.432823166,0,0.570678999999927
129,34,17,categorization,0,kitchen,SHINEd_sun_aaxxjlsuzvqlgylf.tif,68,0.0666666666666667,0.0666666666666667,1.5,3308.449184916,3309.171639625,9,3308.515927875,3308.5817985,3309.183717833,3310.677089708,1,0.722454708999976
129,35,17,categorization,0,kitchen,SHINEd_sun_afuyedyxivkhecmu.tif,85,0.0666666666666667,0.0666666666666667,1.28333333333333,3310.694974125,3311.446431541,13,3310.761045833,3310.827310041,3311.466647666,3312.743364708,0,0.751457415999994
129,36,17,categorization,0,kitchen,SHINEd_sun_agzzivivdpnawacl.tif,89,0.0666666666666667,0.0666666666666667,1.7,3312.760203541,3313.594965833,9,3312.826537083,3312.892624625,3313.615672041,3315.309065291,1,0.83476229200005
129,37,17,categorization,0,bathroom,SHINEd_sun_axyrejkiiaqiurjk.tif,59,0.0666666666666667,0.0666666666666667,1.08333333333333,3315.328032875,3316.175691875,9,3315.394453208,3315.460894458,3316.200969375,3317.277687625,0,0.847659000000021
129,38,17,categorization,0,kitchen,SHINEd_sun_ahspylgoovwmwvgk.tif,93,0.0666666666666667,0.0666666666666667,1.65,3317.286252208,3318.286904916,9,3317.350754416,3317.416156708,3318.305615083,3319.948996041,1,1.00065270799996
129,39,17,categorization,0,kitchen,SHINEd_sun_aenotlpyftoioydp.tif,82,0.0666666666666667,0.0666666666666667,1.31666666666667,3319.9661085,3320.91235675,9,3320.032988708,3320.098637458,3320.938804333,3322.248861541,1,0.946248250000281
129,40,17,categorization,0,bathroom,SHINEd_sun_atstyziqcmkahyxk.tif,51,0.0666666666666667,0.0666666666666667,0.95,3322.266342791,3323.230952416,13,3322.332983,3322.398797958,3323.254668625,3324.198009,1,0.964609624999866
129,41,17,categorization,0,bathroom,SHINEd_sun_aleqenyvunhactkl.tif,32,0.0666666666666667,0.0666666666666667,1.43333333333333,3324.203047541,3325.099543458,13,3324.264784375,3324.325628541,3325.1112,3326.537914791,1,0.896495916999811
129,42,17,categorization,0,kitchen,SHINEd_sun_avszsnwsbuqfgzbn.tif,105,0.0666666666666667,0.0666666666666667,1.66666666666667,3326.555612375,3327.307910333,9,3326.62287975,3326.688457291,3327.328792541,3328.988841333,1,0.752297958000327
129,43,17,categorization,0,bathroom,SHINEd_sun_aqrpegblszgcoujh.tif,48,0.0666666666666667,0.0666666666666667,0.933333333333333,3329.00684925,3329.773060041,13,3329.073557916,3329.139396,3329.796621333,3330.723297541,1,0.766210791000049
129,44,17,categorization,0,kitchen,SHINEd_sun_acxkpeoqbwcxfvip.tif,77,0.0666666666666667,0.0666666666666667,0.833333333333333,3330.730111333,3331.467895875,9,3330.792060333,3330.852729833,3331.4713255,3332.297997791,1,0.737784542000099
129,45,17,categorization,0,kitchen,SHINEd_sun_ahpczsiumwwocjkv.tif,92,0.0666666666666667,0.0666666666666667,1.26666666666667,3332.302749958,3333.027916458,9,3332.364398208,3332.425280416,3333.044257958,3334.304300833,1,0.725166500000341
129,46,17,categorization,0,kitchen,SHINEd_sun_ahdycvpopffkzzsu.tif,90,0.0666666666666667,0.0666666666666667,1.93333333333333,3334.322456583,3335.307460958,9,3334.388643041,3334.455228833,3335.32837975,3337.255085833,1,0.985004374999789
129,47,17,categorization,0,bathroom,SHINEd_sun_ahaulkltgpkeeemi.tif,26,0.0666666666666667,0.0666666666666667,1.06666666666667,3337.272673541,3338.00535875,13,3337.340335,3337.4047285,3338.028268708,3339.088322583,1,0.73268520900001
129,48,17,categorization,0,kitchen,SHINEd_sun_aexklacwqwezaorf.tif,84,0.0666666666666667,0.0666666666666667,0.766666666666667,3339.096774583,3339.726728291,9,3339.160965208,3339.227794083,3339.751066458,3340.51110375,1,0.629953708000357
129,49,17,categorization,0,bathroom,SHINEd_sun_avhrdrntsqrjzccq.tif,55,0.0666666666666667,0.0666666666666667,0.833333333333333,3340.527643916,3341.127691666,9,3340.59384125,3340.6597045,3341.146832208,3341.973505083,0,0.600047749999703
129,50,17,categorization,0,bathroom,SHINEd_sun_aapitsgbtktqubfy.tif,12,0.0666666666666667,0.0666666666666667,1.46666666666667,3341.979627125,3342.899470583,9,3342.041356541,3342.102262875,3342.903965083,3344.364024166,0,0.919843457999832
