sub_num,trial,block,task,is_practice,category,image,texture,duration,mask_dur,jitter,stim_time,time_of_resp,trial_response,mask_time,fix_time,jit_onset,trial_end,trial_accuracy,RT
123,6,0,typicality,1,kitchen,kitchen_practice2.tif,227,1.5,0,0.966666666666667,2856.669098916,2868.78139125,5,NaN,2868.802811375,2868.824024125,2869.784135208,NaN,NaN
123,7,0,typicality,1,kitchen,kitchen_practice5.tif,230,1.5,0,1.58333333333333,2869.794651208,2873.245453583,6,NaN,2873.254692166,2873.273486708,2874.8504005,NaN,NaN
123,8,0,typicality,1,kitchen,kitchen_practice1.tif,226,1.5,0,1.03333333333333,2874.87695075,2877.432432583,2,NaN,2877.463753041,2877.487365708,2878.514131541,NaN,NaN
123,9,0,typicality,1,kitchen,kitchen_practice4.tif,229,1.5,0,1.68333333333333,2878.532513916,2882.428976958,4,NaN,2882.43543525,2882.453797166,2884.13052075,NaN,NaN
123,10,0,typicality,1,kitchen,kitchen_practice3.tif,228,1.5,0,1.45,2884.162423541,2887.812953083,7,NaN,2887.821334,2887.839797083,2889.283199916,NaN,NaN
123,1,1,typicality,0,kitchen,sun_agubuxuukhzyzpdp.tif,198,1.5,0,0.733333333333333,2894.462009583,2897.492904083,5,NaN,2897.507335916,2897.526662333,2898.25334,NaN,NaN
123,2,1,typicality,0,kitchen,sun_ahpczsiumwwocjkv.tif,202,1.5,0,1.18333333333333,2898.257894041,2901.557353333,4,NaN,2901.562733666,2901.581379708,2902.758146958,NaN,NaN
123,3,1,typicality,0,kitchen,sun_aapllqyqlykszopd.tif,176,1.5,0,0.7,2902.76872425,2905.708704583,3,NaN,2905.71429625,2905.73252,2906.425861666,NaN,NaN
123,4,1,typicality,0,kitchen,sun_auaiucuqpdausiva.tif,212,1.5,0,1.2,2906.431442916,2909.652750541,3,NaN,2909.658170416,2909.676556666,2910.869991375,NaN,NaN
123,5,1,typicality,0,kitchen,sun_adgqasybjyktddhj.tif,188,1.5,0,0.966666666666667,2910.882636625,2913.988379625,6,NaN,2913.994246333,2914.012662333,2914.972670083,NaN,NaN
123,6,1,typicality,0,kitchen,sun_aaxxjlsuzvqlgylf.tif,178,1.5,0,1.3,2914.977247458,2917.903990083,5,NaN,2917.925108083,2917.948804208,2919.242204666,NaN,NaN
123,7,1,typicality,0,kitchen,labelme_kxvouciolcpqplr.tif,172,1.5,0,1.65,2919.261640666,2922.373259083,3,NaN,2922.379065375,2922.39745,2924.040842666,NaN,NaN
123,8,1,typicality,0,kitchen,sun_amjjdeyrggfqgmom.tif,210,1.5,0,1.63333333333333,2924.058283666,2927.014310458,5,NaN,2927.042235,2927.065696333,2928.692457083,NaN,NaN
123,9,1,typicality,0,kitchen,sun_acfmftudsenhrfhy.tif,184,1.5,0,0.9,2928.703694291,2931.980684083,6,NaN,2931.986314208,2932.004640125,2932.897982916,NaN,NaN
123,10,1,typicality,0,kitchen,sun_aypmqwcualkenuoe.tif,219,1.5,0,0.95,2932.90248825,2935.988856625,3,NaN,2935.995827041,2936.014349125,2936.957689625,NaN,NaN
123,11,1,typicality,0,kitchen,sun_avszsnwsbuqfgzbn.tif,215,1.5,0,0.816666666666667,2936.962278583,2940.023988083,2,NaN,2940.052493583,2940.075936708,2940.885943875,NaN,NaN
123,12,1,typicality,0,kitchen,sun_aarfiyshqohlwkmo.tif,177,1.5,0,1.96666666666667,2940.896339875,2944.684792958,3,NaN,2944.690497833,2944.708668125,2946.668753416,NaN,NaN
123,13,1,typicality,0,kitchen,sun_aeqdocilnnpuvuhx.tif,193,1.5,0,0.783333333333333,2946.686782791,2949.629334333,1,NaN,2949.658265083,2949.681279708,2950.457954416,NaN,NaN
123,14,1,typicality,0,kitchen,sun_ahdycvpopffkzzsu.tif,200,1.5,0,0.733333333333333,2950.462757125,2954.052200666,2,NaN,2954.058134458,2954.076561541,2954.803238958,NaN,NaN
123,15,1,typicality,0,kitchen,sun_acgtpgfybqjmzeyw.tif,185,1.5,0,1.9,2954.807618625,2958.404618708,5,NaN,2958.410299458,2958.428457875,2960.321880666,NaN,NaN
123,16,1,typicality,0,kitchen,sun_aqeaevwwwjoqhzvl.tif,211,1.5,0,0.75,2960.33552875,2963.277593208,4,NaN,2963.3035095,2963.325874625,2964.0692165,NaN,NaN
123,17,1,typicality,0,kitchen,sun_aenotlpyftoioydp.tif,192,1.5,0,0.916666666666667,2964.079683458,2968.844474583,3,NaN,2968.850055625,2968.868406625,2969.778415041,NaN,NaN
123,18,1,typicality,0,kitchen,sun_ajkqhtgcbgpcwrwn.tif,207,1.5,0,0.733333333333333,2969.782875083,2972.948280708,6,NaN,2972.957324833,2972.9763555,2973.703029666,NaN,NaN
123,19,1,typicality,0,kitchen,sun_acxkpeoqbwcxfvip.tif,187,1.5,0,1.81666666666667,2973.707503958,2977.012890583,4,NaN,2977.018182208,2977.036476625,2978.846539833,NaN,NaN
123,20,1,typicality,0,kitchen,labelme_rykdqxenmhulbdn.tif,173,1.5,0,1.16666666666667,2978.8663745,2982.604216541,3,NaN,2982.609888916,2982.628266333,2983.788355875,NaN,NaN
123,21,1,typicality,0,kitchen,sun_agorklincwxrdtga.tif,197,1.5,0,1.81666666666667,2983.798518083,2988.996943333,5,NaN,2989.0023835,2989.020686583,2990.830770875,NaN,NaN
123,22,1,typicality,0,kitchen,sun_aexklacwqwezaorf.tif,194,1.5,0,1.35,2990.846175958,2995.2363295,3,NaN,2995.241860166,2995.260207291,2996.603598125,NaN,NaN
123,23,1,typicality,0,kitchen,sun_ahywdevtimnqcsln.tif,204,1.5,0,1.25,2996.621053083,2999.812895083,4,NaN,2999.81833725,2999.836768791,3001.080209833,NaN,NaN
123,24,1,typicality,0,kitchen,sun_aamedkxepzlwuxes.tif,175,1.5,0,1.05,3001.09983625,3005.140013375,2,NaN,3005.145902083,3005.1644925,3006.20789275,NaN,NaN
123,25,1,typicality,0,kitchen,sun_ajcbwwvdlsvjyzje.tif,206,1.5,0,0.916666666666667,3006.217698333,3008.756905083,6,NaN,3008.762158875,3008.781245041,3009.691254791,NaN,NaN
123,1,2,typicality,0,kitchen,sun_awcpdzzznmweyyhv.tif,216,1.5,0,1.56666666666667,3013.848399916,3017.980677958,3,NaN,3017.986176875,3018.004470958,3019.564539375,NaN,NaN
123,2,2,typicality,0,kitchen,sun_aegoxogugdkwpmpj.tif,190,1.5,0,0.883333333333333,3019.582931458,3022.628247166,2,NaN,3022.634003625,3022.652285125,3023.528958875,NaN,NaN
123,3,2,typicality,0,kitchen,sun_aixorpehvfykdynp.tif,205,1.5,0,0.75,3023.533464458,3026.359398916,5,NaN,3026.375569875,3026.3977955,3027.14113525,NaN,NaN
123,4,2,typicality,0,kitchen,sun_aehawpgmrlhlvcow.tif,191,1.5,0,1.23333333333333,3027.145823458,3031.892878916,4,NaN,3031.898188333,3031.916580166,3033.143348416,NaN,NaN
123,5,2,typicality,0,kitchen,sun_acwjdupvyjsugpay.tif,186,1.5,0,0.85,3033.162714541,3035.836206583,7,NaN,3035.841706291,3035.860022083,3036.703363541,NaN,NaN
123,6,2,typicality,0,kitchen,labelme_brsyyvweiuaazfr.tif,171,1.5,0,0.916666666666667,3036.707915125,3040.348633708,3,NaN,3040.354019291,3040.372185291,3041.282196166,NaN,NaN
123,7,2,typicality,0,kitchen,sun_akchetnepxlcxhsu.tif,208,1.5,0,1.75,3041.286688,3045.979880791,2,NaN,3045.985685458,3046.004086541,3047.747481583,NaN,NaN
123,8,2,typicality,0,kitchen,sun_ahljzhgcdpomplvg.tif,201,1.5,0,1.43333333333333,3047.766778208,3050.701778125,5,NaN,3050.732379916,3050.755976041,3052.182702583,NaN,NaN
123,9,2,typicality,0,kitchen,sun_abpwyqmlzafvklqo.tif,182,1.5,0,0.783333333333333,3052.201000416,3055.460501833,6,NaN,3055.46584925,3055.484215791,3056.260892541,NaN,NaN
123,10,2,typicality,0,kitchen,sun_axyyrmzcupyhlivc.tif,217,1.5,0,1.76666666666667,3056.265116166,3059.308765625,5,NaN,3059.322506333,3059.3416535,3061.101732916,NaN,NaN
123,11,2,typicality,0,kitchen,sun_auticobqsbwgoppi.tif,214,1.5,0,1.78333333333333,3061.119143916,3064.499757375,6,NaN,3064.524765291,3064.548998875,3066.325717125,NaN,NaN
123,12,2,typicality,0,kitchen,sun_aymvwlarqodbwuoc.tif,218,1.5,0,1.85,3066.337091375,3069.804275208,2,NaN,3069.811234083,3069.829540458,3071.672954416,NaN,NaN
123,13,2,typicality,0,kitchen,sun_ahspylgoovwmwvgk.tif,203,1.5,0,1.18333333333333,3071.691261708,3074.888026541,4,NaN,3074.916217333,3074.939507,3076.116247458,NaN,NaN
123,14,2,typicality,0,kitchen,sun_aggjlwcdjsjcaemh.tif,196,1.5,0,1.01666666666667,3076.127198875,3079.667677125,6,NaN,3079.673414416,3079.691833958,3080.701924166,NaN,NaN
123,15,2,typicality,0,kitchen,sun_aunzlwrbjumxhwdj.tif,213,1.5,0,1.65,3080.713273166,3087.244415791,3,NaN,3087.249770791,3087.268185208,3088.911613958,NaN,NaN
123,16,2,typicality,0,kitchen,sun_abrcnpqqhmjwekyf.tif,183,1.5,0,1.83333333333333,3088.932907791,3092.071714,7,NaN,3092.100179791,3092.12352425,3093.950245375,NaN,NaN
123,17,2,typicality,0,kitchen,sun_agzzivivdpnawacl.tif,199,1.5,0,1.58333333333333,3093.968141166,3098.124236625,4,NaN,3098.12966525,3098.14793575,3099.724686958,NaN,NaN
123,18,2,typicality,0,kitchen,sun_abftihopvusyfakt.tif,181,1.5,0,1.85,3099.742513666,3103.372057791,5,NaN,3103.37765475,3103.396126875,3105.239516583,NaN,NaN
123,19,2,typicality,0,kitchen,sun_afuyedyxivkhecmu.tif,195,1.5,0,0.766666666666667,3105.259941083,3108.764298375,1,NaN,3108.76963075,3108.787996041,3109.548007625,NaN,NaN
123,20,2,typicality,0,kitchen,sun_aadbddgrdsjugojn.tif,174,1.5,0,0.716666666666667,3109.552169791,3112.374576291,2,NaN,3112.389945958,3112.411760625,3113.121766875,NaN,NaN
123,21,2,typicality,0,kitchen,sun_azmutvzbxypaceni.tif,220,1.5,0,1.38333333333333,3113.126444708,3115.98693975,6,NaN,3116.015318458,3116.038549833,3117.415294833,NaN,NaN
123,22,2,typicality,0,kitchen,sun_abdxkyyxwfskuaqb.tif,180,1.5,0,0.866666666666667,3117.434500666,3120.164203166,1,NaN,3120.169570458,3120.187860125,3121.047871041,NaN,NaN
123,23,2,typicality,0,kitchen,sun_akcjzhbbjlbogpdi.tif,209,1.5,0,1.4,3121.052078291,3124.508342125,3,NaN,3124.513791,3124.531965083,3125.9253945,NaN,NaN
123,24,2,typicality,0,kitchen,sun_admlmbcdswaszruo.tif,189,1.5,0,1,3125.944830666,3129.019875416,7,NaN,3129.025149791,3129.0434325,3130.0367725,NaN,NaN
123,25,2,typicality,0,kitchen,sun_abdenxonkemggwsq.tif,179,1.5,0,1.28333333333333,3130.041237666,3132.9089975,2,NaN,3132.937471958,3132.960873208,3134.237627166,NaN,NaN
