sub_num,trial,block,task,is_practice,category,image,texture,duration,mask_dur,jitter,stim_time,time_of_resp,trial_response,mask_time,fix_time,jit_onset,trial_end,trial_accuracy,RT
113,1,17,categorization,0,bathroom,SHINEd_sun_ahqjwnzgolcaoidx.tif,29,0.0666666666666667,0.0666666666666667,0.9,2776.64352575,2777.43982775,13,2776.7061345,2776.76631475,2777.451746125,2778.345084333,1,0.796301999999741
113,2,17,categorization,0,kitchen,SHINEd_sun_amjjdeyrggfqgmom.tif,100,0.0666666666666667,0.0666666666666667,1.65,2778.350869291,2779.60763275,13,2778.412490083,2778.473552958,2779.625211375,2781.268584208,0,1.25676345900001
113,3,17,categorization,0,kitchen,SHINEd_sun_aunzlwrbjumxhwdj.tif,103,0.0666666666666667,0.0666666666666667,1.18333333333333,2781.284728333,2781.4052395,13,2781.351694166,2781.4188745,2781.441452833,2782.618162625,0,0.120511166999677
113,4,17,categorization,0,kitchen,SHINEd_sun_auaiucuqpdausiva.tif,102,0.0666666666666667,0.0666666666666667,1.18333333333333,2782.633971708,2783.215060791,9,2782.700631416,2782.758803083,2783.227567708,2784.40427825,1,0.581089082999824
113,5,17,categorization,0,bathroom,SHINEd_sun_axxbkopsgyouuebh.tif,58,0.0666666666666667,0.0666666666666667,0.766666666666667,2784.415439083,2785.082586916,9,2784.482306708,2784.547945791,2785.104846083,2785.864900166,0,0.667147832999945
113,6,17,categorization,0,kitchen,SHINEd_sun_abdenxonkemggwsq.tif,69,0.0666666666666667,0.0666666666666667,1.1,2785.881665416,2786.896060708,9,2785.948627291,2786.01444625,2786.900332208,2787.993697791,1,1.01439529199979
113,7,17,categorization,0,kitchen,SHINEd_sun_ahspylgoovwmwvgk.tif,93,0.0666666666666667,0.0666666666666667,1.98333333333333,2788.004689958,2788.921688458,9,2788.069523791,2788.137651833,2788.944646166,2790.921348541,1,0.916998499999863
113,8,17,categorization,0,bathroom,SHINEd_sun_awnqiikzaispgmwo.tif,56,0.0666666666666667,0.0666666666666667,0.8,2790.939918625,2791.520311,13,2791.006595458,2791.072874583,2791.544371041,2792.33771,1,0.580392375000429
113,9,17,categorization,0,bathroom,SHINEd_sun_aofnryafpsjimzsb.tif,40,0.0666666666666667,0.0666666666666667,1.68333333333333,2792.343240541,2793.071609041,13,2792.405206166,2792.465983875,2793.084562625,2794.761266958,1,0.728368500000215
113,10,17,categorization,0,bathroom,SHINEd_sun_agrwbmhcpmfuwmsg.tif,24,0.0666666666666667,0.0666666666666667,1.73333333333333,2794.781023708,2794.984323375,13,2794.8483425,2794.9142165,2795.004549583,2796.731261041,1,0.20329966700001
113,11,17,categorization,0,bathroom,SHINEd_sun_aavhrsfjbserjtht.tif,13,0.0666666666666667,0.0666666666666667,0.766666666666667,2796.750519791,2797.754671291,13,2796.817520041,2796.879899875,2797.769738416,2798.529745,1,1.00415149999981
113,12,17,categorization,0,kitchen,SHINEd_sun_aymvwlarqodbwuoc.tif,108,0.0666666666666667,0.0666666666666667,1.43333333333333,2798.53570475,2799.135431125,13,2798.597431416,2798.65842925,2799.143538083,2800.570244583,0,0.599726375000046
113,13,17,categorization,0,kitchen,SHINEd_sun_ahpczsiumwwocjkv.tif,92,0.0666666666666667,0.0666666666666667,0.7,2800.5861145,2801.146500541,13,2800.652814083,2800.718954625,2801.176043541,2801.869411875,0,0.560386041000129
113,14,17,categorization,0,kitchen,SHINEd_sun_akchetnepxlcxhsu.tif,98,0.0666666666666667,0.0666666666666667,1.01666666666667,2801.8832325,2802.415590166,13,2801.950301791,2802.016446791,2802.435310708,2803.445341416,0,0.53235766600028
113,15,17,categorization,0,bathroom,SHINEd_sun_alkosphxlxwjwgjd.tif,34,0.0666666666666667,0.0666666666666667,1.71666666666667,2803.456837958,2804.283604708,13,2803.521361625,2803.58766125,2804.310460083,2806.0205095,1,0.826766749999933
113,16,17,categorization,0,kitchen,SHINEd_sun_abftihopvusyfakt.tif,71,0.0666666666666667,0.0666666666666667,1.73333333333333,2806.032326291,2806.434622541,13,2806.099250291,2806.165336166,2806.455933625,2808.18265575,0,0.402296249999836
113,17,17,categorization,0,bathroom,SHINEd_sun_ajlawzvmubibwbpy.tif,30,0.0666666666666667,0.0666666666666667,1.93333333333333,2808.201744166,2808.322229583,13,2808.267835208,2808.335852208,2808.359049583,2810.2857525,1,0.120485417000054
113,18,17,categorization,0,bathroom,SHINEd_sun_axyrejkiiaqiurjk.tif,59,0.0666666666666667,0.0666666666666667,1.1,2810.304960833,2810.921571208,13,2810.371937125,2810.437926916,2810.945032958,2812.038414541,1,0.616610374999709
113,19,17,categorization,0,kitchen,SHINEd_sun_aggjlwcdjsjcaemh.tif,86,0.0666666666666667,0.0666666666666667,0.933333333333333,2812.051462083,2812.525197333,13,2812.116531458,2812.184509041,2812.540462125,2813.467167,0,0.473735250000118
113,20,17,categorization,0,kitchen,SHINEd_sun_acfmftudsenhrfhy.tif,74,0.0666666666666667,0.0666666666666667,1.16666666666667,2813.483813083,2813.992367666,13,2813.548876333,2813.614649583,2814.000869125,2815.160919083,0,0.508554583000205
113,21,17,categorization,0,bathroom,SHINEd_sun_aghyqhbptboemmoq.tif,23,0.0666666666666667,0.0666666666666667,1.08333333333333,2815.171946208,2815.799506083,13,2815.238468583,2815.304067083,2815.827292458,2816.903990708,1,0.627559874999861
113,22,17,categorization,0,kitchen,SHINEd_sun_avszsnwsbuqfgzbn.tif,105,0.0666666666666667,0.0666666666666667,1.36666666666667,2816.920156375,2817.631041333,13,2816.986333875,2817.053074125,2817.63830425,2818.998341916,0,0.710884958000406
113,23,17,categorization,0,bathroom,SHINEd_sun_abjtwfukuwddzted.tif,15,0.0666666666666667,0.0666666666666667,1.85,2819.015204625,2819.454933958,13,2819.08197925,2819.14769275,2819.470257833,2821.313622291,1,0.439729332999832
113,24,17,categorization,0,kitchen,SHINEd_sun_abdxkyyxwfskuaqb.tif,70,0.0666666666666667,0.0666666666666667,1.1,2821.331361041,2821.474542833,13,2821.397724708,2821.464223916,2821.504591625,2822.59797225,0,0.143181792000178
113,25,17,categorization,0,bathroom,SHINEd_sun_aljolscmmzydegqp.tif,33,0.0666666666666667,0.0666666666666667,1.71666666666667,2822.6149665,2823.447519583,13,2822.681851583,2822.747716,2823.466834291,2825.176874625,1,0.832553083000221
113,26,17,categorization,0,bathroom,SHINEd_sun_aqrpegblszgcoujh.tif,48,0.0666666666666667,0.0666666666666667,1.6,2825.1943925,2825.848715208,13,2825.261049041,2825.327737208,2825.8675325,2827.4609,1,0.654322708000109
113,27,17,categorization,0,kitchen,SHINEd_sun_axyyrmzcupyhlivc.tif,107,0.0666666666666667,0.0666666666666667,0.85,2827.480860625,2828.2361385,9,2827.545910625,2827.609592541,2828.265628583,2829.108968583,1,0.755277875000047
113,28,17,categorization,0,bathroom,SHINEd_sun_aoybiabnpadelefl.tif,41,0.0666666666666667,0.0666666666666667,1.35,2829.114711958,2829.903440333,9,2829.176438333,2829.237423208,2829.922666666,2831.266051833,0,0.788728375000119
113,29,17,categorization,0,kitchen,SHINEd_sun_aarfiyshqohlwkmo.tif,67,0.0666666666666667,0.0666666666666667,1.65,2831.283321208,2832.048719333,9,2831.349921708,2831.416088625,2832.072798625,2833.716170083,1,0.765398125000047
113,30,17,categorization,0,kitchen,SHINEd_sun_awcpdzzznmweyyhv.tif,106,0.0666666666666667,0.0666666666666667,1.35,2833.733918958,2834.358987416,13,2833.80083475,2833.86672625,2834.37233625,2835.715713833,0,0.625068458000442
113,31,17,categorization,0,bathroom,SHINEd_sun_aunuadmjocsddsrl.tif,52,0.0666666666666667,0.0666666666666667,1.63333333333333,2835.733600708,2836.566562125,13,2835.800956958,2835.866603,2836.5905295,2838.217231375,1,0.832961417000206
113,32,17,categorization,0,kitchen,SHINEd_sun_ahywdevtimnqcsln.tif,94,0.0666666666666667,0.0666666666666667,1.1,2838.236753833,2839.026289791,13,2838.30417125,2838.369568875,2839.042367083,2840.135735041,0,0.789535958000215
113,33,17,categorization,0,kitchen,SHINEd_sun_aeqdocilnnpuvuhx.tif,83,0.0666666666666667,0.0666666666666667,1.11666666666667,2840.149064583,2840.978389291,13,2840.21428175,2840.281824,2841.005567666,2842.115617583,0,0.829324708000058
113,34,17,categorization,0,kitchen,SHINEd_sun_aapllqyqlykszopd.tif,66,0.0666666666666667,0.0666666666666667,1.5,2842.132410791,2842.91979225,13,2842.195040666,2842.255167166,2842.92364125,2844.417009625,0,0.787381458999789
113,35,17,categorization,0,kitchen,SHINEd_sun_agubuxuukhzyzpdp.tif,88,0.0666666666666667,0.0666666666666667,1.28333333333333,2844.434438208,2845.189195375,13,2844.500692875,2844.567932583,2845.207815166,2846.484524625,0,0.754757167000207
113,36,17,categorization,0,kitchen,SHINEd_sun_akcjzhbbjlbogpdi.tif,99,0.0666666666666667,0.0666666666666667,1.7,2846.499830125,2847.442597083,13,2846.566824291,2846.632796208,2847.472969875,2849.166343166,0,0.942766957999993
113,37,17,categorization,0,kitchen,SHINEd_sun_acgtpgfybqjmzeyw.tif,75,0.0666666666666667,0.0666666666666667,1.08333333333333,2849.183707125,2850.369024625,9,2849.250066375,2849.316489166,2850.389873125,2851.466591333,1,1.18531749999966
113,38,17,categorization,0,bathroom,SHINEd_sun_auzqhkafidnkrwmo.tif,54,0.0666666666666667,0.0666666666666667,1.65,2851.477624583,2852.522571125,9,2851.542814041,2851.608639166,2852.548320375,2854.191698708,0,1.04494654200016
113,39,17,categorization,0,bathroom,SHINEd_sun_avhrdrntsqrjzccq.tif,55,0.0666666666666667,0.0666666666666667,1.31666666666667,2854.209340625,2854.951600416,9,2854.275879458,2854.34211725,2854.9815605,2856.291604125,0,0.742259790999924
113,40,17,categorization,0,kitchen,SHINEd_sun_aadbddgrdsjugojn.tif,64,0.0666666666666667,0.0666666666666667,0.95,2856.309986,2857.0351675,9,2856.376757291,2856.443304625,2857.048043083,2857.991429125,1,0.725181499999962
113,41,17,categorization,0,kitchen,SHINEd_sun_aqeaevwwwjoqhzvl.tif,101,0.0666666666666667,0.0666666666666667,1.43333333333333,2858.0031645,2859.047109708,9,2858.065045666,2858.125980291,2859.06117625,2860.487888458,1,1.04394520799997
113,42,17,categorization,0,bathroom,SHINEd_sun_azqyogdvyhahyram.tif,60,0.0666666666666667,0.0666666666666667,1.66666666666667,2860.505932791,2861.342821208,9,2860.572708,2860.639566375,2861.362774208,2863.022812333,0,0.836888416999955
113,43,17,categorization,0,kitchen,SHINEd_sun_azmutvzbxypaceni.tif,110,0.0666666666666667,0.0666666666666667,0.933333333333333,2863.039937791,2864.127146958,13,2863.106774833,2863.172887291,2864.146784,2865.073456333,0,1.08720916700031
113,44,17,categorization,0,kitchen,SHINEd_sun_acwjdupvyjsugpay.tif,76,0.0666666666666667,0.0666666666666667,0.833333333333333,2865.079233541,2866.159444333,13,2865.140968291,2865.201915666,2866.170422958,2866.997095041,0,1.08021079199989
113,45,17,categorization,0,bathroom,SHINEd_labelme_sfxiulhjbhlyiyt.tif,11,0.0666666666666667,0.0666666666666667,1.26666666666667,2867.002649333,2868.21546825,9,2867.064661291,2867.125250291,2868.227122791,2869.487164875,0,1.21281891699982
113,46,17,categorization,0,bathroom,SHINEd_sun_acgyywnybuveqsro.tif,18,0.0666666666666667,0.0666666666666667,1.93333333333333,2869.503427916,2870.241820333,9,2869.569254333,2869.631173541,2870.270578333,2872.197301125,0,0.738392416999886
113,47,17,categorization,0,kitchen,SHINEd_sun_ajcbwwvdlsvjyzje.tif,96,0.0666666666666667,0.0666666666666667,1.06666666666667,2872.214241,2872.690236416,9,2872.280883541,2872.346936875,2872.71976775,2873.779808416,1,0.475995415999932
113,48,17,categorization,0,bathroom,SHINEd_sun_aggnnqpdorgxpvce.tif,21,0.0666666666666667,0.0666666666666667,0.766666666666667,2873.78915825,2874.824294916,9,2873.853902958,2873.920548333,2874.8439625,2875.603984375,0,1.03513666599974
113,49,17,categorization,0,kitchen,SHINEd_sun_admlmbcdswaszruo.tif,79,0.0666666666666667,0.0666666666666667,0.833333333333333,2875.613969166,2876.494801333,13,2875.679025458,2875.746844458,2876.498743791,2877.325413916,0,0.88083216699988
113,50,17,categorization,0,kitchen,SHINEd_labelme_kxvouciolcpqplr.tif,62,0.0666666666666667,0.0666666666666667,1.46666666666667,2877.330141416,2878.215369833,9,2877.391956083,2877.452888833,2878.221366416,2879.681417541,1,0.88522841699978
