sub_num,trial,block,task,is_practice,category,image,texture,duration,blank,mask_dur,jitter,stim_time,time_of_resp,trial_response,blank_time,mask_time,fix_time,jit_onset,trial_end,trial_accuracy,RT
105,1,0,categorization,1,bathroom,SHINEd_bathroom_practice1.tif,111,0.0333333333333333,0.0333333333333333,0.0833333333333333,1.25,527006.7190584,527008.7528544,70,527006.7590462,527006.7938641,527006.8762935,527008.7947803,527010.0431682,0,2.03379599994514
105,2,0,categorization,1,bathroom,SHINEd_bathroom_practice2.tif,112,0.0333333333333333,0.0333333333333333,0.0833333333333333,1.6,527010.0560633,527011.1899173,70,527010.095827,527010.1303916,527010.2126545,527011.2028512,527012.8012226,0,1.13385400001425
105,3,0,categorization,1,bathroom,SHINEd_bathroom_practice3.tif,113,0.0333333333333333,0.0333333333333333,0.0833333333333333,1.18333333333333,527012.8125913,527014.2369058,74,527012.8527777,527012.8862189,527012.9695764,527014.2478093,527015.4295257,1,1.42431449994911
105,4,0,categorization,1,bathroom,SHINEd_bathroom_practice4.tif,114,0.0333333333333333,0.0333333333333333,0.0833333333333333,0.716666666666667,527015.4402656,527016.1811865,74,527015.4797819,527015.5137191,527015.5968968,527016.1927792,527016.9078203,1,0.740920900017954
105,5,0,categorization,1,bathroom,SHINEd_bathroom_practice5.tif,115,0.0333333333333333,0.0333333333333333,0.0833333333333333,0.8,527016.9172391,527018.3700069,74,527016.9565793,527016.9908891,527017.0735698,527018.3823517,527019.1808277,1,1.45276780007407
105,6,0,categorization,1,kitchen,SHINEd_kitchen_practice1.tif,116,0.0333333333333333,0.0333333333333333,0.0833333333333333,1.36666666666667,527019.1899096,527020.0434795,70,527019.2300623,527019.2639418,527019.3463168,527020.0533012,527021.4183048,1,0.853569900034927
105,7,0,categorization,1,kitchen,SHINEd_kitchen_practice2.tif,117,0.0333333333333333,0.0333333333333333,0.0833333333333333,1.71666666666667,527021.4268089,527022.1813799,70,527021.4663876,527021.5000782,527021.5805333,527022.1881573,527023.9031627,1,0.754570999997668
105,8,0,categorization,1,kitchen,SHINEd_kitchen_practice3.tif,118,0.0333333333333333,0.0333333333333333,0.0833333333333333,1.05,527023.9091067,527024.8435647,70,527023.9458824,527023.9799759,527024.0627614,527024.8494124,527025.8977494,1,0.93445800000336
105,9,0,categorization,1,kitchen,SHINEd_kitchen_practice4.tif,119,0.0333333333333333,0.0333333333333333,0.0833333333333333,1.65,527025.9035896,527027.1421352,70,527025.9404678,527025.9745035,527026.0571583,527027.1482421,527028.7965805,1,1.23854559997562
105,10,0,categorization,1,kitchen,SHINEd_kitchen_practice5.tif,120,0.0333333333333333,0.0333333333333333,0.0833333333333333,1.36666666666667,527028.8024793,527029.8030658,74,527028.8399407,527028.8731405,527028.9558654,527029.8110813,527031.1760858,0,1.00058650004212
105,1,1,categorization,0,kitchen,SHINEd_sun_ahpczsiumwwocjkv.tif,90,0.0333333333333333,0.0333333333333333,0.0833333333333333,0.833333333333333,527035.4642278,527036.9773519,70,527035.5009926,527035.5348158,527035.6175116,527036.98472,527037.8164401,1,1.51312409993261
105,2,1,categorization,0,kitchen,SHINEd_sun_anbcmfjhobvmedkq.tif,100,0.0333333333333333,0.0333333333333333,0.0833333333333333,1.58333333333333,527037.8226832,527038.5204116,70,527037.8595703,527037.8932898,527037.9762586,527038.5259125,527040.1075827,1,0.697728400002234
105,3,1,categorization,0,bathroom,SHINEd_sun_aqrpegblszgcoujh.tif,47,0.0333333333333333,0.0333333333333333,0.0833333333333333,0.85,527040.1135406,527040.8085703,74,527040.1503335,527040.1844432,527040.2672643,527040.8152336,527041.6635724,1,0.695029699942097
105,4,1,categorization,0,kitchen,SHINEd_sun_aexklacwqwezaorf.tif,81,0.0333333333333333,0.0333333333333333,0.0833333333333333,1.05,527041.6700953,527042.6911016,74,527041.7084466,527041.7408553,527041.8236778,527042.6982861,527043.7466229,0,1.02100629999768
105,5,1,categorization,0,bathroom,SHINEd_sun_aapitsgbtktqubfy.tif,14,0.0333333333333333,0.0333333333333333,0.0833333333333333,1.3,527043.7531355,527044.5608582,74,527043.7901545,527043.8238788,527043.9066837,527044.5668774,527045.8652151,1,0.807722699944861
105,6,1,categorization,0,bathroom,SHINEd_sun_asfwthctfqerjvxr.tif,49,0.0333333333333333,0.0333333333333333,0.0833333333333333,1.16666666666667,527045.8711639,527048.940396,74,527045.9084046,527045.9419081,527046.0246602,527048.9479871,527050.1129924,1,3.06923210003879
105,7,1,categorization,0,bathroom,SHINEd_sun_apeeialkgkuxddgh.tif,44,0.0333333333333333,0.0333333333333333,0.0833333333333333,1.53333333333333,527050.1191895,527051.1231512,74,527050.1576167,527050.1897267,527050.2729595,527051.1296492,527052.6613191,1,1.00396170001477
105,8,1,categorization,0,kitchen,SHINEd_sun_aypmqwcualkenuoe.tif,110,0.0333333333333333,0.0333333333333333,0.0833333333333333,1.81666666666667,527052.6670246,527053.5240967,74,527052.7051382,527052.7378986,527052.8209509,527053.5306738,527055.3456783,0,0.857072100043297
105,9,1,categorization,0,bathroom,SHINEd_sun_anlddfvefwvocyae.tif,40,0.0333333333333333,0.0333333333333333,0.0833333333333333,0.983333333333333,527055.3517623,527056.3576354,74,527055.3883333,527055.4226334,527055.5052727,527056.3633841,527057.3450545,1,1.0058731000172
105,10,1,categorization,0,bathroom,SHINEd_sun_awnqiikzaispgmwo.tif,56,0.0333333333333333,0.0333333333333333,0.0833333333333333,0.816666666666667,527057.3503208,527058.2590122,74,527057.388019,527057.4212783,527057.5039135,527058.2656891,527059.0806944,1,0.908691400079988
105,11,1,categorization,0,bathroom,SHINEd_sun_agrwbmhcpmfuwmsg.tif,26,0.0333333333333333,0.0333333333333333,0.0833333333333333,0.733333333333333,527059.0859842,527059.9332956,74,527059.1227913,527059.1567894,527059.2394563,527059.939219,527060.6708892,1,0.847311399993487
105,12,1,categorization,0,bathroom,SHINEd_labelme_sfxiulhjbhlyiyt.tif,11,0.0333333333333333,0.0333333333333333,0.0833333333333333,1.43333333333333,527060.6766603,527061.3873439,74,527060.7138001,527060.747118,527060.8301805,527061.3930906,527062.8247613,1,0.710683600045741
105,13,1,categorization,0,kitchen,SHINEd_sun_aegoxogugdkwpmpj.tif,77,0.0333333333333333,0.0333333333333333,0.0833333333333333,0.85,527062.8309277,527063.5272247,70,527062.8691569,527062.9018238,527062.9844477,527063.5337436,527064.3820813,1,0.696296999929473
105,14,1,categorization,0,kitchen,SHINEd_sun_ahljzhgcdpomplvg.tif,89,0.0333333333333333,0.0333333333333333,0.0833333333333333,1.13333333333333,527064.3883549,527065.2261349,70,527064.4248404,527064.4588603,527064.5417419,527065.2314954,527066.3631665,1,0.837780000059865
105,15,1,categorization,0,kitchen,SHINEd_sun_abrcnpqqhmjwekyf.tif,70,0.0333333333333333,0.0333333333333333,0.0833333333333333,0.983333333333333,527066.3684791,527067.0799614,74,527066.4064691,527066.4394138,527066.5220947,527067.0865071,527068.0681787,0,0.711482299957424
105,16,1,categorization,0,bathroom,SHINEd_sun_afcoljnjfoxjtgja.tif,24,0.0333333333333333,0.0333333333333333,0.0833333333333333,0.733333333333333,527068.0736806,527068.9376778,74,527068.1103919,527068.1461554,527068.2271356,527068.9456454,527069.6773176,1,0.863997199921869
105,17,1,categorization,0,kitchen,SHINEd_sun_acxkpeoqbwcxfvip.tif,74,0.0333333333333333,0.0333333333333333,0.0833333333333333,1.43333333333333,527069.6837634,527070.5384751,70,527069.7209889,527069.7541386,527069.8372674,527070.5446219,527071.9762921,1,0.854711699998006
105,18,1,categorization,0,kitchen,SHINEd_sun_agubuxuukhzyzpdp.tif,86,0.0333333333333333,0.0333333333333333,0.0833333333333333,1.4,527071.9837417,527072.6554592,70,527072.0205858,527072.0548807,527072.1374179,527072.6614072,527074.0597447,1,0.671717500081286
105,19,1,categorization,0,bathroom,SHINEd_sun_aclfzgynxzxlbepz.tif,20,0.0333333333333333,0.0333333333333333,0.0833333333333333,0.85,527074.0674803,527075.0610609,70,527074.104366,527074.1383626,527074.2211726,527075.067544,527075.9158825,0,0.993580600013956
105,20,1,categorization,0,bathroom,SHINEd_sun_aljolscmmzydegqp.tif,34,0.0333333333333333,0.0333333333333333,0.0833333333333333,1.75,527075.9216107,527077.6795426,70,527075.9584044,527075.992174,527076.0755291,527077.6865501,527079.4348926,0,1.75793189997785
105,21,1,categorization,0,bathroom,SHINEd_sun_axbqssteryzzlcop.tif,57,0.0333333333333333,0.0333333333333333,0.0833333333333333,1.88333333333333,527079.4417728,527080.0239326,74,527079.4784647,527079.51272,527079.5953385,527080.0305685,527081.9122388,1,0.582159799989313
105,22,1,categorization,0,bathroom,SHINEd_sun_akbyysnpwewzraii.tif,32,0.0333333333333333,0.0333333333333333,0.0833333333333333,1.31666666666667,527081.9183634,527082.5424529,74,527081.9556616,527081.9892627,527082.0722738,527082.5484565,527083.8634596,1,0.624089499935508
105,23,1,categorization,0,kitchen,SHINEd_sun_abrcnpqqhmjwekyf.tif,70,0.0333333333333333,0.0333333333333333,0.0833333333333333,1.56666666666667,527083.8691702,527084.60231,74,527083.905867,527083.9411061,527084.0224735,527084.6085822,527086.1735876,0,0.733139800024219
105,24,1,categorization,0,kitchen,SHINEd_sun_akcjzhbbjlbogpdi.tif,95,0.0333333333333333,0.0333333333333333,0.0833333333333333,0.883333333333333,527086.1798346,527087.0119603,70,527086.2180072,527086.2505634,527086.3335602,527087.017988,527087.8996604,1,0.832125700078905
105,25,1,categorization,0,bathroom,SHINEd_sun_abjtwfukuwddzted.tif,17,0.0333333333333333,0.0333333333333333,0.0833333333333333,0.733333333333333,527087.905576,527088.8144255,74,527087.9425769,527087.9765689,527088.0591062,527088.8207664,527089.5524371,1,0.908849500003271
105,26,1,categorization,0,bathroom,SHINEd_sun_aoybiabnpadelefl.tif,43,0.0333333333333333,0.0333333333333333,0.0833333333333333,0.966666666666667,527089.5582995,527090.2990305,70,527089.5951477,527089.6288253,527089.7119636,527090.3070211,527091.2720261,0,0.740730999968946
105,27,1,categorization,0,bathroom,SHINEd_sun_afcoljnjfoxjtgja.tif,24,0.0333333333333333,0.0333333333333333,0.0833333333333333,1.88333333333333,527091.2781295,527092.2447074,74,527091.3156165,527091.3489456,527091.4314791,527092.2512118,527094.1328842,1,0.966577899991535
105,28,1,categorization,0,bathroom,SHINEd_sun_ambriybtogmepttm.tif,36,0.0333333333333333,0.0333333333333333,0.0833333333333333,1.05,527094.1388675,527095.0814505,74,527094.1758066,527094.2096779,527094.2922319,527095.0878507,527096.1361873,1,0.942582999938168
105,29,1,categorization,0,bathroom,SHINEd_sun_aleqenyvunhactkl.tif,33,0.0333333333333333,0.0333333333333333,0.0833333333333333,0.8,527096.1426452,527097.6208184,70,527096.1796766,527096.2134104,527096.2960749,527097.6280308,527098.4263697,0,1.47817320004106
105,30,1,categorization,0,bathroom,SHINEd_sun_axxbkopsgyouuebh.tif,58,0.0333333333333333,0.0333333333333333,0.0833333333333333,1.66666666666667,527098.4323087,527099.0449425,74,527098.4689925,527098.504209,527098.5858634,527099.0503274,527100.7153309,1,0.612633799901232
105,31,1,categorization,0,bathroom,SHINEd_sun_axbqssteryzzlcop.tif,57,0.0333333333333333,0.0333333333333333,0.0833333333333333,0.833333333333333,527100.7218361,527101.4691368,74,527100.7592003,527100.792688,527100.8752781,527101.4757062,527102.3073772,1,0.74730070005171
105,32,1,categorization,0,kitchen,SHINEd_labelme_rykdqxenmhulbdn.tif,61,0.0333333333333333,0.0333333333333333,0.0833333333333333,1.46666666666667,527102.3136241,527102.9857825,70,527102.3506726,527102.3842089,527102.4669013,527102.9920926,527104.4570961,1,0.672158400062472
105,33,1,categorization,0,bathroom,SHINEd_sun_aapitsgbtktqubfy.tif,14,0.0333333333333333,0.0333333333333333,0.0833333333333333,0.733333333333333,527104.4636064,527105.2621058,74,527104.500713,527104.5356835,527104.6173735,527105.2676324,527105.9993035,1,0.798499400028959
105,34,1,categorization,0,kitchen,SHINEd_sun_akcjzhbbjlbogpdi.tif,95,0.0333333333333333,0.0333333333333333,0.0833333333333333,1.13333333333333,527106.0049624,527106.726069,70,527106.0415525,527106.0764094,527106.1582153,527106.7323251,527107.8640079,1,0.721106600016356
105,35,1,categorization,0,kitchen,SHINEd_sun_aaofphpvkeqlhwgu.tif,64,0.0333333333333333,0.0333333333333333,0.0833333333333333,0.8,527107.8698533,527108.5080426,70,527107.9062542,527107.9404969,527108.023333,527108.5137427,527109.3120807,1,0.638189299963415
105,36,1,categorization,0,kitchen,SHINEd_sun_aaofphpvkeqlhwgu.tif,64,0.0333333333333333,0.0333333333333333,0.0833333333333333,0.733333333333333,527109.3181359,527110.1468015,70,527109.3554169,527109.3883999,527109.4713349,527110.1536448,527110.8853165,1,0.828665600041859
105,37,1,categorization,0,bathroom,SHINEd_sun_arzkwskvsrwimlwo.tif,48,0.0333333333333333,0.0333333333333333,0.0833333333333333,1.55,527110.8910416,527111.7606572,74,527110.9282791,527110.9620761,527111.0447777,527111.7659961,527113.3143349,1,0.869615599978715
105,38,1,categorization,0,bathroom,SHINEd_sun_aovflwamhlwzwvxs.tif,42,0.0333333333333333,0.0333333333333333,0.0833333333333333,0.916666666666667,527113.3205278,527114.0722505,74,527113.3573322,527113.3920884,527113.4737969,527114.0788541,527114.9938589,1,0.751722699962556
105,39,1,categorization,0,kitchen,SHINEd_sun_alalhpqajafvlnho.tif,96,0.0333333333333333,0.0333333333333333,0.0833333333333333,0.866666666666667,527114.999435,527115.6670434,70,527115.0367932,527115.0700742,527115.1530583,527115.6726998,527116.537705,1,0.667608399991877
105,40,1,categorization,0,kitchen,SHINEd_sun_aapllqyqlykszopd.tif,65,0.0333333333333333,0.0333333333333333,0.0833333333333333,0.733333333333333,527116.5438579,527117.1638002,70,527116.5806049,527116.6143983,527116.6971952,527117.1706571,527117.9023284,1,0.619942300021648
105,41,1,categorization,0,kitchen,SHINEd_sun_ahpczsiumwwocjkv.tif,90,0.0333333333333333,0.0333333333333333,0.0833333333333333,1.31666666666667,527117.9085991,527118.600516,70,527117.9450276,527117.9793335,527118.0619766,527118.6064351,527119.9214398,1,0.691916899988428
105,42,1,categorization,0,bathroom,SHINEd_sun_ahqjwnzgolcaoidx.tif,29,0.0333333333333333,0.0333333333333333,0.0833333333333333,1.11666666666667,527119.9288637,527120.7528709,74,527119.9657791,527119.9997338,527120.0825096,527120.7595091,527121.8745126,1,0.824007199960761
105,43,1,categorization,0,bathroom,SHINEd_sun_aspsyogrekjtfozg.tif,50,0.0333333333333333,0.0333333333333333,0.0833333333333333,0.7,527121.8803582,527122.5011081,74,527121.9171089,527121.951264,527122.0341779,527122.5076624,527123.2060006,1,0.620749900001101
105,44,1,categorization,0,kitchen,SHINEd_sun_ahywdevtimnqcsln.tif,92,0.0333333333333333,0.0333333333333333,0.0833333333333333,1.45,527123.2125978,527123.823869,70,527123.2488302,527123.2830234,527123.3670355,527123.8304506,527125.278789,1,0.611271200003102
105,45,1,categorization,0,kitchen,SHINEd_sun_agubuxuukhzyzpdp.tif,86,0.0333333333333333,0.0333333333333333,0.0833333333333333,1.26666666666667,527125.2847971,527125.8152263,70,527125.3217371,527125.3555694,527125.4384548,527125.8212626,527127.0862667,1,0.530429200036451
105,46,1,categorization,0,bathroom,SHINEd_sun_ambriybtogmepttm.tif,36,0.0333333333333333,0.0333333333333333,0.0833333333333333,1.55,527127.0918596,527127.7072725,70,527127.128587,527127.1629576,527127.2452438,527127.7126964,527129.2610334,0,0.615412899991497
105,47,1,categorization,0,bathroom,SHINEd_sun_ammzpemadwrjdfzl.tif,37,0.0333333333333333,0.0333333333333333,0.0833333333333333,1.93333333333333,527129.2671855,527129.9658641,74,527129.3045845,527129.3385488,527129.4213164,527129.9714657,527131.9031384,1,0.698678600019775
105,48,1,categorization,0,kitchen,SHINEd_sun_abrcnpqqhmjwekyf.tif,70,0.0333333333333333,0.0333333333333333,0.0833333333333333,1,527131.9089366,527132.6916368,70,527131.9455729,527131.9804468,527132.0624434,527132.6971489,527133.6954872,1,0.782700199983083
105,49,1,categorization,0,bathroom,SHINEd_sun_apynckhmoftszqoq.tif,46,0.0333333333333333,0.0333333333333333,0.0833333333333333,1.83333333333333,527133.701233,527134.7109973,70,527133.7376684,527133.7715974,527133.8543951,527134.7160623,527136.5477328,0,1.00976429996081
105,50,1,categorization,0,bathroom,SHINEd_sun_anhioqovhscjqqwb.tif,39,0.0333333333333333,0.0333333333333333,0.0833333333333333,1.75,527136.5536612,527137.2905711,74,527136.5904399,527136.6241926,527136.7079232,527137.2974528,527139.04579,1,0.736909899977036
105,1,2,categorization,0,bathroom,SHINEd_sun_acgyywnybuveqsro.tif,19,0.0333333333333333,0.0333333333333333,0.0833333333333333,1.13333333333333,527612.1054326,527613.1861133,70,527612.1422702,527612.176108,527612.2586959,527613.1930088,527614.3246789,0,1.080680700019
105,2,2,categorization,0,bathroom,SHINEd_sun_acgyywnybuveqsro.tif,19,0.0333333333333333,0.0333333333333333,0.0833333333333333,0.833333333333333,527614.33078,527615.1799654,74,527614.3674585,527614.4015764,527614.4840436,527615.1861447,527616.0178165,1,0.849185400060378
105,3,2,categorization,0,bathroom,SHINEd_sun_adbqksnwuqqwdpxc.tif,22,0.0333333333333333,0.0333333333333333,0.0833333333333333,0.85,527616.0239886,527616.7136247,74,527616.0609115,527616.0945747,527616.1775005,527616.7195402,527617.567879,1,0.689636099967174
105,4,2,categorization,0,kitchen,SHINEd_sun_auticobqsbwgoppi.tif,104,0.0333333333333333,0.0333333333333333,0.0833333333333333,1.41666666666667,527617.5737139,527618.3424811,70,527617.6104601,527617.6442185,527617.7270036,527618.3489307,527619.7639339,1,0.768767199944705
105,5,2,categorization,0,bathroom,SHINEd_sun_apkxzenqapsujocq.tif,45,0.0333333333333333,0.0333333333333333,0.0833333333333333,1.03333333333333,527619.7697927,527620.4930616,74,527619.8079536,527619.8417625,527619.9247586,527620.4987475,527621.5304183,1,0.723268900066614
105,6,2,categorization,0,bathroom,SHINEd_sun_agrwbmhcpmfuwmsg.tif,26,0.0333333333333333,0.0333333333333333,0.0833333333333333,0.866666666666667,527621.5365275,527622.3367622,70,527621.5743752,527621.6069688,527621.6904552,527622.3438477,527623.208852,0,0.800234699971043
105,7,2,categorization,0,bathroom,SHINEd_sun_acsgbuurtwghzjel.tif,21,0.0333333333333333,0.0333333333333333,0.0833333333333333,1.51666666666667,527623.214591,527623.9926308,74,527623.2512459,527623.2852325,527623.3680613,527623.9991287,527625.514134,1,0.778039800003171
105,8,2,categorization,0,bathroom,SHINEd_sun_aclfzgynxzxlbepz.tif,20,0.0333333333333333,0.0333333333333333,0.0833333333333333,1.23333333333333,527625.5203503,527626.2452403,74,527625.5577057,527625.5912493,527625.6741633,527626.2528185,527627.4844909,1,0.72488999995403
105,9,2,categorization,0,kitchen,SHINEd_sun_admlmbcdswaszruo.tif,76,0.0333333333333333,0.0333333333333333,0.0833333333333333,1.71666666666667,527627.4906492,527628.2299986,70,527627.5280923,527627.5613476,527627.644393,527628.2357131,527629.9507185,1,0.739349399926141
105,10,2,categorization,0,kitchen,SHINEd_sun_admlmbcdswaszruo.tif,76,0.0333333333333333,0.0333333333333333,0.0833333333333333,1.48333333333333,527629.9569926,527630.6159907,70,527629.9945487,527630.0277467,527630.111404,527630.6229451,527632.1046154,1,0.658998099970631
105,11,2,categorization,0,bathroom,SHINEd_sun_alkosphxlxwjwgjd.tif,35,0.0333333333333333,0.0333333333333333,0.0833333333333333,1.28333333333333,527632.1103863,527632.7866974,70,527632.1473305,527632.1812584,527632.2646722,527632.79233,527634.0740017,0,0.676311100018211
105,12,2,categorization,0,bathroom,SHINEd_sun_abtukhmkjdzyfxhr.tif,18,0.0333333333333333,0.0333333333333333,0.0833333333333333,0.716666666666667,527634.0796022,527634.8401277,74,527634.1164132,527634.1504334,527634.2331264,527634.8473821,527635.5624593,1,0.760525500052609
105,13,2,categorization,0,bathroom,SHINEd_sun_adwvsndpdsgzeste.tif,23,0.0333333333333333,0.0333333333333333,0.0833333333333333,1.78333333333333,527635.5686104,527636.1839359,74,527635.605402,527635.6394072,527635.7220643,527636.1903724,527637.9720437,1,0.615325500024483
105,14,2,categorization,0,bathroom,SHINEd_sun_akbyysnpwewzraii.tif,32,0.0333333333333333,0.0333333333333333,0.0833333333333333,1.25,527637.9799106,527638.5644998,74,527638.0168,527638.0506195,527638.1332679,527638.5708983,527639.8192365,1,0.584589199977927
105,15,2,categorization,0,kitchen,SHINEd_sun_ahdycvpopffkzzsu.tif,88,0.0333333333333333,0.0333333333333333,0.0833333333333333,0.833333333333333,527639.8252186,527640.524689,74,527639.8623121,527639.8957,527639.9785301,527640.5304769,527641.3621471,0,0.699470399995334
105,16,2,categorization,0,bathroom,SHINEd_sun_aghyqhbptboemmoq.tif,25,0.0333333333333333,0.0333333333333333,0.0833333333333333,0.833333333333333,527641.367481,527642.9999681,70,527641.4040596,527641.4385069,527641.5228349,527643.005887,527643.8375588,0,1.63248709996697
105,17,2,categorization,0,bathroom,SHINEd_sun_apkxzenqapsujocq.tif,45,0.0333333333333333,0.0333333333333333,0.0833333333333333,0.866666666666667,527643.8435842,527644.8541577,78,527643.8805046,527643.9144236,527643.9982738,527644.8608361,527645.7258396,NaN,1.01057349995244
105,18,2,categorization,0,bathroom,SHINEd_sun_aljolscmmzydegqp.tif,34,0.0333333333333333,0.0333333333333333,0.0833333333333333,1.25,527645.7322281,527648.7237821,70,527645.7695836,527645.8030691,527645.886049,527648.7301918,527649.9785295,0,2.99155400006566
105,19,2,categorization,0,bathroom,SHINEd_sun_aspsyogrekjtfozg.tif,50,0.0333333333333333,0.0333333333333333,0.0833333333333333,1.78333333333333,527649.9846495,527651.2775658,74,527650.0230109,527650.0553528,527650.1382043,527651.2836961,527653.0653672,1,1.29291630000807
105,20,2,categorization,0,kitchen,SHINEd_sun_ahywdevtimnqcsln.tif,92,0.0333333333333333,0.0333333333333333,0.0833333333333333,0.916666666666667,527653.0713381,527653.6235467,70,527653.1079529,527653.1432522,527653.2249531,527653.6291622,527654.5441669,1,0.552208599983715
105,21,2,categorization,0,kitchen,SHINEd_sun_aypmqwcualkenuoe.tif,110,0.0333333333333333,0.0333333333333333,0.0833333333333333,1.15,527654.5497974,527655.3484277,70,527654.5865203,527654.6203748,527654.7032976,527655.3536247,527656.5019622,1,0.798630299977958
105,22,2,categorization,0,bathroom,SHINEd_sun_ahcvzmoyaycdoftf.tif,28,0.0333333333333333,0.0333333333333333,0.0833333333333333,0.75,527656.5072885,527657.1489441,74,527656.5439186,527656.5783444,527656.6608293,527657.1558542,527657.9041914,1,0.64165560004767
105,23,2,categorization,0,kitchen,SHINEd_sun_axaiaptzctpidqzg.tif,108,0.0333333333333333,0.0333333333333333,0.0833333333333333,0.8,527657.9099805,527658.6839827,70,527657.9472307,527657.9809863,527658.0636633,527658.6898823,527659.4882208,1,0.774002199992537
105,24,2,categorization,0,bathroom,SHINEd_sun_ambriybtogmepttm.tif,36,0.0333333333333333,0.0333333333333333,0.0833333333333333,0.716666666666667,527659.493976,527660.1495139,70,527659.5309526,527659.5647876,527659.6473633,527660.1558024,527660.8708081,0,0.655537900049239
105,25,2,categorization,0,bathroom,SHINEd_sun_atstyziqcmkahyxk.tif,51,0.0333333333333333,0.0333333333333333,0.0833333333333333,0.75,527660.8766843,527661.7013067,74,527660.9136153,527660.9474685,527661.0300724,527661.7078915,527662.4562289,1,0.824622399988584
105,26,2,categorization,0,kitchen,SHINEd_sun_auticobqsbwgoppi.tif,104,0.0333333333333333,0.0333333333333333,0.0833333333333333,1.33333333333333,527662.4622027,527663.0569685,70,527662.4991215,527662.5332253,527662.615443,527663.0626424,527664.3943129,1,0.594765800051391
105,27,2,categorization,0,bathroom,SHINEd_sun_aleqenyvunhactkl.tif,33,0.0333333333333333,0.0333333333333333,0.0833333333333333,1,527664.4013157,527665.1026061,74,527664.4384059,527664.4727694,527664.5544018,527665.1087097,527666.1070483,1,0.701290400000289
105,28,2,categorization,0,kitchen,SHINEd_sun_adgqasybjyktddhj.tif,75,0.0333333333333333,0.0333333333333333,0.0833333333333333,0.733333333333333,527666.1128419,527666.8733878,70,527666.1492452,527666.1833532,527666.2664642,527666.879862,527667.6115338,1,0.760545899975114
105,29,2,categorization,0,kitchen,SHINEd_sun_acfluyeqiftljamq.tif,71,0.0333333333333333,0.0333333333333333,0.0833333333333333,1.2,527667.6174968,527668.4566417,70,527667.6542232,527667.6884168,527667.7710048,527668.4641794,527669.6625173,1,0.839144899975508
105,30,2,categorization,0,bathroom,SHINEd_sun_ammzpemadwrjdfzl.tif,37,0.0333333333333333,0.0333333333333333,0.0833333333333333,0.75,527669.668454,527670.2998256,70,527669.7065415,527669.7390764,527669.8226049,527670.3059319,527671.05427,0,0.631371599971317
105,31,2,categorization,0,bathroom,SHINEd_labelme_xbsnnlvmskdknsb.tif,12,0.0333333333333333,0.0333333333333333,0.0833333333333333,0.733333333333333,527671.0600562,527672.1143582,74,527671.0973655,527671.1317796,527671.2135433,527672.1202463,527672.8519182,1,1.054301999975
105,32,2,categorization,0,bathroom,SHINEd_sun_apynckhmoftszqoq.tif,46,0.0333333333333333,0.0333333333333333,0.0833333333333333,0.833333333333333,527672.8576362,527673.621255,74,527672.894586,527672.9282807,527673.0111208,527673.6272013,527674.4588715,1,0.763618799974211
105,33,2,categorization,0,bathroom,SHINEd_sun_adwvsndpdsgzeste.tif,23,0.0333333333333333,0.0333333333333333,0.0833333333333333,1.25,527674.4648037,527675.0869196,74,527674.501575,527674.5352081,527674.6178835,527675.0940746,527676.3424133,1,0.622115900041535
105,34,2,categorization,0,bathroom,SHINEd_sun_awnqiikzaispgmwo.tif,56,0.0333333333333333,0.0333333333333333,0.0833333333333333,0.866666666666667,527676.3496175,527677.7062608,74,527676.3879277,527676.4215609,527676.5030707,527677.7122225,527678.5772265,1,1.35664330003783
105,35,2,categorization,0,kitchen,SHINEd_sun_aamedkxepzlwuxes.tif,63,0.0333333333333333,0.0333333333333333,0.0833333333333333,1.08333333333333,527678.5830872,527679.2478649,70,527678.6204039,527678.6542205,527678.7367264,527679.2531824,527680.3348537,1,0.664777700090781
105,36,2,categorization,0,bathroom,SHINEd_sun_aspsyogrekjtfozg.tif,50,0.0333333333333333,0.0333333333333333,0.0833333333333333,1.78333333333333,527680.3403975,527680.8794106,74,527680.3771649,527680.4110043,527680.493507,527680.8858547,527682.6675252,1,0.539013100089505
105,37,2,categorization,0,bathroom,SHINEd_sun_aapitsgbtktqubfy.tif,14,0.0333333333333333,0.0333333333333333,0.0833333333333333,0.833333333333333,527682.6734106,527683.381564,74,527682.7100292,527682.7439234,527682.8268846,527683.3875849,527684.219256,1,0.708153399988078
105,38,2,categorization,0,kitchen,SHINEd_sun_admlmbcdswaszruo.tif,76,0.0333333333333333,0.0333333333333333,0.0833333333333333,1.85,527684.2250687,527684.8567723,70,527684.261952,527684.2957027,527684.3786172,527684.8637064,527686.7120447,1,0.631703599938191
105,39,2,categorization,0,bathroom,SHINEd_sun_ausgutylgojavyoq.tif,53,0.0333333333333333,0.0333333333333333,0.0833333333333333,1.88333333333333,527686.7195243,527687.411179,74,527686.7581501,527686.7905593,527686.8732261,527687.4174719,527689.2991465,1,0.691654700087383
105,40,2,categorization,0,bathroom,SHINEd_sun_amzlamotzwfkwjco.tif,38,0.0333333333333333,0.0333333333333333,0.0833333333333333,1.3,527689.3050167,527690.1453224,70,527689.3420115,527689.3757865,527689.4587145,527690.1514871,527691.4498259,0,0.840305700083263
105,41,2,categorization,0,kitchen,SHINEd_sun_aaxxjlsuzvqlgylf.tif,66,0.0333333333333333,0.0333333333333333,0.0833333333333333,1.31666666666667,527691.4558504,527692.2452912,70,527691.4941165,527691.5271643,527691.6096054,527692.2516144,527693.5666192,1,0.78944079997018
105,42,2,categorization,0,kitchen,SHINEd_sun_aexklacwqwezaorf.tif,81,0.0333333333333333,0.0333333333333333,0.0833333333333333,1.3,527693.5731078,527694.7293137,70,527693.6100835,527693.6438371,527693.7273354,527694.7355191,527696.0338566,1,1.15620590001345
105,43,2,categorization,0,bathroom,SHINEd_sun_ajlpekbqvytdohqb.tif,31,0.0333333333333333,0.0333333333333333,0.0833333333333333,1.25,527696.0400551,527696.67087,74,527696.0768817,527696.1134996,527696.1935546,527696.6776389,527697.9259764,1,0.630814900039695
105,44,2,categorization,0,bathroom,SHINEd_sun_asfwthctfqerjvxr.tif,49,0.0333333333333333,0.0333333333333333,0.0833333333333333,1.4,527697.9317334,527698.6594213,74,527697.9683625,527698.0023425,527698.085011,527698.6652163,527700.0635537,1,0.727687900071032
105,45,2,categorization,0,bathroom,SHINEd_sun_abeymlrfgckenfyk.tif,16,0.0333333333333333,0.0333333333333333,0.0833333333333333,1.6,527700.0696354,527700.6278967,74,527700.106395,527700.1402888,527700.2233417,527700.6344976,527702.2328356,1,0.558261300087906
105,46,2,categorization,0,kitchen,SHINEd_sun_alalhpqajafvlnho.tif,96,0.0333333333333333,0.0333333333333333,0.0833333333333333,0.95,527702.240115,527702.8798027,70,527702.2773074,527702.310824,527702.3939369,527702.8852224,527703.8335604,1,0.63968769996427
105,47,2,categorization,0,kitchen,SHINEd_sun_aeikbkmhphqzxdkv.tif,79,0.0333333333333333,0.0333333333333333,0.0833333333333333,0.7,527703.8392088,527704.5584896,70,527703.8756244,527703.9102228,527703.9930522,527704.563992,527705.2623284,1,0.719280799967237
105,48,2,categorization,0,kitchen,SHINEd_sun_aeqbewejiovwrhhc.tif,80,0.0333333333333333,0.0333333333333333,0.0833333333333333,1.26666666666667,527705.2678062,527705.9518016,70,527705.3037093,527705.3385891,527705.4207632,527705.9576682,527707.2226723,1,0.683995400089771
105,49,2,categorization,0,kitchen,SHINEd_sun_avszsnwsbuqfgzbn.tif,105,0.0333333333333333,0.0333333333333333,0.0833333333333333,0.966666666666667,527707.228616,527707.8037035,70,527707.2657751,527707.2992866,527707.3819849,527707.810179,527708.775184,1,0.57508749992121
105,50,2,categorization,0,kitchen,SHINEd_sun_ajcbwwvdlsvjyzje.tif,94,0.0333333333333333,0.0333333333333333,0.0833333333333333,1.26666666666667,527708.7817622,527709.3301468,74,527708.8183006,527708.8522171,527708.9346509,527709.3364131,527710.6014191,0,0.548384600086138
105,1,3,categorization,0,kitchen,SHINEd_sun_abdxkyyxwfskuaqb.tif,68,0.0333333333333333,0.0333333333333333,0.0833333333333333,1.55,527719.7029748,527720.4602687,70,527719.739682,527719.7735901,527719.8560455,527720.4670973,527722.015435,1,0.757293900009245
105,2,3,categorization,0,kitchen,SHINEd_sun_aeqbewejiovwrhhc.tif,80,0.0333333333333333,0.0333333333333333,0.0833333333333333,0.783333333333333,527722.0212798,527722.6825673,70,527722.0580061,527722.0922746,527722.1748083,527722.6883632,527723.4700336,1,0.661287500057369
105,3,3,categorization,0,kitchen,SHINEd_sun_adgqasybjyktddhj.tif,75,0.0333333333333333,0.0333333333333333,0.0833333333333333,1.05,527723.4759671,527724.1901141,70,527723.5138494,527723.5468352,527723.6296402,527724.1958213,527725.2441587,1,0.714146999991499
105,4,3,categorization,0,kitchen,SHINEd_sun_aglwoufpxbtxqecp.tif,84,0.0333333333333333,0.0333333333333333,0.0833333333333333,1.01666666666667,527725.2499963,527725.7975143,70,527725.2863823,527725.3207329,527725.4029708,527725.8040188,527726.8190252,1,0.547518000006676
105,5,3,categorization,0,kitchen,SHINEd_sun_aaofphpvkeqlhwgu.tif,64,0.0333333333333333,0.0333333333333333,0.0833333333333333,1.11666666666667,527726.8256572,527727.430657,70,527726.8628466,527726.8958397,527726.9792356,527727.4363009,527728.5513055,1,0.604999800096266
105,6,3,categorization,0,bathroom,SHINEd_sun_amzlamotzwfkwjco.tif,38,0.0333333333333333,0.0333333333333333,0.0833333333333333,1.18333333333333,527728.5567529,527729.0928261,70,527728.5935513,527728.6273464,527728.710617,527729.0990059,527730.2806776,0,0.536073199938983
105,7,3,categorization,0,bathroom,SHINEd_sun_arzkwskvsrwimlwo.tif,48,0.0333333333333333,0.0333333333333333,0.0833333333333333,1.33333333333333,527730.2864536,527730.9696849,74,527730.3236078,527730.3569,527730.4401073,527730.9760062,527732.3076768,1,0.683231299975887
105,8,3,categorization,0,bathroom,SHINEd_sun_aleqenyvunhactkl.tif,33,0.0333333333333333,0.0333333333333333,0.0833333333333333,2,527732.314359,527732.862979,74,527732.3512516,527732.3852207,527732.4680475,527732.8697689,527734.8681725,1,0.548620000015944
105,9,3,categorization,0,bathroom,SHINEd_sun_anlddfvefwvocyae.tif,40,0.0333333333333333,0.0333333333333333,0.0833333333333333,0.716666666666667,527734.8742108,527735.4625658,74,527734.9113617,527734.9452529,527735.0278435,527735.4680347,527736.1830391,1,0.588354999898002
105,10,3,categorization,0,bathroom,SHINEd_sun_aunuadmjocsddsrl.tif,52,0.0333333333333333,0.0333333333333333,0.0833333333333333,0.9,527736.1891434,527737.0319028,74,527736.2256429,527736.2594077,527736.3422932,527737.0383887,527737.9367263,1,0.842759399907663
105,11,3,categorization,0,kitchen,SHINEd_sun_agorklincwxrdtga.tif,85,0.0333333333333333,0.0333333333333333,0.0833333333333333,1.9,527737.942719,527738.5586208,70,527737.9797908,527738.0140131,527738.0968195,527738.5646857,527740.4630238,1,0.615901799988933
105,12,3,categorization,0,kitchen,SHINEd_sun_aglwoufpxbtxqecp.tif,84,0.0333333333333333,0.0333333333333333,0.0833333333333333,1.43333333333333,527740.4689289,527741.2309153,70,527740.5057964,527740.5399993,527740.622991,527741.2373121,527742.6689831,1,0.761986400000751
105,13,3,categorization,0,kitchen,SHINEd_sun_acfmftudsenhrfhy.tif,72,0.0333333333333333,0.0333333333333333,0.0833333333333333,1.25,527742.6751718,527743.3129382,70,527742.7121194,527742.7465147,527742.8292369,527743.3197254,527744.5680618,1,0.637766400002874
105,14,3,categorization,0,kitchen,SHINEd_sun_aaxxjlsuzvqlgylf.tif,66,0.0333333333333333,0.0333333333333333,0.0833333333333333,0.8,527744.5738414,527745.1619159,70,527744.6107139,527744.6454996,527744.7276439,527745.1685747,527745.9669127,1,0.588074499974027
105,15,3,categorization,0,bathroom,SHINEd_sun_afcoljnjfoxjtgja.tif,24,0.0333333333333333,0.0333333333333333,0.0833333333333333,0.7,527745.9725366,527746.5396868,70,527746.0095775,527746.0433892,527746.1259265,527746.5458477,527747.244185,0,0.567150200018659
105,16,3,categorization,0,kitchen,SHINEd_sun_aglwoufpxbtxqecp.tif,84,0.0333333333333333,0.0333333333333333,0.0833333333333333,0.85,527747.2503341,527747.9257788,70,527747.2873767,527747.3212982,527747.4037206,527747.9322133,527748.780551,1,0.675444700056687
105,17,3,categorization,0,bathroom,SHINEd_sun_apkxzenqapsujocq.tif,45,0.0333333333333333,0.0333333333333333,0.0833333333333333,1.35,527748.7871762,527749.3652089,74,527748.8240323,527748.8576353,527748.9413209,527749.3714934,527750.719841,1,0.578032699995674
105,18,3,categorization,0,bathroom,SHINEd_sun_amzlamotzwfkwjco.tif,38,0.0333333333333333,0.0333333333333333,0.0833333333333333,1.8,527750.7262335,527751.3906554,70,527750.7629394,527750.7971556,527750.879832,527751.3973295,527753.1956669,0,0.664421899942681
105,19,3,categorization,0,kitchen,SHINEd_sun_acxkpeoqbwcxfvip.tif,74,0.0333333333333333,0.0333333333333333,0.0833333333333333,1.61666666666667,527753.2018939,527753.8080617,70,527753.2388119,527753.2727679,527753.3557838,527753.8141633,527755.4291686,1,0.606167799909599
105,20,3,categorization,0,bathroom,SHINEd_sun_aovflwamhlwzwvxs.tif,42,0.0333333333333333,0.0333333333333333,0.0833333333333333,1.8,527755.4351381,527755.977909,74,527755.4734649,527755.5059438,527755.5885333,527755.9840642,527757.7824005,1,0.542770900065079
105,21,3,categorization,0,bathroom,SHINEd_sun_anltpptcpfdrhlks.tif,41,0.0333333333333333,0.0333333333333333,0.0833333333333333,0.85,527757.7884254,527758.3974446,74,527757.8250773,527757.8593387,527757.9432373,527758.4044532,527759.2527898,1,0.609019199968316
105,22,3,categorization,0,kitchen,SHINEd_sun_aypmqwcualkenuoe.tif,110,0.0333333333333333,0.0333333333333333,0.0833333333333333,1.55,527759.2583683,527760.0869894,70,527759.2956859,527759.3294362,527759.4119812,527760.093445,527761.6417829,1,0.828621099935845
105,23,3,categorization,0,bathroom,SHINEd_sun_auzqhkafidnkrwmo.tif,54,0.0333333333333333,0.0333333333333333,0.0833333333333333,1,527761.64795,527762.3697209,74,527761.6849472,527761.7203515,527761.8014316,527762.3763602,527763.3746984,1,0.721770899952389
105,24,3,categorization,0,bathroom,SHINEd_labelme_xbsnnlvmskdknsb.tif,12,0.0333333333333333,0.0333333333333333,0.0833333333333333,0.766666666666667,527763.3806839,527764.0922666,74,527763.4174144,527763.4512515,527763.5345711,527764.0991891,527764.8641935,1,0.711582700023428
105,25,3,categorization,0,kitchen,SHINEd_sun_aqeaevwwwjoqhzvl.tif,101,0.0333333333333333,0.0333333333333333,0.0833333333333333,0.916666666666667,527764.8703486,527765.549487,70,527764.9072797,527764.9412492,527765.0240176,527765.5559404,527766.470945,1,0.679138400009833
105,26,3,categorization,0,kitchen,SHINEd_sun_aamedkxepzlwuxes.tif,63,0.0333333333333333,0.0333333333333333,0.0833333333333333,1.63333333333333,527766.4772055,527767.0638763,70,527766.5142763,527766.5476449,527766.630366,527767.070386,527768.7020581,1,0.586670799995773
105,27,3,categorization,0,bathroom,SHINEd_sun_anlddfvefwvocyae.tif,40,0.0333333333333333,0.0333333333333333,0.0833333333333333,1.26666666666667,527768.7089426,527769.4033751,74,527768.7457609,527768.7804939,527768.86241,527769.4093066,527770.6743097,1,0.694432500051335
105,28,3,categorization,0,bathroom,SHINEd_sun_axbqssteryzzlcop.tif,57,0.0333333333333333,0.0333333333333333,0.0833333333333333,1.38333333333333,527770.6804545,527771.2468531,74,527770.7173287,527770.7506617,527770.8339767,527771.252972,527772.634644,1,0.566398599999957
105,29,3,categorization,0,bathroom,SHINEd_sun_avhrdrntsqrjzccq.tif,55,0.0333333333333333,0.0333333333333333,0.0833333333333333,1.61666666666667,527772.6409017,527773.3127205,74,527772.6780545,527772.7119843,527772.7953905,527773.3196191,527774.9346249,1,0.671818800037727
105,30,3,categorization,0,kitchen,SHINEd_sun_abdenxonkemggwsq.tif,67,0.0333333333333333,0.0333333333333333,0.0833333333333333,1.75,527774.9414421,527775.6068431,70,527774.9785763,527775.0125058,527775.0956089,527775.6133058,527777.3616441,1,0.665401000063866
105,31,3,categorization,0,bathroom,SHINEd_sun_abtukhmkjdzyfxhr.tif,18,0.0333333333333333,0.0333333333333333,0.0833333333333333,1.66666666666667,527777.3680234,527777.9635397,74,527777.4055727,527777.4389967,527777.5223918,527777.9696374,527779.6346417,1,0.595516300061718
105,32,3,categorization,0,kitchen,SHINEd_sun_auticobqsbwgoppi.tif,104,0.0333333333333333,0.0333333333333333,0.0833333333333333,1.11666666666667,527779.6406211,527780.3115418,70,527779.6780764,527779.7117519,527779.7940567,527780.3176279,527781.4326329,1,0.670920700067654
105,33,3,categorization,0,bathroom,SHINEd_sun_aunuadmjocsddsrl.tif,52,0.0333333333333333,0.0333333333333333,0.0833333333333333,0.783333333333333,527781.4385485,527782.1202307,74,527781.4755471,527781.5091221,527781.5920392,527782.1279136,527782.9097344,1,0.681682200054638
105,34,3,categorization,0,kitchen,SHINEd_sun_aehawpgmrlhlvcow.tif,78,0.0333333333333333,0.0333333333333333,0.0833333333333333,1.73333333333333,527782.915763,527783.5297395,74,527782.9523347,527782.9866504,527783.0693457,527783.5361193,527785.2677908,0,0.613976499997079
105,35,3,categorization,0,kitchen,SHINEd_sun_ahljzhgcdpomplvg.tif,89,0.0333333333333333,0.0333333333333333,0.0833333333333333,0.85,527785.2744502,527786.088076,70,527785.3115909,527785.3455035,527785.4284307,527786.0953271,527786.9436642,1,0.813625799957663
105,36,3,categorization,0,kitchen,SHINEd_sun_ahvszpwjtodgwusx.tif,91,0.0333333333333333,0.0333333333333333,0.0833333333333333,1.03333333333333,527786.9493037,527787.5568275,70,527786.9859187,527787.0199394,527787.1031396,527787.5632681,527788.5949388,1,0.607523799990304
105,37,3,categorization,0,kitchen,SHINEd_sun_aqeaevwwwjoqhzvl.tif,101,0.0333333333333333,0.0333333333333333,0.0833333333333333,1.41666666666667,527788.6018463,527789.2994883,70,527788.6387848,527788.6722561,527788.7553403,527789.3060227,527790.721028,1,0.697642000042833
105,38,3,categorization,0,bathroom,SHINEd_sun_acsgbuurtwghzjel.tif,21,0.0333333333333333,0.0333333333333333,0.0833333333333333,1.01666666666667,527790.7271904,527791.2608248,74,527790.76435,527790.7980269,527790.8807289,527791.2677773,527792.2827825,1,0.533634399995208
105,39,3,categorization,0,kitchen,SHINEd_sun_aeikbkmhphqzxdkv.tif,79,0.0333333333333333,0.0333333333333333,0.0833333333333333,0.75,527792.2885126,527793.202769,70,527792.3251682,527792.3592213,527792.4421623,527793.2086415,527793.9569785,1,0.914256399963051
105,40,3,categorization,0,bathroom,SHINEd_sun_anltpptcpfdrhlks.tif,41,0.0333333333333333,0.0333333333333333,0.0833333333333333,1.31666666666667,527793.9628336,527794.6004339,74,527793.9992569,527794.0336064,527794.1167012,527794.6065124,527795.9215159,1,0.637600300018676
105,41,3,categorization,0,kitchen,SHINEd_sun_aehawpgmrlhlvcow.tif,78,0.0333333333333333,0.0333333333333333,0.0833333333333333,1.33333333333333,527795.9270778,527796.5137293,70,527795.9636848,527795.9984536,527796.0804227,527796.5198909,527797.8515609,1,0.586651499965228
105,42,3,categorization,0,bathroom,SHINEd_labelme_sfxiulhjbhlyiyt.tif,11,0.0333333333333333,0.0333333333333333,0.0833333333333333,0.85,527797.8576919,527798.4757904,74,527797.8945085,527797.928653,527798.0126494,527798.481929,527799.3302655,1,0.618098500068299
105,43,3,categorization,0,kitchen,SHINEd_labelme_rykdqxenmhulbdn.tif,61,0.0333333333333333,0.0333333333333333,0.0833333333333333,1.06666666666667,527799.3357438,527800.0183729,70,527799.3725868,527799.4064995,527799.4897473,527800.0242828,527801.0892882,1,0.682629099930637
105,44,3,categorization,0,bathroom,SHINEd_sun_ammzpemadwrjdfzl.tif,37,0.0333333333333333,0.0333333333333333,0.0833333333333333,1.26666666666667,527801.0968797,527801.7516227,74,527801.1341224,527801.1678278,527801.2517545,527801.7585949,527803.0236003,1,0.654743000050075
105,45,3,categorization,0,bathroom,SHINEd_sun_auzqhkafidnkrwmo.tif,54,0.0333333333333333,0.0333333333333333,0.0833333333333333,0.966666666666667,527803.0295413,527803.7395031,74,527803.0662485,527803.101309,527803.183463,527803.7461593,527804.7111628,1,0.709961800021119
105,46,3,categorization,0,kitchen,SHINEd_sun_agzzivivdpnawacl.tif,87,0.0333333333333333,0.0333333333333333,0.0833333333333333,1.16666666666667,527804.716946,527805.3789818,70,527804.7537959,527804.7872096,527804.8707437,527805.3852178,527806.5502234,1,0.662035800050944
105,47,3,categorization,0,bathroom,SHINEd_sun_anhioqovhscjqqwb.tif,39,0.0333333333333333,0.0333333333333333,0.0833333333333333,0.733333333333333,527806.5561611,527807.1846589,74,527806.593438,527806.6268849,527806.7099963,527807.1916469,527807.9233174,1,0.628497799974866
105,48,3,categorization,0,kitchen,SHINEd_sun_akcjzhbbjlbogpdi.tif,95,0.0333333333333333,0.0333333333333333,0.0833333333333333,0.783333333333333,527807.929008,527808.5543576,70,527807.9659081,527808.0000094,527808.0823996,527808.5610926,527809.3427641,1,0.62534960010089
105,49,3,categorization,0,kitchen,SHINEd_sun_ahdycvpopffkzzsu.tif,88,0.0333333333333333,0.0333333333333333,0.0833333333333333,0.933333333333333,527809.3486764,527809.9635399,70,527809.3853837,527809.419145,527809.5024817,527809.9694493,527810.9011207,1,0.614863499999046
105,50,3,categorization,0,kitchen,SHINEd_sun_agfmsmojwptjoava.tif,82,0.0333333333333333,0.0333333333333333,0.0833333333333333,1.33333333333333,527810.9083056,527811.4821753,70,527810.9453214,527810.9794466,527811.0620148,527811.4892264,527812.8208981,1,0.573869699961506
105,1,4,categorization,0,bathroom,SHINEd_sun_acsgbuurtwghzjel.tif,21,0.0333333333333333,0.0333333333333333,0.0833333333333333,1.73333333333333,527842.4221349,527843.1289137,74,527842.4588811,527842.4928173,527842.5755667,527843.1355132,527844.8671838,1,0.706778799998574
105,2,4,categorization,0,bathroom,SHINEd_sun_aclfzgynxzxlbepz.tif,20,0.0333333333333333,0.0333333333333333,0.0833333333333333,1.35,527844.8732812,527845.4491454,74,527844.9119719,527844.9446065,527845.0272719,527845.4546182,527846.8029566,1,0.575864200014621
105,3,4,categorization,0,kitchen,SHINEd_sun_ahywdevtimnqcsln.tif,92,0.0333333333333333,0.0333333333333333,0.0833333333333333,0.983333333333333,527846.8084671,527847.3926621,70,527846.8448749,527846.8789174,527846.9621536,527847.3987189,527848.380391,1,0.584195000003092
105,4,4,categorization,0,kitchen,SHINEd_sun_aaofphpvkeqlhwgu.tif,64,0.0333333333333333,0.0333333333333333,0.0833333333333333,1.71666666666667,527848.3868633,527849.0905977,70,527848.4249084,527848.457319,527848.5405981,527849.097524,527850.8125271,1,0.703734399983659
105,5,4,categorization,0,kitchen,SHINEd_sun_alalhpqajafvlnho.tif,96,0.0333333333333333,0.0333333333333333,0.0833333333333333,1.41666666666667,527850.8182477,527851.4773382,70,527850.8552982,527850.8888726,527850.9716436,527851.484329,527852.8993334,1,0.659090499975719
105,6,4,categorization,0,bathroom,SHINEd_sun_agyqfjcfkdcydepw.tif,27,0.0333333333333333,0.0333333333333333,0.0833333333333333,0.766666666666667,527852.9052314,527853.4719419,74,527852.9421602,527852.975727,527853.0589141,527853.4780561,527854.2430602,1,0.566710499930196
105,7,4,categorization,0,bathroom,SHINEd_sun_ahcvzmoyaycdoftf.tif,28,0.0333333333333333,0.0333333333333333,0.0833333333333333,1.33333333333333,527854.2484206,527854.9878398,74,527854.2851712,527854.3188084,527854.4017348,527854.9947874,527856.3264593,1,0.739419199991971
105,8,4,categorization,0,kitchen,SHINEd_sun_axyyrmzcupyhlivc.tif,109,0.0333333333333333,0.0333333333333333,0.0833333333333333,1.23333333333333,527856.3323143,527856.8949476,74,527856.3693593,527856.4029532,527856.4859141,527856.9010805,527858.1327509,0,0.562633299967274
105,9,4,categorization,0,bathroom,SHINEd_sun_ausgutylgojavyoq.tif,53,0.0333333333333333,0.0333333333333333,0.0833333333333333,1.53333333333333,527858.1389083,527858.7138571,74,527858.1752801,527858.209169,527858.2922191,527858.7203855,527860.2520563,1,0.574948800029233
105,10,4,categorization,0,bathroom,SHINEd_sun_axyrejkiiaqiurjk.tif,59,0.0333333333333333,0.0333333333333333,0.0833333333333333,1.53333333333333,527860.2583154,527861.0798274,74,527860.2964291,527860.3290992,527860.4116933,527861.085623,527862.6172942,1,0.82151200005319
105,11,4,categorization,0,bathroom,SHINEd_sun_atstyziqcmkahyxk.tif,51,0.0333333333333333,0.0333333333333333,0.0833333333333333,0.75,527862.6237992,527863.1812687,74,527862.6606074,527862.6947133,527862.7773678,527863.1873799,527863.9357281,1,0.557469499995932
105,12,4,categorization,0,kitchen,SHINEd_sun_auaiucuqpdausiva.tif,103,0.0333333333333333,0.0333333333333333,0.0833333333333333,1.56666666666667,527863.9417029,527864.7109136,70,527863.9786596,527864.0124935,527864.0954872,527864.7177041,527866.2827096,1,0.769210700062104
105,13,4,categorization,0,bathroom,SHINEd_sun_ambriybtogmepttm.tif,36,0.0333333333333333,0.0333333333333333,0.0833333333333333,0.766666666666667,527866.2887726,527866.9030446,70,527866.3259726,527866.359599,527866.4426828,527866.9093952,527867.6743991,0,0.614272000035271
105,14,4,categorization,0,bathroom,SHINEd_sun_avhrdrntsqrjzccq.tif,55,0.0333333333333333,0.0333333333333333,0.0833333333333333,0.783333333333333,527867.6801768,527868.5255902,74,527867.7168646,527867.7507571,527867.8335771,527868.5312639,527869.3129352,1,0.845413399976678
105,15,4,categorization,0,bathroom,SHINEd_sun_auzqhkafidnkrwmo.tif,54,0.0333333333333333,0.0333333333333333,0.0833333333333333,0.916666666666667,527869.3184388,527870.0661893,74,527869.3550405,527869.3890691,527869.4716104,527870.0715906,527870.9865939,1,0.747750499984249
105,16,4,categorization,0,kitchen,SHINEd_sun_avszsnwsbuqfgzbn.tif,105,0.0333333333333333,0.0333333333333333,0.0833333333333333,1.4,527870.9918529,527871.6388327,70,527871.0280269,527871.0620597,527871.144694,527871.6444874,527873.0428257,1,0.646979799959809
105,17,4,categorization,0,kitchen,SHINEd_sun_aggjlwcdjsjcaemh.tif,83,0.0333333333333333,0.0333333333333333,0.0833333333333333,1.41666666666667,527873.0488434,527873.9856276,70,527873.0862104,527873.1195372,527873.2027257,527873.9919859,527875.4069912,1,0.936784200021066
105,18,4,categorization,0,kitchen,SHINEd_sun_abrcnpqqhmjwekyf.tif,70,0.0333333333333333,0.0333333333333333,0.0833333333333333,1.05,527875.4137983,527876.2505772,70,527875.450462,527875.4849365,527875.5673789,527876.2571916,527877.3055305,1,0.836778900003992
105,19,4,categorization,0,kitchen,SHINEd_sun_aypmqwcualkenuoe.tif,110,0.0333333333333333,0.0333333333333333,0.0833333333333333,1.2,527877.3127558,527877.9019918,70,527877.3495353,527877.383574,527877.4663417,527877.9081523,527879.1064898,1,0.589236000087112
105,20,4,categorization,0,kitchen,SHINEd_sun_abdenxonkemggwsq.tif,67,0.0333333333333333,0.0333333333333333,0.0833333333333333,1.16666666666667,527879.112365,527879.7343988,70,527879.148714,527879.1827512,527879.2661332,527879.7403956,527880.9054,1,0.622033799998462
105,21,4,categorization,0,kitchen,SHINEd_sun_aegoxogugdkwpmpj.tif,77,0.0333333333333333,0.0333333333333333,0.0833333333333333,1.63333333333333,527880.9109185,527881.4526855,70,527880.9472135,527880.9810733,527881.0641908,527881.4587836,527883.0904538,1,0.541766999987885
105,22,4,categorization,0,kitchen,SHINEd_sun_awcpdzzznmweyyhv.tif,107,0.0333333333333333,0.0333333333333333,0.0833333333333333,0.716666666666667,527883.0963957,527883.7347511,70,527883.1328247,527883.167348,527883.2499106,527883.7411089,527884.4561141,1,0.638355399947613
105,23,4,categorization,0,kitchen,SHINEd_sun_admlmbcdswaszruo.tif,76,0.0333333333333333,0.0333333333333333,0.0833333333333333,0.866666666666667,527884.4621075,527885.191939,70,527884.4993911,527884.5321722,527884.6156793,527885.1975489,527886.0625561,1,0.729831500095315
105,24,4,categorization,0,bathroom,SHINEd_sun_agyqfjcfkdcydepw.tif,27,0.0333333333333333,0.0333333333333333,0.0833333333333333,0.983333333333333,527886.0678982,527886.8277197,74,527886.1043918,527886.1384313,527886.2215359,527886.8355318,527887.8172026,1,0.75982150004711
105,25,4,categorization,0,bathroom,SHINEd_sun_ahqjwnzgolcaoidx.tif,29,0.0333333333333333,0.0333333333333333,0.0833333333333333,0.833333333333333,527887.8232511,527888.686783,74,527887.8604287,527887.894407,527887.9767991,527888.6925664,527889.5242374,1,0.86353189998772
105,26,4,categorization,0,kitchen,SHINEd_sun_ahvszpwjtodgwusx.tif,91,0.0333333333333333,0.0333333333333333,0.0833333333333333,1.01666666666667,527889.530392,527890.2392761,70,527889.5670094,527889.6010661,527889.683666,527890.2453944,527891.2603995,1,0.708884099964052
105,27,4,categorization,0,kitchen,SHINEd_sun_aegoxogugdkwpmpj.tif,77,0.0333333333333333,0.0333333333333333,0.0833333333333333,1.63333333333333,527891.2664299,527892.0586141,74,527891.3044886,527891.3371015,527891.4194276,527892.0648105,527893.6964817,0,0.792184200021438
105,28,4,categorization,0,bathroom,SHINEd_sun_arzkwskvsrwimlwo.tif,48,0.0333333333333333,0.0333333333333333,0.0833333333333333,1.01666666666667,527893.7030689,527894.4316229,74,527893.7398592,527893.7736354,527893.856433,527894.4379942,527895.4529977,1,0.728553999913856
105,29,4,categorization,0,bathroom,SHINEd_sun_anlddfvefwvocyae.tif,40,0.0333333333333333,0.0333333333333333,0.0833333333333333,1.18333333333333,527895.4597458,527896.1203957,74,527895.496102,527895.5304746,527895.6131292,527896.1272981,527897.3089686,1,0.660649899975397
105,30,4,categorization,0,bathroom,SHINEd_sun_auzqhkafidnkrwmo.tif,54,0.0333333333333333,0.0333333333333333,0.0833333333333333,1.96666666666667,527897.3147676,527897.910905,74,527897.3514846,527897.3854815,527897.4681957,527897.9165346,527899.8815388,1,0.596137400018051
105,31,4,categorization,0,bathroom,SHINEd_sun_acgyywnybuveqsro.tif,19,0.0333333333333333,0.0333333333333333,0.0833333333333333,1.05,527899.8886124,527900.8159522,74,527899.9256971,527899.960426,527900.0435613,527900.8222733,527901.8706213,1,0.927339799934998
105,32,4,categorization,0,bathroom,SHINEd_sun_adbqksnwuqqwdpxc.tif,22,0.0333333333333333,0.0333333333333333,0.0833333333333333,1.91666666666667,527901.8775702,527902.4215079,74,527901.9148272,527901.9479955,527902.0315399,527902.4281903,527904.3432143,1,0.54393769998569
105,33,4,categorization,0,bathroom,SHINEd_sun_aleqenyvunhactkl.tif,33,0.0333333333333333,0.0333333333333333,0.0833333333333333,0.733333333333333,527904.3494712,527904.9804167,74,527904.3864995,527904.4200754,527904.5030193,527904.9865087,527905.7181809,1,0.63094549998641
105,34,4,categorization,0,bathroom,SHINEd_sun_amzlamotzwfkwjco.tif,38,0.0333333333333333,0.0333333333333333,0.0833333333333333,0.9,527905.7241882,527906.3448538,74,527905.7611548,527905.7949599,527905.877886,527906.351435,527907.2497742,1,0.620665600057691
105,35,4,categorization,0,bathroom,SHINEd_sun_awnqiikzaispgmwo.tif,56,0.0333333333333333,0.0333333333333333,0.0833333333333333,1.28333333333333,527907.2557266,527907.8388194,74,527907.2924074,527907.3264854,527907.4089776,527907.845015,527909.1266865,1,0.583092800108716
105,36,4,categorization,0,kitchen,SHINEd_sun_ahljzhgcdpomplvg.tif,89,0.0333333333333333,0.0333333333333333,0.0833333333333333,1.86666666666667,527909.1326591,527909.7849785,70,527909.1706723,527909.2033333,527909.2860314,527909.7914483,527911.6564529,1,0.65231939998921
105,37,4,categorization,0,kitchen,SHINEd_sun_amjjdeyrggfqgmom.tif,99,0.0333333333333333,0.0333333333333333,0.0833333333333333,0.8,527911.6625344,527912.2925208,70,527911.6997709,527911.7332361,527911.8160464,527912.2988331,527913.0971724,1,0.629986400017515
105,38,4,categorization,0,kitchen,SHINEd_sun_ahljzhgcdpomplvg.tif,89,0.0333333333333333,0.0333333333333333,0.0833333333333333,1.36666666666667,527913.1026354,527913.6708016,70,527913.1396624,527913.173046,527913.2557933,527913.6767373,527915.0417422,1,0.568166199955158
105,39,4,categorization,0,kitchen,SHINEd_sun_acwjdupvyjsugpay.tif,73,0.0333333333333333,0.0333333333333333,0.0833333333333333,1.55,527915.0476334,527915.8598387,74,527915.0845477,527915.1190335,527915.2012444,527915.8668978,527917.4152358,0,0.812205300084315
105,40,4,categorization,0,kitchen,SHINEd_sun_aapllqyqlykszopd.tif,65,0.0333333333333333,0.0333333333333333,0.0833333333333333,1.86666666666667,527917.4214641,527918.1725994,70,527917.4583761,527917.4922363,527917.5753089,527918.1786102,527920.0436145,1,0.751135300030001
105,41,4,categorization,0,kitchen,SHINEd_sun_aaxxjlsuzvqlgylf.tif,66,0.0333333333333333,0.0333333333333333,0.0833333333333333,1.06666666666667,527920.0498972,527920.6016858,70,527920.0869441,527920.1205763,527920.2034317,527920.6078007,527921.672805,1,0.551788600045256
105,42,4,categorization,0,bathroom,SHINEd_sun_azqyogdvyhahyram.tif,60,0.0333333333333333,0.0333333333333333,0.0833333333333333,0.9,527921.6789379,527922.2672929,74,527921.7156285,527921.7512689,527921.8323403,527922.2740672,527923.1724046,1,0.588355000014417
105,43,4,categorization,0,kitchen,SHINEd_sun_axaiaptzctpidqzg.tif,108,0.0333333333333333,0.0333333333333333,0.0833333333333333,0.966666666666667,527923.1782509,527923.6876254,74,527923.2148561,527923.2487857,527923.3316335,527923.6934586,527924.6584634,0,0.509374500019476
105,44,4,categorization,0,kitchen,SHINEd_sun_aqeaevwwwjoqhzvl.tif,101,0.0333333333333333,0.0333333333333333,0.0833333333333333,1,527924.6642846,527925.2871887,70,527924.7010794,527924.7347611,527924.817866,527925.293661,527926.2919993,1,0.622904100106098
105,45,4,categorization,0,kitchen,SHINEd_sun_aapllqyqlykszopd.tif,65,0.0333333333333333,0.0333333333333333,0.0833333333333333,1.83333333333333,527926.2973726,527926.8714617,70,527926.3344667,527926.3678153,527926.4511168,527926.8782189,527928.7098897,1,0.574089100002311
105,46,4,categorization,0,kitchen,SHINEd_sun_auticobqsbwgoppi.tif,104,0.0333333333333333,0.0333333333333333,0.0833333333333333,1.53333333333333,527928.7160344,527929.3084543,70,527928.7528411,527928.7867218,527928.8698942,527929.3154464,527930.847118,1,0.592419900000095
105,47,4,categorization,0,bathroom,SHINEd_sun_aovflwamhlwzwvxs.tif,42,0.0333333333333333,0.0333333333333333,0.0833333333333333,1.03333333333333,527930.8531172,527931.5941573,74,527930.8904981,527930.9239572,527931.0066121,527931.6021549,527932.6338255,1,0.741040099994279
105,48,4,categorization,0,kitchen,SHINEd_sun_aglwoufpxbtxqecp.tif,84,0.0333333333333333,0.0333333333333333,0.0833333333333333,0.983333333333333,527932.6399762,527933.3201928,70,527932.677547,527932.7109408,527932.7938037,527933.3256244,527934.3072957,1,0.680216600070707
105,49,4,categorization,0,bathroom,SHINEd_sun_abtukhmkjdzyfxhr.tif,18,0.0333333333333333,0.0333333333333333,0.0833333333333333,1.13333333333333,527934.3125479,527934.9636539,74,527934.3484644,527934.382776,527934.4657805,527934.9697679,527936.1014398,1,0.651105999946594
105,50,4,categorization,0,bathroom,SHINEd_sun_aljolscmmzydegqp.tif,34,0.0333333333333333,0.0333333333333333,0.0833333333333333,1.8,527936.1070476,527936.9982667,74,527936.143958,527936.1778524,527936.2604232,527937.0051832,527938.803523,1,0.891219099983573
105,1,5,categorization,0,kitchen,SHINEd_sun_abdxkyyxwfskuaqb.tif,68,0.0333333333333333,0.0333333333333333,0.0833333333333333,1.76666666666667,527990.4679287,527991.1040709,70,527990.5052305,527990.5386759,527990.6217489,527991.1103015,527992.8753061,1,0.636142199975438
105,2,5,categorization,0,bathroom,SHINEd_sun_ambriybtogmepttm.tif,36,0.0333333333333333,0.0333333333333333,0.0833333333333333,1.88333333333333,527992.8819065,527993.4231871,70,527992.9188655,527992.9525233,527993.0356124,527993.4289461,527995.3106166,0,0.541280600009486
105,3,5,categorization,0,bathroom,SHINEd_sun_aghyqhbptboemmoq.tif,25,0.0333333333333333,0.0333333333333333,0.0833333333333333,1.26666666666667,527995.3162686,527995.9463618,74,527995.3532335,527995.3873406,527995.4702738,527995.9527593,527997.2177645,1,0.63009319989942
105,4,5,categorization,0,bathroom,SHINEd_sun_axyrejkiiaqiurjk.tif,59,0.0333333333333333,0.0333333333333333,0.0833333333333333,1.48333333333333,527997.2239654,527998.3551649,74,527997.2606922,527997.2942673,527997.3773714,527998.3619142,527999.8435843,1,1.13119949994143
105,5,5,categorization,0,bathroom,SHINEd_sun_aclfzgynxzxlbepz.tif,20,0.0333333333333333,0.0333333333333333,0.0833333333333333,0.783333333333333,527999.8497533,528000.5200877,74,527999.8868187,527999.920039,528000.0030967,528000.5260019,528001.3076739,1,0.670334400027059
105,6,5,categorization,0,bathroom,SHINEd_sun_aqrpegblszgcoujh.tif,47,0.0333333333333333,0.0333333333333333,0.0833333333333333,0.866666666666667,528001.3134776,528001.8930832,74,528001.3502339,528001.3847243,528001.4669317,528001.8985299,528002.7635343,1,0.579605599981733
105,7,5,categorization,0,bathroom,SHINEd_sun_anltpptcpfdrhlks.tif,41,0.0333333333333333,0.0333333333333333,0.0833333333333333,0.783333333333333,528002.7691735,528003.2917301,74,528002.8056806,528002.8398707,528002.9223029,528003.2974946,528004.0791652,1,0.522556600044481
105,8,5,categorization,0,kitchen,SHINEd_sun_aaofphpvkeqlhwgu.tif,64,0.0333333333333333,0.0333333333333333,0.0833333333333333,1.21666666666667,528004.0854526,528004.6160471,74,528004.1221849,528004.1565085,528004.2387982,528004.6230264,528005.838031,0,0.530594500014558
105,9,5,categorization,0,kitchen,SHINEd_sun_ataniphupyuxeowc.tif,102,0.0333333333333333,0.0333333333333333,0.0833333333333333,1.23333333333333,528005.8440213,528006.76218,70,528005.8809811,528005.915156,528005.9977016,528006.7689294,528008.000601,1,0.918158699991181
105,10,5,categorization,0,kitchen,SHINEd_sun_aadbddgrdsjugojn.tif,62,0.0333333333333333,0.0333333333333333,0.0833333333333333,1.06666666666667,528008.0067676,528008.5605884,70,528008.043671,528008.0775159,528008.1602488,528008.5673279,528009.632333,1,0.553820800036192
105,11,5,categorization,0,bathroom,SHINEd_sun_aghyqhbptboemmoq.tif,25,0.0333333333333333,0.0333333333333333,0.0833333333333333,1.91666666666667,528009.6379408,528010.2362498,74,528009.6746818,528009.7086988,528009.7914068,528010.2423625,528012.157367,1,0.598308999906294
105,12,5,categorization,0,kitchen,SHINEd_sun_ahvszpwjtodgwusx.tif,91,0.0333333333333333,0.0333333333333333,0.0833333333333333,1.16666666666667,528012.1633867,528012.9401048,70,528012.2002352,528012.2341273,528012.3170868,528012.9461112,528014.1111159,1,0.776718100067228
105,13,5,categorization,0,bathroom,SHINEd_sun_ammzpemadwrjdfzl.tif,37,0.0333333333333333,0.0333333333333333,0.0833333333333333,0.75,528014.1169802,528014.8208565,74,528014.1551718,528014.1878757,528014.2706817,528014.8270627,528015.5754529,1,0.703876299900003
105,14,5,categorization,0,kitchen,SHINEd_sun_ahljzhgcdpomplvg.tif,89,0.0333333333333333,0.0333333333333333,0.0833333333333333,0.85,528015.5816307,528016.2233954,70,528015.618626,528015.6522594,528015.7352139,528016.230091,528017.0784291,1,0.641764699947089
105,15,5,categorization,0,kitchen,SHINEd_sun_aiffeoqzngslhzfi.tif,93,0.0333333333333333,0.0333333333333333,0.0833333333333333,1.61666666666667,528017.0846769,528017.8263509,70,528017.1211299,528017.1552352,528017.2381773,528017.8336888,528019.4486944,1,0.741674000048079
105,16,5,categorization,0,kitchen,SHINEd_sun_acfmftudsenhrfhy.tif,72,0.0333333333333333,0.0333333333333333,0.0833333333333333,1.11666666666667,528019.4549229,528020.021431,70,528019.4936093,528019.5257189,528019.6096112,528020.0271311,528021.1421351,1,0.566508100018837
105,17,5,categorization,0,kitchen,SHINEd_sun_ahywdevtimnqcsln.tif,92,0.0333333333333333,0.0333333333333333,0.0833333333333333,0.95,528021.1479051,528021.8260692,70,528021.1864948,528021.2187315,528021.303255,528021.8318677,528022.7802045,1,0.678164099925198
105,18,5,categorization,0,bathroom,SHINEd_labelme_sfxiulhjbhlyiyt.tif,11,0.0333333333333333,0.0333333333333333,0.0833333333333333,1,528022.7858412,528023.4242907,70,528022.8226258,528022.8566757,528022.9390486,528023.4299198,528024.4282584,0,0.638449499965645
105,19,5,categorization,0,kitchen,SHINEd_sun_aypmqwcualkenuoe.tif,110,0.0333333333333333,0.0333333333333333,0.0833333333333333,0.766666666666667,528024.4336704,528025.1133055,70,528024.4699619,528024.5051958,528024.5867451,528025.1192364,528025.8842397,1,0.679635100066662
105,20,5,categorization,0,bathroom,SHINEd_labelme_xbsnnlvmskdknsb.tif,12,0.0333333333333333,0.0333333333333333,0.0833333333333333,0.9,528025.890549,528026.661778,74,528025.9273861,528025.960957,528026.0441004,528026.6675046,528027.5658433,1,0.771228999947198
105,21,5,categorization,0,bathroom,SHINEd_sun_apkxzenqapsujocq.tif,45,0.0333333333333333,0.0333333333333333,0.0833333333333333,1.8,528027.5716738,528028.3472275,74,528027.6090311,528027.6424649,528027.7253842,528028.3525117,528030.1508494,1,0.775553700048476
105,22,5,categorization,0,bathroom,SHINEd_sun_agyqfjcfkdcydepw.tif,27,0.0333333333333333,0.0333333333333333,0.0833333333333333,0.983333333333333,528030.1574456,528030.8123901,74,528030.1943123,528030.228677,528030.3112339,528030.8177434,528031.799414,1,0.654944499954581
105,23,5,categorization,0,kitchen,SHINEd_sun_acfluyeqiftljamq.tif,71,0.0333333333333333,0.0333333333333333,0.0833333333333333,1.43333333333333,528031.8050519,528032.4496604,74,528031.841551,528031.8755847,528031.9591064,528032.4562481,528033.8879199,0,0.644608500064351
105,24,5,categorization,0,kitchen,SHINEd_sun_aeqbewejiovwrhhc.tif,80,0.0333333333333333,0.0333333333333333,0.0833333333333333,1.21666666666667,528033.8943403,528034.4733522,70,528033.9314028,528033.9650689,528034.0479378,528034.4803178,528035.6953227,1,0.579011900001206
105,25,5,categorization,0,kitchen,SHINEd_sun_axaiaptzctpidqzg.tif,108,0.0333333333333333,0.0333333333333333,0.0833333333333333,1.2,528035.7015887,528036.5428936,74,528035.7386846,528035.772498,528035.8552975,528036.5494819,528037.7478201,0,0.841304900008254
105,26,5,categorization,0,bathroom,SHINEd_sun_anhioqovhscjqqwb.tif,39,0.0333333333333333,0.0333333333333333,0.0833333333333333,0.8,528037.7537941,528038.3464325,74,528037.7904588,528037.824395,528037.9074001,528038.3525154,528039.1508528,1,0.592638400034048
105,27,5,categorization,0,kitchen,SHINEd_sun_aehawpgmrlhlvcow.tif,78,0.0333333333333333,0.0333333333333333,0.0833333333333333,0.833333333333333,528039.156723,528039.9039018,70,528039.193351,528039.2273115,528039.3101319,528039.9100007,528040.7416719,1,0.747178800054826
105,28,5,categorization,0,bathroom,SHINEd_sun_aljolscmmzydegqp.tif,34,0.0333333333333333,0.0333333333333333,0.0833333333333333,1.78333333333333,528040.7472925,528041.5496641,74,528040.783948,528040.8177805,528040.9011836,528041.5557168,528043.3373873,1,0.802371600060724
105,29,5,categorization,0,bathroom,SHINEd_sun_axxbkopsgyouuebh.tif,58,0.0333333333333333,0.0333333333333333,0.0833333333333333,1.41666666666667,528043.3434645,528043.9957866,74,528043.3805521,528043.4150803,528043.4969614,528044.0019717,528045.4169757,1,0.652322100009769
105,30,5,categorization,0,kitchen,SHINEd_sun_axyyrmzcupyhlivc.tif,109,0.0333333333333333,0.0333333333333333,0.0833333333333333,1,528045.4230346,528046.1648964,70,528045.460844,528045.4940914,528045.5767711,528046.1711695,528047.1695069,1,0.741861799964681
105,31,5,categorization,0,bathroom,SHINEd_labelme_sfxiulhjbhlyiyt.tif,11,0.0333333333333333,0.0333333333333333,0.0833333333333333,1.18333333333333,528047.1748942,528047.7960008,74,528047.2111434,528047.2456206,528047.3278963,528047.8026638,528048.9843356,1,0.621106599923223
105,32,5,categorization,0,bathroom,SHINEd_sun_afcoljnjfoxjtgja.tif,24,0.0333333333333333,0.0333333333333333,0.0833333333333333,1.65,528048.9902818,528049.7474217,74,528049.0272072,528049.060757,528049.1437829,528049.7537169,528051.4020549,1,0.757139900000766
105,33,5,categorization,0,kitchen,SHINEd_sun_ajcbwwvdlsvjyzje.tif,94,0.0333333333333333,0.0333333333333333,0.0833333333333333,0.85,528051.4079995,528051.9953194,74,528051.4455309,528051.4788847,528051.5620311,528052.00168,528052.8500174,0,0.587319899932481
105,34,5,categorization,0,bathroom,SHINEd_sun_axbqssteryzzlcop.tif,57,0.0333333333333333,0.0333333333333333,0.0833333333333333,1.68333333333333,528052.8555281,528053.5176791,70,528052.8919568,528052.9258414,528053.0087555,528053.5241677,528055.2058383,0,0.662150999996811
105,35,5,categorization,0,kitchen,SHINEd_sun_agfmsmojwptjoava.tif,82,0.0333333333333333,0.0333333333333333,0.0833333333333333,0.816666666666667,528055.2118552,528055.8050332,70,528055.2492014,528055.2837728,528055.365161,528055.8113613,528056.6263656,1,0.593177999951877
105,36,5,categorization,0,kitchen,SHINEd_sun_aaxxjlsuzvqlgylf.tif,66,0.0333333333333333,0.0333333333333333,0.0833333333333333,1.66666666666667,528056.6328007,528057.2788569,70,528056.6695392,528056.7033433,528056.7858286,528057.2839788,528058.9489833,1,0.646056200028397
105,37,5,categorization,0,kitchen,SHINEd_sun_aadbddgrdsjugojn.tif,62,0.0333333333333333,0.0333333333333333,0.0833333333333333,0.9,528058.9550027,528059.5131687,70,528058.9923466,528059.0257777,528059.1085968,528059.5188381,528060.4171765,1,0.558166000060737
105,38,5,categorization,0,kitchen,SHINEd_sun_aeikbkmhphqzxdkv.tif,79,0.0333333333333333,0.0333333333333333,0.0833333333333333,1.96666666666667,528060.4229785,528061.1009345,70,528060.46082,528060.4945528,528060.5766874,528061.1075252,528063.0725297,1,0.677955999970436
105,39,5,categorization,0,kitchen,SHINEd_sun_aglwoufpxbtxqecp.tif,84,0.0333333333333333,0.0333333333333333,0.0833333333333333,1.53333333333333,528063.0786231,528063.8667727,70,528063.1155199,528063.1494118,528063.2324347,528063.87344,528065.4051117,1,0.788149600033648
105,40,5,categorization,0,kitchen,SHINEd_sun_abdenxonkemggwsq.tif,67,0.0333333333333333,0.0333333333333333,0.0833333333333333,1.91666666666667,528065.4112269,528066.1522185,70,528065.4480551,528065.4822296,528065.5650056,528066.1585012,528068.073506,1,0.740991600090638
105,41,5,categorization,0,bathroom,SHINEd_sun_acsgbuurtwghzjel.tif,21,0.0333333333333333,0.0333333333333333,0.0833333333333333,1.16666666666667,528068.0797313,528068.7290994,74,528068.1169714,528068.1503121,528068.2333655,528068.7349729,528069.8999771,1,0.649368099984713
105,42,5,categorization,0,bathroom,SHINEd_sun_alkosphxlxwjwgjd.tif,35,0.0333333333333333,0.0333333333333333,0.0833333333333333,0.783333333333333,528069.9057627,528070.7058191,70,528069.9440381,528069.9767848,528070.0591272,528070.7124022,528071.4940725,0,0.800056400010362
105,43,5,categorization,0,kitchen,SHINEd_sun_aapllqyqlykszopd.tif,65,0.0333333333333333,0.0333333333333333,0.0833333333333333,0.766666666666667,528071.4997679,528072.1909951,70,528071.5363451,528071.5707252,528071.6532831,528072.1968878,528072.9618915,1,0.691227199975401
105,44,5,categorization,0,kitchen,SHINEd_sun_aehawpgmrlhlvcow.tif,78,0.0333333333333333,0.0333333333333333,0.0833333333333333,1.93333333333333,528072.9681448,528073.5668701,70,528073.0050405,528073.0387856,528073.1217526,528073.5736894,528075.5053603,1,0.598725299932994
105,45,5,categorization,0,bathroom,SHINEd_sun_apkxzenqapsujocq.tif,45,0.0333333333333333,0.0333333333333333,0.0833333333333333,1.16666666666667,528075.5113979,528076.1514618,74,528075.5483971,528075.582147,528075.664505,528076.1580222,528077.3230269,1,0.640063900034875
105,46,5,categorization,0,kitchen,SHINEd_sun_aehawpgmrlhlvcow.tif,78,0.0333333333333333,0.0333333333333333,0.0833333333333333,0.95,528077.329343,528078.0901634,70,528077.3659074,528077.3999453,528077.483206,528078.0963665,528079.0447044,1,0.760820400086232
105,47,5,categorization,0,bathroom,SHINEd_sun_ammzpemadwrjdfzl.tif,37,0.0333333333333333,0.0333333333333333,0.0833333333333333,0.733333333333333,528079.050722,528079.6402674,70,528079.0873847,528079.121344,528079.204351,528079.6474335,528080.3791036,0,0.589545399998315
105,48,5,categorization,0,bathroom,SHINEd_sun_acsgbuurtwghzjel.tif,21,0.0333333333333333,0.0333333333333333,0.0833333333333333,0.816666666666667,528080.3847953,528081.1058223,74,528080.4213617,528080.45524,528080.5379288,528081.1143505,528081.9293541,1,0.721026999992318
105,49,5,categorization,0,bathroom,SHINEd_sun_atstyziqcmkahyxk.tif,51,0.0333333333333333,0.0333333333333333,0.0833333333333333,0.983333333333333,528081.9352537,528082.6780098,74,528081.9720539,528082.0058869,528082.0885616,528082.684264,528083.6659358,1,0.742756100022234
105,50,5,categorization,0,kitchen,SHINEd_sun_ahljzhgcdpomplvg.tif,89,0.0333333333333333,0.0333333333333333,0.0833333333333333,1.2,528083.6722573,528084.2924145,70,528083.7089588,528083.7427452,528083.8259539,528084.2975074,528085.4958564,1,0.620157200028189
105,1,6,categorization,0,bathroom,SHINEd_sun_apeeialkgkuxddgh.tif,44,0.0333333333333333,0.0333333333333333,0.0833333333333333,1.21666666666667,528092.1304745,528092.9756525,74,528092.1671116,528092.2011981,528092.2840197,528092.9820591,528094.1970633,1,0.845178000046872
105,2,6,categorization,0,bathroom,SHINEd_sun_abtukhmkjdzyfxhr.tif,18,0.0333333333333333,0.0333333333333333,0.0833333333333333,1.65,528094.2030208,528094.7593756,74,528094.2398174,528094.2735107,528094.3561752,528094.7657269,528096.4140652,1,0.556354800006375
105,3,6,categorization,0,kitchen,SHINEd_sun_ahywdevtimnqcsln.tif,92,0.0333333333333333,0.0333333333333333,0.0833333333333333,1.1,528096.4202874,528097.0660095,70,528096.4576286,528096.4915706,528096.5736377,528097.0724158,528098.170754,1,0.645722099929117
105,4,6,categorization,0,bathroom,SHINEd_sun_abtukhmkjdzyfxhr.tif,18,0.0333333333333333,0.0333333333333333,0.0833333333333333,1.68333333333333,528098.1769204,528098.7739498,74,528098.2148968,528098.2481936,528098.3303059,528098.7803404,528100.462011,1,0.597029399941675
105,5,6,categorization,0,kitchen,SHINEd_sun_amjjdeyrggfqgmom.tif,99,0.0333333333333333,0.0333333333333333,0.0833333333333333,1.23333333333333,528100.4679991,528101.1383668,70,528100.5051905,528100.5388777,528100.6213192,528101.1439239,528102.3755938,1,0.670367700047791
105,6,6,categorization,0,bathroom,SHINEd_sun_apeeialkgkuxddgh.tif,44,0.0333333333333333,0.0333333333333333,0.0833333333333333,0.8,528102.3815159,528102.9959007,74,528102.4185721,528102.4522671,528102.5351053,528103.0020202,528103.8003575,1,0.614384799962863
105,7,6,categorization,0,bathroom,SHINEd_sun_ahcvzmoyaycdoftf.tif,28,0.0333333333333333,0.0333333333333333,0.0833333333333333,1.1,528103.806215,528104.473251,74,528103.842903,528103.8767553,528103.959574,528104.4793396,528105.5776785,1,0.667036000057124
105,8,6,categorization,0,kitchen,SHINEd_sun_aapllqyqlykszopd.tif,65,0.0333333333333333,0.0333333333333333,0.0833333333333333,1.56666666666667,528105.5838594,528106.1651015,74,528105.6206082,528105.6544574,528105.7375645,528106.1714507,528107.7364556,0,0.581242099986412
105,9,6,categorization,0,bathroom,SHINEd_sun_apeeialkgkuxddgh.tif,44,0.0333333333333333,0.0333333333333333,0.0833333333333333,0.75,528107.7437575,528108.302628,74,528107.7809093,528107.8148276,528107.8975517,528108.3088547,528109.0571992,1,0.558870500070043
105,10,6,categorization,0,bathroom,SHINEd_sun_awnqiikzaispgmwo.tif,56,0.0333333333333333,0.0333333333333333,0.0833333333333333,1.56666666666667,528109.0631837,528109.823914,74,528109.0995598,528109.1334668,528109.2165862,528109.8306601,528111.3956758,1,0.760730299982242
105,11,6,categorization,0,bathroom,SHINEd_sun_axxbkopsgyouuebh.tif,58,0.0333333333333333,0.0333333333333333,0.0833333333333333,0.916666666666667,528111.4016143,528111.9676449,74,528111.4387579,528111.4725135,528111.5554531,528111.9747052,528112.8897106,1,0.566030599991791
105,12,6,categorization,0,kitchen,SHINEd_sun_abpwyqmlzafvklqo.tif,69,0.0333333333333333,0.0333333333333333,0.0833333333333333,0.75,528112.8958475,528113.4553887,74,528112.9325142,528112.966352,528113.0491878,528113.4611256,528114.2094625,0,0.559541200054809
105,13,6,categorization,0,kitchen,SHINEd_sun_abdxkyyxwfskuaqb.tif,68,0.0333333333333333,0.0333333333333333,0.0833333333333333,0.833333333333333,528114.2154875,528114.8166522,70,528114.2521024,528114.2870495,528114.3690491,528114.8234397,528115.6551108,1,0.601164699997753
105,14,6,categorization,0,kitchen,SHINEd_sun_auticobqsbwgoppi.tif,104,0.0333333333333333,0.0333333333333333,0.0833333333333333,0.95,528115.6613428,528116.2805007,70,528115.6979314,528115.7335903,528115.8147811,528116.2864338,528117.2347711,1,0.619157899986021
105,15,6,categorization,0,bathroom,SHINEd_sun_ammzpemadwrjdfzl.tif,37,0.0333333333333333,0.0333333333333333,0.0833333333333333,1.71666666666667,528117.242594,528117.83568,74,528117.2795336,528117.3133391,528117.3959155,528117.8423223,528119.5573258,1,0.593086000066251
105,16,6,categorization,0,bathroom,SHINEd_sun_ahqjwnzgolcaoidx.tif,29,0.0333333333333333,0.0333333333333333,0.0833333333333333,1.85,528119.5635027,528120.5113734,74,528119.6022596,528119.6343477,528119.717605,528120.5182858,528122.3666224,1,0.947870700038038
105,17,6,categorization,0,bathroom,SHINEd_sun_alkosphxlxwjwgjd.tif,35,0.0333333333333333,0.0333333333333333,0.0833333333333333,1.36666666666667,528122.3730758,528123.2419154,74,528122.410045,528122.443765,528122.5266563,528123.2479369,528124.6129538,1,0.86883960000705
105,18,6,categorization,0,kitchen,SHINEd_sun_abrcnpqqhmjwekyf.tif,70,0.0333333333333333,0.0333333333333333,0.0833333333333333,1.41666666666667,528124.6196088,528126.2273074,70,528124.6563765,528124.6908013,528124.772913,528126.2336574,528127.6486611,1,1.60769859992433
105,19,6,categorization,0,kitchen,SHINEd_sun_anbcmfjhobvmedkq.tif,100,0.0333333333333333,0.0333333333333333,0.0833333333333333,1.86666666666667,528127.6545349,528128.4237759,70,528127.6919495,528127.7254049,528127.8076289,528128.4308973,528130.2959011,1,0.769241000059992
105,20,6,categorization,0,bathroom,SHINEd_sun_axbqssteryzzlcop.tif,57,0.0333333333333333,0.0333333333333333,0.0833333333333333,1.4,528130.3019229,528130.8885811,74,528130.3394201,528130.3729598,528130.4555392,528130.8952833,528132.2936226,1,0.586658200016245
105,21,6,categorization,0,kitchen,SHINEd_sun_alpduwskzkgbcfui.tif,98,0.0333333333333333,0.0333333333333333,0.0833333333333333,1.46666666666667,528132.299627,528132.9452755,70,528132.3368035,528132.3719987,528132.4529797,528132.9521266,528134.4171303,1,0.645648499950767
105,22,6,categorization,0,kitchen,SHINEd_sun_aypmqwcualkenuoe.tif,110,0.0333333333333333,0.0333333333333333,0.0833333333333333,1,528134.4231469,528135.0267966,70,528134.460181,528134.4944544,528134.5764255,528135.0329185,528136.0312555,1,0.603649699944071
105,23,6,categorization,0,kitchen,SHINEd_sun_awcpdzzznmweyyhv.tif,107,0.0333333333333333,0.0333333333333333,0.0833333333333333,1.11666666666667,528136.0385854,528136.6834667,70,528136.0754122,528136.1095937,528136.1921728,528136.6909449,528137.8059505,1,0.644881300046109
105,24,6,categorization,0,kitchen,SHINEd_sun_alpduwskzkgbcfui.tif,98,0.0333333333333333,0.0333333333333333,0.0833333333333333,1.36666666666667,528137.8118092,528138.3677858,70,528137.8484444,528137.8823457,528137.9653335,528138.3740405,528139.7390458,1,0.555976600036956
105,25,6,categorization,0,kitchen,SHINEd_sun_agfmsmojwptjoava.tif,82,0.0333333333333333,0.0333333333333333,0.0833333333333333,1.23333333333333,528139.7454022,528141.2281855,70,528139.782055,528139.8158807,528139.8987729,528141.2352101,528142.4668805,1,1.4827832999872
105,26,6,categorization,0,bathroom,SHINEd_sun_afcoljnjfoxjtgja.tif,24,0.0333333333333333,0.0333333333333333,0.0833333333333333,1.71666666666667,528142.4735352,528143.3536268,70,528142.5103787,528142.5441716,528142.6269265,528143.3604492,528145.0754544,0,0.880091600003652
105,27,6,categorization,0,kitchen,SHINEd_sun_acwjdupvyjsugpay.tif,73,0.0333333333333333,0.0333333333333333,0.0833333333333333,1.08333333333333,528145.0819796,528145.788111,70,528145.1186851,528145.1528944,528145.2355828,528145.7939962,528146.8756682,1,0.706131399958394
105,28,6,categorization,0,bathroom,SHINEd_sun_aoybiabnpadelefl.tif,43,0.0333333333333333,0.0333333333333333,0.0833333333333333,1.96666666666667,528146.8831634,528147.7020859,74,528146.9215332,528146.9536157,528147.037082,528147.7079653,528149.6729697,1,0.818922500009649
105,29,6,categorization,0,kitchen,SHINEd_sun_ataniphupyuxeowc.tif,102,0.0333333333333333,0.0333333333333333,0.0833333333333333,0.783333333333333,528149.679789,528150.5618389,70,528149.7165458,528149.7505404,528149.8331511,528150.5686852,528151.3503565,1,0.882049900013953
105,30,6,categorization,0,bathroom,SHINEd_sun_aavhrsfjbserjtht.tif,15,0.0333333333333333,0.0333333333333333,0.0833333333333333,0.866666666666667,528151.3567564,528152.0864922,74,528151.3935588,528151.42716,528151.510104,528152.0929176,528152.9579229,1,0.7297358000651
105,31,6,categorization,0,kitchen,SHINEd_sun_aexklacwqwezaorf.tif,81,0.0333333333333333,0.0333333333333333,0.0833333333333333,1.51666666666667,528152.9656727,528153.6580421,70,528153.0028876,528153.0361742,528153.1193288,528153.6652802,528155.1802843,1,0.692369400057942
105,32,6,categorization,0,bathroom,SHINEd_sun_apeeialkgkuxddgh.tif,44,0.0333333333333333,0.0333333333333333,0.0833333333333333,0.716666666666667,528155.1862814,528155.6963066,74,528155.223308,528155.2573157,528155.3403563,528155.7020649,528156.4170685,1,0.510025199968368
105,33,6,categorization,0,kitchen,SHINEd_sun_abdenxonkemggwsq.tif,67,0.0333333333333333,0.0333333333333333,0.0833333333333333,1.96666666666667,528156.4225145,528157.1138589,70,528156.4590096,528156.4928627,528156.5760188,528157.1193066,528159.0843115,1,0.691344400052913
105,34,6,categorization,0,kitchen,SHINEd_sun_aaofphpvkeqlhwgu.tif,64,0.0333333333333333,0.0333333333333333,0.0833333333333333,0.766666666666667,528159.0908316,528159.7161463,70,528159.1281434,528159.1614222,528159.2442039,528159.7224707,528160.4874756,1,0.625314699951559
105,35,6,categorization,0,bathroom,SHINEd_sun_acgyywnybuveqsro.tif,19,0.0333333333333333,0.0333333333333333,0.0833333333333333,0.883333333333333,528160.4932379,528161.172068,74,528160.5305363,528160.56458,528160.6466651,528161.1786875,528162.0603585,1,0.678830099990591
105,36,6,categorization,0,kitchen,SHINEd_sun_aqeaevwwwjoqhzvl.tif,101,0.0333333333333333,0.0333333333333333,0.0833333333333333,0.733333333333333,528162.0660735,528162.712161,74,528162.1039599,528162.1365419,528162.2194681,528162.7184463,528163.4501184,0,0.6460875000339
105,37,6,categorization,0,bathroom,SHINEd_sun_apeeialkgkuxddgh.tif,44,0.0333333333333333,0.0333333333333333,0.0833333333333333,0.916666666666667,528163.4560197,528164.1733816,74,528163.4925591,528163.5264981,528163.6093377,528164.1795833,528165.0945868,1,0.717361899907701
105,38,6,categorization,0,kitchen,SHINEd_sun_abdenxonkemggwsq.tif,67,0.0333333333333333,0.0333333333333333,0.0833333333333333,0.733333333333333,528165.1006411,528165.7765497,70,528165.1374263,528165.1712688,528165.2540444,528165.7825786,528166.514249,1,0.675908599980175
105,39,6,categorization,0,bathroom,SHINEd_sun_abeymlrfgckenfyk.tif,16,0.0333333333333333,0.0333333333333333,0.0833333333333333,1.01666666666667,528166.5203176,528167.4044834,74,528166.5569775,528166.5910782,528166.674236,528167.4110139,528168.4260184,1,0.884165800060146
105,40,6,categorization,0,kitchen,SHINEd_sun_adgqasybjyktddhj.tif,75,0.0333333333333333,0.0333333333333333,0.0833333333333333,1.7,528168.4316907,528169.0302283,70,528168.4685,528168.5023221,528168.5851811,528169.035362,528170.7337004,1,0.598537600017153
105,41,6,categorization,0,kitchen,SHINEd_sun_aegoxogugdkwpmpj.tif,77,0.0333333333333333,0.0333333333333333,0.0833333333333333,0.983333333333333,528170.7410094,528171.2602389,70,528170.7781456,528170.811842,528170.894443,528171.2672863,528172.2489579,1,0.519229499972425
105,42,6,categorization,0,bathroom,SHINEd_sun_anltpptcpfdrhlks.tif,41,0.0333333333333333,0.0333333333333333,0.0833333333333333,1.98333333333333,528172.2559213,528172.8719301,74,528172.2925538,528172.326439,528172.4093395,528172.8781983,528174.8598688,1,0.616008799988776
105,43,6,categorization,0,kitchen,SHINEd_sun_avszsnwsbuqfgzbn.tif,105,0.0333333333333333,0.0333333333333333,0.0833333333333333,1.13333333333333,528174.8660433,528175.3762217,70,528174.9029992,528174.9369666,528175.019638,528175.3822988,528176.51397,1,0.510178399970755
105,44,6,categorization,0,bathroom,SHINEd_sun_apeeialkgkuxddgh.tif,44,0.0333333333333333,0.0333333333333333,0.0833333333333333,1.05,528176.5200734,528177.108334,74,528176.5567458,528176.5906371,528176.6734516,528177.1156647,528178.1640021,1,0.588260599994101
105,45,6,categorization,0,kitchen,SHINEd_sun_ataniphupyuxeowc.tif,102,0.0333333333333333,0.0333333333333333,0.0833333333333333,1.23333333333333,528178.1715656,528178.6752584,70,528178.2082036,528178.2423214,528178.3251275,528178.6820822,528179.9137528,1,0.503692800062709
105,46,6,categorization,0,bathroom,SHINEd_sun_aiskgiwswewisvph.tif,30,0.0333333333333333,0.0333333333333333,0.0833333333333333,1.66666666666667,528179.9202716,528180.4564416,70,528179.9572585,528179.9912226,528180.0736015,528180.4627892,528182.1277942,0,0.536169999977574
105,47,6,categorization,0,kitchen,SHINEd_sun_aapllqyqlykszopd.tif,65,0.0333333333333333,0.0333333333333333,0.0833333333333333,0.95,528182.1338493,528182.6947371,70,528182.1713281,528182.2048364,528182.2885568,528182.7017236,528183.650061,1,0.560887800063938
105,48,6,categorization,0,kitchen,SHINEd_sun_aggjlwcdjsjcaemh.tif,83,0.0333333333333333,0.0333333333333333,0.0833333333333333,0.783333333333333,528183.6562697,528184.2238741,70,528183.6928975,528183.7267574,528183.8097391,528184.2303739,528185.012045,1,0.567604399984702
105,49,6,categorization,0,bathroom,SHINEd_sun_avhrdrntsqrjzccq.tif,55,0.0333333333333333,0.0333333333333333,0.0833333333333333,0.816666666666667,528185.0191187,528185.6417383,74,528185.0552889,528185.089323,528185.1725189,528185.6489221,528186.4639256,1,0.62261960003525
105,50,6,categorization,0,bathroom,SHINEd_sun_aclfzgynxzxlbepz.tif,20,0.0333333333333333,0.0333333333333333,0.0833333333333333,1.38333333333333,528186.4698961,528186.9849276,74,528186.5071235,528186.5406385,528186.6233449,528186.9915585,528188.3732295,1,0.515031500020996
105,1,7,categorization,0,bathroom,SHINEd_sun_aovflwamhlwzwvxs.tif,42,0.0333333333333333,0.0333333333333333,0.0833333333333333,0.966666666666667,528193.8717772,528194.4715174,74,528193.9084329,528193.9424396,528194.0259175,528194.4777351,528195.4427384,1,0.599740199977532
105,2,7,categorization,0,bathroom,SHINEd_sun_apkxzenqapsujocq.tif,45,0.0333333333333333,0.0333333333333333,0.0833333333333333,1.26666666666667,528195.4484482,528196.0147165,74,528195.4848751,528195.5187822,528195.6012514,528196.0199126,528197.2849164,1,0.566268299939111
105,3,7,categorization,0,kitchen,SHINEd_sun_aggjlwcdjsjcaemh.tif,83,0.0333333333333333,0.0333333333333333,0.0833333333333333,0.933333333333333,528197.2918076,528197.9357138,70,528197.3280509,528197.3622377,528197.444972,528197.9426735,528198.874343,1,0.643906200071797
105,4,7,categorization,0,kitchen,SHINEd_sun_aegoxogugdkwpmpj.tif,77,0.0333333333333333,0.0333333333333333,0.0833333333333333,0.7,528198.8798237,528199.4843006,70,528198.9158674,528198.95005,528199.0321112,528199.4888555,528200.1871928,1,0.604476900072768
105,5,7,categorization,0,kitchen,SHINEd_sun_abpwyqmlzafvklqo.tif,69,0.0333333333333333,0.0333333333333333,0.0833333333333333,1.96666666666667,528200.1909546,528200.850687,70,528200.2258997,528200.259439,528200.3424876,528200.8555268,528202.82053,1,0.659732399974018
105,6,7,categorization,0,bathroom,SHINEd_sun_apynckhmoftszqoq.tif,46,0.0333333333333333,0.0333333333333333,0.0833333333333333,1.65,528202.8266038,528203.4302684,74,528202.8649496,528202.8972512,528202.9799544,528203.4364762,528205.084814,1,0.603664600057527
105,7,7,categorization,0,kitchen,SHINEd_sun_admlmbcdswaszruo.tif,76,0.0333333333333333,0.0333333333333333,0.0833333333333333,1.6,528205.0910355,528205.6795095,70,528205.1283035,528205.1615877,528205.2443571,528205.6855092,528207.2838477,1,0.588473999989219
105,8,7,categorization,0,kitchen,SHINEd_sun_ahywdevtimnqcsln.tif,92,0.0333333333333333,0.0333333333333333,0.0833333333333333,1.5,528207.2907658,528207.8053084,70,528207.3282542,528207.3615463,528207.4443408,528207.8110965,528209.3094335,1,0.514542599907145
105,9,7,categorization,0,kitchen,SHINEd_sun_abpwyqmlzafvklqo.tif,69,0.0333333333333333,0.0333333333333333,0.0833333333333333,0.883333333333333,528209.3168171,528209.8848719,70,528209.3541594,528209.3890464,528209.4706287,528209.8915869,528210.773257,1,0.568054799921811
105,10,7,categorization,0,bathroom,SHINEd_sun_axxbkopsgyouuebh.tif,58,0.0333333333333333,0.0333333333333333,0.0833333333333333,1.25,528210.7791181,528211.3031665,70,528210.8155724,528210.849421,528210.9321079,528211.3098497,528212.5581868,0,0.524048399995081
105,11,7,categorization,0,bathroom,SHINEd_sun_abeymlrfgckenfyk.tif,16,0.0333333333333333,0.0333333333333333,0.0833333333333333,1.23333333333333,528212.5642889,528213.1794217,74,528212.6010428,528212.63552,528212.7179054,528213.1857779,528214.4174478,1,0.615132799954154
105,12,7,categorization,0,kitchen,SHINEd_sun_awcpdzzznmweyyhv.tif,107,0.0333333333333333,0.0333333333333333,0.0833333333333333,1.56666666666667,528214.4241106,528215.0623871,70,528214.4611654,528214.4944135,528214.5773761,528215.0689792,528216.633984,1,0.638276499928907
105,13,7,categorization,0,kitchen,SHINEd_sun_ahdycvpopffkzzsu.tif,88,0.0333333333333333,0.0333333333333333,0.0833333333333333,1.68333333333333,528216.6398464,528217.3525536,70,528216.6767051,528216.7121246,528216.7934343,528217.3588475,528219.040518,1,0.712707199971192
105,14,7,categorization,0,kitchen,SHINEd_sun_ahywdevtimnqcsln.tif,92,0.0333333333333333,0.0333333333333333,0.0833333333333333,0.833333333333333,528219.0466284,528219.7039242,70,528219.0833673,528219.1176197,528219.201552,528219.710442,528220.5421126,1,0.657295800046995
105,15,7,categorization,0,kitchen,SHINEd_sun_alpduwskzkgbcfui.tif,98,0.0333333333333333,0.0333333333333333,0.0833333333333333,1.05,528220.5486018,528221.1848093,70,528220.5855463,528220.6204667,528220.7021168,528221.190333,528222.2386707,1,0.636207500007004
105,16,7,categorization,0,kitchen,SHINEd_sun_alpduwskzkgbcfui.tif,98,0.0333333333333333,0.0333333333333333,0.0833333333333333,0.766666666666667,528222.2454892,528222.8143361,70,528222.2818943,528222.3158129,528222.3987237,528222.8201341,528223.5851393,1,0.568846900016069
105,17,7,categorization,0,bathroom,SHINEd_sun_azqyogdvyhahyram.tif,60,0.0333333333333333,0.0333333333333333,0.0833333333333333,1.18333333333333,528223.5910912,528224.2394485,74,528223.6283319,528223.661638,528223.7446336,528224.2467695,528225.4284397,1,0.648357299971394
105,18,7,categorization,0,bathroom,SHINEd_sun_aapitsgbtktqubfy.tif,14,0.0333333333333333,0.0333333333333333,0.0833333333333333,0.766666666666667,528225.4342679,528226.0497416,74,528225.471322,528225.505305,528225.5874957,528226.0561464,528226.8211503,1,0.615473700105213
105,19,7,categorization,0,kitchen,SHINEd_sun_ajcbwwvdlsvjyzje.tif,94,0.0333333333333333,0.0333333333333333,0.0833333333333333,1.43333333333333,528226.8270225,528227.5679214,70,528226.8648355,528226.8981123,528226.9801545,528227.5744567,528229.0061292,1,0.740898899966851
105,20,7,categorization,0,kitchen,SHINEd_sun_aadbddgrdsjugojn.tif,62,0.0333333333333333,0.0333333333333333,0.0833333333333333,1.2,528229.0124345,528229.5548077,70,528229.0493247,528229.083209,528229.1657948,528229.561265,528230.7596026,1,0.542373199947178
105,21,7,categorization,0,kitchen,SHINEd_sun_agorklincwxrdtga.tif,85,0.0333333333333333,0.0333333333333333,0.0833333333333333,1.18333333333333,528230.7654987,528231.2597576,70,528230.8021556,528230.83604,528230.9188529,528231.2665894,528232.4482591,1,0.494258900056593
105,22,7,categorization,0,kitchen,SHINEd_sun_amjjdeyrggfqgmom.tif,99,0.0333333333333333,0.0333333333333333,0.0833333333333333,1.9,528232.4541283,528233.366497,70,528232.4909821,528232.525805,528232.6070267,528233.3727842,528235.2711221,1,0.912368700024672
105,23,7,categorization,0,bathroom,SHINEd_sun_aclfzgynxzxlbepz.tif,20,0.0333333333333333,0.0333333333333333,0.0833333333333333,1.4,528235.2775091,528235.8618244,74,528235.3144766,528235.34857,528235.4311051,528235.8685682,528237.2669048,1,0.584315299987793
105,24,7,categorization,0,bathroom,SHINEd_labelme_sfxiulhjbhlyiyt.tif,11,0.0333333333333333,0.0333333333333333,0.0833333333333333,1.05,528237.2729987,528237.9753652,74,528237.3114739,528237.343917,528237.4265581,528237.9812355,528239.0295719,1,0.702366499928758
105,25,7,categorization,0,kitchen,SHINEd_sun_ataniphupyuxeowc.tif,102,0.0333333333333333,0.0333333333333333,0.0833333333333333,1.2,528239.0361423,528239.8303923,70,528239.0728649,528239.1070374,528239.1897843,528239.8366432,528241.0349814,1,0.79425000003539
105,26,7,categorization,0,kitchen,SHINEd_sun_aggjlwcdjsjcaemh.tif,83,0.0333333333333333,0.0333333333333333,0.0833333333333333,1.26666666666667,528241.0409068,528241.6436676,70,528241.0789985,528241.1119835,528241.1942895,528241.6495546,528242.9145838,1,0.602760800044052
105,27,7,categorization,0,bathroom,SHINEd_sun_asfwthctfqerjvxr.tif,49,0.0333333333333333,0.0333333333333333,0.0833333333333333,1.13333333333333,528242.9211344,528243.604941,74,528242.9591245,528242.9918927,528243.0745357,528243.6109183,528244.7425881,1,0.683806600049138
105,28,7,categorization,0,bathroom,SHINEd_sun_afcoljnjfoxjtgja.tif,24,0.0333333333333333,0.0333333333333333,0.0833333333333333,0.916666666666667,528244.7487354,528245.4399196,74,528244.7855436,528244.8194687,528244.9020292,528245.4458656,528246.3608701,1,0.691184199997224
105,29,7,categorization,0,kitchen,SHINEd_sun_agorklincwxrdtga.tif,85,0.0333333333333333,0.0333333333333333,0.0833333333333333,0.716666666666667,528246.3662802,528247.0241891,70,528246.4025741,528246.4366182,528246.5193788,528247.0301529,528247.7451573,1,0.657908900058828
105,30,7,categorization,0,bathroom,SHINEd_sun_aljolscmmzydegqp.tif,34,0.0333333333333333,0.0333333333333333,0.0833333333333333,1.35,528247.7507029,528248.6104641,70,528247.786987,528247.8211048,528247.9035715,528248.6152833,528249.9636223,0,0.859761200030334
105,31,7,categorization,0,kitchen,SHINEd_sun_aypmqwcualkenuoe.tif,110,0.0333333333333333,0.0333333333333333,0.0833333333333333,1.73333333333333,528249.9697461,528250.6613123,70,528250.0066996,528250.0404527,528250.1236226,528250.667032,528252.398703,1,0.691566199995577
105,32,7,categorization,0,kitchen,SHINEd_sun_auticobqsbwgoppi.tif,104,0.0333333333333333,0.0333333333333333,0.0833333333333333,1.18333333333333,528252.404694,528252.99423,70,528252.4416726,528252.4757044,528252.5584838,528253.0001512,528254.1818214,1,0.589535999926738
105,33,7,categorization,0,kitchen,SHINEd_sun_anbcmfjhobvmedkq.tif,100,0.0333333333333333,0.0333333333333333,0.0833333333333333,0.966666666666667,528254.189054,528254.9422082,70,528254.2257045,528254.259438,528254.3422796,528254.9483898,528255.9133943,1,0.753154200036079
105,34,7,categorization,0,kitchen,SHINEd_sun_aglwoufpxbtxqecp.tif,84,0.0333333333333333,0.0333333333333333,0.0833333333333333,1.61666666666667,528255.9187512,528256.5150566,70,528255.9550033,528255.9888061,528256.0719772,528256.5210871,528258.1360921,1,0.596305400016718
105,35,7,categorization,0,bathroom,SHINEd_sun_ajlpekbqvytdohqb.tif,31,0.0333333333333333,0.0333333333333333,0.0833333333333333,1.03333333333333,528258.1424538,528258.729564,74,528258.1795203,528258.2131183,528258.2957337,528258.7359024,528259.7675728,1,0.587110200081952
105,36,7,categorization,0,bathroom,SHINEd_sun_ahcvzmoyaycdoftf.tif,28,0.0333333333333333,0.0333333333333333,0.0833333333333333,1.15,528259.7748914,528260.4205976,74,528259.811933,528259.8455268,528259.9283877,528260.4270322,528261.5753691,1,0.645706200040877
105,37,7,categorization,0,kitchen,SHINEd_sun_acfmftudsenhrfhy.tif,72,0.0333333333333333,0.0333333333333333,0.0833333333333333,0.783333333333333,528261.5810359,528262.2566826,70,528261.6176349,528261.6512523,528261.7341398,528262.2626869,528263.0443567,1,0.675646699965
105,38,7,categorization,0,bathroom,SHINEd_sun_asfwthctfqerjvxr.tif,49,0.0333333333333333,0.0333333333333333,0.0833333333333333,1.86666666666667,528263.0510861,528263.8083594,74,528263.0889428,528263.1214732,528263.204224,528263.8156565,528265.6806611,1,0.757273299968801
105,39,7,categorization,0,kitchen,SHINEd_sun_abdxkyyxwfskuaqb.tif,68,0.0333333333333333,0.0333333333333333,0.0833333333333333,1.15,528265.6870789,528266.5099998,74,528265.7245188,528265.7576761,528265.841881,528266.5162965,528267.6646339,0,0.822920899954624
105,40,7,categorization,0,bathroom,SHINEd_sun_axbqssteryzzlcop.tif,57,0.0333333333333333,0.0333333333333333,0.0833333333333333,0.7,528267.6705237,528268.3419317,74,528267.708612,528267.7417234,528267.8248267,528268.3499464,528269.0482836,1,0.671408000052907
105,41,7,categorization,0,kitchen,SHINEd_sun_agfmsmojwptjoava.tif,82,0.0333333333333333,0.0333333333333333,0.0833333333333333,1.25,528269.0541554,528269.7625743,70,528269.090998,528269.1248326,528269.2078876,528269.7681588,528271.0164955,1,0.708418900030665
105,42,7,categorization,0,kitchen,SHINEd_sun_abpwyqmlzafvklqo.tif,69,0.0333333333333333,0.0333333333333333,0.0833333333333333,1.56666666666667,528271.0223509,528271.7236396,70,528271.0597022,528271.0931428,528271.1757955,528271.7297288,528273.2947326,1,0.701288699987344
105,43,7,categorization,0,kitchen,SHINEd_sun_acwjdupvyjsugpay.tif,73,0.0333333333333333,0.0333333333333333,0.0833333333333333,0.866666666666667,528273.3007706,528273.8605761,74,528273.3377537,528273.37175,528273.4544732,528273.8674516,528274.7324562,0,0.559805499971844
105,44,7,categorization,0,bathroom,SHINEd_sun_amzlamotzwfkwjco.tif,38,0.0333333333333333,0.0333333333333333,0.0833333333333333,1.01666666666667,528274.738188,528275.4403339,74,528274.7748329,528274.8086698,528274.8920644,528275.4468519,528276.4618555,1,0.70214589999523
105,45,7,categorization,0,bathroom,SHINEd_sun_awnqiikzaispgmwo.tif,56,0.0333333333333333,0.0333333333333333,0.0833333333333333,0.766666666666667,528276.4681223,528277.2066953,74,528276.5043679,528276.5387437,528276.6214029,528277.2127626,528277.9777669,1,0.73857299995143
105,46,7,categorization,0,bathroom,SHINEd_sun_amzlamotzwfkwjco.tif,38,0.0333333333333333,0.0333333333333333,0.0833333333333333,1.46666666666667,528277.9835899,528278.6083813,74,528278.0214708,528278.0541586,528278.1368374,528278.6142058,528280.0792093,1,0.624791400041431
105,47,7,categorization,0,kitchen,SHINEd_sun_aamedkxepzlwuxes.tif,63,0.0333333333333333,0.0333333333333333,0.0833333333333333,1.23333333333333,528280.0852876,528280.7744337,70,528280.1238342,528280.1560928,528280.2387624,528280.781275,528282.012947,1,0.689146099961363
105,48,7,categorization,0,bathroom,SHINEd_sun_atstyziqcmkahyxk.tif,51,0.0333333333333333,0.0333333333333333,0.0833333333333333,0.783333333333333,528282.0192997,528282.6435048,74,528282.0560489,528282.0901899,528282.1728348,528282.6496493,528283.4313215,1,0.624205100000836
105,49,7,categorization,0,kitchen,SHINEd_sun_avszsnwsbuqfgzbn.tif,105,0.0333333333333333,0.0333333333333333,0.0833333333333333,1.16666666666667,528283.4372496,528284.0864644,70,528283.4738376,528283.5078864,528283.5905554,528284.0931487,528285.2581544,1,0.64921480009798
105,50,7,categorization,0,bathroom,SHINEd_sun_aovflwamhlwzwvxs.tif,42,0.0333333333333333,0.0333333333333333,0.0833333333333333,1.26666666666667,528285.264164,528285.8039764,74,528285.3006884,528285.3360233,528285.4172187,528285.8087566,528287.0737598,1,0.539812400005758
105,1,8,categorization,0,kitchen,SHINEd_sun_acfluyeqiftljamq.tif,71,0.0333333333333333,0.0333333333333333,0.0833333333333333,1.41666666666667,528293.0878052,528293.8458931,74,528293.1244722,528293.1586174,528293.241353,528293.8518346,528295.2668381,0,0.758087900001556
105,2,8,categorization,0,bathroom,SHINEd_sun_apynckhmoftszqoq.tif,46,0.0333333333333333,0.0333333333333333,0.0833333333333333,1.21666666666667,528295.2729371,528295.8997045,74,528295.3096686,528295.3438044,528295.4265005,528295.906029,528297.1210323,1,0.626767399953678
105,3,8,categorization,0,bathroom,SHINEd_labelme_sfxiulhjbhlyiyt.tif,11,0.0333333333333333,0.0333333333333333,0.0833333333333333,1.9,528297.1266823,528297.726173,74,528297.1644649,528297.1969977,528297.2798221,528297.7325088,528299.6308451,1,0.599490699940361
105,4,8,categorization,0,kitchen,SHINEd_sun_aqeaevwwwjoqhzvl.tif,101,0.0333333333333333,0.0333333333333333,0.0833333333333333,1.18333333333333,528299.6374559,528300.6017926,74,528299.6749256,528299.7087419,528299.7912759,528300.6074998,528301.7891708,0,0.964336700038984
105,5,8,categorization,0,bathroom,SHINEd_sun_awnqiikzaispgmwo.tif,56,0.0333333333333333,0.0333333333333333,0.0833333333333333,0.866666666666667,528301.7952617,528302.4178335,70,528301.8320696,528301.8663968,528301.9488412,528302.4244991,528303.2895037,0,0.622571799904108
105,6,8,categorization,0,kitchen,SHINEd_sun_aggjlwcdjsjcaemh.tif,83,0.0333333333333333,0.0333333333333333,0.0833333333333333,0.716666666666667,528303.2968292,528304.0012896,70,528303.3337199,528303.3676823,528303.4507442,528304.0072052,528304.7222091,1,0.704460400040261
105,7,8,categorization,0,kitchen,SHINEd_sun_aqeaevwwwjoqhzvl.tif,101,0.0333333333333333,0.0333333333333333,0.0833333333333333,1.85,528304.727788,528305.5951799,70,528304.7650926,528304.799182,528304.8808119,528305.6023947,528307.4507458,1,0.867391899926588
105,8,8,categorization,0,kitchen,SHINEd_sun_ahvszpwjtodgwusx.tif,91,0.0333333333333333,0.0333333333333333,0.0833333333333333,1.75,528307.4573239,528308.1118101,70,528307.49418,528307.5279652,528307.6107001,528308.1180981,528309.8664367,1,0.654486200073734
105,9,8,categorization,0,bathroom,SHINEd_sun_amzlamotzwfkwjco.tif,38,0.0333333333333333,0.0333333333333333,0.0833333333333333,1.26666666666667,528309.872827,528310.539478,70,528309.9095045,528309.9435928,528310.0263302,528310.5465448,528311.8115505,0,0.666651000035927
105,10,8,categorization,0,bathroom,SHINEd_sun_atstyziqcmkahyxk.tif,51,0.0333333333333333,0.0333333333333333,0.0833333333333333,1.18333333333333,528311.8173225,528312.430229,74,528311.8544318,528311.8879703,528311.9707595,528312.436761,528313.6184314,1,0.612906499998644
105,11,8,categorization,0,bathroom,SHINEd_sun_azqyogdvyhahyram.tif,60,0.0333333333333333,0.0333333333333333,0.0833333333333333,1.33333333333333,528313.6244656,528314.2193492,74,528313.6614004,528313.6955048,528313.7777313,528314.2251561,528315.5568267,1,0.594883600017056
105,12,8,categorization,0,kitchen,SHINEd_sun_ajcbwwvdlsvjyzje.tif,94,0.0333333333333333,0.0333333333333333,0.0833333333333333,1.3,528315.5627753,528316.3234602,74,528315.5996608,528315.6336286,528315.7176336,528316.3310421,528317.62938,0,0.76068489998579
105,13,8,categorization,0,kitchen,SHINEd_sun_aapllqyqlykszopd.tif,65,0.0333333333333333,0.0333333333333333,0.0833333333333333,1.05,528317.6355555,528318.2966952,70,528317.6724964,528317.7064548,528317.790168,528318.3027045,528319.351042,1,0.661139699979685
105,14,8,categorization,0,bathroom,SHINEd_sun_adbqksnwuqqwdpxc.tif,22,0.0333333333333333,0.0333333333333333,0.0833333333333333,1.26666666666667,528319.3573005,528320.0178604,74,528319.3949761,528319.4280335,528319.5110541,528320.0236239,528321.2886287,1,0.660559899988584
