sub_num,trial,block,task,is_practice,category,image,texture,duration,mask_dur,jitter,stim_time,time_of_resp,trial_response,mask_time,fix_time,jit_onset,trial_end,trial_accuracy,RT
109,1,24,categorization,0,kitchen,SHINEd_sun_aqeaevwwwjoqhzvl.tif,101,0.0666666666666667,0.0666666666666667,0.733333333333333,3599.866048041,3601.35744025,9,3599.928476291,3599.988710333,3601.374383583,3602.10105575,1,1.49139220899997
109,2,24,categorization,0,bathroom,SHINEd_sun_agyqfjcfkdcydepw.tif,25,0.0666666666666667,0.0666666666666667,1.26666666666667,3602.105339,3602.741472708,13,3602.167258625,3602.227975833,3602.746351958,3604.00639,1,0.636133707999761
109,3,24,categorization,0,kitchen,SHINEd_sun_aadbddgrdsjugojn.tif,64,0.0666666666666667,0.0666666666666667,0.75,3604.021330125,3604.564708541,13,3604.088163916,3604.154383958,3604.594082333,3605.337464333,0,0.543378415999996
109,4,24,categorization,0,kitchen,SHINEd_sun_avszsnwsbuqfgzbn.tif,105,0.0666666666666667,0.0666666666666667,1.08333333333333,3605.350782833,3605.728046208,9,3605.417323791,3605.483637708,3605.756897125,3606.83360725,1,0.377263374999984
109,5,24,categorization,0,kitchen,SHINEd_sun_aapllqyqlykszopd.tif,66,0.0666666666666667,0.0666666666666667,1.28333333333333,3606.844173166,3607.290918208,13,3606.909220291,3606.975651375,3607.315860333,3608.592573541,0,0.446745042000202
109,6,24,categorization,0,kitchen,SHINEd_labelme_rykdqxenmhulbdn.tif,63,0.0666666666666667,0.0666666666666667,0.9,3608.6101435,3609.03676225,13,3608.67729175,3608.740266666,3609.042817375,3609.936154791,0,0.426618749999761
109,7,24,categorization,0,kitchen,SHINEd_sun_ajkqhtgcbgpcwrwn.tif,97,0.0666666666666667,0.0666666666666667,1.8,3609.9408995,3610.252535333,9,3610.002758416,3610.063619625,3610.265362458,3612.058751625,1,0.31163583300031
109,8,24,categorization,0,bathroom,SHINEd_sun_anryaplzeujmzfkd.tif,39,0.0666666666666667,0.0666666666666667,1.06666666666667,3612.076365958,3612.196825083,9,3612.143145625,3612.209740041,3612.233213083,3613.293253166,0,0.120459124999797
109,9,24,categorization,0,kitchen,SHINEd_sun_aypmqwcualkenuoe.tif,109,0.0666666666666667,0.0666666666666667,0.783333333333333,3613.307898958,3613.428013166,9,3613.372489125,3613.43206925,3613.451033875,3614.22770625,1,0.120114207999904
109,10,24,categorization,0,kitchen,SHINEd_sun_aehawpgmrlhlvcow.tif,81,0.0666666666666667,0.0666666666666667,0.966666666666667,3614.232575791,3614.724710625,9,3614.294248333,3614.355197541,3614.740102166,3615.7001075,1,0.492134834000353
109,11,24,categorization,0,bathroom,SHINEd_sun_aoybiabnpadelefl.tif,41,0.0666666666666667,0.0666666666666667,0.95,3615.705930125,3616.164881875,13,3615.767761166,3615.828612625,3616.180302708,3617.123639708,1,0.458951749999869
109,12,24,categorization,0,bathroom,SHINEd_sun_aghyqhbptboemmoq.tif,23,0.0666666666666667,0.0666666666666667,0.966666666666667,3617.128720583,3617.453096833,9,3617.190354333,3617.251403916,3617.46992475,3618.429928666,0,0.324376250000114
109,13,24,categorization,0,kitchen,SHINEd_sun_agzzivivdpnawacl.tif,89,0.0666666666666667,0.0666666666666667,1.31666666666667,3618.434757208,3618.869091958,13,3618.496427125,3618.557463,3618.876149125,3620.186189708,0,0.434334749999834
109,14,24,categorization,0,kitchen,SHINEd_sun_acwjdupvyjsugpay.tif,76,0.0666666666666667,0.0666666666666667,0.766666666666667,3620.203361625,3620.576231416,13,3620.268731333,3620.336176958,3620.591791041,3621.351834916,0,0.372869791000085
109,15,24,categorization,0,bathroom,SHINEd_sun_ausgutylgojavyoq.tif,53,0.0666666666666667,0.0666666666666667,1.61666666666667,3621.367109541,3621.773296208,13,3621.433463833,3621.499598041,3621.7885915,3623.398624708,1,0.406186666999929
109,16,24,categorization,0,kitchen,SHINEd_sun_aixorpehvfykdynp.tif,95,0.0666666666666667,0.0666666666666667,1.93333333333333,3623.415778,3623.76158275,9,3623.48201875,3623.548345791,3623.788035208,3625.714734833,1,0.345804749999843
109,17,24,categorization,0,bathroom,SHINEd_sun_axyrejkiiaqiurjk.tif,59,0.0666666666666667,0.0666666666666667,0.733333333333333,3625.729593375,3626.07144,9,3625.7965725,3625.862390541,3626.084744458,3626.811434958,0,0.341846625000017
109,18,24,categorization,0,kitchen,SHINEd_sun_aunzlwrbjumxhwdj.tif,103,0.0666666666666667,0.0666666666666667,1.63333333333333,3626.822022916,3627.261119333,13,3626.888616833,3626.954336041,3627.273315083,3628.900023833,0,0.439096416999746
109,19,24,categorization,0,bathroom,SHINEd_sun_acduarbnmmoglmiv.tif,16,0.0666666666666667,0.0666666666666667,1.51666666666667,3628.916188958,3629.196689708,13,3628.982409291,3629.04907075,3629.222182875,3630.732235875,1,0.280500750000101
109,20,24,categorization,0,kitchen,SHINEd_sun_ahljzhgcdpomplvg.tif,91,0.0666666666666667,0.0666666666666667,1.68333333333333,3630.744347375,3631.274335708,9,3630.81030225,3630.877016041,3631.300089083,3632.976808875,1,0.529988332999892
109,21,24,categorization,0,bathroom,SHINEd_sun_aavhrsfjbserjtht.tif,13,0.0666666666666667,0.0666666666666667,1.28333333333333,3632.992147416,3633.588120041,13,3633.058564708,3633.125052041,3633.614871208,3634.891584041,1,0.595972624999831
109,22,24,categorization,0,bathroom,SHINEd_sun_acgyywnybuveqsro.tif,18,0.0666666666666667,0.0666666666666667,0.766666666666667,3634.908287791,3635.266646875,13,3634.972487083,3635.040505708,3635.2794645,3636.039522,1,0.358359083999858
109,23,24,categorization,0,kitchen,SHINEd_sun_abpwyqmlzafvklqo.tif,72,0.0666666666666667,0.0666666666666667,1.1,3636.054503291,3637.700774833,9,3636.121679958,3636.1872125,3637.706710416,3638.800085166,1,1.64627154200025
109,24,24,categorization,0,bathroom,SHINEd_sun_apynckhmoftszqoq.tif,47,0.0666666666666667,0.0666666666666667,1.55,3638.811123416,3639.92883,9,3638.8762985,3638.942507416,3639.948729375,3641.492095791,0,1.11770658399973
109,25,24,categorization,0,kitchen,SHINEd_sun_abdxkyyxwfskuaqb.tif,70,0.0666666666666667,0.0666666666666667,1.88333333333333,3641.506834583,3642.726957458,13,3641.573402166,3641.639437541,3642.743839333,3644.620554708,0,1.22012287500002
109,26,24,categorization,0,kitchen,SHINEd_sun_ahspylgoovwmwvgk.tif,93,0.0666666666666667,0.0666666666666667,1.05,3644.64131825,3645.791683333,9,3644.707606166,3644.76999375,3645.809343541,3646.852726791,1,1.150365083
109,27,24,categorization,0,bathroom,SHINEd_sun_aqrpegblszgcoujh.tif,48,0.0666666666666667,0.0666666666666667,0.933333333333333,3646.860205333,3647.648195458,13,3646.925009666,3646.991535458,3647.66382975,3648.590533541,1,0.787990124999851
109,28,24,categorization,0,kitchen,SHINEd_sun_azmutvzbxypaceni.tif,110,0.0666666666666667,0.0666666666666667,1.4,3648.60703925,3649.508692708,13,3648.673343375,3648.738300416,3649.52417575,3650.917557458,0,0.901653458000055
109,29,24,categorization,0,kitchen,SHINEd_sun_admlmbcdswaszruo.tif,79,0.0666666666666667,0.0666666666666667,1.85,3650.935596333,3651.7532595,13,3651.002009708,3651.068120916,3651.774767083,3653.618147458,0,0.817663166999864
109,30,24,categorization,0,kitchen,SHINEd_sun_adgqasybjyktddhj.tif,78,0.0666666666666667,0.0666666666666667,1.2,3653.632898333,3654.174737416,9,3653.699242041,3653.765547375,3654.188243208,3655.381619333,1,0.541839083000013
109,31,24,categorization,0,bathroom,SHINEd_sun_aofnryafpsjimzsb.tif,40,0.0666666666666667,0.0666666666666667,1.33333333333333,3655.395258708,3655.898587625,9,3655.461883083,3655.52810125,3655.917156333,3657.243866291,0,0.50332891700009
109,32,24,categorization,0,kitchen,SHINEd_sun_auaiucuqpdausiva.tif,102,0.0666666666666667,0.0666666666666667,0.8,3657.261313791,3658.508801208,13,3657.324049583,3657.384016708,3658.52002625,3659.313363125,0,1.24748741700023
109,33,24,categorization,0,kitchen,SHINEd_sun_akchetnepxlcxhsu.tif,98,0.0666666666666667,0.0666666666666667,0.7,3659.31780525,3664.00430275,13,3659.379507916,3659.440494708,3664.025921958,3664.719260625,0,4.68649749999986
109,34,24,categorization,0,bathroom,SHINEd_sun_afcoljnjfoxjtgja.tif,20,0.0666666666666667,0.0666666666666667,1.26666666666667,3664.723762666,3666.869138083,13,3664.785521041,3664.846491041,3666.882177208,3668.142216958,1,2.1453754170002
109,35,24,categorization,0,bathroom,SHINEd_sun_acegryoqftbzowsg.tif,17,0.0666666666666667,0.0666666666666667,1.98333333333333,3668.156576833,3668.952882208,9,3668.223182333,3668.288237208,3668.978175375,3670.954895708,0,0.796305374999974
109,36,24,categorization,0,bathroom,SHINEd_sun_ahijqszoswveeyji.tif,28,0.0666666666666667,0.0666666666666667,1.18333333333333,3670.973555916,3671.457985791,13,3671.0396815,3671.1062395,3671.479527791,3672.656250583,1,0.484429874999933
109,37,24,categorization,0,bathroom,SHINEd_sun_aspsyogrekjtfozg.tif,50,0.0666666666666667,0.0666666666666667,0.916666666666667,3672.666722125,3673.20715775,13,3672.733633166,3672.794744291,3673.234491833,3674.144530625,1,0.5404356250001
109,38,24,categorization,0,kitchen,SHINEd_sun_afuyedyxivkhecmu.tif,85,0.0666666666666667,0.0666666666666667,1,3674.160260541,3675.141052958,13,3674.226739583,3674.292997041,3675.145041041,3676.138378708,0,0.980792416999975
109,39,24,categorization,0,bathroom,SHINEd_sun_agrwbmhcpmfuwmsg.tif,24,0.0666666666666667,0.0666666666666667,1.63333333333333,3676.143125916,3677.156497,9,3676.204713916,3676.265892875,3677.167748208,3678.794443,0,1.01337108400003
109,40,24,categorization,0,bathroom,SHINEd_sun_avhrdrntsqrjzccq.tif,55,0.0666666666666667,0.0666666666666667,1.36666666666667,3678.807292625,3679.090227458,13,3678.873943,3678.93962325,3679.112699333,3680.472752833,1,0.282934832999672
109,41,24,categorization,0,bathroom,SHINEd_sun_axldvoqbuvuggfmq.tif,57,0.0666666666666667,0.0666666666666667,1.1,3680.49030025,3680.759181125,9,3680.556910708,3680.623108708,3680.778257166,3681.871634958,0,0.268880874999923
109,42,24,categorization,0,kitchen,SHINEd_sun_abftihopvusyfakt.tif,71,0.0666666666666667,0.0666666666666667,1.43333333333333,3681.890533208,3682.086461125,13,3681.9571535,3682.023323916,3682.11319525,3683.539896208,0,0.195927917000063
109,43,24,categorization,0,bathroom,SHINEd_sun_alkosphxlxwjwgjd.tif,34,0.0666666666666667,0.0666666666666667,0.883333333333333,3683.557662625,3683.885455875,13,3683.624191041,3683.690287333,3683.913382541,3684.790069875,1,0.327793250000013
109,44,24,categorization,0,kitchen,SHINEd_sun_aarfiyshqohlwkmo.tif,67,0.0666666666666667,0.0666666666666667,1.86666666666667,3684.799913333,3685.119325375,9,3684.866430125,3684.932797833,3685.135992125,3686.996066958,1,0.31941204199984
109,45,24,categorization,0,kitchen,SHINEd_sun_aymvwlarqodbwuoc.tif,108,0.0666666666666667,0.0666666666666667,0.966666666666667,3687.010999875,3688.357134708,9,3687.07779975,3687.14394425,3688.363354708,3689.323359541,1,1.34613483300018
109,46,24,categorization,0,bathroom,SHINEd_sun_ahcvzmoyaycdoftf.tif,27,0.0666666666666667,0.0666666666666667,1.86666666666667,3689.328221125,3689.692366583,9,3689.390033458,3689.450883041,3689.702624833,3691.562677708,0,0.364145458000166
109,47,24,categorization,0,bathroom,SHINEd_sun_asfwthctfqerjvxr.tif,49,0.0666666666666667,0.0666666666666667,1.33333333333333,3691.580259791,3691.933433291,13,3691.647056291,3691.713468583,3691.953141916,3693.279841375,1,0.353173499999684
109,48,24,categorization,0,kitchen,SHINEd_labelme_brsyyvweiuaazfr.tif,61,0.0666666666666667,0.0666666666666667,0.766666666666667,3693.297145333,3693.657156375,9,3693.364009375,3693.4299925,3693.68646625,3694.446518,1,0.360011041999769
109,49,24,categorization,0,bathroom,SHINEd_sun_akiytfaagpdsphgz.tif,31,0.0666666666666667,0.0666666666666667,1,3694.460551083,3694.860950041,13,3694.526790333,3694.593230166,3694.882989125,3695.876327958,1,0.400398957999641
109,50,24,categorization,0,bathroom,SHINEd_sun_aapitsgbtktqubfy.tif,12,0.0666666666666667,0.0666666666666667,0.716666666666667,3695.881203125,3696.284379625,13,3695.942847833,3696.003912166,3696.288890208,3696.998895333,1,0.403176499999972
