sub_num,trial,block,task,is_practice,category,image,texture,duration,mask_dur,jitter,stim_time,time_of_resp,trial_response,mask_time,fix_time,jit_onset,trial_end,trial_accuracy,RT
109,1,10,categorization,0,bathroom,SHINEd_sun_amzlamotzwfkwjco.tif,37,0.0666666666666667,0.0666666666666667,1.61666666666667,1927.308851458,1928.116349916,13,1927.37144975,1927.431547,1928.133545,1929.743593875,1,0.807498458000055
109,2,10,categorization,0,kitchen,SHINEd_sun_ahdycvpopffkzzsu.tif,90,0.0666666666666667,0.0666666666666667,0.833333333333333,1929.761874625,1930.553906208,9,1929.828154708,1929.894394291,1930.58395175,1931.410623208,1,0.792031582999925
109,3,10,categorization,0,bathroom,SHINEd_sun_alkosphxlxwjwgjd.tif,34,0.0666666666666667,0.0666666666666667,0.916666666666667,1931.415559041,1933.052316833,13,1931.477323291,1931.538114208,1933.056936,1933.96694025,1,1.63675779200003
109,4,10,categorization,0,kitchen,SHINEd_sun_avszsnwsbuqfgzbn.tif,105,0.0666666666666667,0.0666666666666667,1.58333333333333,1933.971642125,1934.3239445,9,1934.033271416,1934.094543458,1934.329746291,1935.906456708,1,0.352302374999908
109,5,10,categorization,0,kitchen,SHINEd_sun_acwjdupvyjsugpay.tif,76,0.0666666666666667,0.0666666666666667,1.38333333333333,1935.924715708,1936.266097458,13,1935.991340625,1936.057131375,1936.279037458,1937.655752791,0,0.34138175000021
109,6,10,categorization,0,kitchen,SHINEd_sun_aaxxjlsuzvqlgylf.tif,68,0.0666666666666667,0.0666666666666667,1.53333333333333,1937.670652833,1937.791060166,9,1937.735980416,1937.804075166,1937.826744,1939.353458166,1,0.120407333000003
109,7,10,categorization,0,bathroom,SHINEd_sun_abjtwfukuwddzted.tif,15,0.0666666666666667,0.0666666666666667,0.833333333333333,1939.370939208,1939.620295333,13,1939.43754675,1939.5036525,1939.639290291,1940.465962625,1,0.249356125000077
109,8,10,categorization,0,kitchen,SHINEd_sun_ahljzhgcdpomplvg.tif,91,0.0666666666666667,0.0666666666666667,1.88333333333333,1940.470145791,1940.844020333,9,1940.531794208,1940.592794458,1940.86119625,1942.737884041,1,0.373874541999839
109,9,10,categorization,0,kitchen,SHINEd_sun_awcpdzzznmweyyhv.tif,106,0.0666666666666667,0.0666666666666667,0.833333333333333,1942.748740583,1943.114152708,9,1942.813194666,1942.88154275,1943.13792975,1943.964600875,1,0.365412124999921
109,10,10,categorization,0,bathroom,SHINEd_sun_azqyogdvyhahyram.tif,60,0.0666666666666667,0.0666666666666667,1.4,1943.970052625,1944.428410875,13,1944.031706541,1944.092800666,1944.444644791,1945.838034916,1,0.458358249999947
109,11,10,categorization,0,kitchen,SHINEd_sun_aunzlwrbjumxhwdj.tif,103,0.0666666666666667,0.0666666666666667,0.95,1945.855139583,1946.149831333,9,1945.921860291,1945.987757625,1946.177748458,1947.12113025,1,0.294691750000084
109,12,10,categorization,0,bathroom,SHINEd_sun_aclfzgynxzxlbepz.tif,19,0.0666666666666667,0.0666666666666667,1.16666666666667,1947.137618083,1947.540335875,9,1947.20433325,1947.270228333,1947.556046208,1948.716101125,0,0.402717791999976
109,13,10,categorization,0,kitchen,SHINEd_sun_aqeaevwwwjoqhzvl.tif,101,0.0666666666666667,0.0666666666666667,1.8,1948.7257025,1949.446619708,13,1948.790394916,1948.8584205,1949.464370625,1951.25775925,0,0.720917208000174
109,14,10,categorization,0,bathroom,SHINEd_sun_akiytfaagpdsphgz.tif,31,0.0666666666666667,0.0666666666666667,1.53333333333333,1951.274705,1951.395128,13,1951.3416195,1951.408257333,1951.431015625,1952.957724,1,0.120423000000073
109,15,10,categorization,0,bathroom,SHINEd_sun_aghyqhbptboemmoq.tif,23,0.0666666666666667,0.0666666666666667,1.48333333333333,1952.975218458,1956.462617583,13,1953.041853833,1953.108007458,1956.478349291,1957.955055833,1,3.48739912500014
109,16,10,categorization,0,bathroom,SHINEd_sun_asfwthctfqerjvxr.tif,49,0.0666666666666667,0.0666666666666667,0.783333333333333,1957.97342625,1959.996139791,9,1958.040073166,1958.106221666,1960.008951791,1960.785621875,0,2.0227135409998
109,17,10,categorization,0,kitchen,SHINEd_sun_abdxkyyxwfskuaqb.tif,70,0.0666666666666667,0.0666666666666667,1.8,1960.790432333,1961.05202025,9,1960.852223833,1960.91315725,1961.06491575,1962.858299041,1,0.261587917000043
109,18,10,categorization,0,kitchen,SHINEd_sun_axyyrmzcupyhlivc.tif,107,0.0666666666666667,0.0666666666666667,1.76666666666667,1962.875756583,1963.299761291,9,1962.942258791,1963.008560958,1963.314243458,1965.074287875,1,0.424004707999984
109,19,10,categorization,0,kitchen,SHINEd_sun_admlmbcdswaszruo.tif,79,0.0666666666666667,0.0666666666666667,1.96666666666667,1965.091535875,1965.21194,13,1965.157810625,1965.22478225,1965.247289541,1967.207347208,0,0.120404124999823
109,20,10,categorization,0,kitchen,SHINEd_sun_aegoxogugdkwpmpj.tif,80,0.0666666666666667,0.0666666666666667,0.783333333333333,1967.22519025,1969.499670208,13,1967.291731,1967.35765625,1969.510470208,1970.287142041,0,2.27447995800003
109,21,10,categorization,0,kitchen,SHINEd_sun_agubuxuukhzyzpdp.tif,88,0.0666666666666667,0.0666666666666667,1.03333333333333,1970.2918965,1971.827819416,13,1970.353678041,1970.414550208,1971.833810958,1972.860528541,0,1.53592291600012
109,22,10,categorization,0,kitchen,SHINEd_sun_abftihopvusyfakt.tif,71,0.0666666666666667,0.0666666666666667,0.916666666666667,1972.871963125,1973.28031125,13,1972.936027625,1973.003187458,1973.310160833,1974.220209333,0,0.408348124999975
109,23,10,categorization,0,kitchen,SHINEd_sun_agzzivivdpnawacl.tif,89,0.0666666666666667,0.0666666666666667,1.66666666666667,1974.23646575,1974.669559375,13,1974.303133875,1974.369183791,1974.692656458,1976.352713625,0,0.433093625000083
109,24,10,categorization,0,bathroom,SHINEd_sun_aljolscmmzydegqp.tif,33,0.0666666666666667,0.0666666666666667,1.76666666666667,1976.368202458,1976.488647416,13,1976.435041083,1976.501395,1976.523922833,1978.283970291,1,0.120444958000007
109,25,10,categorization,0,kitchen,SHINEd_sun_abdenxonkemggwsq.tif,69,0.0666666666666667,0.0666666666666667,1.15,1978.301191916,1979.079147291,13,1978.367727125,1978.434507458,1979.107575125,1980.250948,0,0.77795537499992
109,26,10,categorization,0,kitchen,SHINEd_sun_ahpczsiumwwocjkv.tif,92,0.0666666666666667,0.0666666666666667,0.883333333333333,1980.260345666,1982.048966458,9,1980.326711583,1980.393015041,1982.068276666,1982.944949208,1,1.78862079200007
109,27,10,categorization,0,kitchen,SHINEd_sun_aarfiyshqohlwkmo.tif,67,0.0666666666666667,0.0666666666666667,0.733333333333333,1982.949851416,1983.420129458,13,1983.011638333,1983.072639333,1983.424435958,1984.151106166,0,0.470278042000018
109,28,10,categorization,0,kitchen,SHINEd_sun_ajkqhtgcbgpcwrwn.tif,97,0.0666666666666667,0.0666666666666667,1.71666666666667,1984.155645291,1984.564516875,13,1984.217245625,1984.278253583,1984.580186833,1986.290243083,0,0.408871584000053
109,29,10,categorization,0,bathroom,SHINEd_sun_aleqenyvunhactkl.tif,32,0.0666666666666667,0.0666666666666667,1.86666666666667,1986.308452625,1986.646780375,9,1986.37549675,1986.441612208,1986.664202375,1988.524262041,0,0.338327749999962
109,30,10,categorization,0,bathroom,SHINEd_sun_afcoljnjfoxjtgja.tif,20,0.0666666666666667,0.0666666666666667,1.5,1988.541745833,1988.847302416,13,1988.608217916,1988.674379333,1988.864089208,1990.357453708,1,0.305556582999998
109,31,10,categorization,0,bathroom,SHINEd_sun_anryaplzeujmzfkd.tif,39,0.0666666666666667,0.0666666666666667,1.61666666666667,1990.3726935,1990.628836208,13,1990.43879925,1990.502707583,1990.639919458,1992.249976666,1,0.25614270799997
109,32,10,categorization,0,kitchen,SHINEd_sun_ahywdevtimnqcsln.tif,94,0.0666666666666667,0.0666666666666667,0.95,1992.269441458,1992.550606083,9,1992.335543125,1992.398983708,1992.570967333,1993.51433375,1,0.281164624999974
109,33,10,categorization,0,bathroom,SHINEd_sun_axyrejkiiaqiurjk.tif,59,0.0666666666666667,0.0666666666666667,0.8,1993.534681083,1993.861404333,9,1993.60147825,1993.667318125,1993.890752708,1994.684090666,0,0.326723250000214
109,34,10,categorization,0,kitchen,SHINEd_sun_abrcnpqqhmjwekyf.tif,73,0.0666666666666667,0.0666666666666667,0.783333333333333,1994.688966375,1994.948404291,13,1994.750657666,1994.8118245,1994.963687083,1995.740359291,0,0.259437916000024
109,35,10,categorization,0,bathroom,SHINEd_sun_apmqjbnwghzuhhzh.tif,46,0.0666666666666667,0.0666666666666667,1.36666666666667,1995.744904875,1996.083933208,13,1995.806668458,1995.867635875,1996.102915375,1997.462946791,1,0.339028332999987
109,36,10,categorization,0,bathroom,SHINEd_sun_acgyywnybuveqsro.tif,18,0.0666666666666667,0.0666666666666667,0.816666666666667,1997.480366833,1997.838793333,9,1997.545773333,1997.613521583,1997.85263975,1998.66267225,0,0.35842649999995
109,37,10,categorization,0,kitchen,SHINEd_sun_auaiucuqpdausiva.tif,102,0.0666666666666667,0.0666666666666667,1.81666666666667,1998.67593175,1999.063885291,13,1998.739865375,1998.802974791,1999.092428083,2000.902473541,0,0.387953540999888
109,38,10,categorization,0,bathroom,SHINEd_sun_atstyziqcmkahyxk.tif,51,0.0666666666666667,0.0666666666666667,0.9,2000.920265125,2001.2793035,13,2000.98653225,2001.052924875,2001.309352333,2002.202740833,1,0.359038374999955
109,39,10,categorization,0,bathroom,SHINEd_sun_aoybiabnpadelefl.tif,41,0.0666666666666667,0.0666666666666667,1.48333333333333,2002.210004458,2002.595555375,9,2002.271695625,2002.332716458,2002.601191916,2004.07790775,0,0.385550917000046
109,40,10,categorization,0,kitchen,SHINEd_labelme_kxvouciolcpqplr.tif,62,0.0666666666666667,0.0666666666666667,1.28333333333333,2004.100751333,2004.481724208,13,2004.167665666,2004.233617083,2004.506941208,2005.783644166,0,0.380972874999998
109,41,10,categorization,0,kitchen,SHINEd_sun_adgqasybjyktddhj.tif,78,0.0666666666666667,0.0666666666666667,0.983333333333333,2005.794434833,2006.173915041,13,2005.858930916,2005.926713958,2006.1999495,2007.176655166,0,0.379480208000132
109,42,10,categorization,0,bathroom,SHINEd_sun_awnqiikzaispgmwo.tif,56,0.0666666666666667,0.0666666666666667,1.31666666666667,2007.19340075,2007.528234541,13,2007.259639083,2007.325883958,2007.548770041,2008.858824458,1,0.334833791000165
109,43,10,categorization,0,bathroom,SHINEd_sun_ahaulkltgpkeeemi.tif,26,0.0666666666666667,0.0666666666666667,0.716666666666667,2008.875577375,2010.66746375,13,2008.942039083,2009.007886541,2010.677311708,2011.387316041,1,1.7918863750001
109,44,10,categorization,0,bathroom,SHINEd_sun_ahcvzmoyaycdoftf.tif,27,0.0666666666666667,0.0666666666666667,1.51666666666667,2011.392007708,2011.899870833,9,2011.453810125,2011.514699916,2011.916904291,2013.426949916,0,0.507863125000085
109,45,10,categorization,0,bathroom,SHINEd_sun_axxbkopsgyouuebh.tif,58,0.0666666666666667,0.0666666666666667,0.833333333333333,2013.444900583,2013.765433416,13,2013.511359958,2013.577618625,2013.782124,2014.608829666,1,0.320532833000016
109,46,10,categorization,0,bathroom,SHINEd_sun_apeeialkgkuxddgh.tif,42,0.0666666666666667,0.0666666666666667,1.28333333333333,2014.620264958,2014.944634791,9,2014.686924708,2014.747682708,2014.970940916,2016.247652083,0,0.324369832999992
109,47,10,categorization,0,bathroom,SHINEd_sun_aofnryafpsjimzsb.tif,40,0.0666666666666667,0.0666666666666667,0.783333333333333,2016.265442875,2017.332938166,13,2016.33220975,2016.398407333,2017.354944083,2018.1316165,1,1.06749529100011
109,48,10,categorization,0,kitchen,SHINEd_sun_aehawpgmrlhlvcow.tif,81,0.0666666666666667,0.0666666666666667,1.23333333333333,2018.136935291,2018.603740291,13,2018.198688791,2018.259649916,2018.611643958,2019.838366666,0,0.466804999999795
109,49,10,categorization,0,bathroom,SHINEd_sun_avhrdrntsqrjzccq.tif,55,0.0666666666666667,0.0666666666666667,1.46666666666667,2019.856670791,2019.977131458,9,2019.923498583,2019.99044025,2020.013100958,2021.473132875,0,0.120460667000089
109,50,10,categorization,0,bathroom,SHINEd_sun_alotolagknyrgtsk.tif,35,0.0666666666666667,0.0666666666666667,1.56666666666667,2021.490477625,2023.5638935,13,2021.557109125,2021.622992083,2023.575595,2025.135642791,1,2.07341587499991
