sub_num,trial,block,task,is_practice,category,image,texture,duration,mask_dur,jitter,stim_time,time_of_resp,trial_response,mask_time,fix_time,jit_onset,trial_end,trial_accuracy,RT
109,1,22,categorization,0,bathroom,SHINEd_sun_agguqiubmwhqqunb.tif,22,0.0666666666666667,0.0666666666666667,1.25,3399.671093041,3400.965745375,13,3399.733841333,3399.7938095,3400.979492541,3402.222882291,1,1.29465233400015
109,2,22,categorization,0,kitchen,SHINEd_sun_afuyedyxivkhecmu.tif,85,0.0666666666666667,0.0666666666666667,1.81666666666667,3402.242517583,3402.697782875,9,3402.308542458,3402.375215458,3402.714253875,3404.524311583,1,0.455265292000149
109,3,22,categorization,0,bathroom,SHINEd_sun_avhrdrntsqrjzccq.tif,55,0.0666666666666667,0.0666666666666667,1.38333333333333,3404.543933708,3405.666337958,13,3404.611077875,3404.676942416,3405.684162916,3407.060884583,1,1.12240424999982
109,4,22,categorization,0,kitchen,SHINEd_sun_acwjdupvyjsugpay.tif,76,0.0666666666666667,0.0666666666666667,1.16666666666667,3407.079067791,3407.360933833,13,3407.146189458,3407.212448291,3407.386437083,3408.546495125,0,0.281866042000274
109,5,22,categorization,0,kitchen,SHINEd_labelme_kxvouciolcpqplr.tif,62,0.0666666666666667,0.0666666666666667,1.28333333333333,3408.5643865,3410.222246958,13,3408.631858625,3408.697524083,3410.233709125,3411.5104265,0,1.65786045799996
109,6,22,categorization,0,bathroom,SHINEd_sun_awnqiikzaispgmwo.tif,56,0.0666666666666667,0.0666666666666667,0.716666666666667,3411.529097666,3411.690695791,13,3411.596111916,3411.66154475,3411.718030083,3412.428088625,1,0.161598125000182
109,7,22,categorization,0,bathroom,SHINEd_sun_alotolagknyrgtsk.tif,35,0.0666666666666667,0.0666666666666667,0.75,3412.443157708,3413.034750916,9,3412.509898666,3412.575381333,3413.048234458,3413.791572791,0,0.591593208000177
109,8,22,categorization,0,kitchen,SHINEd_sun_aixorpehvfykdynp.tif,95,0.0666666666666667,0.0666666666666667,1.26666666666667,3413.796551708,3414.142306416,13,3413.858299291,3413.919272375,3414.154412291,3415.414455958,0,0.345754707999731
109,9,22,categorization,0,kitchen,SHINEd_sun_azmutvzbxypaceni.tif,110,0.0666666666666667,0.0666666666666667,1.31666666666667,3415.433148916,3415.714646125,9,3415.499958625,3415.565590541,3415.738668958,3417.048711541,1,0.281497209000008
109,10,22,categorization,0,bathroom,SHINEd_sun_aqrpegblszgcoujh.tif,48,0.0666666666666667,0.0666666666666667,1.28333333333333,3417.062395458,3417.341966583,9,3417.129099041,3417.195069166,3417.34752575,3418.62423875,0,0.279571125000075
109,11,22,categorization,0,bathroom,SHINEd_sun_ausgutylgojavyoq.tif,53,0.0666666666666667,0.0666666666666667,0.95,3418.637586083,3418.757841916,9,3418.704082416,3418.76485875,3418.786193041,3419.72956625,0,0.120255833000101
109,12,22,categorization,0,kitchen,SHINEd_sun_avszsnwsbuqfgzbn.tif,105,0.0666666666666667,0.0666666666666667,1.21666666666667,3419.741565958,3420.056281166,13,3419.807961958,3419.874459041,3420.0808795,3421.290912666,0,0.314715208000052
109,13,22,categorization,0,kitchen,SHINEd_sun_awcpdzzznmweyyhv.tif,106,0.0666666666666667,0.0666666666666667,1.15,3421.308753583,3422.329040166,13,3421.3754195,3421.441625541,3422.348077875,3423.491451,0,1.02028658300014
109,14,22,categorization,0,kitchen,SHINEd_sun_aarfiyshqohlwkmo.tif,67,0.0666666666666667,0.0666666666666667,0.916666666666667,3423.500987916,3424.224020666,13,3423.567116583,3423.633786958,3424.239731083,3425.149781416,0,0.723032749999675
109,15,22,categorization,0,kitchen,SHINEd_labelme_rykdqxenmhulbdn.tif,63,0.0666666666666667,0.0666666666666667,1.86666666666667,3425.166071583,3425.286493791,13,3425.2329615,3425.299420791,3425.322471791,3427.182516208,0,0.120422208000036
109,16,22,categorization,0,bathroom,SHINEd_sun_axyrejkiiaqiurjk.tif,59,0.0666666666666667,0.0666666666666667,0.766666666666667,3427.20073875,3429.510122166,13,3427.267626541,3427.333674,3429.51965225,3430.279656958,1,2.3093834160004
109,17,22,categorization,0,kitchen,SHINEd_sun_aehawpgmrlhlvcow.tif,81,0.0666666666666667,0.0666666666666667,1.96666666666667,3430.284570541,3430.533539375,9,3430.346431708,3430.407197791,3430.542278833,3432.502321583,1,0.248968834000152
109,18,22,categorization,0,bathroom,SHINEd_sun_asfwthctfqerjvxr.tif,49,0.0666666666666667,0.0666666666666667,0.716666666666667,3432.520987666,3434.157338333,9,3432.587308791,3432.653499291,3434.172752416,3434.882757291,0,1.63635066699999
109,19,22,categorization,0,bathroom,SHINEd_sun_anhioqovhscjqqwb.tif,38,0.0666666666666667,0.0666666666666667,0.9,3434.887279916,3435.350164416,9,3434.94919225,3435.01005975,3435.361705083,3436.255042791,0,0.4628845000002
109,20,22,categorization,0,bathroom,SHINEd_sun_anryaplzeujmzfkd.tif,39,0.0666666666666667,0.0666666666666667,0.866666666666667,3436.260200125,3436.678335416,13,3436.322024583,3436.382831083,3436.684635041,3437.544639125,1,0.418135290999999
109,21,22,categorization,0,bathroom,SHINEd_sun_ajlawzvmubibwbpy.tif,30,0.0666666666666667,0.0666666666666667,0.8,3437.549397125,3437.718205833,13,3437.611080083,3437.672236833,3437.723898,3438.517234791,1,0.168808708000142
109,22,22,categorization,0,kitchen,SHINEd_sun_amjjdeyrggfqgmom.tif,100,0.0666666666666667,0.0666666666666667,0.966666666666667,3438.522793958,3438.942077333,13,3438.584508791,3438.645479833,3438.947416083,3439.907419208,0,0.41928337499985
109,23,22,categorization,0,bathroom,SHINEd_sun_axldvoqbuvuggfmq.tif,57,0.0666666666666667,0.0666666666666667,0.983333333333333,3439.912243875,3440.238099791,9,3439.973866583,3440.0348825,3440.253214625,3441.22988625,0,0.325855915999909
109,24,22,categorization,0,kitchen,SHINEd_sun_aggjlwcdjsjcaemh.tif,86,0.0666666666666667,0.0666666666666667,0.75,3441.235329333,3441.355370958,9,3441.297036958,3441.358141041,3441.376594916,3442.119931,1,0.120041624999885
109,25,22,categorization,0,bathroom,SHINEd_sun_apkruvsevgegsdwp.tif,44,0.0666666666666667,0.0666666666666667,1.35,3442.124333083,3442.853961708,13,3442.186065041,3442.247109916,3442.865642083,3444.209026375,1,0.729628625000259
109,26,22,categorization,0,bathroom,SHINEd_sun_afcoljnjfoxjtgja.tif,20,0.0666666666666667,0.0666666666666667,0.7,3444.223974333,3444.617990625,13,3444.290407458,3444.356540416,3444.646153291,3445.339538333,1,0.394016291999833
109,27,22,categorization,0,bathroom,SHINEd_sun_atstyziqcmkahyxk.tif,51,0.0666666666666667,0.0666666666666667,1.36666666666667,3445.3546805,3445.714341958,9,3445.420564958,3445.4871585,3445.743602875,3447.103635041,0,0.359661458000119
109,28,22,categorization,0,kitchen,SHINEd_sun_aexklacwqwezaorf.tif,84,0.0666666666666667,0.0666666666666667,1.88333333333333,3447.120804833,3448.45846025,13,3447.187323875,3447.25355275,3448.478375916,3450.3550785,0,1.33765541699995
109,29,22,categorization,0,bathroom,SHINEd_sun_alkosphxlxwjwgjd.tif,34,0.0666666666666667,0.0666666666666667,1.76666666666667,3450.369023791,3450.489459375,9,3450.43595575,3450.501980208,3450.52494175,3452.284989666,0,0.120435584000006
109,30,22,categorization,0,bathroom,SHINEd_sun_apynckhmoftszqoq.tif,47,0.0666666666666667,0.0666666666666667,1.9,3452.303002083,3453.397897,13,3452.369464666,3452.435746541,3453.425724875,3455.31911375,1,1.09489491699969
109,31,22,categorization,0,bathroom,SHINEd_sun_apmqjbnwghzuhhzh.tif,46,0.0666666666666667,0.0666666666666667,1.05,3455.337302,3455.564874791,13,3455.404010791,3455.46972,3455.59275025,3456.636121208,1,0.227572791000057
109,32,22,categorization,0,bathroom,SHINEd_labelme_sfxiulhjbhlyiyt.tif,11,0.0666666666666667,0.0666666666666667,1.15,3456.64924175,3457.523165208,13,3456.714017416,3456.780179125,3457.553668166,3458.697047041,1,0.873923458000263
109,33,22,categorization,0,bathroom,SHINEd_sun_aoybiabnpadelefl.tif,41,0.0666666666666667,0.0666666666666667,1.5,3458.706794583,3459.469875125,9,3458.77185125,3458.839067958,3459.493857333,3460.987223625,0,0.763080541999898
109,34,22,categorization,0,bathroom,SHINEd_sun_aunuadmjocsddsrl.tif,52,0.0666666666666667,0.0666666666666667,0.983333333333333,3461.005107291,3461.824317083,13,3461.0715585,3461.137866625,3461.844467083,3462.821167541,1,0.819209792000038
109,35,22,categorization,0,bathroom,SHINEd_sun_aleqenyvunhactkl.tif,32,0.0666666666666667,0.0666666666666667,1.36666666666667,3462.831464416,3463.269341208,13,3462.89840775,3462.960746916,3463.279442875,3464.63947525,1,0.43787679199977
109,36,22,categorization,0,kitchen,SHINEd_labelme_brsyyvweiuaazfr.tif,61,0.0666666666666667,0.0666666666666667,1.28333333333333,3464.658052041,3465.112256625,13,3464.72456125,3464.789337833,3465.128003791,3466.404716875,0,0.454204584000308
109,37,22,categorization,0,kitchen,SHINEd_sun_aenotlpyftoioydp.tif,82,0.0666666666666667,0.0666666666666667,0.916666666666667,3466.414893958,3466.816565041,13,3466.4795525,3466.547632208,3466.837232791,3467.747272083,0,0.40167108300011
109,38,22,categorization,0,kitchen,SHINEd_sun_aeqdocilnnpuvuhx.tif,83,0.0666666666666667,0.0666666666666667,0.883333333333333,3467.76151225,3468.200163708,13,3467.827983916,3467.894139291,3468.216943875,3469.093616458,0,0.438651458000095
109,39,22,categorization,0,bathroom,SHINEd_sun_ahcvzmoyaycdoftf.tif,27,0.0666666666666667,0.0666666666666667,1.71666666666667,3469.098541666,3469.51783725,13,3469.160291541,3469.221237208,3469.523106208,3471.233154708,1,0.419295583999883
109,40,22,categorization,0,kitchen,SHINEd_sun_abdenxonkemggwsq.tif,69,0.0666666666666667,0.0666666666666667,1.01666666666667,3471.251071416,3471.371450958,13,3471.317744458,3471.384503208,3471.407148083,3472.417180208,0,0.120379542000137
109,41,22,categorization,0,bathroom,SHINEd_sun_acduarbnmmoglmiv.tif,16,0.0666666666666667,0.0666666666666667,1.58333333333333,3472.430810208,3472.806001083,13,3472.4970735,3472.563655291,3472.815662708,3474.392364666,1,0.375190875000044
109,42,22,categorization,0,bathroom,SHINEd_sun_ahaulkltgpkeeemi.tif,26,0.0666666666666667,0.0666666666666667,0.783333333333333,3474.409056666,3474.529461708,9,3474.47529475,3474.542744,3474.565432208,3475.342139,0,0.120405041999675
109,43,22,categorization,0,kitchen,SHINEd_sun_aadbddgrdsjugojn.tif,64,0.0666666666666667,0.0666666666666667,0.916666666666667,3475.35420925,3475.830640083,13,3475.420001375,3475.486568291,3475.859622666,3476.769627083,0,0.476430832999995
109,44,22,categorization,0,bathroom,SHINEd_sun_ambriybtogmepttm.tif,36,0.0666666666666667,0.0666666666666667,0.75,3476.774434208,3477.285036916,13,3476.836156,3476.897087583,3477.298981875,3478.042321041,1,0.510602708000079
109,45,22,categorization,0,bathroom,SHINEd_sun_aggnnqpdorgxpvce.tif,21,0.0666666666666667,0.0666666666666667,1.46666666666667,3478.04720025,3478.9499805,13,3478.108825208,3478.169863125,3478.955075125,3480.415113875,1,0.902780249999978
109,46,22,categorization,0,bathroom,SHINEd_sun_aclfzgynxzxlbepz.tif,19,0.0666666666666667,0.0666666666666667,0.833333333333333,3480.433244833,3482.09388375,9,3480.501167916,3480.563950833,3482.09995475,3482.926624916,0,1.66063891699969
109,47,22,categorization,0,bathroom,SHINEd_sun_agyqfjcfkdcydepw.tif,25,0.0666666666666667,0.0666666666666667,1.15,3482.931436458,3483.66176525,13,3482.993127041,3483.054167083,3483.672568541,3484.815939625,1,0.730328791999909
109,48,22,categorization,0,kitchen,SHINEd_sun_auaiucuqpdausiva.tif,102,0.0666666666666667,0.0666666666666667,1.1,3484.82611825,3485.69823725,13,3484.89077225,3484.958920333,3485.71497275,3486.808355375,0,0.872119000000112
109,49,22,categorization,0,kitchen,SHINEd_sun_aamedkxepzlwuxes.tif,65,0.0666666666666667,0.0666666666666667,1.15,3486.816883125,3487.330236541,9,3486.881829583,3486.949419916,3487.355730375,3488.499123708,1,0.513353415999973
109,50,22,categorization,0,bathroom,SHINEd_sun_aghyqhbptboemmoq.tif,23,0.0666666666666667,0.0666666666666667,0.766666666666667,3488.512088708,3489.557385916,13,3488.578590083,3488.644725166,3489.563834916,3490.323838416,1,1.04529720799974
