sub_num,trial,block,task,is_practice,category,image,texture,duration,mask_dur,jitter,stim_time,time_of_resp,trial_response,mask_time,fix_time,jit_onset,trial_end,trial_accuracy,RT
109,1,15,categorization,0,bathroom,SHINEd_sun_ahcvzmoyaycdoftf.tif,27,0.0666666666666667,0.0666666666666667,1.3,2611.485112708,2612.9534205,9,2611.547374416,2611.607817958,2612.959786708,2614.253168958,0,1.46830779199991
109,2,15,categorization,0,kitchen,SHINEd_sun_agubuxuukhzyzpdp.tif,88,0.0666666666666667,0.0666666666666667,1.25,2614.270156416,2614.466259458,13,2614.338347708,2614.402906083,2614.493651375,2615.7370415,0,0.196103041999777
109,3,15,categorization,0,bathroom,SHINEd_sun_avhrdrntsqrjzccq.tif,55,0.0666666666666667,0.0666666666666667,0.816666666666667,2615.755498458,2616.22520975,13,2615.822376416,2615.888253208,2616.240602625,2617.050608791,1,0.469711291999829
109,4,15,categorization,0,bathroom,SHINEd_sun_apkxzenqapsujocq.tif,45,0.0666666666666667,0.0666666666666667,0.85,2617.055438625,2617.521486625,9,2617.1171,2617.17814725,2617.53001525,2618.373352708,0,0.466047999999773
109,5,15,categorization,0,kitchen,SHINEd_sun_abftihopvusyfakt.tif,71,0.0666666666666667,0.0666666666666667,1.06666666666667,2618.3783905,2618.785279291,13,2618.44006675,2618.5010505,2618.803000208,2619.863037166,0,0.406888790999801
109,6,15,categorization,0,kitchen,SHINEd_sun_ahspylgoovwmwvgk.tif,93,0.0666666666666667,0.0666666666666667,0.733333333333333,2619.873608708,2620.262708208,13,2619.937965666,2620.004057666,2620.276535125,2621.003256791,0,0.389099499999702
109,7,15,categorization,0,bathroom,SHINEd_sun_apmqjbnwghzuhhzh.tif,46,0.0666666666666667,0.0666666666666667,1.83333333333333,2621.015202916,2621.840732791,9,2621.081785208,2621.147697541,2621.850288625,2623.676994666,0,0.825529875000029
109,8,15,categorization,0,bathroom,SHINEd_sun_aleqenyvunhactkl.tif,32,0.0666666666666667,0.0666666666666667,0.733333333333333,2623.695716208,2624.7550895,13,2623.762392,2623.828832416,2624.766772,2625.493444333,1,1.05937329200015
109,9,15,categorization,0,bathroom,SHINEd_sun_aggnnqpdorgxpvce.tif,21,0.0666666666666667,0.0666666666666667,1.56666666666667,2625.498255458,2625.857087041,9,2625.56010275,2625.620987208,2625.872848375,2627.432882166,0,0.358831582999755
109,10,15,categorization,0,kitchen,SHINEd_sun_admlmbcdswaszruo.tif,79,0.0666666666666667,0.0666666666666667,1.93333333333333,2627.450770291,2628.864845625,9,2627.517445791,2627.583671333,2628.892527125,2630.819234583,1,1.41407533399979
109,11,15,categorization,0,bathroom,SHINEd_sun_awnqiikzaispgmwo.tif,56,0.0666666666666667,0.0666666666666667,1.48333333333333,2630.836485041,2632.417290833,13,2630.903288041,2630.96949,2632.422235333,2633.898941125,1,1.58080579200032
109,12,15,categorization,0,kitchen,SHINEd_labelme_rykdqxenmhulbdn.tif,63,0.0666666666666667,0.0666666666666667,0.916666666666667,2633.916820041,2634.809614958,13,2633.9837085,2634.049430791,2634.820592041,2635.730596083,0,0.892794917000174
109,13,15,categorization,0,kitchen,SHINEd_sun_aymvwlarqodbwuoc.tif,108,0.0666666666666667,0.0666666666666667,1.5,2635.735455958,2637.696881458,13,2635.797077541,2635.858181875,2637.710794458,2639.204162958,0,1.96142550000013
109,14,15,categorization,0,kitchen,SHINEd_sun_abdenxonkemggwsq.tif,69,0.0666666666666667,0.0666666666666667,1.1,2639.221161666,2639.677919083,13,2639.289468333,2639.354101083,2639.693518166,2640.786886833,0,0.456757416999608
109,15,15,categorization,0,kitchen,SHINEd_sun_acxkpeoqbwcxfvip.tif,77,0.0666666666666667,0.0666666666666667,0.983333333333333,2640.798689125,2643.64070375,9,2640.861493083,2640.921361458,2643.656825708,2644.633496875,1,2.84201462500005
109,16,15,categorization,0,bathroom,SHINEd_sun_ahaulkltgpkeeemi.tif,26,0.0666666666666667,0.0666666666666667,1.7,2644.638278541,2645.697666,13,2644.699907958,2644.761078458,2645.713317083,2647.406684791,1,1.05938745899994
109,17,15,categorization,0,kitchen,SHINEd_sun_aunzlwrbjumxhwdj.tif,103,0.0666666666666667,0.0666666666666667,1.58333333333333,2647.425033375,2648.276660583,13,2647.49158125,2647.55751725,2648.297383291,2649.874092,0,0.851627208000082
109,18,15,categorization,0,kitchen,SHINEd_sun_ajkqhtgcbgpcwrwn.tif,97,0.0666666666666667,0.0666666666666667,0.933333333333333,2649.892805958,2650.257938166,9,2649.959117,2650.025498041,2650.282257875,2651.208968166,1,0.365132207999977
109,19,15,categorization,0,bathroom,SHINEd_sun_agguqiubmwhqqunb.tif,22,0.0666666666666667,0.0666666666666667,0.916666666666667,2651.225333041,2651.624826541,13,2651.291590458,2651.357962833,2651.643810958,2652.553816083,1,0.399493500000062
109,20,15,categorization,0,kitchen,SHINEd_sun_abdxkyyxwfskuaqb.tif,70,0.0666666666666667,0.0666666666666667,1.08333333333333,2652.560786125,2652.929097416,13,2652.622485375,2652.683457083,2652.935398708,2654.012118875,0,0.368311290999827
109,21,15,categorization,0,bathroom,SHINEd_sun_apynckhmoftszqoq.tif,47,0.0666666666666667,0.0666666666666667,0.783333333333333,2654.020842666,2654.243337625,9,2654.085311791,2654.1534885,2654.25916775,2655.035876166,0,0.22249495899996
109,22,15,categorization,0,bathroom,SHINEd_sun_anryaplzeujmzfkd.tif,39,0.0666666666666667,0.0666666666666667,1.01666666666667,2655.0492875,2655.356975375,9,2655.115491,2655.182006875,2655.370646583,2656.380702208,0,0.307687874999829
109,23,15,categorization,0,bathroom,SHINEd_sun_aghyqhbptboemmoq.tif,23,0.0666666666666667,0.0666666666666667,1.15,2656.389266708,2656.800783,13,2656.453682,2656.520649125,2656.826541791,2657.969908791,1,0.411516292000215
109,24,15,categorization,0,kitchen,SHINEd_sun_adgqasybjyktddhj.tif,78,0.0666666666666667,0.0666666666666667,1.38333333333333,2657.983273125,2658.609413208,13,2658.050818791,2658.116274625,2658.618620791,2659.995340583,0,0.626140083000337
109,25,15,categorization,0,kitchen,SHINEd_sun_acfmftudsenhrfhy.tif,74,0.0666666666666667,0.0666666666666667,0.75,2660.013221875,2660.459071416,13,2660.079945416,2660.146351833,2660.486237875,2661.229603958,0,0.445849540999916
109,26,15,categorization,0,bathroom,SHINEd_sun_ajlawzvmubibwbpy.tif,30,0.0666666666666667,0.0666666666666667,0.816666666666667,2661.24441125,2661.762141958,13,2661.311166083,2661.377152958,2661.779862166,2662.589866666,1,0.517730707999817
109,27,15,categorization,0,bathroom,SHINEd_sun_atstyziqcmkahyxk.tif,51,0.0666666666666667,0.0666666666666667,1.01666666666667,2662.59458375,2663.073428375,9,2662.656236791,2662.717129208,2663.085682041,2664.095713375,0,0.478844624999965
109,28,15,categorization,0,kitchen,SHINEd_labelme_brsyyvweiuaazfr.tif,61,0.0666666666666667,0.0666666666666667,1.11666666666667,2664.104429625,2664.512972083,13,2664.168488166,2664.235219,2664.541783166,2665.651823,0,0.408542457999829
109,29,15,categorization,0,kitchen,SHINEd_sun_acwjdupvyjsugpay.tif,76,0.0666666666666667,0.0666666666666667,1.9,2665.667866083,2665.91265425,13,2665.734405708,2665.799099666,2665.938132708,2667.831518208,0,0.244788167000024
109,30,15,categorization,0,bathroom,SHINEd_sun_ambriybtogmepttm.tif,36,0.0666666666666667,0.0666666666666667,1.75,2667.844566,2668.216901916,9,2667.911142375,2667.977225666,2668.232964583,2669.976339375,0,0.372335915999884
109,31,15,categorization,0,bathroom,SHINEd_sun_acegryoqftbzowsg.tif,17,0.0666666666666667,0.0666666666666667,1.31666666666667,2669.995454375,2670.236816791,13,2670.062112541,2670.128359416,2670.250743291,2671.560784458,1,0.241362415999902
109,32,15,categorization,0,bathroom,SHINEd_sun_aspsyogrekjtfozg.tif,50,0.0666666666666667,0.0666666666666667,1.58333333333333,2671.578802083,2671.898549708,9,2671.645309291,2671.711379916,2671.917767041,2673.494465041,0,0.319747624999764
109,33,15,categorization,0,bathroom,SHINEd_sun_axxbkopsgyouuebh.tif,58,0.0666666666666667,0.0666666666666667,0.716666666666667,2673.504247083,2673.784219208,9,2673.570663666,2673.636982916,2673.810168208,2674.520210166,0,0.279972125000313
109,34,15,categorization,0,kitchen,SHINEd_sun_ahdycvpopffkzzsu.tif,90,0.0666666666666667,0.0666666666666667,1.05,2674.532850125,2674.86839175,13,2674.5990365,2674.665405083,2674.887874166,2675.931246333,0,0.335541624999678
109,35,15,categorization,0,kitchen,SHINEd_sun_ahywdevtimnqcsln.tif,94,0.0666666666666667,0.0666666666666667,1.81666666666667,2675.94183375,2676.062314791,9,2676.006233708,2676.074063583,2676.095090708,2677.905145583,1,0.120481040999948
109,36,15,categorization,0,kitchen,SHINEd_sun_aehawpgmrlhlvcow.tif,81,0.0666666666666667,0.0666666666666667,1.25,2677.922424708,2678.848986875,13,2677.985296708,2678.045347375,2678.8637485,2680.107114416,0,0.926562166999702
109,37,15,categorization,0,kitchen,SHINEd_sun_aamedkxepzlwuxes.tif,65,0.0666666666666667,0.0666666666666667,0.733333333333333,2680.125155125,2680.557336083,9,2680.192640166,2680.258053125,2680.5819085,2681.308623125,1,0.432180957999662
109,38,15,categorization,0,bathroom,SHINEd_sun_aavhrsfjbserjtht.tif,13,0.0666666666666667,0.0666666666666667,1.31666666666667,2681.323553958,2681.77102625,13,2681.389391083,2681.45609025,2681.796252083,2683.1063035,1,0.447472291999929
109,39,15,categorization,0,kitchen,SHINEd_sun_ahljzhgcdpomplvg.tif,91,0.0666666666666667,0.0666666666666667,1,2683.12509225,2683.411839333,9,2683.191351208,2683.257953375,2683.430726791,2684.424109166,1,0.286747083000137
109,40,15,categorization,0,bathroom,SHINEd_sun_asfwthctfqerjvxr.tif,49,0.0666666666666667,0.0666666666666667,1.16666666666667,2684.439273291,2684.738206166,13,2684.506167458,2684.571650541,2684.760113416,2685.920146666,1,0.298932874999991
109,41,15,categorization,0,bathroom,SHINEd_sun_axldvoqbuvuggfmq.tif,57,0.0666666666666667,0.0666666666666667,0.916666666666667,2685.929984125,2686.236553875,9,2685.996873541,2686.062466375,2686.25162275,2687.161675833,0,0.306569750000108
109,42,15,categorization,0,kitchen,SHINEd_sun_agzzivivdpnawacl.tif,89,0.0666666666666667,0.0666666666666667,0.8,2687.176603916,2687.50992175,13,2687.243683833,2687.309288375,2687.532561375,2688.325900583,0,0.333317833999899
109,43,15,categorization,0,kitchen,SHINEd_sun_aenotlpyftoioydp.tif,82,0.0666666666666667,0.0666666666666667,1,2688.330615333,2688.664787833,13,2688.39230025,2688.453258333,2688.672062791,2689.665400083,0,0.334172500000022
109,44,15,categorization,0,bathroom,SHINEd_sun_aoybiabnpadelefl.tif,41,0.0666666666666667,0.0666666666666667,0.766666666666667,2689.669915708,2690.016732,13,2689.731515,2689.792594791,2690.027789833,2690.787794208,1,0.346816291999858
109,45,15,categorization,0,bathroom,SHINEd_sun_anhioqovhscjqqwb.tif,38,0.0666666666666667,0.0666666666666667,1.03333333333333,2690.79331225,2691.105534833,9,2690.855186,2690.91608775,2691.117921125,2692.144624458,0,0.312222583000221
109,46,15,categorization,0,kitchen,SHINEd_sun_avszsnwsbuqfgzbn.tif,105,0.0666666666666667,0.0666666666666667,1.81666666666667,2692.154228375,2692.513402458,9,2692.218058666,2692.285386125,2692.541661083,2694.351706791,1,0.359174083000198
109,47,15,categorization,0,kitchen,SHINEd_sun_aarfiyshqohlwkmo.tif,67,0.0666666666666667,0.0666666666666667,1.21666666666667,2694.368543708,2695.586942708,9,2694.435335458,2694.501221083,2695.607657,2696.817716416,1,1.21839900000032
109,48,15,categorization,0,bathroom,SHINEd_sun_acgyywnybuveqsro.tif,18,0.0666666666666667,0.0666666666666667,0.866666666666667,2696.82764025,2696.948126958,9,2696.894246791,2696.960987708,2696.983482541,2697.843517375,0,0.120486708000044
109,49,15,categorization,0,bathroom,SHINEd_sun_apeeialkgkuxddgh.tif,42,0.0666666666666667,0.0666666666666667,1.46666666666667,2697.85457175,2697.975079375,9,2697.920817583,2697.988242041,2698.011596916,2699.471645583,0,0.120507624999846
109,50,15,categorization,0,bathroom,SHINEd_sun_azqyogdvyhahyram.tif,60,0.0666666666666667,0.0666666666666667,1.46666666666667,2699.489542041,2699.610018416,9,2699.55635375,2699.623470166,2699.646337833,2701.106375125,0,0.12047637500018
