sub_num,trial,block,task,is_practice,category,image,texture,duration,mask_dur,jitter,stim_time,time_of_resp,trial_response,mask_time,fix_time,jit_onset,trial_end,trial_accuracy,RT
139,6,0,familiarity,1,kitchen,kitchen_practice2.tif,227,1.5,0,0.733333333333333,2666.398808416,2669.135298833,2,NaN,2669.164187,2669.187397458,2669.914075666,NaN,NaN
139,7,0,familiarity,1,kitchen,kitchen_practice3.tif,228,1.5,0,1.3,2669.918757958,2672.607783125,1,NaN,2672.635484041,2672.658776833,2673.952177875,NaN,NaN
139,8,0,familiarity,1,kitchen,kitchen_practice1.tif,226,1.5,0,2,2673.96836275,2677.352284375,3,NaN,2677.357934791,2677.37627,2679.369706958,NaN,NaN
139,9,0,familiarity,1,kitchen,kitchen_practice5.tif,230,1.5,0,1.81666666666667,2679.388635875,2682.193089833,6,NaN,2682.221945291,2682.245059125,2684.055162208,NaN,NaN
139,10,0,familiarity,1,kitchen,kitchen_practice4.tif,229,1.5,0,0.75,2684.071538666,2686.960576375,5,NaN,2686.98313925,2687.006544375,2687.749889916,NaN,NaN
139,1,1,familiarity,0,kitchen,sun_acxkpeoqbwcxfvip.tif,187,1.5,0,0.866666666666667,2702.88770225,2706.280657416,2,NaN,2706.2869275,2706.305709625,2707.1657845,NaN,NaN
139,2,1,familiarity,0,kitchen,sun_aggjlwcdjsjcaemh.tif,196,1.5,0,1.01666666666667,2707.170699166,2710.960526458,7,NaN,2710.966255625,2710.984671666,2711.994843166,NaN,NaN
139,3,1,familiarity,0,kitchen,sun_agorklincwxrdtga.tif,197,1.5,0,1.78333333333333,2712.00260475,2714.871786125,5,NaN,2714.877827208,2714.896201791,2716.672941,NaN,NaN
139,4,1,familiarity,0,kitchen,sun_aadbddgrdsjugojn.tif,174,1.5,0,1.85,2716.691288583,2719.619703541,4,NaN,2719.649483125,2719.672962833,2721.5164015,NaN,NaN
139,5,1,familiarity,0,kitchen,sun_ahdycvpopffkzzsu.tif,200,1.5,0,1.83333333333333,2721.531690166,2724.201364416,6,NaN,2724.230479208,2724.253847333,2726.08056875,NaN,NaN
139,6,1,familiarity,0,kitchen,sun_ahljzhgcdpomplvg.tif,201,1.5,0,1.56666666666667,2726.099231583,2729.155076291,3,NaN,2729.183791791,2729.207207583,2730.767265416,NaN,NaN
139,7,1,familiarity,0,kitchen,sun_agzzivivdpnawacl.tif,199,1.5,0,1.31666666666667,2730.785708166,2734.935705916,4,NaN,2734.941834291,2734.960030083,2736.270129,NaN,NaN
139,8,1,familiarity,0,kitchen,sun_ahspylgoovwmwvgk.tif,203,1.5,0,1.75,2736.286269083,2739.24828725,5,NaN,2739.253922875,2739.272320625,2741.015746333,NaN,NaN
139,9,1,familiarity,0,kitchen,sun_azmutvzbxypaceni.tif,220,1.5,0,1.9,2741.0332935,2745.000429791,5,NaN,2745.006211458,2745.024545625,2746.917957041,NaN,NaN
139,10,1,familiarity,0,kitchen,sun_agubuxuukhzyzpdp.tif,198,1.5,0,1.76666666666667,2746.936019583,2750.496219,4,NaN,2750.501787791,2750.520056833,2752.280126916,NaN,NaN
139,11,1,familiarity,0,kitchen,labelme_kxvouciolcpqplr.tif,172,1.5,0,1.05,2752.298286875,2755.335693166,6,NaN,2755.365844708,2755.389400958,2756.432742958,NaN,NaN
139,12,1,familiarity,0,kitchen,labelme_brsyyvweiuaazfr.tif,171,1.5,0,1.58333333333333,2756.43735925,2759.456931541,6,NaN,2759.471566458,2759.492034083,2761.068755875,NaN,NaN
139,13,1,familiarity,0,kitchen,sun_aegoxogugdkwpmpj.tif,190,1.5,0,0.983333333333333,2761.086221375,2763.925299333,4,NaN,2763.95421125,2763.977443708,2764.95412275,NaN,NaN
139,14,1,familiarity,0,kitchen,sun_adgqasybjyktddhj.tif,188,1.5,0,0.733333333333333,2764.958883791,2767.726468541,5,NaN,2767.755819083,2767.779022541,2768.505698541,NaN,NaN
139,15,1,familiarity,0,kitchen,sun_akchetnepxlcxhsu.tif,208,1.5,0,1.13333333333333,2768.510302208,2772.407661166,7,NaN,2772.413549666,2772.431934791,2773.558701166,NaN,NaN
139,16,1,familiarity,0,kitchen,sun_acgtpgfybqjmzeyw.tif,185,1.5,0,1.58333333333333,2773.566837291,2776.552641041,6,NaN,2776.558155916,2776.576507083,2778.1532565,NaN,NaN
139,17,1,familiarity,0,kitchen,sun_abrcnpqqhmjwekyf.tif,183,1.5,0,0.783333333333333,2778.172205375,2781.831660166,6,NaN,2781.839656041,2781.8579715,2782.634647875,NaN,NaN
139,18,1,familiarity,0,kitchen,sun_aapllqyqlykszopd.tif,176,1.5,0,0.8,2782.639244666,2785.54404925,5,NaN,2785.575467708,2785.599722125,2786.39306675,NaN,NaN
139,19,1,familiarity,0,kitchen,sun_aymvwlarqodbwuoc.tif,218,1.5,0,1.7,2786.405676708,2790.36792825,4,NaN,2790.373661625,2790.391956916,2792.085368625,NaN,NaN
139,20,1,familiarity,0,kitchen,sun_abftihopvusyfakt.tif,181,1.5,0,1.48333333333333,2792.10066825,2795.193335375,2,NaN,2795.223246041,2795.245998791,2796.722738166,NaN,NaN
139,21,1,familiarity,0,kitchen,sun_acwjdupvyjsugpay.tif,186,1.5,0,0.966666666666667,2796.742840541,2799.975930125,5,NaN,2799.981644083,2800.000044291,2800.960053041,NaN,NaN
139,22,1,familiarity,0,kitchen,sun_aexklacwqwezaorf.tif,194,1.5,0,1.28333333333333,2800.96451275,2804.631668375,2,NaN,2804.637552708,2804.656206333,2805.932974625,NaN,NaN
139,23,1,familiarity,0,kitchen,sun_auaiucuqpdausiva.tif,212,1.5,0,0.783333333333333,2805.950261958,2810.559768458,1,NaN,2810.565605625,2810.583970583,2811.360647708,NaN,NaN
139,24,1,familiarity,0,kitchen,sun_aamedkxepzlwuxes.tif,175,1.5,0,1.36666666666667,2811.364985916,2815.575877916,6,NaN,2815.581596583,2815.599883291,2816.9599655,NaN,NaN
139,25,1,familiarity,0,kitchen,labelme_rykdqxenmhulbdn.tif,173,1.5,0,1.45,2816.978139708,2820.831852708,5,NaN,2820.837679458,2820.856131458,2822.299554083,NaN,NaN
139,1,2,familiarity,0,kitchen,sun_ajcbwwvdlsvjyzje.tif,206,1.5,0,1.81666666666667,2839.298868666,2843.42411925,4,NaN,2843.430007625,2843.448449958,2845.258528041,NaN,NaN
139,2,2,familiarity,0,kitchen,sun_aypmqwcualkenuoe.tif,219,1.5,0,0.816666666666667,2845.276727375,2849.207626583,5,NaN,2849.21416825,2849.232508916,2850.042516833,NaN,NaN
139,3,2,familiarity,0,kitchen,sun_ahpczsiumwwocjkv.tif,202,1.5,0,0.9,2850.047123958,2854.015987916,3,NaN,2854.022236916,2854.040366541,2854.933709541,NaN,NaN
139,4,2,familiarity,0,kitchen,sun_acfmftudsenhrfhy.tif,184,1.5,0,0.933333333333333,2854.938160875,2858.680352791,2,NaN,2858.686694958,2858.705168666,2859.631846541,NaN,NaN
139,5,2,familiarity,0,kitchen,sun_afuyedyxivkhecmu.tif,195,1.5,0,1.48333333333333,2859.636431333,2862.936421916,1,NaN,2862.942580583,2862.960831166,2864.43759275,NaN,NaN
139,6,2,familiarity,0,kitchen,sun_axyyrmzcupyhlivc.tif,217,1.5,0,1.48333333333333,2864.454332875,2867.687581458,4,NaN,2867.693444416,2867.711731166,2869.18846375,NaN,NaN
139,7,2,familiarity,0,kitchen,sun_aenotlpyftoioydp.tif,192,1.5,0,1.43333333333333,2869.20906675,2872.93626875,3,NaN,2872.942253708,2872.960646083,2874.387376583,NaN,NaN
139,8,2,familiarity,0,kitchen,sun_avszsnwsbuqfgzbn.tif,215,1.5,0,0.733333333333333,2874.405077708,2877.791475166,4,NaN,2877.797496833,2877.815897791,2878.542571041,NaN,NaN
139,9,2,familiarity,0,kitchen,sun_abpwyqmlzafvklqo.tif,182,1.5,0,0.966666666666667,2878.547082833,2881.492321083,6,NaN,2881.521314416,2881.544200208,2882.504211708,NaN,NaN
139,10,2,familiarity,0,kitchen,sun_aixorpehvfykdynp.tif,205,1.5,0,0.916666666666667,2882.508912041,2886.104064041,5,NaN,2886.109809125,2886.128326666,2887.038335458,NaN,NaN
139,11,2,familiarity,0,kitchen,sun_abdxkyyxwfskuaqb.tif,180,1.5,0,1.03333333333333,2887.042951958,2890.656319416,5,NaN,2890.662026916,2890.680396458,2891.707128666,NaN,NaN
139,12,2,familiarity,0,kitchen,sun_abdenxonkemggwsq.tif,179,1.5,0,0.733333333333333,2891.716373208,2894.984375375,3,NaN,2894.990148083,2895.008427125,2895.735102375,NaN,NaN
139,13,2,familiarity,0,kitchen,sun_aehawpgmrlhlvcow.tif,191,1.5,0,1.13333333333333,2895.740375291,2899.65604775,2,NaN,2899.661599166,2899.679804416,2900.80655475,NaN,NaN
139,14,2,familiarity,0,kitchen,sun_ajkqhtgcbgpcwrwn.tif,207,1.5,0,0.883333333333333,2900.81478675,2903.992020375,2,NaN,2903.997756708,2904.016095916,2904.892773958,NaN,NaN
139,15,2,familiarity,0,kitchen,sun_aarfiyshqohlwkmo.tif,177,1.5,0,1.85,2904.897275416,2908.279622166,2,NaN,2908.28645725,2908.304879375,2910.14831175,NaN,NaN
139,16,2,familiarity,0,kitchen,sun_aeqdocilnnpuvuhx.tif,193,1.5,0,0.733333333333333,2910.166440583,2913.7035905,1,NaN,2913.710091458,2913.72849725,2914.455171541,NaN,NaN
139,17,2,familiarity,0,kitchen,sun_aqeaevwwwjoqhzvl.tif,211,1.5,0,1.95,2914.459708666,2917.433160708,2,NaN,2917.449140125,2917.470546625,2919.413988208,NaN,NaN
139,18,2,familiarity,0,kitchen,sun_auticobqsbwgoppi.tif,214,1.5,0,1.1,2919.425809583,2922.831881291,4,NaN,2922.838512541,2922.857061,2923.950466916,NaN,NaN
139,19,2,familiarity,0,kitchen,sun_aaxxjlsuzvqlgylf.tif,178,1.5,0,1.31666666666667,2923.960996291,2927.248243125,5,NaN,2927.253969916,2927.272336208,2928.582426125,NaN,NaN
139,20,2,familiarity,0,kitchen,sun_amjjdeyrggfqgmom.tif,210,1.5,0,1.78333333333333,2928.60114425,2931.751505375,3,NaN,2931.757322583,2931.775688041,2933.5524355,NaN,NaN
139,21,2,familiarity,0,kitchen,sun_aunzlwrbjumxhwdj.tif,213,1.5,0,1.33333333333333,2933.570871166,2937.511605958,7,NaN,2937.517372916,2937.535732125,2938.862459666,NaN,NaN
139,22,2,familiarity,0,kitchen,sun_awcpdzzznmweyyhv.tif,216,1.5,0,0.95,2938.881477125,2943.239586791,4,NaN,2943.245578875,2943.26388075,2944.207222625,NaN,NaN
139,23,2,familiarity,0,kitchen,sun_akcjzhbbjlbogpdi.tif,209,1.5,0,1.93333333333333,2944.21186775,2948.831876541,4,NaN,2948.838336333,2948.856754666,2950.783495375,NaN,NaN
139,24,2,familiarity,0,kitchen,sun_ahywdevtimnqcsln.tif,204,1.5,0,1.28333333333333,2950.798568708,2955.231682458,6,NaN,2955.237698916,2955.256880583,2956.533653708,NaN,NaN
139,25,2,familiarity,0,kitchen,sun_admlmbcdswaszruo.tif,189,1.5,0,1.43333333333333,2956.550993708,2960.839237625,5,NaN,2960.846019666,2960.864661333,2962.291388208,NaN,NaN
