sub_num,trial,block,task,is_practice,category,image,texture,duration,mask_dur,jitter,stim_time,time_of_resp,trial_response,mask_time,fix_time,jit_onset,trial_end,trial_accuracy,RT
140,1,0,aesthetic,1,bathroom,bathroom_practice1.tif,221,1.5,0,1.6,1491.341305208,1496.111644583,3,NaN,1496.118159333,1496.136518291,1497.729887583,NaN,NaN
140,2,0,aesthetic,1,bathroom,bathroom_practice2.tif,222,1.5,0,1.26666666666667,1497.748019541,1502.599175166,4,NaN,1502.604919166,1502.623315625,1503.883369958,NaN,NaN
140,3,0,aesthetic,1,bathroom,bathroom_practice3.tif,223,1.5,0,1.15,1503.900497041,1507.823844833,5,NaN,1507.82937575,1507.84777675,1508.991144416,NaN,NaN
140,4,0,aesthetic,1,bathroom,bathroom_practice4.tif,224,1.5,0,1.75,1508.99984325,1512.0554675,4,NaN,1512.061371416,1512.079753916,1513.823123625,NaN,NaN
140,5,0,aesthetic,1,bathroom,bathroom_practice5.tif,225,1.5,0,0.85,1513.841925708,1521.311740666,5,NaN,1521.317240583,1521.335585791,1522.178925041,NaN,NaN
140,1,1,aesthetic,0,bathroom,sun_acgyywnybuveqsro.tif,128,1.5,0,0.933333333333333,1526.65886025,1531.639201375,2,NaN,1531.644975791,1531.663289916,1532.589962125,NaN,NaN
140,2,1,aesthetic,0,bathroom,sun_ahcvzmoyaycdoftf.tif,137,1.5,0,1.18333333333333,1532.594347166,1536.263787708,4,NaN,1536.269325916,1536.287644625,1537.4643635,NaN,NaN
140,3,1,aesthetic,0,bathroom,sun_ahqjwnzgolcaoidx.tif,139,1.5,0,1.56666666666667,1537.473504541,1540.551831041,5,NaN,1540.557338541,1540.575628208,1542.135670625,NaN,NaN
140,4,1,aesthetic,0,bathroom,sun_ambriybtogmepttm.tif,146,1.5,0,1.38333333333333,1542.153184833,1545.288053666,1,NaN,1545.293704416,1545.312031208,1546.688736291,NaN,NaN
140,5,1,aesthetic,0,bathroom,sun_apkruvsevgegsdwp.tif,154,1.5,0,1.23333333333333,1546.703021,1549.887583083,1,NaN,1549.893248708,1549.911529583,1551.138244916,NaN,NaN
140,6,1,aesthetic,0,bathroom,sun_apkxzenqapsujocq.tif,155,1.5,0,1.83333333333333,1551.157210375,1556.4150245,2,NaN,1556.420903333,1556.439284125,1558.26598825,NaN,NaN
140,7,1,aesthetic,0,bathroom,sun_agyqfjcfkdcydepw.tif,135,1.5,0,1.1,1558.276544083,1564.575618833,3,NaN,1564.581260458,1564.599636833,1565.693004,NaN,NaN
140,8,1,aesthetic,0,bathroom,sun_anhioqovhscjqqwb.tif,148,1.5,0,1.71666666666667,1565.700442166,1569.527415916,4,NaN,1569.532903833,1569.551244625,1571.261293958,NaN,NaN
140,9,1,aesthetic,0,bathroom,sun_alotolagknyrgtsk.tif,145,1.5,0,1.01666666666667,1571.2804115,1574.235504416,2,NaN,1574.258851916,1574.280408583,1575.290415125,NaN,NaN
140,10,1,aesthetic,0,bathroom,sun_auzqhkafidnkrwmo.tif,164,1.5,0,1.36666666666667,1575.295294375,1579.07160225,6,NaN,1579.077300916,1579.095649375,1580.455694708,NaN,NaN
140,11,1,aesthetic,0,bathroom,sun_agguqiubmwhqqunb.tif,132,1.5,0,0.75,1580.4744995,1583.231541166,5,NaN,1583.237052708,1583.255387875,1583.998725541,NaN,NaN
140,12,1,aesthetic,0,bathroom,sun_acduarbnmmoglmiv.tif,126,1.5,0,1.31666666666667,1584.003122666,1588.183236708,5,NaN,1588.188989458,1588.207316541,1589.5173685,NaN,NaN
140,13,1,aesthetic,0,bathroom,sun_aclfzgynxzxlbepz.tif,129,1.5,0,1.33333333333333,1589.533461583,1593.030970208,3,NaN,1593.036703875,1593.055036958,1594.381747166,NaN,NaN
140,14,1,aesthetic,0,bathroom,sun_axxbkopsgyouuebh.tif,168,1.5,0,1.41666666666667,1594.391948791,1597.343270666,3,NaN,1597.348710083,1597.367000875,1598.777055333,NaN,NaN
140,15,1,aesthetic,0,bathroom,sun_avhrdrntsqrjzccq.tif,165,1.5,0,1.93333333333333,1598.795654041,1601.887557375,4,NaN,1601.893088458,1601.911335375,1603.838043583,NaN,NaN
140,16,1,aesthetic,0,bathroom,sun_ahijqszoswveeyji.tif,138,1.5,0,1.68333333333333,1603.854556041,1607.351533416,4,NaN,1607.357016875,1607.375367083,1609.052081208,NaN,NaN
140,17,1,aesthetic,0,bathroom,sun_atstyziqcmkahyxk.tif,161,1.5,0,0.783333333333333,1609.0698615,1612.783303416,1,NaN,1612.788925541,1612.807235958,1613.583907,NaN,NaN
140,18,1,aesthetic,0,bathroom,sun_asfwthctfqerjvxr.tif,159,1.5,0,1.93333333333333,1613.588330083,1620.486648666,7,NaN,1620.492558958,1620.510933833,1622.437645916,NaN,NaN
140,19,1,aesthetic,0,bathroom,sun_aofnryafpsjimzsb.tif,150,1.5,0,1.18333333333333,1622.449948583,1625.442264833,6,NaN,1625.46741825,1625.490702041,1626.667414875,NaN,NaN
140,20,1,aesthetic,0,bathroom,sun_afcoljnjfoxjtgja.tif,130,1.5,0,1.61666666666667,1626.679178958,1629.974464291,5,NaN,1629.98050375,1629.99896975,1631.609004458,NaN,NaN
140,21,1,aesthetic,0,bathroom,sun_akiytfaagpdsphgz.tif,141,1.5,0,1.16666666666667,1631.626766208,1635.358800583,7,NaN,1635.365447166,1635.383693958,1636.54371075,NaN,NaN
140,22,1,aesthetic,0,bathroom,sun_awnqiikzaispgmwo.tif,166,1.5,0,1.85,1636.554743041,1639.919365041,5,NaN,1639.924859583,1639.943278208,1641.786650625,NaN,NaN
140,23,1,aesthetic,0,bathroom,sun_apjevzvycyhuqghb.tif,153,1.5,0,1.68333333333333,1641.80214675,1645.799270083,5,NaN,1645.805652708,1645.824067958,1647.500794166,NaN,NaN
140,24,1,aesthetic,0,bathroom,sun_apynckhmoftszqoq.tif,157,1.5,0,1.98333333333333,1647.518797625,1650.854071375,2,NaN,1650.883631916,1650.907286333,1652.883990541,NaN,NaN
140,25,1,aesthetic,0,bathroom,sun_aoybiabnpadelefl.tif,151,1.5,0,1.28333333333333,1652.899968958,1655.676913166,1,NaN,1655.700613333,1655.72397725,1657.000677375,NaN,NaN
140,1,2,aesthetic,0,bathroom,sun_apmqjbnwghzuhhzh.tif,156,1.5,0,0.9,1661.579321458,1665.374455875,2,NaN,1665.380324333,1665.398863041,1666.29220275,NaN,NaN
140,2,2,aesthetic,0,bathroom,sun_aapitsgbtktqubfy.tif,122,1.5,0,1.95,1666.296761166,1668.946422041,4,NaN,1668.974961,1668.998543541,1670.941918333,NaN,NaN
140,3,2,aesthetic,0,bathroom,sun_axyrejkiiaqiurjk.tif,169,1.5,0,1,1670.960159666,1675.878634458,4,NaN,1675.884405583,1675.902756166,1676.896093541,NaN,NaN
140,4,2,aesthetic,0,bathroom,sun_ahaulkltgpkeeemi.tif,136,1.5,0,0.733333333333333,1676.900696333,1680.718500583,5,NaN,1680.724310333,1680.742584458,1681.469256041,NaN,NaN
140,5,2,aesthetic,0,bathroom,sun_amzlamotzwfkwjco.tif,147,1.5,0,1.2,1681.4735975,1684.662273083,2,NaN,1684.668253833,1684.686522375,1685.879898375,NaN,NaN
140,6,2,aesthetic,0,bathroom,sun_aunuadmjocsddsrl.tif,162,1.5,0,1.21666666666667,1685.892858125,1688.894470625,1,NaN,1688.9002255,1688.91859875,1690.128646291,NaN,NaN
140,7,2,aesthetic,0,bathroom,sun_azqyogdvyhahyram.tif,170,1.5,0,0.933333333333333,1690.143266625,1694.134235166,1,NaN,1694.140156333,1694.158526458,1695.085196958,NaN,NaN
140,8,2,aesthetic,0,bathroom,sun_aqrpegblszgcoujh.tif,158,1.5,0,0.916666666666667,1695.089718625,1698.046810458,4,NaN,1698.076019333,1698.099201583,1699.00920775,NaN,NaN
140,9,2,aesthetic,0,bathroom,sun_aspsyogrekjtfozg.tif,160,1.5,0,1.1,1699.015839125,1703.022692041,4,NaN,1703.028255625,1703.0465295,1704.139917458,NaN,NaN
140,10,2,aesthetic,0,bathroom,sun_axldvoqbuvuggfmq.tif,167,1.5,0,1.16666666666667,1704.149155375,1707.4784845,5,NaN,1707.484129083,1707.502490541,1708.662536,NaN,NaN
140,11,2,aesthetic,0,bathroom,sun_abjtwfukuwddzted.tif,125,1.5,0,0.783333333333333,1708.671207791,1711.974159166,3,NaN,1711.980354916,1711.9985855,1712.775257125,NaN,NaN
140,12,2,aesthetic,0,bathroom,sun_abapwbhyhkfixyex.tif,124,1.5,0,1.95,1712.779637416,1716.703016625,4,NaN,1716.708497083,1716.726877958,1718.67027025,NaN,NaN
140,13,2,aesthetic,0,bathroom,sun_anryaplzeujmzfkd.tif,149,1.5,0,1.05,1718.688257291,1722.526896416,6,NaN,1722.532381333,1722.550676,1723.594065833,NaN,NaN
140,14,2,aesthetic,0,bathroom,sun_ausgutylgojavyoq.tif,163,1.5,0,1.03333333333333,1723.614373583,1726.782884166,4,NaN,1726.788405041,1726.806799791,1727.833510583,NaN,NaN
140,15,2,aesthetic,0,bathroom,sun_aggnnqpdorgxpvce.tif,131,1.5,0,1.45,1727.842082458,1730.935059791,6,NaN,1730.940542458,1730.959164208,1732.402545083,NaN,NaN
140,16,2,aesthetic,0,bathroom,sun_aljolscmmzydegqp.tif,143,1.5,0,0.966666666666667,1732.413164416,1738.350743666,3,NaN,1738.356576333,1738.374942875,1739.334947791,NaN,NaN
140,17,2,aesthetic,0,bathroom,sun_aghyqhbptboemmoq.tif,133,1.5,0,0.966666666666667,1739.346799333,1742.432944416,2,NaN,1742.448085916,1742.466967458,1743.42697375,NaN,NaN
140,18,2,aesthetic,0,bathroom,sun_alkosphxlxwjwgjd.tif,144,1.5,0,1.2,1743.431567041,1747.630540416,6,NaN,1747.63610625,1747.654338041,1748.847718291,NaN,NaN
140,19,2,aesthetic,0,bathroom,sun_apeeialkgkuxddgh.tif,152,1.5,0,0.933333333333333,1748.86037425,1751.606386958,5,NaN,1751.611982416,1751.630868666,1752.557539958,NaN,NaN
140,20,2,aesthetic,0,bathroom,sun_aleqenyvunhactkl.tif,142,1.5,0,1.31666666666667,1752.562066875,1756.006255791,3,NaN,1756.012042666,1756.030621958,1757.340669458,NaN,NaN
140,21,2,aesthetic,0,bathroom,sun_ajlawzvmubibwbpy.tif,140,1.5,0,1.18333333333333,1757.358558,1766.957997791,4,NaN,1766.96446325,1766.98274725,1768.159470833,NaN,NaN
140,22,2,aesthetic,0,bathroom,labelme_sfxiulhjbhlyiyt.tif,121,1.5,0,1.71666666666667,1768.170640958,1771.438197416,3,NaN,1771.443982041,1771.462294833,1773.172335583,NaN,NaN
140,23,2,aesthetic,0,bathroom,sun_aavhrsfjbserjtht.tif,123,1.5,0,1.53333333333333,1773.189083375,1778.30265775,4,NaN,1778.30849825,1778.327126583,1779.853830125,NaN,NaN
140,24,2,aesthetic,0,bathroom,sun_acegryoqftbzowsg.tif,127,1.5,0,0.933333333333333,1779.871286375,1784.326381833,3,NaN,1784.332063958,1784.350304375,1785.276977416,NaN,NaN
140,25,2,aesthetic,0,bathroom,sun_agrwbmhcpmfuwmsg.tif,134,1.5,0,0.916666666666667,1785.281971208,1790.054156458,5,NaN,1790.0608005,1790.079167125,1790.989172708,NaN,NaN
