sub_num,trial,block,task,is_practice,category,image,texture,duration,mask_dur,jitter,stim_time,time_of_resp,trial_response,mask_time,fix_time,jit_onset,trial_end,trial_accuracy,RT
117,1,0,typicality,1,bathroom,bathroom_practice2.tif,222,1.5,0,1.48333333333333,1022.7674935,1033.238129166,4,NaN,1033.260767125,1033.281125666,1034.758110083,NaN,NaN
117,2,0,typicality,1,bathroom,bathroom_practice4.tif,224,1.5,0,0.75,1034.827116708,1038.501911458,6,NaN,1038.511330666,1038.530252541,1039.273605791,NaN,NaN
117,3,0,typicality,1,bathroom,bathroom_practice1.tif,221,1.5,0,1.93333333333333,1039.285714083,1042.789471916,6,NaN,1042.796676833,1042.815456125,1044.7423095,NaN,NaN
117,4,0,typicality,1,bathroom,bathroom_practice5.tif,225,1.5,0,0.983333333333333,1044.775905708,1051.317632958,6,NaN,1051.32507625,1051.343878375,1052.320558041,NaN,NaN
117,5,0,typicality,1,bathroom,bathroom_practice3.tif,223,1.5,0,0.883333333333333,1052.335762333,1055.276769708,7,NaN,1055.329975708,1055.363645916,1056.240415166,NaN,NaN
117,1,1,typicality,0,bathroom,sun_aapitsgbtktqubfy.tif,122,1.5,0,0.866666666666667,1063.101082916,1066.3982395,6,NaN,1066.404243083,1066.422710666,1067.282729208,NaN,NaN
117,2,1,typicality,0,bathroom,sun_aleqenyvunhactkl.tif,142,1.5,0,1.03333333333333,1067.2875225,1070.437521166,3,NaN,1070.44383825,1070.462233291,1071.488953541,NaN,NaN
117,3,1,typicality,0,bathroom,sun_ajlawzvmubibwbpy.tif,140,1.5,0,0.866666666666667,1071.497451125,1074.957460333,5,NaN,1074.963213208,1074.981821375,1075.841825375,NaN,NaN
117,4,1,typicality,0,bathroom,sun_alkosphxlxwjwgjd.tif,144,1.5,0,1.61666666666667,1075.846243833,1079.389250208,7,NaN,1079.395687208,1079.414005458,1081.024050291,NaN,NaN
117,5,1,typicality,0,bathroom,sun_anhioqovhscjqqwb.tif,148,1.5,0,0.883333333333333,1081.040474666,1084.814171916,6,NaN,1084.820243625,1084.838380125,1085.71505225,NaN,NaN
117,6,1,typicality,0,bathroom,sun_alotolagknyrgtsk.tif,145,1.5,0,0.933333333333333,1085.720239083,1089.829461416,4,NaN,1089.834819541,1089.853249375,1090.779921791,NaN,NaN
117,7,1,typicality,0,bathroom,sun_aghyqhbptboemmoq.tif,133,1.5,0,1.5,1090.784322125,1093.631206083,7,NaN,1093.657782916,1093.679893708,1095.173259666,NaN,NaN
117,8,1,typicality,0,bathroom,sun_asfwthctfqerjvxr.tif,159,1.5,0,1.36666666666667,1095.189778916,1098.365442541,3,NaN,1098.371292875,1098.389560083,1099.749595541,NaN,NaN
117,9,1,typicality,0,bathroom,sun_agyqfjcfkdcydepw.tif,135,1.5,0,0.85,1099.766138875,1102.933533666,5,NaN,1102.939103375,1102.957486,1103.800823708,NaN,NaN
117,10,1,typicality,0,bathroom,sun_apeeialkgkuxddgh.tif,152,1.5,0,1.81666666666667,1103.805085083,1106.933376541,7,NaN,1106.941599,1106.960064833,1108.770110833,NaN,NaN
117,11,1,typicality,0,bathroom,sun_acegryoqftbzowsg.tif,127,1.5,0,1.28333333333333,1108.789674083,1112.175961208,2,NaN,1112.187719083,1112.2065335,1113.4832395,NaN,NaN
117,12,1,typicality,0,bathroom,sun_anryaplzeujmzfkd.tif,149,1.5,0,1.23333333333333,1113.498566916,1116.701710666,3,NaN,1116.707039125,1116.725308041,1117.952019708,NaN,NaN
117,13,1,typicality,0,bathroom,sun_amzlamotzwfkwjco.tif,147,1.5,0,0.883333333333333,1117.968797583,1120.701593375,1,NaN,1120.706995166,1120.725608833,1121.60228125,NaN,NaN
117,14,1,typicality,0,bathroom,sun_afcoljnjfoxjtgja.tif,130,1.5,0,0.866666666666667,1121.606611333,1125.1339915,2,NaN,1125.139203708,1125.157509125,1126.017513666,NaN,NaN
117,15,1,typicality,0,bathroom,sun_aclfzgynxzxlbepz.tif,129,1.5,0,1.36666666666667,1126.022111916,1129.846051125,6,NaN,1129.85137975,1129.870081833,1131.230134375,NaN,NaN
117,16,1,typicality,0,bathroom,sun_acduarbnmmoglmiv.tif,126,1.5,0,1.05,1131.247959875,1134.349629041,2,NaN,1134.355026958,1134.37340425,1135.416778583,NaN,NaN
117,17,1,typicality,0,bathroom,sun_auzqhkafidnkrwmo.tif,164,1.5,0,1.21666666666667,1135.436065541,1138.837661,3,NaN,1138.842931416,1138.861257208,1140.071316791,NaN,NaN
117,18,1,typicality,0,bathroom,sun_aofnryafpsjimzsb.tif,150,1.5,0,0.816666666666667,1140.089246083,1144.733393125,4,NaN,1144.73872875,1144.756943416,1145.566948708,NaN,NaN
117,19,1,typicality,0,bathroom,sun_apmqjbnwghzuhhzh.tif,156,1.5,0,1,1145.585154333,1150.06171175,2,NaN,1150.067973333,1150.087177541,1151.08051525,NaN,NaN
117,20,1,typicality,0,bathroom,sun_abjtwfukuwddzted.tif,125,1.5,0,1.21666666666667,1151.084882833,1156.189644125,4,NaN,1156.194972083,1156.213316625,1157.423352583,NaN,NaN
117,21,1,typicality,0,bathroom,sun_awnqiikzaispgmwo.tif,166,1.5,0,1.46666666666667,1157.440828916,1161.45350975,5,NaN,1161.458837,1161.477052875,1162.937107166,NaN,NaN
117,22,1,typicality,0,bathroom,sun_aljolscmmzydegqp.tif,143,1.5,0,1.4,1162.955757958,1166.365235708,3,NaN,1166.370909291,1166.38916675,1167.782544666,NaN,NaN
117,23,1,typicality,0,bathroom,sun_abapwbhyhkfixyex.tif,124,1.5,0,0.783333333333333,1167.7969415,1171.509652916,3,NaN,1171.514970041,1171.533274666,1172.309945708,NaN,NaN
117,24,1,typicality,0,bathroom,labelme_sfxiulhjbhlyiyt.tif,121,1.5,0,1.21666666666667,1172.318161208,1175.069176333,7,NaN,1175.094534166,1175.118206333,1176.3282495,NaN,NaN
117,25,1,typicality,0,bathroom,sun_axldvoqbuvuggfmq.tif,167,1.5,0,1.35,1176.337348666,1179.205507666,3,NaN,1179.210910708,1179.22916,1180.572535583,NaN,NaN
117,1,2,typicality,0,bathroom,sun_aoybiabnpadelefl.tif,151,1.5,0,1.65,1186.548537666,1192.6778335,5,NaN,1192.682978291,1192.701112375,1194.34448775,NaN,NaN
117,2,2,typicality,0,bathroom,sun_apkruvsevgegsdwp.tif,154,1.5,0,1.01666666666667,1194.363456875,1196.647311041,7,NaN,1196.671966333,1196.694923583,1197.704979708,NaN,NaN
117,3,2,typicality,0,bathroom,sun_ahijqszoswveeyji.tif,138,1.5,0,1.58333333333333,1197.71769175,1200.18299675,2,NaN,1200.2113645,1200.234455333,1201.811168,NaN,NaN
117,4,2,typicality,0,bathroom,sun_aunuadmjocsddsrl.tif,162,1.5,0,0.7,1201.828581458,1204.750039958,6,NaN,1204.778613375,1204.802082833,1205.49542075,NaN,NaN
117,5,2,typicality,0,bathroom,sun_apkxzenqapsujocq.tif,155,1.5,0,1.23333333333333,1205.501329041,1208.520168375,7,NaN,1208.543324125,1208.564604666,1209.791309541,NaN,NaN
117,6,2,typicality,0,bathroom,sun_akiytfaagpdsphgz.tif,141,1.5,0,0.816666666666667,1209.809988541,1213.253010416,3,NaN,1213.258656166,1213.277073166,1214.087078875,NaN,NaN
117,7,2,typicality,0,bathroom,sun_agrwbmhcpmfuwmsg.tif,134,1.5,0,0.733333333333333,1214.101452375,1217.341389625,2,NaN,1217.346981125,1217.36527925,1218.091949416,NaN,NaN
117,8,2,typicality,0,bathroom,sun_agguqiubmwhqqunb.tif,132,1.5,0,1.15,1218.096491,1220.724277583,1,NaN,1220.754316958,1220.77785775,1221.921241958,NaN,NaN
117,9,2,typicality,0,bathroom,sun_axyrejkiiaqiurjk.tif,169,1.5,0,0.933333333333333,1221.931603625,1224.661642083,1,NaN,1224.666877625,1224.685198333,1225.611869875,NaN,NaN
117,10,2,typicality,0,bathroom,sun_aavhrsfjbserjtht.tif,123,1.5,0,0.916666666666667,1225.616782041,1229.317010166,3,NaN,1229.3224705,1229.340723416,1230.250727583,NaN,NaN
117,11,2,typicality,0,bathroom,sun_avhrdrntsqrjzccq.tif,165,1.5,0,1.26666666666667,1230.255229666,1233.589671041,1,NaN,1233.594884166,1233.61322,1234.873275,NaN,NaN
117,12,2,typicality,0,bathroom,sun_aqrpegblszgcoujh.tif,158,1.5,0,0.933333333333333,1234.888377791,1237.301972333,3,NaN,1237.307367916,1237.325542958,1238.252214583,NaN,NaN
117,13,2,typicality,0,bathroom,sun_ambriybtogmepttm.tif,146,1.5,0,1,1238.256751,1241.421748666,1,NaN,1241.428582708,1241.447033,1242.440371416,NaN,NaN
117,14,2,typicality,0,bathroom,sun_acgyywnybuveqsro.tif,128,1.5,0,1,1242.444913041,1246.549649166,3,NaN,1246.554779291,1246.573105875,1247.5664445,NaN,NaN
117,15,2,typicality,0,bathroom,sun_aggnnqpdorgxpvce.tif,131,1.5,0,1.21666666666667,1247.584417958,1250.516543,2,NaN,1250.538107083,1250.560371208,1251.770409375,NaN,NaN
117,16,2,typicality,0,bathroom,sun_apjevzvycyhuqghb.tif,153,1.5,0,1.85,1251.781471333,1255.237421,1,NaN,1255.242703916,1255.261177375,1257.104568583,NaN,NaN
117,17,2,typicality,0,bathroom,sun_aspsyogrekjtfozg.tif,160,1.5,0,0.766666666666667,1257.121985791,1260.19730675,1,NaN,1260.225777625,1260.249077958,1261.009083083,NaN,NaN
117,18,2,typicality,0,bathroom,sun_axxbkopsgyouuebh.tif,168,1.5,0,0.966666666666667,1261.017704333,1264.086164666,6,NaN,1264.108679166,1264.128730416,1265.08873525,NaN,NaN
117,19,2,typicality,0,bathroom,sun_ahaulkltgpkeeemi.tif,136,1.5,0,1.4,1265.093155125,1268.277040333,7,NaN,1268.28257975,1268.301698833,1269.695090125,NaN,NaN
117,20,2,typicality,0,bathroom,sun_apynckhmoftszqoq.tif,157,1.5,0,0.933333333333333,1269.713329958,1273.381065333,6,NaN,1273.386503125,1273.404731666,1274.331403041,NaN,NaN
117,21,2,typicality,0,bathroom,sun_ahqjwnzgolcaoidx.tif,139,1.5,0,1.7,1274.336134708,1277.437840958,5,NaN,1277.447786,1277.466888208,1279.160275333,NaN,NaN
117,22,2,typicality,0,bathroom,sun_ahcvzmoyaycdoftf.tif,137,1.5,0,0.916666666666667,1279.174824291,1282.361441041,4,NaN,1282.385974291,1282.4069925,1283.316998375,NaN,NaN
117,23,2,typicality,0,bathroom,sun_ausgutylgojavyoq.tif,163,1.5,0,0.833333333333333,1283.321569625,1288.468953416,5,NaN,1288.474260041,1288.492589583,1289.319260958,NaN,NaN
117,24,2,typicality,0,bathroom,sun_azqyogdvyhahyram.tif,170,1.5,0,0.783333333333333,1289.323625625,1292.057012083,7,NaN,1292.082014208,1292.10492575,1292.881596125,NaN,NaN
117,25,2,typicality,0,bathroom,sun_atstyziqcmkahyxk.tif,161,1.5,0,1.4,1292.886001083,1295.81961825,6,NaN,1295.844740125,1295.869386125,1297.262766625,NaN,NaN
