sub_num,trial,block,task,is_practice,category,image,texture,duration,mask_dur,jitter,stim_time,time_of_resp,trial_response,mask_time,fix_time,jit_onset,trial_end,trial_accuracy,RT
118,1,22,categorization,0,bathroom,SHINEd_sun_ausgutylgojavyoq.tif,53,0.0666666666666667,0.0666666666666667,1.25,24289.633353666,24290.42306475,13,24289.695671916,24289.756041458,24290.441747541,24291.685147583,1,0.789711084002192
118,2,22,categorization,0,bathroom,SHINEd_sun_axldvoqbuvuggfmq.tif,57,0.0666666666666667,0.0666666666666667,1.81666666666667,24291.703312125,24292.36320125,9,24291.769783833,24291.8360275,24292.392565583,24294.20260725,0,0.659889124999609
118,3,22,categorization,0,kitchen,SHINEd_labelme_kxvouciolcpqplr.tif,62,0.0666666666666667,0.0666666666666667,1.38333333333333,24294.221019875,24294.731882791,9,24294.287252166,24294.354018708,24294.74169475,24296.118415166,1,0.510862915998587
118,4,22,categorization,0,kitchen,SHINEd_sun_amjjdeyrggfqgmom.tif,100,0.0666666666666667,0.0666666666666667,1.16666666666667,24296.133170333,24296.449238166,13,24296.1996475,24296.2657855,24296.472082916,24297.632146833,0,0.316067832998669
118,5,22,categorization,0,bathroom,SHINEd_sun_acgyywnybuveqsro.tif,18,0.0666666666666667,0.0666666666666667,1.28333333333333,24297.64794475,24297.958748916,9,24297.71447675,24297.780646208,24297.966470125,24299.243195,0,0.310804166001617
118,6,22,categorization,0,bathroom,SHINEd_sun_azqyogdvyhahyram.tif,60,0.0666666666666667,0.0666666666666667,0.716666666666667,24299.260477333,24299.380864375,9,24299.327231083,24299.394018291,24299.416893791,24300.126942291,0,0.120387042003131
118,7,22,categorization,0,bathroom,SHINEd_sun_aghyqhbptboemmoq.tif,23,0.0666666666666667,0.0666666666666667,0.75,24300.141111041,24300.480935166,9,24300.207202916,24300.273511208,24300.495915458,24301.239254333,0,0.339824124999723
118,8,22,categorization,0,bathroom,SHINEd_sun_akiytfaagpdsphgz.tif,31,0.0666666666666667,0.0666666666666667,1.26666666666667,24301.244834916,24301.510238125,13,24301.306570875,24301.367424375,24301.519201916,24302.779248708,1,0.265403208999487
118,9,22,categorization,0,bathroom,SHINEd_sun_alotolagknyrgtsk.tif,35,0.0666666666666667,0.0666666666666667,1.31666666666667,24302.79670125,24305.952202083,13,24302.863893625,24302.929048541,24305.969157458,24307.279220125,1,3.15550083299968
118,10,22,categorization,0,kitchen,SHINEd_sun_admlmbcdswaszruo.tif,79,0.0666666666666667,0.0666666666666667,1.28333333333333,24307.296049333,24307.955953541,9,24307.362997583,24307.42859525,24307.985094625,24309.261806333,1,0.659904208001535
118,11,22,categorization,0,bathroom,SHINEd_sun_acduarbnmmoglmiv.tif,16,0.0666666666666667,0.0666666666666667,0.95,24309.275733416,24309.840700291,9,24309.342569166,24309.408210166,24309.864811791,24310.808191416,0,0.564966874997481
118,12,22,categorization,0,bathroom,SHINEd_sun_auzqhkafidnkrwmo.tif,54,0.0666666666666667,0.0666666666666667,1.21666666666667,24310.823756333,24311.518386708,9,24310.890385416,24310.956303375,24311.524890333,24312.734929125,0,0.694630375000997
118,13,22,categorization,0,kitchen,SHINEd_sun_abrcnpqqhmjwekyf.tif,73,0.0666666666666667,0.0666666666666667,1.15,24312.752025625,24313.32890725,9,24312.818510333,24312.88465925,24313.3575505,24314.5009415,1,0.576881625001988
118,14,22,categorization,0,kitchen,SHINEd_sun_abdenxonkemggwsq.tif,69,0.0666666666666667,0.0666666666666667,0.916666666666667,24314.518397,24315.022664541,13,24314.580874791,24314.641030791,24315.026265208,24315.936270416,0,0.504267541000445
118,15,22,categorization,0,kitchen,SHINEd_sun_ahywdevtimnqcsln.tif,94,0.0666666666666667,0.0666666666666667,1.86666666666667,24315.941277916,24316.350123916,9,24316.002910375,24316.063990666,24316.365745208,24318.225785833,1,0.408845999998448
118,16,22,categorization,0,kitchen,SHINEd_sun_axyyrmzcupyhlivc.tif,107,0.0666666666666667,0.0666666666666667,0.766666666666667,24318.245287708,24318.839684125,9,24318.311885916,24318.377689708,24318.867765666,24319.627770125,1,0.594396417000098
118,17,22,categorization,0,bathroom,SHINEd_sun_apkruvsevgegsdwp.tif,44,0.0666666666666667,0.0666666666666667,1.96666666666667,24319.63351075,24320.046269083,9,24319.695333666,24319.756127375,24320.057845333,24322.017883916,0,0.412758332997328
118,18,22,categorization,0,kitchen,SHINEd_sun_aymvwlarqodbwuoc.tif,108,0.0666666666666667,0.0666666666666667,0.716666666666667,24322.032347125,24322.624708041,9,24322.099067666,24322.1648765,24322.654745375,24323.36475075,1,0.592360915998142
118,19,22,categorization,0,kitchen,SHINEd_sun_akchetnepxlcxhsu.tif,98,0.0666666666666667,0.0666666666666667,0.9,24323.371136041,24323.862070833,9,24323.432901375,24323.493645541,24323.878725375,24324.772062625,1,0.490934792000189
118,20,22,categorization,0,bathroom,SHINEd_sun_aljolscmmzydegqp.tif,33,0.0666666666666667,0.0666666666666667,0.866666666666667,24324.776916625,24325.110192291,13,24324.838498208,24324.899418083,24325.117964625,24325.977969666,1,0.333275665998372
118,21,22,categorization,0,kitchen,SHINEd_sun_ahspylgoovwmwvgk.tif,93,0.0666666666666667,0.0666666666666667,0.8,24325.982206375,24326.318202708,13,24326.043829541,24326.104873458,24326.323419875,24327.11675775,0,0.335996333000367
118,22,22,categorization,0,kitchen,SHINEd_sun_aapllqyqlykszopd.tif,66,0.0666666666666667,0.0666666666666667,0.966666666666667,24327.121423583,24327.662833666,9,24327.183509166,24327.243966208,24327.679141625,24328.639146458,1,0.541410082998482
118,23,22,categorization,0,bathroom,SHINEd_sun_aavhrsfjbserjtht.tif,13,0.0666666666666667,0.0666666666666667,0.983333333333333,24328.644123166,24329.302552916,9,24328.705882416,24328.766770583,24329.318950416,24330.295621625,0,0.658429750001233
118,24,22,categorization,0,kitchen,SHINEd_sun_aypmqwcualkenuoe.tif,109,0.0666666666666667,0.0666666666666667,0.75,24330.301071916,24330.830011208,9,24330.362846833,24330.423683916,24330.842139708,24331.585476291,1,0.52893929199854
118,25,22,categorization,0,kitchen,SHINEd_sun_abpwyqmlzafvklqo.tif,72,0.0666666666666667,0.0666666666666667,1.35,24331.590445708,24332.150639625,13,24331.652151208,24331.713075208,24332.164957333,24333.508324666,0,0.560193917001016
118,26,22,categorization,0,kitchen,SHINEd_sun_acwjdupvyjsugpay.tif,76,0.0666666666666667,0.0666666666666667,0.7,24333.51806325,24333.9979005,9,24333.584465291,24333.650451625,24334.0234195,24334.7168015,1,0.479837249997217
118,27,22,categorization,0,kitchen,SHINEd_sun_aixorpehvfykdynp.tif,95,0.0666666666666667,0.0666666666666667,1.36666666666667,24334.731434416,24335.247138208,9,24334.797753916,24334.8637835,24335.266273958,24336.626328541,1,0.51570379199984
118,28,22,categorization,0,kitchen,SHINEd_sun_auaiucuqpdausiva.tif,102,0.0666666666666667,0.0666666666666667,1.88333333333333,24336.643752291,24337.230302125,9,24336.710966208,24336.776457416,24337.248366,24339.125080208,1,0.586549834002653
118,29,22,categorization,0,bathroom,SHINEd_sun_aclfzgynxzxlbepz.tif,19,0.0666666666666667,0.0666666666666667,1.76666666666667,24339.140512791,24339.62960625,13,24339.20754175,24339.2733405,24339.64654975,24341.40660625,1,0.489093459000287
118,30,22,categorization,0,kitchen,SHINEd_sun_acfmftudsenhrfhy.tif,74,0.0666666666666667,0.0666666666666667,1.9,24341.422136958,24342.221817708,9,24341.487644125,24341.553381791,24342.24339025,24344.136782291,1,0.799680749998515
118,31,22,categorization,0,bathroom,SHINEd_sun_agguqiubmwhqqunb.tif,22,0.0666666666666667,0.0666666666666667,1.05,24344.156105083,24344.732018458,9,24344.22343775,24344.289091375,24344.763209333,24345.806583958,0,0.5759133749998
118,32,22,categorization,0,kitchen,SHINEd_sun_aarfiyshqohlwkmo.tif,67,0.0666666666666667,0.0666666666666667,1.15,24345.817551375,24346.373679625,9,24345.882189875,24345.948946041,24346.388211541,24347.531599208,1,0.556128250002075
118,33,22,categorization,0,kitchen,SHINEd_sun_awcpdzzznmweyyhv.tif,106,0.0666666666666667,0.0666666666666667,1.5,24347.542487208,24348.006592,13,24347.609656875,24347.6751715,24348.011015416,24349.504388583,0,0.464104792001308
118,34,22,categorization,0,bathroom,SHINEd_sun_agrwbmhcpmfuwmsg.tif,24,0.0666666666666667,0.0666666666666667,0.983333333333333,24349.514608,24349.635072,9,24349.580943791,24349.647728875,24349.670420583,24350.64714275,0,0.120463999999629
118,35,22,categorization,0,bathroom,SHINEd_sun_aqrpegblszgcoujh.tif,48,0.0666666666666667,0.0666666666666667,1.36666666666667,24350.661020333,24351.405845208,9,24350.727833541,24350.793241416,24351.412324916,24352.772380291,0,0.744824875000631
118,36,22,categorization,0,kitchen,SHINEd_sun_abdxkyyxwfskuaqb.tif,70,0.0666666666666667,0.0666666666666667,1.28333333333333,24352.790333958,24353.332115291,9,24352.857364,24352.923503291,24353.345794666,24354.62251,1,0.541781332998653
118,37,22,categorization,0,bathroom,SHINEd_sun_agyqfjcfkdcydepw.tif,25,0.0666666666666667,0.0666666666666667,0.916666666666667,24354.639985208,24355.147383458,9,24354.706400541,24354.772673208,24355.161592125,24356.071651958,0,0.507398249999824
118,38,22,categorization,0,bathroom,SHINEd_labelme_sfxiulhjbhlyiyt.tif,11,0.0666666666666667,0.0666666666666667,0.883333333333333,24356.089403583,24356.576347666,13,24356.156265375,24356.222016833,24356.592074208,24357.468746541,1,0.486944083000708
118,39,22,categorization,0,bathroom,SHINEd_sun_acegryoqftbzowsg.tif,17,0.0666666666666667,0.0666666666666667,1.71666666666667,24357.473596666,24357.941803541,9,24357.535314583,24357.596228541,24357.947937791,24359.6579945,0,0.46820687500076
118,40,22,categorization,0,bathroom,SHINEd_sun_awnqiikzaispgmwo.tif,56,0.0666666666666667,0.0666666666666667,1.01666666666667,24359.675461833,24360.049356375,13,24359.742111041,24359.807907375,24360.063806541,24361.073852833,1,0.373894541997288
118,41,22,categorization,0,bathroom,SHINEd_sun_alkosphxlxwjwgjd.tif,34,0.0666666666666667,0.0666666666666667,1.58333333333333,24361.084467916,24361.36599875,9,24361.149056708,24361.215664833,24361.389260583,24362.96597575,0,0.281530833999568
118,42,22,categorization,0,bathroom,SHINEd_sun_aunuadmjocsddsrl.tif,52,0.0666666666666667,0.0666666666666667,0.783333333333333,24362.983066083,24363.341995333,9,24363.049612916,24363.115316458,24363.351273958,24364.127945,0,0.358929250000074
118,43,22,categorization,0,bathroom,SHINEd_sun_avhrdrntsqrjzccq.tif,55,0.0666666666666667,0.0666666666666667,0.916666666666667,24364.132296166,24364.534662166,13,24364.194018083,24364.25492475,24364.539983666,24365.449987291,1,0.402365999998437
118,44,22,categorization,0,kitchen,SHINEd_sun_afuyedyxivkhecmu.tif,85,0.0666666666666667,0.0666666666666667,0.75,24365.454987041,24365.766341125,9,24365.516687666,24365.577592625,24365.779420125,24366.522759083,1,0.311354083998594
118,45,22,categorization,0,bathroom,SHINEd_sun_amzlamotzwfkwjco.tif,37,0.0666666666666667,0.0666666666666667,1.46666666666667,24366.527246458,24366.830679708,9,24366.58894625,24366.649852541,24366.835026166,24368.295062583,0,0.303433249999216
118,46,22,categorization,0,kitchen,SHINEd_labelme_brsyyvweiuaazfr.tif,61,0.0666666666666667,0.0666666666666667,0.833333333333333,24368.31265975,24370.157950916,13,24368.379482166,24368.445509375,24370.165209625,24370.991879833,0,1.84529116599879
118,47,22,categorization,0,kitchen,SHINEd_sun_agorklincwxrdtga.tif,87,0.0666666666666667,0.0666666666666667,1.15,24370.997541291,24371.406681083,9,24371.059344,24371.120170833,24371.422134875,24372.565522416,1,0.409139792001952
118,48,22,categorization,0,bathroom,SHINEd_sun_ahijqszoswveeyji.tif,28,0.0666666666666667,0.0666666666666667,1.1,24372.574775791,24373.070372708,9,24372.641261583,24372.707425708,24373.097381291,24374.190767958,0,0.495596917000512
118,49,22,categorization,0,bathroom,SHINEd_sun_atstyziqcmkahyxk.tif,51,0.0666666666666667,0.0666666666666667,1.15,24374.208332333,24374.328782208,9,24374.275095916,24374.341544583,24374.364631208,24375.508015583,0,0.120449874997576
118,50,22,categorization,0,kitchen,SHINEd_sun_agubuxuukhzyzpdp.tif,88,0.0666666666666667,0.0666666666666667,0.766666666666667,24375.518126875,24375.7753155,13,24375.582723833,24375.650420666,24375.788723041,24376.548772125,0,0.257188625000708
