sub_num,trial,block,task,is_practice,category,image,texture,duration,mask_dur,jitter,stim_time,time_of_resp,trial_response,mask_time,fix_time,jit_onset,trial_end,trial_accuracy,RT
201,1,2,categorization,0,bathroom,SHINEd_sun_aleqenyvunhactkl.tif,32,0.0666666666666667,0.0666666666666667,0.95,4120.892145,4121.578772833,13,4120.953857041,4121.015134041,4121.583711291,4122.527052708,NaN,NaN
201,2,2,categorization,0,kitchen,SHINEd_sun_aexklacwqwezaorf.tif,84,0.0666666666666667,0.0666666666666667,0.75,4122.5318955,4123.426719208,9,4122.5936925,4122.654564916,4123.44004125,4124.183385416,NaN,NaN
201,3,2,categorization,0,kitchen,SHINEd_sun_awcpdzzznmweyyhv.tif,106,0.0666666666666667,0.0666666666666667,1.68333333333333,4124.188126833,4125.387019833,9,4124.249768458,4124.310831333,4125.396045458,4127.072817541,NaN,NaN
201,4,2,categorization,0,bathroom,SHINEd_sun_anryaplzeujmzfkd.tif,39,0.0666666666666667,0.0666666666666667,0.816666666666667,4127.087657791,4127.869647,9,4127.154481083,4127.220776166,4127.894196791,4128.704206583,NaN,NaN
201,5,2,categorization,0,bathroom,SHINEd_sun_aofnryafpsjimzsb.tif,40,0.0666666666666667,0.0666666666666667,0.916666666666667,4128.709084083,4129.41877075,13,4128.770815083,4128.831812041,4129.433568458,4130.34357425,NaN,NaN
201,6,2,categorization,0,kitchen,SHINEd_sun_abrcnpqqhmjwekyf.tif,73,0.0666666666666667,0.0666666666666667,1.21666666666667,4130.348497041,4131.098917333,9,4130.410223041,4130.47113475,4131.106176166,4132.316235583,NaN,NaN
201,7,2,categorization,0,bathroom,SHINEd_sun_aavhrsfjbserjtht.tif,13,0.0666666666666667,0.0666666666666667,0.9,4132.332055916,4132.912758125,13,4132.398243,4132.464632291,4132.938064083,4133.831494833,NaN,NaN
201,8,2,categorization,0,kitchen,SHINEd_sun_abdenxonkemggwsq.tif,69,0.0666666666666667,0.0666666666666667,1.65,4133.848007958,4134.523356166,9,4133.914479458,4133.977754166,4134.529909125,4136.173343708,NaN,NaN
201,9,2,categorization,0,kitchen,SHINEd_sun_aggjlwcdjsjcaemh.tif,86,0.0666666666666667,0.0666666666666667,1.15,4136.190554958,4136.791437708,9,4136.255824541,4136.323487333,4136.813138041,4137.956570291,NaN,NaN
201,10,2,categorization,0,bathroom,SHINEd_sun_aqrpegblszgcoujh.tif,48,0.0666666666666667,0.0666666666666667,1.13333333333333,4137.966306,4138.654129833,13,4138.031414416,4138.09890675,4138.6715945,4139.798326958,NaN,NaN
201,11,2,categorization,0,bathroom,SHINEd_sun_aggnnqpdorgxpvce.tif,21,0.0666666666666667,0.0666666666666667,1.76666666666667,4139.815824208,4140.474842541,9,4139.878580791,4139.938620958,4140.49038425,4142.250539208,NaN,NaN
201,12,2,categorization,0,kitchen,SHINEd_labelme_kxvouciolcpqplr.tif,62,0.0666666666666667,0.0666666666666667,1.8,4142.261794916,4142.887493625,9,4142.328507791,4142.393096416,4142.916229875,4144.709640083,NaN,NaN
201,13,2,categorization,0,kitchen,SHINEd_sun_aegoxogugdkwpmpj.tif,80,0.0666666666666667,0.0666666666666667,0.9,4144.727668083,4145.51151325,9,4144.794591083,4144.860312875,4145.533855166,4146.427197166,NaN,NaN
201,14,2,categorization,0,bathroom,SHINEd_sun_agrwbmhcpmfuwmsg.tif,24,0.0666666666666667,0.0666666666666667,0.716666666666667,4146.431987375,4147.33897775,13,4146.493683125,4146.554958791,4147.356728041,4148.066738125,NaN,NaN
201,15,2,categorization,0,bathroom,SHINEd_sun_akiytfaagpdsphgz.tif,31,0.0666666666666667,0.0666666666666667,1.36666666666667,4148.071542791,4148.643062166,13,4148.133179583,4148.194236875,4148.662602541,4150.022692958,NaN,NaN
201,16,2,categorization,0,bathroom,SHINEd_sun_avhrdrntsqrjzccq.tif,55,0.0666666666666667,0.0666666666666667,0.916666666666667,4150.040030166,4150.733548291,9,4150.106499625,4150.173342541,4150.763116958,4151.673241375,NaN,NaN
201,17,2,categorization,0,bathroom,SHINEd_sun_awnqiikzaispgmwo.tif,56,0.0666666666666667,0.0666666666666667,0.716666666666667,4151.685085083,4152.298303208,13,4151.746898208,4151.807899583,4152.309713666,4153.019721541,NaN,NaN
201,18,2,categorization,0,bathroom,SHINEd_sun_abjtwfukuwddzted.tif,15,0.0666666666666667,0.0666666666666667,0.766666666666667,4153.024425375,4153.690629541,13,4153.086045625,4153.147044791,4153.698814166,4154.458823,NaN,NaN
201,19,2,categorization,0,kitchen,SHINEd_sun_aadbddgrdsjugojn.tif,64,0.0666666666666667,0.0666666666666667,1.06666666666667,4154.463652375,4155.307200125,9,4154.525492666,4154.586317,4155.321492958,4156.381584083,NaN,NaN
201,20,2,categorization,0,kitchen,SHINEd_sun_abdxkyyxwfskuaqb.tif,70,0.0666666666666667,0.0666666666666667,0.8,4156.39000225,4157.023048666,9,4156.454356916,4156.521488125,4157.044106958,4157.837505958,NaN,NaN
201,21,2,categorization,0,kitchen,SHINEd_sun_ahpczsiumwwocjkv.tif,92,0.0666666666666667,0.0666666666666667,0.866666666666667,4157.853176708,4158.45841425,9,4157.919933208,4157.981334125,4158.466798791,4159.326805791,NaN,NaN
201,22,2,categorization,0,bathroom,SHINEd_sun_aapitsgbtktqubfy.tif,12,0.0666666666666667,0.0666666666666667,1.48333333333333,4159.331404125,4159.97877125,13,4159.393113791,4159.454177416,4159.989502541,4161.466261041,NaN,NaN
201,23,2,categorization,0,kitchen,SHINEd_sun_abpwyqmlzafvklqo.tif,72,0.0666666666666667,0.0666666666666667,1.1,4161.486563125,4162.168498333,9,4161.553638041,4161.61982075,4162.192956375,4163.286356625,NaN,NaN
201,24,2,categorization,0,kitchen,SHINEd_sun_acfmftudsenhrfhy.tif,74,0.0666666666666667,0.0666666666666667,0.783333333333333,4163.295623416,4164.36077625,9,4163.360068,4163.4275855,4164.384087125,4165.160815291,NaN,NaN
201,25,2,categorization,0,kitchen,SHINEd_sun_aqeaevwwwjoqhzvl.tif,101,0.0666666666666667,0.0666666666666667,0.866666666666667,4165.17706975,4165.906929083,9,4165.244286125,4165.303223,4165.921716875,4166.781723791,NaN,NaN
201,26,2,categorization,0,kitchen,SHINEd_sun_akcjzhbbjlbogpdi.tif,99,0.0666666666666667,0.0666666666666667,1.83333333333333,4166.7864715,4167.458492083,9,4166.84826275,4166.909237791,4167.477727625,4169.304470041,NaN,NaN
201,27,2,categorization,0,bathroom,SHINEd_sun_apynckhmoftszqoq.tif,47,0.0666666666666667,0.0666666666666667,0.7,4169.318840916,4170.0299285,13,4169.385548708,4169.452274083,4170.058872375,4170.752212666,NaN,NaN
201,28,2,categorization,0,bathroom,SHINEd_sun_ajlawzvmubibwbpy.tif,30,0.0666666666666667,0.0666666666666667,1.33333333333333,4170.757027375,4171.810953375,13,4170.818691041,4170.879675,4171.815008,4173.141750416,NaN,NaN
201,29,2,categorization,0,kitchen,SHINEd_sun_akchetnepxlcxhsu.tif,98,0.0666666666666667,0.0666666666666667,1.33333333333333,4173.160091125,4174.239191791,9,4173.22667575,4173.293047333,4174.267560416,4175.5943085,NaN,NaN
201,30,2,categorization,0,bathroom,SHINEd_sun_abapwbhyhkfixyex.tif,14,0.0666666666666667,0.0666666666666667,1.38333333333333,4175.611611708,4176.646803583,9,4175.67822,4175.744363375,4176.667289166,4178.044025416,NaN,NaN
201,31,2,categorization,0,kitchen,SHINEd_sun_adgqasybjyktddhj.tif,78,0.0666666666666667,0.0666666666666667,1.25,4178.061599333,4178.79867025,9,4178.128245083,4178.194404166,4178.817294875,4180.060707875,NaN,NaN
201,32,2,categorization,0,bathroom,SHINEd_sun_apeeialkgkuxddgh.tif,42,0.0666666666666667,0.0666666666666667,1.55,4180.078995166,4180.706415583,13,4180.145792375,4180.212133458,4180.735234875,4182.278626375,NaN,NaN
201,33,2,categorization,0,kitchen,SHINEd_sun_abftihopvusyfakt.tif,71,0.0666666666666667,0.0666666666666667,1.61666666666667,4182.295793875,4182.951862083,9,4182.362719791,4182.42842075,4182.96755,4184.577623958,NaN,NaN
201,34,2,categorization,0,bathroom,SHINEd_sun_aljolscmmzydegqp.tif,33,0.0666666666666667,0.0666666666666667,1.33333333333333,4184.594803291,4186.019728416,9,4184.661842958,4184.727632166,4186.035615666,4187.362409625,NaN,NaN
201,35,2,categorization,0,bathroom,SHINEd_sun_ahijqszoswveeyji.tif,28,0.0666666666666667,0.0666666666666667,0.833333333333333,4187.375740166,4188.575745666,9,4187.442572791,4187.508790041,4188.598775416,4189.4254525,NaN,NaN
201,36,2,categorization,0,kitchen,SHINEd_sun_aenotlpyftoioydp.tif,82,0.0666666666666667,0.0666666666666667,1.45,4189.430136166,4190.194409666,9,4189.491910291,4189.55278975,4190.204685625,4191.648108375,NaN,NaN
201,37,2,categorization,0,kitchen,SHINEd_sun_aypmqwcualkenuoe.tif,109,0.0666666666666667,0.0666666666666667,0.933333333333333,4191.666898166,4192.998418166,9,4191.733664083,4191.79984375,4193.02454375,4193.951216791,NaN,NaN
201,38,2,categorization,0,bathroom,SHINEd_sun_ahcvzmoyaycdoftf.tif,27,0.0666666666666667,0.0666666666666667,1.65,4193.956046333,4194.475040083,13,4194.01780175,4194.078672,4194.480440375,4196.123911416,NaN,NaN
201,39,2,categorization,0,kitchen,SHINEd_sun_aunzlwrbjumxhwdj.tif,103,0.0666666666666667,0.0666666666666667,1.23333333333333,4196.14264325,4196.933883875,9,4196.209238333,4196.276091541,4196.948397833,4198.175152708,NaN,NaN
201,40,2,categorization,0,bathroom,SHINEd_sun_ahaulkltgpkeeemi.tif,26,0.0666666666666667,0.0666666666666667,0.766666666666667,4198.193320583,4198.780503583,13,4198.260149666,4198.326131833,4198.798916416,4199.559003583,NaN,NaN
201,41,2,categorization,0,bathroom,SHINEd_sun_axldvoqbuvuggfmq.tif,57,0.0666666666666667,0.0666666666666667,1.78333333333333,4199.575159416,4200.114742333,13,4199.641502125,4199.706323625,4200.125275083,4201.902012125,NaN,NaN
201,42,2,categorization,0,kitchen,SHINEd_sun_aapllqyqlykszopd.tif,66,0.0666666666666667,0.0666666666666667,1.11666666666667,4201.919697916,4202.491398375,13,4201.983597625,4202.052642333,4202.508497208,4203.618590916,NaN,NaN
201,43,2,categorization,0,kitchen,SHINEd_sun_aeqdocilnnpuvuhx.tif,83,0.0666666666666667,0.0666666666666667,1.85,4203.627232166,4204.507883291,9,4203.692350958,4203.759882291,4204.532734375,4206.376166208,NaN,NaN
201,44,2,categorization,0,kitchen,SHINEd_sun_ajkqhtgcbgpcwrwn.tif,97,0.0666666666666667,0.0666666666666667,0.733333333333333,4206.393364875,4207.274858958,9,4206.460106375,4206.526325041,4207.300429,4208.02710525,NaN,NaN
201,45,2,categorization,0,bathroom,SHINEd_sun_azqyogdvyhahyram.tif,60,0.0666666666666667,0.0666666666666667,0.783333333333333,4208.031931166,4208.666139,13,4208.093679666,4208.154735958,4208.673206666,4209.449879833,NaN,NaN
201,46,2,categorization,0,kitchen,SHINEd_sun_axyyrmzcupyhlivc.tif,107,0.0666666666666667,0.0666666666666667,1.5,4209.454626,4210.194724833,9,4209.516354291,4209.577446,4210.212363291,4211.705764333,NaN,NaN
201,47,2,categorization,0,kitchen,SHINEd_labelme_rykdqxenmhulbdn.tif,63,0.0666666666666667,0.0666666666666667,0.733333333333333,4211.723814791,4212.529822416,9,4211.790701166,4211.856581041,4212.544995166,4213.271677125,NaN,NaN
201,48,2,categorization,0,bathroom,SHINEd_sun_auzqhkafidnkrwmo.tif,54,0.0666666666666667,0.0666666666666667,1.1,4213.277287916,4213.834627125,13,4213.338943208,4213.400082083,4213.851902916,4214.94533475,NaN,NaN
201,49,2,categorization,0,bathroom,SHINEd_sun_aunuadmjocsddsrl.tif,52,0.0666666666666667,0.0666666666666667,1.6,4214.953511291,4215.4712175,13,4215.018224791,4215.086017291,4215.492914958,4217.086314083,NaN,NaN
201,50,2,categorization,0,bathroom,SHINEd_sun_amzlamotzwfkwjco.tif,37,0.0666666666666667,0.0666666666666667,1.06666666666667,4217.104203,4217.931123125,9,4217.171319166,4217.237279083,4217.960659375,4219.020724666,NaN,NaN
