sub_num,trial,block,task,is_practice,category,image,texture,duration,mask_dur,jitter,stim_time,time_of_resp,trial_response,mask_time,fix_time,jit_onset,trial_end,trial_accuracy,RT
125,1,3,categorization,0,bathroom,SHINEd_sun_abapwbhyhkfixyex.tif,14,0.0666666666666667,0.0666666666666667,0.85,6513.817773167,6514.806174625,9,6513.880184625,6513.940537875,6514.825855042,6515.669193792,0,0.988401457999316
125,2,3,categorization,0,kitchen,SHINEd_sun_auaiucuqpdausiva.tif,102,0.0666666666666667,0.0666666666666667,1.65,6515.67413975,6516.670240625,9,6515.736252417,6515.796931459,6516.6826805,6518.326067125,1,0.996100874999684
125,3,3,categorization,0,bathroom,SHINEd_sun_aghyqhbptboemmoq.tif,23,0.0666666666666667,0.0666666666666667,0.783333333333333,6518.344928292,6519.168527084,9,6518.412098625,6518.478110417,6519.184468625,6519.961139042,0,0.823598791999757
125,4,3,categorization,0,bathroom,SHINEd_sun_ausgutylgojavyoq.tif,53,0.0666666666666667,0.0666666666666667,0.933333333333333,6519.966260209,6521.718450334,9,6520.028059,6520.088985334,6521.724771667,6522.65144325,0,1.7521901250002
125,5,3,categorization,0,bathroom,SHINEd_sun_ambriybtogmepttm.tif,36,0.0666666666666667,0.0666666666666667,0.866666666666667,6522.656376625,6523.894994459,9,6522.718164917,6522.779069834,6523.914300542,6524.774305292,0,1.23861783400025
125,6,3,categorization,0,bathroom,SHINEd_sun_axyrejkiiaqiurjk.tif,59,0.0666666666666667,0.0666666666666667,1.11666666666667,6524.778621209,6525.97495825,9,6524.840530292,6524.901313792,6525.986597709,6527.096638667,0,1.19633704099942
125,7,3,categorization,0,bathroom,SHINEd_sun_acgyywnybuveqsro.tif,18,0.0666666666666667,0.0666666666666667,0.966666666666667,6527.1062995,6528.34985025,9,6527.171324709,6527.23884475,6528.382198542,6529.342203084,0,1.24355074999949
125,8,3,categorization,0,bathroom,SHINEd_sun_aapitsgbtktqubfy.tif,12,0.0666666666666667,0.0666666666666667,1.78333333333333,6529.347187167,6530.78298175,9,6529.409144542,6529.470008709,6530.789159917,6532.565860459,0,1.43579458299973
125,9,3,categorization,0,kitchen,SHINEd_sun_aeqdocilnnpuvuhx.tif,83,0.0666666666666667,0.0666666666666667,1.55,6532.583164417,6534.030511084,9,6532.650057375,6532.716295792,6534.03570375,6535.579092709,1,1.44734666699969
125,10,3,categorization,0,bathroom,SHINEd_sun_acegryoqftbzowsg.tif,17,0.0666666666666667,0.0666666666666667,1.41666666666667,6535.598787167,6536.578177292,9,6535.665744,6535.731526125,6536.604666584,6538.01471,0,0.979390124999554
125,11,3,categorization,0,bathroom,SHINEd_sun_ahcvzmoyaycdoftf.tif,27,0.0666666666666667,0.0666666666666667,0.8,6538.030046334,6539.033728917,13,6538.096731375,6538.163011292,6539.052465417,6539.845802875,1,1.00368258300023
125,12,3,categorization,0,kitchen,SHINEd_sun_aypmqwcualkenuoe.tif,109,0.0666666666666667,0.0666666666666667,1.28333333333333,6539.850730042,6540.943007084,9,6539.912519417,6539.973519542,6540.958633542,6542.235349334,1,1.09227704200021
125,13,3,categorization,0,kitchen,SHINEd_sun_aixorpehvfykdynp.tif,95,0.0666666666666667,0.0666666666666667,1.66666666666667,6542.25121225,6543.251627375,9,6542.319890875,6542.384160792,6543.274788167,6544.934837334,1,1.00041512499956
125,14,3,categorization,0,bathroom,SHINEd_sun_aoybiabnpadelefl.tif,41,0.0666666666666667,0.0666666666666667,1.81666666666667,6544.953856292,6546.311307584,9,6545.020806209,6545.084983334,6546.321437917,6548.131484667,0,1.35745129200041
125,15,3,categorization,0,bathroom,SHINEd_sun_alotolagknyrgtsk.tif,35,0.0666666666666667,0.0666666666666667,1.35,6548.151237292,6550.558474084,9,6548.218599375,6548.284847417,6550.570953667,6551.914334542,0,2.40723679200073
125,16,3,categorization,0,kitchen,SHINEd_sun_avszsnwsbuqfgzbn.tif,105,0.0666666666666667,0.0666666666666667,0.916666666666667,6551.930547959,6552.768356417,9,6551.997576917,6552.063576334,6552.786748375,6553.696753959,1,0.837808457999927
125,17,3,categorization,0,bathroom,SHINEd_sun_awnqiikzaispgmwo.tif,56,0.0666666666666667,0.0666666666666667,0.916666666666667,6553.7019455,6554.526151542,13,6553.763679917,6553.824708125,6554.543293709,6555.453298625,1,0.824206041999787
125,18,3,categorization,0,kitchen,SHINEd_sun_aegoxogugdkwpmpj.tif,80,0.0666666666666667,0.0666666666666667,1.31666666666667,6555.458218042,6556.278249375,9,6555.519928084,6555.58104525,6556.283129584,6557.593161209,1,0.820031332999861
125,19,3,categorization,0,kitchen,SHINEd_sun_ajcbwwvdlsvjyzje.tif,96,0.0666666666666667,0.0666666666666667,1.45,6557.611084334,6558.5881755,13,6557.677287417,6557.744019417,6558.617513125,6560.060898375,0,0.977091165999809
125,20,3,categorization,0,bathroom,SHINEd_sun_aggnnqpdorgxpvce.tif,21,0.0666666666666667,0.0666666666666667,0.95,6560.080786625,6561.258266959,9,6560.147469375,6560.21421525,6561.268283459,6562.211623042,0,1.17748033400039
125,21,3,categorization,0,kitchen,SHINEd_sun_aarfiyshqohlwkmo.tif,67,0.0666666666666667,0.0666666666666667,1.38333333333333,6562.216416084,6563.302391209,9,6562.278221042,6562.339376292,6563.30775325,6564.684458209,1,1.085975125
125,22,3,categorization,0,bathroom,SHINEd_sun_auzqhkafidnkrwmo.tif,54,0.0666666666666667,0.0666666666666667,1.16666666666667,6564.701692209,6566.079607709,13,6564.768408792,6564.835050084,6566.111982292,6567.272032834,1,1.3779155000002
125,23,3,categorization,0,bathroom,SHINEd_labelme_sfxiulhjbhlyiyt.tif,11,0.0666666666666667,0.0666666666666667,1.61666666666667,6567.281796542,6568.209926542,13,6567.347013125,6567.414742125,6568.237882125,6569.847930917,1,0.928130000000237
125,24,3,categorization,0,kitchen,SHINEd_sun_admlmbcdswaszruo.tif,79,0.0666666666666667,0.0666666666666667,1.38333333333333,6569.866932834,6570.689315834,9,6569.933660875,6570.000225,6570.706274125,6572.082988584,1,0.822382999999718
125,25,3,categorization,0,kitchen,SHINEd_sun_ahywdevtimnqcsln.tif,94,0.0666666666666667,0.0666666666666667,1.78333333333333,6572.10018175,6574.3986285,9,6572.167268,6572.23353375,6574.402738209,6576.179454834,1,2.29844675000004
125,26,3,categorization,0,kitchen,SHINEd_sun_aaxxjlsuzvqlgylf.tif,68,0.0666666666666667,0.0666666666666667,0.783333333333333,6576.199010834,6577.958533375,9,6576.2658755,6576.332158709,6577.9682175,6578.744890375,1,1.75952254100048
125,27,3,categorization,0,bathroom,SHINEd_sun_asfwthctfqerjvxr.tif,49,0.0666666666666667,0.0666666666666667,1.65,6578.749863459,6581.126561667,13,6578.81156075,6578.872532459,6581.14169375,6582.785073375,1,2.37669820799965
125,28,3,categorization,0,bathroom,SHINEd_sun_apkxzenqapsujocq.tif,45,0.0666666666666667,0.0666666666666667,1.86666666666667,6582.802623792,6583.673294542,13,6582.871054209,6582.935507834,6583.691783125,6585.551827875,1,0.87067074999959
125,29,3,categorization,0,kitchen,SHINEd_sun_ahpczsiumwwocjkv.tif,92,0.0666666666666667,0.0666666666666667,1.23333333333333,6585.570378459,6586.291102209,9,6585.637547667,6585.703295959,6586.309725584,6587.5364325,1,0.720723750000616
125,30,3,categorization,0,kitchen,SHINEd_labelme_kxvouciolcpqplr.tif,62,0.0666666666666667,0.0666666666666667,0.7,6587.55348225,6588.540433959,9,6587.620557084,6587.687057792,6588.560270292,6589.253644917,1,0.986951709000095
125,31,3,categorization,0,kitchen,SHINEd_sun_aexklacwqwezaorf.tif,84,0.0666666666666667,0.0666666666666667,0.716666666666667,6589.270684167,6590.510029834,9,6589.334885334,6589.393939667,6590.529184,6591.239188709,1,1.23934566700063
125,32,3,categorization,0,bathroom,SHINEd_sun_azqyogdvyhahyram.tif,60,0.0666666666666667,0.0666666666666667,1.05,6591.244775,6592.278744209,13,6591.306506875,6591.367598959,6592.28627825,6593.329660625,1,1.03396920900013
125,33,3,categorization,0,bathroom,SHINEd_sun_axxbkopsgyouuebh.tif,58,0.0666666666666667,0.0666666666666667,1.1,6593.339301875,6594.170899542,13,6593.403655875,6593.470166709,6594.193801334,6595.287170917,1,0.831597667000096
125,34,3,categorization,0,bathroom,SHINEd_sun_acduarbnmmoglmiv.tif,16,0.0666666666666667,0.0666666666666667,1.13333333333333,6595.299706584,6596.197919917,13,6595.367004667,6595.424599209,6596.209860292,6597.336565917,1,0.898213333000058
125,35,3,categorization,0,bathroom,SHINEd_sun_apjevzvycyhuqghb.tif,43,0.0666666666666667,0.0666666666666667,1.38333333333333,6597.345861625,6598.257245834,9,6597.41103325,6597.4788915,6598.2854515,6599.662164584,0,0.911384209000062
125,36,3,categorization,0,bathroom,SHINEd_sun_apkruvsevgegsdwp.tif,44,0.0666666666666667,0.0666666666666667,1.5,6599.680753417,6600.843738084,13,6599.746986375,6599.813494834,6600.869536625,6602.362900459,1,1.16298466699936
125,37,3,categorization,0,bathroom,SHINEd_sun_ahijqszoswveeyji.tif,28,0.0666666666666667,0.0666666666666667,1.61666666666667,6602.38236475,6603.193626292,13,6602.448801667,6602.515423959,6603.222187459,6604.832240292,1,0.811261541999556
125,38,3,categorization,0,bathroom,SHINEd_sun_apmqjbnwghzuhhzh.tif,46,0.0666666666666667,0.0666666666666667,0.983333333333333,6604.85010925,6605.608142875,13,6604.917151584,6604.983368,6605.622746542,6606.599417209,1,0.75803362500028
125,39,3,categorization,0,kitchen,SHINEd_sun_akchetnepxlcxhsu.tif,98,0.0666666666666667,0.0666666666666667,1.3,6606.604565584,6607.80630325,13,6606.666219125,6606.727345125,6607.812626,6609.105996292,0,1.20173766600055
125,40,3,categorization,0,kitchen,SHINEd_sun_azmutvzbxypaceni.tif,110,0.0666666666666667,0.0666666666666667,1.03333333333333,6609.115504,6609.890171417,9,6609.18357125,6609.248487084,6609.902872709,6610.929576292,1,0.774667416999364
125,41,3,categorization,0,bathroom,SHINEd_sun_anhioqovhscjqqwb.tif,38,0.0666666666666667,0.0666666666666667,1.45,6610.939285334,6611.718475625,13,6611.003843667,6611.0723435,6611.746086167,6613.189470542,1,0.779190291000305
125,42,3,categorization,0,kitchen,SHINEd_labelme_rykdqxenmhulbdn.tif,63,0.0666666666666667,0.0666666666666667,1.23333333333333,6613.207162292,6614.344703292,9,6613.273890584,6613.336427042,6614.359360917,6615.586074209,1,1.13754100000006
125,43,3,categorization,0,bathroom,SHINEd_sun_avhrdrntsqrjzccq.tif,55,0.0666666666666667,0.0666666666666667,1.26666666666667,6615.603520417,6617.103439042,9,6615.670385292,6615.736744709,6617.127784959,6618.387825417,0,1.49991862499974
125,44,3,categorization,0,bathroom,SHINEd_sun_apeeialkgkuxddgh.tif,42,0.0666666666666667,0.0666666666666667,1.03333333333333,6618.405256,6619.200304834,13,6618.473279959,6618.538403667,6619.228295375,6620.25500825,1,0.795048834000227
125,45,3,categorization,0,kitchen,SHINEd_sun_adgqasybjyktddhj.tif,78,0.0666666666666667,0.0666666666666667,1.31666666666667,6620.266052917,6621.571410209,9,6620.330802792,6620.39888325,6621.59247575,6622.902514334,1,1.30535729199983
125,46,3,categorization,0,kitchen,SHINEd_sun_aehawpgmrlhlvcow.tif,81,0.0666666666666667,0.0666666666666667,1.7,6622.920013209,6623.890772667,9,6622.987187417,6623.053432334,6623.910510667,6625.603884,1,0.97075945800043
125,47,3,categorization,0,kitchen,SHINEd_sun_awcpdzzznmweyyhv.tif,106,0.0666666666666667,0.0666666666666667,1.35,6625.614527959,6626.919496584,13,6625.679291584,6625.74766925,6626.9399855,6628.283374375,0,1.30496862499967
125,48,3,categorization,0,bathroom,SHINEd_sun_ahqjwnzgolcaoidx.tif,29,0.0666666666666667,0.0666666666666667,0.8,6628.302618417,6634.49739325,13,6628.369908959,6628.435507667,6634.5216055,6635.314942625,1,6.19477483299943
125,49,3,categorization,0,bathroom,SHINEd_sun_aavhrsfjbserjtht.tif,13,0.0666666666666667,0.0666666666666667,0.766666666666667,6635.319151709,6637.253498292,13,6635.380921667,6635.441929959,6637.260974334,6638.02097925,1,1.93434658299975
125,50,3,categorization,0,kitchen,SHINEd_sun_abdxkyyxwfskuaqb.tif,70,0.0666666666666667,0.0666666666666667,1.38333333333333,6638.025898334,6639.094507,9,6638.087613084,6638.148708167,6639.1005345,6640.47723975,1,1.06860866599982
