sub_num,trial,block,task,is_practice,category,image,texture,duration,mask_dur,jitter,stim_time,time_of_resp,trial_response,mask_time,fix_time,jit_onset,trial_end,trial_accuracy,RT
125,1,20,categorization,0,kitchen,SHINEd_sun_aaxxjlsuzvqlgylf.tif,68,0.0666666666666667,0.0666666666666667,1.95,8499.439490709,8500.175110292,9,8499.501978292,8499.562136917,8500.180727875,8502.124098792,1,0.735619582999789
125,2,20,categorization,0,bathroom,SHINEd_sun_akiytfaagpdsphgz.tif,31,0.0666666666666667,0.0666666666666667,0.85,8502.141561417,8503.09119975,9,8502.2086355,8502.274166292,8503.111943625,8503.95528325,0,0.949638333000621
125,3,20,categorization,0,kitchen,SHINEd_sun_abrcnpqqhmjwekyf.tif,73,0.0666666666666667,0.0666666666666667,0.816666666666667,8503.961300334,8504.671241959,9,8504.022994667,8504.084020417,8504.686089542,8505.496095,1,0.709941625000283
125,4,20,categorization,0,bathroom,SHINEd_sun_apeeialkgkuxddgh.tif,42,0.0666666666666667,0.0666666666666667,0.983333333333333,8505.502832,8506.175266542,13,8505.564543709,8505.625667084,8506.194773792,8507.171445209,1,0.672434542000701
125,5,20,categorization,0,bathroom,SHINEd_sun_ausgutylgojavyoq.tif,53,0.0666666666666667,0.0666666666666667,0.75,8507.176405,8507.806827375,13,8507.238146,8507.299279334,8507.81794375,8508.56128225,1,0.630422374999398
125,6,20,categorization,0,kitchen,SHINEd_sun_aypmqwcualkenuoe.tif,109,0.0666666666666667,0.0666666666666667,1.48333333333333,8508.56696075,8509.214186459,9,8508.628665917,8508.689743584,8509.224852709,8510.701555959,1,0.647225708999031
125,7,20,categorization,0,kitchen,SHINEd_sun_ahywdevtimnqcsln.tif,94,0.0666666666666667,0.0666666666666667,0.75,8510.718695875,8511.500518625,9,8510.785461875,8510.851458167,8511.524013167,8512.267354084,1,0.781822749999264
125,8,20,categorization,0,kitchen,SHINEd_sun_aenotlpyftoioydp.tif,82,0.0666666666666667,0.0666666666666667,1.58333333333333,8512.273332125,8512.974604209,9,8512.335122584,8512.396116,8512.981916375,8514.558631125,1,0.701272083999356
125,9,20,categorization,0,kitchen,SHINEd_sun_abpwyqmlzafvklqo.tif,72,0.0666666666666667,0.0666666666666667,1.88333333333333,8514.577167375,8515.492001792,9,8514.643832959,8514.71015025,8515.516986292,8517.393706125,1,0.914834416998929
125,10,20,categorization,0,bathroom,SHINEd_sun_azqyogdvyhahyram.tif,60,0.0666666666666667,0.0666666666666667,1.18333333333333,8517.411331542,8518.002232625,13,8517.477996834,8517.544477959,8518.016912959,8519.193617667,1,0.590901083000062
125,11,20,categorization,0,kitchen,SHINEd_sun_ajkqhtgcbgpcwrwn.tif,97,0.0666666666666667,0.0666666666666667,1.65,8519.2030975,8520.034476834,9,8519.269326917,8519.330550542,8520.053496,8521.696872709,1,0.831379334000303
125,12,20,categorization,0,bathroom,SHINEd_sun_axxbkopsgyouuebh.tif,58,0.0666666666666667,0.0666666666666667,1.33333333333333,8521.715881375,8522.39499125,13,8521.782284084,8521.848539667,8522.421541959,8523.7482425,1,0.679109874999995
125,13,20,categorization,0,bathroom,SHINEd_sun_apmqjbnwghzuhhzh.tif,46,0.0666666666666667,0.0666666666666667,0.95,8523.767051042,8524.55515425,13,8523.833241417,8523.899829875,8524.572049,8525.515387375,1,0.788103208000393
125,14,20,categorization,0,kitchen,SHINEd_sun_akchetnepxlcxhsu.tif,98,0.0666666666666667,0.0666666666666667,1.56666666666667,8525.521472625,8526.215037167,13,8525.583148084,8525.644090167,8526.229491292,8527.78953725,0,0.693564541999876
125,15,20,categorization,0,kitchen,SHINEd_sun_amjjdeyrggfqgmom.tif,100,0.0666666666666667,0.0666666666666667,1.91666666666667,8527.807321417,8528.63594825,9,8527.8738115,8527.940200875,8528.663523875,8530.573563292,1,0.828626832999362
125,16,20,categorization,0,bathroom,SHINEd_sun_auzqhkafidnkrwmo.tif,54,0.0666666666666667,0.0666666666666667,1.75,8530.590510084,8531.634540584,13,8530.657405834,8530.722898459,8531.662920875,8533.406295292,1,1.0440305000011
125,17,20,categorization,0,bathroom,SHINEd_sun_agyqfjcfkdcydepw.tif,25,0.0666666666666667,0.0666666666666667,0.966666666666667,8533.424440625,8534.560675584,9,8533.491184042,8533.557186459,8534.580219959,8535.540223417,0,1.13623495899992
125,18,20,categorization,0,kitchen,SHINEd_sun_ahdycvpopffkzzsu.tif,90,0.0666666666666667,0.0666666666666667,1.15,8535.545389,8537.086216875,9,8535.607191167,8535.668198,8537.103879167,8538.247254167,1,1.5408278750001
125,19,20,categorization,0,kitchen,SHINEd_sun_acxkpeoqbwcxfvip.tif,77,0.0666666666666667,0.0666666666666667,0.733333333333333,8538.256519042,8539.203303042,9,8538.323265834,8538.389147334,8539.229285584,8539.955992959,1,0.946784000001571
125,20,20,categorization,0,kitchen,SHINEd_sun_abftihopvusyfakt.tif,71,0.0666666666666667,0.0666666666666667,1.41666666666667,8539.971712459,8540.830638,9,8540.038394084,8540.10434075,8540.840051709,8542.250084667,1,0.858925540998825
125,21,20,categorization,0,kitchen,SHINEd_sun_aamedkxepzlwuxes.tif,65,0.0666666666666667,0.0666666666666667,0.916666666666667,8542.267455625,8543.048038334,9,8542.333931834,8542.4004235,8543.07371325,8543.983724042,1,0.780582708999646
125,22,20,categorization,0,bathroom,SHINEd_sun_awnqiikzaispgmwo.tif,56,0.0666666666666667,0.0666666666666667,1.05,8543.989710875,8544.710650209,13,8544.051386042,8544.1123715,8544.714547625,8545.757932375,1,0.720939333999922
125,23,20,categorization,0,kitchen,SHINEd_sun_aggjlwcdjsjcaemh.tif,86,0.0666666666666667,0.0666666666666667,1,8545.768275709,8546.636180375,9,8545.833308167,8545.899512084,8546.655657625,8547.6490255,1,0.867904665999959
125,24,20,categorization,0,bathroom,SHINEd_sun_aghyqhbptboemmoq.tif,23,0.0666666666666667,0.0666666666666667,0.766666666666667,8547.665292292,8548.206315959,13,8547.731110459,8547.789546292,8548.224757542,8548.984762667,1,0.541023666999536
125,25,20,categorization,0,bathroom,SHINEd_sun_amzlamotzwfkwjco.tif,37,0.0666666666666667,0.0666666666666667,0.783333333333333,8548.990293959,8549.734784209,9,8549.05195625,8549.112984959,8549.748177709,8550.524849375,0,0.744490250001036
125,26,20,categorization,0,bathroom,SHINEd_sun_apkruvsevgegsdwp.tif,44,0.0666666666666667,0.0666666666666667,1.45,8550.530594417,8551.158806,13,8550.592372084,8550.653399209,8551.172024042,8552.615393125,1,0.628211582999938
125,27,20,categorization,0,bathroom,SHINEd_sun_apkxzenqapsujocq.tif,45,0.0666666666666667,0.0666666666666667,1.15,8552.632409459,8553.293749584,13,8552.698716625,8552.765143125,8553.320307625,8554.463671,1,0.661340124999697
125,28,20,categorization,0,bathroom,SHINEd_sun_anryaplzeujmzfkd.tif,39,0.0666666666666667,0.0666666666666667,1.35,8554.47422375,8555.27123525,13,8554.540725542,8554.606879584,8555.29566925,8556.639053667,1,0.797011500000735
125,29,20,categorization,0,bathroom,SHINEd_sun_ahcvzmoyaycdoftf.tif,27,0.0666666666666667,0.0666666666666667,1.26666666666667,8556.654061209,8557.234729292,13,8556.720682042,8556.786753875,8557.259842625,8558.519891459,1,0.580668083001001
125,30,20,categorization,0,bathroom,SHINEd_sun_afcoljnjfoxjtgja.tif,20,0.0666666666666667,0.0666666666666667,1.05,8558.537458292,8559.478039959,9,8558.600255084,8558.660611084,8559.495810667,8560.539186584,0,0.940581667000515
125,31,20,categorization,0,kitchen,SHINEd_sun_azmutvzbxypaceni.tif,110,0.0666666666666667,0.0666666666666667,0.8,8560.549199834,8561.30338525,9,8560.613609792,8560.680533375,8561.318783709,8562.112163125,1,0.754185415999018
125,32,20,categorization,0,kitchen,SHINEd_sun_agorklincwxrdtga.tif,87,0.0666666666666667,0.0666666666666667,0.866666666666667,8562.128961875,8562.758320584,9,8562.195701209,8562.261265417,8562.763817167,8563.623821667,1,0.629358709000371
125,33,20,categorization,0,kitchen,SHINEd_labelme_brsyyvweiuaazfr.tif,61,0.0666666666666667,0.0666666666666667,0.866666666666667,8563.629382042,8564.294009209,9,8563.691065042,8563.752146209,8564.304052959,8565.164056834,1,0.664627166999708
125,34,20,categorization,0,kitchen,SHINEd_sun_auticobqsbwgoppi.tif,104,0.0666666666666667,0.0666666666666667,1.53333333333333,8565.169537375,8565.894634459,9,8565.231289459,8565.292232417,8565.91116525,8567.437882375,1,0.725097083999572
125,35,20,categorization,0,kitchen,SHINEd_sun_abdxkyyxwfskuaqb.tif,70,0.0666666666666667,0.0666666666666667,1.66666666666667,8567.454694084,8568.016593209,9,8567.520921125,8567.587533875,8568.043849667,8569.703887,1,0.561899125001219
125,36,20,categorization,0,bathroom,SHINEd_sun_alkosphxlxwjwgjd.tif,34,0.0666666666666667,0.0666666666666667,1.95,8569.721181667,8570.480951542,13,8569.787649375,8569.853443125,8570.509773125,8572.453147334,1,0.75976987499962
125,37,20,categorization,0,bathroom,SHINEd_sun_aleqenyvunhactkl.tif,32,0.0666666666666667,0.0666666666666667,1.3,8572.471097292,8573.078705292,13,8572.5376585,8572.6038135,8573.091292084,8574.384668667,1,0.607608000000255
125,38,20,categorization,0,kitchen,SHINEd_sun_afuyedyxivkhecmu.tif,85,0.0666666666666667,0.0666666666666667,1.25,8574.405766959,8575.0470265,9,8574.472497959,8574.538709,8575.061140834,8576.304527917,1,0.641259541000181
125,39,20,categorization,0,bathroom,SHINEd_sun_ambriybtogmepttm.tif,36,0.0666666666666667,0.0666666666666667,1.2,8576.321679792,8576.950737834,9,8576.38836475,8576.454559667,8576.977498167,8578.170864334,0,0.629058042000906
125,40,20,categorization,0,kitchen,SHINEd_sun_aapllqyqlykszopd.tif,66,0.0666666666666667,0.0666666666666667,1.61666666666667,8578.189341709,8578.814434167,9,8578.252208459,8578.312982042,8578.831411834,8580.441466209,1,0.625092457999926
125,41,20,categorization,0,bathroom,SHINEd_sun_aavhrsfjbserjtht.tif,13,0.0666666666666667,0.0666666666666667,1.65,8580.455476292,8581.160070084,9,8580.519195459,8580.586237209,8581.192222584,8582.835610542,0,0.704593792001106
125,42,20,categorization,0,kitchen,SHINEd_sun_admlmbcdswaszruo.tif,79,0.0666666666666667,0.0666666666666667,0.9,8582.859735417,8583.474539375,9,8582.92713375,8582.993209042,8583.501040959,8584.394380459,1,0.614803958000266
125,43,20,categorization,0,bathroom,SHINEd_sun_abapwbhyhkfixyex.tif,14,0.0666666666666667,0.0666666666666667,0.816666666666667,8584.40283075,8585.046411459,9,8584.464688709,8584.525567542,8585.061105542,8585.871110292,0,0.643580709000162
125,44,20,categorization,0,bathroom,SHINEd_sun_atstyziqcmkahyxk.tif,51,0.0666666666666667,0.0666666666666667,1.86666666666667,8585.87608375,8586.446353542,13,8585.937929209,8585.998979917,8586.450760584,8588.310960125,1,0.570269792000545
125,45,20,categorization,0,kitchen,SHINEd_labelme_rykdqxenmhulbdn.tif,63,0.0666666666666667,0.0666666666666667,1.38333333333333,8588.324968625,8589.0031135,9,8588.390747334,8588.455712792,8589.030289292,8590.407350375,1,0.678144875000726
125,46,20,categorization,0,bathroom,SHINEd_sun_aoybiabnpadelefl.tif,41,0.0666666666666667,0.0666666666666667,1.63333333333333,8590.427298542,8591.208266167,9,8590.494866834,8590.56011175,8591.234509917,8592.861228667,0,0.780967624999903
125,47,20,categorization,0,kitchen,SHINEd_sun_ahspylgoovwmwvgk.tif,93,0.0666666666666667,0.0666666666666667,1.56666666666667,8592.879992459,8594.091325042,9,8592.947066417,8593.0129005,8594.120281584,8595.68031775,1,1.2113325829996
125,48,20,categorization,0,bathroom,SHINEd_sun_aapitsgbtktqubfy.tif,12,0.0666666666666667,0.0666666666666667,1.21666666666667,8595.698572709,8596.411827042,13,8595.765505459,8595.83104975,8596.437665459,8597.647713334,1,0.713254333000805
125,49,20,categorization,0,kitchen,SHINEd_sun_acgtpgfybqjmzeyw.tif,75,0.0666666666666667,0.0666666666666667,0.716666666666667,8597.667400209,8598.215199959,9,8597.733869209,8597.800394417,8598.240763709,8598.950804584,1,0.547799750000195
125,50,20,categorization,0,kitchen,SHINEd_sun_axyyrmzcupyhlivc.tif,107,0.0666666666666667,0.0666666666666667,0.966666666666667,8598.968169667,8599.726611542,9,8599.035348625,8599.097038417,8599.732482709,8600.692488167,1,0.758441875001154
