sub_num,trial,block,task,is_practice,category,image,texture,duration,mask_dur,jitter,stim_time,time_of_resp,trial_response,mask_time,fix_time,jit_onset,trial_end,trial_accuracy,RT
134,1,6,categorization,0,bathroom,SHINEd_sun_ahijqszoswveeyji.tif,28,0.0666666666666667,0.0666666666666667,0.966666666666667,1537.871711916,1538.999821916,13,1537.934354291,1537.994580625,1539.013615,1539.973621416,1,1.12810999999988
134,2,6,categorization,0,kitchen,SHINEd_sun_ahpczsiumwwocjkv.tif,92,0.0666666666666667,0.0666666666666667,1.73333333333333,1539.979152833,1540.622915583,9,1540.041084666,1540.101862791,1540.637164541,1542.363867916,1,0.643762749999951
134,3,6,categorization,0,bathroom,SHINEd_sun_ausgutylgojavyoq.tif,53,0.0666666666666667,0.0666666666666667,1.91666666666667,1542.381326416,1543.185934041,13,1542.448003291,1542.514338541,1543.202578083,1545.112616,1,0.804607625000017
134,4,6,categorization,0,kitchen,SHINEd_sun_aadbddgrdsjugojn.tif,64,0.0666666666666667,0.0666666666666667,0.766666666666667,1545.127886333,1545.862952791,9,1545.1942985,1545.259372625,1545.882136708,1546.642141333,1,0.735066457999892
134,5,6,categorization,0,bathroom,SHINEd_sun_agrwbmhcpmfuwmsg.tif,24,0.0666666666666667,0.0666666666666667,0.916666666666667,1546.647726125,1547.270865625,9,1546.709418541,1546.770362416,1547.288742875,1548.198746416,0,0.623139499999979
134,6,6,categorization,0,bathroom,SHINEd_sun_aghyqhbptboemmoq.tif,23,0.0666666666666667,0.0666666666666667,1.18333333333333,1548.203431833,1548.991735666,13,1548.265056583,1548.326088833,1549.011865708,1550.188590291,1,0.7883038330001
134,7,6,categorization,0,bathroom,SHINEd_sun_aggnnqpdorgxpvce.tif,21,0.0666666666666667,0.0666666666666667,1.8,1550.198540916,1550.940244,9,1550.265637083,1550.331437625,1550.954403791,1552.747779041,0,0.741703083999937
134,8,6,categorization,0,kitchen,SHINEd_sun_aunzlwrbjumxhwdj.tif,103,0.0666666666666667,0.0666666666666667,0.883333333333333,1552.765538708,1553.447523583,13,1552.832383541,1552.899356583,1553.473684625,1554.350359916,0,0.681984875000126
134,9,6,categorization,0,kitchen,SHINEd_sun_aymvwlarqodbwuoc.tif,108,0.0666666666666667,0.0666666666666667,1.83333333333333,1554.357531041,1555.11160475,9,1554.419370875,1554.480242375,1555.115313791,1556.942023,1,0.754073709000068
134,10,6,categorization,0,kitchen,SHINEd_sun_abdxkyyxwfskuaqb.tif,70,0.0666666666666667,0.0666666666666667,1.76666666666667,1556.959582041,1557.584687875,13,1557.02600025,1557.092676541,1557.5980565,1559.358092583,0,0.625105834000124
134,11,6,categorization,0,kitchen,SHINEd_sun_agorklincwxrdtga.tif,87,0.0666666666666667,0.0666666666666667,0.983333333333333,1559.376133458,1560.060904375,9,1559.442794958,1559.509377041,1560.082701708,1561.05937625,1,0.684770917000151
134,12,6,categorization,0,bathroom,SHINEd_sun_apmqjbnwghzuhhzh.tif,46,0.0666666666666667,0.0666666666666667,0.883333333333333,1561.064326583,1561.99100675,9,1561.126104583,1561.186937208,1562.00565475,1562.882325583,0,0.926680167000086
134,13,6,categorization,0,kitchen,SHINEd_sun_ahspylgoovwmwvgk.tif,93,0.0666666666666667,0.0666666666666667,0.85,1562.886995416,1564.175378916,9,1562.948699208,1563.009620541,1564.195479875,1565.038819,1,1.28838350000001
134,14,6,categorization,0,kitchen,SHINEd_sun_acgtpgfybqjmzeyw.tif,75,0.0666666666666667,0.0666666666666667,0.733333333333333,1565.04373225,1565.95094325,9,1565.105525375,1565.166348625,1565.968602583,1566.695275125,1,0.907210999999961
134,15,6,categorization,0,bathroom,SHINEd_sun_aunuadmjocsddsrl.tif,52,0.0666666666666667,0.0666666666666667,1.88333333333333,1566.700760916,1567.439210708,13,1566.762386583,1566.82336725,1567.458464416,1569.335171958,1,0.738449791999983
134,16,6,categorization,0,bathroom,SHINEd_sun_awnqiikzaispgmwo.tif,56,0.0666666666666667,0.0666666666666667,0.816666666666667,1569.351250833,1569.980903208,9,1569.417589416,1569.485107416,1570.008322791,1570.818328,0,0.629652374999978
134,17,6,categorization,0,kitchen,SHINEd_labelme_rykdqxenmhulbdn.tif,63,0.0666666666666667,0.0666666666666667,1.9,1570.824290875,1571.879201833,9,1570.886050083,1570.9470465,1571.899102333,1573.792482208,1,1.05491095799994
134,18,6,categorization,0,bathroom,SHINEd_sun_atstyziqcmkahyxk.tif,51,0.0666666666666667,0.0666666666666667,0.983333333333333,1573.80990475,1574.532988791,13,1573.876142125,1573.942190666,1574.547678208,1575.524349666,1,0.723084040999993
134,19,6,categorization,0,kitchen,SHINEd_sun_aarfiyshqohlwkmo.tif,67,0.0666666666666667,0.0666666666666667,0.75,1575.529287041,1576.262862458,9,1575.590985041,1575.651977833,1576.270951083,1577.014290583,1,0.733575416999884
134,20,6,categorization,0,bathroom,SHINEd_sun_azqyogdvyhahyram.tif,60,0.0666666666666667,0.0666666666666667,1.6,1577.019742416,1578.19945975,13,1577.081285083,1577.142310791,1578.211336625,1579.804704083,1,1.17971733399986
134,21,6,categorization,0,bathroom,SHINEd_sun_alotolagknyrgtsk.tif,35,0.0666666666666667,0.0666666666666667,1.58333333333333,1579.820212458,1581.014814041,13,1579.888324208,1579.952718041,1581.042742333,1582.619450583,1,1.19460158299989
134,22,6,categorization,0,kitchen,SHINEd_sun_ahljzhgcdpomplvg.tif,91,0.0666666666666667,0.0666666666666667,1.11666666666667,1582.635289375,1583.303540416,9,1582.703689541,1582.767523125,1583.323182666,1584.433235791,1,0.668251041000076
134,23,6,categorization,0,bathroom,SHINEd_sun_ahaulkltgpkeeemi.tif,26,0.0666666666666667,0.0666666666666667,1.53333333333333,1584.443569583,1585.1870135,13,1584.508673,1584.576339,1585.198007,1586.724712458,1,0.743443916999922
134,24,6,categorization,0,kitchen,SHINEd_labelme_kxvouciolcpqplr.tif,62,0.0666666666666667,0.0666666666666667,1.48333333333333,1586.743116375,1587.528386416,9,1586.809870875,1586.876000416,1587.549285458,1589.026002333,1,0.785270041000103
134,25,6,categorization,0,kitchen,SHINEd_sun_aapllqyqlykszopd.tif,66,0.0666666666666667,0.0666666666666667,1.1,1589.043565666,1589.881409291,9,1589.110186875,1589.174982791,1589.897732708,1590.991113333,1,0.837843625000005
134,26,6,categorization,0,kitchen,SHINEd_sun_aqeaevwwwjoqhzvl.tif,101,0.0666666666666667,0.0666666666666667,0.933333333333333,1591.000749416,1591.901249541,13,1591.065575583,1591.131715125,1591.921865,1592.848583958,0,0.900500125000008
134,27,6,categorization,0,kitchen,SHINEd_labelme_brsyyvweiuaazfr.tif,61,0.0666666666666667,0.0666666666666667,0.816666666666667,1592.864398625,1593.575626958,9,1592.931326833,1592.997201958,1593.582603208,1594.392607958,1,0.711228333000008
134,28,6,categorization,0,kitchen,SHINEd_sun_avszsnwsbuqfgzbn.tif,105,0.0666666666666667,0.0666666666666667,1.78333333333333,1594.398100958,1595.127457458,9,1594.4598305,1594.520719041,1595.139306666,1596.91600625,1,0.729356499999994
134,29,6,categorization,0,kitchen,SHINEd_sun_aexklacwqwezaorf.tif,84,0.0666666666666667,0.0666666666666667,0.766666666666667,1596.933470083,1597.809700541,9,1596.999736416,1597.066153041,1597.839568458,1598.599573333,1,0.876230458000009
134,30,6,categorization,0,bathroom,SHINEd_sun_apkxzenqapsujocq.tif,45,0.0666666666666667,0.0666666666666667,1.45,1598.604844541,1599.2465695,13,1598.666641041,1598.7274855,1599.262551083,1600.705940875,1,0.641724959000157
134,31,6,categorization,0,kitchen,SHINEd_sun_aggjlwcdjsjcaemh.tif,86,0.0666666666666667,0.0666666666666667,0.75,1600.723358833,1601.753028541,9,1600.789883166,1600.856461833,1601.779950666,1602.523289958,1,1.02966970800003
134,32,6,categorization,0,kitchen,SHINEd_sun_ajkqhtgcbgpcwrwn.tif,97,0.0666666666666667,0.0666666666666667,1.36666666666667,1602.528703,1603.567331625,13,1602.59040075,1602.651317875,1603.586540041,1604.946583,0,1.038628625
134,33,6,categorization,0,bathroom,SHINEd_sun_apynckhmoftszqoq.tif,47,0.0666666666666667,0.0666666666666667,0.75,1604.962013958,1605.748761,13,1605.028171,1605.094723458,1605.767567583,1606.510948041,1,0.786747042000115
134,34,6,categorization,0,kitchen,SHINEd_sun_acxkpeoqbwcxfvip.tif,77,0.0666666666666667,0.0666666666666667,0.783333333333333,1606.526131208,1607.454805125,9,1606.592535625,1606.651163958,1607.469692208,1608.246362875,1,0.928673916999969
134,35,6,categorization,0,kitchen,SHINEd_sun_aeqdocilnnpuvuhx.tif,83,0.0666666666666667,0.0666666666666667,1.11666666666667,1608.251155166,1609.063076208,9,1608.312779375,1608.37380775,1609.076134458,1610.186189208,1,0.811921041999994
134,36,6,categorization,0,kitchen,SHINEd_sun_acwjdupvyjsugpay.tif,76,0.0666666666666667,0.0666666666666667,0.766666666666667,1610.195106708,1610.972084083,9,1610.259909125,1610.327884166,1611.000880125,1611.760939,1,0.776977375000115
134,37,6,categorization,0,bathroom,SHINEd_sun_aleqenyvunhactkl.tif,32,0.0666666666666667,0.0666666666666667,0.716666666666667,1611.775035416,1612.527474958,13,1611.841540416,1611.907629,1612.543371958,1613.253378333,1,0.752439542000047
134,38,6,categorization,0,bathroom,SHINEd_sun_axldvoqbuvuggfmq.tif,57,0.0666666666666667,0.0666666666666667,1.33333333333333,1613.258179166,1614.046730375,13,1613.319904083,1613.380803875,1614.065919541,1615.392622041,1,0.788551208999934
134,39,6,categorization,0,bathroom,SHINEd_sun_akiytfaagpdsphgz.tif,31,0.0666666666666667,0.0666666666666667,1.75,1615.4098885,1616.262901583,13,1615.476145458,1615.542407916,1616.281938791,1618.02533,1,0.853013082999951
134,40,6,categorization,0,bathroom,SHINEd_sun_axyrejkiiaqiurjk.tif,59,0.0666666666666667,0.0666666666666667,1.13333333333333,1618.042440083,1618.748387,13,1618.109196208,1618.175356958,1618.764514291,1619.891238,1,0.705946917000119
134,41,6,categorization,0,bathroom,SHINEd_sun_ahqjwnzgolcaoidx.tif,29,0.0666666666666667,0.0666666666666667,1.63333333333333,1619.901118958,1620.56471225,13,1619.965812125,1620.03386075,1620.5904855,1622.217186,1,0.66359329199986
134,42,6,categorization,0,kitchen,SHINEd_sun_aegoxogugdkwpmpj.tif,80,0.0666666666666667,0.0666666666666667,1.43333333333333,1622.234292208,1622.8644975,9,1622.300932,1622.36751375,1622.891066958,1624.317792,1,0.630205292000028
134,43,6,categorization,0,bathroom,SHINEd_sun_aclfzgynxzxlbepz.tif,19,0.0666666666666667,0.0666666666666667,1.83333333333333,1624.335485958,1625.249784583,9,1624.402327833,1624.468192041,1625.273405041,1627.100122041,0,0.914298625000129
134,44,6,categorization,0,bathroom,SHINEd_sun_anhioqovhscjqqwb.tif,38,0.0666666666666667,0.0666666666666667,1.93333333333333,1627.114556333,1627.745158458,13,1627.180600416,1627.245600625,1627.769496416,1629.696213791,1,0.630602124999996
134,45,6,categorization,0,kitchen,SHINEd_sun_agubuxuukhzyzpdp.tif,88,0.0666666666666667,0.0666666666666667,1.26666666666667,1629.713064208,1630.450943416,9,1629.77967375,1629.845855708,1630.469148791,1631.729198666,1,0.737879207999868
134,46,6,categorization,0,bathroom,SHINEd_sun_apjevzvycyhuqghb.tif,43,0.0666666666666667,0.0666666666666667,1.86666666666667,1631.748427083,1632.708260666,13,1631.815585041,1631.881677916,1632.738747458,1634.598801833,1,0.959833582999863
134,47,6,categorization,0,bathroom,SHINEd_sun_acduarbnmmoglmiv.tif,16,0.0666666666666667,0.0666666666666667,1.41666666666667,1634.615576,1635.359702875,9,1634.682353083,1634.745740208,1635.386538125,1636.796583041,0,0.74412687500012
134,48,6,categorization,0,kitchen,SHINEd_sun_awcpdzzznmweyyhv.tif,106,0.0666666666666667,0.0666666666666667,1.11666666666667,1636.814847916,1637.407209958,13,1636.882476458,1636.947521125,1637.438038208,1638.548085958,0,0.592362042000104
134,49,6,categorization,0,bathroom,SHINEd_sun_agyqfjcfkdcydepw.tif,25,0.0666666666666667,0.0666666666666667,1.8,1638.557727833,1639.379248333,9,1638.624722375,1638.690728083,1639.397051166,1641.190429,0,0.821520500000133
134,50,6,categorization,0,bathroom,SHINEd_sun_ambriybtogmepttm.tif,36,0.0666666666666667,0.0666666666666667,1.25,1641.204449875,1642.303157625,9,1641.269520791,1641.336065333,1642.326715208,1643.570094625,0,1.09870775000013
