sub_num,trial,block,task,is_practice,category,image,texture,duration,mask_dur,jitter,stim_time,time_of_resp,trial_response,mask_time,fix_time,jit_onset,trial_end,trial_accuracy,RT
134,1,15,categorization,0,bathroom,SHINEd_sun_alotolagknyrgtsk.tif,35,0.0666666666666667,0.0666666666666667,1.3,2719.48261775,2720.25106575,13,2719.545106375,2719.6053045,2720.257186375,2721.550561875,1,0.768448000000262
134,2,15,categorization,0,kitchen,SHINEd_sun_aypmqwcualkenuoe.tif,109,0.0666666666666667,0.0666666666666667,1.25,2721.563996125,2722.25847275,13,2721.630443791,2721.696508958,2722.286536291,2723.529903791,0,0.694476624999879
134,3,15,categorization,0,kitchen,SHINEd_sun_aehawpgmrlhlvcow.tif,81,0.0666666666666667,0.0666666666666667,0.816666666666667,2723.547465958,2724.236167666,13,2723.614018333,2723.679924416,2724.252652375,2725.062697666,0,0.688701707999826
134,4,15,categorization,0,bathroom,SHINEd_sun_auzqhkafidnkrwmo.tif,54,0.0666666666666667,0.0666666666666667,0.85,2725.078246458,2725.714504875,13,2725.143005458,2725.208158916,2725.727120541,2726.5704585,1,0.636258416999681
134,5,15,categorization,0,bathroom,SHINEd_sun_abapwbhyhkfixyex.tif,14,0.0666666666666667,0.0666666666666667,1.06666666666667,2726.575163291,2727.106592958,9,2726.636853333,2726.697881333,2727.116553916,2728.176600333,0,0.531429666999884
134,6,15,categorization,0,bathroom,SHINEd_sun_aljolscmmzydegqp.tif,33,0.0666666666666667,0.0666666666666667,0.733333333333333,2728.185665541,2728.8272695,13,2728.250804708,2728.316129458,2728.856041666,2729.582766583,1,0.641603958999895
134,7,15,categorization,0,kitchen,SHINEd_sun_auticobqsbwgoppi.tif,104,0.0666666666666667,0.0666666666666667,1.83333333333333,2729.599096291,2730.330843333,9,2729.665360916,2729.731462625,2730.350609083,2732.177327208,1,0.731747041999824
134,8,15,categorization,0,bathroom,SHINEd_labelme_sfxiulhjbhlyiyt.tif,11,0.0666666666666667,0.0666666666666667,0.733333333333333,2732.195088458,2732.802912375,13,2732.26186725,2732.32718125,2732.816328541,2733.543001291,1,0.607823916999678
134,9,15,categorization,0,bathroom,SHINEd_sun_axxbkopsgyouuebh.tif,58,0.0666666666666667,0.0666666666666667,1.56666666666667,2733.54845825,2734.306259041,13,2733.610247458,2733.671189291,2734.323637791,2735.883692208,1,0.757800791000136
134,10,15,categorization,0,bathroom,SHINEd_sun_aclfzgynxzxlbepz.tif,19,0.0666666666666667,0.0666666666666667,1.93333333333333,2735.905623625,2736.628779791,13,2735.972324416,2736.037976375,2736.643774583,2738.570487708,1,0.723156166000081
134,11,15,categorization,0,bathroom,SHINEd_sun_apkruvsevgegsdwp.tif,44,0.0666666666666667,0.0666666666666667,1.48333333333333,2738.588226,2739.194707458,13,2738.65503125,2738.720930958,2739.20959675,2740.686311375,1,0.606481457999962
134,12,15,categorization,0,kitchen,SHINEd_sun_aexklacwqwezaorf.tif,84,0.0666666666666667,0.0666666666666667,0.916666666666667,2740.70337925,2741.446936208,9,2740.769733541,2740.836099416,2741.475911791,2742.385923,1,0.743556957999772
134,13,15,categorization,0,kitchen,SHINEd_sun_afuyedyxivkhecmu.tif,85,0.0666666666666667,0.0666666666666667,1.5,2742.391710333,2743.082234208,9,2742.453337291,2742.514451041,2743.099655625,2744.593023208,1,0.690523875000054
134,14,15,categorization,0,kitchen,SHINEd_sun_azmutvzbxypaceni.tif,110,0.0666666666666667,0.0666666666666667,1.1,2744.610650916,2745.6576,13,2744.677350375,2744.743174875,2745.683506708,2746.77689575,0,1.04694908400006
134,15,15,categorization,0,kitchen,SHINEd_sun_abpwyqmlzafvklqo.tif,72,0.0666666666666667,0.0666666666666667,0.983333333333333,2746.786154833,2747.421193166,9,2746.851103666,2746.918751875,2747.44229475,2748.41900125,1,0.635038333000011
134,16,15,categorization,0,bathroom,SHINEd_sun_atstyziqcmkahyxk.tif,51,0.0666666666666667,0.0666666666666667,1.7,2748.43664525,2749.322208916,13,2748.502979583,2748.569455333,2749.338151416,2751.031526416,1,0.885563666000053
134,17,15,categorization,0,bathroom,SHINEd_sun_aunuadmjocsddsrl.tif,52,0.0666666666666667,0.0666666666666667,1.58333333333333,2751.048166875,2751.815453958,9,2751.114158791,2751.178163083,2751.834186791,2753.410884291,0,0.767287083000156
134,18,15,categorization,0,bathroom,SHINEd_sun_anryaplzeujmzfkd.tif,39,0.0666666666666667,0.0666666666666667,0.933333333333333,2753.427735458,2755.162602208,9,2753.49426925,2753.559961666,2755.178709791,2756.105383166,0,1.73486675000004
134,19,15,categorization,0,kitchen,SHINEd_sun_abdxkyyxwfskuaqb.tif,70,0.0666666666666667,0.0666666666666667,0.916666666666667,2756.11102475,2756.818431583,9,2756.172768666,2756.233578083,2756.835655833,2757.745660625,1,0.707406832999823
134,20,15,categorization,0,bathroom,SHINEd_sun_aqrpegblszgcoujh.tif,48,0.0666666666666667,0.0666666666666667,1.08333333333333,2757.751511,2758.698517708,9,2757.813238583,2757.87425375,2758.709551916,2759.786271416,0,0.947006708000117
134,21,15,categorization,0,bathroom,SHINEd_sun_ahqjwnzgolcaoidx.tif,29,0.0666666666666667,0.0666666666666667,0.783333333333333,2759.796262291,2760.596394541,13,2759.861634041,2759.928055291,2760.618070958,2761.394774333,1,0.800132249999933
134,22,15,categorization,0,kitchen,SHINEd_sun_abrcnpqqhmjwekyf.tif,73,0.0666666666666667,0.0666666666666667,1.01666666666667,2761.408804125,2762.250504958,9,2761.474751875,2761.541428958,2762.260490666,2763.270543666,1,0.841700832999777
134,23,15,categorization,0,bathroom,SHINEd_sun_anhioqovhscjqqwb.tif,38,0.0666666666666667,0.0666666666666667,1.15,2763.279871541,2764.270148625,9,2763.344464625,2763.41096725,2764.283322,2765.42671025,0,0.990277083999899
134,24,15,categorization,0,kitchen,SHINEd_sun_aixorpehvfykdynp.tif,95,0.0666666666666667,0.0666666666666667,1.38333333333333,2765.443012458,2766.557510708,13,2765.510423791,2765.5757555,2766.582402166,2767.959118,0,1.11449825
134,25,15,categorization,0,bathroom,SHINEd_sun_aspsyogrekjtfozg.tif,50,0.0666666666666667,0.0666666666666667,0.75,2767.975158125,2769.174475958,13,2768.041912875,2768.107941625,2769.19826,2769.941598583,1,1.19931783300035
134,26,15,categorization,0,bathroom,SHINEd_sun_axldvoqbuvuggfmq.tif,57,0.0666666666666667,0.0666666666666667,0.816666666666667,2769.947030041,2770.8821835,9,2770.008778916,2770.069704083,2770.888344791,2771.698350166,0,0.935153459000048
134,27,15,categorization,0,bathroom,SHINEd_sun_axyrejkiiaqiurjk.tif,59,0.0666666666666667,0.0666666666666667,1.01666666666667,2771.70347475,2772.490789333,9,2771.76542925,2771.826104833,2772.494895375,2773.504928291,0,0.787314582999898
134,28,15,categorization,0,kitchen,SHINEd_sun_ahljzhgcdpomplvg.tif,91,0.0666666666666667,0.0666666666666667,1.11666666666667,2773.51586925,2774.4580295,9,2773.580343625,2773.646911875,2774.486732625,2775.596780375,1,0.942160250000143
134,29,15,categorization,0,kitchen,SHINEd_sun_ahspylgoovwmwvgk.tif,93,0.0666666666666667,0.0666666666666667,1.9,2775.6069235,2776.376101416,9,2775.672078166,2775.739630375,2776.396118541,2778.289494083,1,0.76917791599999
134,30,15,categorization,0,bathroom,SHINEd_sun_amzlamotzwfkwjco.tif,37,0.0666666666666667,0.0666666666666667,1.75,2778.308042541,2779.071706083,13,2778.374403083,2778.440664375,2779.097185916,2780.84056275,1,0.763663542000359
134,31,15,categorization,0,bathroom,SHINEd_sun_aghyqhbptboemmoq.tif,23,0.0666666666666667,0.0666666666666667,1.31666666666667,2780.857819291,2781.700929375,13,2780.924638958,2780.990688166,2781.731359791,2783.041405416,1,0.843110084000273
134,32,15,categorization,0,bathroom,SHINEd_sun_abjtwfukuwddzted.tif,15,0.0666666666666667,0.0666666666666667,1.58333333333333,2783.058827833,2784.397355708,9,2783.126081375,2783.191827875,2784.416437166,2785.99313925,0,1.33852787499973
134,33,15,categorization,0,bathroom,SHINEd_sun_acegryoqftbzowsg.tif,17,0.0666666666666667,0.0666666666666667,0.716666666666667,2786.010528708,2788.010703166,9,2786.077654291,2786.143281333,2788.029130916,2788.739138375,0,2.00017445799995
134,34,15,categorization,0,bathroom,SHINEd_sun_ahaulkltgpkeeemi.tif,26,0.0666666666666667,0.0666666666666667,1.05,2788.744605708,2789.402695375,13,2788.806338958,2788.867218625,2789.419031333,2790.462414291,1,0.658089666999786
134,35,15,categorization,0,kitchen,SHINEd_sun_aamedkxepzlwuxes.tif,65,0.0666666666666667,0.0666666666666667,1.81666666666667,2790.47248375,2791.197950958,9,2790.537032291,2790.60276675,2791.206417625,2793.0164665,1,0.725467208000282
134,36,15,categorization,0,kitchen,SHINEd_sun_acwjdupvyjsugpay.tif,76,0.0666666666666667,0.0666666666666667,1.25,2793.034277833,2793.854743125,9,2793.100790458,2793.161129458,2793.884486625,2795.127876916,1,0.820465291999881
134,37,15,categorization,0,kitchen,SHINEd_sun_abftihopvusyfakt.tif,71,0.0666666666666667,0.0666666666666667,0.733333333333333,2795.138585291,2796.094273416,9,2795.203384875,2795.270366125,2796.109136875,2796.835857541,1,0.955688125000052
134,38,15,categorization,0,bathroom,SHINEd_sun_ausgutylgojavyoq.tif,53,0.0666666666666667,0.0666666666666667,1.31666666666667,2796.854263375,2797.738556541,13,2796.920629291,2796.978201041,2797.746730333,2799.056772333,1,0.884293166000134
134,39,15,categorization,0,kitchen,SHINEd_sun_aunzlwrbjumxhwdj.tif,103,0.0666666666666667,0.0666666666666667,1,2799.072993,2799.795564791,9,2799.13800625,2799.204088208,2799.809572041,2800.80295475,1,0.722571790999609
134,40,15,categorization,0,kitchen,SHINEd_sun_awcpdzzznmweyyhv.tif,106,0.0666666666666667,0.0666666666666667,1.16666666666667,2800.819473875,2801.698151083,9,2800.882037791,2800.942105916,2801.7106655,2802.870699708,1,0.878677208000227
134,41,15,categorization,0,kitchen,SHINEd_sun_ajcbwwvdlsvjyzje.tif,96,0.0666666666666667,0.0666666666666667,0.916666666666667,2802.879685875,2803.91934075,9,2802.94607475,2803.012266916,2803.934876375,2804.844881625,1,1.039654875
134,42,15,categorization,0,bathroom,SHINEd_sun_azqyogdvyhahyram.tif,60,0.0666666666666667,0.0666666666666667,0.8,2804.851272291,2805.426605291,13,2804.9130855,2804.974007291,2805.442479708,2806.235817166,1,0.575333000000228
134,43,15,categorization,0,bathroom,SHINEd_sun_awnqiikzaispgmwo.tif,56,0.0666666666666667,0.0666666666666667,1,2806.240934875,2807.313665083,13,2806.302532791,2806.363685291,2807.332237208,2808.325575166,1,1.07273020799994
134,44,15,categorization,0,bathroom,SHINEd_sun_apmqjbnwghzuhhzh.tif,46,0.0666666666666667,0.0666666666666667,0.766666666666667,2808.330987708,2809.130168791,13,2808.392596333,2808.453966,2809.139382125,2809.899387916,1,0.799181082999894
134,45,15,categorization,0,kitchen,SHINEd_sun_acxkpeoqbwcxfvip.tif,77,0.0666666666666667,0.0666666666666667,1.03333333333333,2809.904786208,2810.626103625,9,2809.96639,2810.027585416,2810.629721,2811.656423541,1,0.721317416999682
134,46,15,categorization,0,kitchen,SHINEd_sun_akcjzhbbjlbogpdi.tif,99,0.0666666666666667,0.0666666666666667,1.81666666666667,2811.665341541,2812.9343255,9,2811.729942,2811.796403708,2812.953662,2814.76370025,1,1.2689839589998
134,47,15,categorization,0,bathroom,SHINEd_sun_agrwbmhcpmfuwmsg.tif,24,0.0666666666666667,0.0666666666666667,1.21666666666667,2814.781354083,2815.398644,13,2814.848206833,2814.913923541,2815.421018791,2816.631052208,1,0.617289916999653
134,48,15,categorization,0,kitchen,SHINEd_sun_aaxxjlsuzvqlgylf.tif,68,0.0666666666666667,0.0666666666666667,0.866666666666667,2816.648737541,2817.365696791,9,2816.714866375,2816.781090125,2817.387934375,2818.247976375,1,0.716959249999945
134,49,15,categorization,0,bathroom,SHINEd_sun_ahijqszoswveeyji.tif,28,0.0666666666666667,0.0666666666666667,1.46666666666667,2818.264576875,2819.226563583,9,2818.331167333,2818.396960708,2819.232293166,2820.692342625,0,0.96198670800004
134,50,15,categorization,0,bathroom,SHINEd_sun_aavhrsfjbserjtht.tif,13,0.0666666666666667,0.0666666666666667,1.46666666666667,2820.709536458,2821.5718485,9,2820.775958666,2820.841909333,2821.598431666,2823.058469666,0,0.862312042000212
