sub_num,trial,block,task,is_practice,category,image,texture,duration,mask_dur,jitter,stim_time,time_of_resp,trial_response,mask_time,fix_time,jit_onset,trial_end,trial_accuracy,RT
124,6,0,aesthetic,1,kitchen,kitchen_practice2.tif,227,1.5,0,1.08333333333333,8287.359669208,8290.443429667,6,NaN,8290.452786917,8290.472693208,8291.54946,NaN,NaN
124,7,0,aesthetic,1,kitchen,kitchen_practice1.tif,226,1.5,0,1.06666666666667,8291.560824917,8294.698113667,6,NaN,8294.7038075,8294.72237375,8295.782451125,NaN,NaN
124,8,0,aesthetic,1,kitchen,kitchen_practice4.tif,229,1.5,0,1.11666666666667,8295.7908885,8298.353804958,5,NaN,8298.359723,8298.378169833,8299.488256292,NaN,NaN
124,9,0,aesthetic,1,kitchen,kitchen_practice3.tif,228,1.5,0,0.95,8299.496884875,8303.114740292,7,NaN,8303.120258,8303.1389225,8304.082266292,NaN,NaN
124,10,0,aesthetic,1,kitchen,kitchen_practice5.tif,230,1.5,0,0.9,8304.0880955,8307.138383417,3,NaN,8307.1484675,8307.167505,8308.060844667,NaN,NaN
124,1,1,aesthetic,0,kitchen,sun_ahljzhgcdpomplvg.tif,201,1.5,0,1.48333333333333,8313.959134458,8316.7382945,5,NaN,8316.767058875,8316.790489333,8318.267261208,NaN,NaN
124,2,1,aesthetic,0,kitchen,sun_afuyedyxivkhecmu.tif,195,1.5,0,1.46666666666667,8318.28554375,8321.954218958,6,NaN,8321.959802458,8321.978213875,8323.43827775,NaN,NaN
124,3,1,aesthetic,0,kitchen,sun_adgqasybjyktddhj.tif,188,1.5,0,0.766666666666667,8323.459170958,8326.041918083,4,NaN,8326.047658833,8326.065929458,8326.825936292,NaN,NaN
124,4,1,aesthetic,0,kitchen,sun_ahpczsiumwwocjkv.tif,202,1.5,0,1.16666666666667,8326.830276208,8329.726872917,6,NaN,8329.753193542,8329.776566208,8330.936633042,NaN,NaN
124,5,1,aesthetic,0,kitchen,sun_agorklincwxrdtga.tif,197,1.5,0,1.6,8330.94674675,8334.162476708,5,NaN,8334.16799375,8334.18639225,8335.779829917,NaN,NaN
124,6,1,aesthetic,0,kitchen,sun_auaiucuqpdausiva.tif,212,1.5,0,1.68333333333333,8335.797589292,8348.417654625,5,NaN,8348.423478375,8348.441660375,8350.118404708,NaN,NaN
124,7,1,aesthetic,0,kitchen,sun_aapllqyqlykszopd.tif,176,1.5,0,1.5,8350.137455958,8352.721874917,3,NaN,8352.750839833,8352.774245542,8354.267657875,NaN,NaN
124,8,1,aesthetic,0,kitchen,sun_awcpdzzznmweyyhv.tif,216,1.5,0,0.833333333333333,8354.287640417,8357.050309125,6,NaN,8357.055762792,8357.074036542,8357.9007125,NaN,NaN
124,9,1,aesthetic,0,kitchen,sun_aadbddgrdsjugojn.tif,174,1.5,0,0.9,8357.9065355,8360.45037675,5,NaN,8360.478966792,8360.502375667,8361.395716708,NaN,NaN
124,10,1,aesthetic,0,kitchen,sun_aegoxogugdkwpmpj.tif,190,1.5,0,0.933333333333333,8361.400467208,8364.181927,5,NaN,8364.210484875,8364.233951333,8365.160626042,NaN,NaN
124,11,1,aesthetic,0,kitchen,sun_abrcnpqqhmjwekyf.tif,183,1.5,0,0.9,8365.165254667,8367.73988125,4,NaN,8367.766619542,8367.790128708,8368.683468708,NaN,NaN
124,12,1,aesthetic,0,kitchen,sun_avszsnwsbuqfgzbn.tif,215,1.5,0,0.85,8368.688156958,8371.430555333,6,NaN,8371.45719775,8371.480059,8372.323400583,NaN,NaN
124,13,1,aesthetic,0,kitchen,labelme_kxvouciolcpqplr.tif,172,1.5,0,1.83333333333333,8372.327995208,8375.219215667,3,NaN,8375.243758708,8375.265348583,8377.092111917,NaN,NaN
124,14,1,aesthetic,0,kitchen,sun_agzzivivdpnawacl.tif,199,1.5,0,0.733333333333333,8377.110648583,8380.666379583,3,NaN,8380.672097417,8380.690424292,8381.417097875,NaN,NaN
124,15,1,aesthetic,0,kitchen,sun_aunzlwrbjumxhwdj.tif,213,1.5,0,1.63333333333333,8381.421282833,8384.698375833,1,NaN,8384.704137958,8384.72293075,8386.349703125,NaN,NaN
124,16,1,aesthetic,0,kitchen,sun_aymvwlarqodbwuoc.tif,218,1.5,0,0.766666666666667,8386.368193292,8390.217926667,4,NaN,8390.223529833,8390.241813625,8391.001824333,NaN,NaN
124,17,1,aesthetic,0,kitchen,sun_abpwyqmlzafvklqo.tif,182,1.5,0,1.71666666666667,8391.006391625,8393.565490875,3,NaN,8393.594177708,8393.617677167,8395.327771875,NaN,NaN
124,18,1,aesthetic,0,kitchen,sun_abdxkyyxwfskuaqb.tif,180,1.5,0,1.51666666666667,8395.347742125,8398.08616775,5,NaN,8398.116077,8398.139644458,8399.649744042,NaN,NaN
124,19,1,aesthetic,0,kitchen,sun_aaxxjlsuzvqlgylf.tif,178,1.5,0,1.25,8399.668062792,8402.649879292,6,NaN,8402.655524667,8402.673667167,8403.91710075,NaN,NaN
124,20,1,aesthetic,0,kitchen,sun_azmutvzbxypaceni.tif,220,1.5,0,1.41666666666667,8403.935104125,8406.833470458,4,NaN,8406.839325917,8406.857707167,8408.267805667,NaN,NaN
124,21,1,aesthetic,0,kitchen,sun_axyyrmzcupyhlivc.tif,217,1.5,0,1.1,8408.287647208,8411.458130208,4,NaN,8411.463657542,8411.481921458,8412.575342333,NaN,NaN
124,22,1,aesthetic,0,kitchen,sun_ajkqhtgcbgpcwrwn.tif,207,1.5,0,0.95,8412.585773,8415.409470875,2,NaN,8415.415238958,8415.43359875,8416.376941875,NaN,NaN
124,23,1,aesthetic,0,kitchen,sun_aamedkxepzlwuxes.tif,175,1.5,0,1.45,8416.381546042,8419.53736025,2,NaN,8419.543141625,8419.561466375,8421.004893708,NaN,NaN
124,24,1,aesthetic,0,kitchen,sun_akcjzhbbjlbogpdi.tif,209,1.5,0,0.883333333333333,8421.025313708,8424.250387875,3,NaN,8424.256313417,8424.274700167,8425.151372833,NaN,NaN
124,25,1,aesthetic,0,kitchen,sun_ahywdevtimnqcsln.tif,204,1.5,0,1.23333333333333,8425.156095625,8429.906242208,3,NaN,8429.911707708,8429.930046083,8431.156795125,NaN,NaN
124,1,2,aesthetic,0,kitchen,sun_aeqdocilnnpuvuhx.tif,193,1.5,0,1.78333333333333,8438.592025625,8442.961980667,7,NaN,8442.967469667,8442.985761833,8444.76252775,NaN,NaN
124,2,2,aesthetic,0,kitchen,sun_aggjlwcdjsjcaemh.tif,196,1.5,0,1.8,8444.781000167,8447.650195083,4,NaN,8447.679149458,8447.702599667,8449.496003125,NaN,NaN
124,3,2,aesthetic,0,kitchen,sun_aixorpehvfykdynp.tif,205,1.5,0,0.8,8449.515818792,8452.135585958,5,NaN,8452.165758625,8452.18919,8452.98253625,NaN,NaN
124,4,2,aesthetic,0,kitchen,sun_acfmftudsenhrfhy.tif,184,1.5,0,1.01666666666667,8452.987486042,8455.930096833,5,NaN,8455.959212042,8455.983094333,8456.993105,NaN,NaN
124,5,2,aesthetic,0,kitchen,sun_acxkpeoqbwcxfvip.tif,187,1.5,0,0.85,8456.998044583,8459.599365542,7,NaN,8459.627643833,8459.651113083,8460.494457625,NaN,NaN
124,6,2,aesthetic,0,kitchen,sun_admlmbcdswaszruo.tif,189,1.5,0,1.83333333333333,8460.49929425,8464.153149333,5,NaN,8464.159115875,8464.177490542,8466.004215917,NaN,NaN
124,7,2,aesthetic,0,kitchen,sun_aexklacwqwezaorf.tif,194,1.5,0,1.11666666666667,8466.026276417,8470.641268625,6,NaN,8470.647162083,8470.6654705,8471.775556458,NaN,NaN
124,8,2,aesthetic,0,kitchen,sun_agubuxuukhzyzpdp.tif,198,1.5,0,1.88333333333333,8471.785389167,8476.001387708,7,NaN,8476.007312542,8476.025699375,8477.9024645,NaN,NaN
124,9,2,aesthetic,0,kitchen,sun_aypmqwcualkenuoe.tif,219,1.5,0,0.916666666666667,8477.922293708,8482.1693805,2,NaN,8482.175161208,8482.193593125,8483.103601583,NaN,NaN
124,10,2,aesthetic,0,kitchen,labelme_rykdqxenmhulbdn.tif,173,1.5,0,1.05,8483.108378583,8486.370045583,3,NaN,8486.375457042,8486.393695458,8487.437123667,NaN,NaN
124,11,2,aesthetic,0,kitchen,sun_aqeaevwwwjoqhzvl.tif,211,1.5,0,1.35,8487.447054167,8491.553766792,4,NaN,8491.559257,8491.577603125,8492.921043,NaN,NaN
124,12,2,aesthetic,0,kitchen,sun_ahspylgoovwmwvgk.tif,203,1.5,0,1.01666666666667,8492.9384805,8502.633751167,4,NaN,8502.639334625,8502.657553375,8503.667622917,NaN,NaN
124,13,2,aesthetic,0,kitchen,sun_aehawpgmrlhlvcow.tif,191,1.5,0,2,8503.675393792,8506.329017667,7,NaN,8506.334844667,8506.353267667,8508.346690333,NaN,NaN
124,14,2,aesthetic,0,kitchen,sun_ahdycvpopffkzzsu.tif,200,1.5,0,0.9,8508.361917667,8511.284017542,3,NaN,8511.309418375,8511.331657458,8512.224999625,NaN,NaN
124,15,2,aesthetic,0,kitchen,sun_akchetnepxlcxhsu.tif,208,1.5,0,1.15,8512.23009525,8515.173302917,3,NaN,8515.199499542,8515.221894,8516.365321167,NaN,NaN
124,16,2,aesthetic,0,kitchen,sun_abdenxonkemggwsq.tif,179,1.5,0,1.23333333333333,8516.376170333,8519.305315875,7,NaN,8519.310872708,8519.329251458,8520.55600275,NaN,NaN
124,17,2,aesthetic,0,kitchen,sun_ajcbwwvdlsvjyzje.tif,206,1.5,0,1.03333333333333,8520.574981917,8523.761606333,5,NaN,8523.767013542,8523.785418333,8524.812160375,NaN,NaN
124,18,2,aesthetic,0,kitchen,sun_acgtpgfybqjmzeyw.tif,185,1.5,0,0.783333333333333,8524.821442042,8527.265697042,4,NaN,8527.271083875,8527.289214125,8528.065890167,NaN,NaN
124,19,2,aesthetic,0,kitchen,sun_acwjdupvyjsugpay.tif,186,1.5,0,0.766666666666667,8528.070471708,8530.932966958,4,NaN,8530.961406458,8530.984514208,8531.744523708,NaN,NaN
124,20,2,aesthetic,0,kitchen,sun_auticobqsbwgoppi.tif,214,1.5,0,1.18333333333333,8531.749217208,8534.264407875,2,NaN,8534.293216375,8534.316562875,8535.493319417,NaN,NaN
124,21,2,aesthetic,0,kitchen,sun_aenotlpyftoioydp.tif,192,1.5,0,0.7,8535.5023925,8538.465771583,2,NaN,8538.471223792,8538.489462667,8539.182802667,NaN,NaN
124,22,2,aesthetic,0,kitchen,labelme_brsyyvweiuaazfr.tif,171,1.5,0,0.7,8539.187166833,8544.873416667,3,NaN,8544.879081667,8544.8973795,8545.590723833,NaN,NaN
124,23,2,aesthetic,0,kitchen,sun_abftihopvusyfakt.tif,181,1.5,0,1.55,8545.595049083,8548.397464417,6,NaN,8548.425205708,8548.448632208,8549.992042458,NaN,NaN
124,24,2,aesthetic,0,kitchen,sun_aarfiyshqohlwkmo.tif,177,1.5,0,1.16666666666667,8550.010130917,8552.849887542,5,NaN,8552.855668167,8552.87391275,8554.034002208,NaN,NaN
124,25,2,aesthetic,0,kitchen,sun_amjjdeyrggfqgmom.tif,210,1.5,0,1.68333333333333,8554.045132083,8557.817520375,7,NaN,8557.823052125,8557.841319,8559.5180525,NaN,NaN
