sub_num,trial,block,task,is_practice,category,image,texture,duration,blank,mask_dur,jitter,stim_time,time_of_resp,trial_response,blank_time,mask_time,fix_time,jit_onset,trial_end,trial_accuracy,RT
109,1,9,categorization,0,kitchen,SHINEd_sun_aqeaevwwwjoqhzvl.tif,99,0.0333333333333333,0.0333333333333333,0.0666666666666667,1.05,879612.6348242,NaN,NaN,879612.6707175,879612.7038859,879612.7717179,NaN,NaN,NaN,NaN
109,2,9,categorization,0,bathroom,SHINEd_sun_apkxzenqapsujocq.tif,45,0.0333333333333333,0.0333333333333333,0.0666666666666667,1.23333333333333,NaN,NaN,NaN,NaN,NaN,NaN,NaN,NaN,NaN,NaN
109,3,9,categorization,0,bathroom,SHINEd_sun_abapwbhyhkfixyex.tif,16,0.0333333333333333,0.0333333333333333,0.0666666666666667,1.31666666666667,NaN,NaN,NaN,NaN,NaN,NaN,NaN,NaN,NaN,NaN
109,4,9,categorization,0,bathroom,SHINEd_sun_aspsyogrekjtfozg.tif,50,0.0333333333333333,0.0333333333333333,0.0666666666666667,1.78333333333333,NaN,NaN,NaN,NaN,NaN,NaN,NaN,NaN,NaN,NaN
109,5,9,categorization,0,kitchen,SHINEd_sun_aggjlwcdjsjcaemh.tif,87,0.0333333333333333,0.0333333333333333,0.0666666666666667,1.25,NaN,NaN,NaN,NaN,NaN,NaN,NaN,NaN,NaN,NaN
109,6,9,categorization,0,kitchen,SHINEd_sun_akcjzhbbjlbogpdi.tif,96,0.0333333333333333,0.0333333333333333,0.0666666666666667,0.8,NaN,NaN,NaN,NaN,NaN,NaN,NaN,NaN,NaN,NaN
109,7,9,categorization,0,bathroom,SHINEd_sun_ahcvzmoyaycdoftf.tif,29,0.0333333333333333,0.0333333333333333,0.0666666666666667,1.15,NaN,NaN,NaN,NaN,NaN,NaN,NaN,NaN,NaN,NaN
109,8,9,categorization,0,kitchen,SHINEd_sun_aamedkxepzlwuxes.tif,65,0.0333333333333333,0.0333333333333333,0.0666666666666667,0.733333333333333,NaN,NaN,NaN,NaN,NaN,NaN,NaN,NaN,NaN,NaN
109,9,9,categorization,0,kitchen,SHINEd_sun_ataniphupyuxeowc.tif,100,0.0333333333333333,0.0333333333333333,0.0666666666666667,1.9,NaN,NaN,NaN,NaN,NaN,NaN,NaN,NaN,NaN,NaN
109,10,9,categorization,0,kitchen,SHINEd_sun_aapllqyqlykszopd.tif,66,0.0333333333333333,0.0333333333333333,0.0666666666666667,1.18333333333333,NaN,NaN,NaN,NaN,NaN,NaN,NaN,NaN,NaN,NaN
109,11,9,categorization,0,kitchen,SHINEd_sun_amjjdeyrggfqgmom.tif,98,0.0333333333333333,0.0333333333333333,0.0666666666666667,1.58333333333333,NaN,NaN,NaN,NaN,NaN,NaN,NaN,NaN,NaN,NaN
109,12,9,categorization,0,bathroom,SHINEd_sun_agguqiubmwhqqunb.tif,25,0.0333333333333333,0.0333333333333333,0.0666666666666667,1.68333333333333,NaN,NaN,NaN,NaN,NaN,NaN,NaN,NaN,NaN,NaN
109,13,9,categorization,0,kitchen,SHINEd_sun_acxkpeoqbwcxfvip.tif,77,0.0333333333333333,0.0333333333333333,0.0666666666666667,1.56666666666667,NaN,NaN,NaN,NaN,NaN,NaN,NaN,NaN,NaN,NaN
109,14,9,categorization,0,bathroom,SHINEd_sun_arzkwskvsrwimlwo.tif,48,0.0333333333333333,0.0333333333333333,0.0666666666666667,1.9,NaN,NaN,NaN,NaN,NaN,NaN,NaN,NaN,NaN,NaN
109,15,9,categorization,0,bathroom,SHINEd_sun_acsgbuurtwghzjel.tif,21,0.0333333333333333,0.0333333333333333,0.0666666666666667,1.93333333333333,NaN,NaN,NaN,NaN,NaN,NaN,NaN,NaN,NaN,NaN
109,16,9,categorization,0,kitchen,SHINEd_sun_afuyedyxivkhecmu.tif,86,0.0333333333333333,0.0333333333333333,0.0666666666666667,1.5,NaN,NaN,NaN,NaN,NaN,NaN,NaN,NaN,NaN,NaN
109,17,9,categorization,0,kitchen,SHINEd_sun_abpwyqmlzafvklqo.tif,72,0.0333333333333333,0.0333333333333333,0.0666666666666667,1.08333333333333,NaN,NaN,NaN,NaN,NaN,NaN,NaN,NaN,NaN,NaN
109,18,9,categorization,0,bathroom,SHINEd_sun_alotolagknyrgtsk.tif,36,0.0333333333333333,0.0333333333333333,0.0666666666666667,0.833333333333333,NaN,NaN,NaN,NaN,NaN,NaN,NaN,NaN,NaN,NaN
109,19,9,categorization,0,kitchen,SHINEd_sun_aadbddgrdsjugojn.tif,64,0.0333333333333333,0.0333333333333333,0.0666666666666667,1.9,NaN,NaN,NaN,NaN,NaN,NaN,NaN,NaN,NaN,NaN
109,20,9,categorization,0,bathroom,SHINEd_sun_afmzatxvdtvhuafm.tif,24,0.0333333333333333,0.0333333333333333,0.0666666666666667,1.61666666666667,NaN,NaN,NaN,NaN,NaN,NaN,NaN,NaN,NaN,NaN
109,21,9,categorization,0,bathroom,SHINEd_labelme_sfxiulhjbhlyiyt.tif,11,0.0333333333333333,0.0333333333333333,0.0666666666666667,1.11666666666667,NaN,NaN,NaN,NaN,NaN,NaN,NaN,NaN,NaN,NaN
109,22,9,categorization,0,kitchen,SHINEd_sun_aehawpgmrlhlvcow.tif,82,0.0333333333333333,0.0333333333333333,0.0666666666666667,0.833333333333333,NaN,NaN,NaN,NaN,NaN,NaN,NaN,NaN,NaN,NaN
109,23,9,categorization,0,kitchen,SHINEd_sun_acfmftudsenhrfhy.tif,75,0.0333333333333333,0.0333333333333333,0.0666666666666667,1.13333333333333,NaN,NaN,NaN,NaN,NaN,NaN,NaN,NaN,NaN,NaN
109,24,9,categorization,0,bathroom,SHINEd_sun_apeeialkgkuxddgh.tif,43,0.0333333333333333,0.0333333333333333,0.0666666666666667,0.883333333333333,NaN,NaN,NaN,NaN,NaN,NaN,NaN,NaN,NaN,NaN
109,25,9,categorization,0,kitchen,SHINEd_sun_ayqymgxqhxxiykiw.tif,109,0.0333333333333333,0.0333333333333333,0.0666666666666667,1.96666666666667,NaN,NaN,NaN,NaN,NaN,NaN,NaN,NaN,NaN,NaN
109,26,9,categorization,0,bathroom,SHINEd_sun_ahqjwnzgolcaoidx.tif,30,0.0333333333333333,0.0333333333333333,0.0666666666666667,0.783333333333333,NaN,NaN,NaN,NaN,NaN,NaN,NaN,NaN,NaN,NaN
109,27,9,categorization,0,bathroom,SHINEd_sun_apjevzvycyhuqghb.tif,44,0.0333333333333333,0.0333333333333333,0.0666666666666667,1.65,NaN,NaN,NaN,NaN,NaN,NaN,NaN,NaN,NaN,NaN
109,28,9,categorization,0,bathroom,SHINEd_sun_aunuadmjocsddsrl.tif,53,0.0333333333333333,0.0333333333333333,0.0666666666666667,1.26666666666667,NaN,NaN,NaN,NaN,NaN,NaN,NaN,NaN,NaN,NaN
109,29,9,categorization,0,bathroom,SHINEd_sun_aapitsgbtktqubfy.tif,14,0.0333333333333333,0.0333333333333333,0.0666666666666667,1.95,NaN,NaN,NaN,NaN,NaN,NaN,NaN,NaN,NaN,NaN
109,30,9,categorization,0,kitchen,SHINEd_sun_aexklacwqwezaorf.tif,85,0.0333333333333333,0.0333333333333333,0.0666666666666667,1.65,NaN,NaN,NaN,NaN,NaN,NaN,NaN,NaN,NaN,NaN
109,31,9,categorization,0,kitchen,SHINEd_sun_aypmqwcualkenuoe.tif,108,0.0333333333333333,0.0333333333333333,0.0666666666666667,1,NaN,NaN,NaN,NaN,NaN,NaN,NaN,NaN,NaN,NaN
109,32,9,categorization,0,bathroom,SHINEd_labelme_xbsnnlvmskdknsb.tif,12,0.0333333333333333,0.0333333333333333,0.0666666666666667,1.05,NaN,NaN,NaN,NaN,NaN,NaN,NaN,NaN,NaN,NaN
109,33,9,categorization,0,bathroom,SHINEd_sun_awnqiikzaispgmwo.tif,57,0.0333333333333333,0.0333333333333333,0.0666666666666667,1.63333333333333,NaN,NaN,NaN,NaN,NaN,NaN,NaN,NaN,NaN,NaN
109,34,9,categorization,0,bathroom,SHINEd_sun_aqrpegblszgcoujh.tif,47,0.0333333333333333,0.0333333333333333,0.0666666666666667,1.46666666666667,NaN,NaN,NaN,NaN,NaN,NaN,NaN,NaN,NaN,NaN
109,35,9,categorization,0,bathroom,SHINEd_sun_ammzpemadwrjdfzl.tif,38,0.0333333333333333,0.0333333333333333,0.0666666666666667,1.71666666666667,NaN,NaN,NaN,NaN,NaN,NaN,NaN,NaN,NaN,NaN
109,36,9,categorization,0,bathroom,SHINEd_sun_aamrfepkhweyewue.tif,13,0.0333333333333333,0.0333333333333333,0.0666666666666667,1.41666666666667,NaN,NaN,NaN,NaN,NaN,NaN,NaN,NaN,NaN,NaN
109,37,9,categorization,0,bathroom,SHINEd_sun_adwvsndpdsgzeste.tif,22,0.0333333333333333,0.0333333333333333,0.0666666666666667,1.48333333333333,NaN,NaN,NaN,NaN,NaN,NaN,NaN,NaN,NaN,NaN
109,38,9,categorization,0,kitchen,SHINEd_sun_ahpczsiumwwocjkv.tif,93,0.0333333333333333,0.0333333333333333,0.0666666666666667,0.85,NaN,NaN,NaN,NaN,NaN,NaN,NaN,NaN,NaN,NaN
109,39,9,categorization,0,kitchen,SHINEd_sun_ajcbwwvdlsvjyzje.tif,95,0.0333333333333333,0.0333333333333333,0.0666666666666667,0.866666666666667,NaN,NaN,NaN,NaN,NaN,NaN,NaN,NaN,NaN,NaN
109,40,9,categorization,0,bathroom,SHINEd_sun_ausgutylgojavyoq.tif,54,0.0333333333333333,0.0333333333333333,0.0666666666666667,1.18333333333333,NaN,NaN,NaN,NaN,NaN,NaN,NaN,NaN,NaN,NaN
109,41,9,categorization,0,kitchen,SHINEd_sun_azmutvzbxypaceni.tif,110,0.0333333333333333,0.0333333333333333,0.0666666666666667,0.833333333333333,NaN,NaN,NaN,NaN,NaN,NaN,NaN,NaN,NaN,NaN
109,42,9,categorization,0,kitchen,SHINEd_sun_aenotlpyftoioydp.tif,84,0.0333333333333333,0.0333333333333333,0.0666666666666667,1.61666666666667,NaN,NaN,NaN,NaN,NaN,NaN,NaN,NaN,NaN,NaN
109,43,9,categorization,0,bathroom,SHINEd_sun_abjtwfukuwddzted.tif,17,0.0333333333333333,0.0333333333333333,0.0666666666666667,1.36666666666667,NaN,NaN,NaN,NaN,NaN,NaN,NaN,NaN,NaN,NaN
109,44,9,categorization,0,bathroom,SHINEd_sun_atyjprilyfyzpbjv.tif,52,0.0333333333333333,0.0333333333333333,0.0666666666666667,1.18333333333333,NaN,NaN,NaN,NaN,NaN,NaN,NaN,NaN,NaN,NaN
109,45,9,categorization,0,kitchen,SHINEd_sun_aeikbkmhphqzxdkv.tif,83,0.0333333333333333,0.0333333333333333,0.0666666666666667,1.98333333333333,NaN,NaN,NaN,NaN,NaN,NaN,NaN,NaN,NaN,NaN
109,46,9,categorization,0,kitchen,SHINEd_sun_acfluyeqiftljamq.tif,74,0.0333333333333333,0.0333333333333333,0.0666666666666667,1.35,NaN,NaN,NaN,NaN,NaN,NaN,NaN,NaN,NaN,NaN
109,47,9,categorization,0,kitchen,SHINEd_labelme_brsyyvweiuaazfr.tif,61,0.0333333333333333,0.0333333333333333,0.0666666666666667,0.833333333333333,NaN,NaN,NaN,NaN,NaN,NaN,NaN,NaN,NaN,NaN
109,48,9,categorization,0,kitchen,SHINEd_labelme_rykdqxenmhulbdn.tif,63,0.0333333333333333,0.0333333333333333,0.0666666666666667,0.933333333333333,NaN,NaN,NaN,NaN,NaN,NaN,NaN,NaN,NaN,NaN
109,49,9,categorization,0,kitchen,SHINEd_sun_avszsnwsbuqfgzbn.tif,104,0.0333333333333333,0.0333333333333333,0.0666666666666667,1.96666666666667,NaN,NaN,NaN,NaN,NaN,NaN,NaN,NaN,NaN,NaN
109,50,9,categorization,0,bathroom,SHINEd_sun_agyqfjcfkdcydepw.tif,28,0.0333333333333333,0.0333333333333333,0.0666666666666667,0.966666666666667,NaN,NaN,NaN,NaN,NaN,NaN,NaN,NaN,NaN,NaN
