sub_num,trial,block,task,is_practice,category,image,texture,duration,blank,mask_dur,jitter,stim_time,time_of_resp,trial_response,blank_time,mask_time,fix_time,jit_onset,trial_end,trial_accuracy,RT
109,1,8,categorization,0,kitchen,SHINEd_sun_acxkpeoqbwcxfvip.tif,77,0.0333333333333333,0.0333333333333333,0.0666666666666667,0.966666666666667,879505.3157216,879506.1318821,70,879505.3513426,879505.3852176,879505.4517294,879506.1365396,879507.101545,1,0.816160500049591
109,2,8,categorization,0,bathroom,SHINEd_sun_awnqiikzaispgmwo.tif,57,0.0333333333333333,0.0333333333333333,0.0666666666666667,1.25,879507.1068692,879507.8113774,74,879507.1421736,879507.1760616,879507.2423525,879507.8172409,879509.0655783,1,0.704508199938573
109,3,8,categorization,0,bathroom,SHINEd_sun_abapwbhyhkfixyex.tif,16,0.0333333333333333,0.0333333333333333,0.0666666666666667,0.833333333333333,879509.0703162,879510.1561729,74,879509.1077201,879509.1415143,879509.2063313,879510.1617264,879510.9933969,1,1.08585669996683
109,4,8,categorization,0,bathroom,SHINEd_sun_acduarbnmmoglmiv.tif,18,0.0333333333333333,0.0333333333333333,0.0666666666666667,1.3,879510.9985765,879511.7233842,74,879511.0358102,879511.0685905,879511.135911,879511.7295043,879513.0278431,1,0.724807700025849
109,5,8,categorization,0,bathroom,SHINEd_sun_apynckhmoftszqoq.tif,46,0.0333333333333333,0.0333333333333333,0.0666666666666667,1.83333333333333,879513.0326988,879513.7712787,74,879513.0681929,879513.1021779,879513.1696274,879513.7773152,879515.6089854,1,0.73857990000397
109,6,8,categorization,0,bathroom,SHINEd_sun_atyjprilyfyzpbjv.tif,52,0.0333333333333333,0.0333333333333333,0.0666666666666667,1.03333333333333,879515.6138385,879516.32419,74,879515.6507491,879515.6833364,879515.7495099,879516.3289712,879517.3606433,1,0.710351499961689
109,7,8,categorization,0,bathroom,SHINEd_sun_aapitsgbtktqubfy.tif,14,0.0333333333333333,0.0333333333333333,0.0666666666666667,0.75,879517.3667574,879518.1473725,70,879517.4026101,879517.437809,879517.5025072,879518.1532437,879518.9015826,0,0.780615100055002
109,8,8,categorization,0,kitchen,SHINEd_labelme_brsyyvweiuaazfr.tif,61,0.0333333333333333,0.0333333333333333,0.0666666666666667,1.18333333333333,879518.906079,879519.5953808,70,879518.942094,879518.9753899,879519.0419722,879519.6010976,879520.7827676,1,0.689301799982786
109,9,8,categorization,0,kitchen,SHINEd_sun_acwjdupvyjsugpay.tif,76,0.0333333333333333,0.0333333333333333,0.0666666666666667,1.4,879520.7874676,879521.5554078,70,879520.8235151,879520.8568594,879520.9232475,879521.5610957,879522.9594334,1,0.767940200050361
109,10,8,categorization,0,bathroom,SHINEd_sun_auzqhkafidnkrwmo.tif,55,0.0333333333333333,0.0333333333333333,0.0666666666666667,1.23333333333333,879522.9658236,879523.7009055,74,879523.0028749,879523.0368163,879523.1024835,879523.705781,879524.937451,1,0.735081900027581
109,11,8,categorization,0,kitchen,SHINEd_sun_awcpdzzznmweyyhv.tif,105,0.0333333333333333,0.0333333333333333,0.0666666666666667,1.3,879524.9438984,879525.8033366,70,879524.979916,879525.0132192,879525.0795985,879525.8096043,879527.1079439,1,0.859438200015575
109,12,8,categorization,0,kitchen,SHINEd_sun_aggjlwcdjsjcaemh.tif,87,0.0333333333333333,0.0333333333333333,0.0666666666666667,0.883333333333333,879527.1137846,879528.2038827,70,879527.1494599,879527.1832047,879527.2507223,879528.2095834,879529.0912537,1,1.09009809989948
109,13,8,categorization,0,kitchen,SHINEd_sun_ayqymgxqhxxiykiw.tif,109,0.0333333333333333,0.0333333333333333,0.0666666666666667,0.9,879529.0966168,879529.8593593,70,879529.1324156,879529.1661538,879529.2327015,879529.8651542,879530.7634905,1,0.762742500053719
109,14,8,categorization,0,bathroom,SHINEd_sun_ausgutylgojavyoq.tif,54,0.0333333333333333,0.0333333333333333,0.0666666666666667,1.58333333333333,879530.7692771,879531.4600699,74,879530.8049632,879530.8386059,879530.9052424,879531.4653967,879533.0470678,1,0.69079280004371
109,15,8,categorization,0,bathroom,SHINEd_sun_apeeialkgkuxddgh.tif,43,0.0333333333333333,0.0333333333333333,0.0666666666666667,1.11666666666667,879533.0519595,879533.7233896,74,879533.0875058,879533.1224663,879533.1888811,879533.729253,879534.8442644,1,0.671430100104772
109,16,8,categorization,0,kitchen,SHINEd_sun_aymvwlarqodbwuoc.tif,107,0.0333333333333333,0.0333333333333333,0.0666666666666667,1.88333333333333,879534.8493806,879535.6438181,70,879534.8866754,879534.9190583,879534.9853591,879535.649322,879537.5309944,1,0.794437499949709
109,17,8,categorization,0,kitchen,SHINEd_sun_agubuxuukhzyzpdp.tif,89,0.0333333333333333,0.0333333333333333,0.0666666666666667,1.23333333333333,879537.5370302,879538.3400759,70,879537.5739818,879537.6064425,879537.6726436,879538.3454618,879539.5771322,1,0.803045699954964
109,18,8,categorization,0,bathroom,SHINEd_sun_adwvsndpdsgzeste.tif,22,0.0333333333333333,0.0333333333333333,0.0666666666666667,0.716666666666667,879539.5821336,879540.5479239,74,879539.6176887,879539.6526885,879539.717468,879540.5528719,879541.2678756,1,0.965790299931541
109,19,8,categorization,0,bathroom,SHINEd_sun_aamrfepkhweyewue.tif,13,0.0333333333333333,0.0333333333333333,0.0666666666666667,1.2,879541.2728043,879542.05934,70,879541.3085714,879541.3422212,879541.4090029,879542.065186,879543.2635229,0,0.786535700084642
109,20,8,categorization,0,bathroom,SHINEd_sun_apkxzenqapsujocq.tif,45,0.0333333333333333,0.0333333333333333,0.0666666666666667,1.31666666666667,879543.2684879,879543.9635802,74,879543.3057486,879543.3386738,879543.4047988,879543.9684567,879545.2834601,1,0.695092299953103
109,21,8,categorization,0,bathroom,SHINEd_sun_amzlamotzwfkwjco.tif,39,0.0333333333333333,0.0333333333333333,0.0666666666666667,1.43333333333333,879545.2884096,879546.1793676,74,879545.3243279,879545.3583309,879545.4241408,879546.1853178,879547.6169896,1,0.890957999974489
109,22,8,categorization,0,bathroom,SHINEd_sun_asfwthctfqerjvxr.tif,49,0.0333333333333333,0.0333333333333333,0.0666666666666667,1.6,879547.6230041,879548.4440899,74,879547.6589061,879547.6923784,879547.7587301,879548.4488356,879550.0471732,1,0.821085799951106
109,23,8,categorization,0,kitchen,SHINEd_sun_aeikbkmhphqzxdkv.tif,83,0.0333333333333333,0.0333333333333333,0.0666666666666667,1.66666666666667,879550.0529533,879550.7718783,74,879550.0889158,879550.1224576,879550.1886708,879550.776958,879552.4419629,0,0.718925000051968
109,24,8,categorization,0,bathroom,SHINEd_sun_afmzatxvdtvhuafm.tif,24,0.0333333333333333,0.0333333333333333,0.0666666666666667,1.3,879552.4466304,879553.235804,70,879552.4819989,879552.5178027,879552.5828739,879553.240485,879554.5388232,0,0.789173600031063
109,25,8,categorization,0,kitchen,SHINEd_sun_aexklacwqwezaorf.tif,85,0.0333333333333333,0.0333333333333333,0.0666666666666667,0.716666666666667,879554.5449558,879555.4752781,74,879554.5820166,879554.6145397,879554.6806442,879555.4811698,879556.1961741,0,0.930322299944237
109,26,8,categorization,0,kitchen,SHINEd_sun_ajcbwwvdlsvjyzje.tif,95,0.0333333333333333,0.0333333333333333,0.0666666666666667,1.33333333333333,879556.2012175,879557.0439095,70,879556.23678,879556.2709591,879556.3369076,879557.0490575,879558.3807286,1,0.842691999976523
109,27,8,categorization,0,kitchen,SHINEd_sun_adcrxklhlbwrbkgm.tif,78,0.0333333333333333,0.0333333333333333,0.0666666666666667,1.6,879558.3855614,879559.1077994,70,879558.422807,879558.4555037,879558.5210391,879559.1128212,879560.7111594,1,0.722238000016659
109,28,8,categorization,0,kitchen,SHINEd_sun_auaiucuqpdausiva.tif,101,0.0333333333333333,0.0333333333333333,0.0666666666666667,1.03333333333333,879560.7162537,879561.4433408,70,879560.7537303,879560.7863357,879560.8517804,879561.4488984,879562.4805702,1,0.727087100036442
109,29,8,categorization,0,bathroom,SHINEd_sun_ambriybtogmepttm.tif,37,0.0333333333333333,0.0333333333333333,0.0666666666666667,0.733333333333333,879562.4853137,879563.4920553,74,879562.5212792,879562.55629,879562.6207939,879563.4966183,879564.2282876,1,1.00674159999471
109,30,8,categorization,0,bathroom,SHINEd_sun_axxbkopsgyouuebh.tif,58,0.0333333333333333,0.0333333333333333,0.0666666666666667,0.95,879564.233289,879565.0192771,74,879564.2690353,879564.3027391,879564.3690654,879565.0251404,879565.9734788,1,0.785988099989481
109,31,8,categorization,0,bathroom,SHINEd_sun_axyrejkiiaqiurjk.tif,59,0.0333333333333333,0.0333333333333333,0.0666666666666667,1.66666666666667,879565.9780443,879566.6112682,70,879566.0149637,879566.0474182,879566.1147121,879566.6173308,879568.2823351,0,0.633223899989389
109,32,8,categorization,0,kitchen,SHINEd_sun_axyyrmzcupyhlivc.tif,106,0.0333333333333333,0.0333333333333333,0.0666666666666667,0.866666666666667,879568.2872875,879569.1320445,70,879568.3245985,879568.3567954,879568.4231361,879569.1370343,879570.0020389,1,0.844756999984384
109,33,8,categorization,0,kitchen,SHINEd_sun_aamedkxepzlwuxes.tif,65,0.0333333333333333,0.0333333333333333,0.0666666666666667,0.833333333333333,879570.0065634,879570.8913262,70,879570.0438442,879570.0759972,879570.1424214,879570.8976892,879571.7293602,1,0.884762799949385
109,34,8,categorization,0,bathroom,SHINEd_sun_anhioqovhscjqqwb.tif,40,0.0333333333333333,0.0333333333333333,0.0666666666666667,1.66666666666667,879571.7342087,879572.3873152,74,879571.7714364,879571.8036852,879571.8698329,879572.392805,879574.0578092,1,0.653106499928981
109,35,8,categorization,0,kitchen,SHINEd_sun_akcjzhbbjlbogpdi.tif,96,0.0333333333333333,0.0333333333333333,0.0666666666666667,1,879574.0631291,879575.36333,70,879574.0988393,879574.1326049,879574.1988163,879575.3697814,879576.3681186,1,1.3002008999465
109,36,8,categorization,0,kitchen,SHINEd_sun_adgqasybjyktddhj.tif,79,0.0333333333333333,0.0333333333333333,0.0666666666666667,0.883333333333333,879576.3727418,879577.2033382,70,879576.4086498,879576.4433619,879576.5080211,879577.2091185,879578.0907897,1,0.830596399959177
109,37,8,categorization,0,bathroom,SHINEd_sun_aspsyogrekjtfozg.tif,50,0.0333333333333333,0.0333333333333333,0.0666666666666667,1.88333333333333,879578.0958385,879578.8280794,74,879578.1311346,879578.1656723,879578.2315699,879578.8332113,879580.7148818,1,0.732240900048055
109,38,8,categorization,0,kitchen,SHINEd_sun_aenotlpyftoioydp.tif,84,0.0333333333333333,0.0333333333333333,0.0666666666666667,1.26666666666667,879580.7198351,879581.3873621,70,879580.7570066,879580.7899816,879580.8555636,879581.3930519,879582.6580568,1,0.667526999954134
109,39,8,categorization,0,bathroom,SHINEd_sun_avhrdrntsqrjzccq.tif,56,0.0333333333333333,0.0333333333333333,0.0666666666666667,1.11666666666667,879582.6627531,879583.4119259,74,879582.6987538,879582.7321236,879582.7985798,879583.4167129,879584.5317169,1,0.749172799987718
109,40,8,categorization,0,kitchen,SHINEd_sun_abrcnpqqhmjwekyf.tif,73,0.0333333333333333,0.0333333333333333,0.0666666666666667,1.58333333333333,879584.5366199,879585.4035907,74,879584.5726169,879584.6060634,879584.6720807,879585.4092666,879586.9909384,0,0.866970799979754
109,41,8,categorization,0,bathroom,SHINEd_sun_aleqenyvunhactkl.tif,33,0.0333333333333333,0.0333333333333333,0.0666666666666667,1.91666666666667,879586.9958018,879587.6440384,70,879587.0317134,879587.0652252,879587.1315325,879587.6490748,879589.564078,0,0.648236599983647
109,42,8,categorization,0,kitchen,SHINEd_sun_abpwyqmlzafvklqo.tif,72,0.0333333333333333,0.0333333333333333,0.0666666666666667,1.66666666666667,879589.569048,879590.195907,70,879589.6059876,879589.6389457,879589.7046305,879590.2010543,879591.866059,1,0.626858999952674
109,43,8,categorization,0,kitchen,SHINEd_sun_auticobqsbwgoppi.tif,103,0.0333333333333333,0.0333333333333333,0.0666666666666667,0.983333333333333,879591.8721142,879592.7879831,70,879591.9081073,879591.9414709,879592.0082841,879592.7933808,879593.7750514,1,0.915868900017813
109,44,8,categorization,0,bathroom,SHINEd_sun_azqyogdvyhahyram.tif,60,0.0333333333333333,0.0333333333333333,0.0666666666666667,1.78333333333333,879593.7795704,879594.4112543,74,879593.8155236,879593.8500146,879593.9152584,879594.4164818,879596.1981524,1,0.631683900021017
109,45,8,categorization,0,kitchen,SHINEd_sun_agorklincwxrdtga.tif,88,0.0333333333333333,0.0333333333333333,0.0666666666666667,1.1,879596.2030881,879596.8839455,70,879596.2389971,879596.2738028,879596.3399249,879596.8892316,879597.9875685,1,0.680857400060631
109,46,8,categorization,0,kitchen,SHINEd_sun_ahljzhgcdpomplvg.tif,92,0.0333333333333333,0.0333333333333333,0.0666666666666667,1.23333333333333,879597.993513,879598.8913638,70,879598.0307765,879598.0629719,879598.1303594,879598.8975842,879600.1292541,1,0.897850800072774
109,47,8,categorization,0,kitchen,SHINEd_sun_ahywdevtimnqcsln.tif,94,0.0333333333333333,0.0333333333333333,0.0666666666666667,0.85,879600.1342066,879600.9393267,70,879600.1697845,879600.2036457,879600.2698406,879600.9454398,879601.7937775,1,0.805120100034401
109,48,8,categorization,0,kitchen,SHINEd_sun_aypmqwcualkenuoe.tif,108,0.0333333333333333,0.0333333333333333,0.0666666666666667,1.16666666666667,879601.7989771,879602.4032794,70,879601.8354521,879601.8687401,879601.9345011,879602.4088408,879603.5738466,1,0.604302299907431
109,49,8,categorization,0,kitchen,SHINEd_sun_acfluyeqiftljamq.tif,74,0.0333333333333333,0.0333333333333333,0.0666666666666667,1.78333333333333,879603.5788958,879604.1553265,70,879603.6162321,879603.6479168,879603.7141562,879604.1612136,879605.942884,1,0.576430699904449
109,50,8,categorization,0,bathroom,SHINEd_sun_ahcvzmoyaycdoftf.tif,29,0.0333333333333333,0.0333333333333333,0.0666666666666667,0.766666666666667,879605.9478834,879606.9559785,70,879605.9852748,879606.0188188,879606.0838255,879606.9611418,879607.7261459,0,1.00809509993996
