sub_num,trial,block,task,is_practice,category,image,texture,duration,mask_dur,jitter,stim_time,time_of_resp,trial_response,mask_time,fix_time,jit_onset,trial_end,trial_accuracy,RT
110,1,0,complexity,1,bathroom,bathroom_practice3.tif,223,1.5,0,1.56666666666667,2871.249499333,2876.023860417,2,NaN,2876.045335583,2876.065531125,2877.625831375,NaN,NaN
110,2,0,complexity,1,bathroom,bathroom_practice5.tif,225,1.5,0,1.1,2877.699602208,2880.252780375,3,NaN,2880.305572875,2880.331650833,2881.425289,NaN,NaN
110,3,0,complexity,1,bathroom,bathroom_practice2.tif,222,1.5,0,1.51666666666667,2881.449920667,2884.599751083,7,NaN,2884.607561042,2884.626313208,2886.136590292,NaN,NaN
110,4,0,complexity,1,bathroom,bathroom_practice4.tif,224,1.5,0,1.15,2886.163209208,2888.848253417,1,NaN,2888.8551615,2888.873842292,2890.01719375,NaN,NaN
110,5,0,complexity,1,bathroom,bathroom_practice1.tif,221,1.5,0,1.26666666666667,2890.027197208,2893.496451292,1,NaN,2893.506146875,2893.525597917,2894.786350625,NaN,NaN
110,1,1,complexity,0,bathroom,sun_abapwbhyhkfixyex.tif,124,1.5,0,0.75,2900.0922005,2902.727838583,4,NaN,2902.754112417,2902.77720575,2903.520574083,NaN,NaN
110,2,1,complexity,0,bathroom,sun_akiytfaagpdsphgz.tif,141,1.5,0,1.28333333333333,2903.52585125,2906.072220583,4,NaN,2906.098293042,2906.121260958,2907.397974083,NaN,NaN
110,3,1,complexity,0,bathroom,sun_axxbkopsgyouuebh.tif,168,1.5,0,1.76666666666667,2907.417658917,2909.895668083,2,NaN,2909.901193083,2909.919557542,2911.679597542,NaN,NaN
110,4,1,complexity,0,bathroom,sun_abjtwfukuwddzted.tif,125,1.5,0,1.28333333333333,2911.701602083,2915.008230208,1,NaN,2915.037121667,2915.05966175,2916.336370667,NaN,NaN
110,5,1,complexity,0,bathroom,sun_amzlamotzwfkwjco.tif,147,1.5,0,1.8,2916.355379083,2918.912075042,4,NaN,2918.917488875,2918.935908292,2920.729255958,NaN,NaN
110,6,1,complexity,0,bathroom,sun_aofnryafpsjimzsb.tif,150,1.5,0,0.716666666666667,2920.738834083,2924.089112625,5,NaN,2924.114977,2924.138109958,2924.848114458,NaN,NaN
110,7,1,complexity,0,bathroom,sun_asfwthctfqerjvxr.tif,159,1.5,0,1,2924.852790125,2928.303814458,4,NaN,2928.310052792,2928.328304167,2929.321642417,NaN,NaN
110,8,1,complexity,0,bathroom,sun_apjevzvycyhuqghb.tif,153,1.5,0,1.21666666666667,2929.326145042,2931.909273125,4,NaN,2931.934397083,2931.956243875,2933.166292417,NaN,NaN
110,9,1,complexity,0,bathroom,sun_aapitsgbtktqubfy.tif,122,1.5,0,1.55,2933.18518375,2935.65643475,3,NaN,2935.662119083,2935.680406792,2937.223788958,NaN,NaN
110,10,1,complexity,0,bathroom,sun_aclfzgynxzxlbepz.tif,129,1.5,0,2,2937.243199708,2939.5620735,2,NaN,2939.578643625,2939.596952583,2941.590341333,NaN,NaN
110,11,1,complexity,0,bathroom,sun_aqrpegblszgcoujh.tif,158,1.5,0,0.716666666666667,2941.609383833,2944.305390167,2,NaN,2944.357999417,2944.381291625,2945.091296875,NaN,NaN
110,12,1,complexity,0,bathroom,sun_awnqiikzaispgmwo.tif,166,1.5,0,0.933333333333333,2945.097616583,2947.71153475,1,NaN,2947.73658,2947.759643833,2948.686315583,NaN,NaN
110,13,1,complexity,0,bathroom,sun_axyrejkiiaqiurjk.tif,169,1.5,0,1.58333333333333,2948.691409,2952.847706958,2,NaN,2952.853464875,2952.871838583,2954.448550458,NaN,NaN
110,14,1,complexity,0,bathroom,sun_aspsyogrekjtfozg.tif,160,1.5,0,0.9,2954.468253167,2957.047806375,4,NaN,2957.053301542,2957.071710625,2957.965048667,NaN,NaN
110,15,1,complexity,0,bathroom,sun_anryaplzeujmzfkd.tif,149,1.5,0,1.16666666666667,2957.969411375,2960.451568625,4,NaN,2960.477310167,2960.500200583,2961.660232042,NaN,NaN
110,16,1,complexity,0,bathroom,sun_ausgutylgojavyoq.tif,163,1.5,0,0.733333333333333,2961.670398958,2964.600019708,3,NaN,2964.605554667,2964.623832833,2965.3505045,NaN,NaN
110,17,1,complexity,0,bathroom,sun_ahijqszoswveeyji.tif,138,1.5,0,1.15,2965.3549635,2967.946595625,4,NaN,2967.970832958,2967.994662042,2969.138042292,NaN,NaN
110,18,1,complexity,0,bathroom,sun_acgyywnybuveqsro.tif,128,1.5,0,1.01666666666667,2969.149547958,2972.528495042,3,NaN,2972.545061958,2972.563330958,2973.573371,NaN,NaN
110,19,1,complexity,0,bathroom,sun_aggnnqpdorgxpvce.tif,131,1.5,0,0.883333333333333,2973.582326333,2977.184042917,5,NaN,2977.189542125,2977.207928042,2978.084600208,NaN,NaN
110,20,1,complexity,0,bathroom,sun_avhrdrntsqrjzccq.tif,165,1.5,0,1.65,2978.089290167,2981.163758083,4,NaN,2981.19060075,2981.212589417,2982.855959,NaN,NaN
110,21,1,complexity,0,bathroom,sun_aghyqhbptboemmoq.tif,133,1.5,0,0.75,2982.87563075,2985.873169083,2,NaN,2985.900207,2985.923594958,2986.666935458,NaN,NaN
110,22,1,complexity,0,bathroom,sun_acegryoqftbzowsg.tif,127,1.5,0,1.28333333333333,2986.672362917,2990.559911458,3,NaN,2990.565306208,2990.583648708,2991.860369,NaN,NaN
110,23,1,complexity,0,bathroom,sun_ambriybtogmepttm.tif,146,1.5,0,1.25,2991.882435375,2994.40785825,4,NaN,2994.413233417,2994.431622042,2995.674998917,NaN,NaN
110,24,1,complexity,0,bathroom,sun_agrwbmhcpmfuwmsg.tif,134,1.5,0,0.833333333333333,2995.6937155,2998.4394685,3,NaN,2998.445216833,2998.463387875,2999.290060042,NaN,NaN
110,25,1,complexity,0,bathroom,sun_acduarbnmmoglmiv.tif,126,1.5,0,1.05,2999.311694292,3004.271778333,3,NaN,3004.277493708,3004.295700042,3005.339068292,NaN,NaN
110,1,2,complexity,0,bathroom,sun_apkxzenqapsujocq.tif,155,1.5,0,0.95,3010.099309708,3013.262156125,1,NaN,3013.269678375,3013.288055542,3014.231394875,NaN,NaN
110,2,2,complexity,0,bathroom,sun_afcoljnjfoxjtgja.tif,130,1.5,0,1.55,3014.236530583,3017.831425542,3,NaN,3017.837185708,3017.855649083,3019.399022833,NaN,NaN
110,3,2,complexity,0,bathroom,sun_agyqfjcfkdcydepw.tif,135,1.5,0,1.2,3019.418264625,3022.127477708,3,NaN,3022.132965667,3022.151310083,3023.344674542,NaN,NaN
110,4,2,complexity,0,bathroom,sun_apkruvsevgegsdwp.tif,154,1.5,0,1.86666666666667,3023.357173292,3026.327197208,1,NaN,3026.333231333,3026.351608667,3028.21164575,NaN,NaN
110,5,2,complexity,0,bathroom,sun_alotolagknyrgtsk.tif,145,1.5,0,1.66666666666667,3028.231977167,3031.991597125,4,NaN,3031.997226333,3032.015496583,3033.675551458,NaN,NaN
110,6,2,complexity,0,bathroom,sun_axldvoqbuvuggfmq.tif,167,1.5,0,1.35,3033.695214875,3036.17773875,2,NaN,3036.204047667,3036.226990833,3037.570380583,NaN,NaN
110,7,2,complexity,0,bathroom,sun_aoybiabnpadelefl.tif,151,1.5,0,1.11666666666667,3037.5892615,3040.495772208,2,NaN,3040.501192833,3040.519625542,3041.629666583,NaN,NaN
110,8,2,complexity,0,bathroom,sun_apmqjbnwghzuhhzh.tif,156,1.5,0,0.95,3041.638910583,3044.319146583,3,NaN,3044.325260792,3044.343611667,3045.286951833,NaN,NaN
110,9,2,complexity,0,bathroom,sun_aleqenyvunhactkl.tif,142,1.5,0,1.03333333333333,3045.294829458,3048.015102333,2,NaN,3048.03251975,3048.054169833,3049.080882042,NaN,NaN
110,10,2,complexity,0,bathroom,sun_aunuadmjocsddsrl.tif,162,1.5,0,1.01666666666667,3049.090229875,3052.575790708,2,NaN,3052.581133875,3052.599478542,3053.609526833,NaN,NaN
110,11,2,complexity,0,bathroom,sun_agguqiubmwhqqunb.tif,132,1.5,0,1.81666666666667,3053.617929542,3056.671318917,2,NaN,3056.677655708,3056.696435167,3058.506488208,NaN,NaN
110,12,2,complexity,0,bathroom,sun_alkosphxlxwjwgjd.tif,144,1.5,0,1.8,3058.527598833,3062.207483333,4,NaN,3062.212988625,3062.231308375,3064.024694958,NaN,NaN
110,13,2,complexity,0,bathroom,sun_atstyziqcmkahyxk.tif,161,1.5,0,1.26666666666667,3064.042568083,3066.832499125,2,NaN,3066.859181292,3066.882451458,3068.142494458,NaN,NaN
110,14,2,complexity,0,bathroom,sun_azqyogdvyhahyram.tif,170,1.5,0,1.66666666666667,3068.16178175,3070.999608417,2,NaN,3071.005421333,3071.023852833,3072.683900042,NaN,NaN
110,15,2,complexity,0,bathroom,sun_aljolscmmzydegqp.tif,143,1.5,0,1.93333333333333,3072.703894833,3075.955485667,4,NaN,3075.984486083,3076.007407625,3077.93420375,NaN,NaN
110,16,2,complexity,0,bathroom,sun_ahcvzmoyaycdoftf.tif,137,1.5,0,1.75,3077.953437292,3080.470987083,4,NaN,3080.500606042,3080.523825708,3082.267203667,NaN,NaN
110,17,2,complexity,0,bathroom,sun_aavhrsfjbserjtht.tif,123,1.5,0,0.766666666666667,3082.287048958,3084.868365458,3,NaN,3084.891808208,3084.914873875,3085.674915542,NaN,NaN
110,18,2,complexity,0,bathroom,sun_ajlawzvmubibwbpy.tif,140,1.5,0,1.43333333333333,3085.689325333,3088.345478792,5,NaN,3088.375598208,3088.398677667,3089.825388375,NaN,NaN
110,19,2,complexity,0,bathroom,sun_ahqjwnzgolcaoidx.tif,139,1.5,0,0.916666666666667,3089.843019667,3092.511437417,4,NaN,3092.527745167,3092.54662825,3093.456633375,NaN,NaN
110,20,2,complexity,0,bathroom,labelme_sfxiulhjbhlyiyt.tif,121,1.5,0,0.766666666666667,3093.463067417,3095.939555458,2,NaN,3095.96425925,3095.985593708,3096.745597333,NaN,NaN
110,21,2,complexity,0,bathroom,sun_apynckhmoftszqoq.tif,157,1.5,0,0.783333333333333,3096.750526583,3099.568741708,2,NaN,3099.599117917,3099.621558875,3100.398230542,NaN,NaN
110,22,2,complexity,0,bathroom,sun_anhioqovhscjqqwb.tif,148,1.5,0,1.31666666666667,3100.403004208,3103.543681833,2,NaN,3103.549829208,3103.568170542,3104.878216458,NaN,NaN
110,23,2,complexity,0,bathroom,sun_auzqhkafidnkrwmo.tif,164,1.5,0,1.1,3104.8988345,3107.567413708,4,NaN,3107.572824958,3107.591071375,3108.684458792,NaN,NaN
110,24,2,complexity,0,bathroom,sun_ahaulkltgpkeeemi.tif,136,1.5,0,1.26666666666667,3108.698107,3111.703565542,4,NaN,3111.708970292,3111.727427417,3112.987463875,NaN,NaN
110,25,2,complexity,0,bathroom,sun_apeeialkgkuxddgh.tif,152,1.5,0,0.933333333333333,3113.003667042,3116.215690667,3,NaN,3116.221123625,3116.239603083,3117.166275042,NaN,NaN
