sub_num,trial,block,task,is_practice,category,image,texture,duration,mask_dur,jitter,stim_time,time_of_resp,trial_response,mask_time,fix_time,jit_onset,trial_end,trial_accuracy,RT
114,1,0,complexity,1,bathroom,bathroom_practice3.tif,223,1.5,0,1.56666666666667,2777.343934208,2785.159347458,3,NaN,2785.165573792,2785.183965208,2786.744146042,NaN,NaN
114,2,0,complexity,1,bathroom,bathroom_practice5.tif,225,1.5,0,1.1,2786.76246225,2792.120325875,5,NaN,2792.126641208,2792.144865958,2793.238233958,NaN,NaN
114,3,0,complexity,1,bathroom,bathroom_practice2.tif,222,1.5,0,1.51666666666667,2793.248574292,2796.415487458,7,NaN,2796.421591625,2796.439974208,2797.95002625,NaN,NaN
114,4,0,complexity,1,bathroom,bathroom_practice4.tif,224,1.5,0,1.15,2797.968391542,2801.063343292,1,NaN,2801.069481792,2801.087800125,2802.2311765,NaN,NaN
114,5,0,complexity,1,bathroom,bathroom_practice1.tif,221,1.5,0,1.26666666666667,2802.240602792,2805.031308625,1,NaN,2805.037326958,2805.055559917,2806.315602333,NaN,NaN
114,1,1,complexity,0,bathroom,sun_abapwbhyhkfixyex.tif,124,1.5,0,0.75,2811.213070667,2816.263305167,3,NaN,2816.269704542,2816.28817825,2817.031517208,NaN,NaN
114,2,1,complexity,0,bathroom,sun_akiytfaagpdsphgz.tif,141,1.5,0,1.28333333333333,2817.03600375,2819.680880333,3,NaN,2819.710763667,2819.733968708,2821.010677125,NaN,NaN
114,3,1,complexity,0,bathroom,sun_axxbkopsgyouuebh.tif,168,1.5,0,1.76666666666667,2821.030023625,2823.7996235,2,NaN,2823.805453667,2823.823844167,2825.583878208,NaN,NaN
114,4,1,complexity,0,bathroom,sun_abjtwfukuwddzted.tif,125,1.5,0,1.28333333333333,2825.601448375,2830.671779083,2,NaN,2830.677510583,2830.695958042,2831.97267775,NaN,NaN
114,5,1,complexity,0,bathroom,sun_amzlamotzwfkwjco.tif,147,1.5,0,1.8,2831.986256625,2835.735924167,3,NaN,2835.741668125,2835.759948583,2837.553329792,NaN,NaN
114,6,1,complexity,0,bathroom,sun_aofnryafpsjimzsb.tif,150,1.5,0,0.716666666666667,2837.567872792,2841.1356945,6,NaN,2841.141392667,2841.159611083,2841.869616542,NaN,NaN
114,7,1,complexity,0,bathroom,sun_asfwthctfqerjvxr.tif,159,1.5,0,1,2841.875521167,2845.51214975,6,NaN,2845.517900542,2845.536267708,2846.529607292,NaN,NaN
114,8,1,complexity,0,bathroom,sun_apjevzvycyhuqghb.tif,153,1.5,0,1.21666666666667,2846.534315417,2849.943772625,6,NaN,2849.949607208,2849.968015375,2851.178060917,NaN,NaN
114,9,1,complexity,0,bathroom,sun_aapitsgbtktqubfy.tif,122,1.5,0,1.55,2851.196274917,2854.439347958,4,NaN,2854.445244417,2854.463613792,2856.00699325,NaN,NaN
114,10,1,complexity,0,bathroom,sun_aclfzgynxzxlbepz.tif,129,1.5,0,2,2856.021551875,2861.807220833,3,NaN,2861.813338917,2861.83171525,2863.825104208,NaN,NaN
114,11,1,complexity,0,bathroom,sun_aqrpegblszgcoujh.tif,158,1.5,0,0.716666666666667,2863.8437695,2867.751689292,4,NaN,2867.757647542,2867.775984917,2868.485989458,NaN,NaN
114,12,1,complexity,0,bathroom,sun_awnqiikzaispgmwo.tif,166,1.5,0,0.933333333333333,2868.490449,2871.087049833,3,NaN,2871.114006333,2871.136332625,2872.063004958,NaN,NaN
114,13,1,complexity,0,bathroom,sun_axyrejkiiaqiurjk.tif,169,1.5,0,1.58333333333333,2872.067577375,2875.287242458,4,NaN,2875.29441875,2875.31281425,2876.889520917,NaN,NaN
114,14,1,complexity,0,bathroom,sun_aspsyogrekjtfozg.tif,160,1.5,0,0.9,2876.907389667,2879.848167,6,NaN,2879.854061542,2879.872445875,2880.765783583,NaN,NaN
114,15,1,complexity,0,bathroom,sun_anryaplzeujmzfkd.tif,149,1.5,0,1.16666666666667,2880.770430625,2885.023318875,6,NaN,2885.029159167,2885.047517625,2886.207569917,NaN,NaN
114,16,1,complexity,0,bathroom,sun_ausgutylgojavyoq.tif,163,1.5,0,0.733333333333333,2886.217621542,2889.103651833,7,NaN,2889.109216625,2889.127553042,2889.854224,NaN,NaN
114,17,1,complexity,0,bathroom,sun_ahijqszoswveeyji.tif,138,1.5,0,1.15,2889.858470125,2893.54305175,4,NaN,2893.549074208,2893.567435,2894.71080325,NaN,NaN
114,18,1,complexity,0,bathroom,sun_acgyywnybuveqsro.tif,128,1.5,0,1.01666666666667,2894.722173042,2898.415402125,1,NaN,2898.421545208,2898.439993292,2899.450029833,NaN,NaN
114,19,1,complexity,0,bathroom,sun_aggnnqpdorgxpvce.tif,131,1.5,0,0.883333333333333,2899.459185083,2902.663601417,5,NaN,2902.669187167,2902.687485,2903.564156542,NaN,NaN
114,20,1,complexity,0,bathroom,sun_avhrdrntsqrjzccq.tif,165,1.5,0,1.65,2903.573458958,2908.935662167,6,NaN,2908.941882333,2908.960495667,2910.60389,NaN,NaN
114,21,1,complexity,0,bathroom,sun_aghyqhbptboemmoq.tif,133,1.5,0,0.75,2910.619614458,2913.7797505,3,NaN,2913.809618417,2913.832777833,2914.5761175,NaN,NaN
114,22,1,complexity,0,bathroom,sun_acegryoqftbzowsg.tif,127,1.5,0,1.28333333333333,2914.589874542,2918.432073417,3,NaN,2918.437902792,2918.456225,2919.7329285,NaN,NaN
114,23,1,complexity,0,bathroom,sun_ambriybtogmepttm.tif,146,1.5,0,1.25,2919.744033708,2923.455356792,4,NaN,2923.461236167,2923.479561417,2924.722942333,NaN,NaN
114,24,1,complexity,0,bathroom,sun_agrwbmhcpmfuwmsg.tif,134,1.5,0,0.833333333333333,2924.740821083,2929.646952958,4,NaN,2929.653015875,2929.671388042,2930.498058833,NaN,NaN
114,25,1,complexity,0,bathroom,sun_acduarbnmmoglmiv.tif,126,1.5,0,1.05,2930.502647083,2934.390989417,4,NaN,2934.396959708,2934.415338417,2935.458706417,NaN,NaN
114,1,2,complexity,0,bathroom,sun_apkxzenqapsujocq.tif,155,1.5,0,0.95,2940.795768417,2943.934992917,2,NaN,2943.942844458,2943.96116825,2944.904507208,NaN,NaN
114,2,2,complexity,0,bathroom,sun_afcoljnjfoxjtgja.tif,130,1.5,0,1.55,2944.909117542,2947.863502208,3,NaN,2947.892698875,2947.915654833,2949.459027667,NaN,NaN
114,3,2,complexity,0,bathroom,sun_agyqfjcfkdcydepw.tif,135,1.5,0,1.2,2949.477024208,2953.015539333,6,NaN,2953.02113475,2953.039361792,2954.23274725,NaN,NaN
114,4,2,complexity,0,bathroom,sun_apkruvsevgegsdwp.tif,154,1.5,0,1.86666666666667,2954.248114167,2958.422891292,4,NaN,2958.42902425,2958.44747875,2960.307530625,NaN,NaN
114,5,2,complexity,0,bathroom,sun_alotolagknyrgtsk.tif,145,1.5,0,1.66666666666667,2960.326439875,2963.279134042,7,NaN,2963.308502667,2963.331749167,2964.991797458,NaN,NaN
114,6,2,complexity,0,bathroom,sun_axldvoqbuvuggfmq.tif,167,1.5,0,1.35,2965.004804792,2968.590778625,4,NaN,2968.597551708,2968.615869875,2969.959248583,NaN,NaN
114,7,2,complexity,0,bathroom,sun_aoybiabnpadelefl.tif,151,1.5,0,1.11666666666667,2969.977633375,2974.110968625,1,NaN,2974.116872875,2974.135237958,2975.245298458,NaN,NaN
114,8,2,complexity,0,bathroom,sun_apmqjbnwghzuhhzh.tif,156,1.5,0,0.95,2975.253612208,2979.039555875,4,NaN,2979.045322542,2979.063653083,2980.006991917,NaN,NaN
114,9,2,complexity,0,bathroom,sun_aleqenyvunhactkl.tif,142,1.5,0,1.03333333333333,2980.01167725,2983.031656458,3,NaN,2983.054301083,2983.077758333,2984.104481083,NaN,NaN
114,10,2,complexity,0,bathroom,sun_aunuadmjocsddsrl.tif,162,1.5,0,1.01666666666667,2984.112737083,2987.375560167,3,NaN,2987.381107625,2987.39950375,2988.409541917,NaN,NaN
114,11,2,complexity,0,bathroom,sun_agguqiubmwhqqunb.tif,132,1.5,0,1.81666666666667,2988.418552333,2992.975466417,4,NaN,2992.98118075,2992.999522917,2994.809575083,NaN,NaN
114,12,2,complexity,0,bathroom,sun_alkosphxlxwjwgjd.tif,144,1.5,0,1.8,2994.827057833,2998.11308975,5,NaN,2998.142323583,2998.165368542,2999.958741667,NaN,NaN
114,13,2,complexity,0,bathroom,sun_atstyziqcmkahyxk.tif,161,1.5,0,1.26666666666667,2999.977278792,3004.191727,3,NaN,3004.197521333,3004.215886625,3005.475926708,NaN,NaN
114,14,2,complexity,0,bathroom,sun_azqyogdvyhahyram.tif,170,1.5,0,1.66666666666667,3005.494179292,3014.718933167,2,NaN,3014.724804333,3014.743074667,3016.403130708,NaN,NaN
114,15,2,complexity,0,bathroom,sun_aljolscmmzydegqp.tif,143,1.5,0,1.93333333333333,3016.421482583,3020.823256333,5,NaN,3020.828914583,3020.847281417,3022.774007042,NaN,NaN
114,16,2,complexity,0,bathroom,sun_ahcvzmoyaycdoftf.tif,137,1.5,0,1.75,3022.795273333,3025.774334583,4,NaN,3025.801515417,3025.825250625,3027.568617625,NaN,NaN
114,17,2,complexity,0,bathroom,sun_aavhrsfjbserjtht.tif,123,1.5,0,0.766666666666667,3027.588884458,3031.526713958,5,NaN,3031.532739458,3031.551178458,3032.311182875,NaN,NaN
114,18,2,complexity,0,bathroom,sun_ajlawzvmubibwbpy.tif,140,1.5,0,1.43333333333333,3032.315402958,3037.479573375,5,NaN,3037.485171458,3037.503474125,3038.930199458,NaN,NaN
114,19,2,complexity,0,bathroom,sun_ahqjwnzgolcaoidx.tif,139,1.5,0,0.916666666666667,3038.949675042,3042.455510167,5,NaN,3042.461244667,3042.479521792,3043.389525083,NaN,NaN
114,20,2,complexity,0,bathroom,labelme_sfxiulhjbhlyiyt.tif,121,1.5,0,0.766666666666667,3043.394134875,3047.079273083,4,NaN,3047.084898667,3047.103363,3047.863367333,NaN,NaN
114,21,2,complexity,0,bathroom,sun_apynckhmoftszqoq.tif,157,1.5,0,0.783333333333333,3047.867793917,3052.574711,4,NaN,3052.581027292,3052.599457958,3053.376128417,NaN,NaN
114,22,2,complexity,0,bathroom,sun_anhioqovhscjqqwb.tif,148,1.5,0,1.31666666666667,3053.380738958,3057.502956625,2,NaN,3057.509020375,3057.527408083,3058.837463417,NaN,NaN
114,23,2,complexity,0,bathroom,sun_auzqhkafidnkrwmo.tif,164,1.5,0,1.1,3058.856724708,3061.934519583,5,NaN,3061.940548292,3061.958802042,3063.052174875,NaN,NaN
114,24,2,complexity,0,bathroom,sun_ahaulkltgpkeeemi.tif,136,1.5,0,1.26666666666667,3063.060685083,3066.375000208,4,NaN,3066.380667125,3066.399119875,3067.659168208,NaN,NaN
114,25,2,complexity,0,bathroom,sun_apeeialkgkuxddgh.tif,152,1.5,0,0.933333333333333,3067.676946708,3071.487504708,4,NaN,3071.493070917,3071.511367792,3072.438038542,NaN,NaN
