sub_num,trial,block,task,is_practice,category,image,texture,duration,mask_dur,jitter,stim_time,time_of_resp,trial_response,mask_time,fix_time,jit_onset,trial_end,trial_accuracy,RT
136,6,0,usability,1,kitchen,kitchen_practice2.tif,227,1.5,0,1.13333333333333,3371.9410825,3375.68766175,5,NaN,3375.69428375,3375.712469166,3376.839222125,NaN,NaN
136,7,0,usability,1,kitchen,kitchen_practice3.tif,228,1.5,0,0.933333333333333,3376.851839166,3379.935716625,6,NaN,3379.941724916,3379.960119416,3380.886794416,NaN,NaN
136,8,0,usability,1,kitchen,kitchen_practice1.tif,226,1.5,0,1.48333333333333,3380.891285083,3384.519876666,6,NaN,3384.5260955,3384.544460416,3386.021208458,NaN,NaN
136,9,0,usability,1,kitchen,kitchen_practice4.tif,229,1.5,0,1.33333333333333,3386.039974833,3389.303768458,5,NaN,3389.3095375,3389.327951083,3390.654694083,NaN,NaN
136,10,0,usability,1,kitchen,kitchen_practice5.tif,230,1.5,0,1.3,3390.674853166,3393.9115795,7,NaN,3393.917558708,3393.935954458,3395.22937975,NaN,NaN
136,1,1,usability,0,kitchen,sun_amjjdeyrggfqgmom.tif,210,1.5,0,1.91666666666667,3399.335087125,3403.087331666,4,NaN,3403.093437916,3403.111895791,3405.021963083,NaN,NaN
136,2,1,usability,0,kitchen,sun_aymvwlarqodbwuoc.tif,218,1.5,0,0.85,3405.040576083,3408.172516416,4,NaN,3408.202738875,3408.2267025,3409.070044,NaN,NaN
136,3,1,usability,0,kitchen,labelme_rykdqxenmhulbdn.tif,173,1.5,0,0.7,3409.075032166,3412.3435375,7,NaN,3412.349579375,3412.367774333,3413.061116958,NaN,NaN
136,4,1,usability,0,kitchen,sun_adgqasybjyktddhj.tif,188,1.5,0,1.6,3413.065628458,3416.091366166,7,NaN,3416.12092825,3416.144702291,3417.738099041,NaN,NaN
136,5,1,usability,0,kitchen,sun_aehawpgmrlhlvcow.tif,191,1.5,0,1.13333333333333,3417.751043416,3420.793160833,5,NaN,3420.823373416,3420.847238958,3421.97400975,NaN,NaN
136,6,1,usability,0,kitchen,sun_aadbddgrdsjugojn.tif,174,1.5,0,0.716666666666667,3421.983242833,3426.679262583,4,NaN,3426.6853815,3426.703782625,3427.413793125,NaN,NaN
136,7,1,usability,0,kitchen,sun_acwjdupvyjsugpay.tif,186,1.5,0,1.6,3427.418078666,3430.9682105,6,NaN,3430.973740333,3430.992063416,3432.585488041,NaN,NaN
136,8,1,usability,0,kitchen,sun_aixorpehvfykdynp.tif,205,1.5,0,1.68333333333333,3432.603635375,3435.620690333,7,NaN,3435.646836125,3435.668554458,3437.34528925,NaN,NaN
136,9,1,usability,0,kitchen,sun_auaiucuqpdausiva.tif,212,1.5,0,1.41666666666667,3437.364718,3439.807045708,5,NaN,3439.835736083,3439.859780291,3441.26987975,NaN,NaN
136,10,1,usability,0,kitchen,sun_aamedkxepzlwuxes.tif,175,1.5,0,1,3441.2877635,3444.320108166,4,NaN,3444.325809208,3444.34412825,3445.337467625,NaN,NaN
136,11,1,usability,0,kitchen,sun_ahpczsiumwwocjkv.tif,202,1.5,0,1.33333333333333,3445.342257125,3450.015527791,7,NaN,3450.02139025,3450.0398295,3451.366578,NaN,NaN
136,12,1,usability,0,kitchen,sun_aenotlpyftoioydp.tif,192,1.5,0,1.15,3451.386419083,3454.336016166,4,NaN,3454.341538041,3454.359939083,3455.5033625,NaN,NaN
136,13,1,usability,0,kitchen,sun_aexklacwqwezaorf.tif,194,1.5,0,1.86666666666667,3455.5138015,3458.399436541,5,NaN,3458.405387083,3458.423736541,3460.283808208,NaN,NaN
136,14,1,usability,0,kitchen,sun_aapllqyqlykszopd.tif,176,1.5,0,1.18333333333333,3460.303088375,3463.345557666,5,NaN,3463.373325625,3463.397261541,3464.57399125,NaN,NaN
136,15,1,usability,0,kitchen,sun_ahywdevtimnqcsln.tif,204,1.5,0,1.71666666666667,3464.584888041,3467.167186583,6,NaN,3467.173062833,3467.191359958,3468.901424458,NaN,NaN
136,16,1,usability,0,kitchen,sun_aggjlwcdjsjcaemh.tif,196,1.5,0,1.1,3468.920502291,3472.135417375,6,NaN,3472.165577333,3472.18838825,3473.281809541,NaN,NaN
136,17,1,usability,0,kitchen,sun_acxkpeoqbwcxfvip.tif,187,1.5,0,0.983333333333333,3473.29320125,3476.551288791,5,NaN,3476.557309625,3476.575726541,3477.552399541,NaN,NaN
136,18,1,usability,0,kitchen,sun_aeqdocilnnpuvuhx.tif,193,1.5,0,0.916666666666667,3477.5571155,3480.457320875,4,NaN,3480.487733666,3480.511696583,3481.421703333,NaN,NaN
136,19,1,usability,0,kitchen,sun_akcjzhbbjlbogpdi.tif,209,1.5,0,0.716666666666667,3481.426655125,3485.271386833,5,NaN,3485.277263291,3485.295625583,3486.005634791,NaN,NaN
136,20,1,usability,0,kitchen,sun_ajcbwwvdlsvjyzje.tif,206,1.5,0,0.883333333333333,3486.009961,3488.771211625,6,NaN,3488.802444375,3488.825825333,3489.702498541,NaN,NaN
136,21,1,usability,0,kitchen,sun_azmutvzbxypaceni.tif,220,1.5,0,1.93333333333333,3489.707144,3493.823226708,5,NaN,3493.829365833,3493.847641291,3495.77437825,NaN,NaN
136,22,1,usability,0,kitchen,sun_awcpdzzznmweyyhv.tif,216,1.5,0,0.9,3495.786315291,3499.671296541,7,NaN,3499.677287625,3499.695791458,3500.589132583,NaN,NaN
136,23,1,usability,0,kitchen,sun_aunzlwrbjumxhwdj.tif,213,1.5,0,1.13333333333333,3500.593596541,3503.538418208,2,NaN,3503.563334333,3503.586993583,3504.71375825,NaN,NaN
136,24,1,usability,0,kitchen,labelme_kxvouciolcpqplr.tif,172,1.5,0,0.766666666666667,3504.724598791,3507.511170791,5,NaN,3507.517109416,3507.535277583,3508.29528525,NaN,NaN
136,25,1,usability,0,kitchen,sun_agubuxuukhzyzpdp.tif,198,1.5,0,0.966666666666667,3508.300719666,3510.935032916,6,NaN,3510.96398275,3510.987075666,3511.947084333,NaN,NaN
136,1,2,usability,0,kitchen,sun_ajkqhtgcbgpcwrwn.tif,207,1.5,0,1.56666666666667,3515.954653041,3519.078915833,6,NaN,3519.089584083,3519.108855208,3520.66893225,NaN,NaN
136,2,2,usability,0,kitchen,sun_avszsnwsbuqfgzbn.tif,215,1.5,0,1.2,3520.688525833,3523.167652541,6,NaN,3523.173174291,3523.19143475,3524.384814375,NaN,NaN
136,3,2,usability,0,kitchen,sun_admlmbcdswaszruo.tif,189,1.5,0,1.73333333333333,3524.397996375,3526.814861583,6,NaN,3526.820853,3526.839228083,3528.565993041,NaN,NaN
136,4,2,usability,0,kitchen,sun_abdxkyyxwfskuaqb.tif,180,1.5,0,1.61666666666667,3528.585893958,3531.945025291,6,NaN,3531.975144166,3531.999146833,3533.609235666,NaN,NaN
136,5,2,usability,0,kitchen,sun_aypmqwcualkenuoe.tif,219,1.5,0,1.38333333333333,3533.624467416,3538.495692291,4,NaN,3538.501328708,3538.519673291,3539.896406625,NaN,NaN
136,6,2,usability,0,kitchen,sun_agzzivivdpnawacl.tif,199,1.5,0,1.73333333333333,3539.91272375,3542.750954166,6,NaN,3542.756968291,3542.7752255,3544.50199575,NaN,NaN
136,7,2,usability,0,kitchen,sun_aaxxjlsuzvqlgylf.tif,178,1.5,0,1.96666666666667,3544.522029208,3547.230433208,6,NaN,3547.260049458,3547.283895541,3549.243982083,NaN,NaN
136,8,2,usability,0,kitchen,sun_abftihopvusyfakt.tif,181,1.5,0,0.883333333333333,3549.262535416,3551.851237791,7,NaN,3551.879022083,3551.9033595,3552.780032458,NaN,NaN
136,9,2,usability,0,kitchen,sun_agorklincwxrdtga.tif,197,1.5,0,1.06666666666667,3552.784913625,3555.635690833,6,NaN,3555.662213625,3555.684180125,3556.744267708,NaN,NaN
136,10,2,usability,0,kitchen,labelme_brsyyvweiuaazfr.tif,171,1.5,0,1.06666666666667,3556.755434833,3559.583491416,7,NaN,3559.589147416,3559.607568416,3560.6676685,NaN,NaN
136,11,2,usability,0,kitchen,sun_afuyedyxivkhecmu.tif,195,1.5,0,0.966666666666667,3560.678799,3563.951685708,3,NaN,3563.957240458,3563.97563425,3564.935640958,NaN,NaN
136,12,2,usability,0,kitchen,sun_aegoxogugdkwpmpj.tif,190,1.5,0,1.78333333333333,3564.939822333,3568.655620416,6,NaN,3568.661256458,3568.679621208,3570.45634475,NaN,NaN
136,13,2,usability,0,kitchen,sun_axyyrmzcupyhlivc.tif,217,1.5,0,1.68333333333333,3570.476656875,3573.405201125,6,NaN,3573.43496125,3573.458475708,3575.135205791,NaN,NaN
136,14,2,usability,0,kitchen,sun_abpwyqmlzafvklqo.tif,182,1.5,0,0.983333333333333,3575.15410075,3578.395351625,6,NaN,3578.424125833,3578.448171083,3579.424844916,NaN,NaN
136,15,2,usability,0,kitchen,sun_abdenxonkemggwsq.tif,179,1.5,0,1.33333333333333,3579.429769291,3582.251936333,6,NaN,3582.280627166,3582.30365825,3583.630386875,NaN,NaN
136,16,2,usability,0,kitchen,sun_acgtpgfybqjmzeyw.tif,185,1.5,0,1.56666666666667,3583.650409375,3586.678948041,6,NaN,3586.684737916,3586.7031665,3588.263242708,NaN,NaN
136,17,2,usability,0,kitchen,sun_ahspylgoovwmwvgk.tif,203,1.5,0,1.66666666666667,3588.28234025,3591.2956625,6,NaN,3591.301406333,3591.319782375,3592.979863666,NaN,NaN
136,18,2,usability,0,kitchen,sun_auticobqsbwgoppi.tif,214,1.5,0,1.86666666666667,3592.998452625,3596.270939708,6,NaN,3596.298809208,3596.322154708,3598.182256166,NaN,NaN
136,19,2,usability,0,kitchen,sun_aqeaevwwwjoqhzvl.tif,211,1.5,0,1.95,3598.198544541,3601.28050375,3,NaN,3601.310988083,3601.334633208,3603.278041666,NaN,NaN
136,20,2,usability,0,kitchen,sun_acfmftudsenhrfhy.tif,184,1.5,0,0.966666666666667,3603.298814,3606.002726583,6,NaN,3606.030027083,3606.053581375,3607.013589708,NaN,NaN
136,21,2,usability,0,kitchen,sun_abrcnpqqhmjwekyf.tif,183,1.5,0,1.43333333333333,3607.0185205,3609.850793291,7,NaN,3609.880104291,3609.903641333,3611.330389791,NaN,NaN
136,22,2,usability,0,kitchen,sun_ahdycvpopffkzzsu.tif,200,1.5,0,0.85,3611.34941125,3614.070871875,6,NaN,3614.076706333,3614.094979208,3614.938323083,NaN,NaN
136,23,2,usability,0,kitchen,sun_ahljzhgcdpomplvg.tif,201,1.5,0,1.53333333333333,3614.942859916,3618.487311083,6,NaN,3618.492924875,3618.511392791,3620.038168833,NaN,NaN
136,24,2,usability,0,kitchen,sun_akchetnepxlcxhsu.tif,208,1.5,0,1.18333333333333,3620.05439475,3623.1109955,7,NaN,3623.116682125,3623.135041833,3624.311777333,NaN,NaN
136,25,2,usability,0,kitchen,sun_aarfiyshqohlwkmo.tif,177,1.5,0,1.86666666666667,3624.32441775,3627.063503583,5,NaN,3627.069046166,3627.087508708,3628.947572291,NaN,NaN
