sub_num,trial,block,task,is_practice,category,image,texture,duration,mask_dur,jitter,stim_time,time_of_resp,trial_response,mask_time,fix_time,jit_onset,trial_end,trial_accuracy,RT
110,1,0,typicality,1,bathroom,bathroom_practice2.tif,222,1.5,0,1.48333333333333,1312.994002917,1319.206317,3,NaN,1319.229268167,1319.249479083,1320.726405375,NaN,NaN
110,2,0,typicality,1,bathroom,bathroom_practice4.tif,224,1.5,0,0.75,1320.797782,1327.174204917,2,NaN,1327.183957958,1327.2027465,1327.9460905,NaN,NaN
110,3,0,typicality,1,bathroom,bathroom_practice1.tif,221,1.5,0,1.93333333333333,1327.952108625,1334.134326417,1,NaN,1334.142161125,1334.161047042,1336.087905375,NaN,NaN
110,4,0,typicality,1,bathroom,bathroom_practice5.tif,225,1.5,0,0.983333333333333,1336.125491333,1340.254621333,4,NaN,1340.262209583,1340.281088792,1341.257772083,NaN,NaN
110,5,0,typicality,1,bathroom,bathroom_practice3.tif,223,1.5,0,0.883333333333333,1341.265850833,1345.34968725,3,NaN,1345.359542875,1345.379027292,1346.255768875,NaN,NaN
110,1,1,typicality,0,bathroom,sun_aapitsgbtktqubfy.tif,122,1.5,0,0.866666666666667,1357.231085542,1360.006863083,4,NaN,1360.031036542,1360.054331542,1360.914356125,NaN,NaN
110,2,1,typicality,0,bathroom,sun_aleqenyvunhactkl.tif,142,1.5,0,1.03333333333333,1360.919229292,1363.965345708,3,NaN,1363.992721458,1364.013222417,1365.039930333,NaN,NaN
110,3,1,typicality,0,bathroom,sun_ajlawzvmubibwbpy.tif,140,1.5,0,0.866666666666667,1365.048423542,1368.174093792,6,NaN,1368.179866542,1368.198312042,1369.058315583,NaN,NaN
110,4,1,typicality,0,bathroom,sun_alkosphxlxwjwgjd.tif,144,1.5,0,1.61666666666667,1369.062549333,1372.301760125,5,NaN,1372.308249417,1372.326607708,1373.936646625,NaN,NaN
110,5,1,typicality,0,bathroom,sun_anhioqovhscjqqwb.tif,148,1.5,0,0.883333333333333,1373.956891792,1377.685645458,5,NaN,1377.69133275,1377.7095145,1378.58618625,NaN,NaN
110,6,1,typicality,0,bathroom,sun_alotolagknyrgtsk.tif,145,1.5,0,0.933333333333333,1378.590548292,1381.523683125,7,NaN,1381.552388,1381.575063042,1382.501733917,NaN,NaN
110,7,1,typicality,0,bathroom,sun_aghyqhbptboemmoq.tif,133,1.5,0,1.5,1382.50640525,1386.213825,2,NaN,1386.219666542,1386.237941125,1387.731307833,NaN,NaN
110,8,1,typicality,0,bathroom,sun_asfwthctfqerjvxr.tif,159,1.5,0,1.36666666666667,1387.748038417,1392.318539958,5,NaN,1392.323980667,1392.342319917,1393.702365208,NaN,NaN
110,9,1,typicality,0,bathroom,sun_agyqfjcfkdcydepw.tif,135,1.5,0,0.85,1393.716506292,1396.965824333,4,NaN,1396.971242375,1396.989501958,1397.832838917,NaN,NaN
110,10,1,typicality,0,bathroom,sun_apeeialkgkuxddgh.tif,152,1.5,0,1.81666666666667,1397.8379465,1401.614029708,2,NaN,1401.619530667,1401.6378455,1403.447901208,NaN,NaN
110,11,1,typicality,0,bathroom,sun_acegryoqftbzowsg.tif,127,1.5,0,1.28333333333333,1403.463133,1406.965687625,3,NaN,1406.972493917,1406.990847417,1408.267554708,NaN,NaN
110,12,1,typicality,0,bathroom,sun_anryaplzeujmzfkd.tif,149,1.5,0,1.23333333333333,1408.28636425,1411.077451583,2,NaN,1411.083313917,1411.101652625,1412.3283725,NaN,NaN
110,13,1,typicality,0,bathroom,sun_amzlamotzwfkwjco.tif,147,1.5,0,0.883333333333333,1412.346253167,1415.67811625,4,NaN,1415.683670417,1415.702248333,1416.578920625,NaN,NaN
110,14,1,typicality,0,bathroom,sun_afcoljnjfoxjtgja.tif,130,1.5,0,0.866666666666667,1416.583198958,1420.526229625,4,NaN,1420.5323555,1420.550705667,1421.410709833,NaN,NaN
110,15,1,typicality,0,bathroom,sun_aclfzgynxzxlbepz.tif,129,1.5,0,1.36666666666667,1421.414961208,1424.669747125,3,NaN,1424.6751755,1424.693606083,1426.053663667,NaN,NaN
110,16,1,typicality,0,bathroom,sun_acduarbnmmoglmiv.tif,126,1.5,0,1.05,1426.06361,1431.981632333,3,NaN,1431.987467792,1432.005802333,1433.04918975,NaN,NaN
110,17,1,typicality,0,bathroom,sun_auzqhkafidnkrwmo.tif,164,1.5,0,1.21666666666667,1433.056378833,1435.662217417,5,NaN,1435.667569208,1435.685849583,1436.8958975,NaN,NaN
110,18,1,typicality,0,bathroom,sun_aofnryafpsjimzsb.tif,150,1.5,0,0.816666666666667,1436.914474875,1439.653999792,4,NaN,1439.659280667,1439.677535375,1440.487540167,NaN,NaN
110,19,1,typicality,0,bathroom,sun_apmqjbnwghzuhhzh.tif,156,1.5,0,1,1440.491736042,1443.466537875,2,NaN,1443.49193575,1443.514541667,1444.507879708,NaN,NaN
110,20,1,typicality,0,bathroom,sun_abjtwfukuwddzted.tif,125,1.5,0,1.21666666666667,1444.51268125,1447.6696435,2,NaN,1447.675794667,1447.694284333,1448.904337125,NaN,NaN
110,21,1,typicality,0,bathroom,sun_awnqiikzaispgmwo.tif,166,1.5,0,1.46666666666667,1448.915595833,1451.98219425,3,NaN,1451.988258083,1452.006518083,1453.466553542,NaN,NaN
110,22,1,typicality,0,bathroom,sun_aljolscmmzydegqp.tif,143,1.5,0,1.4,1453.483906292,1457.819195875,3,NaN,1457.825321167,1457.843651833,1459.237018458,NaN,NaN
110,23,1,typicality,0,bathroom,sun_abapwbhyhkfixyex.tif,124,1.5,0,0.783333333333333,1459.256663208,1462.789403958,5,NaN,1462.795131792,1462.813454708,1463.590126458,NaN,NaN
110,24,1,typicality,0,bathroom,labelme_sfxiulhjbhlyiyt.tif,121,1.5,0,1.21666666666667,1463.594816833,1468.549755417,2,NaN,1468.555627083,1468.574482208,1469.784530625,NaN,NaN
110,25,1,typicality,0,bathroom,sun_axldvoqbuvuggfmq.tif,167,1.5,0,1.35,1469.797727875,1474.197816542,2,NaN,1474.20337625,1474.221698333,1475.565067083,NaN,NaN
110,1,2,typicality,0,bathroom,sun_aoybiabnpadelefl.tif,151,1.5,0,1.65,1481.516143417,1485.022158667,4,NaN,1485.02746725,1485.045786042,1486.6891695,NaN,NaN
110,2,2,typicality,0,bathroom,sun_apkruvsevgegsdwp.tif,154,1.5,0,1.01666666666667,1486.706524833,1489.654739208,2,NaN,1489.677330167,1489.700504,1490.710532875,NaN,NaN
110,3,2,typicality,0,bathroom,sun_ahijqszoswveeyji.tif,138,1.5,0,1.58333333333333,1490.717934417,1493.67759475,2,NaN,1493.683135333,1493.701559208,1495.278265417,NaN,NaN
110,4,2,typicality,0,bathroom,sun_aunuadmjocsddsrl.tif,162,1.5,0,0.7,1495.296611958,1499.022039583,1,NaN,1499.027342458,1499.045659208,1499.738998375,NaN,NaN
110,5,2,typicality,0,bathroom,sun_apkxzenqapsujocq.tif,155,1.5,0,1.23333333333333,1499.743251583,1502.62538225,1,NaN,1502.650125583,1502.673406625,1503.900115792,NaN,NaN
110,6,2,typicality,0,bathroom,sun_akiytfaagpdsphgz.tif,141,1.5,0,0.816666666666667,1503.918779458,1507.485288542,5,NaN,1507.490704917,1507.508997792,1508.319002333,NaN,NaN
110,7,2,typicality,0,bathroom,sun_agrwbmhcpmfuwmsg.tif,134,1.5,0,0.733333333333333,1508.3233105,1511.989740333,2,NaN,1511.995246833,1512.013592667,1512.740264792,NaN,NaN
110,8,2,typicality,0,bathroom,sun_agguqiubmwhqqunb.tif,132,1.5,0,1.15,1512.744640375,1515.697179083,3,NaN,1515.725535708,1515.748327,1516.891692917,NaN,NaN
110,9,2,typicality,0,bathroom,sun_axyrejkiiaqiurjk.tif,169,1.5,0,0.933333333333333,1516.901624,1521.325411083,4,NaN,1521.330873667,1521.3491765,1522.2758465,NaN,NaN
110,10,2,typicality,0,bathroom,sun_aavhrsfjbserjtht.tif,123,1.5,0,0.916666666666667,1522.280322875,1525.302440833,4,NaN,1525.330144708,1525.351299333,1526.261304708,NaN,NaN
110,11,2,typicality,0,bathroom,sun_avhrdrntsqrjzccq.tif,165,1.5,0,1.26666666666667,1526.266045917,1529.805635792,5,NaN,1529.810959083,1529.829263292,1531.089303708,NaN,NaN
110,12,2,typicality,0,bathroom,sun_aqrpegblszgcoujh.tif,158,1.5,0,0.933333333333333,1531.105770792,1534.781489583,3,NaN,1534.786906542,1534.805110042,1535.7317805,NaN,NaN
110,13,2,typicality,0,bathroom,sun_ambriybtogmepttm.tif,146,1.5,0,1,1535.736855042,1539.64531825,3,NaN,1539.650967875,1539.66915175,1540.662490125,NaN,NaN
110,14,2,typicality,0,bathroom,sun_acgyywnybuveqsro.tif,128,1.5,0,1,1540.667055208,1543.708713875,5,NaN,1543.722706042,1543.74205725,1544.735394417,NaN,NaN
110,15,2,typicality,0,bathroom,sun_aggnnqpdorgxpvce.tif,131,1.5,0,1.21666666666667,1544.739983958,1548.173837917,6,NaN,1548.179143,1548.197424458,1549.407470333,NaN,NaN
110,16,2,typicality,0,bathroom,sun_apjevzvycyhuqghb.tif,153,1.5,0,1.85,1549.424053167,1553.501493667,5,NaN,1553.506900333,1553.525297958,1555.368669208,NaN,NaN
110,17,2,typicality,0,bathroom,sun_aspsyogrekjtfozg.tif,160,1.5,0,0.766666666666667,1555.391575125,1559.109273208,5,NaN,1559.115265083,1559.133592958,1559.89359875,NaN,NaN
110,18,2,typicality,0,bathroom,sun_axxbkopsgyouuebh.tif,168,1.5,0,0.966666666666667,1559.898142792,1563.061754167,3,NaN,1563.067408875,1563.085858167,1564.045862042,NaN,NaN
110,19,2,typicality,0,bathroom,sun_ahaulkltgpkeeemi.tif,136,1.5,0,1.4,1564.05045475,1568.693643,2,NaN,1568.699348875,1568.717987333,1570.11135825,NaN,NaN
110,20,2,typicality,0,bathroom,sun_apynckhmoftszqoq.tif,157,1.5,0,0.933333333333333,1570.123977,1579.749757292,4,NaN,1579.755066208,1579.773333917,1580.700004417,NaN,NaN
110,21,2,typicality,0,bathroom,sun_ahqjwnzgolcaoidx.tif,139,1.5,0,1.7,1580.70441125,1584.676946667,4,NaN,1584.682416708,1584.700665667,1586.394042667,NaN,NaN
110,22,2,typicality,0,bathroom,sun_ahcvzmoyaycdoftf.tif,137,1.5,0,0.916666666666667,1586.412137625,1589.928618958,4,NaN,1589.953738958,1589.973412208,1590.883417208,NaN,NaN
110,23,2,typicality,0,bathroom,sun_ausgutylgojavyoq.tif,163,1.5,0,0.833333333333333,1590.888238917,1594.685230708,2,NaN,1594.690720667,1594.708947375,1595.535619667,NaN,NaN
110,24,2,typicality,0,bathroom,sun_azqyogdvyhahyram.tif,170,1.5,0,0.783333333333333,1595.54004075,1599.965127917,5,NaN,1599.971106875,1599.989359833,1600.766031167,NaN,NaN
110,25,2,typicality,0,bathroom,sun_atstyziqcmkahyxk.tif,161,1.5,0,1.4,1600.770402417,1607.405331042,5,NaN,1607.410697292,1607.429076625,1608.822466917,NaN,NaN
