sub_num,trial,block,task,is_practice,category,image,texture,duration,mask_dur,jitter,stim_time,time_of_resp,trial_response,mask_time,fix_time,jit_onset,trial_end,trial_accuracy,RT
129,1,0,categorization,1,kitchen,SHINEd_kitchen_practice4.tif,119,0.0666666666666667,0.0666666666666667,1.21666666666667,691.061142583,692.037815833,9,691.126970666,691.188115791,692.058197333,693.268397208,1,0.976673249999976
129,2,0,categorization,1,bathroom,SHINEd_bathroom_practice3.tif,113,0.0666666666666667,0.0666666666666667,1.36666666666667,693.317189083,694.432042208,13,693.38961575,693.451298666,694.475136666,695.835385,1,1.11485312499997
129,3,0,categorization,1,bathroom,SHINEd_bathroom_practice4.tif,114,0.0666666666666667,0.0666666666666667,1.85,695.887157875,696.894845416,13,695.960501666,696.01855925,696.928343958,698.7719465,1,1.007687541
129,4,0,categorization,1,kitchen,SHINEd_kitchen_practice2.tif,117,0.0666666666666667,0.0666666666666667,1.55,698.798072708,699.706560375,9,698.868826208,698.931366916,699.741488458,701.285070083,1,0.908487667000031
129,5,0,categorization,1,bathroom,SHINEd_bathroom_practice5.tif,115,0.0666666666666667,0.0666666666666667,1.48333333333333,701.306567125,702.109442916,13,701.379120833,701.441196875,702.155035083,703.632792208,1,0.802875791000019
129,6,0,categorization,1,bathroom,SHINEd_bathroom_practice1.tif,111,0.0666666666666667,0.0666666666666667,1.15,703.662482791,704.326571166,9,703.731088,703.79565625,704.353194916,705.496694333,0,0.664088375000006
129,7,0,categorization,1,kitchen,SHINEd_kitchen_practice5.tif,120,0.0666666666666667,0.0666666666666667,0.733333333333333,705.508702666,706.874124208,13,705.576515958,705.642999916,706.902435291,707.629107375,0,1.36542154200004
129,8,0,categorization,1,kitchen,SHINEd_kitchen_practice1.tif,116,0.0666666666666667,0.0666666666666667,1.6,707.634184208,708.413338583,13,707.695944583,707.756909416,708.425580666,710.01895775,0,0.779154375000076
129,9,0,categorization,1,kitchen,SHINEd_kitchen_practice3.tif,118,0.0666666666666667,0.0666666666666667,0.716666666666667,710.044235875,710.898967625,9,710.111536416,710.177106208,710.917302583,711.627308166,1,0.854731749999928
129,10,0,categorization,1,bathroom,SHINEd_bathroom_practice2.tif,112,0.0666666666666667,0.0666666666666667,1.21666666666667,711.632728208,712.35757975,9,711.69447875,711.755296958,712.3737375,713.583794,0,0.72485154200001
129,1,0,categorization,1,kitchen,SHINEd_kitchen_practice4.tif,119,0.0666666666666667,0.0666666666666667,1.21666666666667,742.738573166,744.301411416,9,742.801087291,742.861331583,744.313502875,745.523558291,1,1.56283824999991
129,2,0,categorization,1,bathroom,SHINEd_bathroom_practice3.tif,113,0.0666666666666667,0.0666666666666667,1.36666666666667,745.540019625,746.594184166,13,745.607756833,745.672258458,746.6121705,747.972233,1,1.05416454099998
129,3,0,categorization,1,bathroom,SHINEd_bathroom_practice4.tif,114,0.0666666666666667,0.0666666666666667,1.85,747.989784791,748.7372845,13,748.056264125,748.122212875,748.762235958,750.605621416,1,0.747499708999953
129,4,0,categorization,1,kitchen,SHINEd_kitchen_practice2.tif,117,0.0666666666666667,0.0666666666666667,1.55,750.623991666,751.546946041,9,750.690966208,750.756705791,751.5633465,753.106721708,1,0.922954374999904
129,5,0,categorization,1,bathroom,SHINEd_bathroom_practice5.tif,115,0.0666666666666667,0.0666666666666667,1.48333333333333,753.12422725,754.017292708,9,753.189454916,753.25492575,754.044657875,755.521360291,0,0.893065458000024
129,6,0,categorization,1,bathroom,SHINEd_bathroom_practice1.tif,111,0.0666666666666667,0.0666666666666667,1.15,755.539380666,756.319641875,13,755.605972041,755.672227958,756.345296666,757.488685708,1,0.780261208999946
129,7,0,categorization,1,kitchen,SHINEd_kitchen_practice5.tif,120,0.0666666666666667,0.0666666666666667,0.733333333333333,757.497642166,758.400040041,13,757.564171333,757.630768708,758.421037083,759.147736833,0,0.90239787500002
129,8,0,categorization,1,kitchen,SHINEd_kitchen_practice1.tif,116,0.0666666666666667,0.0666666666666667,1.6,759.158370333,759.901613375,9,759.223400291,759.289174041,759.90775875,761.501140875,1,0.743243042000017
129,9,0,categorization,1,kitchen,SHINEd_kitchen_practice3.tif,118,0.0666666666666667,0.0666666666666667,0.716666666666667,761.519148291,762.324802791,9,761.5858485,761.650466,762.3398005,763.049806666,1,0.80565450000006
129,10,0,categorization,1,bathroom,SHINEd_bathroom_practice2.tif,112,0.0666666666666667,0.0666666666666667,1.21666666666667,763.055277583,763.773522583,9,763.117043583,763.177927041,763.779708333,764.989767875,0,0.718245000000024
129,1,1,categorization,0,kitchen,SHINEd_sun_aunzlwrbjumxhwdj.tif,103,0.0666666666666667,0.0666666666666667,1.23333333333333,780.892494041,781.701632041,13,780.955159708,781.015308541,781.71711775,782.943832541,0,0.809138000000075
129,2,1,categorization,0,kitchen,SHINEd_sun_ahywdevtimnqcsln.tif,94,0.0666666666666667,0.0666666666666667,0.783333333333333,782.959116375,783.545540625,13,783.025932041,783.091173083,783.564094625,784.340823083,0,0.586424249999936
129,3,1,categorization,0,kitchen,SHINEd_sun_aapllqyqlykszopd.tif,66,0.0666666666666667,0.0666666666666667,0.75,784.357006166,785.197777875,9,784.423763958,784.48951025,785.208039791,785.951378,1,0.840771709000023
129,4,1,categorization,0,bathroom,SHINEd_sun_afcoljnjfoxjtgja.tif,20,0.0666666666666667,0.0666666666666667,1.23333333333333,785.958295541,786.717478166,9,786.020048708,786.081012708,786.7331745,787.959876625,0,0.759182624999994
129,5,1,categorization,0,bathroom,SHINEd_sun_agguqiubmwhqqunb.tif,22,0.0666666666666667,0.0666666666666667,1.13333333333333,787.9778945,788.709443416,9,788.044830791,788.110276166,788.733943708,789.860643625,0,0.731548915999952
129,6,1,categorization,0,kitchen,SHINEd_sun_awcpdzzznmweyyhv.tif,106,0.0666666666666667,0.0666666666666667,0.95,789.869702833,790.588816791,9,789.932133208,789.992358833,790.594123041,791.53746,1,0.71911395799998
129,7,1,categorization,0,kitchen,SHINEd_sun_abrcnpqqhmjwekyf.tif,73,0.0666666666666667,0.0666666666666667,0.733333333333333,791.542303416,792.189030541,9,791.603912333,791.664845,792.200042,792.926713833,1,0.646727124999984
129,8,1,categorization,0,bathroom,SHINEd_sun_awnqiikzaispgmwo.tif,56,0.0666666666666667,0.0666666666666667,1.31666666666667,792.931686625,793.573218791,13,792.993336583,793.054312291,793.589507708,794.899546541,1,0.641532166000047
129,9,1,categorization,0,bathroom,SHINEd_sun_axldvoqbuvuggfmq.tif,57,0.0666666666666667,0.0666666666666667,0.8,794.917574625,795.729521666,9,794.984393083,795.049648916,795.755824416,796.549203041,0,0.811947040999939
129,10,1,categorization,0,kitchen,SHINEd_sun_ajcbwwvdlsvjyzje.tif,96,0.0666666666666667,0.0666666666666667,0.716666666666667,796.56570925,797.3171835,13,796.632682666,796.689695875,797.324727833,798.034733916,0,0.751474250000001
129,11,1,categorization,0,bathroom,SHINEd_sun_abapwbhyhkfixyex.tif,14,0.0666666666666667,0.0666666666666667,0.916666666666667,798.039386583,798.620812041,9,798.101212333,798.16203775,798.630554833,799.540558583,0,0.581425458000012
129,12,1,categorization,0,bathroom,SHINEd_sun_aclfzgynxzxlbepz.tif,19,0.0666666666666667,0.0666666666666667,0.95,799.545493916,800.27667725,13,799.607225875,799.668091,800.286888916,801.230226416,1,0.731183333999979
129,13,1,categorization,0,bathroom,SHINEd_sun_avhrdrntsqrjzccq.tif,55,0.0666666666666667,0.0666666666666667,0.833333333333333,801.23499325,801.924818666,9,801.296732666,801.357539125,801.94312375,802.769795875,0,0.689825415999962
129,14,1,categorization,0,bathroom,SHINEd_sun_acgyywnybuveqsro.tif,18,0.0666666666666667,0.0666666666666667,0.75,802.774757375,803.508627708,13,802.83650425,802.8975745,803.51611475,804.259452375,1,0.733870332999913
129,15,1,categorization,0,bathroom,SHINEd_sun_amzlamotzwfkwjco.tif,37,0.0666666666666667,0.0666666666666667,1.53333333333333,804.264151333,805.092910458,13,804.3258335,804.386784458,805.10552,806.632236166,1,0.828759125000033
129,16,1,categorization,0,bathroom,SHINEd_sun_aqrpegblszgcoujh.tif,48,0.0666666666666667,0.0666666666666667,1.05,806.649977125,807.41080925,9,806.716921291,806.782726333,807.439792416,808.483160375,0,0.760832125000093
129,17,1,categorization,0,bathroom,SHINEd_sun_atstyziqcmkahyxk.tif,51,0.0666666666666667,0.0666666666666667,0.9,808.492258,809.173037666,13,808.55696225,808.623172333,809.195010583,810.088391708,1,0.680779666000035
129,18,1,categorization,0,kitchen,SHINEd_sun_azmutvzbxypaceni.tif,110,0.0666666666666667,0.0666666666666667,1.18333333333333,810.104801166,810.757495166,13,810.171200416,810.237069708,810.772800208,811.949509375,0,0.652693999999997
129,19,1,categorization,0,kitchen,SHINEd_sun_aadbddgrdsjugojn.tif,64,0.0666666666666667,0.0666666666666667,0.9,811.959566208,812.390308291,9,812.026525958,812.09211375,812.415743083,813.309112541,1,0.430742083000041
129,20,1,categorization,0,bathroom,SHINEd_sun_aoybiabnpadelefl.tif,41,0.0666666666666667,0.0666666666666667,1.66666666666667,813.326016,813.861960166,9,813.392825708,813.458338583,813.881687083,815.541735291,0,0.535944166000036
129,21,1,categorization,0,bathroom,SHINEd_sun_aghyqhbptboemmoq.tif,23,0.0666666666666667,0.0666666666666667,1.13333333333333,815.559519375,816.129529291,9,815.62627825,815.691673958,816.148514541,817.27521675,0,0.570009916000004
129,22,1,categorization,0,kitchen,SHINEd_sun_aypmqwcualkenuoe.tif,109,0.0666666666666667,0.0666666666666667,1.3,817.283679833,818.032207208,9,817.348919333,817.41635125,818.056320875,819.349691875,1,0.748527375000094
129,23,1,categorization,0,bathroom,SHINEd_sun_alkosphxlxwjwgjd.tif,34,0.0666666666666667,0.0666666666666667,1.93333333333333,819.368457083,820.2224185,9,819.435182583,819.500849541,820.241561416,822.168264458,0,0.85396141700005
129,24,1,categorization,0,bathroom,SHINEd_sun_ahaulkltgpkeeemi.tif,26,0.0666666666666667,0.0666666666666667,1,822.185251666,822.816385916,13,822.251953875,822.317996458,822.840756083,823.834094125,1,0.631134249999945
129,25,1,categorization,0,bathroom,SHINEd_sun_asfwthctfqerjvxr.tif,49,0.0666666666666667,0.0666666666666667,0.883333333333333,823.838918958,824.484600875,13,823.900671291,823.961602291,824.497007541,825.373679458,1,0.645681916999933
129,26,1,categorization,0,kitchen,SHINEd_sun_agzzivivdpnawacl.tif,89,0.0666666666666667,0.0666666666666667,1.95,825.3783565,826.140851125,9,825.440023666,825.500959916,826.152783291,828.096168041,1,0.762494625000045
129,27,1,categorization,0,kitchen,SHINEd_sun_axyyrmzcupyhlivc.tif,107,0.0666666666666667,0.0666666666666667,1.25,828.115253458,828.839774291,9,828.182278083,828.247977125,828.853916208,830.097309416,1,0.724520833000042
129,28,1,categorization,0,bathroom,SHINEd_sun_auzqhkafidnkrwmo.tif,54,0.0666666666666667,0.0666666666666667,1.95,830.114055708,831.063962416,9,830.181046833,830.246563125,831.086571541,833.029964958,0,0.949906707999958
129,29,1,categorization,0,bathroom,SHINEd_sun_apmqjbnwghzuhhzh.tif,46,0.0666666666666667,0.0666666666666667,1.91666666666667,833.0475465,833.998309125,13,833.114570833,833.178532,834.01743775,835.927482041,1,0.950762625000038
129,30,1,categorization,0,bathroom,SHINEd_sun_aspsyogrekjtfozg.tif,50,0.0666666666666667,0.0666666666666667,1.41666666666667,835.945049916,836.833006708,9,836.01220375,836.07817525,836.851580083,838.261633291,0,0.887956791999954
129,31,1,categorization,0,kitchen,SHINEd_sun_afuyedyxivkhecmu.tif,85,0.0666666666666667,0.0666666666666667,0.716666666666667,838.279277166,838.913741916,13,838.345656333,838.411792541,838.93538725,839.645425791,0,0.634464750000006
129,32,1,categorization,0,kitchen,SHINEd_sun_ahpczsiumwwocjkv.tif,92,0.0666666666666667,0.0666666666666667,1.28333333333333,839.661843125,840.292780166,9,839.729104875,839.795048375,840.296954208,841.573665291,1,0.630937040999925
129,33,1,categorization,0,bathroom,SHINEd_sun_agyqfjcfkdcydepw.tif,25,0.0666666666666667,0.0666666666666667,0.9,841.592800791,842.522654875,9,841.65984475,841.725312041,842.548815541,843.442154833,0,0.929854083999999
129,34,1,categorization,0,kitchen,SHINEd_sun_akcjzhbbjlbogpdi.tif,99,0.0666666666666667,0.0666666666666667,0.8,843.447823166,844.116751041,9,843.509596083,843.5704385,844.122330625,844.9156685,1,0.668927875000008
129,35,1,categorization,0,kitchen,SHINEd_labelme_brsyyvweiuaazfr.tif,61,0.0666666666666667,0.0666666666666667,1.01666666666667,844.92033475,845.748742916,13,844.982020166,845.042876666,845.761341833,846.771380916,0,0.828408165999917
129,36,1,categorization,0,kitchen,SHINEd_sun_aeqdocilnnpuvuhx.tif,83,0.0666666666666667,0.0666666666666667,0.85,846.780240791,847.385583875,9,846.845462958,846.911448916,847.400765,848.244149166,1,0.605343083999969
129,37,1,categorization,0,kitchen,SHINEd_sun_abdenxonkemggwsq.tif,69,0.0666666666666667,0.0666666666666667,1.51666666666667,848.260169833,849.117168458,13,848.32627325,848.392775125,849.128234833,850.638272333,0,0.856998625000074
129,38,1,categorization,0,kitchen,SHINEd_sun_agubuxuukhzyzpdp.tif,88,0.0666666666666667,0.0666666666666667,1.83333333333333,850.655796833,851.524207333,9,850.722090708,850.788632541,851.545276125,853.371999166,1,0.868410500000095
129,39,1,categorization,0,bathroom,SHINEd_sun_aapitsgbtktqubfy.tif,12,0.0666666666666667,0.0666666666666667,0.716666666666667,853.390404791,854.167797083,9,853.4574195,853.522948375,854.196750708,854.90675475,0,0.777392291999945
129,40,1,categorization,0,kitchen,SHINEd_sun_abftihopvusyfakt.tif,71,0.0666666666666667,0.0666666666666667,0.9,854.911654083,856.076538166,9,854.973263083,855.034434583,856.086168083,856.979508791,1,1.16488408299995
129,41,1,categorization,0,bathroom,SHINEd_sun_anhioqovhscjqqwb.tif,38,0.0666666666666667,0.0666666666666667,0.916666666666667,856.984019625,857.75724525,9,857.04571925,857.106599291,857.775068916,858.685073,0,0.773225625000009
129,42,1,categorization,0,bathroom,SHINEd_sun_axyrejkiiaqiurjk.tif,59,0.0666666666666667,0.0666666666666667,0.816666666666667,858.690527583,859.365376166,9,858.752194208,858.81307875,859.381650125,860.191653208,0,0.674848583000085
129,43,1,categorization,0,kitchen,SHINEd_sun_ahljzhgcdpomplvg.tif,91,0.0666666666666667,0.0666666666666667,1.88333333333333,860.196365833,861.005026458,9,860.25800525,860.318903041,861.020824208,862.89753975,1,0.808660625000016
129,44,1,categorization,0,bathroom,SHINEd_sun_apynckhmoftszqoq.tif,47,0.0666666666666667,0.0666666666666667,0.9,862.91551825,863.848736708,13,862.982031416,863.0480345,863.871312958,864.764651083,1,0.933218458000056
129,45,1,categorization,0,bathroom,SHINEd_sun_ahijqszoswveeyji.tif,28,0.0666666666666667,0.0666666666666667,1,864.769491,865.428831041,13,864.831089083,864.892080583,865.44389025,866.437227708,1,0.65934004099995
129,46,1,categorization,0,kitchen,SHINEd_sun_aarfiyshqohlwkmo.tif,67,0.0666666666666667,0.0666666666666667,0.733333333333333,866.441998666,867.220683291,9,866.50360725,866.564725125,867.233207166,867.959877583,1,0.778684624999983
129,47,1,categorization,0,kitchen,SHINEd_sun_aehawpgmrlhlvcow.tif,81,0.0666666666666667,0.0666666666666667,0.883333333333333,867.964515041,868.861264375,9,868.026162083,868.087038625,868.872199375,869.748871125,1,0.896749333999992
129,48,1,categorization,0,bathroom,SHINEd_sun_apeeialkgkuxddgh.tif,42,0.0666666666666667,0.0666666666666667,1.73333333333333,869.753689208,870.805245458,9,869.815441666,869.876274833,870.811500208,872.538217625,0,1.05155624999998
129,49,1,categorization,0,bathroom,SHINEd_sun_akiytfaagpdsphgz.tif,31,0.0666666666666667,0.0666666666666667,1.91666666666667,872.555192583,873.357466,9,872.621556333,872.687734041,873.377281708,875.287333166,0,0.802273417000038
129,50,1,categorization,0,kitchen,SHINEd_sun_abdxkyyxwfskuaqb.tif,70,0.0666666666666667,0.0666666666666667,1.35,875.299521583,875.992583333,13,875.36670125,875.432111666,876.003354666,877.346744541,0,0.69306174999997
129,1,2,categorization,0,kitchen,SHINEd_sun_acwjdupvyjsugpay.tif,76,0.0666666666666667,0.0666666666666667,0.95,886.239468625,886.741184125,13,886.301954166,886.362221416,886.747365083,887.690702166,0,0.501715500000046
129,2,2,categorization,0,bathroom,SHINEd_sun_anryaplzeujmzfkd.tif,39,0.0666666666666667,0.0666666666666667,0.75,887.69541775,888.636366208,9,887.7576165,887.817974916,888.65347575,889.396813291,0,0.94094845799998
129,3,2,categorization,0,kitchen,SHINEd_sun_aaxxjlsuzvqlgylf.tif,68,0.0666666666666667,0.0666666666666667,1.68333333333333,889.401420375,890.132485541,9,889.4631345,889.524037916,890.142463125,891.819168708,1,0.731065166000008
129,4,2,categorization,0,kitchen,SHINEd_sun_admlmbcdswaszruo.tif,79,0.0666666666666667,0.0666666666666667,0.816666666666667,891.834462375,892.454029333,9,891.901295791,891.966558625,892.473304583,893.283310333,1,0.61956695799995
129,5,2,categorization,0,bathroom,SHINEd_sun_agrwbmhcpmfuwmsg.tif,24,0.0666666666666667,0.0666666666666667,0.916666666666667,893.288844833,894.23670775,13,893.350619791,893.411522916,894.246558916,895.156564375,1,0.947862917000066
129,6,2,categorization,0,bathroom,SHINEd_sun_aljolscmmzydegqp.tif,33,0.0666666666666667,0.0666666666666667,1.21666666666667,895.161158333,895.804857833,9,895.222923625,895.283782833,895.818909833,897.028953291,0,0.643699500000025
129,7,2,categorization,0,kitchen,SHINEd_sun_akchetnepxlcxhsu.tif,98,0.0666666666666667,0.0666666666666667,0.9,897.044056208,897.386028291,9,897.110948791,897.174966708,897.414675458,898.308078458,1,0.341972082999973
129,8,2,categorization,0,kitchen,SHINEd_sun_adgqasybjyktddhj.tif,78,0.0666666666666667,0.0666666666666667,1.65,898.322732958,899.213027166,9,898.389281791,898.455354125,899.223925083,900.867300708,1,0.890294208
129,9,2,categorization,0,bathroom,SHINEd_sun_ajlawzvmubibwbpy.tif,30,0.0666666666666667,0.0666666666666667,1.15,900.885214791,901.809325708,9,900.95217,901.017485416,901.822829708,902.966207791,0,0.924110917000007
129,10,2,categorization,0,bathroom,SHINEd_sun_azqyogdvyhahyram.tif,60,0.0666666666666667,0.0666666666666667,1.13333333333333,902.975462166,903.637773916,13,903.040686708,903.107437875,903.664554333,904.791256041,1,0.662311749999958
129,11,2,categorization,0,kitchen,SHINEd_sun_aamedkxepzlwuxes.tif,65,0.0666666666666667,0.0666666666666667,1.76666666666667,904.808940041,905.765199,9,904.875365041,904.939874416,905.775026333,907.535063916,1,0.956258959000024
129,12,2,categorization,0,kitchen,SHINEd_sun_ahdycvpopffkzzsu.tif,90,0.0666666666666667,0.0666666666666667,1.8,907.553514375,908.398218666,13,907.620085625,907.686125791,908.4257875,910.219155583,0,0.844704291000085
129,13,2,categorization,0,kitchen,SHINEd_labelme_kxvouciolcpqplr.tif,62,0.0666666666666667,0.0666666666666667,0.9,910.237643708,911.085392916,13,910.304250208,910.369760208,911.110116,912.003454208,0,0.847749208000096
129,14,2,categorization,0,bathroom,SHINEd_sun_alotolagknyrgtsk.tif,35,0.0666666666666667,0.0666666666666667,0.716666666666667,912.008407666,912.820985083,9,912.070151458,912.131057416,912.832941166,913.542946083,0,0.812577416999943
129,15,2,categorization,0,kitchen,SHINEd_sun_ajkqhtgcbgpcwrwn.tif,97,0.0666666666666667,0.0666666666666667,1.36666666666667,913.54777975,914.205196291,9,913.609578583,913.670379666,914.222281416,915.582325916,1,0.657416540999975
129,16,2,categorization,0,bathroom,SHINEd_sun_acduarbnmmoglmiv.tif,16,0.0666666666666667,0.0666666666666667,0.916666666666667,915.600154791,916.273101041,9,915.666880208,915.73259675,916.288091458,917.198145375,0,0.672946249999995
129,17,2,categorization,0,kitchen,SHINEd_sun_agorklincwxrdtga.tif,87,0.0666666666666667,0.0666666666666667,0.716666666666667,917.20755475,917.876369583,9,917.273052875,917.331356666,917.883199708,918.593203375,1,0.668814833000056
129,18,2,categorization,0,kitchen,SHINEd_sun_aixorpehvfykdynp.tif,95,0.0666666666666667,0.0666666666666667,0.766666666666667,918.598164541,919.292201625,9,918.659778541,918.720719708,919.305866708,920.065871375,1,0.694037084000001
129,19,2,categorization,0,bathroom,SHINEd_labelme_sfxiulhjbhlyiyt.tif,11,0.0666666666666667,0.0666666666666667,1.06666666666667,920.070644416,920.772497375,9,920.132351291,920.193236583,920.77833,921.838376458,0,0.701852958999893
129,20,2,categorization,0,bathroom,SHINEd_sun_apkruvsevgegsdwp.tif,44,0.0666666666666667,0.0666666666666667,0.8,921.846802125,922.674151,13,921.911257458,921.978241083,922.70201625,923.495405041,1,0.827348875000098
129,21,2,categorization,0,bathroom,SHINEd_sun_aavhrsfjbserjtht.tif,13,0.0666666666666667,0.0666666666666667,0.866666666666667,923.507789416,924.333053625,13,923.574845375,923.640143625,924.341997458,925.20200125,1,0.825264209000011
129,22,2,categorization,0,kitchen,SHINEd_sun_avszsnwsbuqfgzbn.tif,105,0.0666666666666667,0.0666666666666667,1.48333333333333,925.2071235,926.508843083,13,925.268887375,925.329686958,926.515096791,927.991797958,0,1.30171958300002
129,23,2,categorization,0,kitchen,SHINEd_sun_aenotlpyftoioydp.tif,82,0.0666666666666667,0.0666666666666667,1.1,928.00957675,928.62648775,9,928.076779,928.142252708,928.648749125,929.742127875,1,0.616911000000073
129,24,2,categorization,0,kitchen,SHINEd_sun_acfmftudsenhrfhy.tif,74,0.0666666666666667,0.0666666666666667,0.783333333333333,929.751743708,930.436876166,13,929.816671541,929.884459,930.458501041,931.235208166,0,0.685132457999998
129,25,2,categorization,0,bathroom,SHINEd_sun_aleqenyvunhactkl.tif,32,0.0666666666666667,0.0666666666666667,0.866666666666667,931.245648333,931.844480833,9,931.3120155,931.377942583,931.863406708,932.723410583,0,0.598832500000071
129,26,2,categorization,0,kitchen,SHINEd_sun_amjjdeyrggfqgmom.tif,100,0.0666666666666667,0.0666666666666667,1.83333333333333,932.728052375,934.916559958,9,932.7896735,932.850708541,934.936463208,936.763189333,1,2.18850758300005
129,27,2,categorization,0,bathroom,SHINEd_sun_axxbkopsgyouuebh.tif,58,0.0666666666666667,0.0666666666666667,0.7,936.781543375,937.924308125,13,936.848471958,936.914017708,937.93497825,938.628315375,1,1.14276475000008
129,28,2,categorization,0,kitchen,SHINEd_sun_aggjlwcdjsjcaemh.tif,86,0.0666666666666667,0.0666666666666667,1.33333333333333,938.632923625,939.324094458,9,938.694651,938.755549583,939.34075875,940.667462083,1,0.691170833000001
129,29,2,categorization,0,bathroom,SHINEd_sun_ausgutylgojavyoq.tif,53,0.0666666666666667,0.0666666666666667,1.33333333333333,940.684737666,941.431604083,9,940.750913416,940.817308541,941.45717125,942.783875375,0,0.746866416999978
129,30,2,categorization,0,bathroom,SHINEd_sun_apkxzenqapsujocq.tif,45,0.0666666666666667,0.0666666666666667,1.38333333333333,942.802332125,943.606744791,13,942.869675125,942.934868458,943.62396025,945.00066575,1,0.804412665999962
129,31,2,categorization,0,kitchen,SHINEd_sun_acxkpeoqbwcxfvip.tif,77,0.0666666666666667,0.0666666666666667,1.25,945.018356291,946.88435,9,945.086032166,945.148069125,946.900373541,948.143746791,1,1.86599370900001
129,32,2,categorization,0,bathroom,SHINEd_sun_aggnnqpdorgxpvce.tif,21,0.0666666666666667,0.0666666666666667,1.55,948.161763041,948.991508583,9,948.228678,948.29448525,949.018145416,950.561515208,0,0.829745542000069
129,33,2,categorization,0,bathroom,SHINEd_sun_ambriybtogmepttm.tif,36,0.0666666666666667,0.0666666666666667,1.61666666666667,950.579114958,951.166581291,9,950.646103458,950.712036291,951.183968083,952.794002541,0,0.587466333000066
129,34,2,categorization,0,bathroom,SHINEd_sun_ahqjwnzgolcaoidx.tif,29,0.0666666666666667,0.0666666666666667,1.33333333333333,952.812146708,953.593931291,9,952.879001041,952.944777708,953.618287166,954.94501975,0,0.78178458299999
129,35,2,categorization,0,bathroom,SHINEd_sun_aofnryafpsjimzsb.tif,40,0.0666666666666667,0.0666666666666667,0.833333333333333,954.962261541,955.76162875,13,955.029074375,955.095322791,955.785811,956.612518291,1,0.799367209000025
129,36,2,categorization,0,kitchen,SHINEd_labelme_rykdqxenmhulbdn.tif,63,0.0666666666666667,0.0666666666666667,1.45,956.630309583,957.316794208,9,956.693374291,956.75316075,957.321683666,958.765052666,1,0.686484625000048
129,37,2,categorization,0,kitchen,SHINEd_sun_auticobqsbwgoppi.tif,104,0.0666666666666667,0.0666666666666667,0.933333333333333,958.7833015,959.684459458,9,958.849570458,958.916046875,959.70623725,960.632909583,1,0.901157957999999
129,38,2,categorization,0,kitchen,SHINEd_sun_aegoxogugdkwpmpj.tif,80,0.0666666666666667,0.0666666666666667,1.65,960.637845458,961.660843208,9,960.699522916,960.760524666,961.67893025,963.322303583,1,1.02299774999994
129,39,2,categorization,0,bathroom,SHINEd_sun_ahcvzmoyaycdoftf.tif,27,0.0666666666666667,0.0666666666666667,1.23333333333333,963.343737458,964.135689416,13,963.410627291,963.476458666,964.148919666,965.37563625,1,0.791951958000027
129,40,2,categorization,0,kitchen,SHINEd_sun_acgtpgfybqjmzeyw.tif,75,0.0666666666666667,0.0666666666666667,0.766666666666667,965.387867958,966.085739708,9,965.454390208,965.520180333,966.110379708,966.870426708,1,0.69787174999999
129,41,2,categorization,0,bathroom,SHINEd_sun_acegryoqftbzowsg.tif,17,0.0666666666666667,0.0666666666666667,1.78333333333333,966.886855791,967.820403083,13,966.953135916,967.019438583,967.838270083,969.614973583,1,0.933547291999957
129,42,2,categorization,0,kitchen,SHINEd_sun_aqeaevwwwjoqhzvl.tif,101,0.0666666666666667,0.0666666666666667,1.11666666666667,969.635237041,970.415407958,13,969.702601791,969.76764925,970.440819375,971.550862166,0,0.780170916999964
129,43,2,categorization,0,kitchen,SHINEd_sun_aymvwlarqodbwuoc.tif,108,0.0666666666666667,0.0666666666666667,1.85,971.559749541,973.05494,9,971.624380083,971.692939041,973.065810291,974.909164083,1,1.49519045900001
129,44,2,categorization,0,kitchen,SHINEd_sun_abpwyqmlzafvklqo.tif,72,0.0666666666666667,0.0666666666666667,0.733333333333333,974.921119708,975.776712125,9,974.9878005,975.053200416,975.793044916,976.519715666,1,0.855592417000025
129,45,2,categorization,0,kitchen,SHINEd_sun_auaiucuqpdausiva.tif,102,0.0666666666666667,0.0666666666666667,0.783333333333333,976.524816708,977.116547375,9,976.58655575,976.6474905,977.132538916,977.909211583,1,0.591730666999979
129,46,2,categorization,0,bathroom,SHINEd_sun_apjevzvycyhuqghb.tif,43,0.0666666666666667,0.0666666666666667,1.5,977.913914166,978.908668208,9,977.975665666,978.036563125,978.921788833,980.415158125,0,0.994754041999954
129,47,2,categorization,0,kitchen,SHINEd_sun_aexklacwqwezaorf.tif,84,0.0666666666666667,0.0666666666666667,0.733333333333333,980.433641791,981.397568375,9,980.500508666,980.566211333,981.422883875,982.149555375,1,0.963926583999978
129,48,2,categorization,0,bathroom,SHINEd_sun_aunuadmjocsddsrl.tif,52,0.0666666666666667,0.0666666666666667,1.1,982.154365041,982.74028025,9,982.216117041,982.277008875,982.745367416,983.838755375,0,0.58591520899995
129,49,2,categorization,0,bathroom,SHINEd_sun_abjtwfukuwddzted.tif,15,0.0666666666666667,0.0666666666666667,1.6,983.847476083,984.716002416,9,983.912580833,983.980011208,984.736430416,986.329817291,0,0.868526333000091
129,50,2,categorization,0,kitchen,SHINEd_sun_ahspylgoovwmwvgk.tif,93,0.0666666666666667,0.0666666666666667,1.06666666666667,986.348771958,987.431236333,9,986.415481083,986.481401,987.455046625,988.51509525,1,1.08246437499997
129,1,3,categorization,0,bathroom,SHINEd_sun_alkosphxlxwjwgjd.tif,34,0.0666666666666667,0.0666666666666667,0.85,1029.84089625,1030.732002208,13,1029.903090958,1029.963660458,1030.748731416,1031.592068291,1,0.891105958000026
129,2,3,categorization,0,bathroom,SHINEd_sun_aoybiabnpadelefl.tif,41,0.0666666666666667,0.0666666666666667,1.65,1031.596816708,1032.148373458,9,1031.658424541,1031.719412875,1032.15471175,1033.798080541,0,0.551556749999918
129,3,3,categorization,0,bathroom,SHINEd_sun_ahqjwnzgolcaoidx.tif,29,0.0666666666666667,0.0666666666666667,0.783333333333333,1033.812737291,1034.936087916,9,1033.879751583,1033.942654708,1034.965927333,1035.742598791,0,1.12335062499983
129,4,3,categorization,0,kitchen,SHINEd_sun_aeqdocilnnpuvuhx.tif,83,0.0666666666666667,0.0666666666666667,0.933333333333333,1035.747291125,1036.491876916,9,1035.808958,1035.86990475,1036.505036041,1037.431706333,1,0.744585790999963
129,5,3,categorization,0,bathroom,SHINEd_sun_apeeialkgkuxddgh.tif,42,0.0666666666666667,0.0666666666666667,0.866666666666667,1037.4366325,1038.2276545,13,1037.498491708,1037.559135041,1038.244264916,1039.104269916,1,0.791021999999884
129,6,3,categorization,0,bathroom,SHINEd_sun_agrwbmhcpmfuwmsg.tif,24,0.0666666666666667,0.0666666666666667,1.11666666666667,1039.108938333,1039.875956791,9,1039.170535625,1039.231612375,1039.883504041,1040.993549791,0,0.767018457999939
129,7,3,categorization,0,bathroom,SHINEd_sun_axxbkopsgyouuebh.tif,58,0.0666666666666667,0.0666666666666667,0.966666666666667,1041.0024275,1041.707663541,13,1041.066870208,1041.133432125,1041.722604166,1042.682657958,1,0.705236041000035
129,8,3,categorization,0,bathroom,SHINEd_labelme_sfxiulhjbhlyiyt.tif,11,0.0666666666666667,0.0666666666666667,1.78333333333333,1042.698317375,1043.395788291,13,1042.764603875,1042.828995583,1043.414176541,1045.1908985,1,0.697470915999929
129,9,3,categorization,0,bathroom,SHINEd_sun_agguqiubmwhqqunb.tif,22,0.0666666666666667,0.0666666666666667,1.55,1045.200284541,1045.797851333,9,1045.265113541,1045.3328795,1045.82251375,1047.365891625,0,0.597566791999952
129,10,3,categorization,0,kitchen,SHINEd_sun_aunzlwrbjumxhwdj.tif,103,0.0666666666666667,0.0666666666666667,1.41666666666667,1047.380492916,1048.118790125,9,1047.447038916,1047.512598458,1048.135031083,1049.545077458,1,0.738297208999938
129,11,3,categorization,0,kitchen,SHINEd_sun_aegoxogugdkwpmpj.tif,80,0.0666666666666667,0.0666666666666667,0.8,1049.563052083,1050.2276585,13,1049.629735083,1049.695454625,1050.252339625,1051.045712041,0,0.664606416999959
129,12,3,categorization,0,kitchen,SHINEd_sun_aarfiyshqohlwkmo.tif,67,0.0666666666666667,0.0666666666666667,1.28333333333333,1051.060824958,1051.940506416,9,1051.127482,1051.189865291,1051.958496791,1053.235204708,1,0.87968145800005
129,13,3,categorization,0,bathroom,SHINEd_sun_apkruvsevgegsdwp.tif,44,0.0666666666666667,0.0666666666666667,1.66666666666667,1053.244252083,1053.959770458,9,1053.311170333,1053.376443875,1053.983126625,1055.643168625,0,0.715518375000102
129,14,3,categorization,0,kitchen,SHINEd_sun_aqeaevwwwjoqhzvl.tif,101,0.0666666666666667,0.0666666666666667,1.81666666666667,1055.660203791,1056.497495041,13,1055.726979,1055.793237291,1056.516310958,1058.326345083,0,0.837291250000135
129,15,3,categorization,0,bathroom,SHINEd_sun_acegryoqftbzowsg.tif,17,0.0666666666666667,0.0666666666666667,1.35,1058.343616083,1059.2757765,9,1058.410408875,1058.476709916,1059.299965875,1060.643352,0,0.932160416999977
129,16,3,categorization,0,bathroom,SHINEd_sun_aspsyogrekjtfozg.tif,50,0.0666666666666667,0.0666666666666667,0.916666666666667,1060.660551875,1061.662427833,13,1060.727729625,1060.793046,1061.682908583,1062.592912166,1,1.00187595800003
129,17,3,categorization,0,kitchen,SHINEd_labelme_kxvouciolcpqplr.tif,62,0.0666666666666667,0.0666666666666667,0.916666666666667,1062.597874666,1063.347954833,9,1062.659693666,1062.720460583,1063.3555405,1064.265545708,1,0.750080166999851
129,18,3,categorization,0,kitchen,SHINEd_sun_ahywdevtimnqcsln.tif,94,0.0666666666666667,0.0666666666666667,1.31666666666667,1064.270160166,1065.05175575,9,1064.331835333,1064.392792125,1065.061253625,1066.371288416,1,0.781595583999888
129,19,3,categorization,0,kitchen,SHINEd_sun_agzzivivdpnawacl.tif,89,0.0666666666666667,0.0666666666666667,1.45,1066.389301916,1067.351381375,9,1066.455964458,1066.521806333,1067.378412208,1068.821787875,1,0.962079459000051
129,20,3,categorization,0,kitchen,SHINEd_sun_ahpczsiumwwocjkv.tif,92,0.0666666666666667,0.0666666666666667,0.95,1068.84165575,1069.532646958,9,1068.90879825,1068.974593958,1069.547083791,1070.490426,1,0.690991208000014
129,21,3,categorization,0,kitchen,SHINEd_sun_acxkpeoqbwcxfvip.tif,77,0.0666666666666667,0.0666666666666667,1.38333333333333,1070.496109708,1071.219568,9,1070.557884458,1070.618737291,1071.237296125,1072.614028625,1,0.723458292000032
129,22,3,categorization,0,bathroom,SHINEd_sun_aghyqhbptboemmoq.tif,23,0.0666666666666667,0.0666666666666667,1.16666666666667,1072.632235708,1073.235872875,13,1072.698948916,1072.764568291,1073.253455791,1074.413501666,1,0.603637166999988
129,23,3,categorization,0,bathroom,SHINEd_sun_amzlamotzwfkwjco.tif,37,0.0666666666666667,0.0666666666666667,1.61666666666667,1074.425277583,1075.046076708,9,1074.491726333,1074.558203208,1075.066539625,1076.676598291,0,0.620799125000076
129,24,3,categorization,0,kitchen,SHINEd_sun_aymvwlarqodbwuoc.tif,108,0.0666666666666667,0.0666666666666667,1.38333333333333,1076.695495583,1077.870189375,9,1076.762985708,1076.828475416,1077.884436291,1079.261161333,1,1.1746937920002
129,25,3,categorization,0,kitchen,SHINEd_sun_abpwyqmlzafvklqo.tif,72,0.0666666666666667,0.0666666666666667,1.78333333333333,1079.277102,1080.455697875,13,1079.344442416,1079.410004291,1080.484332916,1082.261040916,0,1.17859587499993
129,26,3,categorization,0,kitchen,SHINEd_sun_ajcbwwvdlsvjyzje.tif,96,0.0666666666666667,0.0666666666666667,0.783333333333333,1082.279873875,1083.509144833,13,1082.34732575,1082.413373416,1083.539184041,1084.315856791,0,1.22927095799992
129,27,3,categorization,0,kitchen,SHINEd_sun_abdxkyyxwfskuaqb.tif,70,0.0666666666666667,0.0666666666666667,1.65,1084.320824166,1085.227872791,9,1084.382589583,1084.443475708,1085.245252375,1086.888626625,1,0.907048625000016
129,28,3,categorization,0,bathroom,SHINEd_sun_ahaulkltgpkeeemi.tif,26,0.0666666666666667,0.0666666666666667,1.86666666666667,1086.908262916,1087.813678916,9,1086.975497791,1087.0411765,1087.831340333,1089.691384166,0,0.905416000000059
129,29,3,categorization,0,bathroom,SHINEd_sun_atstyziqcmkahyxk.tif,51,0.0666666666666667,0.0666666666666667,1.23333333333333,1089.710338416,1090.790806666,13,1089.777676583,1089.843566291,1090.817758041,1092.044468125,1,1.08046824999997
129,30,3,categorization,0,bathroom,SHINEd_sun_axldvoqbuvuggfmq.tif,57,0.0666666666666667,0.0666666666666667,0.7,1092.061531,1093.584476125,9,1092.128844,1092.194733916,1093.603481916,1094.296819833,0,1.52294512499998
129,31,3,categorization,0,kitchen,SHINEd_sun_axyyrmzcupyhlivc.tif,107,0.0666666666666667,0.0666666666666667,0.716666666666667,1094.301654833,1097.22017725,9,1094.363398625,1094.424307791,1097.2264595,1097.936466708,1,2.91852241700008
129,32,3,categorization,0,bathroom,SHINEd_sun_aunuadmjocsddsrl.tif,52,0.0666666666666667,0.0666666666666667,1.05,1097.941788166,1099.228049958,13,1098.003606875,1098.064467,1099.233094333,1100.276460041,1,1.286261792
129,33,3,categorization,0,bathroom,SHINEd_sun_apjevzvycyhuqghb.tif,43,0.0666666666666667,0.0666666666666667,1.1,1100.285764958,1101.024596625,9,1100.350171375,1100.4165605,1101.039299833,1102.132679625,0,0.738831666999886
129,34,3,categorization,0,kitchen,SHINEd_sun_abftihopvusyfakt.tif,71,0.0666666666666667,0.0666666666666667,1.13333333333333,1102.149433333,1102.964231291,9,1102.216248166,1102.281648625,1102.983850291,1104.110556541,1,0.814797958000099
129,35,3,categorization,0,bathroom,SHINEd_sun_aqrpegblszgcoujh.tif,48,0.0666666666666667,0.0666666666666667,1.38333333333333,1104.120870125,1105.009113125,13,1104.185680833,1104.253432458,1105.028090666,1106.404805916,1,0.888243000000102
129,36,3,categorization,0,kitchen,SHINEd_sun_acwjdupvyjsugpay.tif,76,0.0666666666666667,0.0666666666666667,1.5,1106.423678833,1107.061758833,9,1106.491123333,1106.556321958,1107.079688541,1108.573057541,1,0.638080000000173
129,37,3,categorization,0,bathroom,SHINEd_sun_aleqenyvunhactkl.tif,32,0.0666666666666667,0.0666666666666667,1.61666666666667,1108.591455166,1109.344685541,9,1108.658723291,1108.724275166,1109.364847625,1110.974887708,0,0.75323037499993
129,38,3,categorization,0,bathroom,SHINEd_sun_azqyogdvyhahyram.tif,60,0.0666666666666667,0.0666666666666667,0.983333333333333,1110.992833416,1111.743212875,13,1111.059976291,1111.125810375,1111.766424958,1112.743095875,1,0.750379458999987
129,39,3,categorization,0,bathroom,SHINEd_sun_avhrdrntsqrjzccq.tif,55,0.0666666666666667,0.0666666666666667,1.3,1112.74820575,1113.476382916,9,1112.809926958,1112.870897916,1113.489291041,1114.782667333,0,0.728177166000023
129,40,3,categorization,0,kitchen,SHINEd_sun_akchetnepxlcxhsu.tif,98,0.0666666666666667,0.0666666666666667,1.03333333333333,1114.800611708,1115.641310583,9,1114.867425416,1114.933062208,1115.65589875,1116.682616625,1,0.840698875000044
129,41,3,categorization,0,bathroom,SHINEd_sun_asfwthctfqerjvxr.tif,49,0.0666666666666667,0.0666666666666667,1.45,1116.692307916,1117.4126415,9,1116.75693125,1116.823206083,1117.428242875,1118.871618333,0,0.720333584000173
129,42,3,categorization,0,bathroom,SHINEd_sun_apmqjbnwghzuhhzh.tif,46,0.0666666666666667,0.0666666666666667,1.23333333333333,1118.889195291,1119.788260958,13,1118.955741416,1119.0215475,1119.811968708,1121.038679625,1,0.899065666999832
129,43,3,categorization,0,kitchen,SHINEd_sun_aehawpgmrlhlvcow.tif,81,0.0666666666666667,0.0666666666666667,1.26666666666667,1121.058020875,1121.803874375,9,1121.125379083,1121.18937275,1121.829358958,1123.089396583,1,0.745853500000067
129,44,3,categorization,0,kitchen,SHINEd_sun_ahdycvpopffkzzsu.tif,90,0.0666666666666667,0.0666666666666667,1.03333333333333,1123.10789725,1123.739185208,13,1123.17353225,1123.238210833,1123.760855166,1124.787569333,0,0.63128795800003
129,45,3,categorization,0,bathroom,SHINEd_sun_aavhrsfjbserjtht.tif,13,0.0666666666666667,0.0666666666666667,1.31666666666667,1124.803626833,1125.54014925,13,1124.869911208,1124.935673166,1125.554249416,1126.864297083,1,0.73652241700006
129,46,3,categorization,0,kitchen,SHINEd_sun_aixorpehvfykdynp.tif,95,0.0666666666666667,0.0666666666666667,1.7,1126.882404166,1127.638128791,9,1126.949531625,1127.015110125,1127.654843666,1129.348212833,1,0.755724625000084
129,47,3,categorization,0,kitchen,SHINEd_sun_ahspylgoovwmwvgk.tif,93,0.0666666666666667,0.0666666666666667,1.35,1129.367344875,1129.980510708,9,1129.434326041,1129.499824791,1130.006277291,1131.3496545,1,0.613165833000039
129,48,3,categorization,0,bathroom,SHINEd_sun_acgyywnybuveqsro.tif,18,0.0666666666666667,0.0666666666666667,0.8,1131.367121041,1132.125303916,9,1131.433855,1131.499679416,1132.138704666,1132.932097625,0,0.758182874999875
129,49,3,categorization,0,kitchen,SHINEd_sun_aexklacwqwezaorf.tif,84,0.0666666666666667,0.0666666666666667,0.766666666666667,1132.948502916,1133.57984,13,1133.015364416,1133.072779125,1133.591268125,1134.351273375,0,0.631337084000052
129,50,3,categorization,0,kitchen,SHINEd_sun_auticobqsbwgoppi.tif,104,0.0666666666666667,0.0666666666666667,1.38333333333333,1134.356282333,1135.067881583,9,1134.418068125,1134.47883125,1135.080659375,1136.457384916,1,0.711599249999836
129,1,4,categorization,0,kitchen,SHINEd_sun_aenotlpyftoioydp.tif,82,0.0666666666666667,0.0666666666666667,1,1144.624590333,1145.811332458,9,1144.687118833,1144.747268458,1145.8158685,1146.809208625,1,1.18674212499991
129,2,4,categorization,0,bathroom,SHINEd_sun_abjtwfukuwddzted.tif,15,0.0666666666666667,0.0666666666666667,0.966666666666667,1146.814360708,1147.540024208,9,1146.876020958,1146.9369595,1147.555607333,1148.515612833,0,0.725663499999882
129,3,4,categorization,0,bathroom,SHINEd_sun_aapitsgbtktqubfy.tif,12,0.0666666666666667,0.0666666666666667,1.75,1148.520346958,1149.131832333,9,1148.582009958,1148.642915791,1149.144733208,1150.888107791,0,0.611485375000029
129,4,4,categorization,0,bathroom,SHINEd_sun_alotolagknyrgtsk.tif,35,0.0666666666666667,0.0666666666666667,1.68333333333333,1150.908126875,1151.463978166,9,1150.974872958,1151.041067166,1151.479344833,1153.156069291,0,0.555851290999954
129,5,4,categorization,0,kitchen,SHINEd_sun_aadbddgrdsjugojn.tif,64,0.0666666666666667,0.0666666666666667,1.58333333333333,1153.166954333,1153.58329775,13,1153.232530458,1153.299623125,1153.606015666,1155.182727416,0,0.416343417000007
129,6,4,categorization,0,bathroom,SHINEd_sun_aofnryafpsjimzsb.tif,40,0.0666666666666667,0.0666666666666667,1,1155.19389625,1155.637340208,13,1155.259420125,1155.326721,1155.648042458,1156.6414245,1,0.443443957999989
129,7,4,categorization,0,bathroom,SHINEd_sun_ausgutylgojavyoq.tif,53,0.0666666666666667,0.0666666666666667,1.33333333333333,1156.658325,1157.163521458,9,1156.7257825,1156.784775208,1157.169971875,1158.496690125,0,0.505196458
129,8,4,categorization,0,kitchen,SHINEd_sun_acfmftudsenhrfhy.tif,74,0.0666666666666667,0.0666666666666667,1.26666666666667,1158.515085958,1159.095221041,9,1158.582354541,1158.647627708,1159.120952041,1160.381001708,1,0.580135082999959
129,9,4,categorization,0,kitchen,SHINEd_sun_awcpdzzznmweyyhv.tif,106,0.0666666666666667,0.0666666666666667,0.883333333333333,1160.392207666,1160.894488333,9,1160.459397291,1160.5248025,1160.914648875,1161.79137275,1,0.502280666999923
129,10,4,categorization,0,bathroom,SHINEd_sun_aljolscmmzydegqp.tif,33,0.0666666666666667,0.0666666666666667,1.26666666666667,1161.808245458,1162.397192666,9,1161.8748495,1161.940905708,1162.413670666,1163.67371775,0,0.588947207999809
129,11,4,categorization,0,bathroom,SHINEd_sun_ajlawzvmubibwbpy.tif,30,0.0666666666666667,0.0666666666666667,2,1163.691561583,1164.888066541,9,1163.758698291,1163.82384925,1164.913967583,1166.907361541,0,1.19650495799988
129,12,4,categorization,0,kitchen,SHINEd_sun_akcjzhbbjlbogpdi.tif,99,0.0666666666666667,0.0666666666666667,0.733333333333333,1166.925440083,1167.809305166,13,1166.992790416,1167.058387375,1167.832151166,1168.558823291,0,0.883865083000046
129,13,4,categorization,0,bathroom,SHINEd_sun_anryaplzeujmzfkd.tif,39,0.0666666666666667,0.0666666666666667,0.883333333333333,1168.563780541,1169.259928541,13,1168.625391833,1168.686375,1169.271560083,1170.148231458,1,0.696147999999994
129,14,4,categorization,0,bathroom,SHINEd_sun_afcoljnjfoxjtgja.tif,20,0.0666666666666667,0.0666666666666667,0.983333333333333,1170.15387475,1171.07618675,13,1170.215847041,1170.27649275,1171.09493475,1172.071607416,1,0.92231199999992
129,15,4,categorization,0,bathroom,SHINEd_sun_aclfzgynxzxlbepz.tif,19,0.0666666666666667,0.0666666666666667,1.56666666666667,1172.07644275,1172.723777875,9,1172.138069666,1172.199023833,1172.73417525,1174.294228791,0,0.647335124999927
129,16,4,categorization,0,bathroom,SHINEd_sun_acduarbnmmoglmiv.tif,16,0.0666666666666667,0.0666666666666667,1.08333333333333,1174.310466666,1174.891037125,9,1174.377157083,1174.443541458,1174.916906166,1175.993624166,0,0.580570459
129,17,4,categorization,0,kitchen,SHINEd_sun_afuyedyxivkhecmu.tif,85,0.0666666666666667,0.0666666666666667,0.75,1176.002443291,1176.708356958,9,1176.066883541,1176.132689416,1176.721890041,1177.465267958,1,0.705913667000004
129,18,4,categorization,0,kitchen,SHINEd_sun_aapllqyqlykszopd.tif,66,0.0666666666666667,0.0666666666666667,0.966666666666667,1177.481956375,1179.163258125,9,1177.548743041,1177.61456025,1179.166506875,1180.126513083,1,1.6813017500001
129,19,4,categorization,0,kitchen,SHINEd_sun_aypmqwcualkenuoe.tif,109,0.0666666666666667,0.0666666666666667,1.63333333333333,1180.131333625,1182.1071355,9,1180.193128333,1180.254098333,1182.123390375,1183.750110875,1,1.97580187499989
129,20,4,categorization,0,kitchen,SHINEd_sun_auaiucuqpdausiva.tif,102,0.0666666666666667,0.0666666666666667,1.46666666666667,1183.766733208,1185.539984416,13,1183.833759041,1183.899667875,1185.552238416,1187.012289958,0,1.77325120799992
129,21,4,categorization,0,kitchen,SHINEd_sun_aggjlwcdjsjcaemh.tif,86,0.0666666666666667,0.0666666666666667,0.933333333333333,1187.031003541,1188.460206958,13,1187.097992083,1187.158775875,1188.48424625,1189.410917166,0,1.42920341700005
129,22,4,categorization,0,kitchen,SHINEd_sun_azmutvzbxypaceni.tif,110,0.0666666666666667,0.0666666666666667,1.45,1189.415815916,1190.363105,9,1189.477540541,1189.538387666,1190.37352675,1191.816899333,1,0.947289083999976
129,23,4,categorization,0,kitchen,SHINEd_sun_aaxxjlsuzvqlgylf.tif,68,0.0666666666666667,0.0666666666666667,0.966666666666667,1191.831417041,1192.454475625,9,1191.898672166,1191.964886958,1192.471199,1193.431213041,1,0.623058584000091
129,24,4,categorization,0,bathroom,SHINEd_sun_apkxzenqapsujocq.tif,45,0.0666666666666667,0.0666666666666667,0.816666666666667,1193.437254166,1194.1878055,9,1193.499270833,1193.559865083,1194.194950666,1195.004956125,0,0.750551333999965
129,25,4,categorization,0,bathroom,SHINEd_sun_akiytfaagpdsphgz.tif,31,0.0666666666666667,0.0666666666666667,1.96666666666667,1195.009622291,1195.995611958,9,1195.071330375,1195.132135333,1196.000725708,1197.960770791,0,0.985989667000013
129,26,4,categorization,0,kitchen,SHINEd_sun_abdenxonkemggwsq.tif,69,0.0666666666666667,0.0666666666666667,0.916666666666667,1197.975838791,1198.808539083,9,1198.042570333,1198.107927458,1198.831618333,1199.741623375,1,0.832700292000027
129,27,4,categorization,0,kitchen,SHINEd_sun_abrcnpqqhmjwekyf.tif,73,0.0666666666666667,0.0666666666666667,1.28333333333333,1199.746577,1204.059178416,13,1199.808303083,1199.869267166,1204.088551875,1205.365277666,0,4.31260141600001
129,28,4,categorization,0,bathroom,SHINEd_sun_abapwbhyhkfixyex.tif,14,0.0666666666666667,0.0666666666666667,1.8,1205.380082708,1205.882785416,9,1205.446612041,1205.5125355,1205.9027185,1207.696086416,0,0.502702708000015
129,29,4,categorization,0,bathroom,SHINEd_sun_aggnnqpdorgxpvce.tif,21,0.0666666666666667,0.0666666666666667,1.33333333333333,1207.714394958,1208.638115916,9,1207.7814615,1207.847125375,1208.653164041,1209.979864625,0,0.923720958000104
129,30,4,categorization,0,bathroom,SHINEd_sun_ahijqszoswveeyji.tif,28,0.0666666666666667,0.0666666666666667,1.06666666666667,1209.997322416,1210.733584958,9,1210.062823083,1210.127203291,1210.750450083,1211.810502916,0,0.736262541999849
129,31,4,categorization,0,kitchen,SHINEd_sun_admlmbcdswaszruo.tif,79,0.0666666666666667,0.0666666666666667,1.03333333333333,1211.820445916,1212.689265583,9,1211.885153125,1211.952662791,1212.709162791,1213.735865583,1,0.868819667000025
129,32,4,categorization,0,kitchen,SHINEd_sun_avszsnwsbuqfgzbn.tif,105,0.0666666666666667,0.0666666666666667,0.733333333333333,1213.753118708,1214.931467958,9,1213.819870083,1213.885407333,1214.937425625,1215.664098875,1,1.17834924999988
129,33,4,categorization,0,bathroom,SHINEd_sun_anhioqovhscjqqwb.tif,38,0.0666666666666667,0.0666666666666667,0.766666666666667,1215.669512458,1216.923126458,9,1215.731209416,1215.792320208,1216.9277175,1217.687722666,0,1.25361399999997
129,34,4,categorization,0,kitchen,SHINEd_labelme_rykdqxenmhulbdn.tif,63,0.0666666666666667,0.0666666666666667,1.1,1217.692181166,1218.69982225,9,1217.754278375,1217.814781791,1218.717009875,1219.810395583,1,1.00764108399994
129,35,4,categorization,0,bathroom,SHINEd_sun_auzqhkafidnkrwmo.tif,54,0.0666666666666667,0.0666666666666667,1.81666666666667,1219.819753458,1220.492369166,9,1219.884548041,1219.951684666,1220.507163375,1222.317215208,0,0.672615707999967
129,36,4,categorization,0,kitchen,SHINEd_sun_amjjdeyrggfqgmom.tif,100,0.0666666666666667,0.0666666666666667,0.883333333333333,1222.336071125,1222.797931125,13,1222.400432583,1222.468889666,1222.825933833,1223.70265775,0,0.461860000000115
129,37,4,categorization,0,bathroom,SHINEd_sun_awnqiikzaispgmwo.tif,56,0.0666666666666667,0.0666666666666667,1.7,1223.719735625,1224.435700208,13,1223.7860635,1223.852132875,1224.454007,1226.147390083,1,0.715964582999959
129,38,4,categorization,0,kitchen,SHINEd_sun_ajkqhtgcbgpcwrwn.tif,97,0.0666666666666667,0.0666666666666667,1.58333333333333,1226.163304875,1226.855974041,9,1226.229632458,1226.295630083,1226.885809416,1228.462520666,1,0.692669166000087
129,39,4,categorization,0,kitchen,SHINEd_sun_acgtpgfybqjmzeyw.tif,75,0.0666666666666667,0.0666666666666667,0.833333333333333,1228.477161208,1229.142316625,9,1228.544131166,1228.609679291,1229.165026875,1229.9917,1,0.665155416999824
129,40,4,categorization,0,bathroom,SHINEd_sun_agyqfjcfkdcydepw.tif,25,0.0666666666666667,0.0666666666666667,0.95,1229.997043208,1230.643028375,9,1230.058706875,1230.119646,1230.654898166,1231.598237291,0,0.645985167000163
129,41,4,categorization,0,bathroom,SHINEd_sun_ambriybtogmepttm.tif,36,0.0666666666666667,0.0666666666666667,1.06666666666667,1231.603456541,1232.443346041,9,1231.665134625,1231.726136083,1232.4615395,1233.521594333,0,0.839889500000027
129,42,4,categorization,0,kitchen,SHINEd_labelme_brsyyvweiuaazfr.tif,61,0.0666666666666667,0.0666666666666667,1.68333333333333,1233.531655416,1234.228537333,13,1233.59594475,1233.660791041,1234.250616625,1235.927335291,0,0.696881917000155
129,43,4,categorization,0,kitchen,SHINEd_sun_aamedkxepzlwuxes.tif,65,0.0666666666666667,0.0666666666666667,1.31666666666667,1235.944254916,1236.692988458,9,1236.011292333,1236.077196625,1236.716668041,1238.026700583,1,0.748733541999854
129,44,4,categorization,0,bathroom,SHINEd_sun_ahcvzmoyaycdoftf.tif,27,0.0666666666666667,0.0666666666666667,1.61666666666667,1238.042266333,1238.59750175,9,1238.109353291,1238.174961875,1238.6147485,1240.22478475,0,0.555235416999949
129,45,4,categorization,0,kitchen,SHINEd_sun_agorklincwxrdtga.tif,87,0.0666666666666667,0.0666666666666667,1.15,1240.242644083,1240.885556083,9,1240.3096425,1240.375167458,1240.896771583,1242.040156041,1,0.642912000000024
129,46,4,categorization,0,bathroom,SHINEd_sun_axyrejkiiaqiurjk.tif,59,0.0666666666666667,0.0666666666666667,1.25,1242.050743333,1242.871488,13,1242.117417458,1242.183041291,1242.889445125,1244.132831958,1,0.820744667000099
129,47,4,categorization,0,kitchen,SHINEd_sun_agubuxuukhzyzpdp.tif,88,0.0666666666666667,0.0666666666666667,1.1,1244.143810416,1244.870880125,9,1244.208752416,1244.27522125,1244.89826275,1245.991649,1,0.727069709000034
129,48,4,categorization,0,kitchen,SHINEd_sun_ahljzhgcdpomplvg.tif,91,0.0666666666666667,0.0666666666666667,0.9,1246.008171083,1246.691585,9,1246.074990125,1246.138833625,1246.707367541,1247.600707125,1,0.683413917000053
129,49,4,categorization,0,kitchen,SHINEd_sun_adgqasybjyktddhj.tif,78,0.0666666666666667,0.0666666666666667,1.3,1247.605814875,1248.555209916,9,1247.667551125,1247.728390416,1248.563485416,1249.856860833,1,0.949395040999889
129,50,4,categorization,0,bathroom,SHINEd_sun_apynckhmoftszqoq.tif,47,0.0666666666666667,0.0666666666666667,1.25,1249.874039666,1250.558698875,9,1249.940758166,1250.006888916,1250.580433375,1251.823804458,0,0.684659208999847
129,1,5,categorization,0,bathroom,SHINEd_sun_aspsyogrekjtfozg.tif,50,0.0666666666666667,0.0666666666666667,1.7,1284.874471625,1285.595604083,9,1284.936891125,1284.997138291,1285.598905458,1287.292274041,0,0.721132457999829
129,2,5,categorization,0,kitchen,SHINEd_sun_acgtpgfybqjmzeyw.tif,75,0.0666666666666667,0.0666666666666667,1.81666666666667,1287.308030041,1287.686665166,13,1287.37472675,1287.440385083,1287.713722291,1289.523773333,0,0.378635125000073
129,3,5,categorization,0,bathroom,SHINEd_sun_ahaulkltgpkeeemi.tif,26,0.0666666666666667,0.0666666666666667,1.23333333333333,1289.541201708,1289.815787958,9,1289.608230333,1289.674196375,1289.829919625,1291.05662875,0,0.274586250000084
129,4,5,categorization,0,bathroom,SHINEd_sun_ausgutylgojavyoq.tif,53,0.0666666666666667,0.0666666666666667,1.4,1291.074061416,1291.380070916,9,1291.139729125,1291.204619,1291.393317458,1292.786713291,0,0.306009500000073
129,5,5,categorization,0,kitchen,SHINEd_sun_abdenxonkemggwsq.tif,69,0.0666666666666667,0.0666666666666667,1.03333333333333,1292.803994708,1293.075283125,13,1292.870326958,1292.927797083,1293.079486916,1294.106208416,0,0.271288417000051
129,6,5,categorization,0,bathroom,SHINEd_sun_afcoljnjfoxjtgja.tif,20,0.0666666666666667,0.0666666666666667,1.38333333333333,1294.116399791,1294.408692583,9,1294.180480916,1294.247279458,1294.436955166,1295.813655791,0,0.292292791999898
129,7,5,categorization,0,bathroom,SHINEd_sun_aavhrsfjbserjtht.tif,13,0.0666666666666667,0.0666666666666667,2,1295.83070775,1295.951227291,13,1295.897777083,1295.964687125,1295.987990166,1297.981370416,1,0.120519540999794
129,8,5,categorization,0,kitchen,SHINEd_sun_abpwyqmlzafvklqo.tif,72,0.0666666666666667,0.0666666666666667,1.85,1297.998970291,1300.219327291,9,1298.065648291,1298.131527833,1300.234375,1302.077756208,1,2.22035699999992
129,9,5,categorization,0,kitchen,SHINEd_sun_ahdycvpopffkzzsu.tif,90,0.0666666666666667,0.0666666666666667,0.816666666666667,1302.096210791,1302.928296583,13,1302.162719125,1302.22866925,1302.9519205,1303.761928333,0,0.832085792000044
129,10,5,categorization,0,bathroom,SHINEd_sun_akiytfaagpdsphgz.tif,31,0.0666666666666667,0.0666666666666667,1.85,1303.766726666,1304.299356,9,1303.828549833,1303.889339416,1304.307671208,1306.151036625,0,0.532629333999921
129,11,5,categorization,0,kitchen,SHINEd_sun_aapllqyqlykszopd.tif,66,0.0666666666666667,0.0666666666666667,0.733333333333333,1306.168358583,1306.516951041,9,1306.23564725,1306.301567916,1306.541528166,1307.268245125,1,0.348592457999985
129,12,5,categorization,0,bathroom,SHINEd_labelme_sfxiulhjbhlyiyt.tif,11,0.0666666666666667,0.0666666666666667,0.716666666666667,1307.279404416,1308.074733208,13,1307.346281958,1307.4032965,1308.088389458,1308.798394208,1,0.795328791999964
129,13,5,categorization,0,kitchen,SHINEd_labelme_kxvouciolcpqplr.tif,62,0.0666666666666667,0.0666666666666667,0.833333333333333,1308.802935166,1309.162746208,9,1308.864700208,1308.925685,1309.177573666,1310.004245583,1,0.359811042000047
129,14,5,categorization,0,bathroom,SHINEd_sun_anhioqovhscjqqwb.tif,38,0.0666666666666667,0.0666666666666667,0.95,1310.009106083,1310.386666375,13,1310.070700708,1310.131668,1310.400290208,1311.34362875,1,0.377560291999998
129,15,5,categorization,0,bathroom,SHINEd_sun_axldvoqbuvuggfmq.tif,57,0.0666666666666667,0.0666666666666667,1.96666666666667,1311.348444458,1311.690893416,13,1311.410042416,1311.470991791,1311.706066791,1313.666102125,1,0.342448958000205
129,16,5,categorization,0,bathroom,SHINEd_sun_agguqiubmwhqqunb.tif,22,0.0666666666666667,0.0666666666666667,1.86666666666667,1313.682262958,1314.030573833,9,1313.748429,1313.815090833,1314.055021916,1315.915061625,0,0.348310875000152
129,17,5,categorization,0,kitchen,SHINEd_sun_aehawpgmrlhlvcow.tif,81,0.0666666666666667,0.0666666666666667,1.51666666666667,1315.932453083,1316.271609666,13,1315.999195708,1316.064353375,1316.286263458,1317.796297416,0,0.339156582999976
129,18,5,categorization,0,kitchen,SHINEd_sun_ajkqhtgcbgpcwrwn.tif,97,0.0666666666666667,0.0666666666666667,1.3,1317.8100525,1318.131716208,9,1317.876862458,1317.942628125,1318.148774958,1319.442167541,1,0.32166370799996
129,19,5,categorization,0,bathroom,SHINEd_sun_aclfzgynxzxlbepz.tif,19,0.0666666666666667,0.0666666666666667,1.91666666666667,1319.452356416,1319.7555895,13,1319.519070541,1319.584332541,1319.773815,1321.683849333,1,0.303233084000112
129,20,5,categorization,0,bathroom,SHINEd_sun_aljolscmmzydegqp.tif,33,0.0666666666666667,0.0666666666666667,1.23333333333333,1321.693284541,1321.813770083,13,1321.758557041,1321.826551458,1321.849263791,1323.07598575,1,0.120485542000097
129,21,5,categorization,0,kitchen,SHINEd_sun_amjjdeyrggfqgmom.tif,100,0.0666666666666667,0.0666666666666667,0.866666666666667,1323.092708416,1323.434704583,9,1323.15707275,1323.223740666,1323.464085375,1324.324090333,1,0.341996166999934
129,22,5,categorization,0,kitchen,SHINEd_sun_ahspylgoovwmwvgk.tif,93,0.0666666666666667,0.0666666666666667,0.8,1324.328777583,1324.6512055,13,1324.390569083,1324.451359291,1324.670087458,1325.463425625,0,0.322427917000141
129,23,5,categorization,0,bathroom,SHINEd_sun_acgyywnybuveqsro.tif,18,0.0666666666666667,0.0666666666666667,1.51666666666667,1325.46828075,1325.843516083,9,1325.530039,1325.590952791,1325.859288583,1327.369341083,0,0.375235332999864
129,24,5,categorization,0,kitchen,SHINEd_sun_akcjzhbbjlbogpdi.tif,99,0.0666666666666667,0.0666666666666667,1.18333333333333,1327.381519166,1327.792132458,9,1327.44800775,1327.514270416,1327.820643958,1328.9973615,1,0.41061329199988
129,25,5,categorization,0,bathroom,SHINEd_sun_apeeialkgkuxddgh.tif,42,0.0666666666666667,0.0666666666666667,1.6,1329.005481458,1329.491168291,13,1329.067930125,1329.128089666,1329.496611083,1331.0899855,1,0.485686832999818
129,26,5,categorization,0,bathroom,SHINEd_sun_aoybiabnpadelefl.tif,41,0.0666666666666667,0.0666666666666667,1.56666666666667,1331.106992708,1331.740537583,9,1331.172088833,1331.238080875,1331.760978125,1333.32101325,0,0.633544875000098
129,27,5,categorization,0,bathroom,SHINEd_sun_ahijqszoswveeyji.tif,28,0.0666666666666667,0.0666666666666667,1.36666666666667,1333.337967666,1333.767890708,13,1333.4046445,1333.470665083,1333.793602125,1335.153635375,1,0.429923042000155
129,28,5,categorization,0,kitchen,SHINEd_sun_ahpczsiumwwocjkv.tif,92,0.0666666666666667,0.0666666666666667,1.53333333333333,1335.163200833,1335.450458208,9,1335.227959125,1335.295620625,1335.4670815,1336.993795625,1,0.287257375000081
129,29,5,categorization,0,bathroom,SHINEd_sun_azqyogdvyhahyram.tif,60,0.0666666666666667,0.0666666666666667,1.4,1337.003109083,1337.327782916,9,1337.067882708,1337.135202791,1337.339872958,1338.733266791,0,0.324673832999906
129,30,5,categorization,0,kitchen,SHINEd_sun_aqeaevwwwjoqhzvl.tif,101,0.0666666666666667,0.0666666666666667,1.06666666666667,1338.750485625,1339.115415,9,1338.816605375,1338.883995416,1339.119545166,1340.179596166,1,0.364929374999974
129,31,5,categorization,0,bathroom,SHINEd_sun_acegryoqftbzowsg.tif,17,0.0666666666666667,0.0666666666666667,1.63333333333333,1340.189214166,1340.637475583,13,1340.25440825,1340.320216416,1340.659618708,1342.286323958,1,0.448261416999912
129,32,5,categorization,0,bathroom,SHINEd_sun_amzlamotzwfkwjco.tif,37,0.0666666666666667,0.0666666666666667,1.8,1342.295703791,1342.580216041,9,1342.362389375,1342.428546458,1342.60185575,1344.395227916,0,0.284512250000034
129,33,5,categorization,0,kitchen,SHINEd_sun_aarfiyshqohlwkmo.tif,67,0.0666666666666667,0.0666666666666667,1.53333333333333,1344.405483958,1344.684702791,13,1344.469970083,1344.53771125,1344.710811208,1346.237521041,0,0.279218832999959
129,34,5,categorization,0,bathroom,SHINEd_sun_aqrpegblszgcoujh.tif,48,0.0666666666666667,0.0666666666666667,0.766666666666667,1346.254458375,1346.5307155,13,1346.321492958,1346.386966791,1346.539641583,1347.29964725,1,0.276257125000029
129,35,5,categorization,0,bathroom,SHINEd_sun_alotolagknyrgtsk.tif,35,0.0666666666666667,0.0666666666666667,1.86666666666667,1347.304620583,1348.33055425,13,1347.366287083,1347.427262333,1348.345609708,1350.205662708,1,1.02593366699989
129,36,5,categorization,0,kitchen,SHINEd_sun_avszsnwsbuqfgzbn.tif,105,0.0666666666666667,0.0666666666666667,1.13333333333333,1350.223623291,1350.613384875,9,1350.290165666,1350.356185541,1350.628394875,1351.755121166,1,0.389761584000098
129,37,5,categorization,0,bathroom,SHINEd_sun_apmqjbnwghzuhhzh.tif,46,0.0666666666666667,0.0666666666666667,1.73333333333333,1351.765023708,1352.106251791,13,1351.830060875,1351.897376916,1352.119353791,1353.846059083,1,0.341228083000033
129,38,5,categorization,0,bathroom,SHINEd_sun_ahcvzmoyaycdoftf.tif,27,0.0666666666666667,0.0666666666666667,0.766666666666667,1353.8584765,1354.132081458,9,1353.925284,1353.990926208,1354.146619041,1354.906656333,0,0.273604957999851
129,39,5,categorization,0,kitchen,SHINEd_sun_akchetnepxlcxhsu.tif,98,0.0666666666666667,0.0666666666666667,1.85,1354.923050875,1355.5109225,9,1354.989509208,1355.055255208,1355.528297416,1357.37168675,1,0.587871625000162
129,40,5,categorization,0,bathroom,SHINEd_sun_asfwthctfqerjvxr.tif,49,0.0666666666666667,0.0666666666666667,0.966666666666667,1357.39042975,1357.912311083,13,1357.457497458,1357.5235635,1357.929708333,1358.889712333,1,0.52188133300001
129,41,5,categorization,0,bathroom,SHINEd_sun_awnqiikzaispgmwo.tif,56,0.0666666666666667,0.0666666666666667,1.06666666666667,1358.8946855,1359.243425208,9,1358.956478041,1359.017371625,1359.252638041,1360.31269775,0,0.348739708000039
129,42,5,categorization,0,kitchen,SHINEd_sun_acxkpeoqbwcxfvip.tif,77,0.0666666666666667,0.0666666666666667,1.38333333333333,1360.322685333,1360.6361765,13,1360.387619083,1360.451643416,1360.657885291,1362.034606625,0,0.313491166999938
129,43,5,categorization,0,bathroom,SHINEd_sun_apynckhmoftszqoq.tif,47,0.0666666666666667,0.0666666666666667,0.766666666666667,1362.046952666,1362.586843291,13,1362.113608625,1362.179199125,1362.597858875,1363.357864458,1,0.539890624999998
129,44,5,categorization,0,kitchen,SHINEd_sun_aaxxjlsuzvqlgylf.tif,68,0.0666666666666667,0.0666666666666667,0.866666666666667,1363.362297833,1364.29858725,13,1363.423933875,1363.485052666,1364.303557416,1365.163562708,0,0.936289417000125
129,45,5,categorization,0,bathroom,SHINEd_sun_abapwbhyhkfixyex.tif,14,0.0666666666666667,0.0666666666666667,1.25,1365.168261083,1366.155031916,9,1365.230088958,1365.290893,1366.159397541,1367.402781666,0,0.986770833000037
129,46,5,categorization,0,kitchen,SHINEd_sun_aexklacwqwezaorf.tif,84,0.0666666666666667,0.0666666666666667,1.03333333333333,1367.420687875,1367.862011375,13,1367.487664875,1367.553226458,1367.874899958,1368.901606416,0,0.441323499999953
129,47,5,categorization,0,bathroom,SHINEd_sun_agyqfjcfkdcydepw.tif,25,0.0666666666666667,0.0666666666666667,0.783333333333333,1368.918376875,1369.363316666,9,1368.984402958,1369.050724041,1369.36975325,1370.146425416,0,0.444939791000024
129,48,5,categorization,0,bathroom,SHINEd_sun_aleqenyvunhactkl.tif,32,0.0666666666666667,0.0666666666666667,0.7,1370.150894541,1370.851301041,9,1370.212631291,1370.273555666,1370.858601833,1371.55194,0,0.700406499999872
129,49,5,categorization,0,kitchen,SHINEd_sun_abrcnpqqhmjwekyf.tif,73,0.0666666666666667,0.0666666666666667,1.75,1371.556514541,1372.282816208,9,1371.618135291,1371.679147708,1372.297791708,1374.041162125,1,0.726301666999916
129,50,5,categorization,0,bathroom,SHINEd_sun_ambriybtogmepttm.tif,36,0.0666666666666667,0.0666666666666667,1.36666666666667,1374.058261916,1374.515570541,13,1374.124695708,1374.190553375,1374.529054416,1375.889111416,1,0.457308624999996
129,1,6,categorization,0,bathroom,SHINEd_sun_aofnryafpsjimzsb.tif,40,0.0666666666666667,0.0666666666666667,0.966666666666667,1382.994706041,1383.434289375,9,1383.057112125,1383.117338291,1383.452484458,1384.412488583,0,0.439583333999963
129,2,6,categorization,0,kitchen,SHINEd_sun_awcpdzzznmweyyhv.tif,106,0.0666666666666667,0.0666666666666667,1.73333333333333,1384.417182583,1384.834317708,13,1384.478825458,1384.539865625,1384.841782708,1386.5684935,0,0.417135124999959
129,3,6,categorization,0,kitchen,SHINEd_sun_adgqasybjyktddhj.tif,78,0.0666666666666667,0.0666666666666667,1.91666666666667,1386.586493625,1386.884851666,9,1386.652767083,1386.718990458,1386.90871975,1388.818754958,1,0.298358041000029
129,4,6,categorization,0,bathroom,SHINEd_sun_apkruvsevgegsdwp.tif,44,0.0666666666666667,0.0666666666666667,0.766666666666667,1388.840557291,1389.126561291,13,1388.907497875,1388.973328166,1389.144530125,1389.904587833,1,0.286003999999821
129,5,6,categorization,0,kitchen,SHINEd_sun_auticobqsbwgoppi.tif,104,0.0666666666666667,0.0666666666666667,0.916666666666667,1389.916732166,1390.323207125,13,1389.983109166,1390.04910675,1390.33431075,1391.244314333,0,0.406474958999979
129,6,6,categorization,0,bathroom,SHINEd_sun_aapitsgbtktqubfy.tif,12,0.0666666666666667,0.0666666666666667,1.18333333333333,1391.24903275,1392.46657075,13,1391.310674958,1391.37164725,1392.473610083,1393.650323041,1,1.2175380000001
129,7,6,categorization,0,kitchen,SHINEd_sun_aggjlwcdjsjcaemh.tif,86,0.0666666666666667,0.0666666666666667,1.8,1393.661059125,1393.990555291,9,1393.727891958,1393.793819333,1394.017102708,1395.810494666,1,0.329496165999899
129,8,6,categorization,0,bathroom,SHINEd_sun_agrwbmhcpmfuwmsg.tif,24,0.0666666666666667,0.0666666666666667,0.883333333333333,1395.828150583,1396.157322291,13,1395.894720791,1395.961198458,1396.18460275,1397.061307458,1,0.329171707999876
129,9,6,categorization,0,bathroom,SHINEd_sun_aunuadmjocsddsrl.tif,52,0.0666666666666667,0.0666666666666667,1.83333333333333,1397.074215416,1397.414549416,9,1397.140659666,1397.205113416,1397.4268835,1399.253576291,0,0.340333999999984
129,10,6,categorization,0,bathroom,SHINEd_sun_acduarbnmmoglmiv.tif,16,0.0666666666666667,0.0666666666666667,1.76666666666667,1399.2664515,1399.540152125,9,1399.333090291,1399.398866208,1399.553893708,1401.313931833,0,0.273700625000174
129,11,6,categorization,0,kitchen,SHINEd_sun_aypmqwcualkenuoe.tif,109,0.0666666666666667,0.0666666666666667,0.983333333333333,1401.331846291,1401.742678833,9,1401.399121291,1401.464042583,1401.770841708,1402.747516541,1,0.41083254199998
129,12,6,categorization,0,bathroom,SHINEd_sun_atstyziqcmkahyxk.tif,51,0.0666666666666667,0.0666666666666667,0.883333333333333,1402.752989791,1403.106173041,13,1402.814675666,1402.875664166,1403.110729291,1403.98739925,1,0.353183250000029
129,13,6,categorization,0,kitchen,SHINEd_sun_acwjdupvyjsugpay.tif,76,0.0666666666666667,0.0666666666666667,0.85,1403.991813333,1404.379096541,9,1404.053558916,1404.114473833,1404.382819083,1405.226155625,1,0.387283208000099
129,14,6,categorization,0,bathroom,SHINEd_sun_ahqjwnzgolcaoidx.tif,29,0.0666666666666667,0.0666666666666667,0.733333333333333,1405.230831833,1405.650456375,13,1405.292482375,1405.353371083,1405.6550625,1406.381732625,1,0.419624542000065
129,15,6,categorization,0,kitchen,SHINEd_sun_aamedkxepzlwuxes.tif,65,0.0666666666666667,0.0666666666666667,1.88333333333333,1406.386153208,1407.418276166,13,1406.447883125,1406.508777041,1407.427289583,1409.303989291,0,1.03212295799995
129,16,6,categorization,0,kitchen,SHINEd_sun_agubuxuukhzyzpdp.tif,88,0.0666666666666667,0.0666666666666667,0.816666666666667,1409.323314333,1409.7073025,13,1409.389768416,1409.456243166,1409.729217625,1410.539223291,0,0.38398816699987
129,17,6,categorization,0,kitchen,SHINEd_sun_ahywdevtimnqcsln.tif,94,0.0666666666666667,0.0666666666666667,1.9,1410.544347541,1411.019018083,9,1410.605997291,1410.666960875,1411.035353083,1412.92874775,1,0.474670542000013
129,18,6,categorization,0,bathroom,SHINEd_sun_avhrdrntsqrjzccq.tif,55,0.0666666666666667,0.0666666666666667,0.983333333333333,1412.947056375,1415.419020625,9,1413.013406708,1413.07950375,1415.43183125,1416.408503041,0,2.47196424999993
129,19,6,categorization,0,bathroom,SHINEd_sun_apjevzvycyhuqghb.tif,43,0.0666666666666667,0.0666666666666667,0.75,1416.413179041,1416.762851916,9,1416.474810916,1416.53583075,1416.770798791,1417.514136833,0,0.349672875000124
129,20,6,categorization,0,kitchen,SHINEd_sun_ajcbwwvdlsvjyzje.tif,96,0.0666666666666667,0.0666666666666667,1.6,1417.5187015,1417.866187416,9,1417.580446083,1417.64130275,1417.876409958,1419.469779541,1,0.347485916000096
129,21,6,categorization,0,kitchen,SHINEd_sun_afuyedyxivkhecmu.tif,85,0.0666666666666667,0.0666666666666667,1.58333333333333,1419.4900215,1419.923071625,9,1419.555139916,1419.622623916,1419.945894875,1421.522606541,1,0.433050124999909
129,22,6,categorization,0,kitchen,SHINEd_labelme_rykdqxenmhulbdn.tif,63,0.0666666666666667,0.0666666666666667,1.11666666666667,1421.540059166,1421.919748375,13,1421.606671125,1421.672492791,1421.945068833,1423.055108625,0,0.379689208999935
129,23,6,categorization,0,kitchen,SHINEd_sun_auaiucuqpdausiva.tif,102,0.0666666666666667,0.0666666666666667,1.53333333333333,1423.073136958,1423.530581333,13,1423.135694041,1423.195926833,1423.547843791,1425.074546541,0,0.457444375000023
129,24,6,categorization,0,bathroom,SHINEd_sun_auzqhkafidnkrwmo.tif,54,0.0666666666666667,0.0666666666666667,1.48333333333333,1425.091369333,1426.667076958,13,1425.156542166,1425.222032833,1426.674501083,1428.15122075,1,1.57570762499995
129,25,6,categorization,0,bathroom,SHINEd_sun_alkosphxlxwjwgjd.tif,34,0.0666666666666667,0.0666666666666667,1.1,1428.16849025,1428.802503875,13,1428.236044708,1428.301047333,1428.824799,1429.918179208,1,0.634013624999852
129,26,6,categorization,0,kitchen,SHINEd_labelme_brsyyvweiuaazfr.tif,61,0.0666666666666667,0.0666666666666667,0.933333333333333,1429.927711916,1430.5826315,9,1429.992741541,1430.060063333,1430.599399166,1431.52611425,1,0.654919584000027
129,27,6,categorization,0,kitchen,SHINEd_sun_ahljzhgcdpomplvg.tif,91,0.0666666666666667,0.0666666666666667,0.816666666666667,1431.541763958,1431.979056583,9,1431.608751791,1431.67345625,1431.992663833,1432.802667541,1,0.437292625000055
129,28,6,categorization,0,bathroom,SHINEd_sun_aghyqhbptboemmoq.tif,23,0.0666666666666667,0.0666666666666667,1.78333333333333,1432.807646708,1433.7229595,13,1432.869354958,1432.930201583,1433.731965541,1435.508672666,1,0.915312791999895
129,29,6,categorization,0,bathroom,SHINEd_sun_abjtwfukuwddzted.tif,15,0.0666666666666667,0.0666666666666667,0.766666666666667,1435.525465833,1436.250292833,13,1435.592160166,1435.658442125,1436.264905375,1437.024914333,1,0.724827000000005
129,30,6,categorization,0,kitchen,SHINEd_sun_aadbddgrdsjugojn.tif,64,0.0666666666666667,0.0666666666666667,1.45,1437.029813875,1437.627000833,9,1437.091452958,1437.152375916,1437.637513125,1439.0809065,1,0.597186958000066
129,31,6,categorization,0,bathroom,SHINEd_sun_axxbkopsgyouuebh.tif,58,0.0666666666666667,0.0666666666666667,0.75,1439.097572666,1439.568016083,9,1439.161998791,1439.228401833,1439.583945875,1440.3273135,0,0.47044341700007
129,32,6,categorization,0,bathroom,SHINEd_sun_axyrejkiiaqiurjk.tif,59,0.0666666666666667,0.0666666666666667,1.36666666666667,1440.341740333,1441.082196666,9,1440.408548625,1440.474219375,1441.093303958,1442.453363166,0,0.740456333000111
129,33,6,categorization,0,bathroom,SHINEd_sun_ajlawzvmubibwbpy.tif,30,0.0666666666666667,0.0666666666666667,0.75,1442.474310583,1443.250141916,9,1442.541231291,1442.607553166,1443.262155958,1444.005521916,0,0.775831333000042
129,34,6,categorization,0,kitchen,SHINEd_sun_aegoxogugdkwpmpj.tif,80,0.0666666666666667,0.0666666666666667,0.783333333333333,1444.023093708,1444.618041333,9,1444.090028416,1444.155532083,1444.624032708,1445.400703125,1,0.594947625000032
129,35,6,categorization,0,kitchen,SHINEd_sun_abdxkyyxwfskuaqb.tif,70,0.0666666666666667,0.0666666666666667,1.11666666666667,1445.405543875,1445.930922416,9,1445.467252208,1445.528156583,1445.946753333,1447.0567965,1,0.525378541000009
129,36,6,categorization,0,bathroom,SHINEd_sun_aggnnqpdorgxpvce.tif,21,0.0666666666666667,0.0666666666666667,0.766666666666667,1447.065037791,1447.882685458,13,1447.129681958,1447.1954175,1447.901478291,1448.661514833,1,0.817647667000074
129,37,6,categorization,0,kitchen,SHINEd_sun_agzzivivdpnawacl.tif,89,0.0666666666666667,0.0666666666666667,0.716666666666667,1448.677666041,1449.314238958,9,1448.744205125,1448.809741125,1449.328261541,1450.038267708,1,0.636572916999967
129,38,6,categorization,0,kitchen,SHINEd_sun_agorklincwxrdtga.tif,87,0.0666666666666667,0.0666666666666667,1.33333333333333,1450.04291175,1450.738875208,9,1450.104617916,1450.165497833,1450.750650875,1452.077352166,1,0.695963458000051
129,39,6,categorization,0,kitchen,SHINEd_sun_acfmftudsenhrfhy.tif,74,0.0666666666666667,0.0666666666666667,1.75,1452.095244041,1452.692636666,9,1452.16241175,1452.228064041,1452.718264708,1454.461656375,1,0.597392625000111
129,40,6,categorization,0,bathroom,SHINEd_sun_anryaplzeujmzfkd.tif,39,0.0666666666666667,0.0666666666666667,1.13333333333333,1454.479046541,1455.048338541,9,1454.54524375,1454.611560583,1455.067946208,1456.194652,0,0.569292000000132
129,41,6,categorization,0,kitchen,SHINEd_sun_admlmbcdswaszruo.tif,79,0.0666666666666667,0.0666666666666667,1.63333333333333,1456.20468375,1456.8704565,9,1456.269612375,1456.336996375,1456.893551083,1458.520252583,1,0.665772750000087
129,42,6,categorization,0,kitchen,SHINEd_sun_abftihopvusyfakt.tif,71,0.0666666666666667,0.0666666666666667,1.43333333333333,1458.537296125,1459.058035833,9,1458.602807791,1458.670063416,1459.074949,1460.501660208,1,0.520739708000065
129,43,6,categorization,0,kitchen,SHINEd_sun_aunzlwrbjumxhwdj.tif,103,0.0666666666666667,0.0666666666666667,1.83333333333333,1460.516263666,1461.34993525,9,1460.582638708,1460.648801291,1461.372469958,1463.19919125,1,0.833671584000058
129,44,6,categorization,0,kitchen,SHINEd_sun_azmutvzbxypaceni.tif,110,0.0666666666666667,0.0666666666666667,1.93333333333333,1463.209107291,1463.982177041,13,1463.274517583,1463.341648083,1463.997532208,1465.924234833,0,0.773069750000104
129,45,6,categorization,0,kitchen,SHINEd_sun_axyyrmzcupyhlivc.tif,107,0.0666666666666667,0.0666666666666667,1.26666666666667,1465.941180583,1466.438873833,9,1466.008307333,1466.073551041,1466.463575833,1467.723616583,1,0.497693249999884
129,46,6,categorization,0,kitchen,SHINEd_sun_aixorpehvfykdynp.tif,95,0.0666666666666667,0.0666666666666667,1.86666666666667,1467.738369958,1468.24764625,9,1467.805766583,1467.87092175,1468.277750083,1470.137803875,1,0.509276291999868
129,47,6,categorization,0,kitchen,SHINEd_sun_aymvwlarqodbwuoc.tif,108,0.0666666666666667,0.0666666666666667,1.41666666666667,1470.156486208,1470.867938333,9,1470.222918666,1470.288835041,1470.895778625,1472.305834916,1,0.711452125000051
129,48,6,categorization,0,kitchen,SHINEd_sun_aenotlpyftoioydp.tif,82,0.0666666666666667,0.0666666666666667,1.11666666666667,1472.32186175,1472.956949333,13,1472.3894735,1472.454547458,1472.977600791,1474.087649958,0,0.635087583000086
129,49,6,categorization,0,kitchen,SHINEd_sun_aeqdocilnnpuvuhx.tif,83,0.0666666666666667,0.0666666666666667,1.8,1474.09870775,1474.597036166,9,1474.165513458,1474.231821416,1474.622173875,1476.415559833,1,0.498328416000049
129,50,6,categorization,0,bathroom,SHINEd_sun_apkxzenqapsujocq.tif,45,0.0666666666666667,0.0666666666666667,1.25,1476.43552925,1476.901552208,9,1476.501972333,1476.567723875,1476.924767458,1478.168138041,0,0.466022958000167
129,1,7,categorization,0,kitchen,SHINEd_sun_aunzlwrbjumxhwdj.tif,103,0.0666666666666667,0.0666666666666667,0.883333333333333,1574.349400125,1574.738489166,9,1574.411980875,1574.472330291,1574.757523541,1575.634193958,1,0.389089040999806
129,2,7,categorization,0,bathroom,SHINEd_sun_ajlawzvmubibwbpy.tif,30,0.0666666666666667,0.0666666666666667,1.03333333333333,1575.638944208,1576.146369208,9,1575.700587416,1575.761520708,1576.163216,1577.189924125,0,0.507424999999785
129,3,7,categorization,0,kitchen,SHINEd_labelme_kxvouciolcpqplr.tif,62,0.0666666666666667,0.0666666666666667,1.06666666666667,1577.197973583,1577.654909083,13,1577.261927,1577.327485375,1577.683812333,1578.74384475,0,0.456935499999872
129,4,7,categorization,0,kitchen,SHINEd_sun_avszsnwsbuqfgzbn.tif,105,0.0666666666666667,0.0666666666666667,0.833333333333333,1578.758385583,1579.273813666,9,1578.823796333,1578.889700958,1579.291537416,1580.118208833,1,0.515428082999961
129,5,7,categorization,0,bathroom,SHINEd_sun_axxbkopsgyouuebh.tif,58,0.0666666666666667,0.0666666666666667,0.716666666666667,1580.123856916,1580.6421135,13,1580.185566375,1580.246414166,1580.648187041,1581.358191125,1,0.518256584000028
129,6,7,categorization,0,kitchen,SHINEd_sun_amjjdeyrggfqgmom.tif,100,0.0666666666666667,0.0666666666666667,0.733333333333333,1581.3628165,1581.841880708,13,1581.424428,1581.485506625,1581.853834208,1582.580506,0,0.479064207999954
129,7,7,categorization,0,bathroom,SHINEd_sun_amzlamotzwfkwjco.tif,37,0.0666666666666667,0.0666666666666667,1.38333333333333,1582.5850055,1583.473773458,9,1582.646640666,1582.7076025,1583.492721208,1584.869423875,0,0.888767958000017
129,8,7,categorization,0,kitchen,SHINEd_sun_abdxkyyxwfskuaqb.tif,70,0.0666666666666667,0.0666666666666667,0.9,1584.8908285,1585.24388175,13,1584.958723291,1585.023419458,1585.261813458,1586.15520325,0,0.353053249999903
129,9,7,categorization,0,kitchen,SHINEd_sun_ajcbwwvdlsvjyzje.tif,96,0.0666666666666667,0.0666666666666667,0.816666666666667,1586.172748958,1586.929595916,9,1586.239514458,1586.304882625,1586.94065925,1587.750665208,1,0.756846957999869
129,10,7,categorization,0,kitchen,SHINEd_sun_acgtpgfybqjmzeyw.tif,75,0.0666666666666667,0.0666666666666667,0.85,1587.755572666,1588.298190833,9,1587.817317666,1587.878437083,1588.313461166,1589.15680025,1,0.542618167000001
129,11,7,categorization,0,kitchen,SHINEd_sun_adgqasybjyktddhj.tif,78,0.0666666666666667,0.0666666666666667,1.6,1589.161359583,1589.809617,9,1589.223004666,1589.284002666,1589.819324291,1591.412696916,1,0.648257416999968
129,12,7,categorization,0,bathroom,SHINEd_sun_apmqjbnwghzuhhzh.tif,46,0.0666666666666667,0.0666666666666667,1.75,1591.427866916,1591.843302375,13,1591.492259708,1591.559371375,1591.865985166,1593.609370083,1,0.415435458999809
129,13,7,categorization,0,bathroom,SHINEd_sun_ausgutylgojavyoq.tif,53,0.0666666666666667,0.0666666666666667,1.1,1593.626507125,1593.941322208,9,1593.693091666,1593.758478583,1593.965570875,1595.058922625,0,0.314815082999985
129,14,7,categorization,0,kitchen,SHINEd_sun_aeqdocilnnpuvuhx.tif,83,0.0666666666666667,0.0666666666666667,1.46666666666667,1595.064786083,1595.434069958,13,1595.126501541,1595.187464333,1595.439379666,1596.899439458,0,0.369283875000065
129,15,7,categorization,0,kitchen,SHINEd_sun_agorklincwxrdtga.tif,87,0.0666666666666667,0.0666666666666667,1.25,1596.916265958,1597.268369083,13,1596.982459916,1597.048560125,1597.287497833,1598.530879958,0,0.352103124999985
129,16,7,categorization,0,bathroom,SHINEd_sun_aqrpegblszgcoujh.tif,48,0.0666666666666667,0.0666666666666667,1.13333333333333,1598.54758725,1599.134040791,9,1598.613860333,1598.680060083,1599.150915666,1600.27763175,0,0.586453540999855
129,17,7,categorization,0,kitchen,SHINEd_sun_aapllqyqlykszopd.tif,66,0.0666666666666667,0.0666666666666667,1.33333333333333,1600.294734,1600.970218083,9,1600.361095041,1600.426685041,1600.978950458,1602.305678166,1,0.675484082999901
129,18,7,categorization,0,bathroom,SHINEd_sun_anryaplzeujmzfkd.tif,39,0.0666666666666667,0.0666666666666667,1.86666666666667,1602.322746583,1603.50339175,9,1602.389338333,1602.454954833,1603.529255541,1605.389302583,0,1.18064516699997
129,19,7,categorization,0,bathroom,SHINEd_sun_abjtwfukuwddzted.tif,15,0.0666666666666667,0.0666666666666667,1.58333333333333,1605.401957125,1606.110063125,13,1605.468586208,1605.534459125,1606.123823625,1607.700525166,1,0.708105999999816
129,20,7,categorization,0,kitchen,SHINEd_sun_akcjzhbbjlbogpdi.tif,99,0.0666666666666667,0.0666666666666667,1.05,1607.718180458,1608.345264416,9,1607.784893208,1607.850734125,1608.374111041,1609.417482291,1,0.627083957999957
129,21,7,categorization,0,kitchen,SHINEd_sun_aenotlpyftoioydp.tif,82,0.0666666666666667,0.0666666666666667,0.9,1609.425565625,1610.021180875,9,1609.489830583,1609.5563215,1610.045529083,1610.938921708,1,0.595615250000037
129,22,7,categorization,0,kitchen,SHINEd_sun_ahljzhgcdpomplvg.tif,91,0.0666666666666667,0.0666666666666667,0.7,1610.952741,1611.569620333,9,1611.019929166,1611.085229416,1611.587578416,1612.280916125,1,0.616879333000043
129,23,7,categorization,0,bathroom,SHINEd_sun_awnqiikzaispgmwo.tif,56,0.0666666666666667,0.0666666666666667,0.933333333333333,1612.28754325,1613.057347208,13,1612.349272875,1612.410139916,1613.06180675,1613.988478541,1,0.769803958000011
129,24,7,categorization,0,kitchen,SHINEd_sun_aqeaevwwwjoqhzvl.tif,101,0.0666666666666667,0.0666666666666667,1.95,1613.993126208,1614.577768833,9,1614.0547315,1614.115775166,1614.584292333,1616.527668166,1,0.584642625000015
129,25,7,categorization,0,bathroom,SHINEd_sun_aapitsgbtktqubfy.tif,12,0.0666666666666667,0.0666666666666667,1.06666666666667,1616.544762958,1617.028807333,9,1616.611284041,1616.677536416,1617.050552666,1618.110611,0,0.484044374999939
129,26,7,categorization,0,kitchen,SHINEd_sun_abpwyqmlzafvklqo.tif,72,0.0666666666666667,0.0666666666666667,1.2,1618.119678541,1618.860422625,9,1618.18408125,1618.248474333,1618.888499916,1620.081889208,1,0.740744083999971
129,27,7,categorization,0,bathroom,SHINEd_sun_aoybiabnpadelefl.tif,41,0.0666666666666667,0.0666666666666667,0.75,1620.099741375,1620.905675458,13,1620.162178708,1620.222378416,1620.92418675,1621.667523958,1,0.805934083000011
129,28,7,categorization,0,kitchen,SHINEd_sun_afuyedyxivkhecmu.tif,85,0.0666666666666667,0.0666666666666667,0.816666666666667,1621.672122208,1622.602069666,9,1621.733794125,1621.7946605,1622.613109291,1623.423114708,1,0.929947458000015
129,29,7,categorization,0,bathroom,SHINEd_sun_aggnnqpdorgxpvce.tif,21,0.0666666666666667,0.0666666666666667,1.96666666666667,1623.427796916,1624.185628291,13,1623.489526666,1623.55038775,1624.20241925,1626.16247975,1,0.757831375000023
129,30,7,categorization,0,kitchen,SHINEd_sun_aaxxjlsuzvqlgylf.tif,68,0.0666666666666667,0.0666666666666667,1.2,1626.179580291,1626.874178625,13,1626.246056916,1626.312231583,1626.902005375,1628.095385041,0,0.69459833399992
129,31,7,categorization,0,bathroom,SHINEd_sun_aunuadmjocsddsrl.tif,52,0.0666666666666667,0.0666666666666667,0.883333333333333,1628.114177875,1628.798665375,13,1628.180644916,1628.246337583,1628.819796583,1629.696513666,1,0.684487499999932
129,32,7,categorization,0,bathroom,SHINEd_sun_afcoljnjfoxjtgja.tif,20,0.0666666666666667,0.0666666666666667,1.33333333333333,1629.713756875,1630.337602916,9,1629.780352333,1629.845990916,1630.347994166,1631.674707,0,0.623846040999979
129,33,7,categorization,0,kitchen,SHINEd_sun_axyyrmzcupyhlivc.tif,107,0.0666666666666667,0.0666666666666667,1.45,1631.691187375,1632.393824,13,1631.757772625,1631.823504333,1632.413002875,1633.856389958,0,0.702636624999968
129,34,7,categorization,0,kitchen,SHINEd_sun_aehawpgmrlhlvcow.tif,81,0.0666666666666667,0.0666666666666667,1.15,1633.873125958,1634.593728125,13,1633.940255708,1634.005325208,1634.611416333,1635.754784625,0,0.720602167000152
129,35,7,categorization,0,kitchen,SHINEd_sun_acwjdupvyjsugpay.tif,76,0.0666666666666667,0.0666666666666667,0.966666666666667,1635.772231333,1636.468571791,9,1635.838994208,1635.904673458,1636.49437,1637.45442225,1,0.696340457999895
129,36,7,categorization,0,kitchen,SHINEd_sun_awcpdzzznmweyyhv.tif,106,0.0666666666666667,0.0666666666666667,1.45,1637.4723895,1638.31365925,13,1637.539055333,1637.604553208,1638.323179791,1639.766564916,0,0.841269750000038
129,37,7,categorization,0,bathroom,SHINEd_sun_axyrejkiiaqiurjk.tif,59,0.0666666666666667,0.0666666666666667,0.8,1639.783651583,1640.501235583,9,1639.850403458,1639.915782,1640.522864083,1641.316242291,0,0.717583999999988
129,38,7,categorization,0,kitchen,SHINEd_sun_abftihopvusyfakt.tif,71,0.0666666666666667,0.0666666666666667,1.45,1641.332767833,1642.170189208,13,1641.395702541,1641.455587291,1642.173969625,1643.617360083,0,0.837421375000076
129,39,7,categorization,0,bathroom,SHINEd_sun_ahijqszoswveeyji.tif,28,0.0666666666666667,0.0666666666666667,1.1,1643.629525791,1644.300536375,13,1643.696205958,1643.762025583,1644.317956375,1645.411330541,1,0.671010583999987
129,40,7,categorization,0,kitchen,SHINEd_sun_auaiucuqpdausiva.tif,102,0.0666666666666667,0.0666666666666667,1.16666666666667,1645.42126925,1646.258620916,13,1645.487715791,1645.55402225,1646.277039875,1647.437051791,0,0.837351665999904
129,41,7,categorization,0,kitchen,SHINEd_sun_ahywdevtimnqcsln.tif,94,0.0666666666666667,0.0666666666666667,1.31666666666667,1647.44522525,1648.116350041,9,1647.510038166,1647.577440125,1648.132831875,1649.44286875,1,0.671124791000011
129,42,7,categorization,0,kitchen,SHINEd_sun_abdenxonkemggwsq.tif,69,0.0666666666666667,0.0666666666666667,1.68333333333333,1649.460281916,1650.185844958,9,1649.526764541,1649.586200625,1650.204982875,1651.881684958,1,0.725563041999976
129,43,7,categorization,0,kitchen,SHINEd_sun_acfmftudsenhrfhy.tif,74,0.0666666666666667,0.0666666666666667,0.966666666666667,1651.893884708,1652.458781125,13,1651.960425291,1652.026250041,1652.482979083,1653.442982958,0,0.564896417
129,44,7,categorization,0,bathroom,SHINEd_sun_agrwbmhcpmfuwmsg.tif,24,0.0666666666666667,0.0666666666666667,1.4,1653.447818333,1653.945646208,13,1653.509476625,1653.570469791,1653.955489375,1655.348871875,1,0.497827874999984
129,45,7,categorization,0,kitchen,SHINEd_sun_agzzivivdpnawacl.tif,89,0.0666666666666667,0.0666666666666667,0.783333333333333,1655.363568958,1655.996600958,9,1655.430216291,1655.496123708,1656.018815125,1656.795524166,1,0.633031999999957
129,46,7,categorization,0,bathroom,SHINEd_sun_auzqhkafidnkrwmo.tif,54,0.0666666666666667,0.0666666666666667,1.08333333333333,1656.811287166,1657.425323458,9,1656.877860958,1656.94355225,1657.428570708,1658.505285333,0,0.614036292000037
129,47,7,categorization,0,kitchen,SHINEd_sun_aexklacwqwezaorf.tif,84,0.0666666666666667,0.0666666666666667,1.43333333333333,1658.513783541,1659.005845666,9,1658.578039375,1658.645447041,1659.035200666,1660.461921833,1,0.492062124999848
129,48,7,categorization,0,kitchen,SHINEd_sun_agubuxuukhzyzpdp.tif,88,0.0666666666666667,0.0666666666666667,1.75,1660.479978875,1660.970108083,9,1660.542743958,1660.602816666,1660.987879041,1662.73124875,1,0.490129208000099
129,49,7,categorization,0,bathroom,SHINEd_sun_agyqfjcfkdcydepw.tif,25,0.0666666666666667,0.0666666666666667,1.21666666666667,1662.747827833,1663.250299208,9,1662.814768375,1662.880682291,1663.269587708,1664.479625166,0,0.502471374999914
129,50,7,categorization,0,kitchen,SHINEd_sun_aypmqwcualkenuoe.tif,109,0.0666666666666667,0.0666666666666667,1.31666666666667,1664.495706458,1665.05748525,9,1664.559928,1664.628226208,1665.084502916,1666.394545583,1,0.561778791999814
129,1,8,categorization,0,kitchen,SHINEd_sun_auticobqsbwgoppi.tif,104,0.0666666666666667,0.0666666666666667,1.18333333333333,1671.889353125,1672.681502666,9,1671.951880125,1672.012059708,1672.69725975,1673.873970125,1,0.792149540999844
129,2,8,categorization,0,bathroom,SHINEd_sun_abapwbhyhkfixyex.tif,14,0.0666666666666667,0.0666666666666667,0.983333333333333,1673.883585208,1674.411518666,9,1673.9500995,1674.016105125,1674.438987875,1675.41569725,0,0.527933457999779
129,3,8,categorization,0,kitchen,SHINEd_sun_ahspylgoovwmwvgk.tif,93,0.0666666666666667,0.0666666666666667,1.65,1675.432235416,1676.097622166,9,1675.498713125,1675.564652583,1676.116670958,1677.76005975,1,0.665386750000152
129,4,8,categorization,0,kitchen,SHINEd_sun_acxkpeoqbwcxfvip.tif,77,0.0666666666666667,0.0666666666666667,1.23333333333333,1677.777712208,1678.702122416,9,1677.844594583,1677.910055791,1678.715371875,1679.942095416,1,0.924410208000154
129,5,8,categorization,0,kitchen,SHINEd_sun_ahpczsiumwwocjkv.tif,92,0.0666666666666667,0.0666666666666667,0.916666666666667,1679.958515666,1681.156338833,9,1680.025197833,1680.091022708,1681.179612333,1682.089619666,1,1.19782316700002
129,6,8,categorization,0,bathroom,SHINEd_labelme_sfxiulhjbhlyiyt.tif,11,0.0666666666666667,0.0666666666666667,1.56666666666667,1682.094452666,1682.641973708,9,1682.156225333,1682.21707375,1682.652127375,1684.212172416,0,0.547521041999971
129,7,8,categorization,0,bathroom,SHINEd_sun_atstyziqcmkahyxk.tif,51,0.0666666666666667,0.0666666666666667,1.63333333333333,1684.229736625,1684.997047875,13,1684.296429,1684.36217725,1685.018714708,1686.64542325,1,0.767311249999921
129,8,8,categorization,0,bathroom,SHINEd_sun_akiytfaagpdsphgz.tif,31,0.0666666666666667,0.0666666666666667,1.1,1686.66236175,1687.308707041,13,1686.729062041,1686.794976166,1687.334755875,1688.428121541,1,0.646345290999989
129,9,8,categorization,0,bathroom,SHINEd_sun_aghyqhbptboemmoq.tif,23,0.0666666666666667,0.0666666666666667,1.38333333333333,1688.437107666,1689.046806375,13,1688.502159416,1688.569423166,1689.076110958,1690.452840958,1,0.609698708999986
129,10,8,categorization,0,bathroom,SHINEd_sun_aclfzgynxzxlbepz.tif,19,0.0666666666666667,0.0666666666666667,0.766666666666667,1690.463297125,1691.085466666,13,1690.528096416,1690.595946208,1691.102366916,1691.862407666,1,0.622169540999948
129,11,8,categorization,0,bathroom,SHINEd_sun_apeeialkgkuxddgh.tif,42,0.0666666666666667,0.0666666666666667,1.45,1691.8788555,1692.562654083,13,1691.945784875,1692.011376625,1692.580796125,1694.024168416,1,0.683798582999998
129,12,8,categorization,0,kitchen,SHINEd_sun_aadbddgrdsjugojn.tif,64,0.0666666666666667,0.0666666666666667,0.983333333333333,1694.041147,1694.809771833,13,1694.107874375,1694.173721416,1694.830559041,1695.807233166,0,0.768624833000104
129,13,8,categorization,0,bathroom,SHINEd_sun_agguqiubmwhqqunb.tif,22,0.0666666666666667,0.0666666666666667,0.716666666666667,1695.8123925,1696.449802875,9,1695.874175291,1695.935027333,1696.453475458,1697.163479958,0,0.637410374999945
129,14,8,categorization,0,bathroom,SHINEd_sun_aofnryafpsjimzsb.tif,40,0.0666666666666667,0.0666666666666667,1.41666666666667,1697.168151166,1697.962013541,9,1697.229946708,1697.290777,1697.975911041,1699.385945875,0,0.793862375000117
129,15,8,categorization,0,bathroom,SHINEd_sun_aspsyogrekjtfozg.tif,50,0.0666666666666667,0.0666666666666667,1.21666666666667,1699.402764791,1700.215206375,9,1699.469389166,1699.535419625,1700.242030958,1701.452079583,0,0.812441583999998
129,16,8,categorization,0,bathroom,SHINEd_sun_apjevzvycyhuqghb.tif,43,0.0666666666666667,0.0666666666666667,1.61666666666667,1701.466660625,1702.269699416,9,1701.533337583,1701.598816625,1702.288437083,1703.898480208,0,0.803038791000063
129,17,8,categorization,0,bathroom,SHINEd_sun_asfwthctfqerjvxr.tif,49,0.0666666666666667,0.0666666666666667,0.783333333333333,1703.915091291,1704.474575208,9,1703.981446291,1704.047676208,1704.504222208,1705.280943291,0,0.55948391700008
129,18,8,categorization,0,kitchen,SHINEd_sun_akchetnepxlcxhsu.tif,98,0.0666666666666667,0.0666666666666667,1.98333333333333,1705.2912115,1705.865075958,13,1705.357655666,1705.415817875,1705.884372541,1707.861070083,0,0.573864458000116
129,19,8,categorization,0,bathroom,SHINEd_sun_avhrdrntsqrjzccq.tif,55,0.0666666666666667,0.0666666666666667,0.983333333333333,1707.877406666,1709.009607791,13,1707.943872458,1708.009718375,1709.02869575,1710.005367041,1,1.13220112499994
129,20,8,categorization,0,kitchen,SHINEd_labelme_rykdqxenmhulbdn.tif,63,0.0666666666666667,0.0666666666666667,0.8,1710.009761583,1710.881591166,9,1710.071419875,1710.132373291,1710.9009175,1711.694254791,1,0.871829582999908
129,21,8,categorization,0,kitchen,SHINEd_sun_aymvwlarqodbwuoc.tif,108,0.0666666666666667,0.0666666666666667,0.733333333333333,1711.698963416,1712.314043541,9,1711.760564666,1711.821592458,1712.323383666,1713.050055,1,0.615080125000077
129,22,8,categorization,0,bathroom,SHINEd_sun_ahaulkltgpkeeemi.tif,26,0.0666666666666667,0.0666666666666667,0.966666666666667,1713.054660041,1713.777434375,9,1713.116234416,1713.177232416,1713.796046375,1714.756051708,0,0.722774333999951
129,23,8,categorization,0,bathroom,SHINEd_sun_apkxzenqapsujocq.tif,45,0.0666666666666667,0.0666666666666667,0.866666666666667,1714.760763833,1715.673541666,13,1714.822344583,1714.883380333,1715.685113333,1716.545117583,1,0.912777832999836
129,24,8,categorization,0,kitchen,SHINEd_sun_aamedkxepzlwuxes.tif,65,0.0666666666666667,0.0666666666666667,1.23333333333333,1716.549840041,1717.545376666,9,1716.611467583,1716.672336,1717.557583333,1718.784287208,1,0.995536625000113
129,25,8,categorization,0,bathroom,SHINEd_sun_acgyywnybuveqsro.tif,18,0.0666666666666667,0.0666666666666667,1.9,1718.8021375,1719.573190291,9,1718.868659666,1718.934548375,1719.59070925,1721.484082958,0,0.771052790999875
129,26,8,categorization,0,bathroom,SHINEd_sun_aljolscmmzydegqp.tif,33,0.0666666666666667,0.0666666666666667,0.866666666666667,1721.500942041,1722.195581166,9,1721.567435625,1721.633381,1722.223495291,1723.083504,0,0.694639125000094
129,27,8,categorization,0,bathroom,SHINEd_sun_anhioqovhscjqqwb.tif,38,0.0666666666666667,0.0666666666666667,0.966666666666667,1723.088261708,1723.857366208,13,1723.14990675,1723.210841583,1723.8625735,1724.822576916,1,0.76910450000014
129,28,8,categorization,0,bathroom,SHINEd_sun_acegryoqftbzowsg.tif,17,0.0666666666666667,0.0666666666666667,0.916666666666667,1724.827196291,1725.89786525,9,1724.888792416,1724.949744125,1725.902020958,1726.812024208,0,1.07066895899993
129,29,8,categorization,0,bathroom,SHINEd_sun_ahcvzmoyaycdoftf.tif,27,0.0666666666666667,0.0666666666666667,0.916666666666667,1726.817229083,1727.481885083,13,1726.878906875,1726.939861375,1727.491711375,1728.401716541,1,0.664655999999923
129,30,8,categorization,0,bathroom,SHINEd_sun_aleqenyvunhactkl.tif,32,0.0666666666666667,0.0666666666666667,1.4,1728.40638475,1729.153463458,13,1728.468019083,1728.528949875,1729.164034708,1730.557409208,1,0.747078708000117
129,31,8,categorization,0,kitchen,SHINEd_sun_abrcnpqqhmjwekyf.tif,73,0.0666666666666667,0.0666666666666667,1.75,1730.573830125,1731.235324333,9,1730.640521083,1730.706594041,1731.243671958,1732.987042291,1,0.661494208000022
129,32,8,categorization,0,kitchen,SHINEd_sun_azmutvzbxypaceni.tif,110,0.0666666666666667,0.0666666666666667,1.25,1733.005159375,1733.880873916,9,1733.071871333,1733.1374895,1733.910700375,1735.154095625,1,0.875714540999979
129,33,8,categorization,0,bathroom,SHINEd_sun_alotolagknyrgtsk.tif,35,0.0666666666666667,0.0666666666666667,1.05,1735.16325875,1735.771653666,9,1735.22816675,1735.293907208,1735.781901166,1736.8252815,0,0.608394915999952
129,34,8,categorization,0,bathroom,SHINEd_sun_ambriybtogmepttm.tif,36,0.0666666666666667,0.0666666666666667,1.06666666666667,1736.840592291,1737.409084375,9,1736.907242416,1736.972622041,1737.424565875,1738.484617333,0,0.568492084000127
129,35,8,categorization,0,kitchen,SHINEd_sun_ajkqhtgcbgpcwrwn.tif,97,0.0666666666666667,0.0666666666666667,1.21666666666667,1738.492694958,1739.086376666,9,1738.556995166,1738.623628958,1739.1133405,1740.323389041,1,0.593681708000076
129,36,8,categorization,0,kitchen,SHINEd_sun_aixorpehvfykdynp.tif,95,0.0666666666666667,0.0666666666666667,0.95,1740.340286041,1740.977013875,9,1740.406750125,1740.472421708,1740.99139825,1741.934735916,1,0.636727834000112
129,37,8,categorization,0,bathroom,SHINEd_sun_acduarbnmmoglmiv.tif,16,0.0666666666666667,0.0666666666666667,0.9,1741.939426833,1742.897887875,13,1742.001231333,1742.062085625,1742.914085458,1743.807422708,1,0.958461041999954
129,38,8,categorization,0,bathroom,SHINEd_sun_apkruvsevgegsdwp.tif,44,0.0666666666666667,0.0666666666666667,1.78333333333333,1743.81280775,1744.553562791,13,1743.874557708,1743.935437583,1744.570521708,1746.3472265,1,0.740755041000057
129,39,8,categorization,0,bathroom,SHINEd_sun_azqyogdvyhahyram.tif,60,0.0666666666666667,0.0666666666666667,1.16666666666667,1746.364927041,1746.955241583,9,1746.432128875,1746.49754,1746.970522458,1748.130577916,0,0.590314541999987
129,40,8,categorization,0,kitchen,SHINEd_sun_aggjlwcdjsjcaemh.tif,86,0.0666666666666667,0.0666666666666667,0.783333333333333,1748.141365041,1749.268301125,9,1748.208208958,1748.274230916,1749.278752291,1750.055467541,1,1.12693608400014
129,41,8,categorization,0,bathroom,SHINEd_sun_apynckhmoftszqoq.tif,47,0.0666666666666667,0.0666666666666667,1.23333333333333,1750.071192625,1752.649018708,13,1750.133776458,1750.193882375,1752.663018458,1753.889719791,1,2.57782608299999
129,42,8,categorization,0,kitchen,SHINEd_sun_ahdycvpopffkzzsu.tif,90,0.0666666666666667,0.0666666666666667,0.9,1753.906283916,1754.7312745,9,1753.973197208,1754.038804458,1754.744237166,1755.637604541,1,0.824990584000034
129,43,8,categorization,0,kitchen,SHINEd_sun_aarfiyshqohlwkmo.tif,67,0.0666666666666667,0.0666666666666667,0.7,1755.655015291,1756.025562458,13,1755.721584333,1755.779140208,1756.030865208,1756.724202625,0,0.370547167000041
129,44,8,categorization,0,kitchen,SHINEd_sun_aegoxogugdkwpmpj.tif,80,0.0666666666666667,0.0666666666666667,1.23333333333333,1756.728627375,1757.353454208,13,1756.790312625,1756.851355416,1757.369838166,1758.596560291,0,0.624826832999815
129,45,8,categorization,0,kitchen,SHINEd_sun_admlmbcdswaszruo.tif,79,0.0666666666666667,0.0666666666666667,1,1758.613102208,1759.212675041,9,1758.679435208,1758.74527125,1759.233641666,1760.227018208,1,0.599572832999911
129,46,8,categorization,0,kitchen,SHINEd_labelme_brsyyvweiuaazfr.tif,61,0.0666666666666667,0.0666666666666667,1.38333333333333,1760.242597625,1760.849332416,9,1760.309222458,1760.374919708,1760.860880833,1762.237599333,1,0.606734791000008
129,47,8,categorization,0,bathroom,SHINEd_sun_axldvoqbuvuggfmq.tif,57,0.0666666666666667,0.0666666666666667,1.3,1762.25503475,1762.933346041,9,1762.321300041,1762.387805875,1762.960948375,1764.254331666,0,0.678311291
129,48,8,categorization,0,bathroom,SHINEd_sun_ahqjwnzgolcaoidx.tif,29,0.0666666666666667,0.0666666666666667,0.833333333333333,1764.271648166,1764.954413041,9,1764.338117625,1764.404476291,1764.977698166,1765.804422875,0,0.682764874999975
129,49,8,categorization,0,bathroom,SHINEd_sun_aavhrsfjbserjtht.tif,13,0.0666666666666667,0.0666666666666667,0.95,1765.821434833,1766.577298458,13,1765.887780416,1765.953938833,1766.589541833,1767.532880291,1,0.755863625000075
129,50,8,categorization,0,bathroom,SHINEd_sun_alkosphxlxwjwgjd.tif,34,0.0666666666666667,0.0666666666666667,1.43333333333333,1767.537737083,1768.353500583,9,1767.599383666,1767.660387791,1768.362205333,1769.788907291,0,0.815763500000003
129,1,9,categorization,0,bathroom,SHINEd_sun_agyqfjcfkdcydepw.tif,25,0.0666666666666667,0.0666666666666667,1.08333333333333,1830.239905291,1831.032746083,9,1830.302262708,1830.362599625,1831.047675166,1832.1243915,0,0.792840791999879
129,2,9,categorization,0,kitchen,SHINEd_sun_awcpdzzznmweyyhv.tif,106,0.0666666666666667,0.0666666666666667,0.8,1832.132336041,1832.666191041,9,1832.196857208,1832.263007916,1832.685973791,1833.479349958,1,0.533855000000131
129,3,9,categorization,0,kitchen,SHINEd_sun_aunzlwrbjumxhwdj.tif,103,0.0666666666666667,0.0666666666666667,0.833333333333333,1833.4943985,1834.200807875,13,1833.561289333,1833.623784958,1834.209024333,1835.035696416,0,0.706409375000021
129,4,9,categorization,0,kitchen,SHINEd_sun_ajkqhtgcbgpcwrwn.tif,97,0.0666666666666667,0.0666666666666667,1.45,1835.040625583,1835.577392875,9,1835.102321083,1835.163243666,1835.581879041,1837.025255458,1,0.536767291999922
129,5,9,categorization,0,kitchen,SHINEd_sun_aadbddgrdsjugojn.tif,64,0.0666666666666667,0.0666666666666667,1.3,1837.0437165,1837.264712958,9,1837.110336708,1837.173839958,1837.27858325,1838.571965583,1,0.220996457999945
129,6,9,categorization,0,kitchen,SHINEd_sun_auticobqsbwgoppi.tif,104,0.0666666666666667,0.0666666666666667,1.21666666666667,1838.588710083,1838.944986041,9,1838.651303416,1838.711353458,1838.96318025,1840.17322025,1,0.356275957999969
129,7,9,categorization,0,bathroom,SHINEd_sun_apjevzvycyhuqghb.tif,43,0.0666666666666667,0.0666666666666667,0.733333333333333,1840.187194875,1840.75619075,9,1840.253426791,1840.318806083,1840.7748445,1841.501560708,0,0.568995875000155
129,8,9,categorization,0,kitchen,SHINEd_sun_aarfiyshqohlwkmo.tif,67,0.0666666666666667,0.0666666666666667,1.03333333333333,1841.51703625,1842.113028,9,1841.58343075,1841.648634333,1842.117720916,1843.144418,1,0.595991749999939
129,9,9,categorization,0,kitchen,SHINEd_sun_aapllqyqlykszopd.tif,66,0.0666666666666667,0.0666666666666667,1.1,1843.152906166,1843.994809708,13,1843.216854625,1843.282886541,1844.022718291,1845.116089041,0,0.841903541999955
129,10,9,categorization,0,bathroom,SHINEd_sun_axldvoqbuvuggfmq.tif,57,0.0666666666666667,0.0666666666666667,1.25,1845.133251875,1845.913295583,9,1845.195665708,1845.255976583,1845.924647166,1847.168014583,0,0.780043707999994
129,11,9,categorization,0,kitchen,SHINEd_sun_abpwyqmlzafvklqo.tif,72,0.0666666666666667,0.0666666666666667,1.4,1847.178582291,1847.729518375,9,1847.243352958,1847.31117475,1847.751052291,1849.144428875,1,0.550936083999886
129,12,9,categorization,0,bathroom,SHINEd_sun_axyrejkiiaqiurjk.tif,59,0.0666666666666667,0.0666666666666667,1.43333333333333,1849.154398208,1849.858421625,13,1849.219131875,1849.282275291,1849.870623958,1851.29734975,1,0.704023416999917
129,13,9,categorization,0,kitchen,SHINEd_sun_ajcbwwvdlsvjyzje.tif,96,0.0666666666666667,0.0666666666666667,1.26666666666667,1851.314228333,1851.881377166,9,1851.380694166,1851.446665958,1851.903078083,1853.163124916,1,0.567148832999919
129,14,9,categorization,0,kitchen,SHINEd_labelme_kxvouciolcpqplr.tif,62,0.0666666666666667,0.0666666666666667,0.916666666666667,1853.172770833,1854.024976875,13,1853.23563075,1853.295544,1854.030714458,1854.940718,0,0.852206042000034
129,15,9,categorization,0,kitchen,SHINEd_sun_aegoxogugdkwpmpj.tif,80,0.0666666666666667,0.0666666666666667,1.05,1854.945193791,1855.648929833,9,1855.007000375,1855.067814125,1855.652921416,1856.69632875,1,0.703736041999946
