sub_num,trial,block,task,is_practice,category,image,texture,duration,mask_dur,jitter,stim_time,time_of_resp,trial_response,mask_time,fix_time,jit_onset,trial_end,trial_accuracy,RT
129,1,6,categorization,0,bathroom,SHINEd_sun_aofnryafpsjimzsb.tif,40,0.0666666666666667,0.0666666666666667,0.966666666666667,1382.994706041,1383.434289375,9,1383.057112125,1383.117338291,1383.452484458,1384.412488583,0,0.439583333999963
129,2,6,categorization,0,kitchen,SHINEd_sun_awcpdzzznmweyyhv.tif,106,0.0666666666666667,0.0666666666666667,1.73333333333333,1384.417182583,1384.834317708,13,1384.478825458,1384.539865625,1384.841782708,1386.5684935,0,0.417135124999959
129,3,6,categorization,0,kitchen,SHINEd_sun_adgqasybjyktddhj.tif,78,0.0666666666666667,0.0666666666666667,1.91666666666667,1386.586493625,1386.884851666,9,1386.652767083,1386.718990458,1386.90871975,1388.818754958,1,0.298358041000029
129,4,6,categorization,0,bathroom,SHINEd_sun_apkruvsevgegsdwp.tif,44,0.0666666666666667,0.0666666666666667,0.766666666666667,1388.840557291,1389.126561291,13,1388.907497875,1388.973328166,1389.144530125,1389.904587833,1,0.286003999999821
129,5,6,categorization,0,kitchen,SHINEd_sun_auticobqsbwgoppi.tif,104,0.0666666666666667,0.0666666666666667,0.916666666666667,1389.916732166,1390.323207125,13,1389.983109166,1390.04910675,1390.33431075,1391.244314333,0,0.406474958999979
129,6,6,categorization,0,bathroom,SHINEd_sun_aapitsgbtktqubfy.tif,12,0.0666666666666667,0.0666666666666667,1.18333333333333,1391.24903275,1392.46657075,13,1391.310674958,1391.37164725,1392.473610083,1393.650323041,1,1.2175380000001
129,7,6,categorization,0,kitchen,SHINEd_sun_aggjlwcdjsjcaemh.tif,86,0.0666666666666667,0.0666666666666667,1.8,1393.661059125,1393.990555291,9,1393.727891958,1393.793819333,1394.017102708,1395.810494666,1,0.329496165999899
129,8,6,categorization,0,bathroom,SHINEd_sun_agrwbmhcpmfuwmsg.tif,24,0.0666666666666667,0.0666666666666667,0.883333333333333,1395.828150583,1396.157322291,13,1395.894720791,1395.961198458,1396.18460275,1397.061307458,1,0.329171707999876
129,9,6,categorization,0,bathroom,SHINEd_sun_aunuadmjocsddsrl.tif,52,0.0666666666666667,0.0666666666666667,1.83333333333333,1397.074215416,1397.414549416,9,1397.140659666,1397.205113416,1397.4268835,1399.253576291,0,0.340333999999984
129,10,6,categorization,0,bathroom,SHINEd_sun_acduarbnmmoglmiv.tif,16,0.0666666666666667,0.0666666666666667,1.76666666666667,1399.2664515,1399.540152125,9,1399.333090291,1399.398866208,1399.553893708,1401.313931833,0,0.273700625000174
129,11,6,categorization,0,kitchen,SHINEd_sun_aypmqwcualkenuoe.tif,109,0.0666666666666667,0.0666666666666667,0.983333333333333,1401.331846291,1401.742678833,9,1401.399121291,1401.464042583,1401.770841708,1402.747516541,1,0.41083254199998
129,12,6,categorization,0,bathroom,SHINEd_sun_atstyziqcmkahyxk.tif,51,0.0666666666666667,0.0666666666666667,0.883333333333333,1402.752989791,1403.106173041,13,1402.814675666,1402.875664166,1403.110729291,1403.98739925,1,0.353183250000029
129,13,6,categorization,0,kitchen,SHINEd_sun_acwjdupvyjsugpay.tif,76,0.0666666666666667,0.0666666666666667,0.85,1403.991813333,1404.379096541,9,1404.053558916,1404.114473833,1404.382819083,1405.226155625,1,0.387283208000099
129,14,6,categorization,0,bathroom,SHINEd_sun_ahqjwnzgolcaoidx.tif,29,0.0666666666666667,0.0666666666666667,0.733333333333333,1405.230831833,1405.650456375,13,1405.292482375,1405.353371083,1405.6550625,1406.381732625,1,0.419624542000065
129,15,6,categorization,0,kitchen,SHINEd_sun_aamedkxepzlwuxes.tif,65,0.0666666666666667,0.0666666666666667,1.88333333333333,1406.386153208,1407.418276166,13,1406.447883125,1406.508777041,1407.427289583,1409.303989291,0,1.03212295799995
129,16,6,categorization,0,kitchen,SHINEd_sun_agubuxuukhzyzpdp.tif,88,0.0666666666666667,0.0666666666666667,0.816666666666667,1409.323314333,1409.7073025,13,1409.389768416,1409.456243166,1409.729217625,1410.539223291,0,0.38398816699987
129,17,6,categorization,0,kitchen,SHINEd_sun_ahywdevtimnqcsln.tif,94,0.0666666666666667,0.0666666666666667,1.9,1410.544347541,1411.019018083,9,1410.605997291,1410.666960875,1411.035353083,1412.92874775,1,0.474670542000013
129,18,6,categorization,0,bathroom,SHINEd_sun_avhrdrntsqrjzccq.tif,55,0.0666666666666667,0.0666666666666667,0.983333333333333,1412.947056375,1415.419020625,9,1413.013406708,1413.07950375,1415.43183125,1416.408503041,0,2.47196424999993
129,19,6,categorization,0,bathroom,SHINEd_sun_apjevzvycyhuqghb.tif,43,0.0666666666666667,0.0666666666666667,0.75,1416.413179041,1416.762851916,9,1416.474810916,1416.53583075,1416.770798791,1417.514136833,0,0.349672875000124
129,20,6,categorization,0,kitchen,SHINEd_sun_ajcbwwvdlsvjyzje.tif,96,0.0666666666666667,0.0666666666666667,1.6,1417.5187015,1417.866187416,9,1417.580446083,1417.64130275,1417.876409958,1419.469779541,1,0.347485916000096
129,21,6,categorization,0,kitchen,SHINEd_sun_afuyedyxivkhecmu.tif,85,0.0666666666666667,0.0666666666666667,1.58333333333333,1419.4900215,1419.923071625,9,1419.555139916,1419.622623916,1419.945894875,1421.522606541,1,0.433050124999909
129,22,6,categorization,0,kitchen,SHINEd_labelme_rykdqxenmhulbdn.tif,63,0.0666666666666667,0.0666666666666667,1.11666666666667,1421.540059166,1421.919748375,13,1421.606671125,1421.672492791,1421.945068833,1423.055108625,0,0.379689208999935
129,23,6,categorization,0,kitchen,SHINEd_sun_auaiucuqpdausiva.tif,102,0.0666666666666667,0.0666666666666667,1.53333333333333,1423.073136958,1423.530581333,13,1423.135694041,1423.195926833,1423.547843791,1425.074546541,0,0.457444375000023
129,24,6,categorization,0,bathroom,SHINEd_sun_auzqhkafidnkrwmo.tif,54,0.0666666666666667,0.0666666666666667,1.48333333333333,1425.091369333,1426.667076958,13,1425.156542166,1425.222032833,1426.674501083,1428.15122075,1,1.57570762499995
129,25,6,categorization,0,bathroom,SHINEd_sun_alkosphxlxwjwgjd.tif,34,0.0666666666666667,0.0666666666666667,1.1,1428.16849025,1428.802503875,13,1428.236044708,1428.301047333,1428.824799,1429.918179208,1,0.634013624999852
129,26,6,categorization,0,kitchen,SHINEd_labelme_brsyyvweiuaazfr.tif,61,0.0666666666666667,0.0666666666666667,0.933333333333333,1429.927711916,1430.5826315,9,1429.992741541,1430.060063333,1430.599399166,1431.52611425,1,0.654919584000027
129,27,6,categorization,0,kitchen,SHINEd_sun_ahljzhgcdpomplvg.tif,91,0.0666666666666667,0.0666666666666667,0.816666666666667,1431.541763958,1431.979056583,9,1431.608751791,1431.67345625,1431.992663833,1432.802667541,1,0.437292625000055
129,28,6,categorization,0,bathroom,SHINEd_sun_aghyqhbptboemmoq.tif,23,0.0666666666666667,0.0666666666666667,1.78333333333333,1432.807646708,1433.7229595,13,1432.869354958,1432.930201583,1433.731965541,1435.508672666,1,0.915312791999895
129,29,6,categorization,0,bathroom,SHINEd_sun_abjtwfukuwddzted.tif,15,0.0666666666666667,0.0666666666666667,0.766666666666667,1435.525465833,1436.250292833,13,1435.592160166,1435.658442125,1436.264905375,1437.024914333,1,0.724827000000005
129,30,6,categorization,0,kitchen,SHINEd_sun_aadbddgrdsjugojn.tif,64,0.0666666666666667,0.0666666666666667,1.45,1437.029813875,1437.627000833,9,1437.091452958,1437.152375916,1437.637513125,1439.0809065,1,0.597186958000066
129,31,6,categorization,0,bathroom,SHINEd_sun_axxbkopsgyouuebh.tif,58,0.0666666666666667,0.0666666666666667,0.75,1439.097572666,1439.568016083,9,1439.161998791,1439.228401833,1439.583945875,1440.3273135,0,0.47044341700007
129,32,6,categorization,0,bathroom,SHINEd_sun_axyrejkiiaqiurjk.tif,59,0.0666666666666667,0.0666666666666667,1.36666666666667,1440.341740333,1441.082196666,9,1440.408548625,1440.474219375,1441.093303958,1442.453363166,0,0.740456333000111
129,33,6,categorization,0,bathroom,SHINEd_sun_ajlawzvmubibwbpy.tif,30,0.0666666666666667,0.0666666666666667,0.75,1442.474310583,1443.250141916,9,1442.541231291,1442.607553166,1443.262155958,1444.005521916,0,0.775831333000042
129,34,6,categorization,0,kitchen,SHINEd_sun_aegoxogugdkwpmpj.tif,80,0.0666666666666667,0.0666666666666667,0.783333333333333,1444.023093708,1444.618041333,9,1444.090028416,1444.155532083,1444.624032708,1445.400703125,1,0.594947625000032
129,35,6,categorization,0,kitchen,SHINEd_sun_abdxkyyxwfskuaqb.tif,70,0.0666666666666667,0.0666666666666667,1.11666666666667,1445.405543875,1445.930922416,9,1445.467252208,1445.528156583,1445.946753333,1447.0567965,1,0.525378541000009
129,36,6,categorization,0,bathroom,SHINEd_sun_aggnnqpdorgxpvce.tif,21,0.0666666666666667,0.0666666666666667,0.766666666666667,1447.065037791,1447.882685458,13,1447.129681958,1447.1954175,1447.901478291,1448.661514833,1,0.817647667000074
129,37,6,categorization,0,kitchen,SHINEd_sun_agzzivivdpnawacl.tif,89,0.0666666666666667,0.0666666666666667,0.716666666666667,1448.677666041,1449.314238958,9,1448.744205125,1448.809741125,1449.328261541,1450.038267708,1,0.636572916999967
129,38,6,categorization,0,kitchen,SHINEd_sun_agorklincwxrdtga.tif,87,0.0666666666666667,0.0666666666666667,1.33333333333333,1450.04291175,1450.738875208,9,1450.104617916,1450.165497833,1450.750650875,1452.077352166,1,0.695963458000051
129,39,6,categorization,0,kitchen,SHINEd_sun_acfmftudsenhrfhy.tif,74,0.0666666666666667,0.0666666666666667,1.75,1452.095244041,1452.692636666,9,1452.16241175,1452.228064041,1452.718264708,1454.461656375,1,0.597392625000111
129,40,6,categorization,0,bathroom,SHINEd_sun_anryaplzeujmzfkd.tif,39,0.0666666666666667,0.0666666666666667,1.13333333333333,1454.479046541,1455.048338541,9,1454.54524375,1454.611560583,1455.067946208,1456.194652,0,0.569292000000132
129,41,6,categorization,0,kitchen,SHINEd_sun_admlmbcdswaszruo.tif,79,0.0666666666666667,0.0666666666666667,1.63333333333333,1456.20468375,1456.8704565,9,1456.269612375,1456.336996375,1456.893551083,1458.520252583,1,0.665772750000087
129,42,6,categorization,0,kitchen,SHINEd_sun_abftihopvusyfakt.tif,71,0.0666666666666667,0.0666666666666667,1.43333333333333,1458.537296125,1459.058035833,9,1458.602807791,1458.670063416,1459.074949,1460.501660208,1,0.520739708000065
129,43,6,categorization,0,kitchen,SHINEd_sun_aunzlwrbjumxhwdj.tif,103,0.0666666666666667,0.0666666666666667,1.83333333333333,1460.516263666,1461.34993525,9,1460.582638708,1460.648801291,1461.372469958,1463.19919125,1,0.833671584000058
129,44,6,categorization,0,kitchen,SHINEd_sun_azmutvzbxypaceni.tif,110,0.0666666666666667,0.0666666666666667,1.93333333333333,1463.209107291,1463.982177041,13,1463.274517583,1463.341648083,1463.997532208,1465.924234833,0,0.773069750000104
129,45,6,categorization,0,kitchen,SHINEd_sun_axyyrmzcupyhlivc.tif,107,0.0666666666666667,0.0666666666666667,1.26666666666667,1465.941180583,1466.438873833,9,1466.008307333,1466.073551041,1466.463575833,1467.723616583,1,0.497693249999884
129,46,6,categorization,0,kitchen,SHINEd_sun_aixorpehvfykdynp.tif,95,0.0666666666666667,0.0666666666666667,1.86666666666667,1467.738369958,1468.24764625,9,1467.805766583,1467.87092175,1468.277750083,1470.137803875,1,0.509276291999868
129,47,6,categorization,0,kitchen,SHINEd_sun_aymvwlarqodbwuoc.tif,108,0.0666666666666667,0.0666666666666667,1.41666666666667,1470.156486208,1470.867938333,9,1470.222918666,1470.288835041,1470.895778625,1472.305834916,1,0.711452125000051
129,48,6,categorization,0,kitchen,SHINEd_sun_aenotlpyftoioydp.tif,82,0.0666666666666667,0.0666666666666667,1.11666666666667,1472.32186175,1472.956949333,13,1472.3894735,1472.454547458,1472.977600791,1474.087649958,0,0.635087583000086
129,49,6,categorization,0,kitchen,SHINEd_sun_aeqdocilnnpuvuhx.tif,83,0.0666666666666667,0.0666666666666667,1.8,1474.09870775,1474.597036166,9,1474.165513458,1474.231821416,1474.622173875,1476.415559833,1,0.498328416000049
129,50,6,categorization,0,bathroom,SHINEd_sun_apkxzenqapsujocq.tif,45,0.0666666666666667,0.0666666666666667,1.25,1476.43552925,1476.901552208,9,1476.501972333,1476.567723875,1476.924767458,1478.168138041,0,0.466022958000167
