sub_num,trial,block,task,is_practice,category,image,texture,duration,blank,mask_dur,jitter,stim_time,time_of_resp,trial_response,blank_time,mask_time,fix_time,jit_onset,trial_end,trial_accuracy,RT
105,1,1,categorization,0,kitchen,SHINEd_sun_agorklincwxrdtga.tif,85,0.0333333333333333,0.0333333333333333,0.0833333333333333,0.916666666666667,525683.1475691,525684.2918866,70,525683.1843858,525683.2183041,525683.300973,525684.2992169,525685.2142216,1,1.14431749994401
105,2,1,categorization,0,kitchen,SHINEd_sun_aggjlwcdjsjcaemh.tif,83,0.0333333333333333,0.0333333333333333,0.0833333333333333,0.85,525685.2201539,525686.1712601,74,525685.256978,525685.2910595,525685.3736663,525686.177267,525687.0256057,0,0.951106199994683
105,3,1,categorization,0,bathroom,SHINEd_sun_ajlpekbqvytdohqb.tif,31,0.0333333333333333,0.0333333333333333,0.0833333333333333,0.883333333333333,525687.0314175,525688.0872271,74,525687.0677696,525687.1017512,525687.184974,525688.092486,525688.9741583,1,1.0558096000459
105,4,1,categorization,0,kitchen,SHINEd_sun_aaofphpvkeqlhwgu.tif,64,0.0333333333333333,0.0333333333333333,0.0833333333333333,1.48333333333333,525688.979704,525689.7489605,70,525689.0154813,525689.0502277,525689.1330919,525689.7558033,525691.2374733,1,0.769256499945186
105,5,1,categorization,0,kitchen,SHINEd_sun_aaofphpvkeqlhwgu.tif,64,0.0333333333333333,0.0333333333333333,0.0833333333333333,1.6,525691.2433217,525692.080648,70,525691.2802838,525691.3142579,525691.3968078,525692.0863749,525693.6847118,1,0.837326299981214
105,6,1,categorization,0,kitchen,SHINEd_sun_ataniphupyuxeowc.tif,102,0.0333333333333333,0.0333333333333333,0.0833333333333333,0.85,525693.6908829,525694.8708393,9,525693.7276591,525693.7614634,525693.8438807,525694.8776595,525695.7259975,NaN,1.17995639995206
105,7,1,categorization,0,kitchen,SHINEd_sun_aypmqwcualkenuoe.tif,110,0.0333333333333333,0.0333333333333333,0.0833333333333333,1.5,525695.7320757,NaN,NaN,525695.7696267,525695.8025924,525695.8854707,NaN,NaN,NaN,NaN
105,8,1,categorization,0,bathroom,SHINEd_sun_anltpptcpfdrhlks.tif,41,0.0333333333333333,0.0333333333333333,0.0833333333333333,1.78333333333333,NaN,NaN,NaN,NaN,NaN,NaN,NaN,NaN,NaN,NaN
105,9,1,categorization,0,bathroom,SHINEd_sun_atstyziqcmkahyxk.tif,51,0.0333333333333333,0.0333333333333333,0.0833333333333333,0.883333333333333,NaN,NaN,NaN,NaN,NaN,NaN,NaN,NaN,NaN,NaN
105,10,1,categorization,0,bathroom,SHINEd_sun_axbqssteryzzlcop.tif,57,0.0333333333333333,0.0333333333333333,0.0833333333333333,1.66666666666667,NaN,NaN,NaN,NaN,NaN,NaN,NaN,NaN,NaN,NaN
105,11,1,categorization,0,bathroom,SHINEd_sun_azqyogdvyhahyram.tif,60,0.0333333333333333,0.0333333333333333,0.0833333333333333,1.75,NaN,NaN,NaN,NaN,NaN,NaN,NaN,NaN,NaN,NaN
105,12,1,categorization,0,bathroom,SHINEd_sun_ambriybtogmepttm.tif,36,0.0333333333333333,0.0333333333333333,0.0833333333333333,1.38333333333333,NaN,NaN,NaN,NaN,NaN,NaN,NaN,NaN,NaN,NaN
105,13,1,categorization,0,kitchen,SHINEd_sun_aiffeoqzngslhzfi.tif,93,0.0333333333333333,0.0333333333333333,0.0833333333333333,1.63333333333333,NaN,NaN,NaN,NaN,NaN,NaN,NaN,NaN,NaN,NaN
105,14,1,categorization,0,bathroom,SHINEd_labelme_xbsnnlvmskdknsb.tif,12,0.0333333333333333,0.0333333333333333,0.0833333333333333,1.86666666666667,NaN,NaN,NaN,NaN,NaN,NaN,NaN,NaN,NaN,NaN
105,15,1,categorization,0,kitchen,SHINEd_sun_aadbddgrdsjugojn.tif,62,0.0333333333333333,0.0333333333333333,0.0833333333333333,1.6,NaN,NaN,NaN,NaN,NaN,NaN,NaN,NaN,NaN,NaN
105,16,1,categorization,0,bathroom,SHINEd_sun_axyrejkiiaqiurjk.tif,59,0.0333333333333333,0.0333333333333333,0.0833333333333333,1.98333333333333,NaN,NaN,NaN,NaN,NaN,NaN,NaN,NaN,NaN,NaN
105,17,1,categorization,0,bathroom,SHINEd_sun_abeymlrfgckenfyk.tif,16,0.0333333333333333,0.0333333333333333,0.0833333333333333,1.33333333333333,NaN,NaN,NaN,NaN,NaN,NaN,NaN,NaN,NaN,NaN
105,18,1,categorization,0,bathroom,SHINEd_sun_axbqssteryzzlcop.tif,57,0.0333333333333333,0.0333333333333333,0.0833333333333333,0.75,NaN,NaN,NaN,NaN,NaN,NaN,NaN,NaN,NaN,NaN
105,19,1,categorization,0,kitchen,SHINEd_sun_admlmbcdswaszruo.tif,76,0.0333333333333333,0.0333333333333333,0.0833333333333333,1.91666666666667,NaN,NaN,NaN,NaN,NaN,NaN,NaN,NaN,NaN,NaN
105,20,1,categorization,0,bathroom,SHINEd_sun_aoybiabnpadelefl.tif,43,0.0333333333333333,0.0333333333333333,0.0833333333333333,1.36666666666667,NaN,NaN,NaN,NaN,NaN,NaN,NaN,NaN,NaN,NaN
105,21,1,categorization,0,kitchen,SHINEd_sun_akcjzhbbjlbogpdi.tif,95,0.0333333333333333,0.0333333333333333,0.0833333333333333,1.18333333333333,NaN,NaN,NaN,NaN,NaN,NaN,NaN,NaN,NaN,NaN
105,22,1,categorization,0,kitchen,SHINEd_sun_alpduwskzkgbcfui.tif,98,0.0333333333333333,0.0333333333333333,0.0833333333333333,0.733333333333333,NaN,NaN,NaN,NaN,NaN,NaN,NaN,NaN,NaN,NaN
105,23,1,categorization,0,bathroom,SHINEd_sun_afcoljnjfoxjtgja.tif,24,0.0333333333333333,0.0333333333333333,0.0833333333333333,1,NaN,NaN,NaN,NaN,NaN,NaN,NaN,NaN,NaN,NaN
105,24,1,categorization,0,kitchen,SHINEd_sun_awbyfefkbcrlrqws.tif,106,0.0333333333333333,0.0333333333333333,0.0833333333333333,1.5,NaN,NaN,NaN,NaN,NaN,NaN,NaN,NaN,NaN,NaN
105,25,1,categorization,0,kitchen,SHINEd_sun_ataniphupyuxeowc.tif,102,0.0333333333333333,0.0333333333333333,0.0833333333333333,1.26666666666667,NaN,NaN,NaN,NaN,NaN,NaN,NaN,NaN,NaN,NaN
105,26,1,categorization,0,bathroom,SHINEd_sun_abeymlrfgckenfyk.tif,16,0.0333333333333333,0.0333333333333333,0.0833333333333333,1.56666666666667,NaN,NaN,NaN,NaN,NaN,NaN,NaN,NaN,NaN,NaN
105,27,1,categorization,0,bathroom,SHINEd_sun_ajlpekbqvytdohqb.tif,31,0.0333333333333333,0.0333333333333333,0.0833333333333333,1.16666666666667,NaN,NaN,NaN,NaN,NaN,NaN,NaN,NaN,NaN,NaN
105,28,1,categorization,0,bathroom,SHINEd_sun_axxbkopsgyouuebh.tif,58,0.0333333333333333,0.0333333333333333,0.0833333333333333,1.03333333333333,NaN,NaN,NaN,NaN,NaN,NaN,NaN,NaN,NaN,NaN
105,29,1,categorization,0,kitchen,SHINEd_sun_abrcnpqqhmjwekyf.tif,70,0.0333333333333333,0.0333333333333333,0.0833333333333333,1.31666666666667,NaN,NaN,NaN,NaN,NaN,NaN,NaN,NaN,NaN,NaN
105,30,1,categorization,0,kitchen,SHINEd_sun_aamedkxepzlwuxes.tif,63,0.0333333333333333,0.0333333333333333,0.0833333333333333,1.15,NaN,NaN,NaN,NaN,NaN,NaN,NaN,NaN,NaN,NaN
105,31,1,categorization,0,kitchen,SHINEd_sun_aegoxogugdkwpmpj.tif,77,0.0333333333333333,0.0333333333333333,0.0833333333333333,0.916666666666667,NaN,NaN,NaN,NaN,NaN,NaN,NaN,NaN,NaN,NaN
105,32,1,categorization,0,bathroom,SHINEd_sun_aleqenyvunhactkl.tif,33,0.0333333333333333,0.0333333333333333,0.0833333333333333,0.766666666666667,NaN,NaN,NaN,NaN,NaN,NaN,NaN,NaN,NaN,NaN
105,33,1,categorization,0,bathroom,SHINEd_sun_axxbkopsgyouuebh.tif,58,0.0333333333333333,0.0333333333333333,0.0833333333333333,1.73333333333333,NaN,NaN,NaN,NaN,NaN,NaN,NaN,NaN,NaN,NaN
105,34,1,categorization,0,bathroom,SHINEd_sun_agyqfjcfkdcydepw.tif,27,0.0333333333333333,0.0333333333333333,0.0833333333333333,1.23333333333333,NaN,NaN,NaN,NaN,NaN,NaN,NaN,NaN,NaN,NaN
105,35,1,categorization,0,bathroom,SHINEd_sun_alkosphxlxwjwgjd.tif,35,0.0333333333333333,0.0333333333333333,0.0833333333333333,1.05,NaN,NaN,NaN,NaN,NaN,NaN,NaN,NaN,NaN,NaN
105,36,1,categorization,0,kitchen,SHINEd_sun_agzzivivdpnawacl.tif,87,0.0333333333333333,0.0333333333333333,0.0833333333333333,1.88333333333333,NaN,NaN,NaN,NaN,NaN,NaN,NaN,NaN,NaN,NaN
105,37,1,categorization,0,kitchen,SHINEd_sun_aypmqwcualkenuoe.tif,110,0.0333333333333333,0.0333333333333333,0.0833333333333333,1.75,NaN,NaN,NaN,NaN,NaN,NaN,NaN,NaN,NaN,NaN
105,38,1,categorization,0,kitchen,SHINEd_sun_aehawpgmrlhlvcow.tif,78,0.0333333333333333,0.0333333333333333,0.0833333333333333,0.766666666666667,NaN,NaN,NaN,NaN,NaN,NaN,NaN,NaN,NaN,NaN
105,39,1,categorization,0,kitchen,SHINEd_sun_abdenxonkemggwsq.tif,67,0.0333333333333333,0.0333333333333333,0.0833333333333333,1.66666666666667,NaN,NaN,NaN,NaN,NaN,NaN,NaN,NaN,NaN,NaN
105,40,1,categorization,0,bathroom,SHINEd_sun_abtukhmkjdzyfxhr.tif,18,0.0333333333333333,0.0333333333333333,0.0833333333333333,0.883333333333333,NaN,NaN,NaN,NaN,NaN,NaN,NaN,NaN,NaN,NaN
105,41,1,categorization,0,kitchen,SHINEd_sun_ahdycvpopffkzzsu.tif,88,0.0333333333333333,0.0333333333333333,0.0833333333333333,1.43333333333333,NaN,NaN,NaN,NaN,NaN,NaN,NaN,NaN,NaN,NaN
105,42,1,categorization,0,kitchen,SHINEd_sun_aadbddgrdsjugojn.tif,62,0.0333333333333333,0.0333333333333333,0.0833333333333333,1.08333333333333,NaN,NaN,NaN,NaN,NaN,NaN,NaN,NaN,NaN,NaN
105,43,1,categorization,0,bathroom,SHINEd_sun_adbqksnwuqqwdpxc.tif,22,0.0333333333333333,0.0333333333333333,0.0833333333333333,1.36666666666667,NaN,NaN,NaN,NaN,NaN,NaN,NaN,NaN,NaN,NaN
105,44,1,categorization,0,bathroom,SHINEd_sun_ahqjwnzgolcaoidx.tif,29,0.0333333333333333,0.0333333333333333,0.0833333333333333,0.8,NaN,NaN,NaN,NaN,NaN,NaN,NaN,NaN,NaN,NaN
105,45,1,categorization,0,bathroom,SHINEd_sun_aunuadmjocsddsrl.tif,52,0.0333333333333333,0.0333333333333333,0.0833333333333333,1,NaN,NaN,NaN,NaN,NaN,NaN,NaN,NaN,NaN,NaN
105,46,1,categorization,0,kitchen,SHINEd_sun_awbyfefkbcrlrqws.tif,106,0.0333333333333333,0.0333333333333333,0.0833333333333333,0.733333333333333,NaN,NaN,NaN,NaN,NaN,NaN,NaN,NaN,NaN,NaN
105,47,1,categorization,0,kitchen,SHINEd_sun_acwjdupvyjsugpay.tif,73,0.0333333333333333,0.0333333333333333,0.0833333333333333,1.41666666666667,NaN,NaN,NaN,NaN,NaN,NaN,NaN,NaN,NaN,NaN
105,48,1,categorization,0,bathroom,SHINEd_sun_agyqfjcfkdcydepw.tif,27,0.0333333333333333,0.0333333333333333,0.0833333333333333,0.716666666666667,NaN,NaN,NaN,NaN,NaN,NaN,NaN,NaN,NaN,NaN
105,49,1,categorization,0,bathroom,SHINEd_sun_aclfzgynxzxlbepz.tif,20,0.0333333333333333,0.0333333333333333,0.0833333333333333,1.43333333333333,NaN,NaN,NaN,NaN,NaN,NaN,NaN,NaN,NaN,NaN
105,50,1,categorization,0,bathroom,SHINEd_sun_anltpptcpfdrhlks.tif,41,0.0333333333333333,0.0333333333333333,0.0833333333333333,1.31666666666667,NaN,NaN,NaN,NaN,NaN,NaN,NaN,NaN,NaN,NaN
