sub_num,trial,block,task,is_practice,category,image,texture,duration,mask_dur,jitter,stim_time,time_of_resp,trial_response,mask_time,fix_time,jit_onset,trial_end,trial_accuracy,RT
112,1,0,complexity,1,bathroom,bathroom_practice3.tif,223,1.5,0,1.56666666666667,1778.102420583,1782.764987166,4,NaN,1782.771425041,1782.789768375,1784.34980725,NaN,NaN
112,2,0,complexity,1,bathroom,bathroom_practice5.tif,225,1.5,0,1.1,1784.368559583,1789.542112416,4,NaN,1789.548059166,1789.566430041,1790.659819125,NaN,NaN
112,3,0,complexity,1,bathroom,bathroom_practice2.tif,222,1.5,0,1.51666666666667,1790.670135791,1794.525875875,7,NaN,1794.531802041,1794.550901541,1796.060950208,NaN,NaN
112,4,0,complexity,1,bathroom,bathroom_practice4.tif,224,1.5,0,1.15,1796.074022166,1799.766152,5,NaN,1799.772724333,1799.791130166,1800.934518958,NaN,NaN
112,5,0,complexity,1,bathroom,bathroom_practice1.tif,221,1.5,0,1.26666666666667,1800.943210916,1804.613556083,2,NaN,1804.619509708,1804.63789525,1805.897946791,NaN,NaN
112,1,1,complexity,0,bathroom,sun_abapwbhyhkfixyex.tif,124,1.5,0,0.75,1813.962748166,1820.293377958,4,NaN,1820.299488208,1820.317761458,1821.061100416,NaN,NaN
112,2,1,complexity,0,bathroom,sun_akiytfaagpdsphgz.tif,141,1.5,0,1.28333333333333,1821.067472208,1824.5098185,4,NaN,1824.515855875,1824.533923583,1825.810650583,NaN,NaN
112,3,1,complexity,0,bathroom,sun_axxbkopsgyouuebh.tif,168,1.5,0,1.76666666666667,1825.827325916,1828.853910375,3,NaN,1828.85970725,1828.878078833,1830.638135125,NaN,NaN
112,4,1,complexity,0,bathroom,sun_abjtwfukuwddzted.tif,125,1.5,0,1.28333333333333,1830.654765958,1833.480539083,2,NaN,1833.510586541,1833.533469541,1834.8101915,NaN,NaN
112,5,1,complexity,0,bathroom,sun_amzlamotzwfkwjco.tif,147,1.5,0,1.8,1834.82705625,1838.093097875,4,NaN,1838.099110083,1838.117330458,1839.91071025,NaN,NaN
112,6,1,complexity,0,bathroom,sun_aofnryafpsjimzsb.tif,150,1.5,0,0.716666666666667,1839.925977666,1843.293805375,5,NaN,1843.32455125,1843.348016,1844.058023125,NaN,NaN
112,7,1,complexity,0,bathroom,sun_asfwthctfqerjvxr.tif,159,1.5,0,1,1844.063586833,1846.713877125,5,NaN,1846.742671833,1846.765133916,1847.75847275,NaN,NaN
112,8,1,complexity,0,bathroom,sun_apjevzvycyhuqghb.tif,153,1.5,0,1.21666666666667,1847.764065916,1850.712726291,6,NaN,1850.7432665,1850.76639475,1851.976437666,NaN,NaN
112,9,1,complexity,0,bathroom,sun_aapitsgbtktqubfy.tif,122,1.5,0,1.55,1851.991055625,1856.2607545,3,NaN,1856.267552291,1856.285848208,1857.829223,NaN,NaN
112,10,1,complexity,0,bathroom,sun_aclfzgynxzxlbepz.tif,129,1.5,0,2,1857.847039958,1860.769331833,2,NaN,1860.798505083,1860.821750041,1862.815143458,NaN,NaN
112,11,1,complexity,0,bathroom,sun_aqrpegblszgcoujh.tif,158,1.5,0,0.716666666666667,1862.835273708,1865.802431333,4,NaN,1865.83479275,1865.858636,1866.568641375,NaN,NaN
112,12,1,complexity,0,bathroom,sun_awnqiikzaispgmwo.tif,166,1.5,0,0.933333333333333,1866.573717375,1869.584852333,3,NaN,1869.612781833,1869.633506458,1870.560177416,NaN,NaN
112,13,1,complexity,0,bathroom,sun_axyrejkiiaqiurjk.tif,169,1.5,0,1.58333333333333,1870.564835208,1873.408714625,3,NaN,1873.438036125,1873.461206291,1875.037934333,NaN,NaN
112,14,1,complexity,0,bathroom,sun_aspsyogrekjtfozg.tif,160,1.5,0,0.9,1875.054807958,1878.160309041,6,NaN,1878.187080458,1878.210732583,1879.104072083,NaN,NaN
112,15,1,complexity,0,bathroom,sun_anryaplzeujmzfkd.tif,149,1.5,0,1.16666666666667,1879.109402166,1881.980306583,4,NaN,1882.005457208,1882.028533166,1883.188568666,NaN,NaN
112,16,1,complexity,0,bathroom,sun_ausgutylgojavyoq.tif,163,1.5,0,0.733333333333333,1883.20045225,1886.116754041,6,NaN,1886.122808875,1886.141067583,1886.867740958,NaN,NaN
112,17,1,complexity,0,bathroom,sun_ahijqszoswveeyji.tif,138,1.5,0,1.15,1886.872892666,1889.489775041,5,NaN,1889.519467375,1889.542814708,1890.686190916,NaN,NaN
112,18,1,complexity,0,bathroom,sun_acgyywnybuveqsro.tif,128,1.5,0,1.01666666666667,1890.696145333,1893.676662583,3,NaN,1893.682749625,1893.700987291,1894.711042416,NaN,NaN
112,19,1,complexity,0,bathroom,sun_aggnnqpdorgxpvce.tif,131,1.5,0,0.883333333333333,1894.720237041,1898.756779833,4,NaN,1898.762901291,1898.781413333,1899.658086333,NaN,NaN
112,20,1,complexity,0,bathroom,sun_avhrdrntsqrjzccq.tif,165,1.5,0,1.65,1899.663225708,1903.517205583,2,NaN,1903.523180041,1903.541454583,1905.1848275,NaN,NaN
112,21,1,complexity,0,bathroom,sun_aghyqhbptboemmoq.tif,133,1.5,0,0.75,1905.202445625,1909.652719291,1,NaN,1909.658737291,1909.677208708,1910.420547041,NaN,NaN
112,22,1,complexity,0,bathroom,sun_acegryoqftbzowsg.tif,127,1.5,0,1.28333333333333,1910.424753041,1913.165400541,1,NaN,1913.196143458,1913.21948575,1914.496174416,NaN,NaN
112,23,1,complexity,0,bathroom,sun_ambriybtogmepttm.tif,146,1.5,0,1.25,1914.507376833,1917.277133958,3,NaN,1917.28296,1917.301222375,1918.544594291,NaN,NaN
112,24,1,complexity,0,bathroom,sun_agrwbmhcpmfuwmsg.tif,134,1.5,0,0.833333333333333,1918.557835666,1921.7892905,3,NaN,1921.795750166,1921.814123333,1922.6407955,NaN,NaN
112,25,1,complexity,0,bathroom,sun_acduarbnmmoglmiv.tif,126,1.5,0,1.05,1922.645147125,1925.400948791,7,NaN,1925.430453041,1925.453250791,1926.496626583,NaN,NaN
112,1,2,complexity,0,bathroom,sun_apkxzenqapsujocq.tif,155,1.5,0,0.95,1930.504335333,1933.146761375,3,NaN,1933.17757275,1933.200617208,1934.143957958,NaN,NaN
112,2,2,complexity,0,bathroom,sun_afcoljnjfoxjtgja.tif,130,1.5,0,1.55,1934.149658625,1936.604302916,2,NaN,1936.625446416,1936.648883208,1938.192253791,NaN,NaN
112,3,2,complexity,0,bathroom,sun_agyqfjcfkdcydepw.tif,135,1.5,0,1.2,1938.207015541,1942.829169625,3,NaN,1942.835008583,1942.853370666,1944.046740333,NaN,NaN
112,4,2,complexity,0,bathroom,sun_apkruvsevgegsdwp.tif,154,1.5,0,1.86666666666667,1944.056071416,1947.596930541,3,NaN,1947.602843625,1947.62119125,1949.4812305,NaN,NaN
112,5,2,complexity,0,bathroom,sun_alotolagknyrgtsk.tif,145,1.5,0,1.66666666666667,1949.498262166,1952.599876833,5,NaN,1952.619018833,1952.641935333,1954.301977375,NaN,NaN
112,6,2,complexity,0,bathroom,sun_axldvoqbuvuggfmq.tif,167,1.5,0,1.35,1954.319943291,1957.502683791,6,NaN,1957.532537208,1957.555306666,1958.8986775,NaN,NaN
112,7,2,complexity,0,bathroom,sun_aoybiabnpadelefl.tif,151,1.5,0,1.11666666666667,1958.918557625,1961.517307708,1,NaN,1961.523250375,1961.541470458,1962.65151275,NaN,NaN
112,8,2,complexity,0,bathroom,sun_apmqjbnwghzuhhzh.tif,156,1.5,0,0.95,1962.659081541,1965.533132583,2,NaN,1965.538914833,1965.557138208,1966.500477791,NaN,NaN
112,9,2,complexity,0,bathroom,sun_aleqenyvunhactkl.tif,142,1.5,0,1.03333333333333,1966.505013166,1969.120537208,3,NaN,1969.143790375,1969.167244916,1970.193972416,NaN,NaN
112,10,2,complexity,0,bathroom,sun_aunuadmjocsddsrl.tif,162,1.5,0,1.01666666666667,1970.203929791,1973.124894916,7,NaN,1973.130885,1973.149172708,1974.159208291,NaN,NaN
112,11,2,complexity,0,bathroom,sun_agguqiubmwhqqunb.tif,132,1.5,0,1.81666666666667,1974.182740291,1976.996704333,5,NaN,1977.00276925,1977.021136666,1978.831179375,NaN,NaN
112,12,2,complexity,0,bathroom,sun_alkosphxlxwjwgjd.tif,144,1.5,0,1.8,1978.846667541,1982.628620833,4,NaN,1982.634450416,1982.65281275,1984.446195166,NaN,NaN
112,13,2,complexity,0,bathroom,sun_atstyziqcmkahyxk.tif,161,1.5,0,1.26666666666667,1984.46383825,1987.433078291,1,NaN,1987.460336583,1987.483494416,1988.74355,NaN,NaN
112,14,2,complexity,0,bathroom,sun_azqyogdvyhahyram.tif,170,1.5,0,1.66666666666667,1988.75689175,1991.436963916,1,NaN,1991.442838625,1991.461199083,1993.121250583,NaN,NaN
112,15,2,complexity,0,bathroom,sun_aljolscmmzydegqp.tif,143,1.5,0,1.93333333333333,1993.141270375,1995.744291625,6,NaN,1995.773903916,1995.797172333,1997.723886791,NaN,NaN
112,16,2,complexity,0,bathroom,sun_ahcvzmoyaycdoftf.tif,137,1.5,0,1.75,1997.742374583,2000.885280958,4,NaN,2000.917408291,2000.940597583,2002.683993291,NaN,NaN
112,17,2,complexity,0,bathroom,sun_aavhrsfjbserjtht.tif,123,1.5,0,0.766666666666667,2002.7018265,2005.851447708,5,NaN,2005.884214458,2005.907368333,2006.667373208,NaN,NaN
112,18,2,complexity,0,bathroom,sun_ajlawzvmubibwbpy.tif,140,1.5,0,1.43333333333333,2006.671982041,2009.88519725,4,NaN,2009.891077708,2009.909368708,2011.336075541,NaN,NaN
112,19,2,complexity,0,bathroom,sun_ahqjwnzgolcaoidx.tif,139,1.5,0,0.916666666666667,2011.353186791,2014.812493708,6,NaN,2014.818541,2014.836873958,2015.746878708,NaN,NaN
112,20,2,complexity,0,bathroom,labelme_sfxiulhjbhlyiyt.tif,121,1.5,0,0.766666666666667,2015.751950958,2018.996599458,7,NaN,2019.003425125,2019.021694375,2019.781700291,NaN,NaN
112,21,2,complexity,0,bathroom,sun_apynckhmoftszqoq.tif,157,1.5,0,0.783333333333333,2019.787046,2022.99714025,3,NaN,2023.00413975,2023.022531041,2023.799203958,NaN,NaN
112,22,2,complexity,0,bathroom,sun_anhioqovhscjqqwb.tif,148,1.5,0,1.31666666666667,2023.804559791,2027.372756,3,NaN,2027.378570833,2027.396838208,2028.706884416,NaN,NaN
112,23,2,complexity,0,bathroom,sun_auzqhkafidnkrwmo.tif,164,1.5,0,1.1,2028.724499166,2031.8763615,4,NaN,2031.882318666,2031.900607666,2032.993986833,NaN,NaN
112,24,2,complexity,0,bathroom,sun_ahaulkltgpkeeemi.tif,136,1.5,0,1.26666666666667,2033.006078666,2035.829155708,6,NaN,2035.834984833,2035.853294625,2037.113338083,NaN,NaN
112,25,2,complexity,0,bathroom,sun_apeeialkgkuxddgh.tif,152,1.5,0,0.933333333333333,2037.128403,2040.5089425,4,NaN,2040.514983458,2040.533197875,2041.459870125,NaN,NaN
