sub_num,trial,block,task,is_practice,category,image,texture,duration,mask_dur,jitter,stim_time,time_of_resp,trial_response,mask_time,fix_time,jit_onset,trial_end,trial_accuracy,RT
128,1,19,categorization,0,bathroom,SHINEd_sun_ahaulkltgpkeeemi.tif,26,0.0666666666666667,0.0666666666666667,1.48333333333333,3234.962117166,3235.852143333,13,3235.024571375,3235.084803208,3235.870161208,3237.346851083,1,0.890026167000087
128,2,19,categorization,0,kitchen,SHINEd_sun_auaiucuqpdausiva.tif,102,0.0666666666666667,0.0666666666666667,0.783333333333333,3237.356726916,3237.869804125,9,3237.42182925,3237.489082708,3237.89666425,3238.673365958,1,0.51307720900013
128,3,19,categorization,0,bathroom,SHINEd_sun_abjtwfukuwddzted.tif,15,0.0666666666666667,0.0666666666666667,1.7,3238.691270541,3240.268531583,13,3238.758761333,3238.823204375,3240.275766541,3241.9691435,1,1.57726104199992
128,4,19,categorization,0,bathroom,SHINEd_sun_aoybiabnpadelefl.tif,41,0.0666666666666667,0.0666666666666667,1.93333333333333,3241.986373208,3245.111609833,13,3242.053949958,3242.1196585,3245.12373775,3247.050451416,1,3.12523662500007
128,5,19,categorization,0,kitchen,SHINEd_sun_akcjzhbbjlbogpdi.tif,99,0.0666666666666667,0.0666666666666667,1.73333333333333,3247.068172958,3247.918676666,9,3247.134823875,3247.200318625,3247.94014275,3249.666852708,1,0.850503707999906
128,6,19,categorization,0,bathroom,SHINEd_sun_aapitsgbtktqubfy.tif,12,0.0666666666666667,0.0666666666666667,0.866666666666667,3249.68558275,3250.556963416,13,3249.751963291,3249.818140416,3250.574673791,3251.43468225,1,0.871380666000277
128,7,19,categorization,0,bathroom,SHINEd_sun_ahcvzmoyaycdoftf.tif,27,0.0666666666666667,0.0666666666666667,1.85,3251.439554375,3252.2844935,13,3251.501225333,3251.56221625,3252.297502125,3254.14088725,1,0.844939124999655
128,8,19,categorization,0,kitchen,SHINEd_sun_azmutvzbxypaceni.tif,110,0.0666666666666667,0.0666666666666667,0.966666666666667,3254.157669,3254.768371291,9,3254.224327416,3254.2903085,3254.796609375,3255.756616708,1,0.610702291000052
128,9,19,categorization,0,kitchen,SHINEd_labelme_rykdqxenmhulbdn.tif,63,0.0666666666666667,0.0666666666666667,0.733333333333333,3255.762291208,3256.620177333,9,3255.824042875,3255.884883375,3256.636708458,3257.363380041,1,0.857886124999823
128,10,19,categorization,0,bathroom,SHINEd_sun_acgyywnybuveqsro.tif,18,0.0666666666666667,0.0666666666666667,0.733333333333333,3257.368349083,3257.996586375,13,3257.430002541,3257.490941291,3258.009558583,3258.736230875,1,0.628237291999994
128,11,19,categorization,0,kitchen,SHINEd_sun_aaxxjlsuzvqlgylf.tif,68,0.0666666666666667,0.0666666666666667,1.93333333333333,3258.741650666,3259.380136083,9,3258.803265333,3258.8642205,3259.399413041,3261.326136375,1,0.638485416999629
128,12,19,categorization,0,bathroom,SHINEd_sun_ahqjwnzgolcaoidx.tif,29,0.0666666666666667,0.0666666666666667,1.1,3261.338060875,3262.081608041,13,3261.403014791,3261.470377458,3262.110184875,3263.203552041,1,0.743547166000099
128,13,19,categorization,0,bathroom,SHINEd_sun_axldvoqbuvuggfmq.tif,57,0.0666666666666667,0.0666666666666667,1.8,3263.211678916,3263.916873958,13,3263.276348416,3263.342543541,3263.931300916,3265.724681375,1,0.705195042000014
128,14,19,categorization,0,kitchen,SHINEd_sun_avszsnwsbuqfgzbn.tif,105,0.0666666666666667,0.0666666666666667,0.733333333333333,3265.742561458,3266.400761291,9,3265.808910541,3265.874708625,3266.413276333,3267.140004708,1,0.658199832999799
128,15,19,categorization,0,bathroom,SHINEd_sun_aghyqhbptboemmoq.tif,23,0.0666666666666667,0.0666666666666667,1.5,3267.159566666,3267.868928708,9,3267.224295416,3267.287221666,3267.872949833,3269.366323375,0,0.709362042000066
128,16,19,categorization,0,bathroom,SHINEd_sun_avhrdrntsqrjzccq.tif,55,0.0666666666666667,0.0666666666666667,0.8,3269.376862625,3269.889869916,9,3269.442323625,3269.509035833,3269.915411458,3270.708785583,0,0.513007291000122
128,17,19,categorization,0,bathroom,SHINEd_sun_auzqhkafidnkrwmo.tif,54,0.0666666666666667,0.0666666666666667,0.95,3270.724488375,3271.612885958,13,3270.790887958,3270.856839541,3271.625484875,3272.56882425,1,0.888397582999914
128,18,19,categorization,0,bathroom,SHINEd_sun_ahijqszoswveeyji.tif,28,0.0666666666666667,0.0666666666666667,1.1,3272.573705875,3274.156247833,13,3272.635300041,3272.696299625,3274.165335583,3275.258713916,1,1.58254195800009
128,19,19,categorization,0,kitchen,SHINEd_sun_abftihopvusyfakt.tif,71,0.0666666666666667,0.0666666666666667,1.63333333333333,3275.267906125,3275.869548833,9,3275.33233275,3275.398697458,3275.88783875,3277.51455075,1,0.601642707999872
128,20,19,categorization,0,kitchen,SHINEd_sun_aapllqyqlykszopd.tif,66,0.0666666666666667,0.0666666666666667,1.71666666666667,3277.532904458,3278.247652708,9,3277.599421958,3277.66567225,3278.272305375,3279.982359916,1,0.714748249999957
128,21,19,categorization,0,kitchen,SHINEd_sun_ahpczsiumwwocjkv.tif,92,0.0666666666666667,0.0666666666666667,1.43333333333333,3280.000558291,3280.518418833,9,3280.067624666,3280.132983875,3280.539172208,3281.965896791,1,0.517860542000108
128,22,19,categorization,0,bathroom,SHINEd_sun_amzlamotzwfkwjco.tif,37,0.0666666666666667,0.0666666666666667,0.966666666666667,3281.983503583,3282.566188625,9,3282.048516958,3282.116263666,3282.590082583,3283.550140833,0,0.582685041999866
128,23,19,categorization,0,bathroom,SHINEd_sun_afcoljnjfoxjtgja.tif,20,0.0666666666666667,0.0666666666666667,1.61666666666667,3283.567481083,3284.116360125,9,3283.630147916,3283.690170375,3284.125327125,3285.735380625,0,0.548879041999953
128,24,19,categorization,0,kitchen,SHINEd_sun_aqeaevwwwjoqhzvl.tif,101,0.0666666666666667,0.0666666666666667,0.866666666666667,3285.748966333,3286.3125015,9,3285.815456166,3285.88130925,3286.33764975,3287.197692875,1,0.563535166999827
128,25,19,categorization,0,bathroom,SHINEd_sun_agyqfjcfkdcydepw.tif,25,0.0666666666666667,0.0666666666666667,1.25,3287.210716458,3287.7327055,9,3287.273234166,3287.333456958,3287.752167916,3288.995556666,0,0.521989041999859
128,26,19,categorization,0,kitchen,SHINEd_sun_agubuxuukhzyzpdp.tif,88,0.0666666666666667,0.0666666666666667,0.716666666666667,3289.010965083,3289.563668666,9,3289.077422166,3289.143466666,3289.583068416,3290.293101458,1,0.552703583000039
128,27,19,categorization,0,bathroom,SHINEd_sun_ajlawzvmubibwbpy.tif,30,0.0666666666666667,0.0666666666666667,1.71666666666667,3290.307620958,3290.860658875,9,3290.374095375,3290.439676958,3290.875457583,3292.585491833,0,0.553037916999983
128,28,19,categorization,0,bathroom,SHINEd_sun_anryaplzeujmzfkd.tif,39,0.0666666666666667,0.0666666666666667,1.31666666666667,3292.603070458,3293.1155755,9,3292.669219083,3292.735174166,3293.141525875,3294.451579791,0,0.512505042000157
128,29,19,categorization,0,bathroom,SHINEd_sun_azqyogdvyhahyram.tif,60,0.0666666666666667,0.0666666666666667,0.9,3294.46879325,3295.040675541,9,3294.535245958,3294.601267875,3295.05707275,3295.950442958,0,0.571882290999838
128,30,19,categorization,0,bathroom,SHINEd_sun_akiytfaagpdsphgz.tif,31,0.0666666666666667,0.0666666666666667,1,3295.966017083,3296.484179291,9,3296.032469708,3296.098665958,3296.50133375,3297.494670916,0,0.518162207999922
128,31,19,categorization,0,bathroom,SHINEd_sun_axyrejkiiaqiurjk.tif,59,0.0666666666666667,0.0666666666666667,1.15,3297.499540041,3298.092442791,9,3297.561211291,3297.622308958,3298.107784583,3299.251161791,0,0.592902750000121
128,32,19,categorization,0,bathroom,SHINEd_sun_ausgutylgojavyoq.tif,53,0.0666666666666667,0.0666666666666667,1.55,3299.260913916,3300.118258916,13,3299.326164208,3299.391813708,3300.147869833,3301.691255375,1,0.857344999999896
128,33,19,categorization,0,kitchen,SHINEd_sun_auticobqsbwgoppi.tif,104,0.0666666666666667,0.0666666666666667,1.13333333333333,3301.707088,3302.618060583,9,3301.773891916,3301.839217,3302.645892166,3303.772591625,1,0.910972582999875
128,34,19,categorization,0,kitchen,SHINEd_sun_ahywdevtimnqcsln.tif,94,0.0666666666666667,0.0666666666666667,1.35,3303.781849708,3304.3668905,13,3303.846574041,3303.914228625,3304.387131208,3305.730521833,0,0.585040791999745
128,35,19,categorization,0,bathroom,SHINEd_sun_alkosphxlxwjwgjd.tif,34,0.0666666666666667,0.0666666666666667,0.7,3305.742456166,3306.676341916,13,3305.804860416,3305.865178541,3306.683867083,3307.377204583,1,0.933885750000172
128,36,19,categorization,0,bathroom,SHINEd_sun_apkruvsevgegsdwp.tif,44,0.0666666666666667,0.0666666666666667,0.916666666666667,3307.382069166,3308.092634416,13,3307.443721708,3307.504696875,3308.106905208,3309.016910666,1,0.710565249999945
128,37,19,categorization,0,bathroom,SHINEd_sun_aunuadmjocsddsrl.tif,52,0.0666666666666667,0.0666666666666667,1.38333333333333,3309.022778416,3309.604213291,9,3309.084504875,3309.145358958,3309.613769166,3310.990477208,0,0.581434875000014
128,38,19,categorization,0,bathroom,SHINEd_sun_aspsyogrekjtfozg.tif,50,0.0666666666666667,0.0666666666666667,1.98333333333333,3311.007615958,3311.720593625,13,3311.073864875,3311.140255041,3311.746513708,3313.723239416,1,0.712977667000359
128,39,19,categorization,0,bathroom,SHINEd_sun_agrwbmhcpmfuwmsg.tif,24,0.0666666666666667,0.0666666666666667,1.21666666666667,3313.741241958,3314.535749875,13,3313.8081465,3313.873636625,3314.563995416,3315.774030166,1,0.794507916999919
128,40,19,categorization,0,kitchen,SHINEd_sun_aarfiyshqohlwkmo.tif,67,0.0666666666666667,0.0666666666666667,0.883333333333333,3315.791292333,3316.323500875,9,3315.857978416,3315.923794833,3316.347227041,3317.223930625,1,0.532208541999807
128,41,19,categorization,0,kitchen,SHINEd_sun_abrcnpqqhmjwekyf.tif,73,0.0666666666666667,0.0666666666666667,1.36666666666667,3317.23349025,3317.804378166,9,3317.298556875,3317.361940916,3317.814655083,3319.174702291,1,0.57088791599972
128,42,19,categorization,0,kitchen,SHINEd_sun_acfmftudsenhrfhy.tif,74,0.0666666666666667,0.0666666666666667,1.78333333333333,3319.191077708,3319.750132166,9,3319.255826875,3319.32280725,3319.779157416,3321.555874875,1,0.559054457999991
128,43,19,categorization,0,bathroom,SHINEd_sun_abapwbhyhkfixyex.tif,14,0.0666666666666667,0.0666666666666667,1.53333333333333,3321.574138958,3322.105034416,9,3321.640631666,3321.706876875,3322.1299035,3323.656604416,0,0.530895458000032
128,44,19,categorization,0,kitchen,SHINEd_sun_aegoxogugdkwpmpj.tif,80,0.0666666666666667,0.0666666666666667,0.8,3323.674219583,3324.251400041,9,3323.74069925,3323.806759375,3324.280322958,3325.07369875,1,0.57718045799993
128,45,19,categorization,0,kitchen,SHINEd_sun_acwjdupvyjsugpay.tif,76,0.0666666666666667,0.0666666666666667,1,3325.090911,3325.724693875,9,3325.157279958,3325.218676625,3325.737670375,3326.731009291,1,0.633782875000179
128,46,19,categorization,0,kitchen,SHINEd_sun_agorklincwxrdtga.tif,87,0.0666666666666667,0.0666666666666667,1.01666666666667,3326.735772708,3327.283825291,9,3326.79767425,3326.858404125,3327.293516541,3328.3035585,1,0.548052583000299
128,47,19,categorization,0,kitchen,SHINEd_sun_aamedkxepzlwuxes.tif,65,0.0666666666666667,0.0666666666666667,1.83333333333333,3328.311980083,3328.892487458,9,3328.376213375,3328.442474208,3328.915002208,3330.741717333,1,0.580507374999797
128,48,19,categorization,0,bathroom,SHINEd_sun_anhioqovhscjqqwb.tif,38,0.0666666666666667,0.0666666666666667,1.03333333333333,3330.759024125,3331.445387708,13,3330.825705916,3330.89160475,3331.46451875,3332.491236375,1,0.686363583000002
128,49,19,categorization,0,bathroom,SHINEd_sun_apkxzenqapsujocq.tif,45,0.0666666666666667,0.0666666666666667,1.16666666666667,3332.506282125,3333.284421208,13,3332.5690305,3332.629015625,3333.297628541,3334.457664458,1,0.778139083000042
128,50,19,categorization,0,kitchen,SHINEd_sun_agzzivivdpnawacl.tif,89,0.0666666666666667,0.0666666666666667,1,3334.467034958,3335.038059458,13,3334.533369833,3334.599132958,3335.055134375,3336.048507208,0,0.571024500000021
