sub_num,trial,block,task,is_practice,category,image,texture,duration,mask_dur,jitter,stim_time,time_of_resp,trial_response,mask_time,fix_time,jit_onset,trial_end,trial_accuracy,RT
128,1,5,categorization,0,kitchen,SHINEd_sun_adgqasybjyktddhj.tif,78,0.0666666666666667,0.0666666666666667,1.7,1373.304161916,1374.98049475,9,1373.365881,1373.4267915,1374.9961065,1376.689488708,1,1.67633283399982
128,2,5,categorization,0,bathroom,SHINEd_sun_alotolagknyrgtsk.tif,35,0.0666666666666667,0.0666666666666667,1.81666666666667,1376.707140958,1377.763655041,9,1376.773733541,1376.839575166,1377.778885333,1379.588944791,0,1.05651408299991
128,3,5,categorization,0,bathroom,SHINEd_sun_apmqjbnwghzuhhzh.tif,46,0.0666666666666667,0.0666666666666667,1.23333333333333,1379.606630416,1380.726886833,13,1379.673336666,1379.73906725,1380.745794583,1381.972497708,1,1.12025641700006
128,4,5,categorization,0,kitchen,SHINEd_sun_aunzlwrbjumxhwdj.tif,103,0.0666666666666667,0.0666666666666667,1.4,1381.989333458,1382.799861791,9,1382.056377208,1382.121775333,1382.828770208,1384.222149291,1,0.810528333000093
128,5,5,categorization,0,kitchen,SHINEd_sun_aaxxjlsuzvqlgylf.tif,68,0.0666666666666667,0.0666666666666667,1.03333333333333,1384.2397515,1385.177588291,9,1384.307953166,1384.373202666,1385.196245916,1386.222955666,1,0.937836790999881
128,6,5,categorization,0,kitchen,SHINEd_sun_acfmftudsenhrfhy.tif,74,0.0666666666666667,0.0666666666666667,1.38333333333333,1386.233314,1386.951672375,9,1386.298181125,1386.364307541,1386.970571833,1388.347295291,1,0.71835837499998
128,7,5,categorization,0,kitchen,SHINEd_sun_amjjdeyrggfqgmom.tif,100,0.0666666666666667,0.0666666666666667,2,1388.357223583,1389.164428375,9,1388.422460083,1388.490016333,1389.179607666,1391.172992291,1,0.807204791999993
128,8,5,categorization,0,kitchen,SHINEd_sun_akcjzhbbjlbogpdi.tif,99,0.0666666666666667,0.0666666666666667,1.85,1391.190844125,1391.99814625,9,1391.255342583,1391.321044833,1392.028128541,1393.871514958,1,0.807302124999978
128,9,5,categorization,0,kitchen,SHINEd_sun_aapllqyqlykszopd.tif,66,0.0666666666666667,0.0666666666666667,0.816666666666667,1393.882234583,1394.676508041,9,1393.949372916,1394.014949541,1394.7045555,1395.514563791,1,0.794273458000134
128,10,5,categorization,0,kitchen,SHINEd_sun_aamedkxepzlwuxes.tif,65,0.0666666666666667,0.0666666666666667,1.85,1395.519385541,1396.331638291,9,1395.581125875,1395.642120166,1396.343964125,1398.187328958,1,0.812252749999971
128,11,5,categorization,0,kitchen,SHINEd_sun_abpwyqmlzafvklqo.tif,72,0.0666666666666667,0.0666666666666667,0.733333333333333,1398.20404575,1398.8681485,9,1398.270708791,1398.336106083,1398.891236375,1399.617910791,1,0.664102749999984
128,12,5,categorization,0,bathroom,SHINEd_sun_anhioqovhscjqqwb.tif,38,0.0666666666666667,0.0666666666666667,0.716666666666667,1399.622703375,1400.235741666,13,1399.684337708,1399.74537725,1400.247261291,1400.957266708,1,0.613038291000066
128,13,5,categorization,0,bathroom,SHINEd_sun_avhrdrntsqrjzccq.tif,55,0.0666666666666667,0.0666666666666667,0.833333333333333,1400.961984375,1401.867915125,13,1401.023773041,1401.084596625,1401.886547083,1402.713218958,1,0.905930750000152
128,14,5,categorization,0,kitchen,SHINEd_sun_agubuxuukhzyzpdp.tif,88,0.0666666666666667,0.0666666666666667,0.95,1402.718373208,1403.403758625,9,1402.780096625,1402.840950416,1403.409400958,1404.352739375,1,0.685385416999907
128,15,5,categorization,0,bathroom,SHINEd_sun_agyqfjcfkdcydepw.tif,25,0.0666666666666667,0.0666666666666667,1.96666666666667,1404.35736325,1405.139650541,9,1404.418995125,1404.480013916,1405.148917125,1407.108965833,0,0.782287291000102
128,16,5,categorization,0,bathroom,SHINEd_sun_ajlawzvmubibwbpy.tif,30,0.0666666666666667,0.0666666666666667,1.86666666666667,1407.124761375,1407.808203291,13,1407.191523541,1407.251866833,1407.824403041,1409.684449625,1,0.683441915999992
128,17,5,categorization,0,kitchen,SHINEd_sun_aegoxogugdkwpmpj.tif,80,0.0666666666666667,0.0666666666666667,1.51666666666667,1409.701279583,1410.297183,9,1409.768007291,1409.833727083,1410.3236835,1411.833756916,1,0.595903416999818
128,18,5,categorization,0,bathroom,SHINEd_sun_asfwthctfqerjvxr.tif,49,0.0666666666666667,0.0666666666666667,1.3,1411.849039333,1412.89317575,9,1411.915934416,1411.981833125,1412.921914708,1414.215281375,0,1.04413641699989
128,19,5,categorization,0,bathroom,SHINEd_sun_aunuadmjocsddsrl.tif,52,0.0666666666666667,0.0666666666666667,1.91666666666667,1414.234443458,1415.072574916,9,1414.301272625,1414.366776,1415.089760875,1416.999808583,0,0.838131457999907
128,20,5,categorization,0,bathroom,SHINEd_sun_aclfzgynxzxlbepz.tif,19,0.0666666666666667,0.0666666666666667,1.23333333333333,1417.016510333,1417.925638458,13,1417.082958583,1417.14891925,1417.95568625,1419.18240925,1,0.909128125000052
128,21,5,categorization,0,bathroom,SHINEd_sun_apeeialkgkuxddgh.tif,42,0.0666666666666667,0.0666666666666667,0.866666666666667,1419.200627791,1419.913543166,13,1419.265838875,1419.33327575,1419.940073833,1420.800122125,1,0.712915374999966
128,22,5,categorization,0,bathroom,SHINEd_sun_aleqenyvunhactkl.tif,32,0.0666666666666667,0.0666666666666667,0.8,1420.816885541,1422.012027208,13,1420.88378675,1420.949175416,1422.017810625,1422.811150083,1,1.19514166700014
128,23,5,categorization,0,bathroom,SHINEd_sun_aapitsgbtktqubfy.tif,12,0.0666666666666667,0.0666666666666667,1.51666666666667,1422.815768333,1423.571897666,13,1422.877523416,1422.93867475,1423.590518416,1425.100554458,1,0.75612933299999
128,24,5,categorization,0,kitchen,SHINEd_labelme_rykdqxenmhulbdn.tif,63,0.0666666666666667,0.0666666666666667,1.18333333333333,1425.11816475,1425.856807875,9,1425.184732791,1425.248760833,1425.870992291,1427.047715833,1,0.738643124999953
128,25,5,categorization,0,kitchen,SHINEd_sun_aqeaevwwwjoqhzvl.tif,101,0.0666666666666667,0.0666666666666667,1.6,1427.056426583,1427.921193166,9,1427.122377958,1427.188540916,1427.944981416,1429.538359166,1,0.864766582999891
128,26,5,categorization,0,kitchen,SHINEd_sun_auaiucuqpdausiva.tif,102,0.0666666666666667,0.0666666666666667,1.56666666666667,1429.550745375,1430.283436291,9,1429.617238541,1429.682982583,1430.305819791,1431.865873958,1,0.732690916000138
128,27,5,categorization,0,kitchen,SHINEd_sun_axyyrmzcupyhlivc.tif,107,0.0666666666666667,0.0666666666666667,1.36666666666667,1431.88318725,1432.665504083,9,1431.949698666,1432.015410583,1432.688857958,1434.048900625,1,0.782316833000095
128,28,5,categorization,0,bathroom,SHINEd_sun_awnqiikzaispgmwo.tif,56,0.0666666666666667,0.0666666666666667,1.53333333333333,1434.066700791,1434.8526405,13,1434.13347775,1434.199291541,1434.87228525,1436.398991666,1,0.785939709000104
128,29,5,categorization,0,kitchen,SHINEd_sun_azmutvzbxypaceni.tif,110,0.0666666666666667,0.0666666666666667,1.4,1436.416693125,1437.0464665,9,1436.483537458,1436.549629208,1437.072556583,1438.46593225,1,0.629773375000013
128,30,5,categorization,0,kitchen,SHINEd_sun_aypmqwcualkenuoe.tif,109,0.0666666666666667,0.0666666666666667,1.06666666666667,1438.483465291,1439.29273625,9,1438.550282916,1438.616325375,1439.304432875,1440.364468916,1,0.80927095900006
128,31,5,categorization,0,bathroom,SHINEd_sun_axldvoqbuvuggfmq.tif,57,0.0666666666666667,0.0666666666666667,1.63333333333333,1440.37421725,1441.144403208,9,1440.439204041,1440.50545825,1441.161594916,1442.788318833,0,0.770185958000184
128,32,5,categorization,0,kitchen,SHINEd_sun_ahspylgoovwmwvgk.tif,93,0.0666666666666667,0.0666666666666667,1.8,1442.806314791,1443.428933125,9,1442.873231083,1442.938661875,1443.444540833,1445.237909291,1,0.622618333999981
128,33,5,categorization,0,kitchen,SHINEd_sun_ahpczsiumwwocjkv.tif,92,0.0666666666666667,0.0666666666666667,1.53333333333333,1445.249254708,1445.849218833,9,1445.314598416,1445.378554208,1445.868063291,1447.394769166,1,0.599964124999815
128,34,5,categorization,0,bathroom,SHINEd_sun_abjtwfukuwddzted.tif,15,0.0666666666666667,0.0666666666666667,0.766666666666667,1447.406494583,1447.97994025,13,1447.473276583,1447.539146208,1447.995005291,1448.75504425,1,0.573445666999987
128,35,5,categorization,0,bathroom,SHINEd_sun_auzqhkafidnkrwmo.tif,54,0.0666666666666667,0.0666666666666667,1.86666666666667,1448.771397291,1449.923176125,9,1448.838228,1448.90392325,1449.93972425,1451.799776291,0,1.15177883399997
128,36,5,categorization,0,kitchen,SHINEd_sun_ahdycvpopffkzzsu.tif,90,0.0666666666666667,0.0666666666666667,1.13333333333333,1451.818621,1452.531570583,9,1451.885446416,1451.95124875,1452.558128541,1453.684831833,1,0.712949583000182
128,37,5,categorization,0,kitchen,SHINEd_sun_aarfiyshqohlwkmo.tif,67,0.0666666666666667,0.0666666666666667,1.73333333333333,1453.693443416,1454.515997333,9,1453.758481375,1453.825881041,1454.531918666,1456.258617666,1,0.82255391700005
128,38,5,categorization,0,kitchen,SHINEd_sun_ajcbwwvdlsvjyzje.tif,96,0.0666666666666667,0.0666666666666667,0.766666666666667,1456.273467208,1458.227874291,9,1456.340055291,1456.405875791,1458.241933416,1459.001938208,1,1.95440708299998
128,39,5,categorization,0,bathroom,SHINEd_sun_afcoljnjfoxjtgja.tif,20,0.0666666666666667,0.0666666666666667,1.85,1459.006609708,1459.7079065,9,1459.068357083,1459.129310083,1459.7143995,1461.557781333,0,0.701296791999994
128,40,5,categorization,0,bathroom,SHINEd_sun_apkruvsevgegsdwp.tif,44,0.0666666666666667,0.0666666666666667,0.966666666666667,1461.5750155,1462.246139416,9,1461.641532208,1461.707730625,1462.263925625,1463.223933,0,0.671123915999942
128,41,5,categorization,0,bathroom,SHINEd_sun_aoybiabnpadelefl.tif,41,0.0666666666666667,0.0666666666666667,1.06666666666667,1463.2286655,1463.963208041,9,1463.290354583,1463.351384625,1463.969804875,1465.029854166,0,0.734542540999882
128,42,5,categorization,0,kitchen,SHINEd_sun_ahywdevtimnqcsln.tif,94,0.0666666666666667,0.0666666666666667,1.38333333333333,1465.038177875,1465.722893083,9,1465.102821916,1465.168402791,1465.740993625,1467.117704291,1,0.684715207999943
128,43,5,categorization,0,bathroom,SHINEd_sun_alkosphxlxwjwgjd.tif,34,0.0666666666666667,0.0666666666666667,0.766666666666667,1467.12752425,1467.92754275,9,1467.193266083,1467.255728166,1467.944921708,1468.704978375,0,0.800018499999851
128,44,5,categorization,0,kitchen,SHINEd_sun_aeqdocilnnpuvuhx.tif,83,0.0666666666666667,0.0666666666666667,0.866666666666667,1468.720796583,1469.459300125,9,1468.787107,1468.853230416,1469.471788666,1470.331793791,1,0.738503541999989
128,45,5,categorization,0,kitchen,SHINEd_sun_aggjlwcdjsjcaemh.tif,86,0.0666666666666667,0.0666666666666667,1.25,1470.3364745,1471.100015041,9,1470.398194541,1470.459063958,1471.111156375,1472.354534875,1,0.763540541000111
128,46,5,categorization,0,bathroom,SHINEd_sun_aljolscmmzydegqp.tif,33,0.0666666666666667,0.0666666666666667,1.03333333333333,1472.373135291,1473.0327965,13,1472.439877083,1472.5053125,1473.062029708,1474.088747041,1,0.659661208999978
128,47,5,categorization,0,kitchen,SHINEd_sun_acwjdupvyjsugpay.tif,76,0.0666666666666667,0.0666666666666667,0.783333333333333,1474.104373666,1474.811650083,9,1474.167035583,1474.227052791,1474.829103541,1475.605776333,1,0.707276417000003
128,48,5,categorization,0,bathroom,SHINEd_sun_acduarbnmmoglmiv.tif,16,0.0666666666666667,0.0666666666666667,0.7,1475.610637708,1476.419057291,13,1475.672375625,1475.733454166,1476.435603666,1477.128941541,1,0.808419582999932
128,49,5,categorization,0,bathroom,SHINEd_sun_acegryoqftbzowsg.tif,17,0.0666666666666667,0.0666666666666667,1.75,1477.13366225,1478.179474541,9,1477.195344416,1477.256401708,1478.191630666,1479.935010416,0,1.04581229099995
128,50,5,categorization,0,kitchen,SHINEd_labelme_kxvouciolcpqplr.tif,62,0.0666666666666667,0.0666666666666667,1.36666666666667,1479.951784583,1481.285778125,9,1480.018535083,1480.084712375,1481.306357458,1482.6663965,1,1.33399354199992
