sub_num,trial,block,task,is_practice,category,image,texture,duration,mask_dur,jitter,stim_time,time_of_resp,trial_response,mask_time,fix_time,jit_onset,trial_end,trial_accuracy,RT
128,1,3,categorization,0,kitchen,SHINEd_sun_aqeaevwwwjoqhzvl.tif,101,0.0666666666666667,0.0666666666666667,0.85,1098.653382791,1099.605305041,13,1098.715875333,1098.776097916,1099.611435208,1100.454773958,0,0.951922250000052
128,2,3,categorization,0,kitchen,SHINEd_sun_ahdycvpopffkzzsu.tif,90,0.0666666666666667,0.0666666666666667,1.65,1100.460341541,1101.061588375,9,1100.521969791,1100.583045125,1101.068202291,1102.711579958,1,0.601246833999994
128,3,3,categorization,0,bathroom,SHINEd_sun_apeeialkgkuxddgh.tif,42,0.0666666666666667,0.0666666666666667,0.783333333333333,1102.729735625,1103.642016791,13,1102.79624325,1102.862117041,1103.668670458,1104.445342791,1,0.912281165999957
128,4,3,categorization,0,kitchen,SHINEd_sun_akcjzhbbjlbogpdi.tif,99,0.0666666666666667,0.0666666666666667,0.933333333333333,1104.451146625,1105.093257208,9,1104.512881208,1104.573848625,1105.109495916,1106.036167666,1,0.642110582999976
128,5,3,categorization,0,kitchen,SHINEd_sun_aadbddgrdsjugojn.tif,64,0.0666666666666667,0.0666666666666667,0.866666666666667,1106.041044875,1106.941366208,9,1106.102719375,1106.163658625,1106.948969666,1107.808975208,1,0.900321333000193
128,6,3,categorization,0,bathroom,SHINEd_sun_amzlamotzwfkwjco.tif,37,0.0666666666666667,0.0666666666666667,1.11666666666667,1107.814262666,1108.7574925,9,1107.875908708,1107.936907916,1108.772024583,1109.882068333,0,0.943229833999794
128,7,3,categorization,0,kitchen,SHINEd_sun_abrcnpqqhmjwekyf.tif,73,0.0666666666666667,0.0666666666666667,0.966666666666667,1109.890785541,1110.864663208,9,1109.955523416,1110.023146916,1110.878286375,1111.838331333,1,0.973877666999897
128,8,3,categorization,0,kitchen,SHINEd_sun_aaxxjlsuzvqlgylf.tif,68,0.0666666666666667,0.0666666666666667,1.78333333333333,1111.850381125,1112.580818791,9,1111.913002416,1111.972923666,1112.591492708,1114.368208083,1,0.730437665999943
128,9,3,categorization,0,kitchen,SHINEd_sun_acwjdupvyjsugpay.tif,76,0.0666666666666667,0.0666666666666667,1.55,1114.385419333,1115.030949916,9,1114.452202583,1114.517907625,1115.057582625,1116.600962375,1,0.645530582999982
128,10,3,categorization,0,kitchen,SHINEd_sun_aegoxogugdkwpmpj.tif,80,0.0666666666666667,0.0666666666666667,1.41666666666667,1116.617250875,1117.352584916,9,1116.684035125,1116.750249333,1117.372331333,1118.782381583,1,0.735334040999987
128,11,3,categorization,0,kitchen,SHINEd_sun_auaiucuqpdausiva.tif,102,0.0666666666666667,0.0666666666666667,0.8,1118.802025125,1119.824953208,9,1118.869111791,1118.9348425,1119.841188,1120.634527833,1,1.0229280829999
128,12,3,categorization,0,kitchen,SHINEd_sun_adgqasybjyktddhj.tif,78,0.0666666666666667,0.0666666666666667,1.28333333333333,1120.640358958,1121.316783833,9,1120.702142791,1120.763024958,1121.331516083,1122.608241833,1,0.676424875000066
128,13,3,categorization,0,bathroom,SHINEd_sun_agyqfjcfkdcydepw.tif,25,0.0666666666666667,0.0666666666666667,1.66666666666667,1122.625842083,1123.876658333,9,1122.692111708,1122.7583105,1123.900814708,1125.560852833,0,1.25081625000007
128,14,3,categorization,0,bathroom,SHINEd_sun_ahqjwnzgolcaoidx.tif,29,0.0666666666666667,0.0666666666666667,1.81666666666667,1125.577437833,1126.204946958,13,1125.643811291,1125.710006375,1126.233159666,1128.043214833,1,0.62750912499996
128,15,3,categorization,0,bathroom,SHINEd_sun_ahijqszoswveeyji.tif,28,0.0666666666666667,0.0666666666666667,1.35,1128.059665458,1128.848943625,13,1128.126112,1128.192362916,1128.865360625,1130.208730083,1,0.78927816700002
128,16,3,categorization,0,bathroom,SHINEd_sun_ausgutylgojavyoq.tif,53,0.0666666666666667,0.0666666666666667,0.916666666666667,1130.221492875,1130.797454375,13,1130.288260916,1130.354381416,1130.827384208,1131.737433625,1,0.575961499999949
128,17,3,categorization,0,kitchen,SHINEd_sun_ajcbwwvdlsvjyzje.tif,96,0.0666666666666667,0.0666666666666667,0.916666666666667,1131.752789083,1132.605095791,9,1131.819741666,1131.885340083,1132.621177416,1133.531181833,1,0.852306708000015
128,18,3,categorization,0,kitchen,SHINEd_sun_abftihopvusyfakt.tif,71,0.0666666666666667,0.0666666666666667,1.31666666666667,1133.53620275,1134.716960708,9,1133.598028208,1133.658962666,1134.727758458,1136.03781175,1,1.18075795799996
128,19,3,categorization,0,kitchen,SHINEd_sun_abdxkyyxwfskuaqb.tif,70,0.0666666666666667,0.0666666666666667,1.45,1136.0536245,1137.192957708,13,1136.12023775,1136.186352166,1137.207825666,1138.65119225,0,1.13933320799993
128,20,3,categorization,0,bathroom,SHINEd_sun_awnqiikzaispgmwo.tif,56,0.0666666666666667,0.0666666666666667,0.95,1138.669966708,1139.512906666,9,1138.73674225,1138.802630875,1139.542657083,1140.485996625,0,0.842939957999988
128,21,3,categorization,0,bathroom,SHINEd_sun_abjtwfukuwddzted.tif,15,0.0666666666666667,0.0666666666666667,1.38333333333333,1140.491460666,1141.788681416,9,1140.553171833,1140.614320291,1141.799865916,1143.176573833,0,1.29722074999995
128,22,3,categorization,0,bathroom,SHINEd_sun_abapwbhyhkfixyex.tif,14,0.0666666666666667,0.0666666666666667,1.16666666666667,1143.193871958,1143.911472208,13,1143.258469375,1143.325831916,1143.932234875,1145.092287708,1,0.717600250000032
128,23,3,categorization,0,kitchen,SHINEd_sun_acgtpgfybqjmzeyw.tif,75,0.0666666666666667,0.0666666666666667,1.61666666666667,1145.103083041,1145.695717333,9,1145.169701916,1145.234145208,1145.72421225,1147.334250166,1,0.592634291999957
128,24,3,categorization,0,kitchen,SHINEd_sun_azmutvzbxypaceni.tif,110,0.0666666666666667,0.0666666666666667,1.38333333333333,1147.348336958,1148.277365166,13,1147.415553916,1147.48079675,1148.303901333,1149.680618541,0,0.929028208000091
128,25,3,categorization,0,bathroom,SHINEd_sun_avhrdrntsqrjzccq.tif,55,0.0666666666666667,0.0666666666666667,1.78333333333333,1149.697633,1151.893174666,9,1149.763822291,1149.829797958,1151.899284166,1153.675987916,0,2.19554166600005
128,26,3,categorization,0,kitchen,SHINEd_sun_auticobqsbwgoppi.tif,104,0.0666666666666667,0.0666666666666667,0.783333333333333,1153.692682375,1154.538451416,9,1153.759396541,1153.82549375,1154.565512291,1155.342186375,1,0.84576904100004
128,27,3,categorization,0,bathroom,SHINEd_sun_aclfzgynxzxlbepz.tif,19,0.0666666666666667,0.0666666666666667,1.65,1155.347051541,1155.996916458,13,1155.408946083,1155.469732458,1156.005317791,1157.648684708,1,0.649864917000059
128,28,3,categorization,0,bathroom,SHINEd_sun_aunuadmjocsddsrl.tif,52,0.0666666666666667,0.0666666666666667,1.86666666666667,1157.668029291,1158.51021675,9,1157.734418583,1157.800531083,1158.540418958,1160.400454541,0,0.842187458999888
128,29,3,categorization,0,kitchen,SHINEd_sun_agzzivivdpnawacl.tif,89,0.0666666666666667,0.0666666666666667,1.23333333333333,1160.418315916,1164.081658083,9,1160.485155958,1160.550893708,1164.103589791,1165.330294333,1,3.66334216700011
128,30,3,categorization,0,kitchen,SHINEd_sun_aunzlwrbjumxhwdj.tif,103,0.0666666666666667,0.0666666666666667,0.7,1165.340531125,1167.244997875,13,1165.405528208,1165.473202125,1167.259032958,1167.952371666,0,1.90446674999998
128,31,3,categorization,0,kitchen,SHINEd_sun_avszsnwsbuqfgzbn.tif,105,0.0666666666666667,0.0666666666666667,0.716666666666667,1167.957158458,1169.516591458,9,1168.018998625,1168.079753833,1169.53213625,1170.242143083,1,1.5594329999999
128,32,3,categorization,0,bathroom,SHINEd_sun_afcoljnjfoxjtgja.tif,20,0.0666666666666667,0.0666666666666667,1.05,1170.24726875,1174.581583291,9,1170.309011791,1170.369961458,1174.598109291,1175.641475875,0,4.33431454099991
128,33,3,categorization,0,kitchen,SHINEd_sun_admlmbcdswaszruo.tif,79,0.0666666666666667,0.0666666666666667,1.1,1175.651163416,1179.631544291,13,1175.7161155,1175.782347333,1179.651262583,1180.744628541,0,3.98038087500004
128,34,3,categorization,0,bathroom,SHINEd_labelme_sfxiulhjbhlyiyt.tif,11,0.0666666666666667,0.0666666666666667,1.13333333333333,1180.752164583,1181.442214833,9,1180.8167235,1180.884584916,1181.457146208,1182.58386375,0,0.690050250000013
128,35,3,categorization,0,bathroom,SHINEd_sun_acgyywnybuveqsro.tif,18,0.0666666666666667,0.0666666666666667,1.38333333333333,1182.601450916,1183.452654833,9,1182.66774775,1182.732145166,1183.467529791,1184.844232666,0,0.851203917000021
128,36,3,categorization,0,kitchen,SHINEd_sun_ahljzhgcdpomplvg.tif,91,0.0666666666666667,0.0666666666666667,1.5,1184.861759333,1185.717275666,9,1184.9281015,1184.994145916,1185.733178833,1187.22657125,1,0.855516332999969
128,37,3,categorization,0,kitchen,SHINEd_sun_agubuxuukhzyzpdp.tif,88,0.0666666666666667,0.0666666666666667,1.61666666666667,1187.236227041,1188.37516125,9,1187.30102725,1187.3630175,1188.402751,1190.0128015,1,1.13893420900013
128,38,3,categorization,0,bathroom,SHINEd_sun_ambriybtogmepttm.tif,36,0.0666666666666667,0.0666666666666667,0.983333333333333,1190.029301625,1190.9607645,9,1190.095902208,1190.1615515,1190.984705875,1191.961379791,0,0.931462875000079
128,39,3,categorization,0,bathroom,SHINEd_sun_acduarbnmmoglmiv.tif,16,0.0666666666666667,0.0666666666666667,1.3,1191.967158125,1195.514335041,13,1192.028914541,1192.089773916,1195.530814125,1196.824188375,1,3.54717691600013
128,40,3,categorization,0,bathroom,SHINEd_sun_asfwthctfqerjvxr.tif,49,0.0666666666666667,0.0666666666666667,1.03333333333333,1196.842205416,1197.694836,13,1196.908471041,1196.974741541,1197.713998333,1198.74071,1,0.852630583999826
128,41,3,categorization,0,bathroom,SHINEd_sun_auzqhkafidnkrwmo.tif,54,0.0666666666666667,0.0666666666666667,1.45,1198.750471125,1199.548216166,13,1198.815279041,1198.881633791,1199.571675125,1201.0150495,1,0.797745040999871
128,42,3,categorization,0,kitchen,SHINEd_sun_ahspylgoovwmwvgk.tif,93,0.0666666666666667,0.0666666666666667,1.23333333333333,1201.03163425,1201.760768833,9,1201.098303416,1201.164078,1201.787080333,1203.013794958,1,0.729134582999905
128,43,3,categorization,0,kitchen,SHINEd_labelme_brsyyvweiuaazfr.tif,61,0.0666666666666667,0.0666666666666667,1.26666666666667,1203.030107041,1203.928840041,9,1203.096125875,1203.162056208,1203.952181375,1205.212227041,1,0.898732999999993
128,44,3,categorization,0,bathroom,SHINEd_sun_acegryoqftbzowsg.tif,17,0.0666666666666667,0.0666666666666667,1.03333333333333,1205.222027083,1205.972170125,13,1205.286448791,1205.351253791,1205.990651541,1207.017360958,1,0.750143041999991
128,45,3,categorization,0,kitchen,SHINEd_sun_aeqdocilnnpuvuhx.tif,83,0.0666666666666667,0.0666666666666667,1.31666666666667,1207.034577375,1207.684185916,9,1207.101393875,1207.159428541,1207.694738875,1209.004773,1,0.649608540999907
128,46,3,categorization,0,bathroom,SHINEd_sun_apkruvsevgegsdwp.tif,44,0.0666666666666667,0.0666666666666667,1.7,1209.020362166,1209.726097916,9,1209.086930083,1209.153146166,1209.742230791,1211.435607125,0,0.705735750000031
128,47,3,categorization,0,bathroom,SHINEd_sun_axldvoqbuvuggfmq.tif,57,0.0666666666666667,0.0666666666666667,1.35,1211.452474166,1212.143505166,9,1211.519210625,1211.585079333,1212.157347958,1213.50073825,0,0.691031000000066
128,48,3,categorization,0,kitchen,SHINEd_sun_aggjlwcdjsjcaemh.tif,86,0.0666666666666667,0.0666666666666667,0.8,1213.518024333,1214.506409875,9,1213.583246916,1213.650702375,1214.52210475,1215.315444833,1,0.988385541999833
128,49,3,categorization,0,bathroom,SHINEd_sun_aljolscmmzydegqp.tif,33,0.0666666666666667,0.0666666666666667,0.766666666666667,1215.32042525,1216.324442833,9,1215.382169875,1215.443097,1216.328786416,1217.088790625,0,1.00401758299995
128,50,3,categorization,0,bathroom,SHINEd_sun_atstyziqcmkahyxk.tif,51,0.0666666666666667,0.0666666666666667,1.38333333333333,1217.093739083,1218.628353833,9,1217.155674416,1217.216379375,1218.635246958,1220.0119705,0,1.53461474999995
