sub_num,trial,block,task,is_practice,category,image,texture,duration,mask_dur,jitter,stim_time,time_of_resp,trial_response,mask_time,fix_time,jit_onset,trial_end,trial_accuracy,RT
128,1,11,categorization,0,kitchen,SHINEd_sun_aymvwlarqodbwuoc.tif,108,0.0666666666666667,0.0666666666666667,0.8,2192.731261541,2195.979265,13,2192.79367375,2192.85422,2196.006215541,2196.799554625,0,3.24800345899985
128,2,11,categorization,0,bathroom,SHINEd_sun_aggnnqpdorgxpvce.tif,21,0.0666666666666667,0.0666666666666667,1.13333333333333,2196.804716541,2198.944955833,13,2196.866378875,2196.927345208,2198.963358333,2200.090063666,1,2.14023929200039
128,3,11,categorization,0,bathroom,SHINEd_sun_agguqiubmwhqqunb.tif,22,0.0666666666666667,0.0666666666666667,1.05,2200.099704333,2200.848709833,9,2200.16451525,2200.232333166,2200.872127458,2201.915513875,0,0.749005500000294
128,4,11,categorization,0,kitchen,SHINEd_sun_ahspylgoovwmwvgk.tif,93,0.0666666666666667,0.0666666666666667,1.05,2201.931709125,2202.512419541,9,2201.995479208,2202.054844583,2202.523242916,2203.56661125,1,0.580710415999874
128,5,11,categorization,0,bathroom,SHINEd_sun_aghyqhbptboemmoq.tif,23,0.0666666666666667,0.0666666666666667,1.63333333333333,2203.576913458,2204.366346166,9,2203.641810875,2203.707369583,2204.3794475,2206.006149541,0,0.789432707999822
128,6,11,categorization,0,kitchen,SHINEd_sun_aadbddgrdsjugojn.tif,64,0.0666666666666667,0.0666666666666667,0.85,2206.02340225,2206.6119585,9,2206.089976416,2206.155679083,2206.628458333,2207.471850291,1,0.588556250000238
128,7,11,categorization,0,bathroom,SHINEd_sun_ahcvzmoyaycdoftf.tif,27,0.0666666666666667,0.0666666666666667,1.5,2207.487414458,2208.104561833,13,2207.554332958,2207.619539666,2208.121536791,2209.614921041,1,0.617147375000059
128,8,11,categorization,0,kitchen,SHINEd_sun_acxkpeoqbwcxfvip.tif,77,0.0666666666666667,0.0666666666666667,1.46666666666667,2209.631313833,2210.230093833,9,2209.697929,2209.764188791,2210.253506083,2211.713542833,1,0.598779999999806
128,9,11,categorization,0,kitchen,SHINEd_sun_ahdycvpopffkzzsu.tif,90,0.0666666666666667,0.0666666666666667,1.06666666666667,2211.730441916,2212.393812416,9,2211.79711075,2211.8630765,2212.419742708,2213.479774833,1,0.663370499999928
128,10,11,categorization,0,kitchen,SHINEd_sun_aexklacwqwezaorf.tif,84,0.0666666666666667,0.0666666666666667,0.8,2213.487866958,2214.076753166,9,2213.552368333,2213.617512125,2214.107974583,2214.9013625,1,0.588886208000076
128,11,11,categorization,0,kitchen,SHINEd_sun_abpwyqmlzafvklqo.tif,72,0.0666666666666667,0.0666666666666667,1.41666666666667,2214.917712208,2215.449210916,9,2214.985032083,2215.050065875,2215.470522208,2216.880581458,1,0.531498708000072
128,12,11,categorization,0,kitchen,SHINEd_sun_aarfiyshqohlwkmo.tif,67,0.0666666666666667,0.0666666666666667,1.71666666666667,2216.896952125,2217.409647916,9,2216.963834,2217.02927575,2217.436175291,2219.14622675,1,0.512695790999715
128,13,11,categorization,0,bathroom,SHINEd_sun_apkruvsevgegsdwp.tif,44,0.0666666666666667,0.0666666666666667,0.833333333333333,2219.162879333,2219.924946833,13,2219.227877958,2219.290152375,2219.946489916,2220.773165541,1,0.76206749999983
128,14,11,categorization,0,bathroom,SHINEd_sun_aljolscmmzydegqp.tif,33,0.0666666666666667,0.0666666666666667,0.783333333333333,2220.779047166,2221.673028291,9,2220.840762708,2220.901715666,2221.686891291,2222.463562041,0,0.893981124999755
128,15,11,categorization,0,kitchen,SHINEd_sun_acgtpgfybqjmzeyw.tif,75,0.0666666666666667,0.0666666666666667,0.866666666666667,2222.468260083,2223.13674925,9,2222.529914916,2222.590906041,2223.142849791,2224.002855666,1,0.668489166999734
128,16,11,categorization,0,bathroom,SHINEd_sun_abapwbhyhkfixyex.tif,14,0.0666666666666667,0.0666666666666667,1.08333333333333,2224.007589583,2224.600145583,9,2224.069329375,2224.130165375,2224.615372,2225.692089125,0,0.592556000000059
128,17,11,categorization,0,kitchen,SHINEd_sun_abdenxonkemggwsq.tif,69,0.0666666666666667,0.0666666666666667,1.1,2225.701749,2226.458947916,9,2225.766013083,2225.833356458,2226.470774375,2227.564144333,1,0.757198916000107
128,18,11,categorization,0,kitchen,SHINEd_sun_aypmqwcualkenuoe.tif,109,0.0666666666666667,0.0666666666666667,1.5,2227.579784583,2229.35283625,9,2227.646199583,2227.703884875,2229.372912333,2230.866286666,1,1.77305166699989
128,19,11,categorization,0,bathroom,SHINEd_sun_aspsyogrekjtfozg.tif,50,0.0666666666666667,0.0666666666666667,0.833333333333333,2230.883091791,2231.691923916,13,2230.949484916,2231.015550916,2231.721855458,2232.54852925,1,0.808832125000208
128,20,11,categorization,0,kitchen,SHINEd_sun_aenotlpyftoioydp.tif,82,0.0666666666666667,0.0666666666666667,1.76666666666667,2232.553860916,2233.096809583,9,2232.615556875,2232.676564708,2233.112042541,2234.872080541,1,0.542948667000019
128,21,11,categorization,0,bathroom,SHINEd_sun_apeeialkgkuxddgh.tif,42,0.0666666666666667,0.0666666666666667,1.18333333333333,2234.888744,2235.572125333,13,2234.955344958,2235.021704166,2235.594846666,2236.771567625,1,0.683381332999943
128,22,11,categorization,0,kitchen,SHINEd_sun_aegoxogugdkwpmpj.tif,80,0.0666666666666667,0.0666666666666667,0.933333333333333,2236.7816705,2237.307209791,9,2236.848273916,2236.914316541,2237.318989375,2238.245713166,1,0.525539290999859
128,23,11,categorization,0,bathroom,SHINEd_sun_axldvoqbuvuggfmq.tif,57,0.0666666666666667,0.0666666666666667,0.716666666666667,2238.262654208,2239.016558041,13,2238.32935925,2238.395627208,2239.03113575,2239.741142791,1,0.75390383299964
128,24,11,categorization,0,kitchen,SHINEd_sun_aunzlwrbjumxhwdj.tif,103,0.0666666666666667,0.0666666666666667,1.25,2239.74622125,2240.456948375,9,2239.807847291,2239.868888,2240.470722166,2241.714100375,1,0.710727125000176
128,25,11,categorization,0,bathroom,SHINEd_sun_axyrejkiiaqiurjk.tif,59,0.0666666666666667,0.0666666666666667,0.866666666666667,2241.730529875,2242.426227041,9,2241.79699425,2241.863049958,2242.453137958,2243.31318275,0,0.695697166000173
128,26,11,categorization,0,kitchen,SHINEd_sun_aaxxjlsuzvqlgylf.tif,68,0.0666666666666667,0.0666666666666667,1.08333333333333,2243.323779166,2244.328604333,9,2243.388866083,2243.456188333,2244.341912708,2245.418628791,1,1.00482516700004
128,27,11,categorization,0,kitchen,SHINEd_sun_akchetnepxlcxhsu.tif,98,0.0666666666666667,0.0666666666666667,1.9,2245.428467041,2246.06495375,9,2245.493030791,2245.559143041,2246.081594333,2247.97495925,1,0.636486708999655
128,28,11,categorization,0,kitchen,SHINEd_sun_acwjdupvyjsugpay.tif,76,0.0666666666666667,0.0666666666666667,0.866666666666667,2247.992815083,2248.613638916,9,2248.059366416,2248.125211583,2248.631067166,2249.491112375,1,0.620823833000031
128,29,11,categorization,0,bathroom,SHINEd_sun_acegryoqftbzowsg.tif,17,0.0666666666666667,0.0666666666666667,1.05,2249.507363208,2250.976837625,9,2249.571094291,2249.630667416,2250.982778125,2252.026147458,0,1.46947441700013
128,30,11,categorization,0,bathroom,SHINEd_sun_abjtwfukuwddzted.tif,15,0.0666666666666667,0.0666666666666667,1.65,2252.035631666,2252.563052041,13,2252.101055958,2252.166649,2252.589891375,2254.233269916,1,0.52742037500002
128,31,11,categorization,0,bathroom,SHINEd_sun_ambriybtogmepttm.tif,36,0.0666666666666667,0.0666666666666667,0.716666666666667,2254.24773075,2255.035515333,9,2254.314648375,2254.380236083,2255.052906125,2255.762962541,0,0.787784583000303
128,32,11,categorization,0,bathroom,SHINEd_sun_axxbkopsgyouuebh.tif,58,0.0666666666666667,0.0666666666666667,1.36666666666667,2255.778404625,2256.424734166,13,2255.844939166,2255.910654666,2256.429392125,2257.789437041,1,0.646329540999886
128,33,11,categorization,0,bathroom,SHINEd_sun_akiytfaagpdsphgz.tif,31,0.0666666666666667,0.0666666666666667,1.11666666666667,2257.806306625,2258.557071666,9,2257.873063333,2257.939016583,2258.578875208,2259.688920208,0,0.750765040999795
128,34,11,categorization,0,bathroom,SHINEd_sun_auzqhkafidnkrwmo.tif,54,0.0666666666666667,0.0666666666666667,0.983333333333333,2259.698557,2260.560855708,13,2259.763445583,2259.829545708,2260.586151375,2261.562875041,1,0.862298707999798
128,35,11,categorization,0,bathroom,SHINEd_sun_anryaplzeujmzfkd.tif,39,0.0666666666666667,0.0666666666666667,1.15,2261.5786385,2262.471959208,13,2261.645307583,2261.702691875,2262.487773916,2263.631141708,1,0.893320707999919
128,36,11,categorization,0,bathroom,SHINEd_sun_azqyogdvyhahyram.tif,60,0.0666666666666667,0.0666666666666667,1.08333333333333,2263.640967583,2264.401686,13,2263.708344791,2263.773414,2264.429556916,2265.50627525,1,0.760718417000135
128,37,11,categorization,0,kitchen,SHINEd_sun_abftihopvusyfakt.tif,71,0.0666666666666667,0.0666666666666667,1.21666666666667,2265.523121708,2266.024059541,9,2265.585904,2265.645972125,2266.031237083,2267.241254791,1,0.50093783300008
128,38,11,categorization,0,kitchen,SHINEd_sun_aggjlwcdjsjcaemh.tif,86,0.0666666666666667,0.0666666666666667,0.783333333333333,2267.251311666,2268.065176958,9,2267.315760666,2267.377999166,2268.083758416,2268.860465875,1,0.813865291999718
128,39,11,categorization,0,kitchen,SHINEd_sun_aixorpehvfykdynp.tif,95,0.0666666666666667,0.0666666666666667,1,2268.873931458,2269.400113083,9,2268.940393875,2269.005444208,2269.407306625,2270.400645708,1,0.52618162500039
128,40,11,categorization,0,bathroom,SHINEd_sun_afcoljnjfoxjtgja.tif,20,0.0666666666666667,0.0666666666666667,1.83333333333333,2270.40532825,2271.256863041,9,2270.467064666,2270.528001583,2271.263041375,2273.089755833,0,0.851534791000176
128,41,11,categorization,0,kitchen,SHINEd_labelme_kxvouciolcpqplr.tif,62,0.0666666666666667,0.0666666666666667,1.15,2273.108540416,2274.696374791,9,2273.17469975,2273.239266166,2274.708106833,2275.8514995,1,1.58783437500006
128,42,11,categorization,0,kitchen,SHINEd_sun_amjjdeyrggfqgmom.tif,100,0.0666666666666667,0.0666666666666667,1.33333333333333,2275.861612958,2276.544938875,9,2275.928092083,2275.993835625,2276.567164791,2277.893880916,1,0.68332591699982
128,43,11,categorization,0,bathroom,SHINEd_sun_alotolagknyrgtsk.tif,35,0.0666666666666667,0.0666666666666667,1.11666666666667,2277.912685916,2278.919592458,13,2277.979370458,2278.045061083,2278.933982708,2280.0440235,1,1.0069065419998
128,44,11,categorization,0,bathroom,SHINEd_sun_aqrpegblszgcoujh.tif,48,0.0666666666666667,0.0666666666666667,1.91666666666667,2280.05641325,2280.669186791,13,2280.123142041,2280.18887025,2280.695135916,2282.6051905,1,0.612773541000024
128,45,11,categorization,0,bathroom,SHINEd_sun_amzlamotzwfkwjco.tif,37,0.0666666666666667,0.0666666666666667,0.783333333333333,2282.624019375,2283.234719541,9,2282.690148208,2282.756229708,2283.24391775,2284.020635875,0,0.610700165999788
128,46,11,categorization,0,bathroom,SHINEd_sun_apynckhmoftszqoq.tif,47,0.0666666666666667,0.0666666666666667,1,2284.036419708,2285.080205333,9,2284.09893625,2284.159151166,2285.094522416,2286.087862625,0,1.04378562500006
128,47,11,categorization,0,bathroom,SHINEd_sun_alkosphxlxwjwgjd.tif,34,0.0666666666666667,0.0666666666666667,1.38333333333333,2286.094485708,2286.927969666,9,2286.156078458,2286.217060791,2286.935706958,2288.312418166,0,0.833483958000215
128,48,11,categorization,0,bathroom,SHINEd_sun_asfwthctfqerjvxr.tif,49,0.0666666666666667,0.0666666666666667,1.55,2288.329393208,2289.142185791,9,2288.396551583,2288.461663291,2289.169036208,2290.712427833,0,0.812792582999919
128,49,11,categorization,0,bathroom,SHINEd_sun_ahqjwnzgolcaoidx.tif,29,0.0666666666666667,0.0666666666666667,1.03333333333333,2290.72949175,2291.644623041,13,2290.796219375,2290.862281541,2291.66917275,2292.69587775,1,0.915131291000307
128,50,11,categorization,0,bathroom,SHINEd_sun_ajlawzvmubibwbpy.tif,30,0.0666666666666667,0.0666666666666667,1.46666666666667,2292.704749375,2293.387347625,9,2292.769129708,2292.835728458,2293.407628041,2294.867670833,0,0.682598249999955
