sub_num,trial,block,task,is_practice,category,image,texture,duration,mask_dur,jitter,stim_time,time_of_resp,trial_response,mask_time,fix_time,jit_onset,trial_end,trial_accuracy,RT
138,1,0,aesthetic,1,bathroom,bathroom_practice1.tif,221,1.5,0,1.6,834.185463666,839.153622583,4,NaN,839.159666583,839.177979458,840.771370416,NaN,NaN
138,2,0,aesthetic,1,bathroom,bathroom_practice2.tif,222,1.5,0,1.26666666666667,840.788285833,843.436855208,2,NaN,843.461050291,843.482291958,844.742345208,NaN,NaN
138,3,0,aesthetic,1,bathroom,bathroom_practice3.tif,223,1.5,0,1.15,844.760218708,849.658162416,3,NaN,849.663517041,849.681953541,850.825340083,NaN,NaN
138,4,0,aesthetic,1,bathroom,bathroom_practice4.tif,224,1.5,0,1.75,850.834811833,854.057591875,3,NaN,854.063279958,854.081587875,855.824957125,NaN,NaN
138,5,0,aesthetic,1,bathroom,bathroom_practice5.tif,225,1.5,0,0.85,855.848792833,858.491382958,5,NaN,858.519933208,858.543225,859.386563166,NaN,NaN
138,1,1,aesthetic,0,bathroom,sun_acgyywnybuveqsro.tif,128,1.5,0,0.933333333333333,863.768654458,866.526683041,5,NaN,866.548482958,866.569196416,867.495868958,NaN,NaN
138,2,1,aesthetic,0,bathroom,sun_ahcvzmoyaycdoftf.tif,137,1.5,0,1.18333333333333,867.500665916,869.710056958,4,NaN,869.738433916,869.761700958,870.938395041,NaN,NaN
138,3,1,aesthetic,0,bathroom,sun_ahqjwnzgolcaoidx.tif,139,1.5,0,1.56666666666667,870.951343583,874.393740541,3,NaN,874.39923525,874.417452,875.977499208,NaN,NaN
138,4,1,aesthetic,0,bathroom,sun_ambriybtogmepttm.tif,146,1.5,0,1.38333333333333,875.995116416,878.545757041,2,NaN,878.551023375,878.569330666,879.94605625,NaN,NaN
138,5,1,aesthetic,0,bathroom,sun_apkruvsevgegsdwp.tif,154,1.5,0,1.23333333333333,879.965348291,882.553575333,1,NaN,882.559115125,882.5774545,883.804171916,NaN,NaN
138,6,1,aesthetic,0,bathroom,sun_apkxzenqapsujocq.tif,155,1.5,0,1.83333333333333,883.821710875,886.6255245,2,NaN,886.6312095,886.649595166,888.476316833,NaN,NaN
138,7,1,aesthetic,0,bathroom,sun_agyqfjcfkdcydepw.tif,135,1.5,0,1.1,888.488789875,891.3857435,5,NaN,891.402990958,891.424610166,892.517989958,NaN,NaN
138,8,1,aesthetic,0,bathroom,sun_anhioqovhscjqqwb.tif,148,1.5,0,1.71666666666667,892.527663291,895.569425791,4,NaN,895.57515125,895.593512291,897.303544333,NaN,NaN
138,9,1,aesthetic,0,bathroom,sun_alotolagknyrgtsk.tif,145,1.5,0,1.01666666666667,897.314149333,899.845330291,4,NaN,899.873729916,899.896521416,900.906565041,NaN,NaN
138,10,1,aesthetic,0,bathroom,sun_auzqhkafidnkrwmo.tif,164,1.5,0,1.36666666666667,900.918066625,903.937352291,6,NaN,903.94302075,903.961471333,905.321514958,NaN,NaN
138,11,1,aesthetic,0,bathroom,sun_agguqiubmwhqqunb.tif,132,1.5,0,0.75,905.338655291,908.8341045,4,NaN,908.839488416,908.857831208,909.601168208,NaN,NaN
138,12,1,aesthetic,0,bathroom,sun_acduarbnmmoglmiv.tif,126,1.5,0,1.31666666666667,909.605786875,911.835132833,2,NaN,911.860636875,911.884640916,913.194685833,NaN,NaN
138,13,1,aesthetic,0,bathroom,sun_aclfzgynxzxlbepz.tif,129,1.5,0,1.33333333333333,913.213626,916.217987666,2,NaN,916.22333225,916.241755958,917.568460958,NaN,NaN
138,14,1,aesthetic,0,bathroom,sun_axxbkopsgyouuebh.tif,168,1.5,0,1.41666666666667,917.581336833,920.242069125,2,NaN,920.247363875,920.265711291,921.675772291,NaN,NaN
138,15,1,aesthetic,0,bathroom,sun_avhrdrntsqrjzccq.tif,165,1.5,0,1.93333333333333,921.689859166,924.409955041,7,NaN,924.415418833,924.433595208,926.360311666,NaN,NaN
138,16,1,aesthetic,0,bathroom,sun_ahijqszoswveeyji.tif,138,1.5,0,1.68333333333333,926.380417708,929.483175333,6,NaN,929.5072165,929.528692375,931.205402625,NaN,NaN
138,17,1,aesthetic,0,bathroom,sun_atstyziqcmkahyxk.tif,161,1.5,0,0.783333333333333,931.225387166,933.749851333,3,NaN,933.77810975,933.802753833,934.579454291,NaN,NaN
138,18,1,aesthetic,0,bathroom,sun_asfwthctfqerjvxr.tif,159,1.5,0,1.93333333333333,934.600173208,937.777149708,5,NaN,937.784160583,937.80246575,939.729179916,NaN,NaN
138,19,1,aesthetic,0,bathroom,sun_aofnryafpsjimzsb.tif,150,1.5,0,1.18333333333333,939.748625333,942.481301833,5,NaN,942.510823125,942.534408125,943.711132166,NaN,NaN
138,20,1,aesthetic,0,bathroom,sun_afcoljnjfoxjtgja.tif,130,1.5,0,1.61666666666667,943.720453541,946.633956625,6,NaN,946.639336583,946.65759825,948.267642208,NaN,NaN
138,21,1,aesthetic,0,bathroom,sun_akiytfaagpdsphgz.tif,141,1.5,0,1.16666666666667,948.284774166,950.989349583,6,NaN,951.01743075,951.040530833,952.200572958,NaN,NaN
138,22,1,aesthetic,0,bathroom,sun_awnqiikzaispgmwo.tif,166,1.5,0,1.85,952.210791,954.601071583,4,NaN,954.606916833,954.625348708,956.468727125,NaN,NaN
138,23,1,aesthetic,0,bathroom,sun_apjevzvycyhuqghb.tif,153,1.5,0,1.68333333333333,956.486364791,959.269226416,5,NaN,959.297434916,959.320197291,960.996901125,NaN,NaN
138,24,1,aesthetic,0,bathroom,sun_apynckhmoftszqoq.tif,157,1.5,0,1.98333333333333,961.015288583,963.89323775,2,NaN,963.920607166,963.943791333,965.920492916,NaN,NaN
138,25,1,aesthetic,0,bathroom,sun_aoybiabnpadelefl.tif,151,1.5,0,1.28333333333333,965.935017416,968.958367875,5,NaN,968.987094,969.011326416,970.288030583,NaN,NaN
138,1,2,aesthetic,0,bathroom,sun_apmqjbnwghzuhhzh.tif,156,1.5,0,0.9,974.234602791,977.265136291,1,NaN,977.275842083,977.294991875,978.188329583,NaN,NaN
138,2,2,aesthetic,0,bathroom,sun_aapitsgbtktqubfy.tif,122,1.5,0,1.95,978.19808775,980.601613166,3,NaN,980.626482958,980.651035583,982.594419583,NaN,NaN
138,3,2,aesthetic,0,bathroom,sun_axyrejkiiaqiurjk.tif,169,1.5,0,1,982.6140485,986.465738375,4,NaN,986.471152041,986.489414583,987.482752125,NaN,NaN
138,4,2,aesthetic,0,bathroom,sun_ahaulkltgpkeeemi.tif,136,1.5,0,0.733333333333333,987.498050083,989.980286666,2,NaN,990.006999208,990.030516541,990.757188666,NaN,NaN
138,5,2,aesthetic,0,bathroom,sun_amzlamotzwfkwjco.tif,147,1.5,0,1.2,990.764772708,993.357558041,2,NaN,993.379459208,993.401058625,994.59444925,NaN,NaN
138,6,2,aesthetic,0,bathroom,sun_aunuadmjocsddsrl.tif,162,1.5,0,1.21666666666667,994.606879416,996.961608791,1,NaN,996.967045458,996.98524725,998.195303958,NaN,NaN
138,7,2,aesthetic,0,bathroom,sun_azqyogdvyhahyram.tif,170,1.5,0,0.933333333333333,998.20949425,1000.961492083,2,NaN,1000.966860041,1000.985148958,1001.911820458,NaN,NaN
138,8,2,aesthetic,0,bathroom,sun_aqrpegblszgcoujh.tif,158,1.5,0,0.916666666666667,1001.916307958,1005.5451815,3,NaN,1005.550664875,1005.56892775,1006.478931375,NaN,NaN
138,9,2,aesthetic,0,bathroom,sun_aspsyogrekjtfozg.tif,160,1.5,0,1.1,1006.48329275,1009.499890666,5,NaN,1009.524315416,1009.545122375,1010.638502708,NaN,NaN
138,10,2,aesthetic,0,bathroom,sun_axldvoqbuvuggfmq.tif,167,1.5,0,1.16666666666667,1010.6466305,1013.377609416,3,NaN,1013.383067791,1013.401241541,1014.561295958,NaN,NaN
138,11,2,aesthetic,0,bathroom,sun_abjtwfukuwddzted.tif,125,1.5,0,0.783333333333333,1014.572403416,1017.497349541,2,NaN,1017.502761625,1017.521073833,1018.29774525,NaN,NaN
138,12,2,aesthetic,0,bathroom,sun_abapwbhyhkfixyex.tif,124,1.5,0,1.95,1018.314766833,1020.676538833,5,NaN,1020.7047875,1020.727642958,1022.671029375,NaN,NaN
138,13,2,aesthetic,0,bathroom,sun_anryaplzeujmzfkd.tif,149,1.5,0,1.05,1022.687930541,1025.515943208,6,NaN,1025.537410541,1025.558486625,1026.601868208,NaN,NaN
138,14,2,aesthetic,0,bathroom,sun_ausgutylgojavyoq.tif,163,1.5,0,1.03333333333333,1026.609571375,1030.129005625,4,NaN,1030.134373666,1030.152716416,1031.179420291,NaN,NaN
138,15,2,aesthetic,0,bathroom,sun_aggnnqpdorgxpvce.tif,131,1.5,0,1.45,1031.187821583,1033.608626666,6,NaN,1033.614792375,1033.633084083,1035.076466875,NaN,NaN
138,16,2,aesthetic,0,bathroom,sun_aljolscmmzydegqp.tif,143,1.5,0,0.966666666666667,1035.093360125,1037.505513458,4,NaN,1037.510894791,1037.529316208,1038.489321083,NaN,NaN
138,17,2,aesthetic,0,bathroom,sun_aghyqhbptboemmoq.tif,133,1.5,0,0.966666666666667,1038.493666166,1041.466582666,3,NaN,1041.490609958,1041.511936541,1042.471941458,NaN,NaN
138,18,2,aesthetic,0,bathroom,sun_alkosphxlxwjwgjd.tif,144,1.5,0,1.2,1042.4765275,1045.068264041,4,NaN,1045.096237291,1045.119937041,1046.313327708,NaN,NaN
138,19,2,aesthetic,0,bathroom,sun_apeeialkgkuxddgh.tif,152,1.5,0,0.933333333333333,1046.323911,1048.968822458,3,NaN,1048.974377375,1048.992637291,1049.919309375,NaN,NaN
138,20,2,aesthetic,0,bathroom,sun_aleqenyvunhactkl.tif,142,1.5,0,1.31666666666667,1049.923682958,1052.837405791,3,NaN,1052.865347041,1052.888487958,1054.198544791,NaN,NaN
138,21,2,aesthetic,0,bathroom,sun_ajlawzvmubibwbpy.tif,140,1.5,0,1.18333333333333,1054.21829075,1057.129556125,3,NaN,1057.134985708,1057.153354208,1058.330058833,NaN,NaN
138,22,2,aesthetic,0,bathroom,labelme_sfxiulhjbhlyiyt.tif,121,1.5,0,1.71666666666667,1058.340630791,1060.769056333,3,NaN,1060.774584291,1060.792980083,1062.503022333,NaN,NaN
138,23,2,aesthetic,0,bathroom,sun_aavhrsfjbserjtht.tif,123,1.5,0,1.53333333333333,1062.520814916,1065.144830625,4,NaN,1065.173506125,1065.195336541,1066.722048,NaN,NaN
138,24,2,aesthetic,0,bathroom,sun_acegryoqftbzowsg.tif,127,1.5,0,0.933333333333333,1066.739176208,1069.505417208,6,NaN,1069.510789541,1069.529124791,1070.455798,NaN,NaN
138,25,2,aesthetic,0,bathroom,sun_agrwbmhcpmfuwmsg.tif,134,1.5,0,0.916666666666667,1070.460132541,1073.304529291,5,NaN,1073.334081375,1073.357631875,1074.267636958,NaN,NaN
