slide,sub1,sub2,pairID,trialID,stim1,stim2,instructionsLoop.thisRepN,instructionsLoop.thisTrialN,instructionsLoop.thisN,instructionsLoop.thisIndex,practice.thisRepN,practice.thisTrialN,practice.thisN,practice.thisIndex,trials.thisRepN,trials.thisTrialN,trials.thisN,trials.thisIndex,thisRow.t,notes,preparation.started,preparation.stopped,instructions.started,startResponse.started,slide_img.started,instructions.stopped,startResponse.keys,startResponse.rt,startResponse.duration,trial.started,polygon.started,polygon_2.started,image1.started,image2.started,rating_1.started,question.started,rating_2.started,question_2.started,trial.stopped,stim1pos,stim2pos,block,rating_1.response,rating_1.rt,rating_2.response,rating_2.rt,ITI.started,text.started,text.stopped,ITI.stopped,practice_over.started,text_2.started,space_practice_over.started,practice_over.stopped,space_practice_over.keys,space_practice_over.rt,space_practice_over.duration,breakBlocks.started,breakBlocks.stopped,startBlock.keys,startBlock.started,startBlock.rt,startBlock.duration,end.started,message_end.started,key_resp.started,end.stopped,key_resp.keys,key_resp.rt,key_resp.duration,participant,session,session_number,date,expName,psychopyVersion,frameRate,expStart,
instructions/Slide1.jpg,,,,,,,0,0,0,0,,,,,,,,,0.022234708000041792,,0.002000541999905181,0.0021147919999293663,0.008616750000101092,0.022234708000041792,0.022234708000041792,15.995076500000096,space,15.97256987500009,None,,,,,,,,,,,,,,,,,,,,,,,,,,,,,,,,,,,,,,,,,,201,bathroom,1,2024-03-12_11h38.30.108,image_similarity_rating,2023.2.3,None,2024-03-12 11h38.40.301997 +0100,
instructions/Slide3.jpg,,,,,,,0,1,1,1,,,,,,,,,16.014957374999994,,,,15.995949625000094,16.014957374999994,16.014957374999994,23.17014912500008,space,7.154874666999831,None,,,,,,,,,,,,,,,,,,,,,,,,,,,,,,,,,,,,,,,,,,201,bathroom,1,2024-03-12_11h38.30.108,image_similarity_rating,2023.2.3,None,2024-03-12 11h38.40.301997 +0100,
instructions/Slide4.jpg,,,,,,,0,2,2,2,,,,,,,,,23.196792833000018,,,,23.17094566700007,23.196792833000018,23.196792833000018,27.47893895800007,space,4.28185537499985,None,,,,,,,,,,,,,,,,,,,,,,,,,,,,,,,,,,,,,,,,,,201,bathroom,1,2024-03-12_11h38.30.108,image_similarity_rating,2023.2.3,None,2024-03-12 11h38.40.301997 +0100,
instructions/Slide5.jpg,,,,,,,0,3,3,3,,,,,,,,,27.50291495800002,,,,27.479728167000076,27.50291495800002,27.50291495800002,34.45694912499994,space,6.953659042000027,None,,,,,,,,,,,,,,,,,,,,,,,,,,,,,,,,,,,,,,,,,,201,bathroom,1,2024-03-12_11h38.30.108,image_similarity_rating,2023.2.3,None,2024-03-12 11h38.40.301997 +0100,
,107,133,practice,9,stimuli/own/bathroom/107_bat.jpg,stimuli/own/bathroom/133_bat.jpg,,,,,0,0,0,8,,,,,34.655128458000036,,,,,,,,,,,34.47597300000007,34.655128458000036,34.655128458000036,34.655128458000036,34.655128458000036,34.655128458000036,34.655128458000036,34.655128458000036,34.655128458000036,71.65747041700001,7,-7,0,3.0,22.61252208299993,6.0,35.27189658400016,71.65769391699996,71.66849754200007,72.12615287499989,71.95378908299995,,,,,,,,,,,,,,,,,,,,,201,bathroom,1,2024-03-12_11h38.30.108,image_similarity_rating,2023.2.3,None,2024-03-12 11h38.40.301997 +0100,
,108,133,practice,10,stimuli/own/bathroom/108_bat.jpg,stimuli/own/bathroom/133_bat.jpg,,,,,0,1,1,9,,,,,72.12615287499989,,,,,,,,,,,71.95430545799991,72.12615287499989,72.12615287499989,72.12615287499989,72.12615287499989,72.12615287499989,72.12615287499989,72.12615287499989,72.12615287499989,86.79537325000001,-7,7,0,2.0,8.29777987500006,6.0,13.791260417000103,86.79551641700004,86.80164658300009,87.25120229200002,87.08610729199995,,,,,,,,,,,,,,,,,,,,,201,bathroom,1,2024-03-12_11h38.30.108,image_similarity_rating,2023.2.3,None,2024-03-12 11h38.40.301997 +0100,
,128,108,practice,3,stimuli/own/bathroom/128_bat.jpg,stimuli/own/bathroom/108_bat.jpg,,,,,0,2,2,2,,,,,87.25120229200002,,,,,,,,,,,87.08650349999994,87.25120229200002,87.25120229200002,87.25120229200002,87.25120229200002,87.25120229200002,87.25120229200002,87.25120229200002,87.25120229200002,113.320626833,-7,7,0,1.0,13.254402374999927,3.0,22.54911729100013,113.3207695829999,113.32268675,113.77028399999995,113.60673858299992,,,,,,,,,,,,,,,,,,,,,201,bathroom,1,2024-03-12_11h38.30.108,image_similarity_rating,2023.2.3,None,2024-03-12 11h38.40.301997 +0100,
,107,108,practice,5,stimuli/own/bathroom/107_bat.jpg,stimuli/own/bathroom/108_bat.jpg,,,,,0,3,3,4,,,,,113.77028399999995,,,,,,,,,,,113.60713962499995,113.77028399999995,113.77028399999995,113.77028399999995,113.77028399999995,113.77028399999995,113.77028399999995,113.77028399999995,113.77028399999995,139.3836147919999,-7,7,0,3.0,19.441411709000022,6.0,25.22073479200003,139.38378699999998,139.386485708,139.83603887499999,139.67236883300006,,,,,,,,,,,,,,,,,,,,,201,bathroom,1,2024-03-12_11h38.30.108,image_similarity_rating,2023.2.3,None,2024-03-12 11h38.40.301997 +0100,
,110,107,practice,4,stimuli/own/bathroom/110_bat.jpg,stimuli/own/bathroom/107_bat.jpg,,,,,0,4,4,3,,,,,139.83603887499999,,,,,,,,,,,139.6726712919999,139.83603887499999,139.83603887499999,139.83603887499999,139.83603887499999,139.83603887499999,139.83603887499999,139.83603887499999,139.83603887499999,166.66201591699996,7,-7,0,4.0,19.496866667000177,6.0,26.229998791999833,166.66215604199988,166.66781929199988,167.120103125,166.95309666699995,,,,,,,,,,,,,,,,,,,,,201,bathroom,1,2024-03-12_11h38.30.108,image_similarity_rating,2023.2.3,None,2024-03-12 11h38.40.301997 +0100,
,108,110,practice,8,stimuli/own/bathroom/108_bat.jpg,stimuli/own/bathroom/110_bat.jpg,,,,,0,5,5,7,,,,,167.120103125,,,,,,,,,,,166.95353429200009,167.120103125,167.120103125,167.120103125,167.120103125,167.120103125,167.120103125,167.120103125,167.120103125,187.35713499999997,7,-7,0,4.0,11.44843379100007,5.0,19.771349166999926,187.35727687500003,187.3679897919999,187.8163319580001,187.65272779199995,,,,,,,,,,,,,,,,,,,,,201,bathroom,1,2024-03-12_11h38.30.108,image_similarity_rating,2023.2.3,None,2024-03-12 11h38.40.301997 +0100,
,110,133,practice,1,stimuli/own/bathroom/110_bat.jpg,stimuli/own/bathroom/133_bat.jpg,,,,,0,6,6,0,,,,,187.8163319580001,,,,,,,,,,,187.65311399999996,187.8163319580001,187.8163319580001,187.8163319580001,187.8163319580001,187.8163319580001,187.8163319580001,187.8163319580001,187.8163319580001,204.60803483299992,7,-7,0,5.0,12.581505291999974,4.0,16.47467391600003,204.60817937499996,204.617714042,205.06894562499997,204.902396125,,,,,,,,,,,,,,,,,,,,,201,bathroom,1,2024-03-12_11h38.30.108,image_similarity_rating,2023.2.3,None,2024-03-12 11h38.40.301997 +0100,
,110,128,practice,2,stimuli/own/bathroom/110_bat.jpg,stimuli/own/bathroom/128_bat.jpg,,,,,0,7,7,1,,,,,205.06894562499997,,,,,,,,,,,204.902846083,205.06894562499997,205.06894562499997,205.06894562499997,205.06894562499997,205.06894562499997,205.06894562499997,205.06894562499997,205.06894562499997,218.1878374999999,-7,7,0,1.0,7.265924792000078,3.0,12.846270208000078,218.187980917,218.18989749999992,218.65557379200004,218.48670670799993,,,,,,,,,,,,,,,,,,,,,201,bathroom,1,2024-03-12_11h38.30.108,image_similarity_rating,2023.2.3,None,2024-03-12 11h38.40.301997 +0100,
,128,133,practice,6,stimuli/own/bathroom/128_bat.jpg,stimuli/own/bathroom/133_bat.jpg,,,,,0,8,8,5,,,,,218.65557379200004,,,,,,,,,,,218.48717958299994,218.65557379200004,218.65557379200004,218.65557379200004,218.65557379200004,218.65557379200004,218.65557379200004,218.65557379200004,218.65557379200004,228.83364600000004,7,-7,0,1.0,7.377641667000034,3.0,9.794344334000016,228.83378816699997,228.83607529200003,229.28656174999992,229.11980874999995,,,,,,,,,,,,,,,,,,,,,201,bathroom,1,2024-03-12_11h38.30.108,image_similarity_rating,2023.2.3,None,2024-03-12 11h38.40.301997 +0100,
,107,128,practice,7,stimuli/own/bathroom/107_bat.jpg,stimuli/own/bathroom/128_bat.jpg,,,,,0,9,9,6,,,,,229.28656174999992,,,,,,,,,,,229.12030758299989,229.28656174999992,229.28656174999992,229.28656174999992,229.28656174999992,229.28656174999992,229.28656174999992,229.28656174999992,229.28656174999992,253.1994522079999,7,-7,0,2.0,11.159301124999956,2.0,23.451616291999926,253.19959429200003,253.21760529199992,,253.50176125000007,,,,,,,,,,,,,,,,,,,,,201,bathroom,1,2024-03-12_11h38.30.108,image_similarity_rating,2023.2.3,None,2024-03-12 11h38.40.301997 +0100,
,,,,,,,,,,,,,,,,,,,,,,,,,,,,,,,,,,,,,,,,,,,,,,,,,,,253.50183783300008,253.5059759169999,253.5059759169999,340.95823100000007,space,87.45204279199993,None,,,,,,,,,,,,,,201,bathroom,1,2024-03-12_11h38.30.108,image_similarity_rating,2023.2.3,None,2024-03-12 11h38.40.301997 +0100,
,114,126,306,306,stimuli/own/bathroom/114_bat.jpg,stimuli/own/bathroom/126_bat.jpg,,,,,,,,,0,0,0,305,341.0066772079999,,,,,,,,,,,341.30214983299993,341.4749434999999,341.4749434999999,341.4749434999999,341.4749434999999,341.4749434999999,341.4749434999999,341.4749434999999,341.4749434999999,393.9278703330001,7,-7,1,5.0,21.065412207999998,6.0,51.80376804100001,341.00452337499996,341.0066772079999,341.4749434999999,341.30212508299996,,,,,,,,340.99226620800005,341.00420566699995,None,,,,,,,,,,,201,bathroom,1,2024-03-12_11h38.30.108,image_similarity_rating,2023.2.3,None,2024-03-12 11h38.40.301997 +0100,
,102,112,41,41,stimuli/own/bathroom/102_bat.jpg,stimuli/own/bathroom/112_bat.jpg,,,,,,,,,0,1,1,40,393.95029462499997,,,,,,,,,,,394.23455516700005,394.3994472919999,394.3994472919999,394.3994472919999,394.3994472919999,394.3994472919999,394.3994472919999,394.3994472919999,394.3994472919999,417.715628167,-7,7,1,6.0,6.298070749999852,3.0,21.02946879199999,393.9319990419999,393.95029462499997,,394.23453874999996,,,,,,,,393.9284398330001,393.931950917,None,,,,,,,,,,,201,bathroom,1,2024-03-12_11h38.30.108,image_similarity_rating,2023.2.3,None,2024-03-12 11h38.40.301997 +0100,
,132,140,566,566,stimuli/own/bathroom/132_bat.jpg,stimuli/own/bathroom/140_bat.jpg,,,,,,,,,0,2,2,565,417.721161792,,,,,,,,,,,418.00554516700004,418.16981316700003,418.16981316700003,418.16981316700003,418.16981316700003,418.16981316700003,418.16981316700003,418.16981316700003,418.16981316700003,443.8524792500002,-7,7,1,4.0,13.793111499999895,5.0,24.446832707999874,417.71907050000004,417.721161792,418.16981316700003,418.0055332919999,,,,,,,,417.71586983299994,417.71902287500006,None,,,,,,,,,,,201,bathroom,1,2024-03-12_11h38.30.108,image_similarity_rating,2023.2.3,None,2024-03-12 11h38.40.301997 +0100,
,109,113,192,192,stimuli/own/bathroom/109_bat.jpg,stimuli/own/bathroom/113_bat.jpg,,,,,,,,,0,3,3,191,443.85792608300017,,,,,,,,,,,444.1513381670002,444.32245837499977,444.32245837499977,444.32245837499977,444.32245837499977,444.32245837499977,444.32245837499977,444.32245837499977,444.32245837499977,475.07348850000017,7,-7,1,3.0,11.51351324999996,3.0,19.91572645799988,443.85597691700013,443.85792608300017,444.32245837499977,444.151322833,,,,,,,,443.8527085420001,443.85592700000007,None,,,,,,,,,,,201,bathroom,1,2024-03-12_11h38.30.108,image_similarity_rating,2023.2.3,None,2024-03-12 11h38.40.301997 +0100,
,132,141,567,567,stimuli/own/bathroom/132_bat.jpg,stimuli/own/bathroom/141_bat.jpg,,,,,,,,,0,4,4,566,475.08357687499984,,,,,,,,,,,475.3679044999999,475.535443708,475.535443708,475.535443708,475.535443708,475.535443708,475.535443708,475.535443708,475.535443708,503.052379792,-7,7,1,4.0,23.451256917000137,3.0,26.85740004199988,475.076742792,475.08357687499984,475.535443708,475.36788887500006,,,,,,,,475.0737116250002,475.07669566699997,None,,,,,,,,,,,201,bathroom,1,2024-03-12_11h38.30.108,image_similarity_rating,2023.2.3,None,2024-03-12 11h38.40.301997 +0100,
,111,122,227,227,stimuli/own/bathroom/111_bat.jpg,stimuli/own/bathroom/122_bat.jpg,,,,,,,,,0,5,5,226,503.0575457919999,,,,,,,,,,,503.35165633299994,503.51776529200015,503.51776529200015,503.51776529200015,503.51776529200015,503.51776529200015,503.51776529200015,503.51776529200015,503.51776529200015,530.719100583,7,-7,1,4.0,15.956294459000219,2.0,26.666722583000137,503.0556159580001,503.0575457919999,503.51776529200015,503.3516423330002,,,,,,,,503.0526043330001,503.05556933299977,None,,,,,,,,,,,201,bathroom,1,2024-03-12_11h38.30.108,image_similarity_rating,2023.2.3,None,2024-03-12 11h38.40.301997 +0100,
,126,141,517,517,stimuli/own/bathroom/126_bat.jpg,stimuli/own/bathroom/141_bat.jpg,,,,,,,,,0,6,6,516,530.724344833,,,,,,,,,,,531.0185381249998,531.1847115,531.1847115,531.1847115,531.1847115,531.1847115,531.1847115,531.1847115,531.1847115,546.955602,7,-7,1,2.0,11.036472666999998,4.0,15.513352291000047,530.7224714580002,530.724344833,531.1847115,531.0185207919999,,,,,,,,530.719324917,530.7224241250001,None,,,,,,,,,,,201,bathroom,1,2024-03-12_11h38.30.108,image_similarity_rating,2023.2.3,None,2024-03-12 11h38.40.301997 +0100,
,125,140,503,503,stimuli/own/bathroom/125_bat.jpg,stimuli/own/bathroom/140_bat.jpg,,,,,,,,,0,7,7,502,546.9664631669998,,,,,,,,,,,547.2511626669998,547.417223375,547.417223375,547.417223375,547.417223375,547.417223375,547.417223375,547.417223375,547.417223375,570.752036292,-7,7,1,1.0,15.785733124999751,3.0,20.362104917000124,546.9588403749999,546.9664631669998,547.417223375,547.2511480829999,,,,,,,,546.9558213750001,546.9587935,None,,,,,,,,,,,201,bathroom,1,2024-03-12_11h38.30.108,image_similarity_rating,2023.2.3,None,2024-03-12 11h38.40.301997 +0100,
,114,140,318,318,stimuli/own/bathroom/114_bat.jpg,stimuli/own/bathroom/140_bat.jpg,,,,,,,,,0,8,8,317,570.75734625,,,,,,,,,,,571.0508722919999,571.2189704580001,571.2189704580001,571.2189704580001,571.2189704580001,571.2189704580001,571.2189704580001,571.2189704580001,571.2189704580001,606.3696303329998,7,-7,1,3.0,21.6254452080002,3.0,34.99990637500014,570.755522333,570.75734625,571.2189704580001,571.0508559999998,,,,,,,,570.752260667,570.7554719579998,None,,,,,,,,,,,201,bathroom,1,2024-03-12_11h38.30.108,image_similarity_rating,2023.2.3,None,2024-03-12 11h38.40.301997 +0100,
,119,141,405,405,stimuli/own/bathroom/119_bat.jpg,stimuli/own/bathroom/141_bat.jpg,,,,,,,,,0,9,9,404,606.374802375,,,,,,,,,,,606.6675450419998,606.831917083,606.831917083,606.831917083,606.831917083,606.831917083,606.831917083,606.831917083,606.831917083,628.0937556670001,7,-7,1,4.0,11.234552458999588,2.0,18.377563291000115,606.3728689169998,606.374802375,606.831917083,606.6675204580001,,,,,,,,606.3698568330001,606.3728218749998,None,,,,,,,,,,,201,bathroom,1,2024-03-12_11h38.30.108,image_similarity_rating,2023.2.3,None,2024-03-12 11h38.40.301997 +0100,
,102,109,39,39,stimuli/own/bathroom/102_bat.jpg,stimuli/own/bathroom/109_bat.jpg,,,,,,,,,0,10,10,38,628.0991993329999,,,,,,,,,,,628.3840757500002,628.5480924170001,628.5480924170001,628.5480924170001,628.5480924170001,628.5480924170001,628.5480924170001,628.5480924170001,628.5480924170001,645.9386651250002,7,-7,1,5.0,15.55138429200042,5.0,4.318063375000293,628.0970118330001,628.0991993329999,628.5480924170001,628.3840654579999,,,,,,,,628.0939842920002,628.0969647500001,None,,,,,,,,,,,201,bathroom,1,2024-03-12_11h38.30.108,image_similarity_rating,2023.2.3,None,2024-03-12 11h38.40.301997 +0100,
,116,130,332,332,stimuli/own/bathroom/116_bat.jpg,stimuli/own/bathroom/130_bat.jpg,,,,,,,,,0,11,11,331,645.9495502499999,,,,,,,,,,,646.234640917,646.40200125,646.40200125,646.40200125,646.40200125,646.40200125,646.40200125,646.40200125,646.40200125,664.3937209999999,7,-7,1,2.0,13.225136083000052,2.0,17.84560645800002,645.9419242499998,645.9495502499999,646.40200125,646.2346226670002,,,,,,,,645.938888958,645.9418766250001,None,,,,,,,,,,,201,bathroom,1,2024-03-12_11h38.30.108,image_similarity_rating,2023.2.3,None,2024-03-12 11h38.40.301997 +0100,
,124,129,479,479,stimuli/own/bathroom/124_bat.jpg,stimuli/own/bathroom/129_bat.jpg,,,,,,,,,0,12,12,478,664.3991046669998,,,,,,,,,,,664.6847225000001,664.8515496250002,664.8515496250002,664.8515496250002,664.8515496250002,664.8515496250002,664.8515496250002,664.8515496250002,664.8515496250002,684.186395875,-7,7,1,1.0,16.57223900000008,3.0,19.11061354200001,664.3970128750002,664.3991046669998,664.8515496250002,664.6847075420001,,,,,,,,664.3939479169999,664.3969588750001,None,,,,,,,,,,,201,bathroom,1,2024-03-12_11h38.30.108,image_similarity_rating,2023.2.3,None,2024-03-12 11h38.40.301997 +0100,
,106,131,180,180,stimuli/own/bathroom/106_bat.jpg,stimuli/own/bathroom/131_bat.jpg,,,,,,,,,0,13,13,179,684.1917498329999,,,,,,,,,,,684.4839214170001,684.6480848749998,684.6480848749998,684.6480848749998,684.6480848749998,684.6480848749998,684.6480848749998,684.6480848749998,684.6480848749998,707.5891700420002,7,-7,1,2.0,9.088578332999987,3.0,22.754702415999873,684.189633042,684.1917498329999,684.6480848749998,684.4839104170001,,,,,,,,684.186627,684.1895857079999,None,,,,,,,,,,,201,bathroom,1,2024-03-12_11h38.30.108,image_similarity_rating,2023.2.3,None,2024-03-12 11h38.40.301997 +0100,
,103,141,99,99,stimuli/own/bathroom/103_bat.jpg,stimuli/own/bathroom/141_bat.jpg,,,,,,,,,0,14,14,98,707.5991853330002,,,,,,,,,,,707.8842224169998,708.0516458329998,708.0516458329998,708.0516458329998,708.0516458329998,708.0516458329998,708.0516458329998,708.0516458329998,708.0516458329998,725.3477492920001,-7,7,1,3.0,8.664638417000333,5.0,16.923777542000153,707.5924597500002,707.5991853330002,708.0516458329998,707.884205583,,,,,,,,707.589392542,707.592412125,None,,,,,,,,,,,201,bathroom,1,2024-03-12_11h38.30.108,image_similarity_rating,2023.2.3,None,2024-03-12 11h38.40.301997 +0100,
,140,141,595,595,stimuli/own/bathroom/140_bat.jpg,stimuli/own/bathroom/141_bat.jpg,,,,,,,,,0,15,15,594,725.3531064170002,,,,,,,,,,,725.6380977499998,725.8029535000001,725.8029535000001,725.8029535000001,725.8029535000001,725.8029535000001,725.8029535000001,725.8029535000001,725.8029535000001,742.651375208,7,-7,1,5.0,10.817171124999732,4.0,15.350138917000095,725.3510645830002,725.3531064170002,725.8029535000001,725.6380870829998,,,,,,,,725.3479860419998,725.3510168749999,None,,,,,,,,,,,201,bathroom,1,2024-03-12_11h38.30.108,image_similarity_rating,2023.2.3,None,2024-03-12 11h38.40.301997 +0100,
,131,139,557,557,stimuli/own/bathroom/131_bat.jpg,stimuli/own/bathroom/139_bat.jpg,,,,,,,,,0,16,16,556,742.6566627920001,,,,,,,,,,,742.950243667,743.1203955420001,743.1203955420001,743.1203955420001,743.1203955420001,743.1203955420001,743.1203955420001,743.1203955420001,743.1203955420001,762.047741375,-7,7,1,2.0,15.894017666000309,3.0,18.552225749999707,742.654611292,742.6566627920001,743.1203955420001,742.9502268330002,,,,,,,,742.6515998750001,742.6545647500002,None,,,,,,,,,,,201,bathroom,1,2024-03-12_11h38.30.108,image_similarity_rating,2023.2.3,None,2024-03-12 11h38.40.301997 +0100,
,117,119,344,344,stimuli/own/bathroom/117_bat.jpg,stimuli/own/bathroom/119_bat.jpg,,,,,,,,,0,17,17,343,762.0529754579998,,,,,,,,,,,762.33794975,762.5021346670001,762.5021346670001,762.5021346670001,762.5021346670001,762.5021346670001,762.5021346670001,762.5021346670001,762.5021346670001,783.3381688750001,-7,7,1,2.0,9.082821333000084,5.0,16.390047290999973,762.0510342920002,762.0529754579998,762.5021346670001,762.3379395000002,,,,,,,,762.047977708,762.050986792,None,,,,,,,,,,,201,bathroom,1,2024-03-12_11h38.30.108,image_similarity_rating,2023.2.3,None,2024-03-12 11h38.40.301997 +0100,
,132,136,562,562,stimuli/own/bathroom/132_bat.jpg,stimuli/own/bathroom/136_bat.jpg,,,,,,,,,0,18,18,561,783.3489897919999,,,,,,,,,,,783.6337477080001,783.8057481249998,783.8057481249998,783.8057481249998,783.8057481249998,783.8057481249998,783.8057481249998,783.8057481249998,783.8057481249998,800.84264975,-7,7,1,6.0,16.862770249999812,6.0,8.292566999999963,783.3415545419998,783.3489897919999,783.8057481249998,783.6337241249998,,,,,,,,783.3383941669999,783.341506833,None,,,,,,,,,,,201,bathroom,1,2024-03-12_11h38.30.108,image_similarity_rating,2023.2.3,None,2024-03-12 11h38.40.301997 +0100,
,137,140,588,588,stimuli/own/bathroom/137_bat.jpg,stimuli/own/bathroom/140_bat.jpg,,,,,,,,,0,19,19,587,800.8485435419998,,,,,,,,,,,801.133901875,801.2985896250002,801.2985896250002,801.2985896250002,801.2985896250002,801.2985896250002,801.2985896250002,801.2985896250002,801.2985896250002,823.6212060419998,7,-7,1,2.0,13.010407708000002,5.0,20.775460457999998,800.8460368750002,800.8485435419998,801.2985896250002,801.1338893329998,,,,,,,,800.8428739169999,800.8459896250001,None,,,,,,,,,,,201,bathroom,1,2024-03-12_11h38.30.108,image_similarity_rating,2023.2.3,None,2024-03-12 11h38.40.301997 +0100,
,138,140,591,591,stimuli/own/bathroom/138_bat.jpg,stimuli/own/bathroom/140_bat.jpg,,,,,,,,,0,20,20,590,823.6322049579999,,,,,,,,,,,823.9165183330001,824.081837792,824.081837792,824.081837792,824.081837792,824.081837792,824.081837792,824.081837792,824.081837792,843.7046652079998,-7,7,1,2.0,9.076277624999875,2.0,14.356410290999975,823.6244417080002,823.6322049579999,824.081837792,823.9165042499999,,,,,,,,823.621429583,823.6243947500002,None,,,,,,,,,,,201,bathroom,1,2024-03-12_11h38.30.108,image_similarity_rating,2023.2.3,None,2024-03-12 11h38.40.301997 +0100,
,102,114,43,43,stimuli/own/bathroom/102_bat.jpg,stimuli/own/bathroom/114_bat.jpg,,,,,,,,,0,21,21,42,843.7152732499999,,,,,,,,,,,843.9998850000002,844.1650463750002,844.1650463750002,844.1650463750002,844.1650463750002,844.1650463750002,844.1650463750002,844.1650463750002,844.1650463750002,867.9427501670002,7,-7,1,2.0,14.610351332999926,1.0,23.639823624999735,843.7079077499998,843.7152732499999,844.1650463750002,843.9998571669998,,,,,,,,843.7048871669999,843.7078615,None,,,,,,,,,,,201,bathroom,1,2024-03-12_11h38.30.108,image_similarity_rating,2023.2.3,None,2024-03-12 11h38.40.301997 +0100,
,103,140,98,98,stimuli/own/bathroom/103_bat.jpg,stimuli/own/bathroom/140_bat.jpg,,,,,,,,,0,22,22,97,867.9483477919998,,,,,,,,,,,868.233727458,868.4000652919999,868.4000652919999,868.4000652919999,868.4000652919999,868.4000652919999,868.4000652919999,868.4000652919999,868.4000652919999,882.8093770830001,7,-7,1,4.0,8.335877041999993,4.0,14.199742791999597,867.9459686670002,867.9483477919998,868.4000652919999,868.2337135419998,,,,,,,,867.9429744170002,867.9459227500001,None,,,,,,,,,,,201,bathroom,1,2024-03-12_11h38.30.108,image_similarity_rating,2023.2.3,None,2024-03-12 11h38.40.301997 +0100,
,109,123,201,201,stimuli/own/bathroom/109_bat.jpg,stimuli/own/bathroom/123_bat.jpg,,,,,,,,,0,23,23,200,882.8149275420001,,,,,,,,,,,883.100663833,883.266207958,883.266207958,883.266207958,883.266207958,883.266207958,883.266207958,883.266207958,883.266207958,895.5594651249999,7,-7,1,3.0,11.879878292000285,6.0,6.5020531249997475,882.8126346250001,882.8149275420001,883.266207958,883.1006498329998,,,,,,,,882.8096004580002,882.8125877500001,None,,,,,,,,,,,201,bathroom,1,2024-03-12_11h38.30.108,image_similarity_rating,2023.2.3,None,2024-03-12 11h38.40.301997 +0100,
,126,127,505,505,stimuli/own/bathroom/126_bat.jpg,stimuli/own/bathroom/127_bat.jpg,,,,,,,,,0,24,24,504,895.5648692499999,,,,,,,,,,,895.8497601250001,896.0148989170002,896.0148989170002,896.0148989170002,896.0148989170002,896.0148989170002,896.0148989170002,896.0148989170002,896.0148989170002,916.7928522920001,-7,7,1,3.0,14.940237750000051,5.0,18.828660749999926,895.562706833,895.5648692499999,896.0148989170002,895.8497467920001,,,,,,,,895.5596891670002,895.56266,None,,,,,,,,,,,201,bathroom,1,2024-03-12_11h38.30.108,image_similarity_rating,2023.2.3,None,2024-03-12 11h38.40.301997 +0100,
,116,124,327,327,stimuli/own/bathroom/116_bat.jpg,stimuli/own/bathroom/124_bat.jpg,,,,,,,,,0,25,25,326,916.7982092920001,,,,,,,,,,,917.0830378330002,917.249672208,917.249672208,917.249672208,917.249672208,917.249672208,917.249672208,917.249672208,917.249672208,933.793031833,7,-7,1,1.0,10.9272139159998,3.0,16.333203416999822,916.796090542,916.7982092920001,917.249672208,917.0830178749998,,,,,,,,916.793077667,916.796043625,None,,,,,,,,,,,201,bathroom,1,2024-03-12_11h38.30.108,image_similarity_rating,2023.2.3,None,2024-03-12 11h38.40.301997 +0100,
,106,139,187,187,stimuli/own/bathroom/106_bat.jpg,stimuli/own/bathroom/139_bat.jpg,,,,,,,,,0,26,26,186,933.8155636249999,,,,,,,,,,,934.0991275830002,934.264297792,934.264297792,934.264297792,934.264297792,934.264297792,934.264297792,934.264297792,934.264297792,952.1807772500001,-7,7,1,3.0,9.972394625000106,3.0,12.568370291000065,933.7963963329998,933.8155636249999,,934.0991130829998,,,,,,,,933.7932529169998,933.7963490000002,None,,,,,,,,,,,201,bathroom,1,2024-03-12_11h38.30.108,image_similarity_rating,2023.2.3,None,2024-03-12 11h38.40.301997 +0100,
,113,137,291,291,stimuli/own/bathroom/113_bat.jpg,stimuli/own/bathroom/137_bat.jpg,,,,,,,,,0,27,27,290,952.1859803749999,,,,,,,,,,,952.4705389169999,952.635821333,952.635821333,952.635821333,952.635821333,952.635821333,952.635821333,952.635821333,952.635821333,959.780356875,-7,7,1,1.0,4.753300416999991,2.0,7.021033500000158,952.184045042,952.1859803749999,952.635821333,952.4705265829998,,,,,,,,952.1810099999998,952.183998083,None,,,,,,,,,,,201,bathroom,1,2024-03-12_11h38.30.108,image_similarity_rating,2023.2.3,None,2024-03-12 11h38.40.301997 +0100,
,111,121,226,226,stimuli/own/bathroom/111_bat.jpg,stimuli/own/bathroom/121_bat.jpg,,,,,,,,,0,28,28,225,959.7856838749999,,,,,,,,,,,960.083792375,960.252510667,960.252510667,960.252510667,960.252510667,960.252510667,960.252510667,960.252510667,960.252510667,970.8922372920001,-7,7,1,3.0,4.211136249999981,5.0,10.316765291999673,959.7836689999999,959.7856838749999,960.252510667,960.0837759579999,,,,,,,,959.780593292,959.7836218329999,None,,,,,,,,,,,201,bathroom,1,2024-03-12_11h38.30.108,image_similarity_rating,2023.2.3,None,2024-03-12 11h38.40.301997 +0100,
,109,119,197,197,stimuli/own/bathroom/109_bat.jpg,stimuli/own/bathroom/119_bat.jpg,,,,,,,,,0,29,29,196,970.8980214580001,,,,,,,,,,,971.182857583,971.3503528749998,971.3503528749998,971.3503528749998,971.3503528749998,971.3503528749998,971.3503528749998,971.3503528749998,971.3503528749998,983.2217049169999,-7,7,1,2.0,5.9966752919999635,3.0,11.697994000000108,970.8954932080001,970.8980214580001,971.3503528749998,971.1828410829999,,,,,,,,970.892463833,970.895445958,None,,,,,,,,,,,201,bathroom,1,2024-03-12_11h38.30.108,image_similarity_rating,2023.2.3,None,2024-03-12 11h38.40.301997 +0100,
,124,131,481,481,stimuli/own/bathroom/124_bat.jpg,stimuli/own/bathroom/131_bat.jpg,,,,,,,,,0,30,30,480,983.2316532919999,,,,,,,,,,,983.5162869999999,983.6831535000001,983.6831535000001,983.6831535000001,983.6831535000001,983.6831535000001,983.6831535000001,983.6831535000001,983.6831535000001,997.6803783330001,7,-7,1,2.0,5.701956125000379,2.0,13.887400292000166,983.2249568329999,983.2316532919999,983.6831535000001,983.5162673750001,,,,,,,,983.2219271250001,983.2249093750002,None,,,,,,,,,,,201,bathroom,1,2024-03-12_11h38.30.108,image_similarity_rating,2023.2.3,None,2024-03-12 11h38.40.301997 +0100,
,104,131,121,614,stimuli/own/bathroom/104_bat.jpg,stimuli/own/bathroom/131_bat.jpg,,,,,,,,,0,31,31,613,997.685962083,,,,,,,,,,,997.9698794999999,998.1336832920001,998.1336832920001,998.1336832920001,998.1336832920001,998.1336832920001,998.1336832920001,998.1336832920001,998.1336832920001,1008.6803157919999,7,-7,1,2.0,4.4807158329999766,2.0,9.873668624999937,997.683690542,997.685962083,998.1336832920001,997.9698692080001,,,,,,,,997.6806257080002,997.683643542,None,,,,,,,,,,,201,bathroom,1,2024-03-12_11h38.30.108,image_similarity_rating,2023.2.3,None,2024-03-12 11h38.40.301997 +0100,
,123,131,466,466,stimuli/own/bathroom/123_bat.jpg,stimuli/own/bathroom/131_bat.jpg,,,,,,,,,0,32,32,465,1008.6855437919999,,,,,,,,,,,1008.9704858330001,1009.1359647919999,1009.1359647919999,1009.1359647919999,1009.1359647919999,1009.1359647919999,1009.1359647919999,1009.1359647919999,1009.1359647919999,1024.363684208,7,-7,1,1.0,15.239811458000077,2.0,10.154313999999886,1008.6836120829998,1008.6855437919999,1009.1359647919999,1008.97047475,,,,,,,,1008.6805654579998,1008.6835648329998,None,,,,,,,,,,,201,bathroom,1,2024-03-12_11h38.30.108,image_similarity_rating,2023.2.3,None,2024-03-12 11h38.40.301997 +0100,
,109,126,204,204,stimuli/own/bathroom/109_bat.jpg,stimuli/own/bathroom/126_bat.jpg,,,,,,,,,0,33,33,203,1024.3692233329998,,,,,,,,,,,1024.653080958,1024.817035083,1024.817035083,1024.817035083,1024.817035083,1024.817035083,1024.817035083,1024.817035083,1024.817035083,1036.5207854579999,-7,7,1,1.0,9.066900124999847,1.0,11.357520625000234,1024.366961625,1024.3692233329998,1024.817035083,1024.653070375,,,,,,,,1024.3639295829998,1024.366913708,None,,,,,,,,,,,201,bathroom,1,2024-03-12_11h38.30.108,image_similarity_rating,2023.2.3,None,2024-03-12 11h38.40.301997 +0100,
,118,135,379,379,stimuli/own/bathroom/118_bat.jpg,stimuli/own/bathroom/135_bat.jpg,,,,,,,,,0,34,34,378,1036.5312652920002,,,,,,,,,,,1036.816043625,1036.980306208,1036.980306208,1036.980306208,1036.980306208,1036.980306208,1036.980306208,1036.980306208,1036.980306208,1046.367859125,7,-7,1,2.0,7.000521500000104,1.0,9.101996083000358,1036.524329125,1036.5312652920002,1036.980306208,1036.816029917,,,,,,,,1036.5210119580001,1036.5242792079998,None,,,,,,,,,,,201,bathroom,1,2024-03-12_11h38.30.108,image_similarity_rating,2023.2.3,None,2024-03-12 11h38.40.301997 +0100,
,139,141,594,594,stimuli/own/bathroom/139_bat.jpg,stimuli/own/bathroom/141_bat.jpg,,,,,,,,,0,35,35,593,1046.3729910000002,,,,,,,,,,,1046.6671161250001,1046.8328983329998,1046.8328983329998,1046.8328983329998,1046.8328983329998,1046.8328983329998,1046.8328983329998,1046.8328983329998,1046.8328983329998,1064.6221462079998,7,-7,1,4.0,13.42375012499997,3.0,17.679968333000033,1046.3710944579998,1046.3729910000002,1046.8328983329998,1046.667099333,,,,,,,,1046.368084667,1046.3710473750002,None,,,,,,,,,,,201,bathroom,1,2024-03-12_11h38.30.108,image_similarity_rating,2023.2.3,None,2024-03-12 11h38.40.301997 +0100,
,130,134,543,543,stimuli/own/bathroom/130_bat.jpg,stimuli/own/bathroom/134_bat.jpg,,,,,,,,,0,36,36,542,1064.6312107079998,,,,,,,,,,,1064.916387875,1065.082609167,1065.082609167,1065.082609167,1065.082609167,1065.082609167,1065.082609167,1065.082609167,1065.082609167,1083.7840326249998,-7,7,1,2.0,18.638530875000015,5.0,11.7774107500004,1064.625396208,1064.6312107079998,1065.082609167,1064.9163735000002,,,,,,,,1064.6223759579998,1064.6253489169999,None,,,,,,,,,,,201,bathroom,1,2024-03-12_11h38.30.108,image_similarity_rating,2023.2.3,None,2024-03-12 11h38.40.301997 +0100,
,119,137,401,401,stimuli/own/bathroom/119_bat.jpg,stimuli/own/bathroom/137_bat.jpg,,,,,,,,,0,37,37,400,1083.7896258330002,,,,,,,,,,,1084.0829482499998,1084.248020292,1084.248020292,1084.248020292,1084.248020292,1084.248020292,1084.248020292,1084.248020292,1084.248020292,1099.8880046670001,-7,7,1,2.0,6.937220290999903,3.0,14.623139290999916,1083.7872952920002,1083.7896258330002,1084.248020292,1084.082934167,,,,,,,,1083.7842569579998,1083.7872472499998,None,,,,,,,,,,,201,bathroom,1,2024-03-12_11h38.30.108,image_similarity_rating,2023.2.3,None,2024-03-12 11h38.40.301997 +0100,
,101,109,6,6,stimuli/own/bathroom/101_bat.jpg,stimuli/own/bathroom/109_bat.jpg,,,,,,,,,0,38,38,5,1099.89778875,,,,,,,,,,,1100.183124958,1100.349879208,1100.349879208,1100.349879208,1100.349879208,1100.349879208,1100.349879208,1100.349879208,1100.349879208,1112.3512047919999,7,-7,1,2.0,7.634951541000191,3.0,11.266347415999917,1099.8912271670001,1099.89778875,1100.349879208,1100.1831081250002,,,,,,,,1099.888226125,1099.891181,None,,,,,,,,,,,201,bathroom,1,2024-03-12_11h38.30.108,image_similarity_rating,2023.2.3,None,2024-03-12 11h38.40.301997 +0100,
,134,141,574,574,stimuli/own/bathroom/134_bat.jpg,stimuli/own/bathroom/141_bat.jpg,,,,,,,,,0,39,39,573,1112.356214583,,,,,,,,,,,1112.649024833,1112.8183455829999,1112.8183455829999,1112.8183455829999,1112.8183455829999,1112.8183455829999,1112.8183455829999,1112.8183455829999,1112.8183455829999,1134.6835457500001,7,-7,1,5.0,21.66742483300004,7.0,7.078330417000416,1112.354432958,1112.356214583,1112.8183455829999,1112.649009542,,,,,,,,1112.351430833,1112.354386083,None,,,,,,,,,,,201,bathroom,1,2024-03-12_11h38.30.108,image_similarity_rating,2023.2.3,None,2024-03-12 11h38.40.301997 +0100,
,121,140,441,441,stimuli/own/bathroom/121_bat.jpg,stimuli/own/bathroom/140_bat.jpg,,,,,,,,,0,40,40,440,1134.6886884169999,,,,,,,,,,,1134.9822052499999,1135.1477339580001,1135.1477339580001,1135.1477339580001,1135.1477339580001,1135.1477339580001,1135.1477339580001,1135.1477339580001,1135.1477339580001,1146.075275708,7,-7,1,5.0,5.37766449999981,5.0,8.493060582999988,1134.6867673749998,1134.6886884169999,1135.1477339580001,1134.9821917079998,,,,,,,,1134.683768625,1134.6867200420002,None,,,,,,,,,,,201,bathroom,1,2024-03-12_11h38.30.108,image_similarity_rating,2023.2.3,None,2024-03-12 11h38.40.301997 +0100,
,131,132,551,551,stimuli/own/bathroom/131_bat.jpg,stimuli/own/bathroom/132_bat.jpg,,,,,,,,,0,41,41,550,1146.0809450830002,,,,,,,,,,,1146.3655294169998,1146.529608208,1146.529608208,1146.529608208,1146.529608208,1146.529608208,1146.529608208,1146.529608208,1146.529608208,1168.374617125,-7,7,1,4.0,17.815310167000007,3.0,21.735356583999874,1146.0786427920002,1146.0809450830002,1146.529608208,1146.365519,,,,,,,,1146.0755009579998,1146.078595458,None,,,,,,,,,,,201,bathroom,1,2024-03-12_11h38.30.108,image_similarity_rating,2023.2.3,None,2024-03-12 11h38.40.301997 +0100,
,127,135,523,523,stimuli/own/bathroom/127_bat.jpg,stimuli/own/bathroom/135_bat.jpg,,,,,,,,,0,42,42,522,1168.3805189999998,,,,,,,,,,,1168.6666237499999,1168.8339650419998,1168.8339650419998,1168.8339650419998,1168.8339650419998,1168.8339650419998,1168.8339650419998,1168.8339650419998,1168.8339650419998,1180.7793474999999,7,-7,1,3.0,9.934749250000095,3.0,11.81261537499995,1168.3778552079998,1168.3805189999998,1168.8339650419998,1168.666609042,,,,,,,,1168.3748415,1168.37780875,None,,,,,,,,,,,201,bathroom,1,2024-03-12_11h38.30.108,image_similarity_rating,2023.2.3,None,2024-03-12 11h38.40.301997 +0100,
,111,119,224,224,stimuli/own/bathroom/111_bat.jpg,stimuli/own/bathroom/119_bat.jpg,,,,,,,,,0,43,43,223,1180.784783083,,,,,,,,,,,1181.0699990829999,1181.239283042,1181.239283042,1181.239283042,1181.239283042,1181.239283042,1181.239283042,1181.239283042,1181.239283042,1202.525987208,7,-7,1,6.0,12.688099375000093,3.0,21.257547958000032,1180.782624125,1180.784783083,1181.239283042,1181.0699838330002,,,,,,,,1180.779569417,1180.782577292,None,,,,,,,,,,,201,bathroom,1,2024-03-12_11h38.30.108,image_similarity_rating,2023.2.3,None,2024-03-12 11h38.40.301997 +0100,
,121,122,425,425,stimuli/own/bathroom/121_bat.jpg,stimuli/own/bathroom/122_bat.jpg,,,,,,,,,0,44,44,424,1202.5480577919998,,,,,,,,,,,1202.8315630000002,1202.9970868750002,1202.9970868750002,1202.9970868750002,1202.9970868750002,1202.9970868750002,1202.9970868750002,1202.9970868750002,1202.9970868750002,1220.929567625,-7,7,1,3.0,6.87857008400033,3.0,17.920926374999908,1202.529300792,1202.5480577919998,,1202.831547542,,,,,,,,1202.526207167,1202.529253917,None,,,,,,,,,,,201,bathroom,1,2024-03-12_11h38.30.108,image_similarity_rating,2023.2.3,None,2024-03-12 11h38.40.301997 +0100,
,121,130,432,432,stimuli/own/bathroom/121_bat.jpg,stimuli/own/bathroom/130_bat.jpg,,,,,,,,,0,45,45,431,1220.9348102499998,,,,,,,,,,,1221.2194346249998,1221.3840249579998,1221.3840249579998,1221.3840249579998,1221.3840249579998,1221.3840249579998,1221.3840249579998,1221.3840249579998,1221.3840249579998,1234.8458902920001,7,-7,1,2.0,13.40023683299978,6.0,5.08244408399969,1220.9328596669998,1220.9348102499998,1221.3840249579998,1221.2194238749998,,,,,,,,1220.9298146669998,1220.9328123750001,None,,,,,,,,,,,201,bathroom,1,2024-03-12_11h38.30.108,image_similarity_rating,2023.2.3,None,2024-03-12 11h38.40.301997 +0100,
,112,127,258,258,stimuli/own/bathroom/112_bat.jpg,stimuli/own/bathroom/127_bat.jpg,,,,,,,,,0,46,46,257,1234.8511235,,,,,,,,,,,1235.137113625,1235.3011986669999,1235.3011986669999,1235.3011986669999,1235.3011986669999,1235.3011986669999,1235.3011986669999,1235.3011986669999,1235.3011986669999,1250.604555542,-7,7,1,2.0,8.059719792000124,5.0,15.216758334000133,1234.849194083,1234.8511235,1235.3011986669999,1235.1370998329999,,,,,,,,1234.8461109169998,1234.8491466669998,None,,,,,,,,,,,201,bathroom,1,2024-03-12_11h38.30.108,image_similarity_rating,2023.2.3,None,2024-03-12 11h38.40.301997 +0100,
,129,130,530,530,stimuli/own/bathroom/129_bat.jpg,stimuli/own/bathroom/130_bat.jpg,,,,,,,,,0,47,47,529,1250.6139855000001,,,,,,,,,,,1250.8985964170001,1251.062872292,1251.062872292,1251.062872292,1251.062872292,1251.062872292,1251.062872292,1251.062872292,1251.062872292,1304.2080557079998,-7,7,1,4.0,39.822509458999775,3.0,45.42770687500024,1250.6078041249998,1250.6139855000001,1251.062872292,1250.8985858330002,,,,,,,,1250.604776792,1250.6077569580002,None,,,,,,,,,,,201,bathroom,1,2024-03-12_11h38.30.108,image_similarity_rating,2023.2.3,None,2024-03-12 11h38.40.301997 +0100,
,121,138,439,439,stimuli/own/bathroom/121_bat.jpg,stimuli/own/bathroom/138_bat.jpg,,,,,,,,,0,48,48,438,1304.2134783329998,,,,,,,,,,,1304.499029,1304.663103458,1304.663103458,1304.663103458,1304.663103458,1304.663103458,1304.663103458,1304.663103458,1304.663103458,1321.145585542,7,-7,1,2.0,16.42885270800025,1.0,10.146033042,1304.2113010829999,1304.2134783329998,1304.663103458,1304.4990157500001,,,,,,,,1304.208280625,1304.2112539999998,None,,,,,,,,,,,201,bathroom,1,2024-03-12_11h38.30.108,image_similarity_rating,2023.2.3,None,2024-03-12 11h38.40.301997 +0100,
,127,137,525,525,stimuli/own/bathroom/127_bat.jpg,stimuli/own/bathroom/137_bat.jpg,,,,,,,,,0,49,49,524,1321.1507201670001,,,,,,,,,,,1321.436323375,1321.5981956669998,1321.5981956669998,1321.5981956669998,1321.5981956669998,1321.5981956669998,1321.5981956669998,1321.5981956669998,1321.5981956669998,1332.453721458,7,-7,1,2.0,10.801255374999982,5.0,5.140718499999821,1321.1489715419998,1321.1507201670001,1321.5981956669998,1321.436312333,,,,,,,,1321.1458080829998,1321.148923917,None,,,,,,,,,,,201,bathroom,1,2024-03-12_11h38.30.108,image_similarity_rating,2023.2.3,None,2024-03-12 11h38.40.301997 +0100,
,122,126,446,446,stimuli/own/bathroom/122_bat.jpg,stimuli/own/bathroom/126_bat.jpg,,,,,,,,,0,50,50,445,1332.464165667,,,,,,,,,,,1332.748794042,1332.9143317500002,1332.9143317500002,1332.9143317500002,1332.9143317500002,1332.9143317500002,1332.9143317500002,1332.9143317500002,1332.9143317500002,1346.829252125,-7,7,1,3.0,8.41725016700002,6.0,11.747916166999858,1332.456961625,1332.464165667,1332.9143317500002,1332.7487808330002,,,,,,,,1332.453947167,1332.456914333,None,,,,,,,,,,,201,bathroom,1,2024-03-12_11h38.30.108,image_similarity_rating,2023.2.3,None,2024-03-12 11h38.40.301997 +0100,
,105,120,141,141,stimuli/own/bathroom/105_bat.jpg,stimuli/own/bathroom/120_bat.jpg,,,,,,,,,0,51,51,140,1346.834968792,,,,,,,,,,,1347.1183771249998,1347.2822379170002,1347.2822379170002,1347.2822379170002,1347.2822379170002,1347.2822379170002,1347.2822379170002,1347.2822379170002,1347.2822379170002,1367.129079708,-7,7,1,1.0,19.54476987499993,1.0,6.084580834000008,1346.8328700420002,1346.834968792,1347.2822379170002,1347.1183664169998,,,,,,,,1346.829504375,1346.8328122080002,None,,,,,,,,,,,201,bathroom,1,2024-03-12_11h38.30.108,image_similarity_rating,2023.2.3,None,2024-03-12 11h38.40.301997 +0100,
,101,138,31,31,stimuli/own/bathroom/101_bat.jpg,stimuli/own/bathroom/138_bat.jpg,,,,,,,,,0,52,52,30,1367.1344800000002,,,,,,,,,,,1367.4200620830002,1367.5838601249998,1367.5838601249998,1367.5838601249998,1367.5838601249998,1367.5838601249998,1367.5838601249998,1367.5838601249998,1367.5838601249998,1379.469487667,7,-7,1,2.0,7.729469417000018,3.0,11.400135040999885,1367.1323777920002,1367.1344800000002,1367.5838601249998,1367.420051083,,,,,,,,1367.129333167,1367.1323305,None,,,,,,,,,,,201,bathroom,1,2024-03-12_11h38.30.108,image_similarity_rating,2023.2.3,None,2024-03-12 11h38.40.301997 +0100,
,102,139,65,605,stimuli/own/bathroom/102_bat.jpg,stimuli/own/bathroom/139_bat.jpg,,,,,,,,,0,53,53,604,1379.4802261250002,,,,,,,,,,,1379.7649029999998,1379.9338981669998,1379.9338981669998,1379.9338981669998,1379.9338981669998,1379.9338981669998,1379.9338981669998,1379.9338981669998,1379.9338981669998,1412.1126572500002,7,-7,1,4.0,18.10149570800013,6.0,31.055617583000185,1379.4727897920002,1379.4802261250002,1379.9338981669998,1379.764876917,,,,,,,,1379.4697105,1379.4727426670001,None,,,,,,,,,,,201,bathroom,1,2024-03-12_11h38.30.108,image_similarity_rating,2023.2.3,None,2024-03-12 11h38.40.301997 +0100,
,104,120,111,111,stimuli/own/bathroom/104_bat.jpg,stimuli/own/bathroom/120_bat.jpg,,,,,,,,,0,54,54,110,1412.1178184999999,,,,,,,,,,,1412.401517417,1412.564232917,1412.564232917,1412.564232917,1412.564232917,1412.564232917,1412.564232917,1412.564232917,1412.564232917,1467.299118458,7,-7,1,3.0,52.42767833300013,2.0,54.65474716599965,1412.1159085,1412.1178184999999,1412.564232917,1412.4015060000002,,,,,,,,1412.112886042,1412.115861792,None,,,,,,,,,,,201,bathroom,1,2024-03-12_11h38.30.108,image_similarity_rating,2023.2.3,None,2024-03-12 11h38.40.301997 +0100,
,103,131,90,90,stimuli/own/bathroom/103_bat.jpg,stimuli/own/bathroom/131_bat.jpg,,,,,,,,,0,55,55,89,1467.304581625,,,,,,,,,,,1467.5988215000002,1467.7644408330002,1467.7644408330002,1467.7644408330002,1467.7644408330002,1467.7644408330002,1467.7644408330002,1467.7644408330002,1467.7644408330002,1476.6693881669999,7,-7,1,1.0,3.61534920899976,2.0,8.883499165999638,1467.3023547500002,1467.304581625,1467.7644408330002,1467.598807458,,,,,,,,1467.2993407499998,1467.302307167,None,,,,,,,,,,,201,bathroom,1,2024-03-12_11h38.30.108,image_similarity_rating,2023.2.3,None,2024-03-12 11h38.40.301997 +0100,
,101,125,20,20,stimuli/own/bathroom/101_bat.jpg,stimuli/own/bathroom/125_bat.jpg,,,,,,,,,0,56,56,19,1476.6798926249999,,,,,,,,,,,1476.9646118330002,1477.136795167,1477.136795167,1477.136795167,1477.136795167,1477.136795167,1477.136795167,1477.136795167,1477.136795167,1494.815607167,7,-7,1,3.0,7.5070770829997855,3.0,17.554845790999934,1476.6727017500002,1476.6798926249999,1477.136795167,1476.9645957920002,,,,,,,,1476.669615583,1476.672654167,None,,,,,,,,,,,201,bathroom,1,2024-03-12_11h38.30.108,image_similarity_rating,2023.2.3,None,2024-03-12 11h38.40.301997 +0100,
,104,116,107,107,stimuli/own/bathroom/104_bat.jpg,stimuli/own/bathroom/116_bat.jpg,,,,,,,,,0,57,57,106,1494.8208330419998,,,,,,,,,,,1495.1147393749998,1495.2799035419998,1495.2799035419998,1495.2799035419998,1495.2799035419998,1495.2799035419998,1495.2799035419998,1495.2799035419998,1495.2799035419998,1511.616662042,7,-7,1,4.0,16.0270316670003,6.0,10.990726750000249,1494.818912667,1494.8208330419998,1495.2799035419998,1495.1147220829998,,,,,,,,1494.815828792,1494.818865875,None,,,,,,,,,,,201,bathroom,1,2024-03-12_11h38.30.108,image_similarity_rating,2023.2.3,None,2024-03-12 11h38.40.301997 +0100,
,105,135,154,154,stimuli/own/bathroom/105_bat.jpg,stimuli/own/bathroom/135_bat.jpg,,,,,,,,,0,58,58,153,1511.621927792,,,,,,,,,,,1511.9144771669999,1512.084018167,1512.084018167,1512.084018167,1512.084018167,1512.084018167,1512.084018167,1512.084018167,1512.084018167,1523.902311792,7,-7,1,2.0,6.21615758300004,5.0,11.595426667000083,1511.619990583,1511.621927792,1512.084018167,1511.914455833,,,,,,,,1511.6168872499998,1511.6199442500001,None,,,,,,,,,,,201,bathroom,1,2024-03-12_11h38.30.108,image_similarity_rating,2023.2.3,None,2024-03-12 11h38.40.301997 +0100,
,116,131,333,333,stimuli/own/bathroom/116_bat.jpg,stimuli/own/bathroom/131_bat.jpg,,,,,,,,,0,59,59,332,1523.913139417,,,,,,,,,,,1524.1980144580002,1524.362345042,1524.362345042,1524.362345042,1524.362345042,1524.362345042,1524.362345042,1524.362345042,1524.362345042,1533.4321395420002,7,-7,1,1.0,7.242327791999742,1.0,5.259711000000152,1523.9055509579998,1523.913139417,1524.362345042,1524.1980010000002,,,,,,,,1523.902534708,1523.9055039999998,None,,,,,,,,,,,201,bathroom,1,2024-03-12_11h38.30.108,image_similarity_rating,2023.2.3,None,2024-03-12 11h38.40.301997 +0100,
,104,131,121,615,stimuli/own/bathroom/104_bat.jpg,stimuli/own/bathroom/131_bat.jpg,,,,,,,,,0,60,60,614,1533.4372802500002,,,,,,,,,,,1533.7309717080002,1533.8952342920002,1533.8952342920002,1533.8952342920002,1533.8952342920002,1533.8952342920002,1533.8952342920002,1533.8952342920002,1533.8952342920002,1542.1117481249998,-7,7,1,2.0,8.10074191600006,1.0,4.838250333999895,1533.43535375,1533.4372802500002,1533.8952342920002,1533.7309582080002,,,,,,,,1533.4323628749999,1533.4353073329999,None,,,,,,,,,,,201,bathroom,1,2024-03-12_11h38.30.108,image_similarity_rating,2023.2.3,None,2024-03-12 11h38.40.301997 +0100,
,112,132,262,611,stimuli/own/bathroom/112_bat.jpg,stimuli/own/bathroom/132_bat.jpg,,,,,,,,,0,61,61,610,1542.1173222920002,,,,,,,,,,,1542.401496417,1542.5658573750002,1542.5658573750002,1542.5658573750002,1542.5658573750002,1542.5658573750002,1542.5658573750002,1542.5658573750002,1542.5658573750002,1561.2860152080002,7,-7,1,2.0,7.289738250000028,5.0,18.620010250000178,1542.115043917,1542.1173222920002,1542.5658573750002,1542.401482875,,,,,,,,1542.1119749579998,1542.1149973329998,None,,,,,,,,,,,201,bathroom,1,2024-03-12_11h38.30.108,image_similarity_rating,2023.2.3,None,2024-03-12 11h38.40.301997 +0100,
,121,135,436,436,stimuli/own/bathroom/121_bat.jpg,stimuli/own/bathroom/135_bat.jpg,,,,,,,,,0,62,62,435,1561.2963770420001,,,,,,,,,,,1561.5809829999998,1561.747320208,1561.747320208,1561.747320208,1561.747320208,1561.747320208,1561.747320208,1561.747320208,1561.747320208,1583.1572795000002,7,-7,1,5.0,8.373982999999953,7.0,21.263056958000107,1561.289252083,1561.2963770420001,1561.747320208,1561.580965875,,,,,,,,1561.2862357499998,1561.2892055000002,None,,,,,,,,,,,201,bathroom,1,2024-03-12_11h38.30.108,image_similarity_rating,2023.2.3,None,2024-03-12 11h38.40.301997 +0100,
,111,125,230,230,stimuli/own/bathroom/111_bat.jpg,stimuli/own/bathroom/125_bat.jpg,,,,,,,,,0,63,63,229,1583.1626712500001,,,,,,,,,,,1585.664985583,1585.8331173329998,1585.8331173329998,1585.8331173329998,1585.8331173329998,1585.8331173329998,1585.8331173329998,1585.8331173329998,1585.8331173329998,1600.645236625,-7,7,2,3.0,13.292208125000343,5.0,10.065365208000003,1585.3680975829998,1585.371565375,1585.8331173329998,1585.6649684170002,,,,,,,,1583.1575078330002,1585.3664854580002,space,1583.1626712500001,2.2035302500003127,None,,,,,,,,201,bathroom,1,2024-03-12_11h38.30.108,image_similarity_rating,2023.2.3,None,2024-03-12 11h38.40.301997 +0100,
,112,121,252,252,stimuli/own/bathroom/112_bat.jpg,stimuli/own/bathroom/121_bat.jpg,,,,,,,,,0,64,64,251,1600.6512359580001,,,,,,,,,,,1600.9352140830001,1601.1052116249998,1601.1052116249998,1601.1052116249998,1601.1052116249998,1601.1052116249998,1601.1052116249998,1601.1052116249998,1601.1052116249998,1611.5828700830002,7,-7,2,2.0,7.246325040999636,3.0,10.455369750000045,1600.649146875,1600.6512359580001,1601.1052116249998,1600.93519525,,,,,,,,1600.645461833,1600.6490988750002,None,,,,,,,,,,,201,bathroom,1,2024-03-12_11h38.30.108,image_similarity_rating,2023.2.3,None,2024-03-12 11h38.40.301997 +0100,
,109,111,190,190,stimuli/own/bathroom/109_bat.jpg,stimuli/own/bathroom/111_bat.jpg,,,,,,,,,0,65,65,189,1611.5880133750002,,,,,,,,,,,1611.881685708,1612.048021042,1612.048021042,1612.048021042,1612.048021042,1612.048021042,1612.048021042,1612.048021042,1612.048021042,1624.757639208,-7,7,2,2.0,12.65739216699967,2.0,3.892883707999772,1611.5860766669998,1611.5880133750002,1612.048021042,1611.881671,,,,,,,,1611.5830941250001,1611.586030417,None,,,,,,,,,,,201,bathroom,1,2024-03-12_11h38.30.108,image_similarity_rating,2023.2.3,None,2024-03-12 11h38.40.301997 +0100,
,105,114,136,136,stimuli/own/bathroom/105_bat.jpg,stimuli/own/bathroom/114_bat.jpg,,,,,,,,,0,66,66,135,1624.7796900829999,,,,,,,,,,,1625.0637674999998,1625.231032875,1625.231032875,1625.231032875,1625.231032875,1625.231032875,1625.231032875,1625.231032875,1625.231032875,1633.173754125,-7,7,2,2.0,7.510578124999938,7.0,2.956469584000388,1624.760988167,1624.7796900829999,,1625.0637230419998,,,,,,,,1624.7578565,1624.760941083,None,,,,,,,,,,,201,bathroom,1,2024-03-12_11h38.30.108,image_similarity_rating,2023.2.3,None,2024-03-12 11h38.40.301997 +0100,
,102,117,45,45,stimuli/own/bathroom/102_bat.jpg,stimuli/own/bathroom/117_bat.jpg,,,,,,,,,0,67,67,44,1633.1791977080002,,,,,,,,,,,1633.4647302499998,1633.631106667,1633.631106667,1633.631106667,1633.631106667,1633.631106667,1633.631106667,1633.631106667,1633.631106667,1643.1237685830001,-7,7,2,1.0,9.530381332999696,5.0,3.213391416000377,1633.17697,1633.1791977080002,1633.631106667,1633.4647154579998,,,,,,,,1633.173977,1633.1769237499998,None,,,,,,,,,,,201,bathroom,1,2024-03-12_11h38.30.108,image_similarity_rating,2023.2.3,None,2024-03-12 11h38.40.301997 +0100,
,113,122,278,278,stimuli/own/bathroom/113_bat.jpg,stimuli/own/bathroom/122_bat.jpg,,,,,,,,,0,68,68,277,1643.1291731669999,,,,,,,,,,,1643.4149392919999,1643.58207825,1643.58207825,1643.58207825,1643.58207825,1643.58207825,1643.58207825,1643.58207825,1643.58207825,1657.328362833,-7,7,2,2.0,13.707366582999839,3.0,5.657647333000114,1643.126981417,1643.1291731669999,1643.58207825,1643.4149202079998,,,,,,,,1643.1239892079998,1643.1269346670001,None,,,,,,,,,,,201,bathroom,1,2024-03-12_11h38.30.108,image_similarity_rating,2023.2.3,None,2024-03-12 11h38.40.301997 +0100,
,102,111,40,40,stimuli/own/bathroom/102_bat.jpg,stimuli/own/bathroom/111_bat.jpg,,,,,,,,,0,69,69,39,1657.3335810419999,,,,,,,,,,,1657.6186914579998,1657.782433625,1657.782433625,1657.782433625,1657.782433625,1657.782433625,1657.782433625,1657.782433625,1657.782433625,1665.248367583,7,-7,2,3.0,7.107959040999958,6.0,2.858960374999697,1657.3316581670001,1657.3335810419999,1657.782433625,1657.618681125,,,,,,,,1657.3286013749998,1657.3316115829998,None,,,,,,,,,,,201,bathroom,1,2024-03-12_11h38.30.108,image_similarity_rating,2023.2.3,None,2024-03-12 11h38.40.301997 +0100,
,129,134,533,533,stimuli/own/bathroom/129_bat.jpg,stimuli/own/bathroom/134_bat.jpg,,,,,,,,,0,70,70,532,1665.2534867499999,,,,,,,,,,,1665.547534333,1665.712334417,1665.712334417,1665.712334417,1665.712334417,1665.712334417,1665.712334417,1665.712334417,1665.712334417,1676.8400927080002,7,-7,2,2.0,10.975309667000147,5.0,6.383626292000372,1665.25156075,1665.2534867499999,1665.712334417,1665.547520875,,,,,,,,1665.248585833,1665.251514125,None,,,,,,,,,,,201,bathroom,1,2024-03-12_11h38.30.108,image_similarity_rating,2023.2.3,None,2024-03-12 11h38.40.301997 +0100,
,123,137,471,471,stimuli/own/bathroom/123_bat.jpg,stimuli/own/bathroom/137_bat.jpg,,,,,,,,,0,71,71,470,1676.8456487499998,,,,,,,,,,,1677.130604167,1677.295300625,1677.295300625,1677.295300625,1677.295300625,1677.295300625,1677.295300625,1677.295300625,1677.295300625,1687.239591167,-7,7,2,2.0,10.031492125000113,6.0,6.928510290999839,1676.8432775420001,1676.8456487499998,1677.295300625,1677.13059075,,,,,,,,1676.840312583,1676.8432309579998,None,,,,,,,,,,,201,bathroom,1,2024-03-12_11h38.30.108,image_similarity_rating,2023.2.3,None,2024-03-12 11h38.40.301997 +0100,
,101,112,8,8,stimuli/own/bathroom/101_bat.jpg,stimuli/own/bathroom/112_bat.jpg,,,,,,,,,0,72,72,7,1687.2456509580002,,,,,,,,,,,1687.530691292,1687.692855333,1687.692855333,1687.692855333,1687.692855333,1687.692855333,1687.692855333,1687.692855333,1687.692855333,1699.5899158749999,-7,7,2,3.0,11.893071250000048,4.0,8.810398457999781,1687.2427737500002,1687.2456509580002,1687.692855333,1687.53068075,,,,,,,,1687.2398105000002,1687.242727333,None,,,,,,,,,,,201,bathroom,1,2024-03-12_11h38.30.108,image_similarity_rating,2023.2.3,None,2024-03-12 11h38.40.301997 +0100,
,102,126,54,54,stimuli/own/bathroom/102_bat.jpg,stimuli/own/bathroom/126_bat.jpg,,,,,,,,,0,73,73,53,1699.595625333,,,,,,,,,,,1699.880804167,1700.045786667,1700.045786667,1700.045786667,1700.045786667,1700.045786667,1700.045786667,1700.045786667,1700.045786667,1711.514968375,7,-7,2,3.0,8.420964541000103,3.0,11.446625250000125,1699.5931115829999,1699.595625333,1700.045786667,1699.8807902079998,,,,,,,,1699.5901358330002,1699.5930657079998,None,,,,,,,,,,,201,bathroom,1,2024-03-12_11h38.30.108,image_similarity_rating,2023.2.3,None,2024-03-12 11h38.40.301997 +0100,
,113,127,283,283,stimuli/own/bathroom/113_bat.jpg,stimuli/own/bathroom/127_bat.jpg,,,,,,,,,0,74,74,282,1711.520240375,,,,,,,,,,,1711.8142189169998,1711.979519208,1711.979519208,1711.979519208,1711.979519208,1711.979519208,1711.979519208,1711.979519208,1711.979519208,1721.7113401249999,7,-7,2,3.0,9.520068457999969,3.0,4.705355707999843,1711.5183186250001,1711.520240375,1711.979519208,1711.814206042,,,,,,,,1711.515189875,1711.518271375,None,,,,,,,,,,,201,bathroom,1,2024-03-12_11h38.30.108,image_similarity_rating,2023.2.3,None,2024-03-12 11h38.40.301997 +0100,
,125,141,504,504,stimuli/own/bathroom/125_bat.jpg,stimuli/own/bathroom/141_bat.jpg,,,,,,,,,0,75,75,503,1721.716733875,,,,,,,,,,,1722.0014597919999,1722.1656347919998,1722.1656347919998,1722.1656347919998,1722.1656347919998,1722.1656347919998,1722.1656347919998,1722.1656347919998,1722.1656347919998,1743.223331625,-7,7,2,2.0,18.633353416999853,6.0,7.9556981669998095,1721.7146189169998,1721.716733875,1722.1656347919998,1722.0014490419999,,,,,,,,1721.7115840830002,1721.714572458,None,,,,,,,,,,,201,bathroom,1,2024-03-12_11h38.30.108,image_similarity_rating,2023.2.3,None,2024-03-12 11h38.40.301997 +0100,
,117,136,359,359,stimuli/own/bathroom/117_bat.jpg,stimuli/own/bathroom/136_bat.jpg,,,,,,,,,0,76,76,358,1743.228899958,,,,,,,,,,,1743.5137881249998,1743.679277958,1743.679277958,1743.679277958,1743.679277958,1743.679277958,1743.679277958,1743.679277958,1743.679277958,1754.373289792,-7,7,2,2.0,8.395612124999843,3.0,10.29621645799989,1743.226547458,1743.228899958,1743.679277958,1743.5137735419999,,,,,,,,1743.2235540000001,1743.226500708,None,,,,,,,,,,,201,bathroom,1,2024-03-12_11h38.30.108,image_similarity_rating,2023.2.3,None,2024-03-12 11h38.40.301997 +0100,
,106,126,176,176,stimuli/own/bathroom/106_bat.jpg,stimuli/own/bathroom/126_bat.jpg,,,,,,,,,0,77,77,175,1754.3788490420002,,,,,,,,,,,1754.664468167,1754.830749542,1754.830749542,1754.830749542,1754.830749542,1754.830749542,1754.830749542,1754.830749542,1754.830749542,1768.3445434579999,7,-7,2,1.0,9.424962709000283,5.0,2.173927082999853,1754.3765733750001,1754.3788490420002,1754.830749542,1754.664455042,,,,,,,,1754.3735110829998,1754.3765265830002,None,,,,,,,,,,,201,bathroom,1,2024-03-12_11h38.30.108,image_similarity_rating,2023.2.3,None,2024-03-12 11h38.40.301997 +0100,
,120,140,423,423,stimuli/own/bathroom/120_bat.jpg,stimuli/own/bathroom/140_bat.jpg,,,,,,,,,0,78,78,422,1768.3499635419998,,,,,,,,,,,1768.63425125,1768.798643958,1768.798643958,1768.798643958,1768.798643958,1768.798643958,1768.798643958,1768.798643958,1768.798643958,1783.4982129999999,-7,7,2,4.0,9.87730775,3.0,14.619914000000335,1768.3478801249998,1768.3499635419998,1768.798643958,1768.634239042,,,,,,,,1768.344794875,1768.3478330829998,None,,,,,,,,,,,201,bathroom,1,2024-03-12_11h38.30.108,image_similarity_rating,2023.2.3,None,2024-03-12 11h38.40.301997 +0100,
,130,140,549,549,stimuli/own/bathroom/130_bat.jpg,stimuli/own/bathroom/140_bat.jpg,,,,,,,,,0,79,79,548,1783.5033278330002,,,,,,,,,,,1783.797651375,1783.9624736669998,1783.9624736669998,1783.9624736669998,1783.9624736669998,1783.9624736669998,1783.9624736669998,1783.9624736669998,1783.9624736669998,1799.2145814579999,-7,7,2,3.0,15.253238334000343,4.0,9.525355208999827,1783.5014095420001,1783.5033278330002,1783.9624736669998,1783.797632917,,,,,,,,1783.498435,1783.5013626250002,None,,,,,,,,,,,201,bathroom,1,2024-03-12_11h38.30.108,image_similarity_rating,2023.2.3,None,2024-03-12 11h38.40.301997 +0100,
,104,125,116,116,stimuli/own/bathroom/104_bat.jpg,stimuli/own/bathroom/125_bat.jpg,,,,,,,,,0,80,80,115,1799.219624792,,,,,,,,,,,1799.5142557079998,1799.6780638330001,1799.6780638330001,1799.6780638330001,1799.6780638330001,1799.6780638330001,1799.6780638330001,1799.6780638330001,1799.6780638330001,1806.277413917,7,-7,2,1.0,4.403362207999635,2.0,6.323749125000177,1799.217873,1799.219624792,1799.6780638330001,1799.5142424169999,,,,,,,,1799.2148017499999,1799.2178264579998,None,,,,,,,,,,,201,bathroom,1,2024-03-12_11h38.30.108,image_similarity_rating,2023.2.3,None,2024-03-12 11h38.40.301997 +0100,
,125,129,493,493,stimuli/own/bathroom/125_bat.jpg,stimuli/own/bathroom/129_bat.jpg,,,,,,,,,0,81,81,492,1806.2826648330001,,,,,,,,,,,1806.5675892499999,1806.735050625,1806.735050625,1806.735050625,1806.735050625,1806.735050625,1806.735050625,1806.735050625,1806.735050625,1822.1107335000002,7,-7,2,3.0,14.855838208000023,4.0,3.2383820840000226,1806.2806885,1806.2826648330001,1806.735050625,1806.5675756249998,,,,,,,,1806.27763675,1806.280641417,None,,,,,,,,,,,201,bathroom,1,2024-03-12_11h38.30.108,image_similarity_rating,2023.2.3,None,2024-03-12 11h38.40.301997 +0100,
,102,123,51,51,stimuli/own/bathroom/102_bat.jpg,stimuli/own/bathroom/123_bat.jpg,,,,,,,,,0,82,82,50,1822.1159764170002,,,,,,,,,,,1822.4005705,1822.5641742500002,1822.5641742500002,1822.5641742500002,1822.5641742500002,1822.5641742500002,1822.5641742500002,1822.5641742500002,1822.5641742500002,1844.3645915420002,7,-7,2,6.0,6.299811625000075,4.0,18.34035750000021,1822.114014625,1822.1159764170002,1822.5641742500002,1822.400559958,,,,,,,,1822.110962875,1822.1139684169998,None,,,,,,,,,,,201,bathroom,1,2024-03-12_11h38.30.108,image_similarity_rating,2023.2.3,None,2024-03-12 11h38.40.301997 +0100,
,104,111,103,103,stimuli/own/bathroom/104_bat.jpg,stimuli/own/bathroom/111_bat.jpg,,,,,,,,,0,83,83,102,1844.3697393329999,,,,,,,,,,,1844.663616542,1844.828333417,1844.828333417,1844.828333417,1844.828333417,1844.828333417,1844.828333417,1844.828333417,1844.828333417,1889.668633375,-7,7,2,3.0,42.4909512080003,3.0,44.71847399999979,1844.367817458,1844.3697393329999,1844.828333417,1844.663603,,,,,,,,1844.3648108329999,1844.3677710420002,None,,,,,,,,,,,201,bathroom,1,2024-03-12_11h38.30.108,image_similarity_rating,2023.2.3,None,2024-03-12 11h38.40.301997 +0100,
,109,131,208,208,stimuli/own/bathroom/109_bat.jpg,stimuli/own/bathroom/131_bat.jpg,,,,,,,,,0,84,84,207,1889.678631458,,,,,,,,,,,1889.963164875,1890.130066792,1890.130066792,1890.130066792,1890.130066792,1890.130066792,1890.130066792,1890.130066792,1890.130066792,1898.039244,7,-7,2,1.0,6.24262354099983,1.0,7.835875958000088,1889.6718740830001,1889.678631458,1890.130066792,1889.9631492079998,,,,,,,,1889.668855542,1889.6718273749998,None,,,,,,,,,,,201,bathroom,1,2024-03-12_11h38.30.108,image_similarity_rating,2023.2.3,None,2024-03-12 11h38.40.301997 +0100,
,104,121,112,112,stimuli/own/bathroom/104_bat.jpg,stimuli/own/bathroom/121_bat.jpg,,,,,,,,,0,85,85,111,1898.044959375,,,,,,,,,,,1898.3298692499998,1898.497297417,1898.497297417,1898.497297417,1898.497297417,1898.497297417,1898.497297417,1898.497297417,1898.497297417,1910.630933333,7,-7,2,2.0,11.832918042000074,2.0,5.924020208999991,1898.042451292,1898.044959375,1898.497297417,1898.329854833,,,,,,,,1898.039461458,1898.042404667,None,,,,,,,,,,,201,bathroom,1,2024-03-12_11h38.30.108,image_similarity_rating,2023.2.3,None,2024-03-12 11h38.40.301997 +0100,
,138,141,592,592,stimuli/own/bathroom/138_bat.jpg,stimuli/own/bathroom/141_bat.jpg,,,,,,,,,0,86,86,591,1910.636062167,,,,,,,,,,,1910.930975833,1911.0978436669998,1911.0978436669998,1911.0978436669998,1911.0978436669998,1911.0978436669998,1911.0978436669998,1911.0978436669998,1911.0978436669998,1921.7397099999998,-7,7,2,2.0,10.578579625000202,3.0,3.2349028339999677,1910.6341391249998,1910.636062167,1911.0978436669998,1910.930962292,,,,,,,,1910.6311530829998,1910.634092625,None,,,,,,,,,,,201,bathroom,1,2024-03-12_11h38.30.108,image_similarity_rating,2023.2.3,None,2024-03-12 11h38.40.301997 +0100,
,117,126,351,351,stimuli/own/bathroom/117_bat.jpg,stimuli/own/bathroom/126_bat.jpg,,,,,,,,,0,87,87,350,1921.7449188330002,,,,,,,,,,,1922.0297768750002,1922.1962199999998,1922.1962199999998,1922.1962199999998,1922.1962199999998,1922.1962199999998,1922.1962199999998,1922.1962199999998,1922.1962199999998,1938.5722893329998,-7,7,2,5.0,14.302602834000027,6.0,7.960637791999943,1921.742935458,1921.7449188330002,1922.1962199999998,1922.029756417,,,,,,,,1921.7399325830002,1921.7428890830001,None,,,,,,,,,,,201,bathroom,1,2024-03-12_11h38.30.108,image_similarity_rating,2023.2.3,None,2024-03-12 11h38.40.301997 +0100,
,122,137,455,455,stimuli/own/bathroom/122_bat.jpg,stimuli/own/bathroom/137_bat.jpg,,,,,,,,,0,88,88,454,1938.578109917,,,,,,,,,,,1938.8630586250001,1939.033800917,1939.033800917,1939.033800917,1939.033800917,1939.033800917,1939.033800917,1939.033800917,1939.033800917,1954.8222122500001,7,-7,2,4.0,9.847595415999876,5.0,15.478285333999793,1938.5755141250002,1938.578109917,1939.033800917,1938.863042083,,,,,,,,1938.572510292,1938.5754676669999,None,,,,,,,,,,,201,bathroom,1,2024-03-12_11h38.30.108,image_similarity_rating,2023.2.3,None,2024-03-12 11h38.40.301997 +0100,
,105,140,159,159,stimuli/own/bathroom/105_bat.jpg,stimuli/own/bathroom/140_bat.jpg,,,,,,,,,0,89,89,158,1954.8281216669998,,,,,,,,,,,1955.112910208,1955.2776644169999,1955.2776644169999,1955.2776644169999,1955.2776644169999,1955.2776644169999,1955.2776644169999,1955.2776644169999,1955.2776644169999,1967.3011885,-7,7,2,2.0,12.03767604199993,3.0,6.433631416000026,1954.8255261250001,1954.8281216669998,1955.2776644169999,1955.1128909999998,,,,,,,,1954.822432333,1954.8254792920002,None,,,,,,,,,,,201,bathroom,1,2024-03-12_11h38.30.108,image_similarity_rating,2023.2.3,None,2024-03-12 11h38.40.301997 +0100,
,104,131,121,121,stimuli/own/bathroom/104_bat.jpg,stimuli/own/bathroom/131_bat.jpg,,,,,,,,,0,90,90,120,1967.3117815,,,,,,,,,,,1967.596602833,1967.761984708,1967.761984708,1967.761984708,1967.761984708,1967.761984708,1967.761984708,1967.761984708,1967.761984708,1973.544036917,-7,7,2,2.0,3.7693749589998333,1.0,5.570347582999602,1967.3043950830001,1967.3117815,1967.761984708,1967.5965892079998,,,,,,,,1967.3014089580001,1967.3043484999998,None,,,,,,,,,,,201,bathroom,1,2024-03-12_11h38.30.108,image_similarity_rating,2023.2.3,None,2024-03-12 11h38.40.301997 +0100,
,105,117,138,596,stimuli/own/bathroom/105_bat.jpg,stimuli/own/bathroom/117_bat.jpg,,,,,,,,,0,91,91,595,1973.549259333,,,,,,,,,,,1973.834323917,1974.000178333,1974.000178333,1974.000178333,1974.000178333,1974.000178333,1974.000178333,1974.000178333,1974.000178333,1994.876988167,-7,7,2,4.0,20.564206332999674,5.0,2.504334374999871,1973.547321125,1973.549259333,1974.000178333,1973.834310458,,,,,,,,1973.544282792,1973.5472747499998,None,,,,,,,,,,,201,bathroom,1,2024-03-12_11h38.30.108,image_similarity_rating,2023.2.3,None,2024-03-12 11h38.40.301997 +0100,
,111,135,238,238,stimuli/own/bathroom/111_bat.jpg,stimuli/own/bathroom/135_bat.jpg,,,,,,,,,0,92,92,237,1994.8823217919999,,,,,,,,,,,1995.168806833,1995.3351739169998,1995.3351739169998,1995.3351739169998,1995.3351739169998,1995.3351739169998,1995.3351739169998,1995.3351739169998,1995.3351739169998,2014.672991292,-7,7,2,3.0,17.157553542000187,5.0,19.15205274999971,1994.880388083,1994.8823217919999,1995.3351739169998,1995.168792375,,,,,,,,1994.8772116670002,1994.8803413330002,None,,,,,,,,,,,201,bathroom,1,2024-03-12_11h38.30.108,image_similarity_rating,2023.2.3,None,2024-03-12 11h38.40.301997 +0100,
,103,139,97,97,stimuli/own/bathroom/103_bat.jpg,stimuli/own/bathroom/139_bat.jpg,,,,,,,,,0,93,93,96,2014.6781194169998,,,,,,,,,,,2014.9636622500002,2015.1288260830001,2015.1288260830001,2015.1288260830001,2015.1288260830001,2015.1288260830001,2015.1288260830001,2015.1288260830001,2015.1288260830001,2030.06786625,7,-7,2,3.0,5.507722333999936,4.0,14.230561124999895,2014.67620025,2014.6781194169998,2015.1288260830001,2014.9636486670001,,,,,,,,2014.673212583,2014.67615325,None,,,,,,,,,,,201,bathroom,1,2024-03-12_11h38.30.108,image_similarity_rating,2023.2.3,None,2024-03-12 11h38.40.301997 +0100,
,112,139,268,268,stimuli/own/bathroom/112_bat.jpg,stimuli/own/bathroom/139_bat.jpg,,,,,,,,,0,94,94,267,2030.078186958,,,,,,,,,,,2030.362852542,2030.531158792,2030.531158792,2030.531158792,2030.531158792,2030.531158792,2030.531158792,2030.531158792,2030.531158792,2046.643664917,-7,7,2,3.0,7.519768374999785,2.0,16.000388124999972,2030.071096708,2030.078186958,2030.531158792,2030.3628268329999,,,,,,,,2030.068090708,2030.0710494999998,None,,,,,,,,,,,201,bathroom,1,2024-03-12_11h38.30.108,image_similarity_rating,2023.2.3,None,2024-03-12 11h38.40.301997 +0100,
,113,139,293,293,stimuli/own/bathroom/113_bat.jpg,stimuli/own/bathroom/139_bat.jpg,,,,,,,,,0,95,95,292,2046.648742667,,,,,,,,,,,2046.9345255829999,2047.098853125,2047.098853125,2047.098853125,2047.098853125,2047.098853125,2047.098853125,2047.098853125,2047.098853125,2059.750535667,7,-7,2,5.0,4.0508998330001305,4.0,12.411690959000225,2046.646935417,2046.648742667,2047.098853125,2046.934508625,,,,,,,,2046.643917667,2046.646888833,None,,,,,,,,,,,201,bathroom,1,2024-03-12_11h38.30.108,image_similarity_rating,2023.2.3,None,2024-03-12 11h38.40.301997 +0100,
,104,139,128,128,stimuli/own/bathroom/104_bat.jpg,stimuli/own/bathroom/139_bat.jpg,,,,,,,,,0,96,96,127,2059.761400708,,,,,,,,,,,2060.046775875,2060.212581708,2060.212581708,2060.212581708,2060.212581708,2060.212581708,2060.212581708,2060.212581708,2060.212581708,2069.384122042,-7,7,2,3.0,9.109922000000097,2.0,5.064242625000134,2059.75376175,2059.761400708,2060.212581708,2060.046757542,,,,,,,,2059.750753125,2059.753715167,None,,,,,,,,,,,201,bathroom,1,2024-03-12_11h38.30.108,image_similarity_rating,2023.2.3,None,2024-03-12 11h38.40.301997 +0100,
,109,127,205,205,stimuli/own/bathroom/109_bat.jpg,stimuli/own/bathroom/127_bat.jpg,,,,,,,,,0,97,97,204,2069.3947508749998,,,,,,,,,,,2069.68015775,2069.851682792,2069.851682792,2069.851682792,2069.851682792,2069.851682792,2069.851682792,2069.851682792,2069.851682792,2078.084954375,-7,7,2,3.0,4.831808124999952,2.0,6.436350082999979,2069.387328583,2069.3947508749998,2069.851682792,2069.680137958,,,,,,,,2069.38434275,2069.387282083,None,,,,,,,,,,,201,bathroom,1,2024-03-12_11h38.30.108,image_similarity_rating,2023.2.3,None,2024-03-12 11h38.40.301997 +0100,
,105,141,160,160,stimuli/own/bathroom/105_bat.jpg,stimuli/own/bathroom/141_bat.jpg,,,,,,,,,0,98,98,159,2078.0947075,,,,,,,,,,,2078.379343083,2078.547682708,2078.547682708,2078.547682708,2078.547682708,2078.547682708,2078.547682708,2078.547682708,2078.547682708,2094.597063625,7,-7,2,4.0,15.174098125,3.0,4.111059290999947,2078.088179542,2078.0947075,2078.547682708,2078.379318167,,,,,,,,2078.0851819169998,2078.088132917,None,,,,,,,,,,,201,bathroom,1,2024-03-12_11h38.30.108,image_similarity_rating,2023.2.3,None,2024-03-12 11h38.40.301997 +0100,
,118,124,370,370,stimuli/own/bathroom/118_bat.jpg,stimuli/own/bathroom/124_bat.jpg,,,,,,,,,0,99,99,369,2094.602122,,,,,,,,,,,2094.895991958,2095.060723583,2095.060723583,2095.060723583,2095.060723583,2095.060723583,2095.060723583,2095.060723583,2095.060723583,2109.510124417,7,-7,2,5.0,14.208449167000254,4.0,4.083403665999867,2094.60028625,2094.602122,2095.060723583,2094.895978708,,,,,,,,2094.597286625,2094.600239583,None,,,,,,,,,,,201,bathroom,1,2024-03-12_11h38.30.108,image_similarity_rating,2023.2.3,None,2024-03-12 11h38.40.301997 +0100,
,117,127,352,352,stimuli/own/bathroom/117_bat.jpg,stimuli/own/bathroom/127_bat.jpg,,,,,,,,,0,100,100,351,2109.515318917,,,,,,,,,,,2109.800161333,2109.964670458,2109.964670458,2109.964670458,2109.964670458,2109.964670458,2109.964670458,2109.964670458,2109.964670458,2120.81023625,-7,7,2,3.0,9.193857333999858,3.0,10.709242874999745,2109.513394833,2109.515318917,2109.964670458,2109.800144292,,,,,,,,2109.5103707499998,2109.513348417,None,,,,,,,,,,,201,bathroom,1,2024-03-12_11h38.30.108,image_similarity_rating,2023.2.3,None,2024-03-12 11h38.40.301997 +0100,
,111,117,222,222,stimuli/own/bathroom/111_bat.jpg,stimuli/own/bathroom/117_bat.jpg,,,,,,,,,0,101,101,221,2120.815735625,,,,,,,,,,,2121.099920458,2121.263536125,2121.263536125,2121.263536125,2121.263536125,2121.263536125,2121.263536125,2121.263536125,2121.263536125,2130.981369625,7,-7,2,3.0,9.825824457999715,3.0,7.000567875000343,2120.813496708,2120.815735625,2121.263536125,2121.099909667,,,,,,,,2120.810479417,2120.813449875,None,,,,,,,,,,,201,bathroom,1,2024-03-12_11h38.30.108,image_similarity_rating,2023.2.3,None,2024-03-12 11h38.40.301997 +0100,
,119,135,399,399,stimuli/own/bathroom/119_bat.jpg,stimuli/own/bathroom/135_bat.jpg,,,,,,,,,0,102,102,398,2130.994532333,,,,,,,,,,,2131.2796945,2131.445623667,2131.445623667,2131.445623667,2131.445623667,2131.445623667,2131.445623667,2131.445623667,2131.445623667,2144.018278125,7,-7,2,3.0,12.585755707999851,3.0,5.49097033399994,2130.984788167,2130.994532333,2131.445623667,2131.279680625,,,,,,,,2130.981598042,2130.984740458,None,,,,,,,,,,,201,bathroom,1,2024-03-12_11h38.30.108,image_similarity_rating,2023.2.3,None,2024-03-12 11h38.40.301997 +0100,
,112,136,265,265,stimuli/own/bathroom/112_bat.jpg,stimuli/own/bathroom/136_bat.jpg,,,,,,,,,0,103,103,264,2144.027703792,,,,,,,,,,,2144.312410458,2144.477599125,2144.477599125,2144.477599125,2144.477599125,2144.477599125,2144.477599125,2144.477599125,2144.477599125,2165.188377917,7,-7,2,1.0,10.717268041999887,5.0,20.725755458000094,2144.021506792,2144.027703792,2144.477599125,2144.312397125,,,,,,,,2144.018509583,2144.021459875,None,,,,,,,,,,,201,bathroom,1,2024-03-12_11h38.30.108,image_similarity_rating,2023.2.3,None,2024-03-12 11h38.40.301997 +0100,
,102,131,58,58,stimuli/own/bathroom/102_bat.jpg,stimuli/own/bathroom/131_bat.jpg,,,,,,,,,0,104,104,57,2165.194218833,,,,,,,,,,,2165.479882208,2165.643596167,2165.643596167,2165.643596167,2165.643596167,2165.643596167,2165.643596167,2165.643596167,2165.643596167,2173.781357583,7,-7,2,2.0,8.186434457999894,2.0,4.448810834000142,2165.19158225,2165.194218833,2165.643596167,2165.479868833,,,,,,,,2165.188597125,2165.191535833,None,,,,,,,,,,,201,bathroom,1,2024-03-12_11h38.30.108,image_similarity_rating,2023.2.3,None,2024-03-12 11h38.40.301997 +0100,
,111,120,225,225,stimuli/own/bathroom/111_bat.jpg,stimuli/own/bathroom/120_bat.jpg,,,,,,,,,0,105,105,224,2173.786568417,,,,,,,,,,,2174.079886667,2174.245994208,2174.245994208,2174.245994208,2174.245994208,2174.245994208,2174.245994208,2174.245994208,2174.245994208,2194.47626075,7,-7,2,3.0,8.068974583,3.0,20.06962804099976,2173.784563458,2173.786568417,2174.245994208,2174.079868542,,,,,,,,2173.781577083,2173.784517,None,,,,,,,,,,,201,bathroom,1,2024-03-12_11h38.30.108,image_similarity_rating,2023.2.3,None,2024-03-12 11h38.40.301997 +0100,
,121,136,437,437,stimuli/own/bathroom/121_bat.jpg,stimuli/own/bathroom/136_bat.jpg,,,,,,,,,0,106,106,436,2194.481640167,,,,,,,,,,,2194.766921125,2194.934569875,2194.934569875,2194.934569875,2194.934569875,2194.934569875,2194.934569875,2194.934569875,2194.934569875,2209.743318458,-7,7,2,3.0,13.308761499999946,6.0,2.6582433339999625,2194.479544625,2194.481640167,2194.934569875,2194.766907792,,,,,,,,2194.476482708,2194.479490917,None,,,,,,,,,,,201,bathroom,1,2024-03-12_11h38.30.108,image_similarity_rating,2023.2.3,None,2024-03-12 11h38.40.301997 +0100,
,101,106,5,5,stimuli/own/bathroom/101_bat.jpg,stimuli/own/bathroom/106_bat.jpg,,,,,,,,,0,107,107,4,2209.748513958,,,,,,,,,,,2210.033409083,2210.205127458,2210.205127458,2210.205127458,2210.205127458,2210.205127458,2210.205127458,2210.205127458,2210.205127458,2220.927092208,7,-7,2,2.0,7.781013083000289,4.0,10.037617417000092,2209.746570125,2209.748513958,2210.205127458,2210.0333935,,,,,,,,2209.743555458,2209.746523292,None,,,,,,,,,,,201,bathroom,1,2024-03-12_11h38.30.108,image_similarity_rating,2023.2.3,None,2024-03-12 11h38.40.301997 +0100,
,120,137,420,420,stimuli/own/bathroom/120_bat.jpg,stimuli/own/bathroom/137_bat.jpg,,,,,,,,,0,108,108,419,2220.932145667,,,,,,,,,,,2221.216090917,2221.384010792,2221.384010792,2221.384010792,2221.384010792,2221.384010792,2221.384010792,2221.384010792,2221.384010792,2234.972016375,7,-7,2,2.0,13.312788791999992,6.0,7.253208833999906,2220.930387875,2220.932145667,2221.384010792,2221.216073708,,,,,,,,2220.927316958,2220.930338,None,,,,,,,,,,,201,bathroom,1,2024-03-12_11h38.30.108,image_similarity_rating,2023.2.3,None,2024-03-12 11h38.40.301997 +0100,
,101,113,9,9,stimuli/own/bathroom/101_bat.jpg,stimuli/own/bathroom/113_bat.jpg,,,,,,,,,0,109,109,8,2234.9772428329998,,,,,,,,,,,2235.263245708,2235.42815425,2235.42815425,2235.42815425,2235.42815425,2235.42815425,2235.42815425,2235.42815425,2235.42815425,2244.072358625,-7,7,2,2.0,4.427161582999815,4.0,7.609541249999893,2234.975356583,2234.9772428329998,2235.42815425,2235.263226708,,,,,,,,2234.972235167,2234.975310125,None,,,,,,,,,,,201,bathroom,1,2024-03-12_11h38.30.108,image_similarity_rating,2023.2.3,None,2024-03-12 11h38.40.301997 +0100,
,106,140,188,188,stimuli/own/bathroom/106_bat.jpg,stimuli/own/bathroom/140_bat.jpg,,,,,,,,,0,110,110,187,2244.094207083,,,,,,,,,,,2244.378387208,2244.545359417,2244.545359417,2244.545359417,2244.545359417,2244.545359417,2244.545359417,2244.545359417,2244.545359417,2256.792656958,-7,7,2,2.0,12.271924207999746,3.0,4.4112903330001245,2244.075645833,2244.094207083,,2244.378355292,,,,,,,,2244.072577625,2244.0755995,None,,,,,,,,,,,201,bathroom,1,2024-03-12_11h38.30.108,image_similarity_rating,2023.2.3,None,2024-03-12 11h38.40.301997 +0100,
,117,123,348,348,stimuli/own/bathroom/117_bat.jpg,stimuli/own/bathroom/123_bat.jpg,,,,,,,,,0,111,111,347,2256.797879,,,,,,,,,,,2257.083640208,2257.248260958,2257.248260958,2257.248260958,2257.248260958,2257.248260958,2257.248260958,2257.248260958,2257.248260958,2269.100931167,7,-7,2,2.0,11.576914916000078,5.0,5.294128000000001,2256.796130708,2256.797879,2257.248260958,2257.0836265,,,,,,,,2256.792880125,2256.796081458,None,,,,,,,,,,,201,bathroom,1,2024-03-12_11h38.30.108,image_similarity_rating,2023.2.3,None,2024-03-12 11h38.40.301997 +0100,
,119,136,400,400,stimuli/own/bathroom/119_bat.jpg,stimuli/own/bathroom/136_bat.jpg,,,,,,,,,0,112,112,399,2269.110744542,,,,,,,,,,,2269.396224958,2269.5630835,2269.5630835,2269.5630835,2269.5630835,2269.5630835,2269.5630835,2269.5630835,2269.5630835,2286.129809375,7,-7,2,2.0,11.57055900000023,1.0,16.51925325000002,2269.104159583,2269.110744542,2269.5630835,2269.396209583,,,,,,,,2269.101154667,2269.104113208,None,,,,,,,,,,,201,bathroom,1,2024-03-12_11h38.30.108,image_similarity_rating,2023.2.3,None,2024-03-12 11h38.40.301997 +0100,
,104,138,127,127,stimuli/own/bathroom/104_bat.jpg,stimuli/own/bathroom/138_bat.jpg,,,,,,,,,0,113,113,126,2286.13521075,,,,,,,,,,,2286.429467917,2286.596985458,2286.596985458,2286.596985458,2286.596985458,2286.596985458,2286.596985458,2286.596985458,2286.596985458,2300.084115792,7,-7,2,1.0,13.497676333000072,5.0,7.861974666999686,2286.133113833,2286.13521075,2286.596985458,2286.429452167,,,,,,,,2286.130025083,2286.133067292,None,,,,,,,,,,,201,bathroom,1,2024-03-12_11h38.30.108,image_similarity_rating,2023.2.3,None,2024-03-12 11h38.40.301997 +0100,
,123,132,467,467,stimuli/own/bathroom/123_bat.jpg,stimuli/own/bathroom/132_bat.jpg,,,,,,,,,0,114,114,466,2300.0940685,,,,,,,,,,,2300.379382417,2300.543468292,2300.543468292,2300.543468292,2300.543468292,2300.543468292,2300.543468292,2300.543468292,2300.543468292,2307.892934625,7,-7,2,2.0,3.890075749999596,3.0,7.262716707999971,2300.087407708,2300.0940685,2300.543468292,2300.379369292,,,,,,,,2300.08433475,2300.087361625,None,,,,,,,,,,,201,bathroom,1,2024-03-12_11h38.30.108,image_similarity_rating,2023.2.3,None,2024-03-12 11h38.40.301997 +0100,
,112,123,254,254,stimuli/own/bathroom/112_bat.jpg,stimuli/own/bathroom/123_bat.jpg,,,,,,,,,0,115,115,253,2307.898361833,,,,,,,,,,,2308.182875917,2308.351725458,2308.351725458,2308.351725458,2308.351725458,2308.351725458,2308.351725458,2308.351725458,2308.351725458,2322.093033417,7,-7,2,6.0,6.713994582999931,2.0,13.443495916999836,2307.896197875,2307.898361833,2308.351725458,2308.182859917,,,,,,,,2307.893181542,2307.896151417,None,,,,,,,,,,,201,bathroom,1,2024-03-12_11h38.30.108,image_similarity_rating,2023.2.3,None,2024-03-12 11h38.40.301997 +0100,
,106,125,175,175,stimuli/own/bathroom/106_bat.jpg,stimuli/own/bathroom/125_bat.jpg,,,,,,,,,0,116,116,174,2322.0984574999998,,,,,,,,,,,2322.383793,2322.547762917,2322.547762917,2322.547762917,2322.547762917,2322.547762917,2322.547762917,2322.547762917,2322.547762917,2333.749663875,7,-7,2,3.0,10.66570162500011,5.0,2.944745917000091,2322.0963095,2322.0984574999998,2322.547762917,2322.383782125,,,,,,,,2322.093273375,2322.0962635,None,,,,,,,,,,,201,bathroom,1,2024-03-12_11h38.30.108,image_similarity_rating,2023.2.3,None,2024-03-12 11h38.40.301997 +0100,
,131,134,552,552,stimuli/own/bathroom/131_bat.jpg,stimuli/own/bathroom/134_bat.jpg,,,,,,,,,0,117,117,551,2333.760549708,,,,,,,,,,,2334.04548675,2334.210305,2334.210305,2334.210305,2334.210305,2334.210305,2334.210305,2334.210305,2334.210305,2345.492522042,-7,7,2,3.0,7.87520779200031,4.0,10.071124749999854,2333.752865083,2333.760549708,2334.210305,2334.04547325,,,,,,,,2333.749883542,2333.752818083,None,,,,,,,,,,,201,bathroom,1,2024-03-12_11h38.30.108,image_similarity_rating,2023.2.3,None,2024-03-12 11h38.40.301997 +0100,
,101,102,1,1,stimuli/own/bathroom/101_bat.jpg,stimuli/own/bathroom/102_bat.jpg,,,,,,,,,0,118,118,0,2345.497699917,,,,,,,,,,,2345.782290833,2345.945971042,2345.945971042,2345.945971042,2345.945971042,2345.945971042,2345.945971042,2345.945971042,2345.945971042,2362.067856917,7,-7,2,3.0,15.430410292000033,6.0,11.245775417000004,2345.495766458,2345.497699917,2345.945971042,2345.78227725,,,,,,,,2345.492742417,2345.495719792,None,,,,,,,,,,,201,bathroom,1,2024-03-12_11h38.30.108,image_similarity_rating,2023.2.3,None,2024-03-12 11h38.40.301997 +0100,
,101,127,22,22,stimuli/own/bathroom/101_bat.jpg,stimuli/own/bathroom/127_bat.jpg,,,,,,,,,0,119,119,21,2362.077185958,,,,,,,,,,,2362.362141958,2362.527011833,2362.527011833,2362.527011833,2362.527011833,2362.527011833,2362.527011833,2362.527011833,2362.527011833,2372.970790458,-7,7,2,3.0,5.580976250000276,3.0,9.398092082999938,2362.071309042,2362.077185958,2362.527011833,2362.362128292,,,,,,,,2362.068080333,2362.07125975,None,,,,,,,,,,,201,bathroom,1,2024-03-12_11h38.30.108,image_similarity_rating,2023.2.3,None,2024-03-12 11h38.40.301997 +0100,
,114,138,316,316,stimuli/own/bathroom/114_bat.jpg,stimuli/own/bathroom/138_bat.jpg,,,,,,,,,0,120,120,315,2372.976843667,,,,,,,,,,,2373.261839083,2373.428689958,2373.428689958,2373.428689958,2373.428689958,2373.428689958,2373.428689958,2373.428689958,2373.428689958,2387.90442525,-7,7,2,2.0,4.7957367089998115,3.0,13.438373667000178,2372.974109917,2372.976843667,2373.428689958,2373.261823917,,,,,,,,2372.971009208,2372.974063792,None,,,,,,,,,,,201,bathroom,1,2024-03-12_11h38.30.108,image_similarity_rating,2023.2.3,None,2024-03-12 11h38.40.301997 +0100,
,102,120,48,48,stimuli/own/bathroom/102_bat.jpg,stimuli/own/bathroom/120_bat.jpg,,,,,,,,,0,121,121,47,2387.910191042,,,,,,,,,,,2388.195905083,2388.36041175,2388.36041175,2388.36041175,2388.36041175,2388.36041175,2388.36041175,2388.36041175,2388.36041175,2397.779486375,-7,7,2,5.0,9.405041458999676,5.0,4.348143124999751,2387.90762825,2387.910191042,2388.36041175,2388.195892458,,,,,,,,2387.904646625,2387.90758175,None,,,,,,,,,,,201,bathroom,1,2024-03-12_11h38.30.108,image_similarity_rating,2023.2.3,None,2024-03-12 11h38.40.301997 +0100,
,103,116,76,76,stimuli/own/bathroom/103_bat.jpg,stimuli/own/bathroom/116_bat.jpg,,,,,,,,,0,122,122,75,2397.784630958,,,,,,,,,,,2398.079118417,2398.244733625,2398.244733625,2398.244733625,2398.244733625,2398.244733625,2398.244733625,2398.244733625,2398.244733625,2413.812765875,-7,7,2,4.0,15.179692249999789,5.0,4.431667249999919,2397.782695125,2397.784630958,2398.244733625,2398.07910475,,,,,,,,2397.77972375,2397.782648833,None,,,,,,,,,,,201,bathroom,1,2024-03-12_11h38.30.108,image_similarity_rating,2023.2.3,None,2024-03-12 11h38.40.301997 +0100,
,119,138,402,402,stimuli/own/bathroom/119_bat.jpg,stimuli/own/bathroom/138_bat.jpg,,,,,,,,,0,123,123,401,2413.817813,,,,,,,,,,,2414.111739708,2414.28360175,2414.28360175,2414.28360175,2414.28360175,2414.28360175,2414.28360175,2414.28360175,2414.28360175,2426.362968875,7,-7,2,3.0,7.2271225839999715,4.0,11.330652417000238,2413.816066667,2413.817813,2414.28360175,2414.111718917,,,,,,,,2413.812985333,2413.816020458,None,,,,,,,,,,,201,bathroom,1,2024-03-12_11h38.30.108,image_similarity_rating,2023.2.3,None,2024-03-12 11h38.40.301997 +0100,
,129,138,537,537,stimuli/own/bathroom/129_bat.jpg,stimuli/own/bathroom/138_bat.jpg,,,,,,,,,0,124,124,536,2426.368114208,,,,,,,,,,,2426.661628667,2426.831346792,2426.831346792,2426.831346792,2426.831346792,2426.831346792,2426.831346792,2426.831346792,2426.831346792,2454.662611125,7,-7,2,6.0,27.721435333000045,2.0,10.284838625000248,2426.366186167,2426.368114208,2426.831346792,2426.661611458,,,,,,,,2426.36318875,2426.366139958,None,,,,,,,,,,,201,bathroom,1,2024-03-12_11h38.30.108,image_similarity_rating,2023.2.3,None,2024-03-12 11h38.40.301997 +0100,
,101,130,24,24,stimuli/own/bathroom/101_bat.jpg,stimuli/own/bathroom/130_bat.jpg,,,,,,,,,0,125,125,23,2454.66772575,,,,,,,,,,,2454.961893958,2455.129369125,2455.129369125,2455.129369125,2455.129369125,2455.129369125,2455.129369125,2455.129369125,2455.129369125,2470.446128708,7,-7,2,5.0,15.210768458000075,4.0,5.620262750000165,2454.665806208,2454.66772575,2455.129369125,2454.961878833,,,,,,,,2454.662829833,2454.665759833,None,,,,,,,,,,,201,bathroom,1,2024-03-12_11h38.30.108,image_similarity_rating,2023.2.3,None,2024-03-12 11h38.40.301997 +0100,
,102,132,59,59,stimuli/own/bathroom/102_bat.jpg,stimuli/own/bathroom/132_bat.jpg,,,,,,,,,0,126,126,58,2470.451364333,,,,,,,,,,,2472.47813,2472.650102167,2472.650102167,2472.650102167,2472.650102167,2472.650102167,2472.650102167,2472.650102167,2472.650102167,2514.404852333,-7,7,3,2.0,35.26661162499977,2.0,41.60812962499995,2472.180899917,2472.184442167,2472.650102167,2472.478113625,,,,,,,,2470.446349125,2472.180503917,space,2470.451364333,1.728923166000186,None,,,,,,,,201,bathroom,1,2024-03-12_11h38.30.108,image_similarity_rating,2023.2.3,None,2024-03-12 11h38.40.301997 +0100,
,122,124,444,444,stimuli/own/bathroom/122_bat.jpg,stimuli/own/bathroom/124_bat.jpg,,,,,,,,,0,127,127,443,2514.4116612499997,,,,,,,,,,,2514.694825,2514.859141083,2514.859141083,2514.859141083,2514.859141083,2514.859141083,2514.859141083,2514.859141083,2514.859141083,2524.6291415,-7,7,3,3.0,7.5703923330002,1.0,9.536012790999848,2514.4087628330003,2514.4116612499997,2514.859141083,2514.6948109170003,,,,,,,,2514.405076458,2514.4087153329997,None,,,,,,,,,,,201,bathroom,1,2024-03-12_11h38.30.108,image_similarity_rating,2023.2.3,None,2024-03-12 11h38.40.301997 +0100,
,106,136,184,184,stimuli/own/bathroom/106_bat.jpg,stimuli/own/bathroom/136_bat.jpg,,,,,,,,,0,128,128,183,2524.6344282080004,,,,,,,,,,,2524.9281119169996,2525.0904442919996,2525.0904442919996,2525.0904442919996,2525.0904442919996,2525.0904442919996,2525.0904442919996,2525.0904442919996,2525.0904442919996,2534.383639583,-7,7,3,1.0,9.201802958000371,5.0,3.1167852910002694,2524.6324724170004,2524.6344282080004,2525.0904442919996,2524.9281009580004,,,,,,,,2524.6293612080003,2524.632426292,None,,,,,,,,,,,201,bathroom,1,2024-03-12_11h38.30.108,image_similarity_rating,2023.2.3,None,2024-03-12 11h38.40.301997 +0100,
,106,121,171,171,stimuli/own/bathroom/106_bat.jpg,stimuli/own/bathroom/121_bat.jpg,,,,,,,,,0,129,129,170,2534.393362542,,,,,,,,,,,2534.6787222079997,2534.84522125,2534.84522125,2534.84522125,2534.84522125,2534.84522125,2534.84522125,2534.84522125,2534.84522125,2542.283560917,-7,7,3,1.0,3.2824533339999107,5.0,6.5527036249995945,2534.3868688750003,2534.393362542,2534.84522125,2534.678709083,,,,,,,,2534.3838687499997,2534.386822958,None,,,,,,,,,,,201,bathroom,1,2024-03-12_11h38.30.108,image_similarity_rating,2023.2.3,None,2024-03-12 11h38.40.301997 +0100,
,136,139,583,603,stimuli/own/bathroom/136_bat.jpg,stimuli/own/bathroom/139_bat.jpg,,,,,,,,,0,130,130,602,2542.293358167,,,,,,,,,,,2542.578799167,2542.7447074999995,2542.7447074999995,2542.7447074999995,2542.7447074999995,2542.7447074999995,2542.7447074999995,2542.7447074999995,2542.7447074999995,2554.092838,7,-7,3,3.0,11.347032874999968,5.0,5.884753541999999,2542.2867934170004,2542.293358167,2542.7447074999995,2542.5787794579996,,,,,,,,2542.2837864999997,2542.2867469999997,None,,,,,,,,,,,201,bathroom,1,2024-03-12_11h38.30.108,image_similarity_rating,2023.2.3,None,2024-03-12 11h38.40.301997 +0100,
,105,138,157,157,stimuli/own/bathroom/105_bat.jpg,stimuli/own/bathroom/138_bat.jpg,,,,,,,,,0,131,131,156,2554.098021208,,,,,,,,,,,2554.382033083,2554.5475348329996,2554.5475348329996,2554.5475348329996,2554.5475348329996,2554.5475348329996,2554.5475348329996,2554.5475348329996,2554.5475348329996,2575.841917583,7,-7,3,3.0,20.7413930419998,4.0,6.998088416999963,2554.0961180420004,2554.098021208,2554.5475348329996,2554.3820207080003,,,,,,,,2554.093056583,2554.096070125,None,,,,,,,,,,,201,bathroom,1,2024-03-12_11h38.30.108,image_similarity_rating,2023.2.3,None,2024-03-12 11h38.40.301997 +0100,
,135,139,578,578,stimuli/own/bathroom/135_bat.jpg,stimuli/own/bathroom/139_bat.jpg,,,,,,,,,0,132,132,577,2575.8469780419996,,,,,,,,,,,2576.132286292,2576.3028077920003,2576.3028077920003,2576.3028077920003,2576.3028077920003,2576.3028077920003,2576.3028077920003,2576.3028077920003,2576.3028077920003,2587.079003167,-7,7,3,6.0,10.54082437499983,6.0,3.289685124999778,2575.8451944579997,2575.8469780419996,2576.3028077920003,2576.1322716669997,,,,,,,,2575.842145833,2575.845146667,None,,,,,,,,,,,201,bathroom,1,2024-03-12_11h38.30.108,image_similarity_rating,2023.2.3,None,2024-03-12 11h38.40.301997 +0100,
,131,136,554,554,stimuli/own/bathroom/131_bat.jpg,stimuli/own/bathroom/136_bat.jpg,,,,,,,,,0,133,133,553,2587.0843671670004,,,,,,,,,,,2587.3778189170002,2587.54395025,2587.54395025,2587.54395025,2587.54395025,2587.54395025,2587.54395025,2587.54395025,2587.54395025,2604.6502566249997,-7,7,3,2.0,17.055126042000666,7.0,7.1472005840005295,2587.0822036249997,2587.0843671670004,2587.54395025,2587.3778037919997,,,,,,,,2587.079221083,2587.0821576249996,None,,,,,,,,,,,201,bathroom,1,2024-03-12_11h38.30.108,image_similarity_rating,2023.2.3,None,2024-03-12 11h38.40.301997 +0100,
,122,131,450,450,stimuli/own/bathroom/122_bat.jpg,stimuli/own/bathroom/131_bat.jpg,,,,,,,,,0,134,134,449,2604.659785958,,,,,,,,,,,2604.9448200419997,2605.111196208,2605.111196208,2605.111196208,2605.111196208,2605.111196208,2605.111196208,2605.111196208,2605.111196208,2618.9585918750004,7,-7,3,4.0,13.496572084000036,7.0,3.7465680840005007,2604.653477167,2604.659785958,2605.111196208,2604.9448009579996,,,,,,,,2604.650479542,2604.6534313750003,None,,,,,,,,,,,201,bathroom,1,2024-03-12_11h38.30.108,image_similarity_rating,2023.2.3,None,2024-03-12 11h38.40.301997 +0100,
,116,132,334,334,stimuli/own/bathroom/116_bat.jpg,stimuli/own/bathroom/132_bat.jpg,,,,,,,,,0,135,135,333,2618.963788292,,,,,,,,,,,2619.248439583,2619.413194458,2619.413194458,2619.413194458,2619.413194458,2619.413194458,2619.413194458,2619.413194458,2619.413194458,2628.8997100829997,-7,7,3,1.0,9.38453437499993,5.0,5.245800708999923,2618.9618795829997,2618.963788292,2619.413194458,2619.248427625,,,,,,,,2618.958841417,2618.961833125,None,,,,,,,,,,,201,bathroom,1,2024-03-12_11h38.30.108,image_similarity_rating,2023.2.3,None,2024-03-12 11h38.40.301997 +0100,
,118,129,374,374,stimuli/own/bathroom/118_bat.jpg,stimuli/own/bathroom/129_bat.jpg,,,,,,,,,0,136,136,373,2628.9097134999997,,,,,,,,,,,2629.1951212500003,2629.360836792,2629.360836792,2629.360836792,2629.360836792,2629.360836792,2629.360836792,2629.360836792,2629.360836792,2638.396715708,7,-7,3,2.0,4.090131083000415,2.0,8.372960458000307,2628.9029389169996,2628.9097134999997,2629.360836792,2629.195107375,,,,,,,,2628.8999261249996,2628.90289275,None,,,,,,,,,,,201,bathroom,1,2024-03-12_11h38.30.108,image_similarity_rating,2023.2.3,None,2024-03-12 11h38.40.301997 +0100,
,102,129,56,56,stimuli/own/bathroom/102_bat.jpg,stimuli/own/bathroom/129_bat.jpg,,,,,,,,,0,137,137,55,2638.401858875,,,,,,,,,,,2638.6944242080003,2638.861215542,2638.861215542,2638.861215542,2638.861215542,2638.861215542,2638.861215542,2638.861215542,2638.861215542,2660.9489974579997,-7,7,3,5.0,20.610655500000576,3.0,2.8396862909994525,2638.3999249169997,2638.401858875,2638.861215542,2638.694396792,,,,,,,,2638.396935833,2638.399878875,None,,,,,,,,,,,201,bathroom,1,2024-03-12_11h38.30.108,image_similarity_rating,2023.2.3,None,2024-03-12 11h38.40.301997 +0100,
,114,120,300,300,stimuli/own/bathroom/114_bat.jpg,stimuli/own/bathroom/120_bat.jpg,,,,,,,,,0,138,138,299,2660.959684917,,,,,,,,,,,2661.2442537499996,2661.411642333,2661.411642333,2661.411642333,2661.411642333,2661.411642333,2661.411642333,2661.411642333,2661.411642333,2690.424953208,7,-7,3,2.0,22.620451208000304,4.0,26.05146962500021,2660.9523042919996,2660.959684917,2661.411642333,2661.2442385,,,,,,,,2660.9492180419998,2660.9522574999996,None,,,,,,,,,,,201,bathroom,1,2024-03-12_11h38.30.108,image_similarity_rating,2023.2.3,None,2024-03-12 11h38.40.301997 +0100,
,111,134,237,237,stimuli/own/bathroom/111_bat.jpg,stimuli/own/bathroom/134_bat.jpg,,,,,,,,,0,139,139,236,2690.4301769999997,,,,,,,,,,,2690.7161182080004,2690.880832417,2690.880832417,2690.880832417,2690.880832417,2690.880832417,2690.880832417,2690.880832417,2690.880832417,2704.8249570000003,7,-7,3,4.0,12.265323415999774,3.0,13.719384583999272,2690.428231292,2690.4301769999997,2690.880832417,2690.7161063750004,,,,,,,,2690.425188625,2690.4281845829996,None,,,,,,,,,,,201,bathroom,1,2024-03-12_11h38.30.108,image_similarity_rating,2023.2.3,None,2024-03-12 11h38.40.301997 +0100,
,124,139,488,488,stimuli/own/bathroom/124_bat.jpg,stimuli/own/bathroom/139_bat.jpg,,,,,,,,,0,140,140,487,2704.830252667,,,,,,,,,,,2705.1158123749997,2705.279339333,2705.279339333,2705.279339333,2705.279339333,2705.279339333,2705.279339333,2705.279339333,2705.279339333,2711.836794917,-7,7,3,3.0,6.604665375000877,4.0,3.2800454170001103,2704.8283379580002,2704.830252667,2705.279339333,2705.115801708,,,,,,,,2704.825188208,2704.8282919999997,None,,,,,,,,,,,201,bathroom,1,2024-03-12_11h38.30.108,image_similarity_rating,2023.2.3,None,2024-03-12 11h38.40.301997 +0100,
,118,136,380,380,stimuli/own/bathroom/118_bat.jpg,stimuli/own/bathroom/136_bat.jpg,,,,,,,,,0,141,141,379,2711.8424548750004,,,,,,,,,,,2712.1280096670002,2712.293129,2712.293129,2712.293129,2712.293129,2712.293129,2712.293129,2712.293129,2712.293129,2727.7619353329997,7,-7,3,6.0,6.786286832999394,2.0,14.158775165999941,2711.8399805000004,2711.8424548750004,2712.293129,2712.1279959999997,,,,,,,,2711.8370118750004,2711.8399348750004,None,,,,,,,,,,,201,bathroom,1,2024-03-12_11h38.30.108,image_similarity_rating,2023.2.3,None,2024-03-12 11h38.40.301997 +0100,
,112,126,257,257,stimuli/own/bathroom/112_bat.jpg,stimuli/own/bathroom/126_bat.jpg,,,,,,,,,0,142,142,256,2727.7668942920004,,,,,,,,,,,2728.0607302920002,2728.2269093749997,2728.2269093749997,2728.2269093749997,2728.2269093749997,2728.2269093749997,2728.2269093749997,2728.2269093749997,2728.2269093749997,2755.64952425,7,-7,3,2.0,27.30826654199973,7.0,17.921005749999495,2727.765143792,2727.7668942920004,2728.2269093749997,2728.06071525,,,,,,,,2727.7621537500004,2727.765097917,None,,,,,,,,,,,201,bathroom,1,2024-03-12_11h38.30.108,image_similarity_rating,2023.2.3,None,2024-03-12 11h38.40.301997 +0100,
,103,122,82,82,stimuli/own/bathroom/103_bat.jpg,stimuli/own/bathroom/122_bat.jpg,,,,,,,,,0,143,143,81,2755.6593225,,,,,,,,,,,2755.944818083,2756.1105292919997,2756.1105292919997,2756.1105292919997,2756.1105292919997,2756.1105292919997,2756.1105292919997,2756.1105292919997,2756.1105292919997,2769.2284223330003,-7,7,3,2.0,13.168614083999273,2.0,3.3441222080000443,2755.652785875,2755.6593225,2756.1105292919997,2755.944804417,,,,,,,,2755.649743208,2755.6527400829996,None,,,,,,,,,,,201,bathroom,1,2024-03-12_11h38.30.108,image_similarity_rating,2023.2.3,None,2024-03-12 11h38.40.301997 +0100,
,117,120,345,345,stimuli/own/bathroom/117_bat.jpg,stimuli/own/bathroom/120_bat.jpg,,,,,,,,,0,144,144,344,2769.2337079579997,,,,,,,,,,,2769.5280709169997,2769.694648292,2769.694648292,2769.694648292,2769.694648292,2769.694648292,2769.694648292,2769.694648292,2769.694648292,2784.987287583,-7,7,3,3.0,9.943156207999891,4.0,5.270955500000127,2769.231610833,2769.2337079579997,2769.694648292,2769.528055458,,,,,,,,2769.228640125,2769.231565333,None,,,,,,,,,,,201,bathroom,1,2024-03-12_11h38.30.108,image_similarity_rating,2023.2.3,None,2024-03-12 11h38.40.301997 +0100,
,136,141,585,585,stimuli/own/bathroom/136_bat.jpg,stimuli/own/bathroom/141_bat.jpg,,,,,,,,,0,145,145,584,2784.9924574170004,,,,,,,,,,,2785.2772701669996,2785.443279625,2785.443279625,2785.443279625,2785.443279625,2785.443279625,2785.443279625,2785.443279625,2785.443279625,2797.6317382499997,7,-7,3,4.0,12.152406707999944,4.0,3.0654121659999873,2784.9906277080004,2784.9924574170004,2785.443279625,2785.277254833,,,,,,,,2784.9875066669997,2784.990581417,None,,,,,,,,,,,201,bathroom,1,2024-03-12_11h38.30.108,image_similarity_rating,2023.2.3,None,2024-03-12 11h38.40.301997 +0100,
,119,140,404,404,stimuli/own/bathroom/119_bat.jpg,stimuli/own/bathroom/140_bat.jpg,,,,,,,,,0,146,146,403,2797.6426279169996,,,,,,,,,,,2797.927882792,2798.0931527079997,2798.0931527079997,2798.0931527079997,2798.0931527079997,2798.0931527079997,2798.0931527079997,2798.0931527079997,2798.0931527079997,2809.420188042,-7,7,3,3.0,8.949970791999476,2.0,11.155323791000228,2797.635014,2797.6426279169996,2798.0931527079997,2797.9278673329995,,,,,,,,2797.631954625,2797.6349662919997,None,,,,,,,,,,,201,bathroom,1,2024-03-12_11h38.30.108,image_similarity_rating,2023.2.3,None,2024-03-12 11h38.40.301997 +0100,
,113,116,272,272,stimuli/own/bathroom/113_bat.jpg,stimuli/own/bathroom/116_bat.jpg,,,,,,,,,0,147,147,271,2809.425595667,,,,,,,,,,,2809.7106533749998,2809.8816125,2809.8816125,2809.8816125,2809.8816125,2809.8816125,2809.8816125,2809.8816125,2809.8816125,2858.048358542,7,-7,3,2.0,48.20568620799986,2.0,2.982657582999309,2809.4236557500003,2809.425595667,2809.8816125,2809.710633792,,,,,,,,2809.4204088330002,2809.42360675,None,,,,,,,,,,,201,bathroom,1,2024-03-12_11h38.30.108,image_similarity_rating,2023.2.3,None,2024-03-12 11h38.40.301997 +0100,
,112,118,249,249,stimuli/own/bathroom/112_bat.jpg,stimuli/own/bathroom/118_bat.jpg,,,,,,,,,0,148,148,248,2858.0590783330003,,,,,,,,,,,2858.343709333,2858.5093565,2858.5093565,2858.5093565,2858.5093565,2858.5093565,2858.5093565,2858.5093565,2858.5093565,2866.9529944580004,7,-7,3,2.0,8.292667917000472,1.0,2.154809292000209,2858.0517149169996,2858.0590783330003,2858.5093565,2858.3436950419996,,,,,,,,2858.0485807500004,2858.051654458,None,,,,,,,,,,,201,bathroom,1,2024-03-12_11h38.30.108,image_similarity_rating,2023.2.3,None,2024-03-12 11h38.40.301997 +0100,
,113,119,275,275,stimuli/own/bathroom/113_bat.jpg,stimuli/own/bathroom/119_bat.jpg,,,,,,,,,0,149,149,274,2866.9587465829995,,,,,,,,,,,2867.243739,2867.416470167,2867.416470167,2867.416470167,2867.416470167,2867.416470167,2867.416470167,2867.416470167,2867.416470167,2879.199680792,-7,7,3,3.0,9.203489708000234,2.0,5.85780879199956,2866.956190292,2866.9587465829995,2867.416470167,2867.243721708,,,,,,,,2866.9532102919998,2866.956143875,None,,,,,,,,,,,201,bathroom,1,2024-03-12_11h38.30.108,image_similarity_rating,2023.2.3,None,2024-03-12 11h38.40.301997 +0100,
,103,123,83,83,stimuli/own/bathroom/103_bat.jpg,stimuli/own/bathroom/123_bat.jpg,,,,,,,,,0,150,150,82,2879.209035333,,,,,,,,,,,2879.4943387079998,2879.658939083,2879.658939083,2879.658939083,2879.658939083,2879.658939083,2879.658939083,2879.658939083,2879.658939083,2895.211359292,-7,7,3,1.0,7.416371374999471,4.0,13.103696500000297,2879.2029161670002,2879.209035333,2879.658939083,2879.494325,,,,,,,,2879.199900667,2879.202870292,None,,,,,,,,,,,201,bathroom,1,2024-03-12_11h38.30.108,image_similarity_rating,2023.2.3,None,2024-03-12 11h38.40.301997 +0100,
,117,140,363,363,stimuli/own/bathroom/117_bat.jpg,stimuli/own/bathroom/140_bat.jpg,,,,,,,,,0,151,151,362,2895.2164975,,,,,,,,,,,2895.510125167,2895.675174208,2895.675174208,2895.675174208,2895.675174208,2895.675174208,2895.675174208,2895.675174208,2895.675174208,2904.8613542919998,7,-7,3,2.0,9.097443833000398,3.0,3.2308972920000087,2895.2145627920004,2895.2164975,2895.675174208,2895.5101116250003,,,,,,,,2895.211579208,2895.2145164999997,None,,,,,,,,,,,201,bathroom,1,2024-03-12_11h38.30.108,image_similarity_rating,2023.2.3,None,2024-03-12 11h38.40.301997 +0100,
,102,141,67,67,stimuli/own/bathroom/102_bat.jpg,stimuli/own/bathroom/141_bat.jpg,,,,,,,,,0,152,152,66,2904.8666388750003,,,,,,,,,,,2905.161144917,2905.3273508750003,2905.3273508750003,2905.3273508750003,2905.3273508750003,2905.3273508750003,2905.3273508750003,2905.3273508750003,2905.3273508750003,2914.8447908330004,-7,7,3,2.0,9.518541417000051,5.0,4.401039542000035,2904.8645699579997,2904.8666388750003,2905.3273508750003,2905.161131292,,,,,,,,2904.861574375,2904.8645235,None,,,,,,,,,,,201,bathroom,1,2024-03-12_11h38.30.108,image_similarity_rating,2023.2.3,None,2024-03-12 11h38.40.301997 +0100,
,116,138,339,339,stimuli/own/bathroom/116_bat.jpg,stimuli/own/bathroom/138_bat.jpg,,,,,,,,,0,153,153,338,2914.8500519579998,,,,,,,,,,,2915.144305083,2915.3110779579997,2915.3110779579997,2915.3110779579997,2915.3110779579997,2915.3110779579997,2915.3110779579997,2915.3110779579997,2915.3110779579997,2930.4824736670002,-7,7,3,3.0,15.070160457999918,7.0,4.242257750000135,2914.848126792,2914.8500519579998,2915.3110779579997,2915.144289833,,,,,,,,2914.845006917,2914.8480807499996,None,,,,,,,,,,,201,bathroom,1,2024-03-12_11h38.30.108,image_similarity_rating,2023.2.3,None,2024-03-12 11h38.40.301997 +0100,
,112,120,251,251,stimuli/own/bathroom/112_bat.jpg,stimuli/own/bathroom/120_bat.jpg,,,,,,,,,0,154,154,250,2930.492655583,,,,,,,,,,,2930.77765975,2930.9465070829997,2930.9465070829997,2930.9465070829997,2930.9465070829997,2930.9465070829997,2930.9465070829997,2930.9465070829997,2930.9465070829997,2948.2409623750004,7,-7,3,5.0,8.33072358299978,4.0,16.961097583000083,2930.4857504999995,2930.492655583,2930.9465070829997,2930.77764325,,,,,,,,2930.482701833,2930.485704,None,,,,,,,,,,,201,bathroom,1,2024-03-12_11h38.30.108,image_similarity_rating,2023.2.3,None,2024-03-12 11h38.40.301997 +0100,
,101,139,32,32,stimuli/own/bathroom/101_bat.jpg,stimuli/own/bathroom/139_bat.jpg,,,,,,,,,0,155,155,31,2948.246034542,,,,,,,,,,,2948.530782042,2948.6951696250003,2948.6951696250003,2948.6951696250003,2948.6951696250003,2948.6951696250003,2948.6951696250003,2948.6951696250003,2948.6951696250003,2961.907437458,-7,7,3,2.0,13.210939042000064,5.0,4.5622842499997205,2948.2442355830003,2948.246034542,2948.6951696250003,2948.5307645830003,,,,,,,,2948.241211708,2948.2441896670002,None,,,,,,,,,,,201,bathroom,1,2024-03-12_11h38.30.108,image_similarity_rating,2023.2.3,None,2024-03-12 11h38.40.301997 +0100,
,112,132,262,608,stimuli/own/bathroom/112_bat.jpg,stimuli/own/bathroom/132_bat.jpg,,,,,,,,,0,156,156,607,2961.912463792,,,,,,,,,,,2962.198526292,2962.363133667,2962.363133667,2962.363133667,2962.363133667,2962.363133667,2962.363133667,2962.363133667,2962.363133667,2967.402994292,-7,7,3,3.0,3.142592624999452,3.0,4.960037332999491,2961.910704542,2961.912463792,2962.363133667,2962.1985129170002,,,,,,,,2961.907665208,2961.9106581250003,None,,,,,,,,,,,201,bathroom,1,2024-03-12_11h38.30.108,image_similarity_rating,2023.2.3,None,2024-03-12 11h38.40.301997 +0100,
,120,125,410,410,stimuli/own/bathroom/120_bat.jpg,stimuli/own/bathroom/125_bat.jpg,,,,,,,,,0,157,157,409,2967.408509542,,,,,,,,,,,2967.693979417,2967.858911,2967.858911,2967.858911,2967.858911,2967.858911,2967.858911,2967.858911,2967.858911,2977.5456876249996,-7,7,3,3.0,9.108463124999616,7.0,4.046074207999482,2967.406204083,2967.408509542,2967.858911,2967.6939654169996,,,,,,,,2967.40321575,2967.4061576669997,None,,,,,,,,,,,201,bathroom,1,2024-03-12_11h38.30.108,image_similarity_rating,2023.2.3,None,2024-03-12 11h38.40.301997 +0100,
