sub_num,trial,block,task,is_practice,category,image,texture,duration,mask_dur,jitter,stim_time,time_of_resp,trial_response,mask_time,fix_time,jit_onset,trial_end,trial_accuracy,RT
126,1,0,aesthetic,1,bathroom,bathroom_practice1.tif,221,1.5,0,1.6,7486.417633166,7491.177764166,4,NaN,7491.184433875,7491.202855541,7492.796240041,NaN,NaN
126,2,0,aesthetic,1,bathroom,bathroom_practice2.tif,222,1.5,0,1.26666666666667,7492.810399,7496.073224041,3,NaN,7496.079574041,7496.098364791,7497.358396916,NaN,NaN
126,3,0,aesthetic,1,bathroom,bathroom_practice3.tif,223,1.5,0,1.15,7497.376705125,7500.257756958,4,NaN,7500.263303,7500.281550375,7501.424934125,NaN,NaN
126,4,0,aesthetic,1,bathroom,bathroom_practice4.tif,224,1.5,0,1.75,7501.434963333,7504.225163041,2,NaN,7504.230987958,7504.249163375,7505.99253175,NaN,NaN
126,5,0,aesthetic,1,bathroom,bathroom_practice5.tif,225,1.5,0,0.85,7506.0123345,7508.990797083,6,NaN,7509.019564166,7509.043178,7509.886519,NaN,NaN
126,1,1,aesthetic,0,bathroom,sun_acgyywnybuveqsro.tif,128,1.5,0,0.933333333333333,7517.960748166,7521.233475291,5,NaN,7521.239156458,7521.2576845,7522.184355666,NaN,NaN
126,2,1,aesthetic,0,bathroom,sun_ahcvzmoyaycdoftf.tif,137,1.5,0,1.18333333333333,7522.190105833,7525.051217208,3,NaN,7525.080096958,7525.103803708,7526.280516541,NaN,NaN
126,3,1,aesthetic,0,bathroom,sun_ahqjwnzgolcaoidx.tif,139,1.5,0,1.56666666666667,7526.292202291,7528.801581916,2,NaN,7528.807425333,7528.825902875,7530.385952916,NaN,NaN
126,4,1,aesthetic,0,bathroom,sun_ambriybtogmepttm.tif,146,1.5,0,1.38333333333333,7530.403889,7533.345577708,2,NaN,7533.351106958,7533.3694225,7534.746137583,NaN,NaN
126,5,1,aesthetic,0,bathroom,sun_apkruvsevgegsdwp.tif,154,1.5,0,1.23333333333333,7534.76641475,7537.417445375,1,NaN,7537.423149208,7537.441378333,7538.668094541,NaN,NaN
126,6,1,aesthetic,0,bathroom,sun_apkxzenqapsujocq.tif,155,1.5,0,1.83333333333333,7538.686803708,7541.609263083,3,NaN,7541.615127166,7541.63346875,7543.460173291,NaN,NaN
126,7,1,aesthetic,0,bathroom,sun_agyqfjcfkdcydepw.tif,135,1.5,0,1.1,7543.479694833,7546.658370875,6,NaN,7546.686366041,7546.70994575,7547.803331083,NaN,NaN
126,8,1,aesthetic,0,bathroom,sun_anhioqovhscjqqwb.tif,148,1.5,0,1.71666666666667,7547.814770625,7551.433055166,4,NaN,7551.438906916,7551.457180208,7553.1672325,NaN,NaN
126,9,1,aesthetic,0,bathroom,sun_alotolagknyrgtsk.tif,145,1.5,0,1.01666666666667,7553.186908416,7555.813000083,2,NaN,7555.841272125,7555.864836958,7556.874890083,NaN,NaN
126,10,1,aesthetic,0,bathroom,sun_auzqhkafidnkrwmo.tif,164,1.5,0,1.36666666666667,7556.886113208,7559.601792833,2,NaN,7559.607142458,7559.625471541,7560.985516625,NaN,NaN
126,11,1,aesthetic,0,bathroom,sun_agguqiubmwhqqunb.tif,132,1.5,0,0.75,7561.001210916,7563.672882125,1,NaN,7563.678846416,7563.69774125,7564.441080375,NaN,NaN
126,12,1,aesthetic,0,bathroom,sun_acduarbnmmoglmiv.tif,126,1.5,0,1.31666666666667,7564.462838041,7567.256982416,4,NaN,7567.285535125,7567.308926375,7568.618969375,NaN,NaN
126,13,1,aesthetic,0,bathroom,sun_aclfzgynxzxlbepz.tif,129,1.5,0,1.33333333333333,7568.63847325,7571.625657958,3,NaN,7571.6311865,7571.649562666,7572.976273291,NaN,NaN
126,14,1,aesthetic,0,bathroom,sun_axxbkopsgyouuebh.tif,168,1.5,0,1.41666666666667,7572.991659291,7578.081075291,4,NaN,7578.086882166,7578.10518425,7579.515239125,NaN,NaN
126,15,1,aesthetic,0,bathroom,sun_avhrdrntsqrjzccq.tif,165,1.5,0,1.93333333333333,7579.531949041,7582.481368375,5,NaN,7582.486962291,7582.505371958,7584.432069708,NaN,NaN
126,16,1,aesthetic,0,bathroom,sun_ahijqszoswveeyji.tif,138,1.5,0,1.68333333333333,7584.451703625,7587.693379333,3,NaN,7587.716735416,7587.736888541,7589.413592875,NaN,NaN
126,17,1,aesthetic,0,bathroom,sun_atstyziqcmkahyxk.tif,161,1.5,0,0.783333333333333,7589.42914225,7592.681428541,2,NaN,7592.70669475,7592.729135666,7593.505809791,NaN,NaN
126,18,1,aesthetic,0,bathroom,sun_asfwthctfqerjvxr.tif,159,1.5,0,1.93333333333333,7593.511338916,7596.721776,6,NaN,7596.728840916,7596.747544458,7598.674248166,NaN,NaN
126,19,1,aesthetic,0,bathroom,sun_aofnryafpsjimzsb.tif,150,1.5,0,1.18333333333333,7598.69275575,7602.577619916,3,NaN,7602.583577916,7602.601928333,7603.778642875,NaN,NaN
126,20,1,aesthetic,0,bathroom,sun_afcoljnjfoxjtgja.tif,130,1.5,0,1.61666666666667,7603.78908025,7606.657152791,6,NaN,7606.662958083,7606.681286583,7608.291340291,NaN,NaN
126,21,1,aesthetic,0,bathroom,sun_akiytfaagpdsphgz.tif,141,1.5,0,1.16666666666667,7608.309648708,7613.84964575,5,NaN,7613.855087,7613.873513666,7615.033558958,NaN,NaN
126,22,1,aesthetic,0,bathroom,sun_awnqiikzaispgmwo.tif,166,1.5,0,1.85,7615.042364791,7618.193140041,3,NaN,7618.198735125,7618.217104541,7620.060480791,NaN,NaN
126,23,1,aesthetic,0,bathroom,sun_apjevzvycyhuqghb.tif,153,1.5,0,1.68333333333333,7620.0742375,7624.681453916,3,NaN,7624.686839625,7624.705101,7626.381798041,NaN,NaN
126,24,1,aesthetic,0,bathroom,sun_apynckhmoftszqoq.tif,157,1.5,0,1.98333333333333,7626.401319541,7629.100707916,1,NaN,7629.128645958,7629.151790125,7631.128490375,NaN,NaN
126,25,1,aesthetic,0,bathroom,sun_aoybiabnpadelefl.tif,151,1.5,0,1.28333333333333,7631.150104041,7633.7202915,7,NaN,7633.749255833,7633.772970166,7635.049675833,NaN,NaN
126,1,2,aesthetic,0,bathroom,sun_apmqjbnwghzuhhzh.tif,156,1.5,0,0.9,7640.645294333,7644.024810416,2,NaN,7644.030860875,7644.049279666,7644.942618083,NaN,NaN
126,2,2,aesthetic,0,bathroom,sun_aapitsgbtktqubfy.tif,122,1.5,0,1.95,7644.947529125,7648.025900708,5,NaN,7648.035602583,7648.054807875,7649.998183458,NaN,NaN
126,3,2,aesthetic,0,bathroom,sun_axyrejkiiaqiurjk.tif,169,1.5,0,1,7650.016862625,7652.572887458,2,NaN,7652.600546708,7652.623799666,7653.617139083,NaN,NaN
126,4,2,aesthetic,0,bathroom,sun_ahaulkltgpkeeemi.tif,136,1.5,0,0.733333333333333,7653.621920166,7657.641017166,6,NaN,7657.646765041,7657.664939708,7658.391611583,NaN,NaN
126,5,2,aesthetic,0,bathroom,sun_amzlamotzwfkwjco.tif,147,1.5,0,1.2,7658.397376791,7663.129036708,2,NaN,7663.134616125,7663.152884791,7664.346247041,NaN,NaN
126,6,2,aesthetic,0,bathroom,sun_aunuadmjocsddsrl.tif,162,1.5,0,1.21666666666667,7664.360743583,7668.024507333,1,NaN,7668.030420208,7668.048753541,7669.2587985,NaN,NaN
126,7,2,aesthetic,0,bathroom,sun_azqyogdvyhahyram.tif,170,1.5,0,0.933333333333333,7669.274823833,7672.153288291,2,NaN,7672.158780375,7672.177094291,7673.103767583,NaN,NaN
126,8,2,aesthetic,0,bathroom,sun_aqrpegblszgcoujh.tif,158,1.5,0,0.916666666666667,7673.109075625,7676.8004175,3,NaN,7676.806323,7676.824759083,7677.734764583,NaN,NaN
126,9,2,aesthetic,0,bathroom,sun_aspsyogrekjtfozg.tif,160,1.5,0,1.1,7677.739730333,7680.54845475,3,NaN,7680.57617875,7680.599776458,7681.693160208,NaN,NaN
126,10,2,aesthetic,0,bathroom,sun_axldvoqbuvuggfmq.tif,167,1.5,0,1.16666666666667,7681.713329708,7684.312676916,2,NaN,7684.318398875,7684.336755833,7685.496796708,NaN,NaN
126,11,2,aesthetic,0,bathroom,sun_abjtwfukuwddzted.tif,125,1.5,0,0.783333333333333,7685.507566666,7688.192961083,2,NaN,7688.198324291,7688.216645125,7688.993317583,NaN,NaN
126,12,2,aesthetic,0,bathroom,sun_abapwbhyhkfixyex.tif,124,1.5,0,1.95,7689.012280708,7692.904730916,3,NaN,7692.910443,7692.929360125,7694.872726875,NaN,NaN
126,13,2,aesthetic,0,bathroom,sun_anryaplzeujmzfkd.tif,149,1.5,0,1.05,7694.888468125,7697.554527708,5,NaN,7697.57568775,7697.597377833,7698.640762625,NaN,NaN
126,14,2,aesthetic,0,bathroom,sun_ausgutylgojavyoq.tif,163,1.5,0,1.03333333333333,7698.663906666,7701.304401666,1,NaN,7701.310198,7701.328591166,7702.355298958,NaN,NaN
126,15,2,aesthetic,0,bathroom,sun_aggnnqpdorgxpvce.tif,131,1.5,0,1.45,7702.366404291,7705.161349916,3,NaN,7705.16672525,7705.185099458,7706.628475583,NaN,NaN
126,16,2,aesthetic,0,bathroom,sun_aljolscmmzydegqp.tif,143,1.5,0,0.966666666666667,7706.64769625,7711.096946416,2,NaN,7711.102538875,7711.120940083,7712.0809455,NaN,NaN
126,17,2,aesthetic,0,bathroom,sun_aghyqhbptboemmoq.tif,133,1.5,0,0.966666666666667,7712.086536916,7715.729011875,5,NaN,7715.734627416,7715.753148875,7716.713155416,NaN,NaN
126,18,2,aesthetic,0,bathroom,sun_alkosphxlxwjwgjd.tif,144,1.5,0,1.2,7716.71831925,7719.289362958,6,NaN,7719.314968583,7719.336496625,7720.529866833,NaN,NaN
126,19,2,aesthetic,0,bathroom,sun_apeeialkgkuxddgh.tif,152,1.5,0,0.933333333333333,7720.545575083,7723.169130416,5,NaN,7723.1781125,7723.197420208,7724.124092166,NaN,NaN
126,20,2,aesthetic,0,bathroom,sun_aleqenyvunhactkl.tif,142,1.5,0,1.31666666666667,7724.130820291,7726.953482541,4,NaN,7726.982458458,7727.006063291,7728.316093833,NaN,NaN
126,21,2,aesthetic,0,bathroom,sun_ajlawzvmubibwbpy.tif,140,1.5,0,1.18333333333333,7728.33644075,7731.049180083,7,NaN,7731.054539916,7731.072854666,7732.249558791,NaN,NaN
126,22,2,aesthetic,0,bathroom,labelme_sfxiulhjbhlyiyt.tif,121,1.5,0,1.71666666666667,7732.260683458,7735.537173375,5,NaN,7735.542524833,7735.561035208,7737.271068833,NaN,NaN
126,23,2,aesthetic,0,bathroom,sun_aavhrsfjbserjtht.tif,123,1.5,0,1.53333333333333,7737.289772041,7739.882424041,5,NaN,7739.909977083,7739.933866291,7741.46058725,NaN,NaN
126,24,2,aesthetic,0,bathroom,sun_acegryoqftbzowsg.tif,127,1.5,0,0.933333333333333,7741.474158083,7744.400506,3,NaN,7744.406110291,7744.424417041,7745.351088833,NaN,NaN
126,25,2,aesthetic,0,bathroom,sun_agrwbmhcpmfuwmsg.tif,134,1.5,0,0.916666666666667,7745.356505208,7749.344912166,2,NaN,7749.350422875,7749.368811375,7750.278816916,NaN,NaN
