sub_num,trial,block,task,is_practice,category,image,texture,duration,mask_dur,jitter,stim_time,time_of_resp,trial_response,mask_time,fix_time,jit_onset,trial_end,trial_accuracy,RT
112,6,0,complexity,1,kitchen,kitchen_practice5.tif,230,1.5,0,1.46666666666667,3207.700415916,3210.5473295,3,NaN,3210.567548833,3210.588949041,3212.049036291,NaN,NaN
112,7,0,complexity,1,kitchen,kitchen_practice2.tif,227,1.5,0,1.31666666666667,3212.066907916,3214.816030416,7,NaN,3214.821925625,3214.840243,3216.150299541,NaN,NaN
112,8,0,complexity,1,kitchen,kitchen_practice4.tif,229,1.5,0,1.76666666666667,3216.169001916,3219.056368458,6,NaN,3219.062259,3219.080585166,3220.840664625,NaN,NaN
112,9,0,complexity,1,kitchen,kitchen_practice1.tif,226,1.5,0,0.816666666666667,3220.859488791,3224.047006958,6,NaN,3224.077877583,3224.101106708,3224.911114708,NaN,NaN
112,10,0,complexity,1,kitchen,kitchen_practice3.tif,228,1.5,0,0.9,3224.915887416,3227.459610541,4,NaN,3227.485929375,3227.509437333,3228.40278075,NaN,NaN
112,1,1,complexity,0,kitchen,sun_avszsnwsbuqfgzbn.tif,215,1.5,0,1.15,3232.14665075,3235.051343166,7,NaN,3235.082132375,3235.104429958,3236.247850416,NaN,NaN
112,2,1,complexity,0,kitchen,sun_ahpczsiumwwocjkv.tif,202,1.5,0,1.33333333333333,3236.259997833,3239.927823416,2,NaN,3239.933854708,3239.952227625,3241.278961666,NaN,NaN
112,3,1,complexity,0,kitchen,sun_aeqdocilnnpuvuhx.tif,193,1.5,0,1.75,3241.297303041,3243.735253958,5,NaN,3243.741358791,3243.759726791,3245.503155666,NaN,NaN
112,4,1,complexity,0,kitchen,sun_ahywdevtimnqcsln.tif,204,1.5,0,1.2,3245.523311666,3249.087519458,5,NaN,3249.094093708,3249.112414458,3250.305839708,NaN,NaN
112,5,1,complexity,0,kitchen,sun_aqeaevwwwjoqhzvl.tif,211,1.5,0,1.46666666666667,3250.318546958,3252.999128666,6,NaN,3253.005160541,3253.02348025,3254.483565208,NaN,NaN
112,6,1,complexity,0,kitchen,sun_aehawpgmrlhlvcow.tif,191,1.5,0,1.01666666666667,3254.495249041,3258.031860291,2,NaN,3258.03776275,3258.056157833,3259.066222375,NaN,NaN
112,7,1,complexity,0,kitchen,sun_agorklincwxrdtga.tif,197,1.5,0,1.18333333333333,3259.073990708,3262.927969791,3,NaN,3262.933930708,3262.952225416,3264.128965541,NaN,NaN
112,8,1,complexity,0,kitchen,sun_agzzivivdpnawacl.tif,199,1.5,0,1.03333333333333,3264.141135458,3269.711155333,2,NaN,3269.7171775,3269.735594083,3270.762343625,NaN,NaN
112,9,1,complexity,0,kitchen,sun_acfmftudsenhrfhy.tif,184,1.5,0,1.25,3270.771339541,3273.479198333,5,NaN,3273.485400625,3273.503781666,3274.747169166,NaN,NaN
112,10,1,complexity,0,kitchen,sun_aarfiyshqohlwkmo.tif,177,1.5,0,0.733333333333333,3274.757888625,3277.231609875,5,NaN,3277.237513208,3277.255893083,3277.982566791,NaN,NaN
112,11,1,complexity,0,kitchen,labelme_rykdqxenmhulbdn.tif,173,1.5,0,1.01666666666667,3277.986929291,3280.865361541,4,NaN,3280.895799166,3280.918931625,3281.929000291,NaN,NaN
112,12,1,complexity,0,kitchen,sun_aexklacwqwezaorf.tif,194,1.5,0,1.53333333333333,3281.936619875,3284.687489666,4,NaN,3284.693382708,3284.711677541,3286.238418916,NaN,NaN
112,13,1,complexity,0,kitchen,sun_aunzlwrbjumxhwdj.tif,213,1.5,0,1.33333333333333,3286.255492666,3290.047146125,4,NaN,3290.053188375,3290.071561833,3291.398322,NaN,NaN
112,14,1,complexity,0,kitchen,sun_ahljzhgcdpomplvg.tif,201,1.5,0,1.53333333333333,3291.416327375,3294.390873791,4,NaN,3294.39714375,3294.41565975,3295.942383208,NaN,NaN
112,15,1,complexity,0,kitchen,labelme_kxvouciolcpqplr.tif,172,1.5,0,1.01666666666667,3295.961702166,3298.4552825,2,NaN,3298.461185083,3298.47955175,3299.489625541,NaN,NaN
112,16,1,complexity,0,kitchen,sun_awcpdzzznmweyyhv.tif,216,1.5,0,1.23333333333333,3299.498702,3302.583646708,6,NaN,3302.590323833,3302.608670583,3303.835397625,NaN,NaN
112,17,1,complexity,0,kitchen,sun_aaxxjlsuzvqlgylf.tif,178,1.5,0,1.18333333333333,3303.85046325,3306.671744708,6,NaN,3306.677757166,3306.696198208,3307.872933416,NaN,NaN
112,18,1,complexity,0,kitchen,sun_aamedkxepzlwuxes.tif,175,1.5,0,0.783333333333333,3307.883754625,3311.239661791,6,NaN,3311.249498416,3311.267869333,3312.044542458,NaN,NaN
112,19,1,complexity,0,kitchen,sun_ajcbwwvdlsvjyzje.tif,206,1.5,0,1.73333333333333,3312.048677708,3314.899148666,5,NaN,3314.928261625,3314.951446875,3316.6781755,NaN,NaN
112,20,1,complexity,0,kitchen,sun_azmutvzbxypaceni.tif,220,1.5,0,1.21666666666667,3316.696945125,3319.358615208,2,NaN,3319.388668791,3319.412320791,3320.622419333,NaN,NaN
112,21,1,complexity,0,kitchen,sun_acxkpeoqbwcxfvip.tif,187,1.5,0,1.26666666666667,3320.634311666,3323.75874875,5,NaN,3323.7650935,3323.783436666,3325.043521333,NaN,NaN
112,22,1,complexity,0,kitchen,sun_aggjlwcdjsjcaemh.tif,196,1.5,0,0.783333333333333,3325.057551833,3327.951785416,3,NaN,3327.95807175,3327.976262583,3328.752937583,NaN,NaN
112,23,1,complexity,0,kitchen,sun_aadbddgrdsjugojn.tif,174,1.5,0,1.48333333333333,3328.75723025,3331.506324041,3,NaN,3331.533325125,3331.556449666,3333.033182208,NaN,NaN
112,24,1,complexity,0,kitchen,sun_acwjdupvyjsugpay.tif,186,1.5,0,1.36666666666667,3333.046481,3335.439400625,2,NaN,3335.445281208,3335.463536875,3336.823610125,NaN,NaN
112,25,1,complexity,0,kitchen,sun_auticobqsbwgoppi.tif,214,1.5,0,0.983333333333333,3336.844578333,3341.535238,4,NaN,3341.54130125,3341.559413833,3342.536087333,NaN,NaN
112,1,2,complexity,0,kitchen,sun_aixorpehvfykdynp.tif,205,1.5,0,1.26666666666667,3346.426664166,3350.558764583,2,NaN,3350.565274458,3350.583477583,3351.843538291,NaN,NaN
112,2,2,complexity,0,kitchen,sun_aypmqwcualkenuoe.tif,219,1.5,0,1.11666666666667,3351.863124833,3354.311300291,6,NaN,3354.317156041,3354.335512458,3355.445591208,NaN,NaN
112,3,2,complexity,0,kitchen,sun_aymvwlarqodbwuoc.tif,218,1.5,0,1.43333333333333,3355.456211333,3357.831014375,5,NaN,3357.836909791,3357.855218125,3359.281979416,NaN,NaN
112,4,2,complexity,0,kitchen,sun_amjjdeyrggfqgmom.tif,210,1.5,0,0.8,3359.301242958,3363.127714333,2,NaN,3363.133662916,3363.152030125,3363.94537,NaN,NaN
112,5,2,complexity,0,kitchen,sun_akcjzhbbjlbogpdi.tif,209,1.5,0,0.733333333333333,3363.949518833,3366.542891166,1,NaN,3366.56381325,3366.585330958,3367.31200725,NaN,NaN
112,6,2,complexity,0,kitchen,sun_abdxkyyxwfskuaqb.tif,180,1.5,0,1.03333333333333,3367.316866041,3370.266676666,7,NaN,3370.297237333,3370.320846625,3371.347574375,NaN,NaN
112,7,2,complexity,0,kitchen,sun_acgtpgfybqjmzeyw.tif,185,1.5,0,1.56666666666667,3371.356750583,3374.838977041,2,NaN,3374.845032208,3374.86346525,3376.423559541,NaN,NaN
112,8,2,complexity,0,kitchen,sun_ahdycvpopffkzzsu.tif,200,1.5,0,0.866666666666667,3376.436332458,3381.08648475,3,NaN,3381.092879208,3381.111212333,3381.971220458,NaN,NaN
112,9,2,complexity,0,kitchen,sun_ajkqhtgcbgpcwrwn.tif,207,1.5,0,0.716666666666667,3381.976056416,3384.867010125,4,NaN,3384.897501458,3384.9208465,3385.630855583,NaN,NaN
112,10,2,complexity,0,kitchen,sun_agubuxuukhzyzpdp.tif,198,1.5,0,1.33333333333333,3385.635572166,3388.879011166,5,NaN,3388.886045875,3388.904380708,3390.23112325,NaN,NaN
112,11,2,complexity,0,kitchen,sun_aegoxogugdkwpmpj.tif,190,1.5,0,1.01666666666667,3390.24837775,3393.302454,6,NaN,3393.308954583,3393.327317375,3394.337389958,NaN,NaN
112,12,2,complexity,0,kitchen,sun_aenotlpyftoioydp.tif,192,1.5,0,0.733333333333333,3394.345693541,3398.095588625,1,NaN,3398.101561458,3398.119932833,3398.84660875,NaN,NaN
112,13,2,complexity,0,kitchen,sun_auaiucuqpdausiva.tif,212,1.5,0,1.38333333333333,3398.850779458,3402.119043833,6,NaN,3402.125010791,3402.143279125,3403.520022416,NaN,NaN
112,14,2,complexity,0,kitchen,sun_aapllqyqlykszopd.tif,176,1.5,0,1.06666666666667,3403.537271541,3406.463208208,3,NaN,3406.469133208,3406.48750625,3407.54756075,NaN,NaN
112,15,2,complexity,0,kitchen,sun_adgqasybjyktddhj.tif,188,1.5,0,0.85,3407.555904291,3410.295252833,2,NaN,3410.301123333,3410.319545375,3411.162886,NaN,NaN
112,16,2,complexity,0,kitchen,labelme_brsyyvweiuaazfr.tif,171,1.5,0,0.9,3411.167245333,3414.119932375,5,NaN,3414.151286291,3414.174728541,3415.068072416,NaN,NaN
112,17,2,complexity,0,kitchen,sun_admlmbcdswaszruo.tif,189,1.5,0,1.55,3415.072706666,3418.550807958,3,NaN,3418.55693675,3418.575404875,3420.11880875,NaN,NaN
112,18,2,complexity,0,kitchen,sun_abrcnpqqhmjwekyf.tif,183,1.5,0,0.7,3420.13730225,3422.8868245,2,NaN,3422.892741833,3422.9110625,3423.604404958,NaN,NaN
112,19,2,complexity,0,kitchen,sun_abdenxonkemggwsq.tif,179,1.5,0,0.716666666666667,3423.609221708,3428.031316,6,NaN,3428.037230333,3428.05558425,3428.76559075,NaN,NaN
112,20,2,complexity,0,kitchen,sun_akchetnepxlcxhsu.tif,208,1.5,0,0.85,3428.770148541,3433.799366,3,NaN,3433.805253875,3433.823631791,3434.66697225,NaN,NaN
112,21,2,complexity,0,kitchen,sun_axyyrmzcupyhlivc.tif,217,1.5,0,1.35,3434.671554583,3438.135321583,3,NaN,3438.14122225,3438.159540375,3439.502945833,NaN,NaN
112,22,2,complexity,0,kitchen,sun_abftihopvusyfakt.tif,181,1.5,0,1.96666666666667,3439.519777833,3443.575199708,2,NaN,3443.581128833,3443.599509,3445.559579291,NaN,NaN
112,23,2,complexity,0,kitchen,sun_afuyedyxivkhecmu.tif,195,1.5,0,0.933333333333333,3445.573547083,3449.007261208,7,NaN,3449.013701875,3449.032041458,3449.95871675,NaN,NaN
112,24,2,complexity,0,kitchen,sun_ahspylgoovwmwvgk.tif,203,1.5,0,1.33333333333333,3449.963252791,3452.808198458,3,NaN,3452.838321333,3452.861815166,3454.188579083,NaN,NaN
112,25,2,complexity,0,kitchen,sun_abpwyqmlzafvklqo.tif,182,1.5,0,1.16666666666667,3454.206869833,3457.782498208,2,NaN,3457.788600333,3457.807188333,3458.9672765,NaN,NaN
