sub_num,trial,block,task,is_practice,category,image,texture,duration,mask_dur,jitter,stim_time,time_of_resp,trial_response,mask_time,fix_time,jit_onset,trial_end,trial_accuracy,RT
120,1,9,categorization,0,kitchen,SHINEd_labelme_kxvouciolcpqplr.tif,62,0.0666666666666667,0.0666666666666667,1.08333333333333,1486090.7922237,1486091.5733551,70,1486090.8631973,1486090.9276317,1486091.5788314,1486092.6605016,NaN,NaN
120,2,9,categorization,0,bathroom,SHINEd_sun_alotolagknyrgtsk.tif,35,0.0666666666666667,0.0666666666666667,0.8,1486092.6681778,1486093.6115925,74,1486092.7394281,1486092.8040939,1486093.6174973,1486094.4158351,NaN,NaN
120,3,9,categorization,0,kitchen,SHINEd_sun_auticobqsbwgoppi.tif,103,0.0666666666666667,0.0666666666666667,0.833333333333333,1486094.4236461,1486095.1689443,70,1486094.495368,1486094.5591322,1486095.174281,1486096.0059516,NaN,NaN
120,4,9,categorization,0,kitchen,SHINEd_labelme_brsyyvweiuaazfr.tif,61,0.0666666666666667,0.0666666666666667,1.45,1486096.0123212,1486096.770538,70,1486096.0832917,1486096.1473458,1486096.7759654,1486098.2243044,NaN,NaN
120,5,9,categorization,0,bathroom,SHINEd_sun_apeeialkgkuxddgh.tif,42,0.0666666666666667,0.0666666666666667,1.3,1486098.230197,1486098.9757959,74,1486098.3014275,1486098.3656608,1486098.9811956,1486100.2795343,NaN,NaN
120,6,9,categorization,0,kitchen,SHINEd_sun_azmutvzbxypaceni.tif,110,0.0666666666666667,0.0666666666666667,1.21666666666667,1486100.28621,1486101.0664164,70,1486100.3575015,1486100.4217923,1486101.0725149,1486102.2875181,NaN,NaN
120,7,9,categorization,0,kitchen,SHINEd_sun_avszsnwsbuqfgzbn.tif,104,0.0666666666666667,0.0666666666666667,0.733333333333333,1486102.2939352,1486103.0505004,70,1486102.3648498,1486102.4293477,1486103.0568171,1486103.7884882,NaN,NaN
120,8,9,categorization,0,kitchen,SHINEd_sun_acwjdupvyjsugpay.tif,76,0.0666666666666667,0.0666666666666667,1.03333333333333,1486103.7947353,1486104.8255136,70,1486103.8657515,1486103.9298546,1486104.8317442,1486105.8634163,NaN,NaN
120,9,9,categorization,0,bathroom,SHINEd_sun_axxbkopsgyouuebh.tif,58,0.0666666666666667,0.0666666666666667,1.1,1486105.869455,1486106.546166,74,1486105.9419465,1486106.0043711,1486106.5523114,1486107.6506492,NaN,NaN
120,10,9,categorization,0,kitchen,SHINEd_sun_afuyedyxivkhecmu.tif,85,0.0666666666666667,0.0666666666666667,1.25,1486107.6572398,1486108.4645148,70,1486107.729683,1486107.7926395,1486108.4705796,1486109.7189175,NaN,NaN
120,11,9,categorization,0,bathroom,SHINEd_sun_acegryoqftbzowsg.tif,17,0.0666666666666667,0.0666666666666667,1.4,1486109.7248416,1486110.4994458,70,1486109.7964983,1486109.859763,1486110.5054778,1486111.9038169,NaN,NaN
120,12,9,categorization,0,bathroom,SHINEd_sun_agguqiubmwhqqunb.tif,22,0.0666666666666667,0.0666666666666667,1.43333333333333,1486111.9100982,1486112.6779002,70,1486111.9814811,1486112.0465214,1486112.6840188,1486114.1156904,NaN,NaN
120,13,9,categorization,0,bathroom,SHINEd_sun_apkxzenqapsujocq.tif,45,0.0666666666666667,0.0666666666666667,1.26666666666667,1486114.1219521,1486114.7536749,74,1486114.1927878,1486114.2571013,1486114.7596939,1486116.0246992,NaN,NaN
120,14,9,categorization,0,bathroom,SHINEd_sun_asfwthctfqerjvxr.tif,49,0.0666666666666667,0.0666666666666667,0.916666666666667,1486116.0308356,1486116.8583072,74,1486116.1015977,1486116.1667875,1486116.8647862,1486117.7797909,NaN,NaN
120,15,9,categorization,0,kitchen,SHINEd_sun_aypmqwcualkenuoe.tif,108,0.0666666666666667,0.0666666666666667,1.05,1486117.7856147,1486118.80486,70,1486117.8558874,1486117.9209331,1486118.8109323,1486119.8592773,NaN,NaN
120,16,9,categorization,0,kitchen,SHINEd_sun_acxkpeoqbwcxfvip.tif,77,0.0666666666666667,0.0666666666666667,1.53333333333333,1486119.8656897,1486120.6252506,70,1486119.9380887,1486120.0011855,1486120.6308629,1486122.1625336,NaN,NaN
120,17,9,categorization,0,bathroom,SHINEd_sun_aghyqhbptboemmoq.tif,23,0.0666666666666667,0.0666666666666667,1.11666666666667,1486122.1688218,1486122.9304862,74,1486122.2400287,1486122.3041858,1486122.9368494,1486124.0518529,NaN,NaN
120,18,9,categorization,0,bathroom,SHINEd_sun_axyrejkiiaqiurjk.tif,59,0.0666666666666667,0.0666666666666667,1.05,1486124.0582314,1486124.8547584,74,1486124.1308352,1486124.1938281,1486124.8606298,1486125.9089673,NaN,NaN
120,19,9,categorization,0,bathroom,SHINEd_sun_aljolscmmzydegqp.tif,33,0.0666666666666667,0.0666666666666667,1.66666666666667,1486125.9149771,1486126.6850144,74,1486125.9862058,1486126.0503258,1486126.6903197,1486128.3553269,NaN,NaN
120,20,9,categorization,0,kitchen,SHINEd_sun_acfmftudsenhrfhy.tif,74,0.0666666666666667,0.0666666666666667,1.98333333333333,1486128.3616159,1486129.6300838,74,1486128.4328292,1486128.4970552,1486129.6354745,1486131.6171461,NaN,NaN
120,21,9,categorization,0,bathroom,SHINEd_sun_agyqfjcfkdcydepw.tif,25,0.0666666666666667,0.0666666666666667,1.06666666666667,1486131.623224,1486132.4087584,74,1486131.694353,1486131.7583403,1486132.4143802,1486133.4793845,NaN,NaN
120,22,9,categorization,0,bathroom,SHINEd_sun_apynckhmoftszqoq.tif,47,0.0666666666666667,0.0666666666666667,1.31666666666667,1486133.4857615,1486134.2558802,74,1486133.556659,1486133.6217494,1486134.2617802,1486135.576784,NaN,NaN
120,23,9,categorization,0,kitchen,SHINEd_sun_aamedkxepzlwuxes.tif,65,0.0666666666666667,0.0666666666666667,1.78333333333333,1486135.5828298,1486136.3625872,70,1486135.6536835,1486135.7187953,1486136.3685883,1486138.1502633,NaN,NaN
120,24,9,categorization,0,bathroom,SHINEd_sun_ahaulkltgpkeeemi.tif,26,0.0666666666666667,0.0666666666666667,0.816666666666667,1486138.1565603,1486138.9672445,74,1486138.2279707,1486138.2930407,1486138.9731871,1486139.7881912,NaN,NaN
120,25,9,categorization,0,bathroom,SHINEd_sun_aqrpegblszgcoujh.tif,48,0.0666666666666667,0.0666666666666667,0.933333333333333,1486139.7940949,1486140.5078236,74,1486139.8652505,1486139.9296992,1486140.5130721,1486141.4447432,NaN,NaN
120,26,9,categorization,0,kitchen,SHINEd_sun_abftihopvusyfakt.tif,71,0.0666666666666667,0.0666666666666667,1.33333333333333,1486141.4518945,1486142.1837687,70,1486141.5234913,1486141.5886261,1486142.1895389,1486143.5212102,NaN,NaN
120,27,9,categorization,0,bathroom,SHINEd_sun_ahijqszoswveeyji.tif,28,0.0666666666666667,0.0666666666666667,0.833333333333333,1486143.527596,1486144.3972622,74,1486143.5986214,1486143.6627578,1486144.4025777,1486145.234249,NaN,NaN
120,28,9,categorization,0,bathroom,SHINEd_sun_ambriybtogmepttm.tif,36,0.0666666666666667,0.0666666666666667,0.933333333333333,1486145.2409352,1486146.0804738,74,1486145.3118052,1486145.3761704,1486146.0860991,1486147.0177687,NaN,NaN
120,29,9,categorization,0,kitchen,SHINEd_sun_abdxkyyxwfskuaqb.tif,70,0.0666666666666667,0.0666666666666667,1.85,1486147.0244117,1486147.8283631,70,1486147.0955259,1486147.159663,1486147.833613,1486149.681951,NaN,NaN
120,30,9,categorization,0,bathroom,SHINEd_sun_aofnryafpsjimzsb.tif,40,0.0666666666666667,0.0666666666666667,0.966666666666667,1486149.6880359,1486150.8730588,70,1486149.7588551,1486149.8240201,1486150.8792213,1486151.8442264,NaN,NaN
120,31,9,categorization,0,bathroom,SHINEd_sun_akiytfaagpdsphgz.tif,31,0.0666666666666667,0.0666666666666667,0.766666666666667,1486151.850131,1486152.6262179,74,1486151.9208055,1486151.9856125,1486152.6318798,1486153.396893,NaN,NaN
120,32,9,categorization,0,bathroom,SHINEd_sun_aclfzgynxzxlbepz.tif,19,0.0666666666666667,0.0666666666666667,1.15,1486153.4026749,1486154.2719056,74,1486153.4737479,1486153.539438,1486154.2781608,1486155.42651,NaN,NaN
120,33,9,categorization,0,kitchen,SHINEd_sun_acgtpgfybqjmzeyw.tif,75,0.0666666666666667,0.0666666666666667,0.75,1486155.433051,1486156.18121,70,1486155.5038477,1486155.5683813,1486156.1873284,1486156.935666,NaN,NaN
120,34,9,categorization,0,bathroom,SHINEd_sun_aoybiabnpadelefl.tif,41,0.0666666666666667,0.0666666666666667,0.9,1486156.9418446,1486157.7430748,74,1486157.0124049,1486157.0779693,1486157.7491494,1486158.6474939,NaN,NaN
120,35,9,categorization,0,kitchen,SHINEd_sun_agzzivivdpnawacl.tif,89,0.0666666666666667,0.0666666666666667,1.88333333333333,1486158.6540566,1486159.3867919,70,1486158.7246882,1486158.7904862,1486159.3930132,1486161.2746845,NaN,NaN
120,36,9,categorization,0,bathroom,SHINEd_sun_aleqenyvunhactkl.tif,32,0.0666666666666667,0.0666666666666667,1.65,1486161.2820962,1486162.0109845,74,1486161.3529286,1486161.4174868,1486162.01705,1486163.6653863,NaN,NaN
120,37,9,categorization,0,kitchen,SHINEd_sun_aapllqyqlykszopd.tif,66,0.0666666666666667,0.0666666666666667,0.816666666666667,1486163.6715992,1486164.4152035,70,1486163.742449,1486163.8068187,1486164.4203082,1486165.2353132,NaN,NaN
120,38,9,categorization,0,kitchen,SHINEd_labelme_rykdqxenmhulbdn.tif,63,0.0666666666666667,0.0666666666666667,0.9,1486165.2427945,1486166.0029682,70,1486165.313624,1486165.3781856,1486166.0090682,1486166.9074083,NaN,NaN
120,39,9,categorization,0,bathroom,SHINEd_sun_atstyziqcmkahyxk.tif,51,0.0666666666666667,0.0666666666666667,0.733333333333333,1486166.9137472,1486167.6133029,74,1486166.9847286,1486167.0491124,1486167.618735,1486168.3504054,NaN,NaN
120,40,9,categorization,0,bathroom,SHINEd_sun_abjtwfukuwddzted.tif,15,0.0666666666666667,0.0666666666666667,0.85,1486168.3563779,1486169.1384914,70,1486168.4267974,1486168.4915484,1486169.1440465,1486169.9923838,NaN,NaN
120,41,9,categorization,0,bathroom,SHINEd_sun_axldvoqbuvuggfmq.tif,57,0.0666666666666667,0.0666666666666667,1.58333333333333,1486169.9999492,1486170.710738,74,1486170.0711391,1486170.1366459,1486170.7161525,1486172.2978231,NaN,NaN
120,42,9,categorization,0,kitchen,SHINEd_sun_aenotlpyftoioydp.tif,82,0.0666666666666667,0.0666666666666667,1.8,1486172.3042493,1486173.0359224,70,1486172.3751991,1486172.4394865,1486173.0416097,1486174.8399472,NaN,NaN
120,43,9,categorization,0,bathroom,SHINEd_sun_auzqhkafidnkrwmo.tif,54,0.0666666666666667,0.0666666666666667,1.3,1486174.8474221,1486175.5827466,74,1486174.9182311,1486174.9826336,1486175.5890054,1486176.8873436,NaN,NaN
120,44,9,categorization,0,bathroom,SHINEd_labelme_sfxiulhjbhlyiyt.tif,11,0.0666666666666667,0.0666666666666667,0.766666666666667,1486176.8933404,1486177.6055484,74,1486176.963866,1486177.0286117,1486177.6110782,1486178.3760824,NaN,NaN
120,45,9,categorization,0,bathroom,SHINEd_sun_awnqiikzaispgmwo.tif,56,0.0666666666666667,0.0666666666666667,1.15,1486178.3823663,1486179.2183467,74,1486178.4533922,1486178.5176605,1486179.2238121,1486180.3721557,NaN,NaN
120,46,9,categorization,0,kitchen,SHINEd_sun_ahspylgoovwmwvgk.tif,93,0.0666666666666667,0.0666666666666667,1.36666666666667,1486180.3799418,1486181.1234986,70,1486180.4509184,1486180.5153507,1486181.1296129,1486182.4946181,NaN,NaN
120,47,9,categorization,0,bathroom,SHINEd_sun_apkruvsevgegsdwp.tif,44,0.0666666666666667,0.0666666666666667,0.783333333333333,1486182.500527,1486183.2166476,74,1486182.5713335,1486182.6356202,1486183.2232046,1486184.004875,NaN,NaN
120,48,9,categorization,0,kitchen,SHINEd_sun_ajkqhtgcbgpcwrwn.tif,96,0.0666666666666667,0.0666666666666667,1.25,1486184.0110036,1486184.9444172,70,1486184.0818976,1486184.1461498,1486184.949972,1486186.1983106,NaN,NaN
120,49,9,categorization,0,bathroom,SHINEd_sun_ahcvzmoyaycdoftf.tif,27,0.0666666666666667,0.0666666666666667,1.5,1486186.2048984,1486186.8973749,74,1486186.2756831,1486186.3411166,1486186.903165,1486188.4015037,NaN,NaN
120,50,9,categorization,0,kitchen,SHINEd_sun_axyyrmzcupyhlivc.tif,106,0.0666666666666667,0.0666666666666667,1.03333333333333,1486188.4077253,1486189.268291,70,1486188.4784145,1486188.543098,1486189.2735107,1486190.3051823,NaN,NaN
