sub_num,trial,block,task,is_practice,category,image,texture,duration,mask_dur,jitter,stim_time,time_of_resp,trial_response,mask_time,fix_time,jit_onset,trial_end,trial_accuracy,RT
120,1,0,categorization,1,bathroom,SHINEd_bathroom_practice2.tif,112,0.0666666666666667,0.0666666666666667,1.21666666666667,1484871.2679713,1484872.2192079,70,1484871.3412835,1484871.4051044,1484872.2303021,1484873.4453579,NaN,NaN
120,2,0,categorization,1,bathroom,SHINEd_bathroom_practice4.tif,114,0.0666666666666667,0.0666666666666667,1.36666666666667,1484873.4554027,1484874.3206554,74,1484873.5282921,1484873.5910907,1484874.3273172,1484875.6923634,NaN,NaN
120,3,0,categorization,1,kitchen,SHINEd_kitchen_practice2.tif,117,0.0666666666666667,0.0666666666666667,1.85,1484875.7013027,1484876.5071697,70,1484875.7726133,1484875.8367611,1484876.5138219,1484878.3622106,NaN,NaN
120,4,0,categorization,1,bathroom,SHINEd_bathroom_practice3.tif,113,0.0666666666666667,0.0666666666666667,1.55,1484878.3688399,1484879.3066307,70,1484878.4396141,1484878.5043294,1484879.3128743,1484880.8612643,NaN,NaN
120,5,0,categorization,1,kitchen,SHINEd_kitchen_practice4.tif,119,0.0666666666666667,0.0666666666666667,1.48333333333333,1484880.8682037,1484882.1013903,70,1484880.9391601,1484881.0037445,1484882.1082016,1484883.5900229,NaN,NaN
120,6,0,categorization,1,bathroom,SHINEd_bathroom_practice5.tif,115,0.0666666666666667,0.0666666666666667,1.15,1484883.5966702,1484884.3337281,74,1484883.6679626,1484883.733259,1484884.3392714,1484885.4876105,NaN,NaN
120,7,0,categorization,1,kitchen,SHINEd_kitchen_practice1.tif,116,0.0666666666666667,0.0666666666666667,0.733333333333333,1484885.4950852,1484886.3888241,70,1484885.5667422,1484885.6303842,1484886.3942792,1484887.1259505,NaN,NaN
120,8,0,categorization,1,bathroom,SHINEd_bathroom_practice1.tif,111,0.0666666666666667,0.0666666666666667,1.6,1484887.1323283,1484887.7704868,74,1484887.2032793,1484887.2676778,1484887.7758703,1484889.3742073,NaN,NaN
120,9,0,categorization,1,kitchen,SHINEd_kitchen_practice3.tif,118,0.0666666666666667,0.0666666666666667,0.716666666666667,1484889.3805015,1484890.3433346,70,1484889.4512855,1484889.5159051,1484890.3489401,1484891.0639444,NaN,NaN
120,10,0,categorization,1,kitchen,SHINEd_kitchen_practice5.tif,120,0.0666666666666667,0.0666666666666667,1.21666666666667,1484891.0700116,1484891.9877474,70,1484891.1405101,1484891.2052604,1484891.9933635,1484893.2083682,NaN,NaN
120,1,1,categorization,0,kitchen,SHINEd_sun_aeqdocilnnpuvuhx.tif,83,0.0666666666666667,0.0666666666666667,1.23333333333333,1484899.5883939,1484900.5096907,70,1484899.6599847,1484899.7239724,1484900.5160448,1484901.7477711,NaN,NaN
120,2,1,categorization,0,kitchen,SHINEd_sun_aehawpgmrlhlvcow.tif,81,0.0666666666666667,0.0666666666666667,0.783333333333333,1484901.7561844,1484903.1515052,74,1484901.8277893,1484901.8913708,1484903.1582867,1484903.9399669,NaN,NaN
120,3,1,categorization,0,kitchen,SHINEd_sun_abdenxonkemggwsq.tif,69,0.0666666666666667,0.0666666666666667,0.75,1484903.9472353,1484904.8231193,70,1484904.018506,1484904.0822548,1484904.8290568,1484905.5773938,NaN,NaN
120,4,1,categorization,0,kitchen,SHINEd_sun_ajcbwwvdlsvjyzje.tif,95,0.0666666666666667,0.0666666666666667,1.23333333333333,1484905.583367,1484906.4622985,70,1484905.6561557,1484905.7187809,1484906.4678672,1484907.6995389,NaN,NaN
120,5,1,categorization,0,bathroom,SHINEd_sun_awnqiikzaispgmwo.tif,56,0.0666666666666667,0.0666666666666667,1.13333333333333,1484907.7055813,1484908.3616469,74,1484907.7764573,1484907.8420152,1484908.3671959,1484909.4988667,NaN,NaN
120,6,1,categorization,0,kitchen,SHINEd_labelme_brsyyvweiuaazfr.tif,61,0.0666666666666667,0.0666666666666667,0.95,1484909.5054644,1484910.2278078,70,1484909.5765721,1484909.6404908,1484910.2333349,1484911.1816722,NaN,NaN
120,7,1,categorization,0,bathroom,SHINEd_sun_agguqiubmwhqqunb.tif,22,0.0666666666666667,0.0666666666666667,0.733333333333333,1484911.1880299,1484911.9711328,70,1484911.2587441,1484911.3233164,1484911.9764194,1484912.7080901,NaN,NaN
120,8,1,categorization,0,bathroom,SHINEd_sun_anryaplzeujmzfkd.tif,39,0.0666666666666667,0.0666666666666667,1.31666666666667,1484912.7145744,1484913.6628338,70,1484912.7851376,1484912.8490344,1484913.6683451,1484914.9833596,NaN,NaN
120,9,1,categorization,0,bathroom,SHINEd_sun_ajlawzvmubibwbpy.tif,30,0.0666666666666667,0.0666666666666667,0.8,1484914.9906104,1484915.6748909,74,1484915.0615652,1484915.1260764,1484915.6807753,1484916.4791132,NaN,NaN
120,10,1,categorization,0,kitchen,SHINEd_sun_aunzlwrbjumxhwdj.tif,102,0.0666666666666667,0.0666666666666667,0.716666666666667,1484916.4867758,1484917.1744879,70,1484916.5593897,1484916.6236057,1484917.1805809,1484917.8955849,NaN,NaN
120,11,1,categorization,0,bathroom,SHINEd_sun_apkruvsevgegsdwp.tif,44,0.0666666666666667,0.0666666666666667,0.916666666666667,1484917.9015222,1484918.6253673,74,1484917.9722286,1484918.036547,1484918.6314843,1484919.5464884,NaN,NaN
120,12,1,categorization,0,kitchen,SHINEd_sun_aggjlwcdjsjcaemh.tif,86,0.0666666666666667,0.0666666666666667,0.95,1484919.5525581,1484920.4261088,70,1484919.6233557,1484919.6876413,1484920.4317095,1484921.3800471,NaN,NaN
120,13,1,categorization,0,kitchen,SHINEd_sun_aenotlpyftoioydp.tif,82,0.0666666666666667,0.0666666666666667,0.833333333333333,1484921.3860796,1484922.1785763,70,1484921.457188,1484921.5212617,1484922.1839753,1484923.0156455,NaN,NaN
120,14,1,categorization,0,bathroom,SHINEd_sun_atstyziqcmkahyxk.tif,51,0.0666666666666667,0.0666666666666667,0.75,1484923.0214876,1484923.6302084,74,1484923.0929534,1484923.1568202,1484923.6357102,1484924.384047,NaN,NaN
120,15,1,categorization,0,bathroom,SHINEd_sun_apynckhmoftszqoq.tif,47,0.0666666666666667,0.0666666666666667,1.53333333333333,1484924.3901164,1484925.013469,74,1484924.461213,1484924.5253942,1484925.0198129,1484926.5514842,NaN,NaN
120,16,1,categorization,0,kitchen,SHINEd_sun_acfmftudsenhrfhy.tif,74,0.0666666666666667,0.0666666666666667,1.05,1484926.5573471,1484927.2600086,70,1484926.6281911,1484926.6921833,1484927.2650284,1484928.3133662,NaN,NaN
120,17,1,categorization,0,bathroom,SHINEd_sun_akiytfaagpdsphgz.tif,31,0.0666666666666667,0.0666666666666667,0.9,1484928.3188136,1484928.9726741,74,1484928.3894744,1484928.4541454,1484928.978032,1484929.8763695,NaN,NaN
120,18,1,categorization,0,bathroom,SHINEd_sun_apmqjbnwghzuhhzh.tif,46,0.0666666666666667,0.0666666666666667,1.18333333333333,1484929.8827337,1484930.5369447,74,1484929.9533836,1484930.0179926,1484930.5430091,1484931.7246802,NaN,NaN
120,19,1,categorization,0,bathroom,SHINEd_sun_aoybiabnpadelefl.tif,41,0.0666666666666667,0.0666666666666667,0.9,1484931.7313228,1484932.346251,70,1484931.8027475,1484931.8668864,1484932.3522183,1484933.2505574,NaN,NaN
120,20,1,categorization,0,kitchen,SHINEd_sun_aexklacwqwezaorf.tif,84,0.0666666666666667,0.0666666666666667,1.66666666666667,1484933.2568199,1484933.9695654,70,1484933.3278828,1484933.3924058,1484933.9750455,1484935.6400489,NaN,NaN
120,21,1,categorization,0,bathroom,SHINEd_sun_avhrdrntsqrjzccq.tif,55,0.0666666666666667,0.0666666666666667,1.13333333333333,1484935.6463314,1484936.5756021,74,1484935.7180284,1484935.7815666,1484936.5817245,1484937.7133953,NaN,NaN
120,22,1,categorization,0,kitchen,SHINEd_sun_axyyrmzcupyhlivc.tif,106,0.0666666666666667,0.0666666666666667,1.3,1484937.7200149,1484938.4302093,70,1484937.7921076,1484937.8556228,1484938.4363418,1484939.7346794,NaN,NaN
120,23,1,categorization,0,bathroom,SHINEd_sun_afcoljnjfoxjtgja.tif,20,0.0666666666666667,0.0666666666666667,1.93333333333333,1484939.7406784,1484940.4095174,74,1484939.8122236,1484939.8770169,1484940.4157785,1484942.3474489,NaN,NaN
120,24,1,categorization,0,kitchen,SHINEd_sun_abdxkyyxwfskuaqb.tif,70,0.0666666666666667,0.0666666666666667,1,1484942.3537451,1484943.086706,74,1484942.4252416,1484942.488974,1484943.0926239,1484944.0909624,NaN,NaN
120,25,1,categorization,0,bathroom,SHINEd_sun_aleqenyvunhactkl.tif,32,0.0666666666666667,0.0666666666666667,0.883333333333333,1484944.0970751,1484944.7531969,74,1484944.1677944,1484944.2337844,1484944.7587079,1484945.6403803,NaN,NaN
120,26,1,categorization,0,kitchen,SHINEd_sun_ahywdevtimnqcsln.tif,94,0.0666666666666667,0.0666666666666667,1.95,1484945.6469023,1484946.3687119,70,1484945.7192563,1484945.7820397,1484946.3739074,1484948.322257,NaN,NaN
120,27,1,categorization,0,bathroom,SHINEd_sun_ambriybtogmepttm.tif,36,0.0666666666666667,0.0666666666666667,1.25,1484948.3293726,1484949.1420076,74,1484948.4008422,1484948.4653654,1484949.1482742,1484950.3966121,NaN,NaN
120,28,1,categorization,0,bathroom,SHINEd_sun_aofnryafpsjimzsb.tif,40,0.0666666666666667,0.0666666666666667,1.95,1484950.4026992,1484951.0594737,74,1484950.4737467,1484950.5377357,1484951.0657475,1484953.0140858,NaN,NaN
120,29,1,categorization,0,kitchen,SHINEd_sun_acxkpeoqbwcxfvip.tif,77,0.0666666666666667,0.0666666666666667,1.91666666666667,1484953.0199091,1484953.7176802,70,1484953.0912663,1484953.1552308,1484953.7231971,1484955.6382014,NaN,NaN
120,30,1,categorization,0,kitchen,SHINEd_sun_adgqasybjyktddhj.tif,78,0.0666666666666667,0.0666666666666667,1.41666666666667,1484955.6444724,1484956.3335359,70,1484955.7171619,1484955.78092,1484956.3396463,1484957.7546501,NaN,NaN
120,31,1,categorization,0,bathroom,SHINEd_sun_ausgutylgojavyoq.tif,53,0.0666666666666667,0.0666666666666667,0.716666666666667,1484957.7607623,1484958.3510344,74,1484957.8327684,1484957.8960731,1484958.3568252,1484959.0718367,NaN,NaN
120,32,1,categorization,0,bathroom,SHINEd_sun_aggnnqpdorgxpvce.tif,21,0.0666666666666667,0.0666666666666667,1.28333333333333,1484959.0777494,1484959.9365179,74,1484959.1483055,1484959.2126832,1484959.9424386,1484961.2241106,NaN,NaN
120,33,1,categorization,0,bathroom,SHINEd_sun_auzqhkafidnkrwmo.tif,54,0.0666666666666667,0.0666666666666667,0.9,1484961.2300432,1484961.9704028,74,1484961.3015586,1484961.3651567,1484961.9757834,1484962.8741204,NaN,NaN
120,34,1,categorization,0,kitchen,SHINEd_sun_akchetnepxlcxhsu.tif,97,0.0666666666666667,0.0666666666666667,0.8,1484962.8802877,1484963.5014541,70,1484962.9528788,1484963.0158615,1484963.5069477,1484964.3052861,NaN,NaN
120,35,1,categorization,0,kitchen,SHINEd_sun_agorklincwxrdtga.tif,87,0.0666666666666667,0.0666666666666667,1.01666666666667,1484964.3116155,1484965.1028649,70,1484964.3826156,1484964.4468903,1484965.1091036,1484966.1241101,NaN,NaN
120,36,1,categorization,0,kitchen,SHINEd_labelme_rykdqxenmhulbdn.tif,63,0.0666666666666667,0.0666666666666667,0.85,1484966.1308104,1484966.8058888,70,1484966.2016264,1484966.2662006,1484966.811099,1484967.659436,NaN,NaN
120,37,1,categorization,0,kitchen,SHINEd_sun_ayqymgxqhxxiykiw.tif,109,0.0666666666666667,0.0666666666666667,1.51666666666667,1484967.665998,1484968.3343907,70,1484967.7383032,1484967.8012611,1484968.3399181,1484969.8549311,NaN,NaN
120,38,1,categorization,0,kitchen,SHINEd_sun_abrcnpqqhmjwekyf.tif,73,0.0666666666666667,0.0666666666666667,1.83333333333333,1484969.8612969,1484970.5882937,70,1484969.9334287,1484969.9964377,1484970.594173,1484972.4259419,NaN,NaN
120,39,1,categorization,0,kitchen,SHINEd_sun_aarfiyshqohlwkmo.tif,67,0.0666666666666667,0.0666666666666667,0.716666666666667,1484972.4324325,1484973.0528795,70,1484972.5034822,1484972.5677206,1484973.0581098,1484973.7731214,NaN,NaN
120,40,1,categorization,0,kitchen,SHINEd_sun_aamedkxepzlwuxes.tif,65,0.0666666666666667,0.0666666666666667,0.9,1484973.7799464,1484974.5023768,70,1484973.851027,1484973.9151712,1484974.5079911,1484975.4063302,NaN,NaN
120,41,1,categorization,0,bathroom,SHINEd_sun_aunuadmjocsddsrl.tif,52,0.0666666666666667,0.0666666666666667,0.916666666666667,1484975.4127861,1484976.3687133,74,1484975.4834947,1484975.5479427,1484976.3747933,1484977.2897969,NaN,NaN
120,42,1,categorization,0,bathroom,SHINEd_sun_agyqfjcfkdcydepw.tif,25,0.0666666666666667,0.0666666666666667,0.816666666666667,1484977.295968,1484978.5067746,74,1484977.3673428,1484977.4312618,1484978.5134336,1484979.3284393,NaN,NaN
120,43,1,categorization,0,kitchen,SHINEd_sun_afuyedyxivkhecmu.tif,85,0.0666666666666667,0.0666666666666667,1.88333333333333,1484979.3347929,1484980.0579353,70,1484979.4074615,1484979.4704966,1484980.063389,1484981.9450594,NaN,NaN
120,44,1,categorization,0,kitchen,SHINEd_sun_auaiucuqpdausiva.tif,101,0.0666666666666667,0.0666666666666667,0.9,1484981.951468,1484982.6916835,70,1484982.0230198,1484982.0870882,1484982.6967969,1484983.5951356,NaN,NaN
120,45,1,categorization,0,kitchen,SHINEd_sun_acwjdupvyjsugpay.tif,76,0.0666666666666667,0.0666666666666667,1,1484983.6011471,1484984.3503335,70,1484983.6722441,1484983.7371294,1484984.3564278,1484985.3547652,NaN,NaN
120,46,1,categorization,0,bathroom,SHINEd_sun_axxbkopsgyouuebh.tif,58,0.0666666666666667,0.0666666666666667,0.733333333333333,1484985.3616356,1484985.9635984,74,1484985.4326821,1484985.4978375,1484985.9696753,1484986.7013518,NaN,NaN
120,47,1,categorization,0,bathroom,SHINEd_sun_abjtwfukuwddzted.tif,15,0.0666666666666667,0.0666666666666667,0.883333333333333,1484986.7077575,1484987.5641401,74,1484986.7800706,1484986.8428591,1484987.5695301,1484988.4512014,NaN,NaN
120,48,1,categorization,0,kitchen,SHINEd_labelme_kxvouciolcpqplr.tif,62,0.0666666666666667,0.0666666666666667,1.73333333333333,1484988.4572517,1484989.1359039,70,1484988.5283088,1484988.5924414,1484989.1418001,1484990.8734727,NaN,NaN
120,49,1,categorization,0,bathroom,SHINEd_sun_abapwbhyhkfixyex.tif,14,0.0666666666666667,0.0666666666666667,1.91666666666667,1484990.8812076,1484991.6020066,70,1484990.9520923,1484991.0163019,1484991.6082652,1484993.5232695,NaN,NaN
120,50,1,categorization,0,kitchen,SHINEd_sun_amjjdeyrggfqgmom.tif,99,0.0666666666666667,0.0666666666666667,1.35,1484993.5307048,1484994.2057008,70,1484993.6016996,1484993.6659254,1484994.2110246,1484995.5593629,NaN,NaN
120,1,2,categorization,0,bathroom,SHINEd_sun_aljolscmmzydegqp.tif,33,0.0666666666666667,0.0666666666666667,0.95,1485001.3956482,1485002.2375391,74,1485001.4660642,1485001.5313841,1485002.2441646,1485003.1925021,NaN,NaN
120,2,2,categorization,0,bathroom,SHINEd_sun_aapitsgbtktqubfy.tif,12,0.0666666666666667,0.0666666666666667,0.75,1485003.1986869,1485003.7789814,74,1485003.2696198,1485003.3338609,1485003.784504,1485004.5328419,NaN,NaN
120,3,2,categorization,0,bathroom,SHINEd_sun_alotolagknyrgtsk.tif,35,0.0666666666666667,0.0666666666666667,1.68333333333333,1485004.5383956,1485005.2017059,70,1485004.6093522,1485004.6736923,1485005.2077615,1485006.8894327,NaN,NaN
120,4,2,categorization,0,bathroom,SHINEd_sun_alkosphxlxwjwgjd.tif,34,0.0666666666666667,0.0666666666666667,0.816666666666667,1485006.8959988,1485007.6642172,70,1485006.9669794,1485007.0319269,1485007.6708433,1485008.4858481,NaN,NaN
120,5,2,categorization,0,bathroom,SHINEd_sun_ahqjwnzgolcaoidx.tif,29,0.0666666666666667,0.0666666666666667,0.916666666666667,1485008.4921509,1485009.200665,74,1485008.563171,1485008.6266959,1485009.2067886,1485010.1217921,NaN,NaN
120,6,2,categorization,0,bathroom,SHINEd_sun_apkxzenqapsujocq.tif,45,0.0666666666666667,0.0666666666666667,1.21666666666667,1485010.1283332,1485010.815874,74,1485010.1992197,1485010.2633573,1485010.8212614,1485012.036266,NaN,NaN
120,7,2,categorization,0,kitchen,SHINEd_sun_ajkqhtgcbgpcwrwn.tif,96,0.0666666666666667,0.0666666666666667,0.9,1485012.0421651,1485012.6778409,70,1485012.1131738,1485012.1775292,1485012.6837168,1485013.5820555,NaN,NaN
120,8,2,categorization,0,kitchen,SHINEd_sun_agubuxuukhzyzpdp.tif,88,0.0666666666666667,0.0666666666666667,1.65,1485013.5881646,1485014.2603781,70,1485013.6587564,1485013.7230333,1485014.2666279,1485015.9149655,NaN,NaN
120,9,2,categorization,0,bathroom,SHINEd_sun_aclfzgynxzxlbepz.tif,19,0.0666666666666667,0.0666666666666667,1.15,1485015.9209038,1485016.5122562,74,1485015.9918871,1485016.0572695,1485016.5177191,1485017.6660686,NaN,NaN
120,10,2,categorization,0,bathroom,SHINEd_sun_ahcvzmoyaycdoftf.tif,27,0.0666666666666667,0.0666666666666667,1.13333333333333,1485017.672119,1485018.2613429,74,1485017.7429855,1485017.8072711,1485018.267337,1485019.3990089,NaN,NaN
120,11,2,categorization,0,kitchen,SHINEd_sun_acgtpgfybqjmzeyw.tif,75,0.0666666666666667,0.0666666666666667,1.76666666666667,1485019.4045946,1485020.0904993,70,1485019.475681,1485019.5398315,1485020.0959854,1485021.8609895,NaN,NaN
120,12,2,categorization,0,bathroom,SHINEd_sun_amzlamotzwfkwjco.tif,37,0.0666666666666667,0.0666666666666667,1.8,1485021.8679021,1485022.707027,70,1485021.9389314,1485022.0030531,1485022.7125044,1485024.5108423,NaN,NaN
120,13,2,categorization,0,bathroom,SHINEd_sun_aqrpegblszgcoujh.tif,48,0.0666666666666667,0.0666666666666667,0.9,1485024.5168182,1485025.1343644,74,1485024.588167,1485024.6523993,1485025.1403533,1485026.038691,NaN,NaN
120,14,2,categorization,0,kitchen,SHINEd_sun_aegoxogugdkwpmpj.tif,80,0.0666666666666667,0.0666666666666667,0.716666666666667,1485026.0446968,1485026.942041,70,1485026.1155938,1485026.1801689,1485026.9476947,1485027.6626997,NaN,NaN
120,15,2,categorization,0,bathroom,SHINEd_sun_aavhrsfjbserjtht.tif,13,0.0666666666666667,0.0666666666666667,1.36666666666667,1485027.6683713,1485028.3496521,74,1485027.7401613,1485027.8033258,1485028.3549038,1485029.7199085,NaN,NaN
120,16,2,categorization,0,kitchen,SHINEd_sun_abftihopvusyfakt.tif,71,0.0666666666666667,0.0666666666666667,0.916666666666667,1485029.7273778,1485030.3456069,70,1485029.7983805,1485029.8622281,1485030.3512308,1485031.2662337,NaN,NaN
120,17,2,categorization,0,bathroom,SHINEd_sun_aghyqhbptboemmoq.tif,23,0.0666666666666667,0.0666666666666667,0.716666666666667,1485031.2721822,1485031.8491318,74,1485031.343003,1485031.4075369,1485031.8551581,1485032.570163,NaN,NaN
120,18,2,categorization,0,kitchen,SHINEd_sun_aypmqwcualkenuoe.tif,108,0.0666666666666667,0.0666666666666667,0.766666666666667,1485032.575983,1485033.613172,70,1485032.6468856,1485032.7108632,1485033.6191147,1485034.38412,NaN,NaN
120,19,2,categorization,0,bathroom,SHINEd_labelme_sfxiulhjbhlyiyt.tif,11,0.0666666666666667,0.0666666666666667,1.06666666666667,1485034.3904054,1485035.075758,74,1485034.4621188,1485034.5263491,1485035.0810726,1485036.1460772,NaN,NaN
120,20,2,categorization,0,kitchen,SHINEd_sun_aqeaevwwwjoqhzvl.tif,100,0.0666666666666667,0.0666666666666667,0.8,1485036.1522498,1485036.8221374,70,1485036.2237723,1485036.2870928,1485036.8280212,1485037.6263633,NaN,NaN
120,21,2,categorization,0,kitchen,SHINEd_sun_ahspylgoovwmwvgk.tif,93,0.0666666666666667,0.0666666666666667,0.866666666666667,1485037.6328712,1485038.2802342,70,1485037.7040235,1485037.7682054,1485038.2862131,1485039.1512166,NaN,NaN
120,22,2,categorization,0,kitchen,SHINEd_sun_aapllqyqlykszopd.tif,66,0.0666666666666667,0.0666666666666667,1.48333333333333,1485039.1573083,1485039.8416453,70,1485039.2283185,1485039.2940645,1485039.8467723,1485041.3284437,NaN,NaN
120,23,2,categorization,0,bathroom,SHINEd_sun_anhioqovhscjqqwb.tif,38,0.0666666666666667,0.0666666666666667,1.1,1485041.3355473,1485041.9660432,74,1485041.4064487,1485041.4709464,1485041.9711535,1485043.0694916,NaN,NaN
120,24,2,categorization,0,kitchen,SHINEd_sun_aymvwlarqodbwuoc.tif,107,0.0666666666666667,0.0666666666666667,0.783333333333333,1485043.0759877,1485043.7687514,70,1485043.1468349,1485043.2116204,1485043.7748269,1485044.5564988,NaN,NaN
120,25,2,categorization,0,kitchen,SHINEd_sun_abpwyqmlzafvklqo.tif,72,0.0666666666666667,0.0666666666666667,0.866666666666667,1485044.5625125,1485045.2352006,70,1485044.6334727,1485044.6976386,1485045.241114,1485046.1061189,NaN,NaN
120,26,2,categorization,0,bathroom,SHINEd_sun_apjevzvycyhuqghb.tif,43,0.0666666666666667,0.0666666666666667,1.83333333333333,1485046.1123511,1485046.8311,70,1485046.183393,1485046.2479556,1485046.8373988,1485048.6690687,NaN,NaN
120,27,2,categorization,0,bathroom,SHINEd_sun_agrwbmhcpmfuwmsg.tif,24,0.0666666666666667,0.0666666666666667,0.7,1485048.6756986,1485049.4091756,74,1485048.7474556,1485048.8111441,1485049.4145066,1485050.1129177,NaN,NaN
120,28,2,categorization,0,kitchen,SHINEd_sun_agzzivivdpnawacl.tif,89,0.0666666666666667,0.0666666666666667,1.33333333333333,1485050.1189037,1485050.9198721,70,1485050.1898054,1485050.2540461,1485050.925181,1485052.2568514,NaN,NaN
120,29,2,categorization,0,bathroom,SHINEd_sun_axyrejkiiaqiurjk.tif,59,0.0666666666666667,0.0666666666666667,1.33333333333333,1485052.2633229,1485052.9912947,70,1485052.3340156,1485052.3984296,1485052.9973956,1485054.3290675,NaN,NaN
120,30,2,categorization,0,bathroom,SHINEd_sun_azqyogdvyhahyram.tif,60,0.0666666666666667,0.0666666666666667,1.38333333333333,1485054.3356081,1485054.8764078,74,1485054.408188,1485054.4715529,1485054.8817592,1485056.26343,NaN,NaN
120,31,2,categorization,0,kitchen,SHINEd_sun_akcjzhbbjlbogpdi.tif,98,0.0666666666666667,0.0666666666666667,1.25,1485056.2697068,1485056.8558927,70,1485056.3408618,1485056.4050304,1485056.8613507,1485058.1096897,NaN,NaN
120,32,2,categorization,0,kitchen,SHINEd_sun_auticobqsbwgoppi.tif,103,0.0666666666666667,0.0666666666666667,1.55,1485058.1171565,1485058.7450203,70,1485058.1878082,1485058.2527544,1485058.7505605,1485060.2988991,NaN,NaN
120,33,2,categorization,0,kitchen,SHINEd_sun_aaxxjlsuzvqlgylf.tif,68,0.0666666666666667,0.0666666666666667,1.61666666666667,1485060.3049326,1485060.9870704,70,1485060.3777508,1485060.4409326,1485060.9929066,1485062.6079114,NaN,NaN
120,34,2,categorization,0,kitchen,SHINEd_sun_azmutvzbxypaceni.tif,110,0.0666666666666667,0.0666666666666667,1.33333333333333,1485062.6143707,1485063.3753909,70,1485062.6853543,1485062.7493919,1485063.3807061,1485064.7123767,NaN,NaN
120,35,2,categorization,0,bathroom,SHINEd_sun_axldvoqbuvuggfmq.tif,57,0.0666666666666667,0.0666666666666667,0.833333333333333,1485064.7187439,1485065.3441339,70,1485064.7901761,1485064.8546377,1485065.3495657,1485066.1812358,NaN,NaN
120,36,2,categorization,0,kitchen,SHINEd_sun_admlmbcdswaszruo.tif,79,0.0666666666666667,0.0666666666666667,1.45,1485066.1872363,1485067.6537304,70,1485066.257949,1485066.3222037,1485067.6598239,1485069.1081619,NaN,NaN
120,37,2,categorization,0,kitchen,SHINEd_sun_ahpczsiumwwocjkv.tif,92,0.0666666666666667,0.0666666666666667,0.933333333333333,1485069.114187,1485069.7902426,70,1485069.1850445,1485069.2494149,1485069.7956141,1485070.7272853,NaN,NaN
120,38,2,categorization,0,kitchen,SHINEd_sun_ahdycvpopffkzzsu.tif,90,0.0666666666666667,0.0666666666666667,1.65,1485070.7337186,1485071.4174976,70,1485070.8052198,1485070.8707003,1485071.422548,1485073.0708853,NaN,NaN
120,39,2,categorization,0,kitchen,SHINEd_sun_aadbddgrdsjugojn.tif,64,0.0666666666666667,0.0666666666666667,1.23333333333333,1485073.0772889,1485073.7762981,70,1485073.149194,1485073.2125196,1485073.7815487,1485075.0132191,NaN,NaN
120,40,2,categorization,0,bathroom,SHINEd_sun_acgyywnybuveqsro.tif,18,0.0666666666666667,0.0666666666666667,0.766666666666667,1485075.0191687,1485075.7368722,74,1485075.090498,1485075.1540534,1485075.74295,1485076.5079531,NaN,NaN
120,41,2,categorization,0,bathroom,SHINEd_sun_aspsyogrekjtfozg.tif,50,0.0666666666666667,0.0666666666666667,1.78333333333333,1485076.5140922,1485077.1409786,74,1485076.5848747,1485076.6492139,1485077.1470454,1485078.9287174,NaN,NaN
120,42,2,categorization,0,bathroom,SHINEd_sun_asfwthctfqerjvxr.tif,49,0.0666666666666667,0.0666666666666667,1.11666666666667,1485078.9351187,1485079.5820332,74,1485079.0073029,1485079.0707555,1485079.5881193,1485080.7031238,NaN,NaN
120,43,2,categorization,0,kitchen,SHINEd_sun_avszsnwsbuqfgzbn.tif,104,0.0666666666666667,0.0666666666666667,1.85,1485080.7104967,1485081.3464142,70,1485080.7812133,1485080.8461573,1485081.3518852,1485083.2002222,NaN,NaN
120,44,2,categorization,0,bathroom,SHINEd_sun_acduarbnmmoglmiv.tif,16,0.0666666666666667,0.0666666666666667,0.733333333333333,1485083.2072645,1485083.8433963,74,1485083.2781122,1485083.3426733,1485083.8483556,1485084.580027,NaN,NaN
120,45,2,categorization,0,bathroom,SHINEd_sun_ahaulkltgpkeeemi.tif,26,0.0666666666666667,0.0666666666666667,0.783333333333333,1485084.5856485,1485085.2708655,74,1485084.6562595,1485084.7208474,1485085.2771132,1485086.0587853,NaN,NaN
120,46,2,categorization,0,kitchen,SHINEd_sun_awcpdzzznmweyyhv.tif,105,0.0666666666666667,0.0666666666666667,1.5,1485086.0645072,1485086.7260464,70,1485086.1353666,1485086.1995222,1485086.7323862,1485088.2307249,NaN,NaN
120,47,2,categorization,0,kitchen,SHINEd_sun_ahljzhgcdpomplvg.tif,91,0.0666666666666667,0.0666666666666667,0.733333333333333,1485088.237323,1485088.8976536,70,1485088.3096901,1485088.3726415,1485088.9031492,1485089.6348208,NaN,NaN
120,48,2,categorization,0,bathroom,SHINEd_sun_apeeialkgkuxddgh.tif,42,0.0666666666666667,0.0666666666666667,1.1,1485089.6408831,1485090.2499423,74,1485089.7117226,1485089.776184,1485090.2561896,1485091.3545278,NaN,NaN
120,49,2,categorization,0,bathroom,SHINEd_sun_acegryoqftbzowsg.tif,17,0.0666666666666667,0.0666666666666667,1.6,1485091.3609335,1485092.0220353,74,1485091.4317656,1485091.4963448,1485092.0284845,1485093.6268222,NaN,NaN
120,50,2,categorization,0,bathroom,SHINEd_sun_ahijqszoswveeyji.tif,28,0.0666666666666667,0.0666666666666667,1.06666666666667,1485093.6327975,1485094.3091113,74,1485093.7035794,1485093.7682147,1485094.3153525,1485095.3803575,NaN,NaN
120,1,3,categorization,0,bathroom,SHINEd_sun_apkruvsevgegsdwp.tif,44,0.0666666666666667,0.0666666666666667,0.85,1485347.6893589,1485349.0621624,74,1485347.7602316,1485347.8252682,1485349.0678974,1485349.9162358,NaN,NaN
120,2,3,categorization,0,bathroom,SHINEd_sun_aapitsgbtktqubfy.tif,12,0.0666666666666667,0.0666666666666667,1.65,1485349.9224262,1485350.6061128,70,1485349.9931693,1485350.0576222,1485350.6114106,1485352.2597539,NaN,NaN
120,3,3,categorization,0,kitchen,SHINEd_sun_akchetnepxlcxhsu.tif,97,0.0666666666666667,0.0666666666666667,0.783333333333333,1485352.2661877,1485352.9902938,74,1485352.3380002,1485352.4014676,1485352.9962062,1485353.7778768,NaN,NaN
120,4,3,categorization,0,kitchen,SHINEd_sun_afuyedyxivkhecmu.tif,85,0.0666666666666667,0.0666666666666667,0.933333333333333,1485353.7838289,1485354.5585293,70,1485353.8547901,1485353.9191673,1485354.5642825,1485355.4959521,NaN,NaN
120,5,3,categorization,0,kitchen,SHINEd_sun_aqeaevwwwjoqhzvl.tif,100,0.0666666666666667,0.0666666666666667,0.866666666666667,1485355.502079,1485356.3819878,70,1485355.5729522,1485355.6375847,1485356.3871176,1485357.252122,NaN,NaN
120,6,3,categorization,0,kitchen,SHINEd_sun_akcjzhbbjlbogpdi.tif,98,0.0666666666666667,0.0666666666666667,1.11666666666667,1485357.2578872,1485358.0326262,70,1485357.32889,1485357.394252,1485358.0379218,1485359.1529372,NaN,NaN
120,7,3,categorization,0,kitchen,SHINEd_sun_aypmqwcualkenuoe.tif,108,0.0666666666666667,0.0666666666666667,0.966666666666667,1485359.1590401,1485360.0277985,74,1485359.2305971,1485359.2940911,1485360.0328623,1485360.9978663,NaN,NaN
120,8,3,categorization,0,kitchen,SHINEd_sun_aenotlpyftoioydp.tif,82,0.0666666666666667,0.0666666666666667,1.78333333333333,1485361.0045123,1485361.6981123,70,1485361.0753522,1485361.139563,1485361.703597,1485363.4852679,NaN,NaN
120,9,3,categorization,0,bathroom,SHINEd_sun_ahqjwnzgolcaoidx.tif,29,0.0666666666666667,0.0666666666666667,1.55,1485363.4911677,1485364.3308428,74,1485363.5623957,1485363.6265848,1485364.3360374,1485365.8843742,NaN,NaN
120,10,3,categorization,0,bathroom,SHINEd_sun_ahcvzmoyaycdoftf.tif,27,0.0666666666666667,0.0666666666666667,1.41666666666667,1485365.8907036,1485366.499083,74,1485365.962643,1485366.0259883,1485366.505301,1485367.9203064,NaN,NaN
120,11,3,categorization,0,kitchen,SHINEd_sun_abdenxonkemggwsq.tif,69,0.0666666666666667,0.0666666666666667,0.8,1485367.9269432,1485368.6284048,70,1485367.9993086,1485368.0628075,1485368.6346144,1485369.4329531,NaN,NaN
120,12,3,categorization,0,kitchen,SHINEd_sun_aggjlwcdjsjcaemh.tif,86,0.0666666666666667,0.0666666666666667,1.28333333333333,1485369.4384639,1485370.2069942,70,1485369.5092866,1485369.5736725,1485370.2124732,1485371.4941449,NaN,NaN
120,13,3,categorization,0,bathroom,SHINEd_sun_ausgutylgojavyoq.tif,53,0.0666666666666667,0.0666666666666667,1.66666666666667,1485371.5000168,1485372.1254239,74,1485371.5710469,1485371.6355887,1485372.1314517,1485373.7964548,NaN,NaN
120,14,3,categorization,0,bathroom,SHINEd_sun_axldvoqbuvuggfmq.tif,57,0.0666666666666667,0.0666666666666667,1.81666666666667,1485373.8028541,1485374.5070416,74,1485373.8737056,1485373.9393843,1485374.5131578,1485376.3281621,NaN,NaN
120,15,3,categorization,0,kitchen,SHINEd_sun_aaxxjlsuzvqlgylf.tif,68,0.0666666666666667,0.0666666666666667,1.35,1485376.3345283,1485377.1923176,70,1485376.4068566,1485376.471091,1485377.1976436,1485378.5459809,NaN,NaN
120,16,3,categorization,0,bathroom,SHINEd_sun_anryaplzeujmzfkd.tif,39,0.0666666666666667,0.0666666666666667,0.916666666666667,1485378.5521012,1485379.2859041,74,1485378.6229054,1485378.6878822,1485379.2912361,1485380.2062401,NaN,NaN
120,17,3,categorization,0,bathroom,SHINEd_sun_agrwbmhcpmfuwmsg.tif,24,0.0666666666666667,0.0666666666666667,0.916666666666667,1485380.2125522,1485380.9297023,74,1485380.2831279,1485380.3480135,1485380.9351063,1485381.8501111,NaN,NaN
120,18,3,categorization,0,bathroom,SHINEd_sun_apmqjbnwghzuhhzh.tif,46,0.0666666666666667,0.0666666666666667,1.31666666666667,1485381.8566192,1485382.7666013,74,1485381.9277,1485381.992124,1485382.7722486,1485384.0872525,NaN,NaN
120,19,3,categorization,0,kitchen,SHINEd_sun_adgqasybjyktddhj.tif,78,0.0666666666666667,0.0666666666666667,1.45,1485384.0934845,1485384.8426589,70,1485384.1654962,1485384.2291679,1485384.8480655,1485386.2964175,NaN,NaN
120,20,3,categorization,0,bathroom,SHINEd_sun_acduarbnmmoglmiv.tif,16,0.0666666666666667,0.0666666666666667,0.95,1485386.3025545,1485387.0079836,74,1485386.3746162,1485386.4377969,1485387.0134364,1485387.9617736,NaN,NaN
120,21,3,categorization,0,kitchen,SHINEd_sun_aamedkxepzlwuxes.tif,65,0.0666666666666667,0.0666666666666667,1.38333333333333,1485387.9678364,1485388.6933517,70,1485388.0389948,1485388.103123,1485388.698937,1485390.0806077,NaN,NaN
120,22,3,categorization,0,kitchen,SHINEd_sun_acwjdupvyjsugpay.tif,76,0.0666666666666667,0.0666666666666667,1.16666666666667,1485390.0867283,1485390.8060182,70,1485390.1577571,1485390.2219688,1485390.8120147,1485391.9770195,NaN,NaN
120,23,3,categorization,0,bathroom,SHINEd_sun_acgyywnybuveqsro.tif,18,0.0666666666666667,0.0666666666666667,1.61666666666667,1485391.9834229,1485392.6487452,74,1485392.0549089,1485392.1187207,1485392.6545232,1485394.2695275,NaN,NaN
120,24,3,categorization,0,bathroom,SHINEd_sun_abapwbhyhkfixyex.tif,14,0.0666666666666667,0.0666666666666667,1.38333333333333,1485394.2760064,1485395.1889652,74,1485394.3470326,1485394.4112253,1485395.1940437,1485396.5757142,NaN,NaN
120,25,3,categorization,0,kitchen,SHINEd_sun_acfmftudsenhrfhy.tif,74,0.0666666666666667,0.0666666666666667,1.78333333333333,1485396.5817009,1485397.2782827,70,1485396.6524522,1485396.7173561,1485397.2836171,1485399.0652879,NaN,NaN
120,26,3,categorization,0,kitchen,SHINEd_sun_aarfiyshqohlwkmo.tif,67,0.0666666666666667,0.0666666666666667,0.783333333333333,1485399.0714526,1485399.9759847,70,1485399.142155,1485399.2068549,1485399.9815891,1485400.7632755,NaN,NaN
120,27,3,categorization,0,bathroom,SHINEd_sun_aunuadmjocsddsrl.tif,52,0.0666666666666667,0.0666666666666667,1.65,1485400.7700146,1485401.4273717,74,1485400.8409437,1485400.905854,1485401.4328337,1485403.0811721,NaN,NaN
120,28,3,categorization,0,bathroom,SHINEd_sun_ahijqszoswveeyji.tif,28,0.0666666666666667,0.0666666666666667,1.86666666666667,1485403.0871186,1485403.8054044,74,1485403.1579639,1485403.2221146,1485403.8109693,1485405.6759742,NaN,NaN
120,29,3,categorization,0,kitchen,SHINEd_sun_aunzlwrbjumxhwdj.tif,102,0.0666666666666667,0.0666666666666667,1.23333333333333,1485405.6831544,1485406.5196316,70,1485405.7538329,1485405.819139,1485406.5255037,1485407.7571735,NaN,NaN
120,30,3,categorization,0,bathroom,SHINEd_sun_abjtwfukuwddzted.tif,15,0.0666666666666667,0.0666666666666667,0.7,1485407.763256,1485408.4875936,74,1485407.8342833,1485407.8992204,1485408.4939134,1485409.1922499,NaN,NaN
120,31,3,categorization,0,bathroom,SHINEd_sun_asfwthctfqerjvxr.tif,49,0.0666666666666667,0.0666666666666667,0.716666666666667,1485409.1979582,1485409.8564382,74,1485409.2700445,1485409.3329854,1485409.8621718,1485410.5771762,NaN,NaN
120,32,3,categorization,0,kitchen,SHINEd_sun_abdxkyyxwfskuaqb.tif,70,0.0666666666666667,0.0666666666666667,1.05,1485410.5830853,1485411.3622516,74,1485410.6536839,1485410.7182666,1485411.3676796,1485412.4160181,NaN,NaN
120,33,3,categorization,0,bathroom,SHINEd_sun_aofnryafpsjimzsb.tif,40,0.0666666666666667,0.0666666666666667,1.1,1485412.4214987,1485413.2101593,74,1485412.4922999,1485412.5566796,1485413.2157872,1485414.314124,NaN,NaN
120,34,3,categorization,0,bathroom,SHINEd_sun_akiytfaagpdsphgz.tif,31,0.0666666666666667,0.0666666666666667,1.13333333333333,1485414.3205022,1485414.9232524,74,1485414.3926104,1485414.456256,1485414.9287771,1485416.0604474,NaN,NaN
120,35,3,categorization,0,bathroom,SHINEd_sun_amzlamotzwfkwjco.tif,37,0.0666666666666667,0.0666666666666667,1.38333333333333,1485416.0668925,1485417.0347693,70,1485416.1377482,1485416.2020608,1485417.0398924,1485418.4215629,NaN,NaN
120,36,3,categorization,0,kitchen,SHINEd_sun_acxkpeoqbwcxfvip.tif,77,0.0666666666666667,0.0666666666666667,1.5,1485418.4290603,1485419.3317919,70,1485418.4997447,1485418.5648614,1485419.3376358,1485420.8359732,NaN,NaN
120,37,3,categorization,0,bathroom,SHINEd_sun_aljolscmmzydegqp.tif,33,0.0666666666666667,0.0666666666666667,1.61666666666667,1485420.8421564,1485421.5849497,74,1485420.9143121,1485420.9774013,1485421.590973,1485423.2059776,NaN,NaN
120,38,3,categorization,0,kitchen,SHINEd_sun_aexklacwqwezaorf.tif,84,0.0666666666666667,0.0666666666666667,0.983333333333333,1485423.2116908,1485424.0612513,70,1485423.2823131,1485423.3469562,1485424.0665244,1485425.0481954,NaN,NaN
120,39,3,categorization,0,bathroom,SHINEd_sun_agyqfjcfkdcydepw.tif,25,0.0666666666666667,0.0666666666666667,1.3,1485425.0539706,1485425.9772742,74,1485425.1248712,1485425.1893046,1485425.9833733,1485427.2817116,NaN,NaN
120,40,3,categorization,0,bathroom,SHINEd_labelme_sfxiulhjbhlyiyt.tif,11,0.0666666666666667,0.0666666666666667,1.03333333333333,1485427.2877072,1485427.9610683,74,1485427.3584164,1485427.4229842,1485427.9671843,1485428.9988564,NaN,NaN
120,41,3,categorization,0,bathroom,SHINEd_sun_agguqiubmwhqqunb.tif,22,0.0666666666666667,0.0666666666666667,1.45,1485429.0055107,1485429.6846099,74,1485429.0764288,1485429.1407156,1485429.6901837,1485431.1385218,NaN,NaN
120,42,3,categorization,0,bathroom,SHINEd_sun_aqrpegblszgcoujh.tif,48,0.0666666666666667,0.0666666666666667,1.23333333333333,1485431.1444874,1485431.8602186,74,1485431.215419,1485431.2799822,1485431.8658367,1485433.0975091,NaN,NaN
120,43,3,categorization,0,kitchen,SHINEd_labelme_brsyyvweiuaazfr.tif,61,0.0666666666666667,0.0666666666666667,1.26666666666667,1485433.1038863,1485434.1182668,70,1485433.1748277,1485433.2390587,1485434.1236115,1485435.3886147,NaN,NaN
120,44,3,categorization,0,bathroom,SHINEd_sun_aggnnqpdorgxpvce.tif,21,0.0666666666666667,0.0666666666666667,1.03333333333333,1485435.3950518,1485436.0670926,74,1485435.4657509,1485435.5313091,1485436.0724867,1485437.1041584,NaN,NaN
120,45,3,categorization,0,kitchen,SHINEd_sun_agorklincwxrdtga.tif,87,0.0666666666666667,0.0666666666666667,1.31666666666667,1485437.1106302,1485437.9531985,70,1485437.1817216,1485437.245723,1485437.9591325,1485439.2741359,NaN,NaN
120,46,3,categorization,0,kitchen,SHINEd_sun_avszsnwsbuqfgzbn.tif,104,0.0666666666666667,0.0666666666666667,1.7,1485439.2806874,1485440.0183586,70,1485439.3515415,1485439.4170555,1485440.0241798,1485441.7225173,NaN,NaN
120,47,3,categorization,0,kitchen,SHINEd_sun_auticobqsbwgoppi.tif,103,0.0666666666666667,0.0666666666666667,1.35,1485441.728131,1485442.5094509,70,1485441.7991214,1485441.8649571,1485442.5155387,1485443.8638754,NaN,NaN
120,48,3,categorization,0,kitchen,SHINEd_sun_aeqdocilnnpuvuhx.tif,83,0.0666666666666667,0.0666666666666667,0.8,1485443.8702076,1485444.5785895,70,1485443.9430105,1485444.0059492,1485444.5839833,1485445.3823221,NaN,NaN
120,49,3,categorization,0,kitchen,SHINEd_sun_azmutvzbxypaceni.tif,110,0.0666666666666667,0.0666666666666667,0.766666666666667,1485445.3886959,1485446.1169964,70,1485445.4609993,1485445.5253507,1485446.1231541,1485446.8883176,NaN,NaN
120,50,3,categorization,0,kitchen,SHINEd_sun_agzzivivdpnawacl.tif,89,0.0666666666666667,0.0666666666666667,1.38333333333333,1485446.8949282,1485447.7081894,70,1485446.9663361,1485447.0306258,1485447.7137068,1485449.0953774,NaN,NaN
120,1,4,categorization,0,kitchen,SHINEd_sun_amjjdeyrggfqgmom.tif,99,0.0666666666666667,0.0666666666666667,1,1485521.7681232,1485522.6909837,74,1485521.8392783,1485521.9031511,1485522.6968111,1485523.6951478,NaN,NaN
120,2,4,categorization,0,bathroom,SHINEd_sun_avhrdrntsqrjzccq.tif,55,0.0666666666666667,0.0666666666666667,0.966666666666667,1485523.7025228,1485524.5290165,70,1485523.7740999,1485523.8376861,1485524.5342014,1485525.4992049,NaN,NaN
120,3,4,categorization,0,kitchen,SHINEd_sun_aymvwlarqodbwuoc.tif,107,0.0666666666666667,0.0666666666666667,1.75,1485525.505749,1485526.4171045,74,1485525.5770416,1485525.6411613,1485526.422573,1485528.1709113,NaN,NaN
120,4,4,categorization,0,bathroom,SHINEd_sun_apeeialkgkuxddgh.tif,42,0.0666666666666667,0.0666666666666667,1.68333333333333,1485528.1770678,1485528.8944031,70,1485528.2494539,1485528.3121252,1485528.8998809,1485530.5815511,NaN,NaN
120,5,4,categorization,0,kitchen,SHINEd_sun_ahpczsiumwwocjkv.tif,92,0.0666666666666667,0.0666666666666667,1.58333333333333,1485530.5877161,1485531.2082907,70,1485530.6585833,1485530.7231512,1485531.2138268,1485532.795497,NaN,NaN
120,6,4,categorization,0,kitchen,SHINEd_sun_ajcbwwvdlsvjyzje.tif,95,0.0666666666666667,0.0666666666666667,1,1485532.8015536,1485533.7574004,70,1485532.8725779,1485532.9370909,1485533.7630023,1485534.7613392,NaN,NaN
120,7,4,categorization,0,kitchen,SHINEd_sun_ayqymgxqhxxiykiw.tif,109,0.0666666666666667,0.0666666666666667,1.33333333333333,1485534.7687259,1485535.6704785,70,1485534.841207,1485534.904745,1485535.6759039,1485537.007576,NaN,NaN
120,8,4,categorization,0,bathroom,SHINEd_sun_aghyqhbptboemmoq.tif,23,0.0666666666666667,0.0666666666666667,1.26666666666667,1485537.0142497,1485537.7450481,74,1485537.0855665,1485537.1496683,1485537.7504701,1485539.0154748,NaN,NaN
120,9,4,categorization,0,kitchen,SHINEd_sun_abrcnpqqhmjwekyf.tif,73,0.0666666666666667,0.0666666666666667,0.883333333333333,1485539.021809,1485540.2032821,70,1485539.0926191,1485539.1571195,1485540.2098346,1485541.0915054,NaN,NaN
120,10,4,categorization,0,bathroom,SHINEd_sun_aspsyogrekjtfozg.tif,50,0.0666666666666667,0.0666666666666667,1.26666666666667,1485541.0973785,1485541.7610483,74,1485541.1686174,1485541.2327025,1485541.7665419,1485543.0315456,NaN,NaN
120,11,4,categorization,0,bathroom,SHINEd_sun_anhioqovhscjqqwb.tif,38,0.0666666666666667,0.0666666666666667,2,1485543.03751,1485543.7211377,74,1485543.108826,1485543.1729749,1485543.7270809,1485545.7254195,NaN,NaN
120,12,4,categorization,0,kitchen,SHINEd_labelme_kxvouciolcpqplr.tif,62,0.0666666666666667,0.0666666666666667,0.733333333333333,1485545.7320673,1485546.5816385,70,1485545.8027701,1485545.867187,1485546.5871163,1485547.3187872,NaN,NaN
120,13,4,categorization,0,bathroom,SHINEd_sun_azqyogdvyhahyram.tif,60,0.0666666666666667,0.0666666666666667,0.883333333333333,1485547.3247276,1485547.9848253,74,1485547.3958295,1485547.4599806,1485547.9900827,1485548.8717537,NaN,NaN
120,14,4,categorization,0,kitchen,SHINEd_sun_abpwyqmlzafvklqo.tif,72,0.0666666666666667,0.0666666666666667,0.983333333333333,1485548.8778127,1485549.6666711,70,1485548.9491065,1485549.0140618,1485549.672804,1485550.654476,NaN,NaN
120,15,4,categorization,0,bathroom,SHINEd_sun_ambriybtogmepttm.tif,36,0.0666666666666667,0.0666666666666667,1.56666666666667,1485550.6610811,1485551.4542671,74,1485550.7322468,1485550.7965505,1485551.4607482,1485553.0257681,NaN,NaN
120,16,4,categorization,0,kitchen,SHINEd_sun_ahljzhgcdpomplvg.tif,91,0.0666666666666667,0.0666666666666667,1.08333333333333,1485553.0325543,1485553.8086153,70,1485553.1035067,1485553.1679829,1485553.8141632,1485554.8958356,NaN,NaN
120,17,4,categorization,0,bathroom,SHINEd_sun_aavhrsfjbserjtht.tif,13,0.0666666666666667,0.0666666666666667,0.75,1485554.9019905,1485555.6602048,70,1485554.9727685,1485555.0382722,1485555.6656741,1485556.4140118,NaN,NaN
120,18,4,categorization,0,kitchen,SHINEd_sun_ahspylgoovwmwvgk.tif,93,0.0666666666666667,0.0666666666666667,0.966666666666667,1485556.4201676,1485557.1556335,70,1485556.4908583,1485556.5559447,1485557.1610947,1485558.1260982,NaN,NaN
120,19,4,categorization,0,kitchen,SHINEd_sun_aegoxogugdkwpmpj.tif,80,0.0666666666666667,0.0666666666666667,1.63333333333333,1485558.1323978,1485558.8509242,70,1485558.2033359,1485558.2675839,1485558.8574589,1485560.4891298,NaN,NaN
120,20,4,categorization,0,kitchen,SHINEd_sun_auaiucuqpdausiva.tif,101,0.0666666666666667,0.0666666666666667,1.46666666666667,1485560.4956649,1485561.2771379,70,1485560.5669539,1485560.630849,1485561.2829665,1485562.7479704,NaN,NaN
120,21,4,categorization,0,bathroom,SHINEd_sun_apynckhmoftszqoq.tif,47,0.0666666666666667,0.0666666666666667,0.933333333333333,1485562.7540143,1485563.4485118,74,1485562.8252733,1485562.8892382,1485563.4540662,1485564.3857377,NaN,NaN
120,22,4,categorization,0,bathroom,SHINEd_sun_acegryoqftbzowsg.tif,17,0.0666666666666667,0.0666666666666667,1.45,1485564.3920399,1485565.1983144,74,1485564.4625219,1485564.5272457,1485565.2044364,1485566.652774,NaN,NaN
120,23,4,categorization,0,bathroom,SHINEd_sun_afcoljnjfoxjtgja.tif,20,0.0666666666666667,0.0666666666666667,0.966666666666667,1485566.6590817,1485567.4911854,74,1485566.730235,1485566.7943604,1485567.4965019,1485568.461505,NaN,NaN
120,24,4,categorization,0,kitchen,SHINEd_sun_ahywdevtimnqcsln.tif,94,0.0666666666666667,0.0666666666666667,0.816666666666667,1485568.4671718,1485569.301666,70,1485568.5379972,1485568.6026069,1485569.3071278,1485570.1221329,NaN,NaN
120,25,4,categorization,0,bathroom,SHINEd_sun_auzqhkafidnkrwmo.tif,54,0.0666666666666667,0.0666666666666667,1.96666666666667,1485570.1279047,1485570.9447573,74,1485570.1996843,1485570.2628424,1485570.9506867,1485572.915693,NaN,NaN
120,26,4,categorization,0,bathroom,SHINEd_sun_aoybiabnpadelefl.tif,41,0.0666666666666667,0.0666666666666667,0.916666666666667,1485572.9221756,1485574.212973,74,1485572.9929813,1485573.0584737,1485574.2192008,1485575.1342061,NaN,NaN
120,27,4,categorization,0,kitchen,SHINEd_sun_admlmbcdswaszruo.tif,79,0.0666666666666667,0.0666666666666667,1.28333333333333,1485575.1408404,1485575.850702,70,1485575.2134672,1485575.2771351,1485575.8566289,1485577.1382999,NaN,NaN
120,28,4,categorization,0,bathroom,SHINEd_sun_axyrejkiiaqiurjk.tif,59,0.0666666666666667,0.0666666666666667,1.8,1485577.1448853,1485577.8893447,74,1485577.2172076,1485577.2807863,1485577.8944742,1485579.6928126,NaN,NaN
120,29,4,categorization,0,bathroom,SHINEd_sun_aleqenyvunhactkl.tif,32,0.0666666666666667,0.0666666666666667,1.33333333333333,1485579.6989058,1485580.4493738,74,1485579.7695517,1485579.8344726,1485580.4547628,1485581.786435,NaN,NaN
120,30,4,categorization,0,bathroom,SHINEd_sun_alkosphxlxwjwgjd.tif,34,0.0666666666666667,0.0666666666666667,1.06666666666667,1485581.7930091,1485582.4418251,74,1485581.864301,1485581.9284256,1485582.4479798,1485583.5129845,NaN,NaN
120,31,4,categorization,0,kitchen,SHINEd_sun_axyyrmzcupyhlivc.tif,106,0.0666666666666667,0.0666666666666667,1.03333333333333,1485583.519164,1485584.2807102,70,1485583.590567,1485583.6544154,1485584.2861299,1485585.3178009,NaN,NaN
120,32,4,categorization,0,kitchen,SHINEd_sun_aapllqyqlykszopd.tif,66,0.0666666666666667,0.0666666666666667,0.733333333333333,1485585.3239506,1485586.2006919,70,1485585.3946816,1485585.4587733,1485586.2062193,1485586.9378895,NaN,NaN
120,33,4,categorization,0,kitchen,SHINEd_sun_ajkqhtgcbgpcwrwn.tif,96,0.0666666666666667,0.0666666666666667,0.766666666666667,1485586.9436625,1485587.8255221,70,1485587.0146376,1485587.0786888,1485587.831656,1485588.5966594,NaN,NaN
120,34,4,categorization,0,bathroom,SHINEd_sun_apkxzenqapsujocq.tif,45,0.0666666666666667,0.0666666666666667,1.1,1485588.6027488,1485589.3239723,74,1485588.6737251,1485588.7381978,1485589.3299313,1485590.4282688,NaN,NaN
120,35,4,categorization,0,kitchen,SHINEd_sun_ahdycvpopffkzzsu.tif,90,0.0666666666666667,0.0666666666666667,1.81666666666667,1485590.435558,1485591.1718042,70,1485590.5069586,1485590.5722886,1485591.1778928,1485592.9928979,NaN,NaN
120,36,4,categorization,0,kitchen,SHINEd_sun_agubuxuukhzyzpdp.tif,88,0.0666666666666667,0.0666666666666667,0.883333333333333,1485592.9993358,1485593.9724497,70,1485593.0704111,1485593.1347519,1485593.97825,1485594.8599221,NaN,NaN
120,37,4,categorization,0,kitchen,SHINEd_sun_abftihopvusyfakt.tif,71,0.0666666666666667,0.0666666666666667,1.7,1485594.8661312,1485595.6195411,70,1485594.937211,1485595.0014624,1485595.6246451,1485597.3229824,NaN,NaN
120,38,4,categorization,0,bathroom,SHINEd_sun_aclfzgynxzxlbepz.tif,19,0.0666666666666667,0.0666666666666667,1.58333333333333,1485597.3288545,1485598.0752628,74,1485597.3997947,1485597.4643447,1485598.0818222,1485599.6634924,NaN,NaN
120,39,4,categorization,0,kitchen,SHINEd_labelme_rykdqxenmhulbdn.tif,63,0.0666666666666667,0.0666666666666667,0.833333333333333,1485599.6702055,1485600.493061,70,1485599.74147,1485599.8055339,1485600.4993872,1485601.3310572,NaN,NaN
120,40,4,categorization,0,bathroom,SHINEd_sun_atstyziqcmkahyxk.tif,51,0.0666666666666667,0.0666666666666667,0.95,1485601.337253,1485602.0499675,74,1485601.4082434,1485601.4727469,1485602.0562307,1485603.0045685,NaN,NaN
120,41,4,categorization,0,bathroom,SHINEd_sun_apjevzvycyhuqghb.tif,43,0.0666666666666667,0.0666666666666667,1.06666666666667,1485603.0105425,1485603.8096113,70,1485603.0810709,1485603.146716,1485603.814823,1485604.8798263,NaN,NaN
120,42,4,categorization,0,bathroom,SHINEd_sun_ajlawzvmubibwbpy.tif,30,0.0666666666666667,0.0666666666666667,1.68333333333333,1485604.8858258,1485605.9562864,70,1485604.9570335,1485605.0213115,1485605.9626503,1485607.6443224,NaN,NaN
120,43,4,categorization,0,bathroom,SHINEd_sun_axxbkopsgyouuebh.tif,58,0.0666666666666667,0.0666666666666667,1.31666666666667,1485607.6506693,1485608.3804256,74,1485607.7222813,1485607.7859031,1485608.3857016,1485609.700707,NaN,NaN
120,44,4,categorization,0,kitchen,SHINEd_sun_aehawpgmrlhlvcow.tif,81,0.0666666666666667,0.0666666666666667,1.61666666666667,1485609.7067444,1485610.4193954,70,1485609.7784921,1485609.8423306,1485610.4253494,1485612.0403538,NaN,NaN
120,45,4,categorization,0,kitchen,SHINEd_sun_acgtpgfybqjmzeyw.tif,75,0.0666666666666667,0.0666666666666667,1.15,1485612.0472896,1485612.7515523,70,1485612.1195792,1485612.1827172,1485612.7568896,1485613.9052277,NaN,NaN
120,46,4,categorization,0,bathroom,SHINEd_sun_ahaulkltgpkeeemi.tif,26,0.0666666666666667,0.0666666666666667,1.25,1485613.9115664,1485615.7613525,74,1485613.9823184,1485614.0469427,1485615.7668049,1485617.0151425,NaN,NaN
120,47,4,categorization,0,kitchen,SHINEd_sun_awcpdzzznmweyyhv.tif,105,0.0666666666666667,0.0666666666666667,1.1,1485617.0214389,1485619.6309355,70,1485617.0931284,1485617.15801,1485619.6377891,1485620.7361264,NaN,NaN
120,48,4,categorization,0,bathroom,SHINEd_sun_awnqiikzaispgmwo.tif,56,0.0666666666666667,0.0666666666666667,0.9,1485620.7421491,1485621.4988924,74,1485620.8132528,1485620.877468,1485621.5054836,1485622.4038218,NaN,NaN
120,49,4,categorization,0,kitchen,SHINEd_sun_aadbddgrdsjugojn.tif,64,0.0666666666666667,0.0666666666666667,1.3,1485622.4094352,1485623.2082559,70,1485622.4802684,1485622.5446012,1485623.2142664,1485624.5126047,NaN,NaN
120,50,4,categorization,0,bathroom,SHINEd_sun_alotolagknyrgtsk.tif,35,0.0666666666666667,0.0666666666666667,1.25,1485624.5187256,1485625.2121874,70,1485624.5895402,1485624.6544544,1485625.2183479,1485626.4666861,NaN,NaN
120,1,5,categorization,0,bathroom,SHINEd_sun_auzqhkafidnkrwmo.tif,54,0.0666666666666667,0.0666666666666667,1.7,1485630.839396,1485631.5481309,74,1485630.910203,1485630.9744871,1485631.5535404,1485633.2518785,NaN,NaN
120,2,5,categorization,0,bathroom,SHINEd_sun_apkruvsevgegsdwp.tif,44,0.0666666666666667,0.0666666666666667,1.81666666666667,1485633.2596108,1485634.1726687,74,1485633.3308969,1485633.3961671,1485634.1783003,1485635.9933039,NaN,NaN
120,3,5,categorization,0,kitchen,SHINEd_labelme_rykdqxenmhulbdn.tif,63,0.0666666666666667,0.0666666666666667,1.23333333333333,1485636.0005657,1485636.152164,70,1485636.0719974,1485636.1371087,1485636.1630967,1485637.394767,NaN,NaN
120,4,5,categorization,0,bathroom,SHINEd_sun_alkosphxlxwjwgjd.tif,34,0.0666666666666667,0.0666666666666667,1.4,1485637.4006349,1485638.2127409,74,1485637.4712788,1485637.5357108,1485638.2186292,1485639.6169681,NaN,NaN
120,5,5,categorization,0,kitchen,SHINEd_sun_agzzivivdpnawacl.tif,89,0.0666666666666667,0.0666666666666667,1.03333333333333,1485639.6233476,1485640.2782025,74,1485639.6948471,1485639.7585644,1485640.2844155,1485641.3160871,NaN,NaN
120,6,5,categorization,0,bathroom,SHINEd_sun_axldvoqbuvuggfmq.tif,57,0.0666666666666667,0.0666666666666667,1.38333333333333,1485641.3225937,1485642.0093623,74,1485641.3951136,1485641.4580122,1485642.0153856,1485643.3970561,NaN,NaN
120,7,5,categorization,0,kitchen,SHINEd_sun_abdenxonkemggwsq.tif,69,0.0666666666666667,0.0666666666666667,2,1485643.4048533,1485644.0623699,70,1485643.4756208,1485643.5402732,1485644.0676511,1485646.0659888,NaN,NaN
120,8,5,categorization,0,bathroom,SHINEd_sun_aggnnqpdorgxpvce.tif,21,0.0666666666666667,0.0666666666666667,1.85,1485646.0718688,1485646.8072865,74,1485646.1433286,1485646.2085168,1485646.813294,1485648.6616325,NaN,NaN
120,9,5,categorization,0,bathroom,SHINEd_sun_axxbkopsgyouuebh.tif,58,0.0666666666666667,0.0666666666666667,0.816666666666667,1485648.6678121,1485649.2934906,74,1485648.7386881,1485648.8028282,1485649.2989853,1485650.1139894,NaN,NaN
120,10,5,categorization,0,kitchen,SHINEd_sun_ayqymgxqhxxiykiw.tif,109,0.0666666666666667,0.0666666666666667,1.85,1485650.120135,1485650.7673316,70,1485650.1912069,1485650.2557451,1485650.7727684,1485652.6211066,NaN,NaN
120,11,5,categorization,0,bathroom,SHINEd_sun_acgyywnybuveqsro.tif,18,0.0666666666666667,0.0666666666666667,0.733333333333333,1485652.6271006,1485653.2315139,74,1485652.6986169,1485652.764247,1485653.2378502,1485653.9695215,NaN,NaN
120,12,5,categorization,0,kitchen,SHINEd_sun_ahspylgoovwmwvgk.tif,93,0.0666666666666667,0.0666666666666667,0.716666666666667,1485653.9754354,1485654.6447669,70,1485654.046171,1485654.1106355,1485654.6501776,1485655.3651819,NaN,NaN
120,13,5,categorization,0,bathroom,SHINEd_sun_aunuadmjocsddsrl.tif,52,0.0666666666666667,0.0666666666666667,0.833333333333333,1485655.3710485,1485656.046551,74,1485655.4417412,1485655.5068757,1485656.0527912,1485656.8844626,NaN,NaN
120,14,5,categorization,0,bathroom,SHINEd_sun_ahijqszoswveeyji.tif,28,0.0666666666666667,0.0666666666666667,0.95,1485656.8903007,1485657.6113892,74,1485656.961027,1485657.0253878,1485657.6176797,1485658.5660178,NaN,NaN
120,15,5,categorization,0,bathroom,SHINEd_sun_ahcvzmoyaycdoftf.tif,27,0.0666666666666667,0.0666666666666667,1.96666666666667,1485658.5722347,1485659.1401142,74,1485658.643112,1485658.7091628,1485659.1461547,1485661.1111581,NaN,NaN
120,16,5,categorization,0,kitchen,SHINEd_sun_aggjlwcdjsjcaemh.tif,86,0.0666666666666667,0.0666666666666667,1.86666666666667,1485661.117296,1485661.7709471,70,1485661.1885736,1485661.2527162,1485661.776446,1485663.6414494,NaN,NaN
120,17,5,categorization,0,bathroom,SHINEd_sun_avhrdrntsqrjzccq.tif,55,0.0666666666666667,0.0666666666666667,1.51666666666667,1485663.647377,1485664.6812758,74,1485663.7181442,1485663.7828545,1485664.6875322,1485666.2025376,NaN,NaN
120,18,5,categorization,0,bathroom,SHINEd_sun_acegryoqftbzowsg.tif,17,0.0666666666666667,0.0666666666666667,1.3,1485666.2093845,1485667.0166243,74,1485666.2801122,1485666.3451544,1485667.0227165,1485668.3210639,NaN,NaN
120,19,5,categorization,0,bathroom,SHINEd_sun_aspsyogrekjtfozg.tif,50,0.0666666666666667,0.0666666666666667,1.91666666666667,1485668.3272831,1485668.9416566,74,1485668.3981363,1485668.4624812,1485668.9474236,1485670.8624269,NaN,NaN
120,20,5,categorization,0,bathroom,SHINEd_sun_agguqiubmwhqqunb.tif,22,0.0666666666666667,0.0666666666666667,1.23333333333333,1485670.8688629,1485671.7167233,74,1485670.9407785,1485671.0061003,1485671.7220456,1485672.9537158,NaN,NaN
120,21,5,categorization,0,bathroom,SHINEd_sun_aofnryafpsjimzsb.tif,40,0.0666666666666667,0.0666666666666667,0.866666666666667,1485672.9601311,1485673.5568053,74,1485673.0311405,1485673.0954654,1485673.5629077,1485674.4279116,NaN,NaN
120,22,5,categorization,0,kitchen,SHINEd_sun_ahpczsiumwwocjkv.tif,92,0.0666666666666667,0.0666666666666667,0.8,1485674.4339965,1485675.1900315,74,1485674.5050588,1485674.5694341,1485675.1956296,1485675.9939672,NaN,NaN
120,23,5,categorization,0,kitchen,SHINEd_sun_aypmqwcualkenuoe.tif,108,0.0666666666666667,0.0666666666666667,1.51666666666667,1485675.9999255,1485676.8220125,70,1485676.0706812,1485676.1351076,1485676.8281698,1485678.3431747,NaN,NaN
120,24,5,categorization,0,kitchen,SHINEd_sun_aunzlwrbjumxhwdj.tif,102,0.0666666666666667,0.0666666666666667,1.18333333333333,1485678.3493472,1485679.1781449,70,1485678.420111,1485678.4859709,1485679.1841221,1485680.3657933,NaN,NaN
120,25,5,categorization,0,kitchen,SHINEd_sun_amjjdeyrggfqgmom.tif,99,0.0666666666666667,0.0666666666666667,1.6,1485680.3719202,1485681.079272,70,1485680.4439398,1485680.5076584,1485681.0848309,1485682.68317,NaN,NaN
120,26,5,categorization,0,kitchen,SHINEd_sun_azmutvzbxypaceni.tif,110,0.0666666666666667,0.0666666666666667,1.56666666666667,1485682.690885,1485683.3601554,70,1485682.762233,1485682.8263346,1485683.3664871,1485684.9314907,NaN,NaN
120,27,5,categorization,0,kitchen,SHINEd_sun_akcjzhbbjlbogpdi.tif,98,0.0666666666666667,0.0666666666666667,1.36666666666667,1485684.9388132,1485685.6937587,70,1485685.0109179,1485685.0741172,1485685.6998277,1485687.0648326,NaN,NaN
120,28,5,categorization,0,kitchen,SHINEd_sun_acgtpgfybqjmzeyw.tif,75,0.0666666666666667,0.0666666666666667,1.53333333333333,1485687.0714296,1485687.707517,70,1485687.1422666,1485687.2071012,1485687.713128,1485689.2447979,NaN,NaN
120,29,5,categorization,0,kitchen,SHINEd_sun_akchetnepxlcxhsu.tif,97,0.0666666666666667,0.0666666666666667,1.4,1485689.2507793,1485689.888121,74,1485689.3215037,1485689.3861477,1485689.8938282,1485691.2921658,NaN,NaN
120,30,5,categorization,0,kitchen,SHINEd_labelme_kxvouciolcpqplr.tif,62,0.0666666666666667,0.0666666666666667,1.06666666666667,1485691.2990682,1485691.9769299,70,1485691.3700529,1485691.4343581,1485691.9833241,1485693.0483307,NaN,NaN
120,31,5,categorization,0,bathroom,SHINEd_sun_apjevzvycyhuqghb.tif,43,0.0666666666666667,0.0666666666666667,1.63333333333333,1485693.0560316,1485694.1827662,70,1485693.1273051,1485693.1923077,1485694.1881094,1485695.8197817,NaN,NaN
120,32,5,categorization,0,bathroom,SHINEd_sun_apkxzenqapsujocq.tif,45,0.0666666666666667,0.0666666666666667,1.8,1485695.8276446,1485696.4895437,74,1485695.8983518,1485695.9624752,1485696.495573,1485698.2939095,NaN,NaN
120,33,5,categorization,0,bathroom,SHINEd_sun_apmqjbnwghzuhhzh.tif,46,0.0666666666666667,0.0666666666666667,1.53333333333333,1485698.2997795,1485699.0308142,74,1485698.3706975,1485698.4352942,1485699.0362174,1485700.5678886,NaN,NaN
120,34,5,categorization,0,bathroom,SHINEd_sun_aleqenyvunhactkl.tif,32,0.0666666666666667,0.0666666666666667,0.766666666666667,1485700.5737641,1485701.1914581,74,1485700.6446853,1485700.7087847,1485701.1978297,1485701.9628345,NaN,NaN
120,35,5,categorization,0,bathroom,SHINEd_sun_akiytfaagpdsphgz.tif,31,0.0666666666666667,0.0666666666666667,1.86666666666667,1485701.9690354,1485702.7506543,74,1485702.0398454,1485702.104087,1485702.7561161,1485704.6211196,NaN,NaN
120,36,5,categorization,0,bathroom,SHINEd_sun_aqrpegblszgcoujh.tif,48,0.0666666666666667,0.0666666666666667,1.13333333333333,1485704.6271265,1485705.2028361,74,1485704.698649,1485704.7621682,1485705.2082085,1485706.3398783,NaN,NaN
120,37,5,categorization,0,kitchen,SHINEd_sun_auticobqsbwgoppi.tif,103,0.0666666666666667,0.0666666666666667,1.73333333333333,1485706.3461147,1485707.0430757,70,1485706.4174615,1485706.4814805,1485707.048949,1485708.7806213,NaN,NaN
120,38,5,categorization,0,bathroom,SHINEd_sun_amzlamotzwfkwjco.tif,37,0.0666666666666667,0.0666666666666667,0.766666666666667,1485708.7865856,1485709.7060077,74,1485708.8579059,1485708.9227866,1485709.7120964,1485710.4771013,NaN,NaN
120,39,5,categorization,0,bathroom,SHINEd_sun_azqyogdvyhahyram.tif,60,0.0666666666666667,0.0666666666666667,1.85,1485710.4829991,1485711.1034506,74,1485710.5542524,1485710.6184403,1485711.1092008,1485712.9575391,NaN,NaN
120,40,5,categorization,0,bathroom,SHINEd_labelme_sfxiulhjbhlyiyt.tif,11,0.0666666666666667,0.0666666666666667,0.966666666666667,1485712.9632453,1485713.5807427,73,1485713.0345281,1485713.0980995,1485714.623854,1485715.5888573,NaN,NaN
120,41,5,categorization,0,bathroom,SHINEd_sun_awnqiikzaispgmwo.tif,56,0.0666666666666667,0.0666666666666667,1.06666666666667,1485715.5952072,1485716.3349703,74,1485715.6661223,1485715.7304178,1485716.3406771,1485717.4056812,NaN,NaN
120,42,5,categorization,0,kitchen,SHINEd_sun_abftihopvusyfakt.tif,71,0.0666666666666667,0.0666666666666667,1.38333333333333,1485717.4118145,1485718.1427032,70,1485717.4825759,1485717.5469789,1485718.1490191,1485719.5306911,NaN,NaN
120,43,5,categorization,0,kitchen,SHINEd_sun_awcpdzzznmweyyhv.tif,105,0.0666666666666667,0.0666666666666667,0.766666666666667,1485719.5365033,1485720.3610689,70,1485719.6078859,1485719.6720196,1485720.3674995,1485721.1325079,NaN,NaN
120,44,5,categorization,0,bathroom,SHINEd_sun_ajlawzvmubibwbpy.tif,30,0.0666666666666667,0.0666666666666667,0.866666666666667,1485721.1384297,1485721.9842938,70,1485721.2093555,1485721.2737384,1485721.9897162,1485722.8547198,NaN,NaN
120,45,5,categorization,0,bathroom,SHINEd_sun_aavhrsfjbserjtht.tif,13,0.0666666666666667,0.0666666666666667,1.25,1485722.8610753,1485723.526362,74,1485722.9320601,1485722.997136,1485723.5318724,1485724.7802096,NaN,NaN
120,46,5,categorization,0,kitchen,SHINEd_sun_avszsnwsbuqfgzbn.tif,104,0.0666666666666667,0.0666666666666667,1.03333333333333,1485724.7863663,1485725.4424914,70,1485724.8571937,1485724.9208789,1485725.4485128,1485726.4801837,NaN,NaN
120,47,5,categorization,0,kitchen,SHINEd_sun_agubuxuukhzyzpdp.tif,88,0.0666666666666667,0.0666666666666667,0.783333333333333,1485726.4859642,1485727.1575135,70,1485726.5576313,1485726.6214051,1485727.1630137,1485727.944686,NaN,NaN
120,48,5,categorization,0,bathroom,SHINEd_sun_abapwbhyhkfixyex.tif,14,0.0666666666666667,0.0666666666666667,0.7,1485727.9508508,1485728.5764359,74,1485728.0218944,1485728.0861117,1485728.5824444,1485729.2807814,NaN,NaN
120,49,5,categorization,0,bathroom,SHINEd_sun_aapitsgbtktqubfy.tif,12,0.0666666666666667,0.0666666666666667,1.75,1485729.2865915,1485729.9259987,74,1485729.3573533,1485729.4216951,1485729.9323071,1485731.6806443,NaN,NaN
120,50,5,categorization,0,kitchen,SHINEd_sun_aadbddgrdsjugojn.tif,64,0.0666666666666667,0.0666666666666667,1.36666666666667,1485731.6870443,1485732.3817201,70,1485731.7580688,1485731.8226659,1485732.3880466,1485733.7530506,NaN,NaN
120,1,6,categorization,0,kitchen,SHINEd_sun_ajcbwwvdlsvjyzje.tif,95,0.0666666666666667,0.0666666666666667,0.966666666666667,1485740.7829816,1485741.5211019,70,1485740.8536277,1485740.9198762,1485741.5266139,1485742.4916181,NaN,NaN
120,2,6,categorization,0,kitchen,SHINEd_sun_aamedkxepzlwuxes.tif,65,0.0666666666666667,0.0666666666666667,1.73333333333333,1485742.497547,1485780.6657628,70,1485742.5682384,1485742.6326992,1485780.6723078,1485782.4039899,NaN,NaN
120,3,6,categorization,0,bathroom,SHINEd_sun_aghyqhbptboemmoq.tif,23,0.0666666666666667,0.0666666666666667,1.91666666666667,1485782.4103722,1485783.5206776,74,1485782.4810852,1485782.5458183,1485783.5264873,1485785.4414911,NaN,NaN
120,4,6,categorization,0,bathroom,SHINEd_sun_atstyziqcmkahyxk.tif,51,0.0666666666666667,0.0666666666666667,0.766666666666667,1485785.4480609,1485786.2268858,74,1485785.5193859,1485785.5838505,1485786.2327765,1485786.9977807,NaN,NaN
120,5,6,categorization,0,kitchen,SHINEd_sun_acwjdupvyjsugpay.tif,76,0.0666666666666667,0.0666666666666667,0.916666666666667,1485787.0036709,1485789.5166763,70,1485787.0756383,1485787.1391513,1485789.523062,1485790.4380667,NaN,NaN
120,6,6,categorization,0,kitchen,SHINEd_sun_ajkqhtgcbgpcwrwn.tif,96,0.0666666666666667,0.0666666666666667,1.18333333333333,1485790.444493,1485791.217312,70,1485790.5169436,1485790.5799506,1485791.2227647,1485792.4044368,NaN,NaN
120,7,6,categorization,0,kitchen,SHINEd_sun_aarfiyshqohlwkmo.tif,67,0.0666666666666667,0.0666666666666667,1.8,1485792.4106331,1485793.1950886,70,1485792.4814442,1485792.5462821,1485793.200607,1485794.9989449,NaN,NaN
120,8,6,categorization,0,kitchen,SHINEd_sun_ahdycvpopffkzzsu.tif,90,0.0666666666666667,0.0666666666666667,0.883333333333333,1485795.0050809,1485795.8498209,74,1485795.0763701,1485795.1420855,1485795.8549774,1485796.7366473,NaN,NaN
120,9,6,categorization,0,kitchen,SHINEd_sun_adgqasybjyktddhj.tif,78,0.0666666666666667,0.0666666666666667,1.83333333333333,1485796.7424517,1485797.3430574,70,1485796.8132077,1485796.8776934,1485797.3483571,1485799.180029,NaN,NaN
120,10,6,categorization,0,kitchen,SHINEd_sun_aaxxjlsuzvqlgylf.tif,68,0.0666666666666667,0.0666666666666667,1.76666666666667,1485799.1862641,1485799.9975101,70,1485799.257638,1485799.3215332,1485800.0029189,1485801.7679248,NaN,NaN
120,11,6,categorization,0,kitchen,SHINEd_sun_axyyrmzcupyhlivc.tif,106,0.0666666666666667,0.0666666666666667,0.983333333333333,1485801.7745287,1485802.4644288,70,1485801.845302,1485801.9109945,1485802.4697289,1485803.4514,NaN,NaN
120,12,6,categorization,0,bathroom,SHINEd_sun_agrwbmhcpmfuwmsg.tif,24,0.0666666666666667,0.0666666666666667,0.883333333333333,1485803.4573174,1485804.0579355,74,1485803.5293222,1485803.5931758,1485804.0634444,1485804.9451153,NaN,NaN
120,13,6,categorization,0,bathroom,SHINEd_sun_aclfzgynxzxlbepz.tif,19,0.0666666666666667,0.0666666666666667,0.85,1485804.951063,1485805.5668015,74,1485805.0234967,1485805.086514,1485805.5720366,1485806.4203891,NaN,NaN
120,14,6,categorization,0,kitchen,SHINEd_sun_aenotlpyftoioydp.tif,82,0.0666666666666667,0.0666666666666667,0.733333333333333,1485806.4281063,1485807.0834399,70,1485806.4988106,1485806.5640727,1485807.0895113,1485807.8211827,NaN,NaN
120,15,6,categorization,0,kitchen,SHINEd_sun_acfmftudsenhrfhy.tif,74,0.0666666666666667,0.0666666666666667,1.88333333333333,1485807.828095,1485808.5403393,70,1485807.89912,1485807.9633265,1485808.5462267,1485810.4278986,NaN,NaN
120,16,6,categorization,0,kitchen,SHINEd_sun_auaiucuqpdausiva.tif,101,0.0666666666666667,0.0666666666666667,0.816666666666667,1485810.4346058,1485811.6036693,70,1485810.5058022,1485810.5704423,1485811.6092953,1485812.4242993,NaN,NaN
120,17,6,categorization,0,kitchen,SHINEd_labelme_brsyyvweiuaazfr.tif,61,0.0666666666666667,0.0666666666666667,1.9,1485812.4305754,1485813.0863414,70,1485812.5016072,1485812.5658679,1485813.0918663,1485814.9902047,NaN,NaN
120,18,6,categorization,0,kitchen,SHINEd_sun_acxkpeoqbwcxfvip.tif,77,0.0666666666666667,0.0666666666666667,0.983333333333333,1485814.9962273,1485815.6815778,70,1485815.0669708,1485815.1328347,1485815.6877378,1485816.669487,NaN,NaN
120,19,6,categorization,0,bathroom,SHINEd_sun_anhioqovhscjqqwb.tif,38,0.0666666666666667,0.0666666666666667,0.75,1485816.6756626,1485817.2435185,74,1485816.74803,1485816.8114384,1485817.249708,1485817.9980454,NaN,NaN
120,20,6,categorization,0,bathroom,SHINEd_sun_apynckhmoftszqoq.tif,47,0.0666666666666667,0.0666666666666667,1.6,1485818.0040159,1485818.5633357,74,1485818.0749181,1485818.139296,1485818.5689557,1485820.1672942,NaN,NaN
120,21,6,categorization,0,kitchen,SHINEd_sun_ahywdevtimnqcsln.tif,94,0.0666666666666667,0.0666666666666667,1.58333333333333,1485820.173561,1485821.0127795,70,1485820.2449514,1485820.3088184,1485821.0183591,1485822.6000287,NaN,NaN
120,22,6,categorization,0,kitchen,SHINEd_sun_abrcnpqqhmjwekyf.tif,73,0.0666666666666667,0.0666666666666667,1.11666666666667,1485822.6061373,1485823.5102387,70,1485822.6772126,1485822.7415202,1485823.5153072,1485824.630311,NaN,NaN
120,23,6,categorization,0,kitchen,SHINEd_sun_abdxkyyxwfskuaqb.tif,70,0.0666666666666667,0.0666666666666667,1.53333333333333,1485824.6365356,1485825.4293406,70,1485824.7079606,1485824.7730006,1485825.4344357,1485826.9661061,NaN,NaN
120,24,6,categorization,0,kitchen,SHINEd_sun_afuyedyxivkhecmu.tif,85,0.0666666666666667,0.0666666666666667,1.48333333333333,1485826.9721743,1485827.793441,70,1485827.044423,1485827.1083685,1485827.7994195,1485829.2810896,NaN,NaN
120,25,6,categorization,0,bathroom,SHINEd_sun_apeeialkgkuxddgh.tif,42,0.0666666666666667,0.0666666666666667,1.1,1485829.287231,1485829.8757517,74,1485829.3583783,1485829.422607,1485829.8818593,1485830.9801976,NaN,NaN
120,26,6,categorization,0,bathroom,SHINEd_sun_alotolagknyrgtsk.tif,35,0.0666666666666667,0.0666666666666667,0.933333333333333,1485830.9860431,1485831.7815121,74,1485831.0567502,1485831.1213464,1485831.7867123,1485832.7183837,NaN,NaN
120,27,6,categorization,0,kitchen,SHINEd_sun_ahljzhgcdpomplvg.tif,91,0.0666666666666667,0.0666666666666667,0.816666666666667,1485832.7247835,1485833.5117205,70,1485832.7960115,1485832.8604919,1485833.5172755,1485834.3322805,NaN,NaN
120,28,6,categorization,0,bathroom,SHINEd_sun_ahqjwnzgolcaoidx.tif,29,0.0666666666666667,0.0666666666666667,1.78333333333333,1485834.3387098,1485835.0039553,74,1485834.409465,1485834.4742979,1485835.0101393,1485836.7918094,NaN,NaN
120,29,6,categorization,0,kitchen,SHINEd_sun_aapllqyqlykszopd.tif,66,0.0666666666666667,0.0666666666666667,0.766666666666667,1485836.7997568,1485837.5327621,70,1485836.8710044,1485836.93524,1485837.538477,1485838.3034823,NaN,NaN
120,30,6,categorization,0,kitchen,SHINEd_sun_aqeaevwwwjoqhzvl.tif,100,0.0666666666666667,0.0666666666666667,1.45,1485838.3097012,1485839.106058,70,1485838.3805784,1485838.4452794,1485839.1114046,1485840.559742,NaN,NaN
120,31,6,categorization,0,kitchen,SHINEd_sun_aymvwlarqodbwuoc.tif,107,0.0666666666666667,0.0666666666666667,0.75,1485840.5668634,1485841.2904767,74,1485840.6382142,1485840.7021225,1485841.2959242,1485842.0442627,NaN,NaN
120,32,6,categorization,0,bathroom,SHINEd_sun_agyqfjcfkdcydepw.tif,25,0.0666666666666667,0.0666666666666667,1.36666666666667,1485842.0501206,1485842.769681,74,1485842.1209226,1485842.1857275,1485842.7752724,1485844.1402756,NaN,NaN
120,33,6,categorization,0,bathroom,SHINEd_sun_abjtwfukuwddzted.tif,15,0.0666666666666667,0.0666666666666667,0.75,1485844.1464828,1485844.8320335,74,1485844.2187515,1485844.2818991,1485844.8373614,1485845.5857092,NaN,NaN
120,34,6,categorization,0,bathroom,SHINEd_sun_asfwthctfqerjvxr.tif,49,0.0666666666666667,0.0666666666666667,0.783333333333333,1485845.5926878,1485846.4918825,74,1485845.6651155,1485845.7277768,1485846.4971606,1485847.2788314,NaN,NaN
120,35,6,categorization,0,kitchen,SHINEd_sun_aegoxogugdkwpmpj.tif,80,0.0666666666666667,0.0666666666666667,1.11666666666667,1485847.2851937,1485848.0880102,70,1485847.355948,1485847.4208107,1485848.0941071,1485849.2091122,NaN,NaN
120,36,6,categorization,0,bathroom,SHINEd_sun_aljolscmmzydegqp.tif,33,0.0666666666666667,0.0666666666666667,0.766666666666667,1485849.2150583,1485849.9293973,74,1485849.286379,1485849.3504744,1485849.9355318,1485850.7005359,NaN,NaN
120,37,6,categorization,0,kitchen,SHINEd_sun_aeqdocilnnpuvuhx.tif,83,0.0666666666666667,0.0666666666666667,0.716666666666667,1485850.7062558,1485851.7490131,70,1485850.7773226,1485850.8418944,1485851.7544058,1485852.4694093,NaN,NaN
120,38,6,categorization,0,bathroom,SHINEd_sun_aoybiabnpadelefl.tif,41,0.0666666666666667,0.0666666666666667,1.33333333333333,1485852.4755378,1485853.271654,74,1485852.5469642,1485852.611993,1485853.2767528,1485854.6084229,NaN,NaN
120,39,6,categorization,0,bathroom,SHINEd_sun_acduarbnmmoglmiv.tif,16,0.0666666666666667,0.0666666666666667,1.75,1485854.616061,1485855.3757611,74,1485854.6871018,1485854.7526347,1485855.3813046,1485857.129643,NaN,NaN
120,40,6,categorization,0,kitchen,SHINEd_sun_aehawpgmrlhlvcow.tif,81,0.0666666666666667,0.0666666666666667,1.13333333333333,1485857.1358952,1485857.971065,70,1485857.207382,1485857.2719249,1485857.9763506,1485859.1080209,NaN,NaN
120,41,6,categorization,0,kitchen,SHINEd_sun_aexklacwqwezaorf.tif,84,0.0666666666666667,0.0666666666666667,1.63333333333333,1485859.1136557,1485859.7680426,74,1485859.1846677,1485859.2490047,1485859.773174,1485861.4048458,NaN,NaN
120,42,6,categorization,0,kitchen,SHINEd_sun_agorklincwxrdtga.tif,87,0.0666666666666667,0.0666666666666667,1.43333333333333,1485861.4109594,1485862.1857172,70,1485861.48244,1485861.5466895,1485862.1918814,1485863.6235531,NaN,NaN
120,43,6,categorization,0,bathroom,SHINEd_sun_afcoljnjfoxjtgja.tif,20,0.0666666666666667,0.0666666666666667,1.83333333333333,1485863.6295237,1485864.3163456,74,1485863.7003977,1485863.7644114,1485864.3216743,1485866.1533459,NaN,NaN
120,44,6,categorization,0,bathroom,SHINEd_sun_ahaulkltgpkeeemi.tif,26,0.0666666666666667,0.0666666666666667,1.93333333333333,1485866.1597079,1485866.9963041,74,1485866.2323131,1485866.2949598,1485867.0022506,1485868.9339212,NaN,NaN
120,45,6,categorization,0,bathroom,SHINEd_sun_anryaplzeujmzfkd.tif,39,0.0666666666666667,0.0666666666666667,1.26666666666667,1485868.9407321,1485869.6835812,74,1485869.0117347,1485869.0776764,1485869.6888071,1485870.9538109,NaN,NaN
120,46,6,categorization,0,bathroom,SHINEd_sun_ambriybtogmepttm.tif,36,0.0666666666666667,0.0666666666666667,1.86666666666667,1485870.9601624,1485871.7180214,74,1485871.031236,1485871.0958829,1485871.7235688,1485873.5885729,NaN,NaN
120,47,6,categorization,0,kitchen,SHINEd_sun_abpwyqmlzafvklqo.tif,72,0.0666666666666667,0.0666666666666667,1.41666666666667,1485873.5953281,1485874.7600138,70,1485873.6667366,1485873.730746,1485874.7664116,1485876.1814163,NaN,NaN
120,48,6,categorization,0,bathroom,SHINEd_sun_axyrejkiiaqiurjk.tif,59,0.0666666666666667,0.0666666666666667,1.11666666666667,1485876.1881228,1485876.9955939,74,1485876.2592705,1485876.323413,1485877.0008258,1485878.1158298,NaN,NaN
120,49,6,categorization,0,kitchen,SHINEd_sun_admlmbcdswaszruo.tif,79,0.0666666666666667,0.0666666666666667,1.8,1485878.1232563,1485879.028517,70,1485878.1947364,1485878.2585725,1485879.0337027,1485880.8320396,NaN,NaN
120,50,6,categorization,0,bathroom,SHINEd_sun_ausgutylgojavyoq.tif,53,0.0666666666666667,0.0666666666666667,1.25,1485880.8380695,1485881.4511025,74,1485880.9090569,1485880.9737571,1485881.4563454,1485882.7046827,NaN,NaN
120,1,7,categorization,0,bathroom,SHINEd_sun_apkxzenqapsujocq.tif,45,0.0666666666666667,0.0666666666666667,0.883333333333333,1485887.5998544,1485888.2914289,74,1485887.6722686,1485887.7352648,1485888.2963789,1485889.1780494,NaN,NaN
120,2,7,categorization,0,kitchen,SHINEd_sun_aadbddgrdsjugojn.tif,64,0.0666666666666667,0.0666666666666667,1.03333333333333,1485889.1841261,1485889.8684139,70,1485889.2551915,1485889.319303,1485889.8738851,1485890.9055555,NaN,NaN
120,3,7,categorization,0,bathroom,SHINEd_sun_anhioqovhscjqqwb.tif,38,0.0666666666666667,0.0666666666666667,1.06666666666667,1485890.912051,1485891.5802909,74,1485890.9828462,1485891.0473653,1485891.5865833,1485892.6515874,NaN,NaN
120,4,7,categorization,0,kitchen,SHINEd_sun_agorklincwxrdtga.tif,87,0.0666666666666667,0.0666666666666667,0.833333333333333,1485892.6585345,1485893.3495796,70,1485892.7299064,1485892.7940759,1485893.3555726,1485894.1872445,NaN,NaN
120,5,7,categorization,0,bathroom,SHINEd_sun_aleqenyvunhactkl.tif,32,0.0666666666666667,0.0666666666666667,0.716666666666667,1485894.193458,1485894.8415309,74,1485894.2646601,1485894.3288199,1485894.8466713,1485895.5616769,NaN,NaN
120,6,7,categorization,0,bathroom,SHINEd_sun_aoybiabnpadelefl.tif,41,0.0666666666666667,0.0666666666666667,0.733333333333333,1485895.5680122,1485896.4901682,74,1485895.6391202,1485895.7031958,1485896.4957056,1485897.2273762,NaN,NaN
120,7,7,categorization,0,bathroom,SHINEd_sun_abjtwfukuwddzted.tif,15,0.0666666666666667,0.0666666666666667,1.38333333333333,1485897.2331691,1485897.9130645,74,1485897.3036697,1485897.3685229,1485897.918292,1485899.2999739,NaN,NaN
120,8,7,categorization,0,bathroom,SHINEd_sun_atstyziqcmkahyxk.tif,51,0.0666666666666667,0.0666666666666667,0.9,1485899.306385,1485899.8689601,74,1485899.3777125,1485899.4426819,1485899.8745965,1485900.7729351,NaN,NaN
120,9,7,categorization,0,bathroom,SHINEd_sun_alotolagknyrgtsk.tif,35,0.0666666666666667,0.0666666666666667,0.816666666666667,1485900.7790576,1485901.7720949,74,1485900.8512739,1485900.9144102,1485901.7773681,1485902.5923731,NaN,NaN
120,10,7,categorization,0,kitchen,SHINEd_sun_auaiucuqpdausiva.tif,101,0.0666666666666667,0.0666666666666667,0.85,1485902.5988753,1485903.4317824,70,1485902.6701225,1485902.7346479,1485903.4373907,1485904.2857276,NaN,NaN
120,11,7,categorization,0,kitchen,SHINEd_sun_akcjzhbbjlbogpdi.tif,98,0.0666666666666667,0.0666666666666667,1.6,1485904.292982,1485904.9482881,70,1485904.3641517,1485904.4292181,1485904.9543404,1485906.5526779,NaN,NaN
120,12,7,categorization,0,kitchen,SHINEd_sun_afuyedyxivkhecmu.tif,85,0.0666666666666667,0.0666666666666667,1.75,1485906.5589125,1485907.320262,70,1485906.6299541,1485906.694208,1485907.3259489,1485909.0742976,NaN,NaN
120,13,7,categorization,0,bathroom,SHINEd_sun_aqrpegblszgcoujh.tif,48,0.0666666666666667,0.0666666666666667,1.1,1485909.0804304,1485910.1534065,74,1485909.1530406,1485909.2172283,1485910.1595668,1485911.2579156,NaN,NaN
120,14,7,categorization,0,kitchen,SHINEd_sun_aamedkxepzlwuxes.tif,65,0.0666666666666667,0.0666666666666667,1.46666666666667,1485911.2654306,1485912.3033821,70,1485911.3380393,1485911.4007608,1485912.3088192,1485913.7738227,NaN,NaN
120,15,7,categorization,0,bathroom,SHINEd_sun_apkruvsevgegsdwp.tif,44,0.0666666666666667,0.0666666666666667,1.25,1485913.7800585,1485914.4068947,74,1485913.8512033,1485913.9153785,1485914.4131627,1485915.6615,NaN,NaN
120,16,7,categorization,0,kitchen,SHINEd_sun_aehawpgmrlhlvcow.tif,81,0.0666666666666667,0.0666666666666667,1.13333333333333,1485915.6679253,1485916.4498585,70,1485915.7403903,1485915.8035578,1485916.4554588,1485917.5871297,NaN,NaN
120,17,7,categorization,0,kitchen,SHINEd_sun_aaxxjlsuzvqlgylf.tif,68,0.0666666666666667,0.0666666666666667,1.33333333333333,1485917.5931616,1485918.2822924,70,1485917.6642654,1485917.729466,1485918.2874682,1485919.6191389,NaN,NaN
120,18,7,categorization,0,kitchen,SHINEd_sun_aeqdocilnnpuvuhx.tif,83,0.0666666666666667,0.0666666666666667,1.86666666666667,1485919.6253552,1485920.2933013,70,1485919.6961793,1485919.7620461,1485920.2989229,1485922.1639272,NaN,NaN
120,19,7,categorization,0,bathroom,SHINEd_labelme_sfxiulhjbhlyiyt.tif,11,0.0666666666666667,0.0666666666666667,1.58333333333333,1485922.1703368,1485922.7803016,74,1485922.2428448,1485922.30554,1485922.7863952,1485924.3680668,NaN,NaN
120,20,7,categorization,0,kitchen,SHINEd_sun_avszsnwsbuqfgzbn.tif,104,0.0666666666666667,0.0666666666666667,1.05,1485924.3758125,1485924.9272833,70,1485924.44623,1485924.5104874,1485924.933597,1485925.9819358,NaN,NaN
120,21,7,categorization,0,kitchen,SHINEd_sun_acwjdupvyjsugpay.tif,76,0.0666666666666667,0.0666666666666667,0.9,1485925.9894789,1485926.7672712,70,1485926.0604061,1485926.1256903,1485926.7732851,1485927.671622,NaN,NaN
120,22,7,categorization,0,kitchen,SHINEd_sun_ahdycvpopffkzzsu.tif,90,0.0666666666666667,0.0666666666666667,0.7,1485927.6794984,1485928.4594752,70,1485927.7506852,1485927.8152835,1485928.4650645,1485929.1634039,NaN,NaN
120,23,7,categorization,0,kitchen,SHINEd_sun_ahljzhgcdpomplvg.tif,91,0.0666666666666667,0.0666666666666667,0.933333333333333,1485929.170091,1485929.7556827,70,1485929.2418235,1485929.3053247,1485929.7610686,1485930.6927399,NaN,NaN
120,24,7,categorization,0,bathroom,SHINEd_sun_auzqhkafidnkrwmo.tif,54,0.0666666666666667,0.0666666666666667,1.95,1485930.6986954,1485931.3512356,74,1485930.7696192,1485930.8356637,1485931.3565951,1485933.3049317,NaN,NaN
120,25,7,categorization,0,bathroom,SHINEd_sun_apmqjbnwghzuhhzh.tif,46,0.0666666666666667,0.0666666666666667,1.06666666666667,1485933.3114966,1485933.9180964,74,1485933.3827527,1485933.4480088,1485933.923509,1485934.9885129,NaN,NaN
120,26,7,categorization,0,bathroom,SHINEd_sun_afcoljnjfoxjtgja.tif,20,0.0666666666666667,0.0666666666666667,1.2,1485934.9943751,1485935.6600022,74,1485935.0650441,1485935.1295593,1485935.6655066,1485936.8638453,NaN,NaN
120,27,7,categorization,0,kitchen,SHINEd_sun_acfmftudsenhrfhy.tif,74,0.0666666666666667,0.0666666666666667,0.75,1485936.8696728,1485937.5183757,70,1485936.9411898,1485937.0054666,1485937.5247003,1485938.2730384,NaN,NaN
120,28,7,categorization,0,bathroom,SHINEd_sun_agyqfjcfkdcydepw.tif,25,0.0666666666666667,0.0666666666666667,0.816666666666667,1485938.2792489,1485938.847299,74,1485938.3502139,1485938.4142675,1485938.8529405,1485939.6679447,NaN,NaN
120,29,7,categorization,0,bathroom,SHINEd_sun_anryaplzeujmzfkd.tif,39,0.0666666666666667,0.0666666666666667,1.96666666666667,1485939.6735703,1485940.2198852,74,1485939.7441362,1485939.8105558,1485940.2261969,1485942.1911999,NaN,NaN
120,30,7,categorization,0,kitchen,SHINEd_labelme_rykdqxenmhulbdn.tif,63,0.0666666666666667,0.0666666666666667,1.2,1485942.1977457,1485942.863764,70,1485942.270184,1485942.3327459,1485942.8697237,1485944.0680607,NaN,NaN
120,31,7,categorization,0,bathroom,SHINEd_sun_apeeialkgkuxddgh.tif,42,0.0666666666666667,0.0666666666666667,0.883333333333333,1485944.0742789,1485944.5979925,74,1485944.1453684,1485944.2096956,1485944.6032919,1485945.4849625,NaN,NaN
120,32,7,categorization,0,kitchen,SHINEd_sun_abftihopvusyfakt.tif,71,0.0666666666666667,0.0666666666666667,1.33333333333333,1485945.4908925,1485946.0648666,70,1485945.5613895,1485945.6260784,1485946.0702086,1485947.4018809,NaN,NaN
120,33,7,categorization,0,bathroom,SHINEd_sun_axxbkopsgyouuebh.tif,58,0.0666666666666667,0.0666666666666667,1.45,1485947.4077949,1485948.0425394,74,1485947.4785238,1485947.5429327,1485948.0485601,1485949.4968983,NaN,NaN
120,34,7,categorization,0,bathroom,SHINEd_sun_aclfzgynxzxlbepz.tif,19,0.0666666666666667,0.0666666666666667,1.15,1485949.5031615,1485950.1164474,74,1485949.5744317,1485949.6386195,1485950.1227445,1485951.2710816,NaN,NaN
120,35,7,categorization,0,bathroom,SHINEd_sun_apjevzvycyhuqghb.tif,43,0.0666666666666667,0.0666666666666667,0.966666666666667,1485951.2770547,1485952.0811355,74,1485951.3480989,1485951.4122971,1485952.0867202,1485953.0517246,NaN,NaN
120,36,7,categorization,0,bathroom,SHINEd_sun_aofnryafpsjimzsb.tif,40,0.0666666666666667,0.0666666666666667,1.45,1485953.0577872,1485953.7025216,74,1485953.1289427,1485953.1946705,1485953.7086171,1485955.1569551,NaN,NaN
120,37,7,categorization,0,bathroom,SHINEd_sun_ajlawzvmubibwbpy.tif,30,0.0666666666666667,0.0666666666666667,0.8,1485955.1629341,1485956.0377358,74,1485955.2342034,1485955.2987564,1485956.0431496,1485956.8414964,NaN,NaN
120,38,7,categorization,0,bathroom,SHINEd_sun_agrwbmhcpmfuwmsg.tif,24,0.0666666666666667,0.0666666666666667,1.45,1485956.8479317,1485957.400823,74,1485956.919135,1485956.9844623,1485957.4067847,1485958.8551219,NaN,NaN
120,39,7,categorization,0,kitchen,SHINEd_sun_aegoxogugdkwpmpj.tif,80,0.0666666666666667,0.0666666666666667,1.1,1485958.8613131,1485959.5073325,70,1485958.9323386,1485958.9965619,1485959.5134182,1485960.6117572,NaN,NaN
120,40,7,categorization,0,kitchen,SHINEd_sun_abpwyqmlzafvklqo.tif,72,0.0666666666666667,0.0666666666666667,1.16666666666667,1485960.6181197,1485961.2809686,70,1485960.6894851,1485960.7532563,1485961.2862393,1485962.4512437,NaN,NaN
120,41,7,categorization,0,kitchen,SHINEd_sun_aymvwlarqodbwuoc.tif,107,0.0666666666666667,0.0666666666666667,1.31666666666667,1485962.458863,1485963.0044819,74,1485962.529614,1485962.5940295,1485963.0104995,1485964.3255043,NaN,NaN
120,42,7,categorization,0,kitchen,SHINEd_sun_awcpdzzznmweyyhv.tif,105,0.0666666666666667,0.0666666666666667,1.68333333333333,1485964.3317188,1485964.9695522,70,1485964.4040902,1485964.4669662,1485964.9756824,1485966.6573543,NaN,NaN
120,43,7,categorization,0,kitchen,SHINEd_sun_aggjlwcdjsjcaemh.tif,86,0.0666666666666667,0.0666666666666667,0.966666666666667,1485966.6637669,1485967.3979033,70,1485966.7345238,1485966.7989895,1485967.4033003,1485968.3683054,NaN,NaN
120,44,7,categorization,0,kitchen,SHINEd_sun_aenotlpyftoioydp.tif,82,0.0666666666666667,0.0666666666666667,1.4,1485968.3740498,1485968.9843765,70,1485968.4453356,1485968.5099732,1485968.9900346,1485970.3883724,NaN,NaN
120,45,7,categorization,0,kitchen,SHINEd_sun_abdxkyyxwfskuaqb.tif,70,0.0666666666666667,0.0666666666666667,0.783333333333333,1485970.3945162,1485971.2714508,70,1485970.4654523,1485970.529853,1485971.2778728,1485972.0595425,NaN,NaN
120,46,7,categorization,0,kitchen,SHINEd_sun_aexklacwqwezaorf.tif,84,0.0666666666666667,0.0666666666666667,1.08333333333333,1485972.065876,1485973.0084419,74,1485972.1367499,1485972.2011228,1485973.0146988,1485974.0963694,NaN,NaN
120,47,7,categorization,0,bathroom,SHINEd_sun_aapitsgbtktqubfy.tif,12,0.0666666666666667,0.0666666666666667,1.43333333333333,1485974.1026883,1485974.6742126,74,1485974.1754373,1485974.2395461,1485974.6805633,1485976.1122337,NaN,NaN
120,48,7,categorization,0,bathroom,SHINEd_sun_asfwthctfqerjvxr.tif,49,0.0666666666666667,0.0666666666666667,1.75,1485976.1181491,1485976.8161683,74,1485976.1894681,1485976.2533961,1485976.8221778,1485978.5705167,NaN,NaN
120,49,7,categorization,0,kitchen,SHINEd_sun_ahpczsiumwwocjkv.tif,92,0.0666666666666667,0.0666666666666667,1.21666666666667,1485978.5767768,1485979.3430321,70,1485978.6478468,1485978.7121067,1485979.3485814,1485980.5635872,NaN,NaN
120,50,7,categorization,0,bathroom,SHINEd_sun_axyrejkiiaqiurjk.tif,59,0.0666666666666667,0.0666666666666667,1.31666666666667,1485980.5699657,1485981.1474452,70,1485980.641052,1485980.7050292,1485981.1533617,1485982.4683655,NaN,NaN
120,1,8,categorization,0,bathroom,SHINEd_sun_aspsyogrekjtfozg.tif,50,0.0666666666666667,0.0666666666666667,1.18333333333333,1485986.8372558,1485987.5172173,74,1485986.9078848,1485986.9725012,1485987.5223505,1485988.7040219,NaN,NaN
120,2,8,categorization,0,kitchen,SHINEd_sun_abdenxonkemggwsq.tif,69,0.0666666666666667,0.0666666666666667,0.983333333333333,1485988.7103196,1485989.5269032,70,1485988.781992,1485988.8455776,1485989.5320655,1485990.5137367,NaN,NaN
120,3,8,categorization,0,kitchen,SHINEd_sun_akchetnepxlcxhsu.tif,97,0.0666666666666667,0.0666666666666667,1.65,1485990.5206762,1485991.1550274,70,1485990.5917231,1485990.6560557,1485991.1604669,1485992.8089481,NaN,NaN
120,4,8,categorization,0,bathroom,SHINEd_sun_avhrdrntsqrjzccq.tif,55,0.0666666666666667,0.0666666666666667,1.23333333333333,1485992.8156518,1485993.4338382,74,1485992.8865749,1485992.9506563,1485993.4392036,1485994.6708856,NaN,NaN
120,5,8,categorization,0,bathroom,SHINEd_sun_alkosphxlxwjwgjd.tif,34,0.0666666666666667,0.0666666666666667,0.916666666666667,1485994.6774464,1485995.3362706,74,1485994.7487442,1485994.8137572,1485995.3416193,1485996.2566236,NaN,NaN
120,6,8,categorization,0,bathroom,SHINEd_sun_ausgutylgojavyoq.tif,53,0.0666666666666667,0.0666666666666667,1.56666666666667,1485996.2629921,1485996.8532712,74,1485996.334334,1485996.399643,1485996.8595105,1485998.4245159,NaN,NaN
120,7,8,categorization,0,kitchen,SHINEd_sun_ayqymgxqhxxiykiw.tif,109,0.0666666666666667,0.0666666666666667,1.63333333333333,1485998.431254,1485999.1243476,70,1485998.5024342,1485998.5664545,1485999.1304308,1486000.7621019,NaN,NaN
120,8,8,categorization,0,bathroom,SHINEd_sun_awnqiikzaispgmwo.tif,56,0.0666666666666667,0.0666666666666667,1.1,1486000.768095,1486001.6648433,74,1486000.8388345,1486000.9034259,1486001.6708894,1486002.7692266,NaN,NaN
120,9,8,categorization,0,bathroom,SHINEd_sun_ahijqszoswveeyji.tif,28,0.0666666666666667,0.0666666666666667,1.38333333333333,1486002.7757451,1486003.4699529,74,1486002.8466354,1486002.9109504,1486003.4753423,1486004.8570136,NaN,NaN
120,10,8,categorization,0,bathroom,SHINEd_sun_amzlamotzwfkwjco.tif,37,0.0666666666666667,0.0666666666666667,0.766666666666667,1486004.8632381,1486006.0132718,70,1486004.9337368,1486004.998486,1486006.0187754,1486006.7837795,NaN,NaN
120,11,8,categorization,0,bathroom,SHINEd_sun_aunuadmjocsddsrl.tif,52,0.0666666666666667,0.0666666666666667,1.45,1486006.789833,1486007.831331,74,1486006.8609327,1486006.9248866,1486007.8368244,1486009.2851632,NaN,NaN
120,12,8,categorization,0,kitchen,SHINEd_sun_ajcbwwvdlsvjyzje.tif,95,0.0666666666666667,0.0666666666666667,0.983333333333333,1486009.292777,1486010.1781503,70,1486009.3650588,1486009.4277851,1486010.184337,1486011.1660091,NaN,NaN
120,13,8,categorization,0,kitchen,SHINEd_sun_aypmqwcualkenuoe.tif,108,0.0666666666666667,0.0666666666666667,0.716666666666667,1486011.1718049,1486012.4243705,70,1486011.2435801,1486011.3073602,1486012.4300641,1486013.1450699,NaN,NaN
120,14,8,categorization,0,kitchen,SHINEd_sun_axyyrmzcupyhlivc.tif,106,0.0666666666666667,0.0666666666666667,1.41666666666667,1486013.1511986,1486013.9966011,70,1486013.2218531,1486013.2863687,1486014.0018052,1486015.4168096,NaN,NaN
120,15,8,categorization,0,bathroom,SHINEd_sun_akiytfaagpdsphgz.tif,31,0.0666666666666667,0.0666666666666667,1.21666666666667,1486015.4228344,1486015.9840441,74,1486015.4933996,1486015.5587371,1486015.9899075,1486017.2050892,NaN,NaN
120,16,8,categorization,0,bathroom,SHINEd_sun_azqyogdvyhahyram.tif,60,0.0666666666666667,0.0666666666666667,1.61666666666667,1486017.2114348,1486017.8450033,74,1486017.2827431,1486017.346353,1486017.8509522,1486019.4659557,NaN,NaN
120,17,8,categorization,0,bathroom,SHINEd_sun_abapwbhyhkfixyex.tif,14,0.0666666666666667,0.0666666666666667,0.783333333333333,1486019.4719608,1486020.0449718,70,1486019.5429816,1486019.6077555,1486020.0502802,1486020.8319525,NaN,NaN
120,18,8,categorization,0,kitchen,SHINEd_sun_azmutvzbxypaceni.tif,110,0.0666666666666667,0.0666666666666667,1.98333333333333,1486020.8384399,1486021.461363,70,1486020.9097208,1486020.974169,1486021.4676312,1486023.4493026,NaN,NaN
120,19,8,categorization,0,bathroom,SHINEd_sun_ambriybtogmepttm.tif,36,0.0666666666666667,0.0666666666666667,0.983333333333333,1486023.4555156,1486024.3142259,74,1486023.5262291,1486023.5915644,1486024.3200983,1486025.3017696,NaN,NaN
120,20,8,categorization,0,kitchen,SHINEd_sun_adgqasybjyktddhj.tif,78,0.0666666666666667,0.0666666666666667,0.8,1486025.3077704,1486026.1929506,70,1486025.3792238,1486025.4430333,1486026.1982694,1486026.9966083,NaN,NaN
120,21,8,categorization,0,kitchen,SHINEd_sun_aarfiyshqohlwkmo.tif,67,0.0666666666666667,0.0666666666666667,0.733333333333333,1486027.0027898,1486027.8444389,70,1486027.0735383,1486027.138504,1486027.850152,1486028.5818237,NaN,NaN
120,22,8,categorization,0,kitchen,SHINEd_sun_aapllqyqlykszopd.tif,66,0.0666666666666667,0.0666666666666667,0.966666666666667,1486028.5879009,1486029.2513719,70,1486028.6589647,1486028.7233796,1486029.2567863,1486030.2217912,NaN,NaN
120,23,8,categorization,0,bathroom,SHINEd_sun_ahcvzmoyaycdoftf.tif,27,0.0666666666666667,0.0666666666666667,0.866666666666667,1486030.2279141,1486030.873008,74,1486030.2992582,1486030.3631558,1486030.8788011,1486031.7438065,NaN,NaN
120,24,8,categorization,0,kitchen,SHINEd_sun_auticobqsbwgoppi.tif,103,0.0666666666666667,0.0666666666666667,1.23333333333333,1486031.750197,1486033.7117575,70,1486031.8214903,1486031.8849913,1486033.717587,1486034.9492584,NaN,NaN
120,25,8,categorization,0,kitchen,SHINEd_sun_acgtpgfybqjmzeyw.tif,75,0.0666666666666667,0.0666666666666667,1.9,1486034.9561108,1486036.238909,70,1486035.0286349,1486035.0924725,1486036.2443002,1486038.1426367,NaN,NaN
120,26,8,categorization,0,kitchen,SHINEd_sun_abrcnpqqhmjwekyf.tif,73,0.0666666666666667,0.0666666666666667,0.866666666666667,1486038.1490292,1486038.9161999,70,1486038.2199181,1486038.2840162,1486038.9218875,1486039.7868912,NaN,NaN
120,27,8,categorization,0,kitchen,SHINEd_sun_ajkqhtgcbgpcwrwn.tif,96,0.0666666666666667,0.0666666666666667,0.966666666666667,1486039.7933147,1486040.4923875,70,1486039.865428,1486039.9280811,1486040.498792,1486041.4637964,NaN,NaN
120,28,8,categorization,0,kitchen,SHINEd_sun_amjjdeyrggfqgmom.tif,99,0.0666666666666667,0.0666666666666667,0.916666666666667,1486041.4701061,1486042.2960486,70,1486041.5410042,1486041.6054855,1486042.3033009,1486043.2183057,NaN,NaN
120,29,8,categorization,0,kitchen,SHINEd_sun_admlmbcdswaszruo.tif,79,0.0666666666666667,0.0666666666666667,0.916666666666667,1486043.2247725,1486043.9270121,70,1486043.2964765,1486043.3601844,1486043.9324296,1486044.8474346,NaN,NaN
120,30,8,categorization,0,bathroom,SHINEd_sun_aggnnqpdorgxpvce.tif,21,0.0666666666666667,0.0666666666666667,1.4,1486044.8539841,1486045.5314481,70,1486044.9264437,1486044.9901453,1486045.5368163,1486046.9351646,NaN,NaN
120,31,8,categorization,0,bathroom,SHINEd_sun_acegryoqftbzowsg.tif,17,0.0666666666666667,0.0666666666666667,1.75,1486046.9417079,1486047.5753747,70,1486047.0145277,1486047.0770432,1486047.5816771,1486049.3300141,NaN,NaN
120,32,8,categorization,0,kitchen,SHINEd_sun_agubuxuukhzyzpdp.tif,88,0.0666666666666667,0.0666666666666667,1.25,1486049.3369354,1486050.0090819,70,1486049.4085543,1486049.4721933,1486050.0145636,1486051.2629009,NaN,NaN
120,33,8,categorization,0,kitchen,SHINEd_sun_acxkpeoqbwcxfvip.tif,77,0.0666666666666667,0.0666666666666667,1.05,1486051.2687974,1486051.9585072,70,1486051.3392557,1486051.4039939,1486051.9643393,1486053.0126762,NaN,NaN
120,34,8,categorization,0,kitchen,SHINEd_labelme_brsyyvweiuaazfr.tif,61,0.0666666666666667,0.0666666666666667,1.06666666666667,1486053.0187228,1486053.8196447,70,1486053.0900169,1486053.1542222,1486053.8248548,1486054.8898577,NaN,NaN
120,35,8,categorization,0,kitchen,SHINEd_labelme_kxvouciolcpqplr.tif,62,0.0666666666666667,0.0666666666666667,1.21666666666667,1486054.8957741,1486055.6879925,74,1486054.967172,1486055.031032,1486055.6936853,1486056.9086966,NaN,NaN
120,36,8,categorization,0,bathroom,SHINEd_sun_acduarbnmmoglmiv.tif,16,0.0666666666666667,0.0666666666666667,0.95,1486056.915193,1486058.3434713,74,1486056.9868419,1486057.0504387,1486058.3492037,1486059.297555,NaN,NaN
120,37,8,categorization,0,bathroom,SHINEd_sun_apynckhmoftszqoq.tif,47,0.0666666666666667,0.0666666666666667,0.9,1486059.3038232,1486059.9745905,74,1486059.3745906,1486059.439269,1486059.980783,1486060.879122,NaN,NaN
120,38,8,categorization,0,bathroom,SHINEd_sun_ahaulkltgpkeeemi.tif,26,0.0666666666666667,0.0666666666666667,1.78333333333333,1486060.8854636,1486061.5458952,74,1486060.956236,1486061.0205541,1486061.5518756,1486063.3335476,NaN,NaN
120,39,8,categorization,0,bathroom,SHINEd_sun_agguqiubmwhqqunb.tif,22,0.0666666666666667,0.0666666666666667,1.16666666666667,1486063.3396944,1486064.0747067,70,1486063.4108407,1486063.4750988,1486064.0807643,1486065.2457684,NaN,NaN
120,40,8,categorization,0,bathroom,SHINEd_sun_axldvoqbuvuggfmq.tif,57,0.0666666666666667,0.0666666666666667,0.783333333333333,1486065.2528231,1486065.9823579,74,1486065.3239752,1486065.3888087,1486065.9878329,1486066.7695045,NaN,NaN
120,41,8,categorization,0,kitchen,SHINEd_sun_agzzivivdpnawacl.tif,89,0.0666666666666667,0.0666666666666667,1.23333333333333,1486066.776652,1486067.5202351,70,1486066.8471551,1486066.9131179,1486067.5256399,1486068.7573105,NaN,NaN
120,42,8,categorization,0,kitchen,SHINEd_sun_aunzlwrbjumxhwdj.tif,102,0.0666666666666667,0.0666666666666667,0.9,1486068.7635242,1486069.898465,70,1486068.8345077,1486068.8989955,1486069.9046783,1486070.8030213,NaN,NaN
120,43,8,categorization,0,kitchen,SHINEd_sun_ahywdevtimnqcsln.tif,94,0.0666666666666667,0.0666666666666667,0.7,1486070.8089804,1486071.5846149,70,1486070.8805108,1486070.9451282,1486071.590512,1486072.2888504,NaN,NaN
120,44,8,categorization,0,bathroom,SHINEd_sun_ahqjwnzgolcaoidx.tif,29,0.0666666666666667,0.0666666666666667,1.23333333333333,1486072.2956562,1486072.9703232,74,1486072.366694,1486072.4313335,1486072.9761945,1486074.2078776,NaN,NaN
120,45,8,categorization,0,bathroom,SHINEd_sun_acgyywnybuveqsro.tif,18,0.0666666666666667,0.0666666666666667,1,1486074.2141232,1486074.8978673,74,1486074.2852454,1486074.3490718,1486074.9029295,1486075.9012677,NaN,NaN
120,46,8,categorization,0,bathroom,SHINEd_sun_aljolscmmzydegqp.tif,33,0.0666666666666667,0.0666666666666667,1.38333333333333,1486075.9074782,1486076.5854379,74,1486075.9781895,1486076.0427878,1486076.5909335,1486077.9726057,NaN,NaN
120,47,8,categorization,0,bathroom,SHINEd_sun_aghyqhbptboemmoq.tif,23,0.0666666666666667,0.0666666666666667,1.3,1486077.9787526,1486078.6430896,74,1486078.0514175,1486078.1143695,1486078.6489643,1486079.9473023,NaN,NaN
120,48,8,categorization,0,kitchen,SHINEd_sun_aqeaevwwwjoqhzvl.tif,100,0.0666666666666667,0.0666666666666667,0.833333333333333,1486079.9537121,1486080.7497894,70,1486080.0243511,1486080.088795,1486080.7559229,1486081.587595,NaN,NaN
120,49,8,categorization,0,kitchen,SHINEd_sun_ahspylgoovwmwvgk.tif,93,0.0666666666666667,0.0666666666666667,0.95,1486081.5954416,1486082.3076031,70,1486081.6662839,1486081.7306303,1486082.3134185,1486083.2617571,NaN,NaN
120,50,8,categorization,0,bathroom,SHINEd_sun_aavhrsfjbserjtht.tif,13,0.0666666666666667,0.0666666666666667,1.43333333333333,1486083.2681954,1486084.0485615,74,1486083.3386214,1486083.403463,1486084.0540048,1486085.4856765,NaN,NaN
120,1,9,categorization,0,kitchen,SHINEd_labelme_kxvouciolcpqplr.tif,62,0.0666666666666667,0.0666666666666667,1.08333333333333,1486090.7922237,1486091.5733551,70,1486090.8631973,1486090.9276317,1486091.5788314,1486092.6605016,NaN,NaN
120,2,9,categorization,0,bathroom,SHINEd_sun_alotolagknyrgtsk.tif,35,0.0666666666666667,0.0666666666666667,0.8,1486092.6681778,1486093.6115925,74,1486092.7394281,1486092.8040939,1486093.6174973,1486094.4158351,NaN,NaN
120,3,9,categorization,0,kitchen,SHINEd_sun_auticobqsbwgoppi.tif,103,0.0666666666666667,0.0666666666666667,0.833333333333333,1486094.4236461,1486095.1689443,70,1486094.495368,1486094.5591322,1486095.174281,1486096.0059516,NaN,NaN
120,4,9,categorization,0,kitchen,SHINEd_labelme_brsyyvweiuaazfr.tif,61,0.0666666666666667,0.0666666666666667,1.45,1486096.0123212,1486096.770538,70,1486096.0832917,1486096.1473458,1486096.7759654,1486098.2243044,NaN,NaN
120,5,9,categorization,0,bathroom,SHINEd_sun_apeeialkgkuxddgh.tif,42,0.0666666666666667,0.0666666666666667,1.3,1486098.230197,1486098.9757959,74,1486098.3014275,1486098.3656608,1486098.9811956,1486100.2795343,NaN,NaN
120,6,9,categorization,0,kitchen,SHINEd_sun_azmutvzbxypaceni.tif,110,0.0666666666666667,0.0666666666666667,1.21666666666667,1486100.28621,1486101.0664164,70,1486100.3575015,1486100.4217923,1486101.0725149,1486102.2875181,NaN,NaN
120,7,9,categorization,0,kitchen,SHINEd_sun_avszsnwsbuqfgzbn.tif,104,0.0666666666666667,0.0666666666666667,0.733333333333333,1486102.2939352,1486103.0505004,70,1486102.3648498,1486102.4293477,1486103.0568171,1486103.7884882,NaN,NaN
120,8,9,categorization,0,kitchen,SHINEd_sun_acwjdupvyjsugpay.tif,76,0.0666666666666667,0.0666666666666667,1.03333333333333,1486103.7947353,1486104.8255136,70,1486103.8657515,1486103.9298546,1486104.8317442,1486105.8634163,NaN,NaN
120,9,9,categorization,0,bathroom,SHINEd_sun_axxbkopsgyouuebh.tif,58,0.0666666666666667,0.0666666666666667,1.1,1486105.869455,1486106.546166,74,1486105.9419465,1486106.0043711,1486106.5523114,1486107.6506492,NaN,NaN
120,10,9,categorization,0,kitchen,SHINEd_sun_afuyedyxivkhecmu.tif,85,0.0666666666666667,0.0666666666666667,1.25,1486107.6572398,1486108.4645148,70,1486107.729683,1486107.7926395,1486108.4705796,1486109.7189175,NaN,NaN
120,11,9,categorization,0,bathroom,SHINEd_sun_acegryoqftbzowsg.tif,17,0.0666666666666667,0.0666666666666667,1.4,1486109.7248416,1486110.4994458,70,1486109.7964983,1486109.859763,1486110.5054778,1486111.9038169,NaN,NaN
120,12,9,categorization,0,bathroom,SHINEd_sun_agguqiubmwhqqunb.tif,22,0.0666666666666667,0.0666666666666667,1.43333333333333,1486111.9100982,1486112.6779002,70,1486111.9814811,1486112.0465214,1486112.6840188,1486114.1156904,NaN,NaN
120,13,9,categorization,0,bathroom,SHINEd_sun_apkxzenqapsujocq.tif,45,0.0666666666666667,0.0666666666666667,1.26666666666667,1486114.1219521,1486114.7536749,74,1486114.1927878,1486114.2571013,1486114.7596939,1486116.0246992,NaN,NaN
120,14,9,categorization,0,bathroom,SHINEd_sun_asfwthctfqerjvxr.tif,49,0.0666666666666667,0.0666666666666667,0.916666666666667,1486116.0308356,1486116.8583072,74,1486116.1015977,1486116.1667875,1486116.8647862,1486117.7797909,NaN,NaN
120,15,9,categorization,0,kitchen,SHINEd_sun_aypmqwcualkenuoe.tif,108,0.0666666666666667,0.0666666666666667,1.05,1486117.7856147,1486118.80486,70,1486117.8558874,1486117.9209331,1486118.8109323,1486119.8592773,NaN,NaN
120,16,9,categorization,0,kitchen,SHINEd_sun_acxkpeoqbwcxfvip.tif,77,0.0666666666666667,0.0666666666666667,1.53333333333333,1486119.8656897,1486120.6252506,70,1486119.9380887,1486120.0011855,1486120.6308629,1486122.1625336,NaN,NaN
120,17,9,categorization,0,bathroom,SHINEd_sun_aghyqhbptboemmoq.tif,23,0.0666666666666667,0.0666666666666667,1.11666666666667,1486122.1688218,1486122.9304862,74,1486122.2400287,1486122.3041858,1486122.9368494,1486124.0518529,NaN,NaN
120,18,9,categorization,0,bathroom,SHINEd_sun_axyrejkiiaqiurjk.tif,59,0.0666666666666667,0.0666666666666667,1.05,1486124.0582314,1486124.8547584,74,1486124.1308352,1486124.1938281,1486124.8606298,1486125.9089673,NaN,NaN
120,19,9,categorization,0,bathroom,SHINEd_sun_aljolscmmzydegqp.tif,33,0.0666666666666667,0.0666666666666667,1.66666666666667,1486125.9149771,1486126.6850144,74,1486125.9862058,1486126.0503258,1486126.6903197,1486128.3553269,NaN,NaN
120,20,9,categorization,0,kitchen,SHINEd_sun_acfmftudsenhrfhy.tif,74,0.0666666666666667,0.0666666666666667,1.98333333333333,1486128.3616159,1486129.6300838,74,1486128.4328292,1486128.4970552,1486129.6354745,1486131.6171461,NaN,NaN
120,21,9,categorization,0,bathroom,SHINEd_sun_agyqfjcfkdcydepw.tif,25,0.0666666666666667,0.0666666666666667,1.06666666666667,1486131.623224,1486132.4087584,74,1486131.694353,1486131.7583403,1486132.4143802,1486133.4793845,NaN,NaN
120,22,9,categorization,0,bathroom,SHINEd_sun_apynckhmoftszqoq.tif,47,0.0666666666666667,0.0666666666666667,1.31666666666667,1486133.4857615,1486134.2558802,74,1486133.556659,1486133.6217494,1486134.2617802,1486135.576784,NaN,NaN
120,23,9,categorization,0,kitchen,SHINEd_sun_aamedkxepzlwuxes.tif,65,0.0666666666666667,0.0666666666666667,1.78333333333333,1486135.5828298,1486136.3625872,70,1486135.6536835,1486135.7187953,1486136.3685883,1486138.1502633,NaN,NaN
120,24,9,categorization,0,bathroom,SHINEd_sun_ahaulkltgpkeeemi.tif,26,0.0666666666666667,0.0666666666666667,0.816666666666667,1486138.1565603,1486138.9672445,74,1486138.2279707,1486138.2930407,1486138.9731871,1486139.7881912,NaN,NaN
120,25,9,categorization,0,bathroom,SHINEd_sun_aqrpegblszgcoujh.tif,48,0.0666666666666667,0.0666666666666667,0.933333333333333,1486139.7940949,1486140.5078236,74,1486139.8652505,1486139.9296992,1486140.5130721,1486141.4447432,NaN,NaN
120,26,9,categorization,0,kitchen,SHINEd_sun_abftihopvusyfakt.tif,71,0.0666666666666667,0.0666666666666667,1.33333333333333,1486141.4518945,1486142.1837687,70,1486141.5234913,1486141.5886261,1486142.1895389,1486143.5212102,NaN,NaN
120,27,9,categorization,0,bathroom,SHINEd_sun_ahijqszoswveeyji.tif,28,0.0666666666666667,0.0666666666666667,0.833333333333333,1486143.527596,1486144.3972622,74,1486143.5986214,1486143.6627578,1486144.4025777,1486145.234249,NaN,NaN
120,28,9,categorization,0,bathroom,SHINEd_sun_ambriybtogmepttm.tif,36,0.0666666666666667,0.0666666666666667,0.933333333333333,1486145.2409352,1486146.0804738,74,1486145.3118052,1486145.3761704,1486146.0860991,1486147.0177687,NaN,NaN
120,29,9,categorization,0,kitchen,SHINEd_sun_abdxkyyxwfskuaqb.tif,70,0.0666666666666667,0.0666666666666667,1.85,1486147.0244117,1486147.8283631,70,1486147.0955259,1486147.159663,1486147.833613,1486149.681951,NaN,NaN
120,30,9,categorization,0,bathroom,SHINEd_sun_aofnryafpsjimzsb.tif,40,0.0666666666666667,0.0666666666666667,0.966666666666667,1486149.6880359,1486150.8730588,70,1486149.7588551,1486149.8240201,1486150.8792213,1486151.8442264,NaN,NaN
