sub_num,trial,block,task,is_practice,category,image,texture,duration,mask_dur,jitter,stim_time,time_of_resp,trial_response,mask_time,fix_time,jit_onset,trial_end,trial_accuracy,RT
120,1,20,categorization,0,bathroom,SHINEd_sun_aghyqhbptboemmoq.tif,23,0.0666666666666667,0.0666666666666667,1.95,1487357.81888,1487358.4076774,74,1487357.8898237,1487357.9543311,1487358.4128115,1487360.3611491,NaN,NaN
120,2,20,categorization,0,kitchen,SHINEd_sun_aeqdocilnnpuvuhx.tif,83,0.0666666666666667,0.0666666666666667,0.85,1487360.3672865,1487361.2616766,70,1487360.4382309,1487360.5024236,1487361.2670075,1487362.1153534,NaN,NaN
120,3,20,categorization,0,kitchen,SHINEd_sun_aenotlpyftoioydp.tif,82,0.0666666666666667,0.0666666666666667,0.816666666666667,1487362.1223825,1487362.8146958,70,1487362.1934194,1487362.257547,1487362.8201761,1487363.6351811,NaN,NaN
120,4,20,categorization,0,kitchen,SHINEd_sun_axyyrmzcupyhlivc.tif,106,0.0666666666666667,0.0666666666666667,0.983333333333333,1487363.6414748,1487364.3102224,70,1487363.7121918,1487363.7765722,1487364.3159019,1487365.297573,NaN,NaN
120,5,20,categorization,0,bathroom,SHINEd_labelme_sfxiulhjbhlyiyt.tif,11,0.0666666666666667,0.0666666666666667,0.75,1487365.3049017,1487365.9116291,74,1487365.3757859,1487365.4406309,1487365.917286,1487366.6656239,NaN,NaN
120,6,20,categorization,0,kitchen,SHINEd_sun_ajcbwwvdlsvjyzje.tif,95,0.0666666666666667,0.0666666666666667,1.48333333333333,1487366.6714463,1487367.3393125,70,1487366.7429654,1487366.8066039,1487367.3452696,1487368.8269415,NaN,NaN
120,7,20,categorization,0,kitchen,SHINEd_sun_azmutvzbxypaceni.tif,110,0.0666666666666667,0.0666666666666667,0.75,1487368.8328107,1487369.6837911,74,1487368.9035788,1487368.9681639,1487369.689288,1487370.4376248,NaN,NaN
120,8,20,categorization,0,bathroom,SHINEd_sun_axyrejkiiaqiurjk.tif,59,0.0666666666666667,0.0666666666666667,1.58333333333333,1487370.4436747,1487371.3026978,74,1487370.514782,1487370.579213,1487371.3086953,1487372.8903663,NaN,NaN
120,9,20,categorization,0,kitchen,SHINEd_sun_ahywdevtimnqcsln.tif,94,0.0666666666666667,0.0666666666666667,1.88333333333333,1487372.8965884,1487373.5680679,70,1487372.967596,1487373.0320897,1487373.5735786,1487375.455249,NaN,NaN
120,10,20,categorization,0,bathroom,SHINEd_sun_axxbkopsgyouuebh.tif,58,0.0666666666666667,0.0666666666666667,1.18333333333333,1487375.4623231,1487376.0166964,74,1487375.5335429,1487375.597864,1487376.0231767,1487377.2048539,NaN,NaN
120,11,20,categorization,0,kitchen,SHINEd_sun_aadbddgrdsjugojn.tif,64,0.0666666666666667,0.0666666666666667,1.65,1487377.2107921,1487378.0174665,70,1487377.2812899,1487377.3457155,1487378.0227066,1487379.6710437,NaN,NaN
120,12,20,categorization,0,kitchen,SHINEd_sun_aqeaevwwwjoqhzvl.tif,100,0.0666666666666667,0.0666666666666667,1.33333333333333,1487379.6770595,1487380.3034227,70,1487379.748173,1487379.8123666,1487380.3086382,1487381.6403105,NaN,NaN
120,13,20,categorization,0,kitchen,SHINEd_sun_aexklacwqwezaorf.tif,84,0.0666666666666667,0.0666666666666667,0.95,1487381.6465859,1487382.353393,74,1487381.7179778,1487381.7829592,1487382.3588412,1487383.3071797,NaN,NaN
120,14,20,categorization,0,kitchen,SHINEd_sun_avszsnwsbuqfgzbn.tif,104,0.0666666666666667,0.0666666666666667,1.56666666666667,1487383.3130593,1487383.9833296,70,1487383.3841527,1487383.4483857,1487383.9892145,1487385.5542183,NaN,NaN
120,15,20,categorization,0,kitchen,SHINEd_sun_adgqasybjyktddhj.tif,78,0.0666666666666667,0.0666666666666667,1.91666666666667,1487385.5607966,1487386.382157,70,1487385.6319603,1487385.6961168,1487386.3879808,1487388.3029842,NaN,NaN
120,16,20,categorization,0,bathroom,SHINEd_sun_apeeialkgkuxddgh.tif,42,0.0666666666666667,0.0666666666666667,1.75,1487388.3092698,1487388.9308965,74,1487388.3804175,1487388.4447059,1487388.9370342,1487390.6853736,NaN,NaN
120,17,20,categorization,0,bathroom,SHINEd_sun_ajlawzvmubibwbpy.tif,30,0.0666666666666667,0.0666666666666667,0.966666666666667,1487390.6916006,1487391.3840941,74,1487390.7630766,1487390.8267149,1487391.3902488,1487392.3552531,NaN,NaN
120,18,20,categorization,0,bathroom,SHINEd_sun_aggnnqpdorgxpvce.tif,21,0.0666666666666667,0.0666666666666667,1.15,1487392.3614256,1487393.4940228,74,1487392.4326258,1487392.4982968,1487393.4995805,1487394.6479267,NaN,NaN
120,19,20,categorization,0,bathroom,SHINEd_sun_agguqiubmwhqqunb.tif,22,0.0666666666666667,0.0666666666666667,0.733333333333333,1487394.6539999,1487395.5466265,74,1487394.7248845,1487394.7895614,1487395.5521971,1487396.2838679,NaN,NaN
120,20,20,categorization,0,bathroom,SHINEd_sun_acegryoqftbzowsg.tif,17,0.0666666666666667,0.0666666666666667,1.41666666666667,1487396.2900127,1487397.0220979,74,1487396.3612956,1487396.4252985,1487397.0277411,1487398.4427465,NaN,NaN
120,21,20,categorization,0,bathroom,SHINEd_sun_aspsyogrekjtfozg.tif,50,0.0666666666666667,0.0666666666666667,0.916666666666667,1487398.449239,1487399.1221782,74,1487398.5197085,1487398.585735,1487399.1281219,1487400.0431272,NaN,NaN
120,22,20,categorization,0,kitchen,SHINEd_sun_agubuxuukhzyzpdp.tif,88,0.0666666666666667,0.0666666666666667,1.05,1487400.0488353,1487400.9586261,70,1487400.1194118,1487400.1837885,1487400.9641694,1487402.0125069,NaN,NaN
120,23,20,categorization,0,kitchen,SHINEd_sun_acgtpgfybqjmzeyw.tif,75,0.0666666666666667,0.0666666666666667,1,1487402.018206,1487402.7131535,70,1487402.0891509,1487402.1535903,1487402.7193467,1487403.7176843,NaN,NaN
120,24,20,categorization,0,bathroom,SHINEd_sun_ahaulkltgpkeeemi.tif,26,0.0666666666666667,0.0666666666666667,0.766666666666667,1487403.7239465,1487404.3729511,74,1487403.795163,1487403.8599292,1487404.3791165,1487405.144125,NaN,NaN
120,25,20,categorization,0,kitchen,SHINEd_sun_abftihopvusyfakt.tif,71,0.0666666666666667,0.0666666666666667,0.783333333333333,1487405.1496402,1487406.0860418,70,1487405.2218929,1487405.2851205,1487406.0914977,1487406.8731696,NaN,NaN
120,26,20,categorization,0,bathroom,SHINEd_sun_aqrpegblszgcoujh.tif,48,0.0666666666666667,0.0666666666666667,1.45,1487406.8804042,1487407.5849299,74,1487406.9514657,1487407.0155809,1487407.5903925,1487409.038731,NaN,NaN
120,27,20,categorization,0,bathroom,SHINEd_sun_ahcvzmoyaycdoftf.tif,27,0.0666666666666667,0.0666666666666667,1.15,1487409.0447436,1487409.7367756,74,1487409.1157762,1487409.1802942,1487409.7419636,1487410.8903015,NaN,NaN
120,28,20,categorization,0,bathroom,SHINEd_sun_apjevzvycyhuqghb.tif,43,0.0666666666666667,0.0666666666666667,1.35,1487410.8965806,1487411.647341,70,1487410.9674898,1487411.0315816,1487411.6535649,1487413.0019037,NaN,NaN
120,29,20,categorization,0,bathroom,SHINEd_sun_aapitsgbtktqubfy.tif,12,0.0666666666666667,0.0666666666666667,1.26666666666667,1487413.0082089,1487414.6567093,74,1487413.0791837,1487413.1435021,1487414.6628429,1487415.927847,NaN,NaN
120,30,20,categorization,0,kitchen,SHINEd_sun_afuyedyxivkhecmu.tif,85,0.0666666666666667,0.0666666666666667,1.05,1487415.9336323,1487416.8460847,70,1487416.0045426,1487416.0699864,1487416.8526546,1487417.9009917,NaN,NaN
120,31,20,categorization,0,bathroom,SHINEd_sun_aclfzgynxzxlbepz.tif,19,0.0666666666666667,0.0666666666666667,0.8,1487417.9077341,1487418.6246212,74,1487417.979235,1487418.0429958,1487418.6302125,1487419.4285514,NaN,NaN
120,32,20,categorization,0,kitchen,SHINEd_sun_agorklincwxrdtga.tif,87,0.0666666666666667,0.0666666666666667,0.866666666666667,1487419.4346333,1487420.5792944,70,1487419.5055641,1487419.5702565,1487420.5843818,1487421.4493871,NaN,NaN
120,33,20,categorization,0,bathroom,SHINEd_sun_aavhrsfjbserjtht.tif,13,0.0666666666666667,0.0666666666666667,0.866666666666667,1487421.4555924,1487422.2373188,74,1487421.5264226,1487421.5921148,1487422.2435596,1487423.1085633,NaN,NaN
120,34,20,categorization,0,bathroom,SHINEd_sun_atstyziqcmkahyxk.tif,51,0.0666666666666667,0.0666666666666667,1.53333333333333,1487423.1147125,1487424.2150618,74,1487423.1854663,1487423.2503644,1487424.220524,1487425.7522038,NaN,NaN
120,35,20,categorization,0,kitchen,SHINEd_sun_ahpczsiumwwocjkv.tif,92,0.0666666666666667,0.0666666666666667,1.66666666666667,1487425.7586666,1487426.6473727,70,1487425.830308,1487425.8953575,1487426.6532874,1487428.3183005,NaN,NaN
120,36,20,categorization,0,kitchen,SHINEd_sun_admlmbcdswaszruo.tif,79,0.0666666666666667,0.0666666666666667,1.95,1487428.3246522,1487429.0014532,70,1487428.3967357,1487428.4600817,1487429.006663,1487430.9550005,NaN,NaN
120,37,20,categorization,0,bathroom,SHINEd_sun_acgyywnybuveqsro.tif,18,0.0666666666666667,0.0666666666666667,1.3,1487430.9627622,1487431.5898479,74,1487431.0335237,1487431.0983943,1487431.5953891,1487432.8937324,NaN,NaN
120,38,20,categorization,0,bathroom,SHINEd_sun_ahqjwnzgolcaoidx.tif,29,0.0666666666666667,0.0666666666666667,1.25,1487432.899789,1487433.5738073,74,1487432.9706797,1487433.0361483,1487433.5790274,1487434.8273651,NaN,NaN
120,39,20,categorization,0,kitchen,SHINEd_sun_abrcnpqqhmjwekyf.tif,73,0.0666666666666667,0.0666666666666667,1.2,1487434.833664,1487435.4304077,70,1487434.9049001,1487434.9692051,1487435.436047,1487436.6343845,NaN,NaN
120,40,20,categorization,0,kitchen,SHINEd_labelme_kxvouciolcpqplr.tif,62,0.0666666666666667,0.0666666666666667,1.61666666666667,1487436.6405147,1487437.4199055,70,1487436.7115568,1487436.7757682,1487437.4254499,1487439.0404539,NaN,NaN
120,41,20,categorization,0,kitchen,SHINEd_sun_aymvwlarqodbwuoc.tif,107,0.0666666666666667,0.0666666666666667,1.65,1487439.0461839,1487440.2126902,70,1487439.1176816,1487439.1817877,1487440.2175492,1487441.8658875,NaN,NaN
120,42,20,categorization,0,kitchen,SHINEd_sun_ahspylgoovwmwvgk.tif,93,0.0666666666666667,0.0666666666666667,0.9,1487441.8721422,1487442.5273748,70,1487441.942929,1487442.0076534,1487442.5329206,1487443.4312591,NaN,NaN
120,43,20,categorization,0,kitchen,SHINEd_sun_abdxkyyxwfskuaqb.tif,70,0.0666666666666667,0.0666666666666667,0.816666666666667,1487443.437615,1487444.1914116,70,1487443.5086205,1487443.5729349,1487444.1972407,1487445.0122452,NaN,NaN
120,44,20,categorization,0,kitchen,SHINEd_sun_akchetnepxlcxhsu.tif,97,0.0666666666666667,0.0666666666666667,1.86666666666667,1487445.0177303,1487445.7477383,70,1487445.0894189,1487445.1541216,1487445.7528867,1487447.6178919,NaN,NaN
120,45,20,categorization,0,kitchen,SHINEd_sun_aaxxjlsuzvqlgylf.tif,68,0.0666666666666667,0.0666666666666667,1.38333333333333,1487447.624089,1487448.2544244,70,1487447.6953116,1487447.7596662,1487448.2600542,1487449.6417254,NaN,NaN
120,46,20,categorization,0,bathroom,SHINEd_sun_agrwbmhcpmfuwmsg.tif,24,0.0666666666666667,0.0666666666666667,1.63333333333333,1487449.6479899,1487450.229179,70,1487449.720638,1487449.7834241,1487450.234393,1487451.8660701,NaN,NaN
120,47,20,categorization,0,bathroom,SHINEd_sun_abapwbhyhkfixyex.tif,14,0.0666666666666667,0.0666666666666667,1.56666666666667,1487451.8725286,1487452.6262934,70,1487451.9434567,1487452.0078833,1487452.6322908,1487454.1973021,NaN,NaN
120,48,20,categorization,0,kitchen,SHINEd_sun_amjjdeyrggfqgmom.tif,99,0.0666666666666667,0.0666666666666667,1.21666666666667,1487454.2047237,1487454.8406141,70,1487454.2774488,1487454.3403836,1487454.8465756,1487456.061581,NaN,NaN
120,49,20,categorization,0,bathroom,SHINEd_sun_amzlamotzwfkwjco.tif,37,0.0666666666666667,0.0666666666666667,0.716666666666667,1487456.0684679,1487456.7351577,74,1487456.1399115,1487456.204122,1487456.741382,1487457.4563869,NaN,NaN
120,50,20,categorization,0,bathroom,SHINEd_sun_aoybiabnpadelefl.tif,41,0.0666666666666667,0.0666666666666667,0.966666666666667,1487457.4622189,1487458.1307166,74,1487457.5331636,1487457.5975737,1487458.1359453,1487459.1010221,NaN,NaN
