sub_num,trial,block,task,is_practice,category,image,texture,duration,mask_dur,jitter,stim_time,time_of_resp,trial_response,mask_time,fix_time,jit_onset,trial_end,trial_accuracy,RT
120,1,6,categorization,0,kitchen,SHINEd_sun_ajcbwwvdlsvjyzje.tif,95,0.0666666666666667,0.0666666666666667,0.966666666666667,1485740.7829816,1485741.5211019,70,1485740.8536277,1485740.9198762,1485741.5266139,1485742.4916181,NaN,NaN
120,2,6,categorization,0,kitchen,SHINEd_sun_aamedkxepzlwuxes.tif,65,0.0666666666666667,0.0666666666666667,1.73333333333333,1485742.497547,1485780.6657628,70,1485742.5682384,1485742.6326992,1485780.6723078,1485782.4039899,NaN,NaN
120,3,6,categorization,0,bathroom,SHINEd_sun_aghyqhbptboemmoq.tif,23,0.0666666666666667,0.0666666666666667,1.91666666666667,1485782.4103722,1485783.5206776,74,1485782.4810852,1485782.5458183,1485783.5264873,1485785.4414911,NaN,NaN
120,4,6,categorization,0,bathroom,SHINEd_sun_atstyziqcmkahyxk.tif,51,0.0666666666666667,0.0666666666666667,0.766666666666667,1485785.4480609,1485786.2268858,74,1485785.5193859,1485785.5838505,1485786.2327765,1485786.9977807,NaN,NaN
120,5,6,categorization,0,kitchen,SHINEd_sun_acwjdupvyjsugpay.tif,76,0.0666666666666667,0.0666666666666667,0.916666666666667,1485787.0036709,1485789.5166763,70,1485787.0756383,1485787.1391513,1485789.523062,1485790.4380667,NaN,NaN
120,6,6,categorization,0,kitchen,SHINEd_sun_ajkqhtgcbgpcwrwn.tif,96,0.0666666666666667,0.0666666666666667,1.18333333333333,1485790.444493,1485791.217312,70,1485790.5169436,1485790.5799506,1485791.2227647,1485792.4044368,NaN,NaN
120,7,6,categorization,0,kitchen,SHINEd_sun_aarfiyshqohlwkmo.tif,67,0.0666666666666667,0.0666666666666667,1.8,1485792.4106331,1485793.1950886,70,1485792.4814442,1485792.5462821,1485793.200607,1485794.9989449,NaN,NaN
120,8,6,categorization,0,kitchen,SHINEd_sun_ahdycvpopffkzzsu.tif,90,0.0666666666666667,0.0666666666666667,0.883333333333333,1485795.0050809,1485795.8498209,74,1485795.0763701,1485795.1420855,1485795.8549774,1485796.7366473,NaN,NaN
120,9,6,categorization,0,kitchen,SHINEd_sun_adgqasybjyktddhj.tif,78,0.0666666666666667,0.0666666666666667,1.83333333333333,1485796.7424517,1485797.3430574,70,1485796.8132077,1485796.8776934,1485797.3483571,1485799.180029,NaN,NaN
120,10,6,categorization,0,kitchen,SHINEd_sun_aaxxjlsuzvqlgylf.tif,68,0.0666666666666667,0.0666666666666667,1.76666666666667,1485799.1862641,1485799.9975101,70,1485799.257638,1485799.3215332,1485800.0029189,1485801.7679248,NaN,NaN
120,11,6,categorization,0,kitchen,SHINEd_sun_axyyrmzcupyhlivc.tif,106,0.0666666666666667,0.0666666666666667,0.983333333333333,1485801.7745287,1485802.4644288,70,1485801.845302,1485801.9109945,1485802.4697289,1485803.4514,NaN,NaN
120,12,6,categorization,0,bathroom,SHINEd_sun_agrwbmhcpmfuwmsg.tif,24,0.0666666666666667,0.0666666666666667,0.883333333333333,1485803.4573174,1485804.0579355,74,1485803.5293222,1485803.5931758,1485804.0634444,1485804.9451153,NaN,NaN
120,13,6,categorization,0,bathroom,SHINEd_sun_aclfzgynxzxlbepz.tif,19,0.0666666666666667,0.0666666666666667,0.85,1485804.951063,1485805.5668015,74,1485805.0234967,1485805.086514,1485805.5720366,1485806.4203891,NaN,NaN
120,14,6,categorization,0,kitchen,SHINEd_sun_aenotlpyftoioydp.tif,82,0.0666666666666667,0.0666666666666667,0.733333333333333,1485806.4281063,1485807.0834399,70,1485806.4988106,1485806.5640727,1485807.0895113,1485807.8211827,NaN,NaN
120,15,6,categorization,0,kitchen,SHINEd_sun_acfmftudsenhrfhy.tif,74,0.0666666666666667,0.0666666666666667,1.88333333333333,1485807.828095,1485808.5403393,70,1485807.89912,1485807.9633265,1485808.5462267,1485810.4278986,NaN,NaN
120,16,6,categorization,0,kitchen,SHINEd_sun_auaiucuqpdausiva.tif,101,0.0666666666666667,0.0666666666666667,0.816666666666667,1485810.4346058,1485811.6036693,70,1485810.5058022,1485810.5704423,1485811.6092953,1485812.4242993,NaN,NaN
120,17,6,categorization,0,kitchen,SHINEd_labelme_brsyyvweiuaazfr.tif,61,0.0666666666666667,0.0666666666666667,1.9,1485812.4305754,1485813.0863414,70,1485812.5016072,1485812.5658679,1485813.0918663,1485814.9902047,NaN,NaN
120,18,6,categorization,0,kitchen,SHINEd_sun_acxkpeoqbwcxfvip.tif,77,0.0666666666666667,0.0666666666666667,0.983333333333333,1485814.9962273,1485815.6815778,70,1485815.0669708,1485815.1328347,1485815.6877378,1485816.669487,NaN,NaN
120,19,6,categorization,0,bathroom,SHINEd_sun_anhioqovhscjqqwb.tif,38,0.0666666666666667,0.0666666666666667,0.75,1485816.6756626,1485817.2435185,74,1485816.74803,1485816.8114384,1485817.249708,1485817.9980454,NaN,NaN
120,20,6,categorization,0,bathroom,SHINEd_sun_apynckhmoftszqoq.tif,47,0.0666666666666667,0.0666666666666667,1.6,1485818.0040159,1485818.5633357,74,1485818.0749181,1485818.139296,1485818.5689557,1485820.1672942,NaN,NaN
120,21,6,categorization,0,kitchen,SHINEd_sun_ahywdevtimnqcsln.tif,94,0.0666666666666667,0.0666666666666667,1.58333333333333,1485820.173561,1485821.0127795,70,1485820.2449514,1485820.3088184,1485821.0183591,1485822.6000287,NaN,NaN
120,22,6,categorization,0,kitchen,SHINEd_sun_abrcnpqqhmjwekyf.tif,73,0.0666666666666667,0.0666666666666667,1.11666666666667,1485822.6061373,1485823.5102387,70,1485822.6772126,1485822.7415202,1485823.5153072,1485824.630311,NaN,NaN
120,23,6,categorization,0,kitchen,SHINEd_sun_abdxkyyxwfskuaqb.tif,70,0.0666666666666667,0.0666666666666667,1.53333333333333,1485824.6365356,1485825.4293406,70,1485824.7079606,1485824.7730006,1485825.4344357,1485826.9661061,NaN,NaN
120,24,6,categorization,0,kitchen,SHINEd_sun_afuyedyxivkhecmu.tif,85,0.0666666666666667,0.0666666666666667,1.48333333333333,1485826.9721743,1485827.793441,70,1485827.044423,1485827.1083685,1485827.7994195,1485829.2810896,NaN,NaN
120,25,6,categorization,0,bathroom,SHINEd_sun_apeeialkgkuxddgh.tif,42,0.0666666666666667,0.0666666666666667,1.1,1485829.287231,1485829.8757517,74,1485829.3583783,1485829.422607,1485829.8818593,1485830.9801976,NaN,NaN
120,26,6,categorization,0,bathroom,SHINEd_sun_alotolagknyrgtsk.tif,35,0.0666666666666667,0.0666666666666667,0.933333333333333,1485830.9860431,1485831.7815121,74,1485831.0567502,1485831.1213464,1485831.7867123,1485832.7183837,NaN,NaN
120,27,6,categorization,0,kitchen,SHINEd_sun_ahljzhgcdpomplvg.tif,91,0.0666666666666667,0.0666666666666667,0.816666666666667,1485832.7247835,1485833.5117205,70,1485832.7960115,1485832.8604919,1485833.5172755,1485834.3322805,NaN,NaN
120,28,6,categorization,0,bathroom,SHINEd_sun_ahqjwnzgolcaoidx.tif,29,0.0666666666666667,0.0666666666666667,1.78333333333333,1485834.3387098,1485835.0039553,74,1485834.409465,1485834.4742979,1485835.0101393,1485836.7918094,NaN,NaN
120,29,6,categorization,0,kitchen,SHINEd_sun_aapllqyqlykszopd.tif,66,0.0666666666666667,0.0666666666666667,0.766666666666667,1485836.7997568,1485837.5327621,70,1485836.8710044,1485836.93524,1485837.538477,1485838.3034823,NaN,NaN
120,30,6,categorization,0,kitchen,SHINEd_sun_aqeaevwwwjoqhzvl.tif,100,0.0666666666666667,0.0666666666666667,1.45,1485838.3097012,1485839.106058,70,1485838.3805784,1485838.4452794,1485839.1114046,1485840.559742,NaN,NaN
120,31,6,categorization,0,kitchen,SHINEd_sun_aymvwlarqodbwuoc.tif,107,0.0666666666666667,0.0666666666666667,0.75,1485840.5668634,1485841.2904767,74,1485840.6382142,1485840.7021225,1485841.2959242,1485842.0442627,NaN,NaN
120,32,6,categorization,0,bathroom,SHINEd_sun_agyqfjcfkdcydepw.tif,25,0.0666666666666667,0.0666666666666667,1.36666666666667,1485842.0501206,1485842.769681,74,1485842.1209226,1485842.1857275,1485842.7752724,1485844.1402756,NaN,NaN
120,33,6,categorization,0,bathroom,SHINEd_sun_abjtwfukuwddzted.tif,15,0.0666666666666667,0.0666666666666667,0.75,1485844.1464828,1485844.8320335,74,1485844.2187515,1485844.2818991,1485844.8373614,1485845.5857092,NaN,NaN
120,34,6,categorization,0,bathroom,SHINEd_sun_asfwthctfqerjvxr.tif,49,0.0666666666666667,0.0666666666666667,0.783333333333333,1485845.5926878,1485846.4918825,74,1485845.6651155,1485845.7277768,1485846.4971606,1485847.2788314,NaN,NaN
120,35,6,categorization,0,kitchen,SHINEd_sun_aegoxogugdkwpmpj.tif,80,0.0666666666666667,0.0666666666666667,1.11666666666667,1485847.2851937,1485848.0880102,70,1485847.355948,1485847.4208107,1485848.0941071,1485849.2091122,NaN,NaN
120,36,6,categorization,0,bathroom,SHINEd_sun_aljolscmmzydegqp.tif,33,0.0666666666666667,0.0666666666666667,0.766666666666667,1485849.2150583,1485849.9293973,74,1485849.286379,1485849.3504744,1485849.9355318,1485850.7005359,NaN,NaN
120,37,6,categorization,0,kitchen,SHINEd_sun_aeqdocilnnpuvuhx.tif,83,0.0666666666666667,0.0666666666666667,0.716666666666667,1485850.7062558,1485851.7490131,70,1485850.7773226,1485850.8418944,1485851.7544058,1485852.4694093,NaN,NaN
120,38,6,categorization,0,bathroom,SHINEd_sun_aoybiabnpadelefl.tif,41,0.0666666666666667,0.0666666666666667,1.33333333333333,1485852.4755378,1485853.271654,74,1485852.5469642,1485852.611993,1485853.2767528,1485854.6084229,NaN,NaN
120,39,6,categorization,0,bathroom,SHINEd_sun_acduarbnmmoglmiv.tif,16,0.0666666666666667,0.0666666666666667,1.75,1485854.616061,1485855.3757611,74,1485854.6871018,1485854.7526347,1485855.3813046,1485857.129643,NaN,NaN
120,40,6,categorization,0,kitchen,SHINEd_sun_aehawpgmrlhlvcow.tif,81,0.0666666666666667,0.0666666666666667,1.13333333333333,1485857.1358952,1485857.971065,70,1485857.207382,1485857.2719249,1485857.9763506,1485859.1080209,NaN,NaN
120,41,6,categorization,0,kitchen,SHINEd_sun_aexklacwqwezaorf.tif,84,0.0666666666666667,0.0666666666666667,1.63333333333333,1485859.1136557,1485859.7680426,74,1485859.1846677,1485859.2490047,1485859.773174,1485861.4048458,NaN,NaN
120,42,6,categorization,0,kitchen,SHINEd_sun_agorklincwxrdtga.tif,87,0.0666666666666667,0.0666666666666667,1.43333333333333,1485861.4109594,1485862.1857172,70,1485861.48244,1485861.5466895,1485862.1918814,1485863.6235531,NaN,NaN
120,43,6,categorization,0,bathroom,SHINEd_sun_afcoljnjfoxjtgja.tif,20,0.0666666666666667,0.0666666666666667,1.83333333333333,1485863.6295237,1485864.3163456,74,1485863.7003977,1485863.7644114,1485864.3216743,1485866.1533459,NaN,NaN
120,44,6,categorization,0,bathroom,SHINEd_sun_ahaulkltgpkeeemi.tif,26,0.0666666666666667,0.0666666666666667,1.93333333333333,1485866.1597079,1485866.9963041,74,1485866.2323131,1485866.2949598,1485867.0022506,1485868.9339212,NaN,NaN
120,45,6,categorization,0,bathroom,SHINEd_sun_anryaplzeujmzfkd.tif,39,0.0666666666666667,0.0666666666666667,1.26666666666667,1485868.9407321,1485869.6835812,74,1485869.0117347,1485869.0776764,1485869.6888071,1485870.9538109,NaN,NaN
120,46,6,categorization,0,bathroom,SHINEd_sun_ambriybtogmepttm.tif,36,0.0666666666666667,0.0666666666666667,1.86666666666667,1485870.9601624,1485871.7180214,74,1485871.031236,1485871.0958829,1485871.7235688,1485873.5885729,NaN,NaN
120,47,6,categorization,0,kitchen,SHINEd_sun_abpwyqmlzafvklqo.tif,72,0.0666666666666667,0.0666666666666667,1.41666666666667,1485873.5953281,1485874.7600138,70,1485873.6667366,1485873.730746,1485874.7664116,1485876.1814163,NaN,NaN
120,48,6,categorization,0,bathroom,SHINEd_sun_axyrejkiiaqiurjk.tif,59,0.0666666666666667,0.0666666666666667,1.11666666666667,1485876.1881228,1485876.9955939,74,1485876.2592705,1485876.323413,1485877.0008258,1485878.1158298,NaN,NaN
120,49,6,categorization,0,kitchen,SHINEd_sun_admlmbcdswaszruo.tif,79,0.0666666666666667,0.0666666666666667,1.8,1485878.1232563,1485879.028517,70,1485878.1947364,1485878.2585725,1485879.0337027,1485880.8320396,NaN,NaN
120,50,6,categorization,0,bathroom,SHINEd_sun_ausgutylgojavyoq.tif,53,0.0666666666666667,0.0666666666666667,1.25,1485880.8380695,1485881.4511025,74,1485880.9090569,1485880.9737571,1485881.4563454,1485882.7046827,NaN,NaN
