sub_num,trial,block,task,is_practice,category,image,texture,duration,mask_dur,jitter,stim_time,time_of_resp,trial_response,mask_time,fix_time,jit_onset,trial_end,trial_accuracy,RT
121,1,0,complexity,1,bathroom,bathroom_practice3.tif,223,1.5,0,1.56666666666667,8093.950787416,8098.161004666,2,NaN,8098.167009041,8098.185242375,8099.745325583,NaN,NaN
121,2,0,complexity,1,bathroom,bathroom_practice5.tif,225,1.5,0,1.1,8099.766842375,8102.608970125,2,NaN,8102.614959791,8102.633403375,8103.726820041,NaN,NaN
121,3,0,complexity,1,bathroom,bathroom_practice2.tif,222,1.5,0,1.51666666666667,8103.735360208,8107.657349541,5,NaN,8107.663116416,8107.681411,8109.191480458,NaN,NaN
121,4,0,complexity,1,bathroom,bathroom_practice4.tif,224,1.5,0,1.15,8109.202089333,8118.569229333,2,NaN,8118.575136208,8118.593517166,8119.736938958,NaN,NaN
121,5,0,complexity,1,bathroom,bathroom_practice1.tif,221,1.5,0,1.26666666666667,8119.748915333,8123.704816583,3,NaN,8123.7108605,8123.729156375,8124.989245083,NaN,NaN
121,1,1,complexity,0,bathroom,sun_abapwbhyhkfixyex.tif,124,1.5,0,0.75,8128.945848291,8132.336988416,6,NaN,8132.342934208,8132.361273833,8133.10461475,NaN,NaN
121,2,1,complexity,0,bathroom,sun_akiytfaagpdsphgz.tif,141,1.5,0,1.28333333333333,8133.109165125,8135.716549291,5,NaN,8135.745854333,8135.768996125,8137.045692625,NaN,NaN
121,3,1,complexity,0,bathroom,sun_axxbkopsgyouuebh.tif,168,1.5,0,1.76666666666667,8137.057818666,8140.320720708,2,NaN,8140.326914,8140.345309458,8142.105386625,NaN,NaN
121,4,1,complexity,0,bathroom,sun_abjtwfukuwddzted.tif,125,1.5,0,1.28333333333333,8142.126172791,8145.4568405,2,NaN,8145.485965958,8145.509760125,8146.786495708,NaN,NaN
121,5,1,complexity,0,bathroom,sun_amzlamotzwfkwjco.tif,147,1.5,0,1.8,8146.805552166,8150.089385583,3,NaN,8150.094919875,8150.11315,8151.906547625,NaN,NaN
121,6,1,complexity,0,bathroom,sun_aofnryafpsjimzsb.tif,150,1.5,0,0.716666666666667,8151.926236208,8155.34246175,6,NaN,8155.370932333,8155.391231833,8156.10124175,NaN,NaN
121,7,1,complexity,0,bathroom,sun_asfwthctfqerjvxr.tif,159,1.5,0,1,8156.1068705,8159.784884583,6,NaN,8159.79078075,8159.808988375,8160.802332,NaN,NaN
121,8,1,complexity,0,bathroom,sun_apjevzvycyhuqghb.tif,153,1.5,0,1.21666666666667,8160.807021958,8163.734536666,2,NaN,8163.764206541,8163.788048541,8164.998092583,NaN,NaN
121,9,1,complexity,0,bathroom,sun_aapitsgbtktqubfy.tif,122,1.5,0,1.55,8165.011439958,8168.67275425,2,NaN,8168.678789708,8168.697112833,8170.240517333,NaN,NaN
121,10,1,complexity,0,bathroom,sun_aclfzgynxzxlbepz.tif,129,1.5,0,2,8170.259341166,8174.304980875,2,NaN,8174.310871375,8174.329085,8176.322479166,NaN,NaN
121,11,1,complexity,0,bathroom,sun_aqrpegblszgcoujh.tif,158,1.5,0,0.716666666666667,8176.342540166,8179.426126458,2,NaN,8179.454754916,8179.478143,8180.188149791,NaN,NaN
121,12,1,complexity,0,bathroom,sun_awnqiikzaispgmwo.tif,166,1.5,0,0.933333333333333,8180.1927665,8183.713427541,5,NaN,8183.718905125,8183.737247708,8184.663925125,NaN,NaN
121,13,1,complexity,0,bathroom,sun_axyrejkiiaqiurjk.tif,169,1.5,0,1.58333333333333,8184.668489291,8187.646355458,4,NaN,8187.675344625,8187.698874666,8189.275627458,NaN,NaN
121,14,1,complexity,0,bathroom,sun_aspsyogrekjtfozg.tif,160,1.5,0,0.9,8189.29122775,8194.384945916,6,NaN,8194.390683625,8194.408972333,8195.302314125,NaN,NaN
121,15,1,complexity,0,bathroom,sun_anryaplzeujmzfkd.tif,149,1.5,0,1.16666666666667,8195.307078375,8198.672503625,6,NaN,8198.678531958,8198.696953333,8199.857053333,NaN,NaN
121,16,1,complexity,0,bathroom,sun_ausgutylgojavyoq.tif,163,1.5,0,0.733333333333333,8199.86761275,8202.401487458,3,NaN,8202.407037208,8202.425321625,8203.1519985,NaN,NaN
121,17,1,complexity,0,bathroom,sun_ahijqszoswveeyji.tif,138,1.5,0,1.15,8203.156622166,8206.013002916,7,NaN,8206.042413,8206.06422725,8207.207592291,NaN,NaN
121,18,1,complexity,0,bathroom,sun_acgyywnybuveqsro.tif,128,1.5,0,1.01666666666667,8207.217722,8210.136868958,2,NaN,8210.14262,8210.161015333,8211.171110583,NaN,NaN
121,19,1,complexity,0,bathroom,sun_aggnnqpdorgxpvce.tif,131,1.5,0,0.883333333333333,8211.1795135,8214.112371458,4,NaN,8214.118174791,8214.136583208,8215.013258333,NaN,NaN
121,20,1,complexity,0,bathroom,sun_avhrdrntsqrjzccq.tif,165,1.5,0,1.65,8215.017963,8217.68597225,3,NaN,8217.714651416,8217.736409208,8219.379804375,NaN,NaN
121,21,1,complexity,0,bathroom,sun_aghyqhbptboemmoq.tif,133,1.5,0,0.75,8219.393909833,8223.5373675,2,NaN,8223.543030458,8223.561350916,8224.304693583,NaN,NaN
121,22,1,complexity,0,bathroom,sun_acegryoqftbzowsg.tif,127,1.5,0,1.28333333333333,8224.308898583,8227.760349666,6,NaN,8227.766696541,8227.785009833,8229.061718333,NaN,NaN
121,23,1,complexity,0,bathroom,sun_ambriybtogmepttm.tif,146,1.5,0,1.25,8229.073977416,8232.016783625,5,NaN,8232.022422291,8232.040605833,8233.284015083,NaN,NaN
121,24,1,complexity,0,bathroom,sun_agrwbmhcpmfuwmsg.tif,134,1.5,0,0.833333333333333,8233.297811791,8236.433107375,4,NaN,8236.438600541,8236.456868375,8237.283542208,NaN,NaN
121,25,1,complexity,0,bathroom,sun_acduarbnmmoglmiv.tif,126,1.5,0,1.05,8237.287846833,8240.015813208,3,NaN,8240.045332541,8240.069239833,8241.112646083,NaN,NaN
121,1,2,complexity,0,bathroom,sun_apkxzenqapsujocq.tif,155,1.5,0,0.95,8244.808669541,8248.408254083,4,NaN,8248.414499125,8248.432793083,8249.376137291,NaN,NaN
121,2,2,complexity,0,bathroom,sun_afcoljnjfoxjtgja.tif,130,1.5,0,1.55,8249.388072708,8252.395817041,6,NaN,8252.421414291,8252.44213925,8253.985559708,NaN,NaN
121,3,2,complexity,0,bathroom,sun_agyqfjcfkdcydepw.tif,135,1.5,0,1.2,8254.002096875,8256.664345166,1,NaN,8256.692909708,8256.716287083,8257.90971,NaN,NaN
121,4,2,complexity,0,bathroom,sun_apkruvsevgegsdwp.tif,154,1.5,0,1.86666666666667,8257.921159583,8260.800478458,3,NaN,8260.806257541,8260.824556291,8262.684624791,NaN,NaN
121,5,2,complexity,0,bathroom,sun_alotolagknyrgtsk.tif,145,1.5,0,1.66666666666667,8262.703380166,8266.104973875,2,NaN,8266.111665041,8266.12995725,8267.790055666,NaN,NaN
121,6,2,complexity,0,bathroom,sun_axldvoqbuvuggfmq.tif,167,1.5,0,1.35,8267.80921325,8270.480046041,2,NaN,8270.5074635,8270.530716583,8271.874145958,NaN,NaN
121,7,2,complexity,0,bathroom,sun_aoybiabnpadelefl.tif,151,1.5,0,1.11666666666667,8271.892129208,8275.008348458,6,NaN,8275.014332541,8275.032679125,8276.14275925,NaN,NaN
121,8,2,complexity,0,bathroom,sun_apmqjbnwghzuhhzh.tif,156,1.5,0,0.95,8276.151541875,8281.54442125,6,NaN,8281.550544833,8281.56890775,8282.512248625,NaN,NaN
121,9,2,complexity,0,bathroom,sun_aleqenyvunhactkl.tif,142,1.5,0,1.03333333333333,8282.516828125,8285.864370583,4,NaN,8285.870342541,8285.888789458,8286.915543458,NaN,NaN
121,10,2,complexity,0,bathroom,sun_aunuadmjocsddsrl.tif,162,1.5,0,1.01666666666667,8286.923599916,8290.256324458,1,NaN,8290.262347666,8290.280641625,8291.290706875,NaN,NaN
121,11,2,complexity,0,bathroom,sun_agguqiubmwhqqunb.tif,132,1.5,0,1.81666666666667,8291.298884791,8294.136671791,5,NaN,8294.142254291,8294.160522666,8295.970606458,NaN,NaN
121,12,2,complexity,0,bathroom,sun_alkosphxlxwjwgjd.tif,144,1.5,0,1.8,8295.988822083,8299.145552708,2,NaN,8299.16442125,8299.187188416,8300.980604625,NaN,NaN
121,13,2,complexity,0,bathroom,sun_atstyziqcmkahyxk.tif,161,1.5,0,1.26666666666667,8301.000776708,8304.033699458,3,NaN,8304.0626085,8304.085989125,8305.34605575,NaN,NaN
121,14,2,complexity,0,bathroom,sun_azqyogdvyhahyram.tif,170,1.5,0,1.66666666666667,8305.364996,8307.9763215,4,NaN,8307.982147875,8308.000423291,8309.660501958,NaN,NaN
121,15,2,complexity,0,bathroom,sun_aljolscmmzydegqp.tif,143,1.5,0,1.93333333333333,8309.676816708,8312.357086041,4,NaN,8312.383633791,8312.407232958,8314.333955958,NaN,NaN
121,16,2,complexity,0,bathroom,sun_ahcvzmoyaycdoftf.tif,137,1.5,0,1.75,8314.353385625,8317.138124791,3,NaN,8317.160439291,8317.182223958,8318.925615416,NaN,NaN
121,17,2,complexity,0,bathroom,sun_aavhrsfjbserjtht.tif,123,1.5,0,0.766666666666667,8318.9442085,8322.30973275,4,NaN,8322.340933166,8322.362281041,8323.1222905,NaN,NaN
121,18,2,complexity,0,bathroom,sun_ajlawzvmubibwbpy.tif,140,1.5,0,1.43333333333333,8323.127001458,8325.824236333,5,NaN,8325.849123333,8325.874007583,8327.300748166,NaN,NaN
121,19,2,complexity,0,bathroom,sun_ahqjwnzgolcaoidx.tif,139,1.5,0,0.916666666666667,8327.316501583,8330.024242875,5,NaN,8330.030058666,8330.048385125,8330.958394416,NaN,NaN
121,20,2,complexity,0,bathroom,labelme_sfxiulhjbhlyiyt.tif,121,1.5,0,0.766666666666667,8330.962884916,8333.575977791,6,NaN,8333.59407875,8333.615697875,8334.375706666,NaN,NaN
121,21,2,complexity,0,bathroom,sun_apynckhmoftszqoq.tif,157,1.5,0,0.783333333333333,8334.380403666,8337.09078225,5,NaN,8337.114125875,8337.136199333,8337.912871833,NaN,NaN
121,22,2,complexity,0,bathroom,sun_anhioqovhscjqqwb.tif,148,1.5,0,1.31666666666667,8337.917492625,8341.049039583,2,NaN,8341.05484925,8341.073225583,8342.38329675,NaN,NaN
121,23,2,complexity,0,bathroom,sun_auzqhkafidnkrwmo.tif,164,1.5,0,1.1,8342.399975375,8346.4329725,6,NaN,8346.4386085,8346.456850583,8347.550266666,NaN,NaN
121,24,2,complexity,0,bathroom,sun_ahaulkltgpkeeemi.tif,136,1.5,0,1.26666666666667,8347.560058875,8351.128064,5,NaN,8351.134052833,8351.152431291,8352.412520708,NaN,NaN
121,25,2,complexity,0,bathroom,sun_apeeialkgkuxddgh.tif,152,1.5,0,0.933333333333333,8352.430468083,8355.24828875,4,NaN,8355.254113875,8355.27286425,8356.199541875,NaN,NaN
