sub_num,trial,block,task,is_practice,category,image,texture,duration,mask_dur,jitter,stim_time,time_of_resp,trial_response,mask_time,fix_time,jit_onset,trial_end,trial_accuracy,RT
104,6,0,typicality,1,kitchen,kitchen_practice2.tif,227,1.5,0,0.966666666666667,2982.641321958,2992.741692916,6,NaN,2992.764731958,2992.785912375,2993.746083,NaN,NaN
104,7,0,typicality,1,kitchen,kitchen_practice5.tif,230,1.5,0,1.58333333333333,2993.761235958,2997.437641625,4,NaN,2997.446813166,2997.465625083,2999.042505541,NaN,NaN
104,8,0,typicality,1,kitchen,kitchen_practice1.tif,226,1.5,0,1.03333333333333,2999.063208041,3003.950072916,3,NaN,3003.956105291,3003.9745325,3005.00125975,NaN,NaN
104,9,0,typicality,1,kitchen,kitchen_practice4.tif,229,1.5,0,1.68333333333333,3005.018214625,3009.84526625,2,NaN,3009.852005083,3009.87037725,3011.547114666,NaN,NaN
104,10,0,typicality,1,kitchen,kitchen_practice3.tif,228,1.5,0,1.45,3011.578014291,3015.261528833,5,NaN,3015.270093416,3015.288432375,3016.731852583,NaN,NaN
104,1,1,typicality,0,kitchen,sun_agubuxuukhzyzpdp.tif,198,1.5,0,0.733333333333333,3022.820630166,3026.53319,7,NaN,3026.53944125,3026.557831041,3027.284504291,NaN,NaN
104,2,1,typicality,0,kitchen,sun_ahpczsiumwwocjkv.tif,202,1.5,0,1.18333333333333,3027.289071791,3031.277214708,5,NaN,3031.282854583,3031.301126666,3032.477884916,NaN,NaN
104,3,1,typicality,0,kitchen,sun_aapllqyqlykszopd.tif,176,1.5,0,0.7,3032.486677916,3036.509463541,5,NaN,3036.515010625,3036.533557958,3037.226897458,NaN,NaN
104,4,1,typicality,0,kitchen,sun_auaiucuqpdausiva.tif,212,1.5,0,1.2,3037.231215125,3041.733452375,4,NaN,3041.739109375,3041.757549291,3042.950979958,NaN,NaN
104,5,1,typicality,0,kitchen,sun_adgqasybjyktddhj.tif,188,1.5,0,0.966666666666667,3042.963860166,3046.629300833,7,NaN,3046.634955666,3046.653340666,3047.613350041,NaN,NaN
104,6,1,typicality,0,kitchen,sun_aaxxjlsuzvqlgylf.tif,178,1.5,0,1.3,3047.617882666,3051.9737265,4,NaN,3051.979076833,3051.997279625,3053.290675208,NaN,NaN
104,7,1,typicality,0,kitchen,labelme_kxvouciolcpqplr.tif,172,1.5,0,1.65,3053.305862625,3057.356844666,4,NaN,3057.362762708,3057.381159416,3059.024602791,NaN,NaN
104,8,1,typicality,0,kitchen,sun_amjjdeyrggfqgmom.tif,210,1.5,0,1.63333333333333,3059.036134875,3062.941465291,3,NaN,3062.947368583,3062.965876875,3064.592649875,NaN,NaN
104,9,1,typicality,0,kitchen,sun_acfmftudsenhrfhy.tif,184,1.5,0,0.9,3064.608355791,3068.405398083,4,NaN,3068.410870625,3068.429227041,3069.322571208,NaN,NaN
104,10,1,typicality,0,kitchen,sun_aypmqwcualkenuoe.tif,219,1.5,0,0.95,3069.326951708,3075.341393833,3,NaN,3075.346906958,3075.365230791,3076.308571291,NaN,NaN
104,11,1,typicality,0,kitchen,sun_avszsnwsbuqfgzbn.tif,215,1.5,0,0.816666666666667,3076.313073541,3079.445146958,3,NaN,3079.453339,3079.4718445,3080.281855,NaN,NaN
104,12,1,typicality,0,kitchen,sun_aarfiyshqohlwkmo.tif,177,1.5,0,1.96666666666667,3080.286451583,3083.917255625,3,NaN,3083.922953458,3083.941398916,3085.901503833,NaN,NaN
104,13,1,typicality,0,kitchen,sun_aeqdocilnnpuvuhx.tif,193,1.5,0,0.783333333333333,3085.92063875,3088.813893458,2,NaN,3088.841770041,3088.864981666,3089.64165725,NaN,NaN
104,14,1,typicality,0,kitchen,sun_ahdycvpopffkzzsu.tif,200,1.5,0,0.733333333333333,3089.646122166,3093.260821083,3,NaN,3093.26677025,3093.285069208,3094.01174425,NaN,NaN
104,15,1,typicality,0,kitchen,sun_acgtpgfybqjmzeyw.tif,185,1.5,0,1.9,3094.016172625,3097.221579208,4,NaN,3097.227865375,3097.245927,3099.139340166,NaN,NaN
104,16,1,typicality,0,kitchen,sun_aqeaevwwwjoqhzvl.tif,211,1.5,0,0.75,3099.157278958,3104.109551125,3,NaN,3104.114990833,3104.133549541,3104.876890916,NaN,NaN
104,17,1,typicality,0,kitchen,sun_aenotlpyftoioydp.tif,192,1.5,0,0.916666666666667,3104.88117775,3108.509132,2,NaN,3108.514812,3108.533198208,3109.443207166,NaN,NaN
104,18,1,typicality,0,kitchen,sun_ajkqhtgcbgpcwrwn.tif,207,1.5,0,0.733333333333333,3109.447816708,3113.285177958,4,NaN,3113.290749291,3113.309021083,3114.035695416,NaN,NaN
104,19,1,typicality,0,kitchen,sun_acxkpeoqbwcxfvip.tif,187,1.5,0,1.81666666666667,3114.040285333,3117.165276541,4,NaN,3117.171511541,3117.189823416,3118.99986275,NaN,NaN
104,20,1,typicality,0,kitchen,labelme_rykdqxenmhulbdn.tif,173,1.5,0,1.16666666666667,3119.008604375,3122.129403791,6,NaN,3122.157755208,3122.180855416,3123.340948583,NaN,NaN
104,21,1,typicality,0,kitchen,sun_agorklincwxrdtga.tif,197,1.5,0,1.81666666666667,3123.350819458,3126.533561791,4,NaN,3126.539150541,3126.557500291,3128.367581,NaN,NaN
104,22,1,typicality,0,kitchen,sun_aexklacwqwezaorf.tif,194,1.5,0,1.35,3128.3853845,3132.213556708,2,NaN,3132.218944416,3132.237241125,3133.580669958,NaN,NaN
104,23,1,typicality,0,kitchen,sun_ahywdevtimnqcsln.tif,204,1.5,0,1.25,3133.599522125,3137.061323166,7,NaN,3137.066923041,3137.085497291,3138.328909,NaN,NaN
104,24,1,typicality,0,kitchen,sun_aamedkxepzlwuxes.tif,175,1.5,0,1.05,3138.34756825,3141.372492833,6,NaN,3141.378580166,3141.396932791,3142.440346375,NaN,NaN
104,25,1,typicality,0,kitchen,sun_ajcbwwvdlsvjyzje.tif,206,1.5,0,0.916666666666667,3142.448944875,3145.58850675,5,NaN,3145.594144625,3145.612429166,3146.522440333,NaN,NaN
104,1,2,typicality,0,kitchen,sun_awcpdzzznmweyyhv.tif,216,1.5,0,1.56666666666667,3151.249050708,3154.677328375,3,NaN,3154.683398958,3154.701753333,3156.261815083,NaN,NaN
104,2,2,typicality,0,kitchen,sun_aegoxogugdkwpmpj.tif,190,1.5,0,0.883333333333333,3156.280821083,3160.3495165,5,NaN,3160.355052583,3160.3733745,3161.250050541,NaN,NaN
104,3,2,typicality,0,kitchen,sun_aixorpehvfykdynp.tif,205,1.5,0,0.75,3161.254610583,3164.132394833,6,NaN,3164.160905666,3164.184036208,3164.927379125,NaN,NaN
104,4,2,typicality,0,kitchen,sun_aehawpgmrlhlvcow.tif,191,1.5,0,1.23333333333333,3164.932063583,3167.772690416,5,NaN,3167.800949541,3167.824198375,3169.05092125,NaN,NaN
104,5,2,typicality,0,kitchen,sun_acwjdupvyjsugpay.tif,186,1.5,0,0.85,3169.060887208,3172.861152541,7,NaN,3172.866734083,3172.885032958,3173.72837375,NaN,NaN
104,6,2,typicality,0,kitchen,labelme_brsyyvweiuaazfr.tif,171,1.5,0,0.916666666666667,3173.73271625,3176.572827958,6,NaN,3176.60101575,3176.624036458,3177.534042958,NaN,NaN
104,7,2,typicality,0,kitchen,sun_akchetnepxlcxhsu.tif,208,1.5,0,1.75,3177.538652791,3180.685139375,6,NaN,3180.69078525,3180.709210666,3182.452650291,NaN,NaN
104,8,2,typicality,0,kitchen,sun_ahljzhgcdpomplvg.tif,201,1.5,0,1.43333333333333,3182.470752,3185.856693083,4,NaN,3185.881902166,3185.902742625,3187.329503541,NaN,NaN
104,9,2,typicality,0,kitchen,sun_abpwyqmlzafvklqo.tif,182,1.5,0,0.783333333333333,3187.347513333,3190.15690525,5,NaN,3190.162465666,3190.180704708,3190.957379166,NaN,NaN
104,10,2,typicality,0,kitchen,sun_axyyrmzcupyhlivc.tif,217,1.5,0,1.76666666666667,3190.962088375,3196.4043165,4,NaN,3196.411125791,3196.42934325,3198.189404,NaN,NaN
104,11,2,typicality,0,kitchen,sun_auticobqsbwgoppi.tif,214,1.5,0,1.78333333333333,3198.206819708,3201.456325958,6,NaN,3201.48519675,3201.508749666,3203.285494458,NaN,NaN
104,12,2,typicality,0,kitchen,sun_aymvwlarqodbwuoc.tif,218,1.5,0,1.85,3203.304429208,3206.731837791,4,NaN,3206.740171375,3206.758571166,3208.601988708,NaN,NaN
104,13,2,typicality,0,kitchen,sun_ahspylgoovwmwvgk.tif,203,1.5,0,1.18333333333333,3208.617489791,3212.172889791,6,NaN,3212.178378208,3212.196648,3213.373375083,NaN,NaN
104,14,2,typicality,0,kitchen,sun_aggjlwcdjsjcaemh.tif,196,1.5,0,1.01666666666667,3213.383778833,3216.772485291,7,NaN,3216.778371166,3216.796618625,3217.80667525,NaN,NaN
104,15,2,typicality,0,kitchen,sun_aunzlwrbjumxhwdj.tif,213,1.5,0,1.65,3217.814377916,3220.484474958,1,NaN,3220.490125041,3220.508488708,3222.151881083,NaN,NaN
104,16,2,typicality,0,kitchen,sun_abrcnpqqhmjwekyf.tif,183,1.5,0,1.83333333333333,3222.169912791,3225.391588708,7,NaN,3225.420156083,3225.443566875,3227.270303,NaN,NaN
104,17,2,typicality,0,kitchen,sun_agzzivivdpnawacl.tif,199,1.5,0,1.58333333333333,3227.288797666,3230.320041083,5,NaN,3230.348088708,3230.371314041,3231.948075791,NaN,NaN
104,18,2,typicality,0,kitchen,sun_abftihopvusyfakt.tif,181,1.5,0,1.85,3231.965651833,3235.408144791,4,NaN,3235.436484583,3235.459547041,3237.302962208,NaN,NaN
104,19,2,typicality,0,kitchen,sun_afuyedyxivkhecmu.tif,195,1.5,0,0.766666666666667,3237.320451625,3241.332593,3,NaN,3241.338323791,3241.356657333,3242.1166685,NaN,NaN
104,20,2,typicality,0,kitchen,sun_aadbddgrdsjugojn.tif,174,1.5,0,0.716666666666667,3242.120902583,3245.597056541,2,NaN,3245.602500041,3245.620771041,3246.330778833,NaN,NaN
104,21,2,typicality,0,kitchen,sun_azmutvzbxypaceni.tif,220,1.5,0,1.38333333333333,3246.343225333,3249.397312625,6,NaN,3249.405771208,3249.424734291,3250.801480375,NaN,NaN
104,22,2,typicality,0,kitchen,sun_abdxkyyxwfskuaqb.tif,180,1.5,0,0.866666666666667,3250.819357375,3253.773100666,4,NaN,3253.7785405,3253.796756208,3254.656767125,NaN,NaN
104,23,2,typicality,0,kitchen,sun_akcjzhbbjlbogpdi.tif,209,1.5,0,1.4,3254.6612615,3258.100238916,5,NaN,3258.106102625,3258.124385625,3259.517825041,NaN,NaN
104,24,2,typicality,0,kitchen,sun_admlmbcdswaszruo.tif,189,1.5,0,1,3259.536518166,3262.796945,7,NaN,3262.80235325,3262.820609041,3263.813949458,NaN,NaN
104,25,2,typicality,0,kitchen,sun_abdenxonkemggwsq.tif,179,1.5,0,1.28333333333333,3263.818532875,3267.204419208,4,NaN,3267.210018125,3267.228170875,3268.504926333,NaN,NaN
