sub_num,trial,block,task,is_practice,category,image,texture,duration,mask_dur,jitter,stim_time,time_of_resp,trial_response,mask_time,fix_time,jit_onset,trial_end,trial_accuracy,RT
115,6,0,aesthetic,1,kitchen,kitchen_practice2.tif,227,1.5,0,1.08333333333333,13468.434773625,13473.058202709,4,NaN,13473.064075959,13473.082450042,13474.159160959,NaN,NaN
115,7,0,aesthetic,1,kitchen,kitchen_practice1.tif,226,1.5,0,1.06666666666667,13474.171355167,13477.266828959,3,NaN,13477.272298084,13477.290462584,13478.350517875,NaN,NaN
115,8,0,aesthetic,1,kitchen,kitchen_practice4.tif,229,1.5,0,1.11666666666667,13478.362388917,13481.770484292,3,NaN,13481.776066417,13481.794241625,13482.904306292,NaN,NaN
115,9,0,aesthetic,1,kitchen,kitchen_practice3.tif,228,1.5,0,0.95,13482.913847917,13485.874175542,5,NaN,13485.880060917,13485.898490625,13486.841829209,NaN,NaN
115,10,0,aesthetic,1,kitchen,kitchen_practice5.tif,230,1.5,0,0.9,13486.847038042,13490.354573167,5,NaN,13490.360189209,13490.378509334,13491.271849167,NaN,NaN
115,1,1,aesthetic,0,kitchen,sun_ahljzhgcdpomplvg.tif,201,1.5,0,1.48333333333333,13495.815919334,13498.790549042,4,NaN,13498.814236,13498.838167334,13500.314884042,NaN,NaN
115,2,1,aesthetic,0,kitchen,sun_afuyedyxivkhecmu.tif,195,1.5,0,1.46666666666667,13500.332245667,13503.515047625,4,NaN,13503.520349584,13503.538748334,13504.998804209,NaN,NaN
115,3,1,aesthetic,0,kitchen,sun_adgqasybjyktddhj.tif,188,1.5,0,0.766666666666667,13505.016804,13507.786115667,3,NaN,13507.792009209,13507.81035,13508.570356167,NaN,NaN
115,4,1,aesthetic,0,kitchen,sun_ahpczsiumwwocjkv.tif,202,1.5,0,1.16666666666667,13508.574851459,13511.938442,6,NaN,13511.944615334,13511.962977834,13513.123019834,NaN,NaN
115,5,1,aesthetic,0,kitchen,sun_agorklincwxrdtga.tif,197,1.5,0,1.6,13513.134004542,13515.882271792,6,NaN,13515.888017417,13515.90623825,13517.499625334,NaN,NaN
115,6,1,aesthetic,0,kitchen,sun_auaiucuqpdausiva.tif,212,1.5,0,1.68333333333333,13517.518878667,13520.820416167,3,NaN,13520.847140875,13520.871142125,13522.547847792,NaN,NaN
115,7,1,aesthetic,0,kitchen,sun_aapllqyqlykszopd.tif,176,1.5,0,1.5,13522.568111,13525.546084417,3,NaN,13525.573698959,13525.596696417,13527.090062709,NaN,NaN
115,8,1,aesthetic,0,kitchen,sun_awcpdzzznmweyyhv.tif,216,1.5,0,0.833333333333333,13527.0997605,13530.290479709,4,NaN,13530.296071792,13530.314568917,13531.14124075,NaN,NaN
115,9,1,aesthetic,0,kitchen,sun_aadbddgrdsjugojn.tif,174,1.5,0,0.9,13531.145790917,13533.994729209,4,NaN,13534.016539334,13534.039720084,13534.933058209,NaN,NaN
115,10,1,aesthetic,0,kitchen,sun_aegoxogugdkwpmpj.tif,190,1.5,0,0.933333333333333,13534.938573667,13538.266756834,4,NaN,13538.272852709,13538.291375584,13539.218048125,NaN,NaN
115,11,1,aesthetic,0,kitchen,sun_abrcnpqqhmjwekyf.tif,183,1.5,0,0.9,13539.223085917,13542.586924709,4,NaN,13542.592261084,13542.610592125,13543.503930917,NaN,NaN
115,12,1,aesthetic,0,kitchen,sun_avszsnwsbuqfgzbn.tif,215,1.5,0,0.85,13543.508298042,13546.563907334,5,NaN,13546.592203875,13546.613711125,13547.457050209,NaN,NaN
115,13,1,aesthetic,0,kitchen,labelme_kxvouciolcpqplr.tif,172,1.5,0,1.83333333333333,13547.462445709,13550.39807525,3,NaN,13550.428512625,13550.451780959,13552.278499,NaN,NaN
115,14,1,aesthetic,0,kitchen,sun_agzzivivdpnawacl.tif,199,1.5,0,0.733333333333333,13552.29629875,13555.203605834,3,NaN,13555.230582834,13555.253737917,13555.98040975,NaN,NaN
115,15,1,aesthetic,0,kitchen,sun_aunzlwrbjumxhwdj.tif,213,1.5,0,1.63333333333333,13555.986115334,13558.985351167,4,NaN,13559.013334584,13559.036791375,13560.663504792,NaN,NaN
115,16,1,aesthetic,0,kitchen,sun_aymvwlarqodbwuoc.tif,218,1.5,0,0.766666666666667,13560.683175667,13563.55951425,3,NaN,13563.588453042,13563.612004292,13564.37200875,NaN,NaN
115,17,1,aesthetic,0,kitchen,sun_abpwyqmlzafvklqo.tif,182,1.5,0,1.71666666666667,13564.377896875,13567.0348285,5,NaN,13567.063338042,13567.085102167,13568.795136167,NaN,NaN
115,18,1,aesthetic,0,kitchen,sun_abdxkyyxwfskuaqb.tif,180,1.5,0,1.51666666666667,13568.811635417,13571.634016792,4,NaN,13571.662929125,13571.686227709,13573.19628075,NaN,NaN
115,19,1,aesthetic,0,kitchen,sun_aaxxjlsuzvqlgylf.tif,178,1.5,0,1.25,13573.214260625,13576.082372459,6,NaN,13576.087841875,13576.1060845,13577.349452167,NaN,NaN
115,20,1,aesthetic,0,kitchen,sun_azmutvzbxypaceni.tif,220,1.5,0,1.41666666666667,13577.361022292,13580.93853125,6,NaN,13580.943899167,13580.962432375,13582.3724755,NaN,NaN
115,21,1,aesthetic,0,kitchen,sun_axyyrmzcupyhlivc.tif,217,1.5,0,1.1,13582.396242959,13585.410295209,4,NaN,13585.415826917,13585.434087542,13586.527471292,NaN,NaN
115,22,1,aesthetic,0,kitchen,sun_ajkqhtgcbgpcwrwn.tif,207,1.5,0,0.95,13586.53710575,13589.698532292,2,NaN,13589.703756292,13589.721977209,13590.6653155,NaN,NaN
115,23,1,aesthetic,0,kitchen,sun_aamedkxepzlwuxes.tif,175,1.5,0,1.45,13590.670811917,13593.478107875,3,NaN,13593.504130042,13593.527683,13594.97107525,NaN,NaN
115,24,1,aesthetic,0,kitchen,sun_akcjzhbbjlbogpdi.tif,209,1.5,0,0.883333333333333,13594.992846792,13597.817820709,4,NaN,13597.823595084,13597.842115584,13598.718789334,NaN,NaN
115,25,1,aesthetic,0,kitchen,sun_ahywdevtimnqcsln.tif,204,1.5,0,1.23333333333333,13598.724012875,13601.429938334,3,NaN,13601.458894709,13601.482231084,13602.708932125,NaN,NaN
115,1,2,aesthetic,0,kitchen,sun_aeqdocilnnpuvuhx.tif,193,1.5,0,1.78333333333333,13607.599929584,13610.40166675,4,NaN,13610.430379584,13610.454539625,13612.231262584,NaN,NaN
115,2,2,aesthetic,0,kitchen,sun_aggjlwcdjsjcaemh.tif,196,1.5,0,1.8,13612.249204292,13614.993888292,5,NaN,13615.020830167,13615.044733959,13616.838108667,NaN,NaN
115,3,2,aesthetic,0,kitchen,sun_aixorpehvfykdynp.tif,205,1.5,0,0.8,13616.858519292,13620.07818675,4,NaN,13620.104983417,13620.128901125,13620.922239709,NaN,NaN
115,4,2,aesthetic,0,kitchen,sun_acfmftudsenhrfhy.tif,184,1.5,0,1.01666666666667,13620.927992125,13623.644032875,3,NaN,13623.67044425,13623.694245709,13624.704250625,NaN,NaN
115,5,2,aesthetic,0,kitchen,sun_acxkpeoqbwcxfvip.tif,187,1.5,0,0.85,13624.709668,13627.59496525,6,NaN,13627.616772167,13627.640853125,13628.484192917,NaN,NaN
115,6,2,aesthetic,0,kitchen,sun_admlmbcdswaszruo.tif,189,1.5,0,1.83333333333333,13628.489904209,13631.81816125,5,NaN,13631.823674667,13631.842033209,13633.668753625,NaN,NaN
115,7,2,aesthetic,0,kitchen,sun_aexklacwqwezaorf.tif,194,1.5,0,1.11666666666667,13633.687143917,13636.699128875,6,NaN,13636.727587209,13636.75047875,13637.8605175,NaN,NaN
115,8,2,aesthetic,0,kitchen,sun_agubuxuukhzyzpdp.tif,198,1.5,0,1.88333333333333,13637.870858375,13640.625845875,4,NaN,13640.63157225,13640.64982975,13642.526528,NaN,NaN
115,9,2,aesthetic,0,kitchen,sun_aypmqwcualkenuoe.tif,219,1.5,0,0.916666666666667,13642.545924667,13645.2533765,4,NaN,13645.281249459,13645.302594959,13646.212600667,NaN,NaN
115,10,2,aesthetic,0,kitchen,labelme_rykdqxenmhulbdn.tif,173,1.5,0,1.05,13646.218206667,13648.961864375,4,NaN,13648.989616334,13649.013443584,13650.056826125,NaN,NaN
115,11,2,aesthetic,0,kitchen,sun_aqeaevwwwjoqhzvl.tif,211,1.5,0,1.35,13650.066614334,13652.8495565,5,NaN,13652.855470334,13652.8739345,13654.217325875,NaN,NaN
115,12,2,aesthetic,0,kitchen,sun_ahspylgoovwmwvgk.tif,203,1.5,0,1.01666666666667,13654.235944459,13657.290440584,6,NaN,13657.295712959,13657.314027709,13658.324075667,NaN,NaN
115,13,2,aesthetic,0,kitchen,sun_aehawpgmrlhlvcow.tif,191,1.5,0,2,13658.333179667,13661.401511875,4,NaN,13661.407310125,13661.426001209,13663.419391875,NaN,NaN
115,14,2,aesthetic,0,kitchen,sun_ahdycvpopffkzzsu.tif,200,1.5,0,0.9,13663.437204792,13666.323729625,3,NaN,13666.351876167,13666.375220542,13667.26855875,NaN,NaN
115,15,2,aesthetic,0,kitchen,sun_akchetnepxlcxhsu.tif,208,1.5,0,1.15,13667.273426875,13670.029077334,3,NaN,13670.049648042,13670.07253075,13671.215915792,NaN,NaN
115,16,2,aesthetic,0,kitchen,sun_abdenxonkemggwsq.tif,179,1.5,0,1.23333333333333,13671.224976,13673.921715959,3,NaN,13673.927288792,13673.945733709,13675.172443834,NaN,NaN
115,17,2,aesthetic,0,kitchen,sun_ajcbwwvdlsvjyzje.tif,206,1.5,0,1.03333333333333,13675.191143459,13677.746101417,2,NaN,13677.751389459,13677.769843709,13678.79654275,NaN,NaN
115,18,2,aesthetic,0,kitchen,sun_acgtpgfybqjmzeyw.tif,185,1.5,0,0.783333333333333,13678.806276292,13682.498199167,1,NaN,13682.503613125,13682.521993125,13683.298665917,NaN,NaN
115,19,2,aesthetic,0,kitchen,sun_acwjdupvyjsugpay.tif,186,1.5,0,0.766666666666667,13683.303010875,13686.26640825,4,NaN,13686.294486125,13686.316382834,13687.076388209,NaN,NaN
115,20,2,aesthetic,0,kitchen,sun_auticobqsbwgoppi.tif,214,1.5,0,1.18333333333333,13687.080969417,13689.989308792,1,NaN,13690.0170755,13690.0406085,13691.217332417,NaN,NaN
115,21,2,aesthetic,0,kitchen,sun_aenotlpyftoioydp.tif,192,1.5,0,0.7,13691.227952167,13694.337422042,3,NaN,13694.343235,13694.361362334,13695.054701542,NaN,NaN
115,22,2,aesthetic,0,kitchen,labelme_brsyyvweiuaazfr.tif,171,1.5,0,0.7,13695.059989667,13699.193845042,3,NaN,13699.199461625,13699.217853209,13699.911194125,NaN,NaN
115,23,2,aesthetic,0,kitchen,sun_abftihopvusyfakt.tif,181,1.5,0,1.55,13699.924571584,13702.757334875,4,NaN,13702.785064917,13702.808540375,13704.351928125,NaN,NaN
115,24,2,aesthetic,0,kitchen,sun_aarfiyshqohlwkmo.tif,177,1.5,0,1.16666666666667,13704.371810959,13707.1673265,4,NaN,13707.186952584,13707.209428834,13708.369477375,NaN,NaN
115,25,2,aesthetic,0,kitchen,sun_amjjdeyrggfqgmom.tif,210,1.5,0,1.68333333333333,13708.37852425,13711.578199125,5,NaN,13711.583592417,13711.60190425,13713.278603084,NaN,NaN
