sub_num,trial,block,task,is_practice,category,image,texture,duration,mask_dur,jitter,stim_time,time_of_resp,trial_response,mask_time,fix_time,jit_onset,trial_end,trial_accuracy,RT
111,1,17,categorization,0,kitchen,SHINEd_sun_abdxkyyxwfskuaqb.tif,70,0.0666666666666667,0.0666666666666667,0.9,21647.459674917,21648.30221675,9,21647.522348625,21647.582454083,21648.317683583,21649.211020083,1,0.842541832997085
111,2,17,categorization,0,bathroom,SHINEd_sun_acegryoqftbzowsg.tif,17,0.0666666666666667,0.0666666666666667,1.65,21649.215989583,21649.901470083,9,21649.27762175,21649.338700917,21649.907230167,21651.550618417,0,0.685480500000267
111,3,17,categorization,0,kitchen,SHINEd_sun_admlmbcdswaszruo.tif,79,0.0666666666666667,0.0666666666666667,1.18333333333333,21651.5670975,21652.111010833,9,21651.634915167,21651.694426333,21652.134144792,21653.310853125,1,0.543913333000091
111,4,17,categorization,0,kitchen,SHINEd_sun_acwjdupvyjsugpay.tif,76,0.0666666666666667,0.0666666666666667,1.18333333333333,21653.320152875,21653.880792792,9,21653.388160875,21653.452868167,21653.890900292,21655.06762425,1,0.560639916999207
111,5,17,categorization,0,kitchen,SHINEd_sun_aixorpehvfykdynp.tif,95,0.0666666666666667,0.0666666666666667,0.766666666666667,21655.083580833,21655.67034225,9,21655.151253542,21655.215172792,21655.683703292,21656.443707208,1,0.586761416998343
111,6,17,categorization,0,bathroom,SHINEd_sun_ajlawzvmubibwbpy.tif,30,0.0666666666666667,0.0666666666666667,1.1,21656.448855792,21656.94979425,13,21656.510514208,21656.57161825,21656.956720958,21658.050088167,1,0.500938457997108
111,7,17,categorization,0,kitchen,SHINEd_sun_akchetnepxlcxhsu.tif,98,0.0666666666666667,0.0666666666666667,1.98333333333333,21658.05961575,21658.735153667,13,21658.124974792,21658.192906667,21658.748756625,21660.725469375,0,0.675537916999019
111,8,17,categorization,0,bathroom,SHINEd_sun_ahcvzmoyaycdoftf.tif,27,0.0666666666666667,0.0666666666666667,0.8,21660.744631417,21661.242480958,13,21660.81115775,21660.87766875,21661.26754675,21662.060889167,1,0.497849540999596
111,9,17,categorization,0,bathroom,SHINEd_sun_aapitsgbtktqubfy.tif,12,0.0666666666666667,0.0666666666666667,1.68333333333333,21662.066927875,21662.557764583,13,21662.128511375,21662.189627542,21662.574633333,21664.251334625,1,0.490836708002462
111,10,17,categorization,0,kitchen,SHINEd_sun_aapllqyqlykszopd.tif,66,0.0666666666666667,0.0666666666666667,1.73333333333333,21664.267048875,21664.822759333,13,21664.333695917,21664.400343333,21664.839681208,21666.56639625,0,0.555710458000249
111,11,17,categorization,0,bathroom,SHINEd_sun_aljolscmmzydegqp.tif,33,0.0666666666666667,0.0666666666666667,0.766666666666667,21666.58336175,21667.14426775,9,21666.650327042,21666.716258625,21667.172842542,21667.932891417,0,0.560906000002433
111,12,17,categorization,0,kitchen,SHINEd_sun_afuyedyxivkhecmu.tif,85,0.0666666666666667,0.0666666666666667,1.43333333333333,21667.943493208,21668.534022125,9,21668.006140333,21668.066234667,21668.551429042,21669.978134667,1,0.590528917000483
111,13,17,categorization,0,bathroom,SHINEd_sun_acduarbnmmoglmiv.tif,16,0.0666666666666667,0.0666666666666667,0.7,21669.995056375,21670.537262125,13,21670.061999458,21670.128499875,21670.550729333,21671.244106417,1,0.542205749999994
111,14,17,categorization,0,kitchen,SHINEd_sun_ahljzhgcdpomplvg.tif,91,0.0666666666666667,0.0666666666666667,1.01666666666667,21671.259871667,21671.678066792,13,21671.326513792,21671.393350292,21671.694973292,21672.705019792,0,0.418195124999329
111,15,17,categorization,0,kitchen,SHINEd_sun_agorklincwxrdtga.tif,87,0.0666666666666667,0.0666666666666667,1.71666666666667,21672.715582375,21673.281766333,9,21672.781343375,21672.847079167,21673.303353917,21675.013415958,1,0.566183957998874
111,16,17,categorization,0,bathroom,SHINEd_sun_aunuadmjocsddsrl.tif,52,0.0666666666666667,0.0666666666666667,1.73333333333333,21675.030188542,21675.611606417,13,21675.098382667,21675.163309125,21675.636402333,21677.363105333,1,0.581417874996987
111,17,17,categorization,0,bathroom,SHINEd_sun_alotolagknyrgtsk.tif,35,0.0666666666666667,0.0666666666666667,1.93333333333333,21677.381356792,21678.135976,9,21677.448989125,21677.514369667,21678.153624292,21680.08034,0,0.754619208000804
111,18,17,categorization,0,kitchen,SHINEd_sun_ahspylgoovwmwvgk.tif,93,0.0666666666666667,0.0666666666666667,1.1,21680.098123833,21680.634259,9,21680.166538167,21680.231896,21680.655545042,21681.748918208,1,0.536135166999884
111,19,17,categorization,0,kitchen,SHINEd_sun_aggjlwcdjsjcaemh.tif,86,0.0666666666666667,0.0666666666666667,0.933333333333333,21681.758452833,21682.293334625,9,21681.823946083,21681.888480958,21682.311450958,21683.238169542,1,0.534881791998487
111,20,17,categorization,0,kitchen,SHINEd_sun_agubuxuukhzyzpdp.tif,88,0.0666666666666667,0.0666666666666667,1.16666666666667,21683.255065833,21683.729055792,9,21683.322029083,21683.389725333,21683.744537708,21684.904586625,1,0.473989958998573
111,21,17,categorization,0,bathroom,SHINEd_sun_aclfzgynxzxlbepz.tif,19,0.0666666666666667,0.0666666666666667,1.08333333333333,21684.914364542,21685.45584775,13,21684.982484958,21685.047740708,21685.470872542,21686.547574167,1,0.541483207998681
111,22,17,categorization,0,bathroom,SHINEd_sun_amzlamotzwfkwjco.tif,37,0.0666666666666667,0.0666666666666667,1.36666666666667,21686.561704083,21687.1660935,9,21686.628886,21686.694706083,21687.179973292,21688.540020292,0,0.604389416999766
111,23,17,categorization,0,bathroom,SHINEd_sun_asfwthctfqerjvxr.tif,49,0.0666666666666667,0.0666666666666667,1.85,21688.561144167,21689.317763417,13,21688.6282605,21688.694464125,21689.334602792,21691.177991875,1,0.756619249998039
111,24,17,categorization,0,kitchen,SHINEd_sun_ajkqhtgcbgpcwrwn.tif,97,0.0666666666666667,0.0666666666666667,1.1,21691.197585458,21691.967272583,9,21691.2649495,21691.330589583,21691.987518708,21693.080894458,1,0.76968712499729
111,25,17,categorization,0,kitchen,SHINEd_labelme_brsyyvweiuaazfr.tif,61,0.0666666666666667,0.0666666666666667,1.71666666666667,21693.093203167,21693.794318667,9,21693.158361833,21693.226411208,21693.817001583,21695.527055833,1,0.701115500000014
111,26,17,categorization,0,bathroom,SHINEd_sun_agyqfjcfkdcydepw.tif,25,0.0666666666666667,0.0666666666666667,1.6,21695.546434333,21696.271086667,9,21695.613805417,21695.678024667,21696.301660542,21697.895041042,0,0.724652333999984
111,27,17,categorization,0,bathroom,SHINEd_sun_aoybiabnpadelefl.tif,41,0.0666666666666667,0.0666666666666667,0.85,21697.913468667,21698.55730475,9,21697.980919708,21698.046691542,21698.58703725,21699.430381167,0,0.643836082999769
111,28,17,categorization,0,kitchen,SHINEd_sun_adgqasybjyktddhj.tif,78,0.0666666666666667,0.0666666666666667,1.35,21699.436842125,21699.997427042,9,21699.498654792,21699.559659417,21700.011463417,21701.354827958,1,0.560584916998778
111,29,17,categorization,0,bathroom,SHINEd_sun_anhioqovhscjqqwb.tif,38,0.0666666666666667,0.0666666666666667,1.65,21701.37140625,21701.894424583,13,21701.437954,21701.504637417,21701.910385083,21703.553771167,1,0.523018332998618
111,30,17,categorization,0,kitchen,SHINEd_sun_aamedkxepzlwuxes.tif,65,0.0666666666666667,0.0666666666666667,1.35,21703.571122417,21704.16819875,9,21703.637467417,21703.701880333,21704.19187675,21705.535264625,1,0.597076333000587
111,31,17,categorization,0,kitchen,SHINEd_sun_avszsnwsbuqfgzbn.tif,105,0.0666666666666667,0.0666666666666667,1.63333333333333,21705.552075083,21706.101556292,9,21705.618905292,21705.683216417,21706.122729542,21707.749447458,1,0.549481209000078
111,32,17,categorization,0,bathroom,SHINEd_sun_aghyqhbptboemmoq.tif,23,0.0666666666666667,0.0666666666666667,1.1,21707.760086125,21708.23855725,13,21707.82704975,21707.893209792,21708.266684458,21709.360074667,1,0.478471124999487
111,33,17,categorization,0,kitchen,SHINEd_sun_awcpdzzznmweyyhv.tif,106,0.0666666666666667,0.0666666666666667,1.11666666666667,21709.377094583,21709.966022958,9,21709.444364875,21709.502365083,21709.970815625,21711.08086225,1,0.588928375000251
111,34,17,categorization,0,kitchen,SHINEd_sun_aeqdocilnnpuvuhx.tif,83,0.0666666666666667,0.0666666666666667,1.5,21711.092895583,21711.610930542,9,21711.157440083,21711.225869583,21711.632656833,21713.126024208,1,0.518034959000943
111,35,17,categorization,0,bathroom,SHINEd_sun_apjevzvycyhuqghb.tif,43,0.0666666666666667,0.0666666666666667,1.28333333333333,21713.138810208,21713.843695292,9,21713.205523875,21713.271996667,21713.861707167,21715.138384333,0,0.704885083996487
111,36,17,categorization,0,kitchen,SHINEd_sun_abrcnpqqhmjwekyf.tif,73,0.0666666666666667,0.0666666666666667,1.7,21715.144437375,21715.629560208,13,21715.206146583,21715.267234333,21715.635573875,21717.32895525,0,0.485122833000787
111,37,17,categorization,0,kitchen,SHINEd_sun_ahywdevtimnqcsln.tif,94,0.0666666666666667,0.0666666666666667,1.08333333333333,21717.34638475,21717.899676792,9,21717.413015542,21717.479804792,21717.919587875,21718.996310583,1,0.553292042000976
111,38,17,categorization,0,kitchen,SHINEd_sun_ahdycvpopffkzzsu.tif,90,0.0666666666666667,0.0666666666666667,1.65,21719.009043208,21719.704315125,13,21719.073809417,21719.141431625,21719.729648167,21721.373035125,0,0.695271917000355
111,39,17,categorization,0,kitchen,SHINEd_sun_acfmftudsenhrfhy.tif,74,0.0666666666666667,0.0666666666666667,1.31666666666667,21721.389729917,21721.9207945,9,21721.456207,21721.522500667,21721.945908042,21723.255961125,1,0.531064583003172
111,40,17,categorization,0,kitchen,SHINEd_sun_akcjzhbbjlbogpdi.tif,99,0.0666666666666667,0.0666666666666667,0.95,21723.265618917,21723.816435417,9,21723.332436708,21723.399153042,21723.839106875,21724.782482917,1,0.5508164999992
111,41,17,categorization,0,bathroom,SHINEd_sun_apmqjbnwghzuhhzh.tif,46,0.0666666666666667,0.0666666666666667,1.43333333333333,21724.800129083,21725.373547875,13,21724.866806917,21724.93303475,21725.385713208,21726.812424333,1,0.573418791998847
111,42,17,categorization,0,kitchen,SHINEd_sun_auticobqsbwgoppi.tif,104,0.0666666666666667,0.0666666666666667,1.66666666666667,21726.8267295,21727.345661125,9,21726.895835583,21726.960026875,21727.368105333,21729.02814175,1,0.518931624999823
111,43,17,categorization,0,bathroom,SHINEd_sun_ahqjwnzgolcaoidx.tif,29,0.0666666666666667,0.0666666666666667,0.933333333333333,21729.041502167,21729.646500958,13,21729.109261417,21729.175265292,21729.664066625,21730.590770208,1,0.604998790997342
111,44,17,categorization,0,bathroom,SHINEd_sun_aggnnqpdorgxpvce.tif,21,0.0666666666666667,0.0666666666666667,0.833333333333333,21730.601838792,21731.197540833,9,21730.664773542,21730.724751083,21731.209944417,21732.036616458,0,0.595702040998731
111,45,17,categorization,0,kitchen,SHINEd_sun_aqeaevwwwjoqhzvl.tif,101,0.0666666666666667,0.0666666666666667,1.26666666666667,21732.041463167,21732.72539275,9,21732.10308825,21732.164252458,21732.73264925,21733.992688667,1,0.683929582999554
111,46,17,categorization,0,kitchen,SHINEd_sun_abdenxonkemggwsq.tif,69,0.0666666666666667,0.0666666666666667,1.93333333333333,21734.014785458,21734.597899792,9,21734.081578042,21734.147807708,21734.621190792,21736.547902708,1,0.583114334000129
111,47,17,categorization,0,kitchen,SHINEd_sun_aenotlpyftoioydp.tif,82,0.0666666666666667,0.0666666666666667,1.06666666666667,21736.565088125,21737.151529917,9,21736.631803792,21736.699493958,21737.172113792,21738.232162083,1,0.586441791998368
111,48,17,categorization,0,kitchen,SHINEd_sun_aypmqwcualkenuoe.tif,109,0.0666666666666667,0.0666666666666667,0.766666666666667,21738.242769417,21738.787242833,9,21738.30778375,21738.374216875,21738.81377225,21739.573824042,1,0.544473416000983
111,49,17,categorization,0,bathroom,SHINEd_sun_aavhrsfjbserjtht.tif,13,0.0666666666666667,0.0666666666666667,0.833333333333333,21739.592330167,21740.163200083,13,21739.657221542,21739.724121833,21740.181124375,21741.00779725,1,0.570869915998628
111,50,17,categorization,0,bathroom,SHINEd_sun_ambriybtogmepttm.tif,36,0.0666666666666667,0.0666666666666667,1.46666666666667,21741.013469625,21741.62937375,13,21741.075148875,21741.136266958,21741.63808575,21743.098137083,1,0.615904124999361
