sub_num,trial,block,task,is_practice,category,image,texture,duration,mask_dur,jitter,stim_time,time_of_resp,trial_response,mask_time,fix_time,jit_onset,trial_end,trial_accuracy,RT
111,1,15,categorization,0,kitchen,SHINEd_sun_azmutvzbxypaceni.tif,110,0.0666666666666667,0.0666666666666667,1.3,21438.161651708,21439.214786375,9,21438.224354417,21438.284458833,21439.219617167,21440.512987583,1,1.05313466699954
111,2,15,categorization,0,bathroom,SHINEd_sun_aghyqhbptboemmoq.tif,23,0.0666666666666667,0.0666666666666667,1.25,21440.530508375,21441.0955595,13,21440.597771417,21440.663771167,21441.12038325,21442.363766667,1,0.565051125002356
111,3,15,categorization,0,bathroom,SHINEd_sun_aclfzgynxzxlbepz.tif,19,0.0666666666666667,0.0666666666666667,0.816666666666667,21442.377135292,21442.93500625,13,21442.442266042,21442.510443417,21442.949650208,21443.759704583,1,0.557870958000422
111,4,15,categorization,0,bathroom,SHINEd_sun_aleqenyvunhactkl.tif,32,0.0666666666666667,0.0666666666666667,0.85,21443.769448417,21444.218524625,13,21443.835955958,21443.902565958,21444.242721917,21445.086060042,1,0.449076208002225
111,5,15,categorization,0,bathroom,SHINEd_sun_acduarbnmmoglmiv.tif,16,0.0666666666666667,0.0666666666666667,1.06666666666667,21445.091662708,21445.806671208,13,21445.153411625,21445.214433125,21445.816244083,21446.876282667,1,0.715008499999385
111,6,15,categorization,0,bathroom,SHINEd_sun_agyqfjcfkdcydepw.tif,25,0.0666666666666667,0.0666666666666667,0.733333333333333,21446.889970417,21447.499623875,9,21446.955768708,21447.02201125,21447.528456625,21448.255162958,0,0.609653457999229
111,7,15,categorization,0,bathroom,SHINEd_sun_apkruvsevgegsdwp.tif,44,0.0666666666666667,0.0666666666666667,1.83333333333333,21448.271357958,21448.801524583,13,21448.338031958,21448.404398542,21448.827688542,21450.654400625,1,0.530166624997946
111,8,15,categorization,0,bathroom,SHINEd_sun_agrwbmhcpmfuwmsg.tif,24,0.0666666666666667,0.0666666666666667,0.733333333333333,21450.671735875,21451.415560625,9,21450.738590375,21450.80481875,21451.444578917,21452.171249958,0,0.743824749999476
111,9,15,categorization,0,kitchen,SHINEd_sun_abftihopvusyfakt.tif,71,0.0666666666666667,0.0666666666666667,1.56666666666667,21452.177212,21452.694146,9,21452.2389095,21452.299996417,21452.701587583,21454.26162475,1,0.516934000002948
111,10,15,categorization,0,bathroom,SHINEd_sun_awnqiikzaispgmwo.tif,56,0.0666666666666667,0.0666666666666667,1.93333333333333,21454.276845667,21454.863309,13,21454.343858792,21454.409899708,21454.882746375,21456.809457292,1,0.58646333300203
111,11,15,categorization,0,bathroom,SHINEd_sun_azqyogdvyhahyram.tif,60,0.0666666666666667,0.0666666666666667,1.48333333333333,21456.829160458,21457.396429792,13,21456.8958545,21456.962409375,21457.419490375,21458.896194333,1,0.567269333998411
111,12,15,categorization,0,bathroom,SHINEd_sun_aspsyogrekjtfozg.tif,50,0.0666666666666667,0.0666666666666667,0.916666666666667,21458.914507042,21459.383982042,13,21458.981528667,21459.047763667,21459.404521375,21460.3145765,1,0.469474999998056
111,13,15,categorization,0,kitchen,SHINEd_sun_aggjlwcdjsjcaemh.tif,86,0.0666666666666667,0.0666666666666667,1.5,21460.331134875,21460.871185875,13,21460.398069042,21460.464606292,21460.883222208,21462.376597917,0,0.540050999999949
111,14,15,categorization,0,kitchen,SHINEd_sun_acxkpeoqbwcxfvip.tif,77,0.0666666666666667,0.0666666666666667,1.1,21462.39587075,21462.945794833,9,21462.462748458,21462.529191333,21462.969144083,21464.062523958,1,0.549924082999496
111,15,15,categorization,0,bathroom,SHINEd_sun_ahaulkltgpkeeemi.tif,26,0.0666666666666667,0.0666666666666667,0.983333333333333,21464.072911917,21464.596084,13,21464.1397995,21464.207324958,21464.613251167,21465.589986417,1,0.523172083001555
111,16,15,categorization,0,kitchen,SHINEd_sun_auticobqsbwgoppi.tif,104,0.0666666666666667,0.0666666666666667,1.7,21465.607050542,21466.150148833,9,21465.672180125,21465.737207708,21466.173805917,21467.867176042,1,0.543098291000206
111,17,15,categorization,0,bathroom,SHINEd_sun_asfwthctfqerjvxr.tif,49,0.0666666666666667,0.0666666666666667,1.58333333333333,21467.884503208,21468.974134458,13,21467.95246525,21468.017815375,21468.990411792,21470.567109417,1,1.08963125000082
111,18,15,categorization,0,bathroom,SHINEd_sun_alotolagknyrgtsk.tif,35,0.0666666666666667,0.0666666666666667,0.933333333333333,21470.58391075,21471.347411917,9,21470.650787042,21470.717170125,21471.373828833,21472.300500792,0,0.763501166999049
111,19,15,categorization,0,bathroom,SHINEd_sun_abjtwfukuwddzted.tif,15,0.0666666666666667,0.0666666666666667,0.916666666666667,21472.308548625,21472.934962958,13,21472.370283542,21472.43173725,21472.950162792,21473.860167917,1,0.626414333000866
111,20,15,categorization,0,kitchen,SHINEd_sun_abdenxonkemggwsq.tif,69,0.0666666666666667,0.0666666666666667,1.08333333333333,21473.865521,21474.415062167,9,21473.927216083,21473.988375375,21474.423489583,21475.500188708,1,0.549541167001735
111,21,15,categorization,0,bathroom,SHINEd_sun_aavhrsfjbserjtht.tif,13,0.0666666666666667,0.0666666666666667,0.783333333333333,21475.512885208,21476.347014667,13,21475.577883083,21475.645415208,21476.36858475,21477.145304417,1,0.834129458999087
111,22,15,categorization,0,bathroom,SHINEd_sun_afcoljnjfoxjtgja.tif,20,0.0666666666666667,0.0666666666666667,1.01666666666667,21477.161066417,21478.182804792,13,21477.227615625,21477.293785,21478.196061375,21479.206106417,1,1.02173837499868
111,23,15,categorization,0,kitchen,SHINEd_sun_admlmbcdswaszruo.tif,79,0.0666666666666667,0.0666666666666667,1.15,21479.2167885,21479.680497083,9,21479.281451125,21479.348690792,21479.703678625,21480.847041917,1,0.463708582999971
111,24,15,categorization,0,bathroom,SHINEd_sun_axldvoqbuvuggfmq.tif,57,0.0666666666666667,0.0666666666666667,1.38333333333333,21480.865053625,21481.758894,9,21480.934418708,21480.998441583,21481.767353542,21483.14405625,0,0.893840374999854
111,25,15,categorization,0,bathroom,SHINEd_sun_apynckhmoftszqoq.tif,47,0.0666666666666667,0.0666666666666667,0.75,21483.162977542,21483.753803583,13,21483.229662792,21483.295963417,21483.766469667,21484.50985275,1,0.590826040999673
111,26,15,categorization,0,bathroom,SHINEd_sun_acgyywnybuveqsro.tif,18,0.0666666666666667,0.0666666666666667,0.816666666666667,21484.526874583,21485.070436958,13,21484.594118625,21484.659686667,21485.078256875,21485.888261125,1,0.543562375001784
111,27,15,categorization,0,kitchen,SHINEd_sun_abrcnpqqhmjwekyf.tif,73,0.0666666666666667,0.0666666666666667,1.01666666666667,21485.89353925,21486.559003333,9,21485.955338625,21486.016274833,21486.568110667,21487.578155542,1,0.665464083002007
111,28,15,categorization,0,kitchen,SHINEd_sun_aixorpehvfykdynp.tif,95,0.0666666666666667,0.0666666666666667,1.11666666666667,21487.589335,21488.129496792,9,21487.653605875,21487.720555708,21488.141872125,21489.251913,1,0.540161791999708
111,29,15,categorization,0,kitchen,SHINEd_sun_aymvwlarqodbwuoc.tif,108,0.0666666666666667,0.0666666666666667,1.9,21489.268155792,21489.854301375,9,21489.33488925,21489.401363167,21489.870020708,21491.763390833,1,0.586145582998142
111,30,15,categorization,0,bathroom,SHINEd_sun_ausgutylgojavyoq.tif,53,0.0666666666666667,0.0666666666666667,1.75,21491.7759425,21492.309949375,9,21491.842609542,21491.905363458,21492.327601583,21494.070991625,0,0.534006875001069
111,31,15,categorization,0,bathroom,SHINEd_sun_alkosphxlxwjwgjd.tif,34,0.0666666666666667,0.0666666666666667,1.31666666666667,21494.088381625,21494.578589667,13,21494.155318083,21494.222203792,21494.594483125,21495.904534792,1,0.490208041999722
111,32,15,categorization,0,bathroom,SHINEd_sun_anryaplzeujmzfkd.tif,39,0.0666666666666667,0.0666666666666667,1.58333333333333,21495.922637375,21496.704454833,13,21495.990225875,21496.055711625,21496.729372708,21498.3060735,1,0.781817458002479
111,33,15,categorization,0,bathroom,SHINEd_labelme_sfxiulhjbhlyiyt.tif,11,0.0666666666666667,0.0666666666666667,0.716666666666667,21498.323743292,21499.081250833,13,21498.391814792,21498.457270458,21499.09666475,21499.806674875,1,0.757507540998631
111,34,15,categorization,0,bathroom,SHINEd_sun_aggnnqpdorgxpvce.tif,21,0.0666666666666667,0.0666666666666667,1.05,21499.81318625,21500.614698792,9,21499.875232917,21499.9359285,21500.621058625,21501.664434333,0,0.801512541998818
111,35,15,categorization,0,kitchen,SHINEd_sun_amjjdeyrggfqgmom.tif,100,0.0666666666666667,0.0666666666666667,1.81666666666667,21501.67602975,21502.345181833,9,21501.740174583,21501.807254083,21502.363343292,21504.173390875,1,0.669152082999062
111,36,15,categorization,0,kitchen,SHINEd_sun_ahspylgoovwmwvgk.tif,93,0.0666666666666667,0.0666666666666667,1.25,21504.195485458,21504.914468708,9,21504.262332,21504.328531792,21504.934888292,21506.178251792,1,0.718983250000747
111,37,15,categorization,0,bathroom,SHINEd_sun_aofnryafpsjimzsb.tif,40,0.0666666666666667,0.0666666666666667,0.733333333333333,21506.194633667,21507.216074667,13,21506.26152675,21506.327858375,21507.233988333,21507.960707625,1,1.02144100000078
111,38,15,categorization,0,kitchen,SHINEd_sun_ajcbwwvdlsvjyzje.tif,96,0.0666666666666667,0.0666666666666667,1.31666666666667,21507.9686455,21508.542269042,13,21508.0311005,21508.091446417,21508.559800417,21509.86983625,0,0.573623541997222
111,39,15,categorization,0,bathroom,SHINEd_sun_avhrdrntsqrjzccq.tif,55,0.0666666666666667,0.0666666666666667,1,21509.8868045,21510.434593125,9,21509.955004208,21510.019842083,21510.459590917,21511.452973917,0,0.547788624997338
111,40,15,categorization,0,bathroom,SHINEd_sun_akiytfaagpdsphgz.tif,31,0.0666666666666667,0.0666666666666667,1.16666666666667,21511.468881042,21512.022105167,13,21511.535661167,21511.602337542,21512.037585208,21513.197632708,1,0.55322412500027
111,41,15,categorization,0,kitchen,SHINEd_sun_aunzlwrbjumxhwdj.tif,103,0.0666666666666667,0.0666666666666667,0.916666666666667,21513.209885,21514.128763083,13,21513.276545042,21513.34279175,21514.149209792,21515.059257292,0,0.918878083000891
111,42,15,categorization,0,kitchen,SHINEd_sun_aaxxjlsuzvqlgylf.tif,68,0.0666666666666667,0.0666666666666667,0.8,21515.076750083,21515.591063958,9,21515.14128475,21515.20032025,21515.602182875,21516.395521375,1,0.514313874999061
111,43,15,categorization,0,bathroom,SHINEd_sun_acegryoqftbzowsg.tif,17,0.0666666666666667,0.0666666666666667,1,21516.40127825,21517.262654292,9,21516.462923375,21516.523973042,21517.275711667,21518.269050708,0,0.861376042001211
111,44,15,categorization,0,kitchen,SHINEd_sun_agubuxuukhzyzpdp.tif,88,0.0666666666666667,0.0666666666666667,0.766666666666667,21518.274799625,21518.886651125,9,21518.336574333,21518.397601958,21518.8992515,21519.659255583,1,0.611851500001649
111,45,15,categorization,0,kitchen,SHINEd_sun_auaiucuqpdausiva.tif,102,0.0666666666666667,0.0666666666666667,1.03333333333333,21519.663957042,21520.198257083,9,21519.725595625,21519.786724708,21520.205167625,21521.231880083,1,0.534300040999369
111,46,15,categorization,0,kitchen,SHINEd_sun_ahljzhgcdpomplvg.tif,91,0.0666666666666667,0.0666666666666667,1.81666666666667,21521.244400625,21521.919695208,9,21521.309231792,21521.37574675,21521.948848,21523.7588885,1,0.675294582997594
111,47,15,categorization,0,kitchen,SHINEd_labelme_brsyyvweiuaazfr.tif,61,0.0666666666666667,0.0666666666666667,1.21666666666667,21523.768659292,21524.336413875,9,21523.835238917,21523.901635958,21524.357942458,21525.567980208,1,0.567754583000351
111,48,15,categorization,0,kitchen,SHINEd_sun_aehawpgmrlhlvcow.tif,81,0.0666666666666667,0.0666666666666667,0.866666666666667,21525.578413208,21526.102662833,9,21525.646184833,21525.709682292,21526.132865292,21526.992898125,1,0.524249624999356
111,49,15,categorization,0,bathroom,SHINEd_sun_ambriybtogmepttm.tif,36,0.0666666666666667,0.0666666666666667,1.46666666666667,21527.009633333,21527.613595667,13,21527.076190333,21527.143235625,21527.62984175,21529.089881958,1,0.603962334000244
111,50,15,categorization,0,bathroom,SHINEd_sun_aapitsgbtktqubfy.tif,12,0.0666666666666667,0.0666666666666667,1.46666666666667,21529.107567333,21529.633817792,13,21529.174589167,21529.241739417,21529.647493125,21531.107541,1,0.526250458999129
