sub_num,trial,block,task,is_practice,category,image,texture,duration,mask_dur,jitter,stim_time,time_of_resp,trial_response,mask_time,fix_time,jit_onset,trial_end,trial_accuracy,RT
125,6,0,usability,1,kitchen,kitchen_practice2.tif,227,1.5,0,1.13333333333333,2999.325793041,3002.896130958,4,NaN,3002.901943958,3002.920113375,3004.046881041,NaN,NaN
125,7,0,usability,1,kitchen,kitchen_practice3.tif,228,1.5,0,0.933333333333333,3004.057582833,3007.49656675,6,NaN,3007.502270458,3007.520486333,3008.447161291,NaN,NaN
125,8,0,usability,1,kitchen,kitchen_practice1.tif,226,1.5,0,1.48333333333333,3008.452696333,3012.904645541,5,NaN,3012.9103145,3012.928620333,3014.405373583,NaN,NaN
125,9,0,usability,1,kitchen,kitchen_practice4.tif,229,1.5,0,1.33333333333333,3014.422917875,3017.384261375,6,NaN,3017.389892916,3017.408172583,3018.734934541,NaN,NaN
125,10,0,usability,1,kitchen,kitchen_practice5.tif,230,1.5,0,1.3,3018.755141916,3021.727764666,4,NaN,3021.733661,3021.7522055,3023.045605625,NaN,NaN
125,1,1,usability,0,kitchen,sun_amjjdeyrggfqgmom.tif,210,1.5,0,1.91666666666667,3028.028286375,3031.583866583,6,NaN,3031.589817625,3031.608236166,3033.518297583,NaN,NaN
125,2,1,usability,0,kitchen,sun_aymvwlarqodbwuoc.tif,218,1.5,0,0.85,3033.538758625,3036.361298541,6,NaN,3036.3898455,3036.413352833,3037.256696625,NaN,NaN
125,3,1,usability,0,kitchen,labelme_rykdqxenmhulbdn.tif,173,1.5,0,0.7,3037.261484208,3040.077513291,5,NaN,3040.106018041,3040.129446375,3040.822788041,NaN,NaN
125,4,1,usability,0,kitchen,sun_adgqasybjyktddhj.tif,188,1.5,0,1.6,3040.827604666,3044.503861333,4,NaN,3044.509648125,3044.528198625,3046.121616625,NaN,NaN
125,5,1,usability,0,kitchen,sun_aehawpgmrlhlvcow.tif,191,1.5,0,1.13333333333333,3046.138793833,3049.087212708,3,NaN,3049.116251708,3049.13907625,3050.265843083,NaN,NaN
125,6,1,usability,0,kitchen,sun_aadbddgrdsjugojn.tif,174,1.5,0,0.716666666666667,3050.27627275,3053.408398875,3,NaN,3053.413838333,3053.432164166,3054.142171666,NaN,NaN
125,7,1,usability,0,kitchen,sun_acwjdupvyjsugpay.tif,186,1.5,0,1.6,3054.146698958,3057.983833916,4,NaN,3057.989660125,3058.008006958,3059.60141,NaN,NaN
125,8,1,usability,0,kitchen,sun_aixorpehvfykdynp.tif,205,1.5,0,1.68333333333333,3059.620965291,3062.584432916,5,NaN,3062.590097625,3062.608704916,3064.28544725,NaN,NaN
125,9,1,usability,0,kitchen,sun_auaiucuqpdausiva.tif,212,1.5,0,1.41666666666667,3064.304304958,3067.412289458,6,NaN,3067.441409333,3067.46469575,3068.874788,NaN,NaN
125,10,1,usability,0,kitchen,sun_aamedkxepzlwuxes.tif,175,1.5,0,1,3068.89383475,3071.695760333,3,NaN,3071.701630333,3071.719898708,3072.713240833,NaN,NaN
125,11,1,usability,0,kitchen,sun_ahpczsiumwwocjkv.tif,202,1.5,0,1.33333333333333,3072.718591083,3075.725421833,4,NaN,3075.753642333,3075.776535166,3077.103306833,NaN,NaN
125,12,1,usability,0,kitchen,sun_aenotlpyftoioydp.tif,192,1.5,0,1.15,3077.121109166,3080.175551708,1,NaN,3080.181542666,3080.199983708,3081.343381541,NaN,NaN
125,13,1,usability,0,kitchen,sun_aexklacwqwezaorf.tif,194,1.5,0,1.86666666666667,3081.352805291,3084.776174208,5,NaN,3084.781718333,3084.800084208,3086.660188833,NaN,NaN
125,14,1,usability,0,kitchen,sun_aapllqyqlykszopd.tif,176,1.5,0,1.18333333333333,3086.673861833,3089.648872375,6,NaN,3089.677877583,3089.701605541,3090.878331291,NaN,NaN
125,15,1,usability,0,kitchen,sun_ahywdevtimnqcsln.tif,204,1.5,0,1.71666666666667,3090.888561458,3093.968592791,5,NaN,3093.974311708,3093.992447083,3095.702515833,NaN,NaN
125,16,1,usability,0,kitchen,sun_aggjlwcdjsjcaemh.tif,196,1.5,0,1.1,3095.720694625,3098.71887625,5,NaN,3098.747556125,3098.771113875,3099.8645225,NaN,NaN
125,17,1,usability,0,kitchen,sun_acxkpeoqbwcxfvip.tif,187,1.5,0,0.983333333333333,3099.872598166,3102.560125541,7,NaN,3102.565695166,3102.584232416,3103.560909791,NaN,NaN
125,18,1,usability,0,kitchen,sun_aeqdocilnnpuvuhx.tif,193,1.5,0,0.916666666666667,3103.565541875,3106.960288875,6,NaN,3106.965852041,3106.984151125,3107.89416275,NaN,NaN
125,19,1,usability,0,kitchen,sun_akcjzhbbjlbogpdi.tif,209,1.5,0,0.716666666666667,3107.899128208,3110.803502333,3,NaN,3110.831811791,3110.854689416,3111.5647,NaN,NaN
125,20,1,usability,0,kitchen,sun_ajcbwwvdlsvjyzje.tif,206,1.5,0,0.883333333333333,3111.569458166,3114.674716791,4,NaN,3114.690035,3114.710055416,3115.58673375,NaN,NaN
125,21,1,usability,0,kitchen,sun_azmutvzbxypaceni.tif,220,1.5,0,1.93333333333333,3115.591468291,3118.8163235,5,NaN,3118.821988125,3118.840379333,3120.767111791,NaN,NaN
125,22,1,usability,0,kitchen,sun_awcpdzzznmweyyhv.tif,216,1.5,0,0.9,3120.7870715,3123.817008625,6,NaN,3123.845656916,3123.868920083,3124.76225975,NaN,NaN
125,23,1,usability,0,kitchen,sun_aunzlwrbjumxhwdj.tif,213,1.5,0,1.13333333333333,3124.766909958,3128.23209225,1,NaN,3128.237646083,3128.255933625,3129.382684666,NaN,NaN
125,24,1,usability,0,kitchen,labelme_kxvouciolcpqplr.tif,172,1.5,0,0.766666666666667,3129.393358041,3132.400435041,3,NaN,3132.405883666,3132.42416325,3133.184171416,NaN,NaN
125,25,1,usability,0,kitchen,sun_agubuxuukhzyzpdp.tif,198,1.5,0,0.966666666666667,3133.188669875,3135.986533458,5,NaN,3136.005483,3136.028069458,3136.988078375,NaN,NaN
125,1,2,usability,0,kitchen,sun_ajkqhtgcbgpcwrwn.tif,207,1.5,0,1.56666666666667,3141.097839083,3144.176116708,3,NaN,3144.187427625,3144.20643225,3145.766520541,NaN,NaN
125,2,2,usability,0,kitchen,sun_avszsnwsbuqfgzbn.tif,215,1.5,0,1.2,3145.783966875,3148.383603125,6,NaN,3148.389544166,3148.407916791,3149.601352583,NaN,NaN
125,3,2,usability,0,kitchen,sun_admlmbcdswaszruo.tif,189,1.5,0,1.73333333333333,3149.618111583,3152.295767125,7,NaN,3152.301446541,3152.319666958,3154.046413625,NaN,NaN
125,4,2,usability,0,kitchen,sun_abdxkyyxwfskuaqb.tif,180,1.5,0,1.61666666666667,3154.062680125,3158.007980416,3,NaN,3158.013759083,3158.03215175,3159.642218375,NaN,NaN
125,5,2,usability,0,kitchen,sun_aypmqwcualkenuoe.tif,219,1.5,0,1.38333333333333,3159.661623916,3162.935808291,5,NaN,3162.941455666,3162.959776625,3164.336544541,NaN,NaN
125,6,2,usability,0,kitchen,sun_agzzivivdpnawacl.tif,199,1.5,0,1.73333333333333,3164.355786166,3167.159778875,4,NaN,3167.165454958,3167.183731166,3168.910494791,NaN,NaN
125,7,2,usability,0,kitchen,sun_aaxxjlsuzvqlgylf.tif,178,1.5,0,1.96666666666667,3168.924686291,3171.570975916,6,NaN,3171.59902775,3171.622066208,3173.582172041,NaN,NaN
125,8,2,usability,0,kitchen,sun_abftihopvusyfakt.tif,181,1.5,0,0.883333333333333,3173.604048083,3176.540387208,7,NaN,3176.569989541,3176.593598083,3177.470273375,NaN,NaN
125,9,2,usability,0,kitchen,sun_agorklincwxrdtga.tif,197,1.5,0,1.06666666666667,3177.475130375,3180.057453083,6,NaN,3180.086050166,3180.109061666,3181.169143458,NaN,NaN
125,10,2,usability,0,kitchen,labelme_brsyyvweiuaazfr.tif,171,1.5,0,1.06666666666667,3181.178359791,3184.247534916,5,NaN,3184.2534855,3184.271842333,3185.33193275,NaN,NaN
125,11,2,usability,0,kitchen,sun_afuyedyxivkhecmu.tif,195,1.5,0,0.966666666666667,3185.340202541,3188.359259791,4,NaN,3188.365206958,3188.383629333,3189.343637708,NaN,NaN
125,12,2,usability,0,kitchen,sun_aegoxogugdkwpmpj.tif,190,1.5,0,1.78333333333333,3189.348108958,3192.416651333,6,NaN,3192.443916291,3192.464009166,3194.240768416,NaN,NaN
125,13,2,usability,0,kitchen,sun_axyyrmzcupyhlivc.tif,217,1.5,0,1.68333333333333,3194.258863,3197.035183916,6,NaN,3197.063217625,3197.087001541,3198.763748708,NaN,NaN
125,14,2,usability,0,kitchen,sun_abpwyqmlzafvklqo.tif,182,1.5,0,0.983333333333333,3198.781388375,3201.824341375,5,NaN,3201.852991166,3201.876008666,3202.852685875,NaN,NaN
125,15,2,usability,0,kitchen,sun_abdenxonkemggwsq.tif,179,1.5,0,1.33333333333333,3202.857404333,3205.699673583,6,NaN,3205.728104916,3205.75111825,3207.077859708,NaN,NaN
125,16,2,usability,0,kitchen,sun_acgtpgfybqjmzeyw.tif,185,1.5,0,1.56666666666667,3207.095742833,3209.839785625,4,NaN,3209.845378041,3209.863576458,3211.423673291,NaN,NaN
125,17,2,usability,0,kitchen,sun_ahspylgoovwmwvgk.tif,203,1.5,0,1.66666666666667,3211.437942416,3214.391348958,7,NaN,3214.397133875,3214.415438458,3216.075540041,NaN,NaN
125,18,2,usability,0,kitchen,sun_auticobqsbwgoppi.tif,214,1.5,0,1.86666666666667,3216.094999875,3219.137537625,2,NaN,3219.166430708,3219.189375375,3221.049469291,NaN,NaN
125,19,2,usability,0,kitchen,sun_aqeaevwwwjoqhzvl.tif,211,1.5,0,1.95,3221.070450708,3224.463082625,4,NaN,3224.470071416,3224.488481916,3226.431899125,NaN,NaN
125,20,2,usability,0,kitchen,sun_acfmftudsenhrfhy.tif,184,1.5,0,0.966666666666667,3226.445822833,3229.751631041,5,NaN,3229.75829825,3229.776598375,3230.736608875,NaN,NaN
125,21,2,usability,0,kitchen,sun_abrcnpqqhmjwekyf.tif,183,1.5,0,1.43333333333333,3230.741277125,3233.780095375,6,NaN,3233.804145291,3233.824449125,3235.251217375,NaN,NaN
125,22,2,usability,0,kitchen,sun_ahdycvpopffkzzsu.tif,200,1.5,0,0.85,3235.269919791,3238.063410041,3,NaN,3238.068930333,3238.08726275,3238.930605375,NaN,NaN
125,23,2,usability,0,kitchen,sun_ahljzhgcdpomplvg.tif,201,1.5,0,1.53333333333333,3238.935232875,3241.958935375,5,NaN,3241.97727975,3241.997384041,3243.524150708,NaN,NaN
125,24,2,usability,0,kitchen,sun_akchetnepxlcxhsu.tif,208,1.5,0,1.18333333333333,3243.541607875,3247.079699125,5,NaN,3247.085221333,3247.103544708,3248.280280125,NaN,NaN
125,25,2,usability,0,kitchen,sun_aarfiyshqohlwkmo.tif,177,1.5,0,1.86666666666667,3248.289358208,3251.031714458,6,NaN,3251.037243875,3251.055676875,3252.915784208,NaN,NaN
