sub_num,trial,block,task,is_practice,category,image,texture,duration,mask_dur,jitter,stim_time,time_of_resp,trial_response,mask_time,fix_time,jit_onset,trial_end,trial_accuracy,RT
119,1,19,categorization,0,kitchen,SHINEd_labelme_rykdqxenmhulbdn.tif,63,0.0666666666666667,0.0666666666666667,1.48333333333333,16983.914831417,16985.179437417,9,16983.977002875,16984.037497334,16985.190031,16986.666734917,1,1.264605999997
119,2,19,categorization,0,bathroom,SHINEd_sun_alkosphxlxwjwgjd.tif,34,0.0666666666666667,0.0666666666666667,0.783333333333333,16986.682894042,16987.385298667,13,16986.750449917,16986.814982959,16987.404685917,16988.181386834,1,0.702404625000781
119,3,19,categorization,0,kitchen,SHINEd_sun_axyyrmzcupyhlivc.tif,107,0.0666666666666667,0.0666666666666667,1.7,16988.197946584,16988.899667292,9,16988.260662042,16988.320682042,16988.906007209,16990.599385417,1,0.701720707998902
119,4,19,categorization,0,bathroom,SHINEd_sun_aapitsgbtktqubfy.tif,12,0.0666666666666667,0.0666666666666667,1.93333333333333,16990.616492584,16991.319765792,13,16990.682354042,16990.748651875,16991.337958709,16993.26467375,1,0.70327320800061
119,5,19,categorization,0,kitchen,SHINEd_sun_aenotlpyftoioydp.tif,82,0.0666666666666667,0.0666666666666667,1.73333333333333,16993.28275975,16993.934275584,9,16993.349584875,16993.414972792,16993.954188417,16995.680914084,1,0.651515834000747
119,6,19,categorization,0,kitchen,SHINEd_sun_ahywdevtimnqcsln.tif,94,0.0666666666666667,0.0666666666666667,0.866666666666667,16995.697859834,16996.568008917,9,16995.764184709,16995.829845667,16996.585848292,16997.445853959,1,0.870149082998978
119,7,19,categorization,0,bathroom,SHINEd_sun_agguqiubmwhqqunb.tif,22,0.0666666666666667,0.0666666666666667,1.85,16997.451303834,16998.052046375,13,16997.513024167,16997.574005292,16998.059357417,16999.902749875,1,0.600742540998908
119,8,19,categorization,0,bathroom,SHINEd_sun_aghyqhbptboemmoq.tif,23,0.0666666666666667,0.0666666666666667,0.966666666666667,16999.919663084,17000.975732,9,16999.985994084,17000.052182834,17000.991680875,17001.951685709,0,1.05606891599746
119,9,19,categorization,0,bathroom,SHINEd_sun_aljolscmmzydegqp.tif,33,0.0666666666666667,0.0666666666666667,0.733333333333333,17001.9574745,17003.100115125,13,17002.019095792,17002.080120167,17003.115995125,17003.842666709,1,1.14264062499933
119,10,19,categorization,0,kitchen,SHINEd_sun_aamedkxepzlwuxes.tif,65,0.0666666666666667,0.0666666666666667,0.733333333333333,17003.847535167,17004.459801459,9,17003.909213709,17003.970191292,17004.47210525,17005.198776375,1,0.61226629200246
119,11,19,categorization,0,bathroom,SHINEd_sun_aqrpegblszgcoujh.tif,48,0.0666666666666667,0.0666666666666667,1.93333333333333,17005.203748917,17005.804082084,13,17005.265471167,17005.32679025,17005.811953875,17007.738676709,1,0.600333166999917
119,12,19,categorization,0,kitchen,SHINEd_sun_aexklacwqwezaorf.tif,84,0.0666666666666667,0.0666666666666667,1.1,17007.756382167,17008.395352292,9,17007.822885084,17007.888974792,17008.411390542,17009.504762209,1,0.638970124997286
119,13,19,categorization,0,bathroom,SHINEd_sun_aofnryafpsjimzsb.tif,40,0.0666666666666667,0.0666666666666667,1.8,17009.514359792,17010.25920425,13,17009.5791335,17009.646309584,17010.266842875,17012.060216042,1,0.744844458000443
119,14,19,categorization,0,kitchen,SHINEd_sun_admlmbcdswaszruo.tif,79,0.0666666666666667,0.0666666666666667,0.733333333333333,17012.076943042,17012.7284265,9,17012.144642,17012.209046834,17012.748705167,17013.475420375,1,0.651483458001167
119,15,19,categorization,0,kitchen,SHINEd_sun_acfmftudsenhrfhy.tif,74,0.0666666666666667,0.0666666666666667,1.5,17013.491843334,17014.179111834,9,17013.558341167,17013.623759375,17014.192257292,17015.685626625,1,0.687268500001665
119,16,19,categorization,0,kitchen,SHINEd_sun_auaiucuqpdausiva.tif,102,0.0666666666666667,0.0666666666666667,0.8,17015.704323625,17016.374075834,9,17015.77077625,17015.836988709,17016.392947667,17017.186339292,1,0.669752208999853
119,17,19,categorization,0,kitchen,SHINEd_sun_aapllqyqlykszopd.tif,66,0.0666666666666667,0.0666666666666667,0.95,17017.201985917,17018.300015084,13,17017.26829825,17017.327864375,17018.313091542,17019.256430084,0,1.0980291670021
119,18,19,categorization,0,bathroom,SHINEd_sun_aclfzgynxzxlbepz.tif,19,0.0666666666666667,0.0666666666666667,1.1,17019.261166709,17020.003019959,13,17019.322893459,17019.3837085,17020.01878425,17021.1121635,1,0.741853250001441
119,19,19,categorization,0,kitchen,SHINEd_sun_ajcbwwvdlsvjyzje.tif,96,0.0666666666666667,0.0666666666666667,1.63333333333333,17021.12066425,17022.119680209,13,17021.185787209,17021.252876209,17022.142997167,17023.769707125,0,0.999015959001554
119,20,19,categorization,0,bathroom,SHINEd_sun_aavhrsfjbserjtht.tif,13,0.0666666666666667,0.0666666666666667,1.71666666666667,17023.789174584,17024.855978792,13,17023.855951084,17023.921599667,17024.878784459,17026.588828,1,1.06680420799967
119,21,19,categorization,0,bathroom,SHINEd_sun_anhioqovhscjqqwb.tif,38,0.0666666666666667,0.0666666666666667,1.43333333333333,17026.606095875,17027.376385209,13,17026.672634667,17026.738152,17027.394639584,17028.821364709,1,0.770289334002882
119,22,19,categorization,0,bathroom,SHINEd_sun_ahijqszoswveeyji.tif,28,0.0666666666666667,0.0666666666666667,0.966666666666667,17028.839194292,17029.491088834,9,17028.906080792,17028.971493,17029.511403667,17030.471409084,0,0.651894541999354
119,23,19,categorization,0,bathroom,SHINEd_sun_apynckhmoftszqoq.tif,47,0.0666666666666667,0.0666666666666667,1.61666666666667,17030.477500542,17031.22782975,9,17030.539209709,17030.600405209,17031.23548925,17032.845528292,0,0.750329208000039
119,24,19,categorization,0,bathroom,SHINEd_sun_ahqjwnzgolcaoidx.tif,29,0.0666666666666667,0.0666666666666667,0.866666666666667,17032.862060042,17033.751309667,13,17032.92868725,17032.994386084,17033.766645042,17034.626650084,1,0.889249625000957
119,25,19,categorization,0,kitchen,SHINEd_sun_abdenxonkemggwsq.tif,69,0.0666666666666667,0.0666666666666667,1.25,17034.632832084,17035.259181542,9,17034.694505042,17034.755540459,17035.274054584,17036.517446334,1,0.626349457998003
119,26,19,categorization,0,kitchen,SHINEd_sun_aaxxjlsuzvqlgylf.tif,68,0.0666666666666667,0.0666666666666667,0.716666666666667,17036.537030917,17037.170986417,9,17036.603557917,17036.6693965,17037.192527459,17037.902577584,1,0.633955500001321
119,27,19,categorization,0,kitchen,SHINEd_sun_awcpdzzznmweyyhv.tif,106,0.0666666666666667,0.0666666666666667,1.71666666666667,17037.918259,17038.731981,9,17037.9847675,17038.050553334,17038.736363459,17040.446413834,1,0.813722000002599
119,28,19,categorization,0,kitchen,SHINEd_sun_azmutvzbxypaceni.tif,110,0.0666666666666667,0.0666666666666667,1.31666666666667,17040.462417292,17041.128457167,9,17040.528759375,17040.595856167,17041.151919084,17042.46197575,1,0.666039874999115
119,29,19,categorization,0,kitchen,SHINEd_labelme_brsyyvweiuaazfr.tif,61,0.0666666666666667,0.0666666666666667,0.9,17042.479555167,17043.177284875,9,17042.545852125,17042.61175875,17043.201071167,17044.09444225,1,0.697729708001134
119,30,19,categorization,0,bathroom,SHINEd_sun_axxbkopsgyouuebh.tif,58,0.0666666666666667,0.0666666666666667,1,17044.109683542,17044.835568292,13,17044.175605834,17044.242155917,17044.844378959,17045.837717209,1,0.725884750001569
119,31,19,categorization,0,bathroom,SHINEd_sun_agrwbmhcpmfuwmsg.tif,24,0.0666666666666667,0.0666666666666667,1.15,17045.842494834,17046.467933375,9,17045.904135834,17045.965151875,17046.483948084,17047.627313959,0,0.625438540999312
119,32,19,categorization,0,kitchen,SHINEd_sun_aqeaevwwwjoqhzvl.tif,101,0.0666666666666667,0.0666666666666667,1.55,17047.637592209,17048.254373417,9,17047.704128292,17047.769672084,17048.274355917,17049.817738334,1,0.616781207998429
119,33,19,categorization,0,kitchen,SHINEd_sun_akcjzhbbjlbogpdi.tif,99,0.0666666666666667,0.0666666666666667,1.13333333333333,17049.834365709,17050.462577584,9,17049.900482667,17049.966544709,17050.489686625,17051.616411459,1,0.628211874998669
119,34,19,categorization,0,kitchen,SHINEd_sun_agzzivivdpnawacl.tif,89,0.0666666666666667,0.0666666666666667,1.35,17051.636745084,17052.41091675,9,17051.700758,17051.760168917,17052.428728042,17053.77209325,1,0.774171665998438
119,35,19,categorization,0,bathroom,SHINEd_sun_apmqjbnwghzuhhzh.tif,46,0.0666666666666667,0.0666666666666667,0.7,17053.787745709,17054.605469459,13,17053.85359625,17053.91861975,17054.625116209,17055.318501667,1,0.817723749998549
119,36,19,categorization,0,bathroom,SHINEd_sun_axldvoqbuvuggfmq.tif,57,0.0666666666666667,0.0666666666666667,0.916666666666667,17055.33573375,17056.299295,13,17055.402425459,17055.468251084,17056.303680959,17057.213686334,1,0.963561250002385
119,37,19,categorization,0,kitchen,SHINEd_sun_abdxkyyxwfskuaqb.tif,70,0.0666666666666667,0.0666666666666667,1.38333333333333,17057.218507917,17057.923916084,9,17057.280157167,17057.34114575,17057.94301425,17059.319714209,1,0.705408166999405
119,38,19,categorization,0,bathroom,SHINEd_sun_atstyziqcmkahyxk.tif,51,0.0666666666666667,0.0666666666666667,1.98333333333333,17059.337282042,17060.069471584,13,17059.403712459,17059.46961525,17060.092780417,17062.069480959,1,0.732189541999105
119,39,19,categorization,0,kitchen,SHINEd_sun_aehawpgmrlhlvcow.tif,81,0.0666666666666667,0.0666666666666667,1.21666666666667,17062.087221,17062.660464375,9,17062.153525792,17062.220116375,17062.675427625,17063.885467167,1,0.573243374998128
119,40,19,categorization,0,bathroom,SHINEd_sun_aunuadmjocsddsrl.tif,52,0.0666666666666667,0.0666666666666667,0.883333333333333,17063.902514834,17064.639457,13,17063.968646292,17064.034351917,17064.657133625,17065.533839417,1,0.736942166000517
119,41,19,categorization,0,bathroom,SHINEd_sun_azqyogdvyhahyram.tif,60,0.0666666666666667,0.0666666666666667,1.36666666666667,17065.549572709,17066.2592245,9,17065.616050459,17065.679655167,17066.264782959,17067.624821584,0,0.709651791003125
119,42,19,categorization,0,bathroom,SHINEd_sun_awnqiikzaispgmwo.tif,56,0.0666666666666667,0.0666666666666667,1.78333333333333,17067.640379834,17068.349949625,13,17067.708116084,17067.772583459,17068.378642167,17070.155349,1,0.709569791000831
119,43,19,categorization,0,kitchen,SHINEd_sun_acgtpgfybqjmzeyw.tif,75,0.0666666666666667,0.0666666666666667,1.53333333333333,17070.172487417,17070.774243084,9,17070.238721292,17070.3003405,17070.789257042,17072.315969084,1,0.601755667001271
119,44,19,categorization,0,kitchen,SHINEd_sun_agorklincwxrdtga.tif,87,0.0666666666666667,0.0666666666666667,0.8,17072.3282145,17073.327713,9,17072.394741375,17072.462244417,17073.3530785,17074.146417334,1,0.999498499997571
119,45,19,categorization,0,bathroom,SHINEd_sun_agyqfjcfkdcydepw.tif,25,0.0666666666666667,0.0666666666666667,1,17074.15187225,17075.043849542,9,17074.213711209,17074.274621875,17075.059883167,17076.0532225,0,0.891977291998046
119,46,19,categorization,0,bathroom,SHINEd_sun_ausgutylgojavyoq.tif,53,0.0666666666666667,0.0666666666666667,1.01666666666667,17076.058056709,17076.674811334,13,17076.119896542,17076.180757417,17076.682677667,17077.69272275,1,0.616754624999885
119,47,19,categorization,0,kitchen,SHINEd_sun_aarfiyshqohlwkmo.tif,67,0.0666666666666667,0.0666666666666667,1.83333333333333,17077.701064042,17078.389816667,9,17077.7659295,17077.832094417,17078.404116042,17080.230837834,1,0.688752624999324
119,48,19,categorization,0,bathroom,SHINEd_sun_apeeialkgkuxddgh.tif,42,0.0666666666666667,0.0666666666666667,1.03333333333333,17080.245098417,17080.958803125,13,17080.310089542,17080.377312292,17080.983804834,17082.010508542,1,0.713704707999568
119,49,19,categorization,0,kitchen,SHINEd_sun_aggjlwcdjsjcaemh.tif,86,0.0666666666666667,0.0666666666666667,1.16666666666667,17082.022425167,17082.714513167,9,17082.086991584,17082.154026667,17082.743963917,17083.903997542,1,0.692087999999785
119,50,19,categorization,0,bathroom,SHINEd_sun_amzlamotzwfkwjco.tif,37,0.0666666666666667,0.0666666666666667,1,17083.921349834,17084.571384917,13,17083.987705792,17084.053978459,17084.589364709,17085.582703042,1,0.650035082999239
