sub_num,trial,block,task,is_practice,category,image,texture,duration,mask_dur,jitter,stim_time,time_of_resp,trial_response,mask_time,fix_time,jit_onset,trial_end,trial_accuracy,RT
119,1,20,categorization,0,kitchen,SHINEd_sun_aymvwlarqodbwuoc.tif,108,0.0666666666666667,0.0666666666666667,1.95,17094.126814959,17094.987657917,9,17094.18889025,17094.249514959,17095.001544,17096.944929084,1,0.86084295800174
119,2,20,categorization,0,kitchen,SHINEd_sun_aunzlwrbjumxhwdj.tif,103,0.0666666666666667,0.0666666666666667,0.85,17096.959373667,17097.781496,13,17097.025715917,17097.091809334,17097.797133209,17098.6404705,0,0.822122333000152
119,3,20,categorization,0,bathroom,SHINEd_sun_abapwbhyhkfixyex.tif,14,0.0666666666666667,0.0666666666666667,0.816666666666667,17098.645416084,17099.299328375,9,17098.707060709,17098.768146584,17099.303237042,17100.113242625,0,0.65391229099987
119,4,20,categorization,0,bathroom,SHINEd_sun_alotolagknyrgtsk.tif,35,0.0666666666666667,0.0666666666666667,0.983333333333333,17100.118012959,17100.875696625,9,17100.179551125,17100.240586834,17100.89261675,17101.869288,0,0.757683666000958
119,5,20,categorization,0,bathroom,SHINEd_sun_axyrejkiiaqiurjk.tif,59,0.0666666666666667,0.0666666666666667,0.75,17101.874181625,17102.474927709,9,17101.935833375,17101.996882042,17102.481985542,17103.22532325,0,0.600746084001003
119,6,20,categorization,0,bathroom,SHINEd_sun_abjtwfukuwddzted.tif,15,0.0666666666666667,0.0666666666666667,1.48333333333333,17103.230233417,17103.859550709,13,17103.291827584,17103.352976625,17103.871656834,17105.348361542,1,0.629317291997722
119,7,20,categorization,0,bathroom,SHINEd_sun_aleqenyvunhactkl.tif,32,0.0666666666666667,0.0666666666666667,0.75,17105.369531959,17106.008281417,9,17105.435867834,17105.501866542,17106.02460325,17106.767977,0,0.638749457997619
119,8,20,categorization,0,bathroom,SHINEd_sun_acegryoqftbzowsg.tif,17,0.0666666666666667,0.0666666666666667,1.58333333333333,17106.784406292,17107.539367375,9,17106.85083025,17106.915249709,17107.550507792,17109.127228209,0,0.754961082999216
119,9,20,categorization,0,kitchen,SHINEd_sun_aeqdocilnnpuvuhx.tif,83,0.0666666666666667,0.0666666666666667,1.88333333333333,17109.142628667,17109.846737417,13,17109.209143542,17109.274869417,17109.864070417,17111.7407845,0,0.704108750000159
119,10,20,categorization,0,bathroom,SHINEd_sun_ahcvzmoyaycdoftf.tif,27,0.0666666666666667,0.0666666666666667,1.18333333333333,17111.756863375,17112.405394,13,17111.823364709,17111.889203459,17112.428958459,17113.605675417,1,0.648530624999694
119,11,20,categorization,0,kitchen,SHINEd_sun_ahpczsiumwwocjkv.tif,92,0.0666666666666667,0.0666666666666667,1.65,17113.616950459,17114.447552959,13,17113.68348325,17113.749121792,17114.472177,17116.115548792,0,0.830602500001987
119,12,20,categorization,0,bathroom,SHINEd_sun_apkruvsevgegsdwp.tif,44,0.0666666666666667,0.0666666666666667,1.33333333333333,17116.129713292,17116.827281709,13,17116.196014334,17116.257308875,17116.846632459,17118.173332625,1,0.697568416999275
119,13,20,categorization,0,kitchen,SHINEd_sun_acxkpeoqbwcxfvip.tif,77,0.0666666666666667,0.0666666666666667,0.95,17118.189625209,17118.97634975,9,17118.255003334,17118.3182315,17118.990406709,17119.933744917,1,0.786724540997966
119,14,20,categorization,0,kitchen,SHINEd_sun_abftihopvusyfakt.tif,71,0.0666666666666667,0.0666666666666667,1.56666666666667,17119.939568459,17120.827219,9,17120.0012215,17120.062221959,17120.83088725,17122.390935084,1,0.887650540997129
119,15,20,categorization,0,kitchen,SHINEd_sun_ahljzhgcdpomplvg.tif,91,0.0666666666666667,0.0666666666666667,1.91666666666667,17122.407878667,17123.039945167,9,17122.474103834,17122.540063375,17123.062827209,17124.972859625,1,0.632066499998473
119,16,20,categorization,0,kitchen,SHINEd_sun_acwjdupvyjsugpay.tif,76,0.0666666666666667,0.0666666666666667,1.75,17124.990565792,17125.656413167,9,17125.057061542,17125.122567459,17125.678999584,17127.422390417,1,0.66584737499943
119,17,20,categorization,0,bathroom,SHINEd_sun_aoybiabnpadelefl.tif,41,0.0666666666666667,0.0666666666666667,0.966666666666667,17127.439370334,17128.359588375,9,17127.506069792,17127.57167725,17128.377820625,17129.33782475,0,0.920218040999316
119,18,20,categorization,0,bathroom,SHINEd_sun_auzqhkafidnkrwmo.tif,54,0.0666666666666667,0.0666666666666667,1.15,17129.342795084,17130.131193459,13,17129.404451875,17129.465480167,17130.151005417,17131.294374542,1,0.788398374999815
119,19,20,categorization,0,kitchen,SHINEd_sun_auticobqsbwgoppi.tif,104,0.0666666666666667,0.0666666666666667,0.733333333333333,17131.303517792,17132.00522525,9,17131.369071459,17131.435878292,17132.025454875,17132.752159584,1,0.701707457999873
119,20,20,categorization,0,bathroom,SHINEd_sun_apjevzvycyhuqghb.tif,43,0.0666666666666667,0.0666666666666667,1.41666666666667,17132.766278042,17133.475057917,9,17132.832740375,17132.898655209,17133.484524292,17134.894568792,0,0.708779874999891
119,21,20,categorization,0,bathroom,SHINEd_sun_acduarbnmmoglmiv.tif,16,0.0666666666666667,0.0666666666666667,0.916666666666667,17134.911752125,17135.781313,13,17134.978372584,17135.04570625,17135.801465084,17136.711470542,1,0.869560874998569
119,22,20,categorization,0,kitchen,SHINEd_sun_avszsnwsbuqfgzbn.tif,105,0.0666666666666667,0.0666666666666667,1.05,17136.716608625,17137.979095375,13,17136.778318417,17136.839300125,17137.991354875,17139.034744542,0,1.2624867500017
119,23,20,categorization,0,bathroom,SHINEd_sun_afcoljnjfoxjtgja.tif,20,0.0666666666666667,0.0666666666666667,1,17139.042815375,17139.844507334,13,17139.106976584,17139.173607209,17139.863459792,17140.856837209,1,0.801691959000891
119,24,20,categorization,0,bathroom,SHINEd_sun_aggnnqpdorgxpvce.tif,21,0.0666666666666667,0.0666666666666667,0.766666666666667,17140.873362042,17141.954949375,9,17140.940075542,17141.006128667,17141.958234084,17142.718239459,0,1.08158733299933
119,25,20,categorization,0,bathroom,SHINEd_sun_ahaulkltgpkeeemi.tif,26,0.0666666666666667,0.0666666666666667,0.783333333333333,17142.723129834,17143.818989459,9,17142.784951542,17142.8458405,17143.831131625,17144.607802542,0,1.09585962499841
119,26,20,categorization,0,kitchen,SHINEd_sun_adgqasybjyktddhj.tif,78,0.0666666666666667,0.0666666666666667,1.45,17144.612606625,17145.563323792,9,17144.674583375,17144.735211292,17145.570538292,17147.013914209,1,0.95071716700113
119,27,20,categorization,0,bathroom,SHINEd_sun_aspsyogrekjtfozg.tif,50,0.0666666666666667,0.0666666666666667,1.15,17147.030751417,17147.926813875,9,17147.098295125,17147.162723792,17147.952317417,17149.095703209,0,0.896062457999506
119,28,20,categorization,0,kitchen,SHINEd_sun_ahspylgoovwmwvgk.tif,93,0.0666666666666667,0.0666666666666667,1.35,17149.105046459,17149.962307375,9,17149.171650334,17149.237364375,17149.97625925,17151.319641417,1,0.857260916000087
119,29,20,categorization,0,kitchen,SHINEd_sun_agubuxuukhzyzpdp.tif,88,0.0666666666666667,0.0666666666666667,1.26666666666667,17151.337152584,17152.133577417,13,17151.403786917,17151.469453292,17152.158773584,17153.418808042,0,0.796424832999037
119,30,20,categorization,0,kitchen,SHINEd_sun_aypmqwcualkenuoe.tif,109,0.0666666666666667,0.0666666666666667,1.05,17153.431027959,17154.118868125,9,17153.494644042,17153.560607709,17154.131828,17155.175218917,1,0.68784016599966
119,31,20,categorization,0,kitchen,SHINEd_sun_afuyedyxivkhecmu.tif,85,0.0666666666666667,0.0666666666666667,0.8,17155.18626825,17156.426798167,9,17155.250438417,17155.309258542,17156.444746125,17157.238084084,1,1.24052991699864
119,32,20,categorization,0,kitchen,SHINEd_sun_amjjdeyrggfqgmom.tif,100,0.0666666666666667,0.0666666666666667,0.866666666666667,17157.243724875,17158.339284875,9,17157.305531709,17157.36641825,17158.351537084,17159.21154225,1,1.09556000000157
119,33,20,categorization,0,bathroom,SHINEd_sun_ambriybtogmepttm.tif,36,0.0666666666666667,0.0666666666666667,0.866666666666667,17159.216436917,17160.84272075,9,17159.2780835,17159.33907325,17160.85828475,17161.718289334,0,1.62628383300034
119,34,20,categorization,0,bathroom,SHINEd_sun_asfwthctfqerjvxr.tif,49,0.0666666666666667,0.0666666666666667,1.53333333333333,17161.723052084,17163.115044417,13,17161.784838042,17161.84579775,17163.13113225,17164.657979542,1,1.39199233300315
119,35,20,categorization,0,bathroom,SHINEd_sun_acgyywnybuveqsro.tif,18,0.0666666666666667,0.0666666666666667,1.66666666666667,17164.670134209,17165.579603542,13,17164.736369459,17164.80138525,17165.609004209,17167.269407584,1,0.909469333000743
119,36,20,categorization,0,bathroom,SHINEd_sun_apkxzenqapsujocq.tif,45,0.0666666666666667,0.0666666666666667,1.95,17167.287432209,17168.031426625,13,17167.354065209,17167.420004667,17168.060353042,17170.003738917,1,0.743994415999623
119,37,20,categorization,0,bathroom,SHINEd_labelme_sfxiulhjbhlyiyt.tif,11,0.0666666666666667,0.0666666666666667,1.3,17170.021822125,17170.599543959,13,17170.088717792,17170.154397125,17170.628045292,17171.921429292,1,0.57772183400084
119,38,20,categorization,0,kitchen,SHINEd_sun_aixorpehvfykdynp.tif,95,0.0666666666666667,0.0666666666666667,1.25,17171.938623459,17172.606809209,13,17172.005600084,17172.071578,17172.628425959,17173.87179525,0,0.668185750000703
119,39,20,categorization,0,kitchen,SHINEd_sun_ajkqhtgcbgpcwrwn.tif,97,0.0666666666666667,0.0666666666666667,1.2,17173.884997625,17174.85614475,13,17173.951989417,17174.017354375,17174.873990417,17176.067371417,0,0.971147125001153
119,40,20,categorization,0,kitchen,SHINEd_sun_akchetnepxlcxhsu.tif,98,0.0666666666666667,0.0666666666666667,1.61666666666667,17176.086506125,17177.112061,9,17176.153260625,17176.219228834,17177.125544334,17178.735592834,1,1.02555487499922
119,41,20,categorization,0,kitchen,SHINEd_sun_abrcnpqqhmjwekyf.tif,73,0.0666666666666667,0.0666666666666667,1.65,17178.753593459,17179.502406334,9,17178.820740584,17178.886543625,17179.526686125,17181.170056917,1,0.748812874997384
119,42,20,categorization,0,bathroom,SHINEd_sun_anryaplzeujmzfkd.tif,39,0.0666666666666667,0.0666666666666667,0.9,17181.18796125,17182.547561084,13,17181.2549455,17181.320289042,17182.576195375,17183.46953475,1,1.3595998339988
119,43,20,categorization,0,bathroom,SHINEd_sun_akiytfaagpdsphgz.tif,31,0.0666666666666667,0.0666666666666667,0.816666666666667,17183.475028959,17184.187477459,13,17183.536702042,17183.597653292,17184.199481334,17185.009484917,1,0.712448499998573
119,44,20,categorization,0,kitchen,SHINEd_sun_ahdycvpopffkzzsu.tif,90,0.0666666666666667,0.0666666666666667,1.86666666666667,17185.0155625,17185.683184417,9,17185.077335417,17185.138178125,17185.690200125,17187.550257417,1,0.667621917000361
119,45,20,categorization,0,bathroom,SHINEd_sun_avhrdrntsqrjzccq.tif,55,0.0666666666666667,0.0666666666666667,1.38333333333333,17187.569580459,17188.261519875,13,17187.636385209,17187.701673084,17188.272472584,17189.649176375,1,0.691939415999514
119,46,20,categorization,0,kitchen,SHINEd_sun_aadbddgrdsjugojn.tif,64,0.0666666666666667,0.0666666666666667,1.63333333333333,17189.668805792,17190.309221459,9,17189.735395584,17189.800783084,17190.321976792,17191.948701917,1,0.640415666999615
119,47,20,categorization,0,kitchen,SHINEd_sun_abpwyqmlzafvklqo.tif,72,0.0666666666666667,0.0666666666666667,1.56666666666667,17191.96533625,17192.770249,9,17192.032119209,17192.098893959,17192.788496375,17194.348528,1,0.804912750001677
119,48,20,categorization,0,bathroom,SHINEd_sun_ajlawzvmubibwbpy.tif,30,0.0666666666666667,0.0666666666666667,1.21666666666667,17194.365215042,17195.151021125,13,17194.4331805,17194.497451584,17195.170444375,17196.380499709,1,0.785806083000352
119,49,20,categorization,0,kitchen,SHINEd_sun_aegoxogugdkwpmpj.tif,80,0.0666666666666667,0.0666666666666667,0.716666666666667,17196.389269875,17197.098529792,9,17196.457348875,17196.521709834,17197.128149542,17197.838204292,1,0.709259917002782
119,50,20,categorization,0,kitchen,SHINEd_labelme_kxvouciolcpqplr.tif,62,0.0666666666666667,0.0666666666666667,0.966666666666667,17197.854761209,17198.818497167,9,17197.9212585,17197.986764917,17198.822235584,17199.782241209,1,0.963735958001052
