sub_num,trial,block,task,is_practice,category,image,texture,duration,mask_dur,jitter,stim_time,time_of_resp,trial_response,mask_time,fix_time,jit_onset,trial_end,trial_accuracy,RT
110,6,0,aesthetic,1,kitchen,kitchen_practice2.tif,227,1.5,0,1.08333333333333,3966.586322083,3969.463443833,6,NaN,3969.495303792,3969.522221875,3970.599422375,NaN,NaN
110,7,0,aesthetic,1,kitchen,kitchen_practice1.tif,226,1.5,0,1.06666666666667,3970.611716083,3974.340788125,5,NaN,3974.357222958,3974.375621583,3975.435852417,NaN,NaN
110,8,0,aesthetic,1,kitchen,kitchen_practice4.tif,229,1.5,0,1.11666666666667,3975.444047792,3977.811227875,6,NaN,3977.829289792,3977.847631,3978.957687417,NaN,NaN
110,9,0,aesthetic,1,kitchen,kitchen_practice3.tif,228,1.5,0,0.95,3978.967616333,3982.14054775,5,NaN,3982.15724525,3982.175659042,3983.119003375,NaN,NaN
110,10,0,aesthetic,1,kitchen,kitchen_practice5.tif,230,1.5,0,0.9,3983.123164042,3985.735134625,4,NaN,3985.786130458,3985.809537542,3986.702879708,NaN,NaN
110,1,1,aesthetic,0,kitchen,sun_ahljzhgcdpomplvg.tif,201,1.5,0,1.48333333333333,3990.943075,3993.46402025,4,NaN,3993.512821792,3993.53644975,3995.013172375,NaN,NaN
110,2,1,aesthetic,0,kitchen,sun_afuyedyxivkhecmu.tif,195,1.5,0,1.46666666666667,3995.033551667,3997.827771125,5,NaN,3997.846078125,3997.864462583,3999.324513917,NaN,NaN
110,3,1,aesthetic,0,kitchen,sun_adgqasybjyktddhj.tif,188,1.5,0,0.766666666666667,3999.342477125,4002.171045,4,NaN,4002.181067333,4002.199457167,4002.959463875,NaN,NaN
110,4,1,aesthetic,0,kitchen,sun_ahpczsiumwwocjkv.tif,202,1.5,0,1.16666666666667,4002.963856125,4006.21257275,4,NaN,4006.222454167,4006.241076292,4007.401168583,NaN,NaN
110,5,1,aesthetic,0,kitchen,sun_agorklincwxrdtga.tif,197,1.5,0,1.6,4007.410119333,4010.844663708,5,NaN,4010.8625795,4010.880928542,4012.474334333,NaN,NaN
110,6,1,aesthetic,0,kitchen,sun_auaiucuqpdausiva.tif,212,1.5,0,1.68333333333333,4012.494606958,4015.812631792,5,NaN,4015.842302917,4015.86502,4017.541755583,NaN,NaN
110,7,1,aesthetic,0,kitchen,sun_aapllqyqlykszopd.tif,176,1.5,0,1.5,4017.561229542,4021.148094167,3,NaN,4021.153733458,4021.172092542,4022.66550975,NaN,NaN
110,8,1,aesthetic,0,kitchen,sun_awcpdzzznmweyyhv.tif,216,1.5,0,0.833333333333333,4022.677491375,4025.723682833,5,NaN,4025.740645042,4025.759009542,4026.585682333,NaN,NaN
110,9,1,aesthetic,0,kitchen,sun_aadbddgrdsjugojn.tif,174,1.5,0,0.9,4026.589900917,4029.439127167,3,NaN,4029.464645917,4029.487984917,4030.381327792,NaN,NaN
110,10,1,aesthetic,0,kitchen,sun_aegoxogugdkwpmpj.tif,190,1.5,0,0.933333333333333,4030.3858905,4032.901831083,4,NaN,4032.950256083,4032.973593042,4033.900270583,NaN,NaN
110,11,1,aesthetic,0,kitchen,sun_abrcnpqqhmjwekyf.tif,183,1.5,0,0.9,4033.905074208,4036.810165583,3,NaN,4036.86534275,4036.888939458,4037.782279208,NaN,NaN
110,12,1,aesthetic,0,kitchen,sun_avszsnwsbuqfgzbn.tif,215,1.5,0,0.85,4037.787084625,4040.192323208,5,NaN,4040.239325,4040.262700958,4041.106044542,NaN,NaN
110,13,1,aesthetic,0,kitchen,labelme_kxvouciolcpqplr.tif,172,1.5,0,1.83333333333333,4041.111067042,4043.984828167,3,NaN,4044.0379985,4044.06197375,4045.888711333,NaN,NaN
110,14,1,aesthetic,0,kitchen,sun_agzzivivdpnawacl.tif,199,1.5,0,0.733333333333333,4045.911164375,4048.92692025,3,NaN,4048.975530042,4048.999221167,4049.725895792,NaN,NaN
110,15,1,aesthetic,0,kitchen,sun_aunzlwrbjumxhwdj.tif,213,1.5,0,1.63333333333333,4049.731002708,4052.697082375,2,NaN,4052.735238708,4052.759050167,4054.385800292,NaN,NaN
110,16,1,aesthetic,0,kitchen,sun_aymvwlarqodbwuoc.tif,218,1.5,0,0.766666666666667,4054.404668125,4057.167196417,4,NaN,4057.224412292,4057.248371542,4058.008380833,NaN,NaN
110,17,1,aesthetic,0,kitchen,sun_abpwyqmlzafvklqo.tif,182,1.5,0,1.71666666666667,4058.013353458,4060.676757292,4,NaN,4060.727082583,4060.751148875,4062.4612095,NaN,NaN
110,18,1,aesthetic,0,kitchen,sun_abdxkyyxwfskuaqb.tif,180,1.5,0,1.51666666666667,4062.479925333,4065.28104925,4,NaN,4065.327719542,4065.35143725,4066.861493042,NaN,NaN
110,19,1,aesthetic,0,kitchen,sun_aaxxjlsuzvqlgylf.tif,178,1.5,0,1.25,4066.878059042,4069.500315083,3,NaN,4069.509539333,4069.527907208,4070.771337167,NaN,NaN
110,20,1,aesthetic,0,kitchen,sun_azmutvzbxypaceni.tif,220,1.5,0,1.41666666666667,4070.793741167,4074.820331542,2,NaN,4074.83057625,4074.849028583,4076.25910525,NaN,NaN
110,21,1,aesthetic,0,kitchen,sun_axyyrmzcupyhlivc.tif,217,1.5,0,1.1,4076.278947042,4079.529100792,2,NaN,4079.538772458,4079.558430958,4080.651809042,NaN,NaN
110,22,1,aesthetic,0,kitchen,sun_ajkqhtgcbgpcwrwn.tif,207,1.5,0,0.95,4080.660187,4084.699244292,1,NaN,4084.704881125,4084.723184542,4085.666524167,NaN,NaN
110,23,1,aesthetic,0,kitchen,sun_aamedkxepzlwuxes.tif,175,1.5,0,1.45,4085.670884833,4088.220313083,2,NaN,4088.245086458,4088.2687935,4089.712198833,NaN,NaN
110,24,1,aesthetic,0,kitchen,sun_akcjzhbbjlbogpdi.tif,209,1.5,0,0.883333333333333,4089.725955208,4092.573470458,2,NaN,4092.589894083,4092.608171667,4093.484848,NaN,NaN
110,25,1,aesthetic,0,kitchen,sun_ahywdevtimnqcsln.tif,204,1.5,0,1.23333333333333,4093.48917725,4096.755569458,2,NaN,4096.761111458,4096.779442958,4098.0061735,NaN,NaN
110,1,2,aesthetic,0,kitchen,sun_aeqdocilnnpuvuhx.tif,193,1.5,0,1.78333333333333,4101.91181425,4106.24361775,3,NaN,4106.24896425,4106.267339583,4108.044080292,NaN,NaN
110,2,2,aesthetic,0,kitchen,sun_aggjlwcdjsjcaemh.tif,196,1.5,0,1.8,4108.063027833,4111.127592042,4,NaN,4111.151526375,4111.175688417,4112.969078042,NaN,NaN
110,3,2,aesthetic,0,kitchen,sun_aixorpehvfykdynp.tif,205,1.5,0,0.8,4112.988662458,4115.606822917,3,NaN,4115.632201917,4115.654192542,4116.44753225,NaN,NaN
110,4,2,aesthetic,0,kitchen,sun_acfmftudsenhrfhy.tif,184,1.5,0,1.01666666666667,4116.452449667,4119.369353208,3,NaN,4119.399375667,4119.423939042,4120.433949167,NaN,NaN
110,5,2,aesthetic,0,kitchen,sun_acxkpeoqbwcxfvip.tif,187,1.5,0,0.85,4120.44152725,4123.09875425,6,NaN,4123.104810667,4123.123127375,4123.966471125,NaN,NaN
110,6,2,aesthetic,0,kitchen,sun_admlmbcdswaszruo.tif,189,1.5,0,1.83333333333333,4123.970760333,4127.690746792,3,NaN,4127.69668725,4127.714910708,4129.541632292,NaN,NaN
110,7,2,aesthetic,0,kitchen,sun_aexklacwqwezaorf.tif,194,1.5,0,1.11666666666667,4129.560219333,4133.979184875,5,NaN,4133.984627,4134.002841875,4135.112923875,NaN,NaN
110,8,2,aesthetic,0,kitchen,sun_agubuxuukhzyzpdp.tif,198,1.5,0,1.88333333333333,4135.121232917,4138.547043792,2,NaN,4138.552652417,4138.571005917,4140.447738667,NaN,NaN
110,9,2,aesthetic,0,kitchen,sun_aypmqwcualkenuoe.tif,219,1.5,0,0.916666666666667,4140.468618833,4144.371406833,6,NaN,4144.376912958,4144.395194083,4145.305203583,NaN,NaN
110,10,2,aesthetic,0,kitchen,labelme_rykdqxenmhulbdn.tif,173,1.5,0,1.05,4145.309542708,4149.035564625,3,NaN,4149.041209708,4149.0594315,4150.102838792,NaN,NaN
110,11,2,aesthetic,0,kitchen,sun_aqeaevwwwjoqhzvl.tif,211,1.5,0,1.35,4150.1117495,4154.956434333,2,NaN,4154.973149,4154.991601875,4156.335008458,NaN,NaN
110,12,2,aesthetic,0,kitchen,sun_ahspylgoovwmwvgk.tif,203,1.5,0,1.01666666666667,4156.352520875,4160.35480575,4,NaN,4160.360407083,4160.378746375,4161.3888055,NaN,NaN
110,13,2,aesthetic,0,kitchen,sun_aehawpgmrlhlvcow.tif,191,1.5,0,2,4161.39932775,4166.107450417,6,NaN,4166.112963042,4166.131386667,4168.124798,NaN,NaN
110,14,2,aesthetic,0,kitchen,sun_ahdycvpopffkzzsu.tif,200,1.5,0,0.9,4168.143343708,4173.331745917,1,NaN,4173.337538333,4173.355884292,4174.249228083,NaN,NaN
110,15,2,aesthetic,0,kitchen,sun_akchetnepxlcxhsu.tif,208,1.5,0,1.15,4174.253519792,4177.204623042,2,NaN,4177.23496775,4177.25840325,4178.401826167,NaN,NaN
110,16,2,aesthetic,0,kitchen,sun_abdenxonkemggwsq.tif,179,1.5,0,1.23333333333333,4178.413303208,4181.554808792,5,NaN,4181.560596542,4181.578969667,4182.805686708,NaN,NaN
110,17,2,aesthetic,0,kitchen,sun_ajcbwwvdlsvjyzje.tif,206,1.5,0,1.03333333333333,4182.822478125,4185.643699458,2,NaN,4185.662435792,4185.680771667,4186.7075185,NaN,NaN
110,18,2,aesthetic,0,kitchen,sun_acgtpgfybqjmzeyw.tif,185,1.5,0,0.783333333333333,4186.715740125,4189.989787875,2,NaN,4189.996195958,4190.014647208,4190.79132125,NaN,NaN
110,19,2,aesthetic,0,kitchen,sun_acwjdupvyjsugpay.tif,186,1.5,0,0.766666666666667,4190.795653583,4194.211557958,2,NaN,4194.217724083,4194.236160333,4194.996170708,NaN,NaN
110,20,2,aesthetic,0,kitchen,sun_auticobqsbwgoppi.tif,214,1.5,0,1.18333333333333,4195.000439417,4197.775171042,2,NaN,4197.805817625,4197.828867333,4199.005619292,NaN,NaN
110,21,2,aesthetic,0,kitchen,sun_aenotlpyftoioydp.tif,192,1.5,0,0.7,4199.014855375,4202.291156583,2,NaN,4202.296591167,4202.314841542,4203.008184292,NaN,NaN
110,22,2,aesthetic,0,kitchen,labelme_brsyyvweiuaazfr.tif,171,1.5,0,0.7,4203.012493333,4205.78382825,3,NaN,4205.836986833,4205.860584208,4206.553926375,NaN,NaN
110,23,2,aesthetic,0,kitchen,sun_abftihopvusyfakt.tif,181,1.5,0,1.55,4206.558712708,4209.914548333,2,NaN,4209.920405667,4209.938652083,4211.482063792,NaN,NaN
110,24,2,aesthetic,0,kitchen,sun_aarfiyshqohlwkmo.tif,177,1.5,0,1.16666666666667,4211.498424875,4214.435331417,5,NaN,4214.440833792,4214.459126542,4215.619184125,NaN,NaN
110,25,2,aesthetic,0,kitchen,sun_amjjdeyrggfqgmom.tif,210,1.5,0,1.68333333333333,4215.628517875,4224.989640708,2,NaN,4224.999497875,4225.017883667,4226.694629792,NaN,NaN
