sub_num,trial,block,task,is_practice,category,image,texture,duration,mask_dur,jitter,stim_time,time_of_resp,trial_response,mask_time,fix_time,jit_onset,trial_end,trial_accuracy,RT
301,1,4,categorization,0,kitchen,SHINEd_sun_ahdycvpopffkzzsu.tif,90,0.0666666666666667,0.0666666666666667,1,4586.3660505,NaN,NaN,4586.428227084,NaN,NaN,NaN,NaN,NaN
301,2,4,categorization,0,bathroom,SHINEd_sun_ahijqszoswveeyji.tif,28,0.0666666666666667,0.0666666666666667,0.966666666666667,NaN,NaN,NaN,NaN,NaN,NaN,NaN,NaN,NaN
301,3,4,categorization,0,bathroom,SHINEd_sun_apynckhmoftszqoq.tif,47,0.0666666666666667,0.0666666666666667,1.75,NaN,NaN,NaN,NaN,NaN,NaN,NaN,NaN,NaN
301,4,4,categorization,0,bathroom,SHINEd_labelme_sfxiulhjbhlyiyt.tif,11,0.0666666666666667,0.0666666666666667,1.68333333333333,NaN,NaN,NaN,NaN,NaN,NaN,NaN,NaN,NaN
301,5,4,categorization,0,kitchen,SHINEd_sun_ajcbwwvdlsvjyzje.tif,96,0.0666666666666667,0.0666666666666667,1.58333333333333,NaN,NaN,NaN,NaN,NaN,NaN,NaN,NaN,NaN
301,6,4,categorization,0,bathroom,SHINEd_sun_apkruvsevgegsdwp.tif,44,0.0666666666666667,0.0666666666666667,1,NaN,NaN,NaN,NaN,NaN,NaN,NaN,NaN,NaN
301,7,4,categorization,0,kitchen,SHINEd_sun_agzzivivdpnawacl.tif,89,0.0666666666666667,0.0666666666666667,1.33333333333333,NaN,NaN,NaN,NaN,NaN,NaN,NaN,NaN,NaN
301,8,4,categorization,0,kitchen,SHINEd_sun_azmutvzbxypaceni.tif,110,0.0666666666666667,0.0666666666666667,1.26666666666667,NaN,NaN,NaN,NaN,NaN,NaN,NaN,NaN,NaN
301,9,4,categorization,0,kitchen,SHINEd_sun_avszsnwsbuqfgzbn.tif,105,0.0666666666666667,0.0666666666666667,0.883333333333333,NaN,NaN,NaN,NaN,NaN,NaN,NaN,NaN,NaN
301,10,4,categorization,0,bathroom,SHINEd_sun_aleqenyvunhactkl.tif,32,0.0666666666666667,0.0666666666666667,1.26666666666667,NaN,NaN,NaN,NaN,NaN,NaN,NaN,NaN,NaN
301,11,4,categorization,0,kitchen,SHINEd_sun_ahpczsiumwwocjkv.tif,92,0.0666666666666667,0.0666666666666667,2,NaN,NaN,NaN,NaN,NaN,NaN,NaN,NaN,NaN
301,12,4,categorization,0,kitchen,SHINEd_labelme_rykdqxenmhulbdn.tif,63,0.0666666666666667,0.0666666666666667,0.733333333333333,NaN,NaN,NaN,NaN,NaN,NaN,NaN,NaN,NaN
301,13,4,categorization,0,bathroom,SHINEd_sun_aclfzgynxzxlbepz.tif,19,0.0666666666666667,0.0666666666666667,0.883333333333333,NaN,NaN,NaN,NaN,NaN,NaN,NaN,NaN,NaN
301,14,4,categorization,0,bathroom,SHINEd_sun_acegryoqftbzowsg.tif,17,0.0666666666666667,0.0666666666666667,0.983333333333333,NaN,NaN,NaN,NaN,NaN,NaN,NaN,NaN,NaN
301,15,4,categorization,0,bathroom,SHINEd_sun_agyqfjcfkdcydepw.tif,25,0.0666666666666667,0.0666666666666667,1.56666666666667,NaN,NaN,NaN,NaN,NaN,NaN,NaN,NaN,NaN
301,16,4,categorization,0,bathroom,SHINEd_sun_anryaplzeujmzfkd.tif,39,0.0666666666666667,0.0666666666666667,1.08333333333333,NaN,NaN,NaN,NaN,NaN,NaN,NaN,NaN,NaN
301,17,4,categorization,0,kitchen,SHINEd_sun_adgqasybjyktddhj.tif,78,0.0666666666666667,0.0666666666666667,0.75,NaN,NaN,NaN,NaN,NaN,NaN,NaN,NaN,NaN
301,18,4,categorization,0,kitchen,SHINEd_sun_aaxxjlsuzvqlgylf.tif,68,0.0666666666666667,0.0666666666666667,0.966666666666667,NaN,NaN,NaN,NaN,NaN,NaN,NaN,NaN,NaN
301,19,4,categorization,0,bathroom,SHINEd_sun_acgyywnybuveqsro.tif,18,0.0666666666666667,0.0666666666666667,1.63333333333333,NaN,NaN,NaN,NaN,NaN,NaN,NaN,NaN,NaN
301,20,4,categorization,0,kitchen,SHINEd_sun_akcjzhbbjlbogpdi.tif,99,0.0666666666666667,0.0666666666666667,1.46666666666667,NaN,NaN,NaN,NaN,NaN,NaN,NaN,NaN,NaN
301,21,4,categorization,0,kitchen,SHINEd_sun_aehawpgmrlhlvcow.tif,81,0.0666666666666667,0.0666666666666667,0.933333333333333,NaN,NaN,NaN,NaN,NaN,NaN,NaN,NaN,NaN
301,22,4,categorization,0,bathroom,SHINEd_sun_abapwbhyhkfixyex.tif,14,0.0666666666666667,0.0666666666666667,1.45,NaN,NaN,NaN,NaN,NaN,NaN,NaN,NaN,NaN
301,23,4,categorization,0,kitchen,SHINEd_sun_aenotlpyftoioydp.tif,82,0.0666666666666667,0.0666666666666667,0.966666666666667,NaN,NaN,NaN,NaN,NaN,NaN,NaN,NaN,NaN
301,24,4,categorization,0,kitchen,SHINEd_sun_akchetnepxlcxhsu.tif,98,0.0666666666666667,0.0666666666666667,0.816666666666667,NaN,NaN,NaN,NaN,NaN,NaN,NaN,NaN,NaN
301,25,4,categorization,0,bathroom,SHINEd_sun_aapitsgbtktqubfy.tif,12,0.0666666666666667,0.0666666666666667,1.96666666666667,NaN,NaN,NaN,NaN,NaN,NaN,NaN,NaN,NaN
301,26,4,categorization,0,kitchen,SHINEd_sun_abpwyqmlzafvklqo.tif,72,0.0666666666666667,0.0666666666666667,0.916666666666667,NaN,NaN,NaN,NaN,NaN,NaN,NaN,NaN,NaN
301,27,4,categorization,0,bathroom,SHINEd_sun_apeeialkgkuxddgh.tif,42,0.0666666666666667,0.0666666666666667,1.28333333333333,NaN,NaN,NaN,NaN,NaN,NaN,NaN,NaN,NaN
301,28,4,categorization,0,bathroom,SHINEd_sun_atstyziqcmkahyxk.tif,51,0.0666666666666667,0.0666666666666667,1.8,NaN,NaN,NaN,NaN,NaN,NaN,NaN,NaN,NaN
301,29,4,categorization,0,bathroom,SHINEd_sun_akiytfaagpdsphgz.tif,31,0.0666666666666667,0.0666666666666667,1.33333333333333,NaN,NaN,NaN,NaN,NaN,NaN,NaN,NaN,NaN
301,30,4,categorization,0,bathroom,SHINEd_sun_axxbkopsgyouuebh.tif,58,0.0666666666666667,0.0666666666666667,1.06666666666667,NaN,NaN,NaN,NaN,NaN,NaN,NaN,NaN,NaN
301,31,4,categorization,0,kitchen,SHINEd_sun_aunzlwrbjumxhwdj.tif,103,0.0666666666666667,0.0666666666666667,1.03333333333333,NaN,NaN,NaN,NaN,NaN,NaN,NaN,NaN,NaN
301,32,4,categorization,0,bathroom,SHINEd_sun_acduarbnmmoglmiv.tif,16,0.0666666666666667,0.0666666666666667,0.733333333333333,NaN,NaN,NaN,NaN,NaN,NaN,NaN,NaN,NaN
301,33,4,categorization,0,bathroom,SHINEd_sun_anhioqovhscjqqwb.tif,38,0.0666666666666667,0.0666666666666667,0.766666666666667,NaN,NaN,NaN,NaN,NaN,NaN,NaN,NaN,NaN
301,34,4,categorization,0,bathroom,SHINEd_sun_aghyqhbptboemmoq.tif,23,0.0666666666666667,0.0666666666666667,1.1,NaN,NaN,NaN,NaN,NaN,NaN,NaN,NaN,NaN
301,35,4,categorization,0,kitchen,SHINEd_sun_admlmbcdswaszruo.tif,79,0.0666666666666667,0.0666666666666667,1.81666666666667,NaN,NaN,NaN,NaN,NaN,NaN,NaN,NaN,NaN
301,36,4,categorization,0,kitchen,SHINEd_labelme_kxvouciolcpqplr.tif,62,0.0666666666666667,0.0666666666666667,0.883333333333333,NaN,NaN,NaN,NaN,NaN,NaN,NaN,NaN,NaN
301,37,4,categorization,0,bathroom,SHINEd_sun_aggnnqpdorgxpvce.tif,21,0.0666666666666667,0.0666666666666667,1.7,NaN,NaN,NaN,NaN,NaN,NaN,NaN,NaN,NaN
301,38,4,categorization,0,bathroom,SHINEd_sun_agrwbmhcpmfuwmsg.tif,24,0.0666666666666667,0.0666666666666667,1.58333333333333,NaN,NaN,NaN,NaN,NaN,NaN,NaN,NaN,NaN
301,39,4,categorization,0,kitchen,SHINEd_sun_auaiucuqpdausiva.tif,102,0.0666666666666667,0.0666666666666667,0.833333333333333,NaN,NaN,NaN,NaN,NaN,NaN,NaN,NaN,NaN
301,40,4,categorization,0,kitchen,SHINEd_sun_afuyedyxivkhecmu.tif,85,0.0666666666666667,0.0666666666666667,0.95,NaN,NaN,NaN,NaN,NaN,NaN,NaN,NaN,NaN
301,41,4,categorization,0,bathroom,SHINEd_sun_aofnryafpsjimzsb.tif,40,0.0666666666666667,0.0666666666666667,1.06666666666667,NaN,NaN,NaN,NaN,NaN,NaN,NaN,NaN,NaN
301,42,4,categorization,0,kitchen,SHINEd_sun_auticobqsbwgoppi.tif,104,0.0666666666666667,0.0666666666666667,1.68333333333333,NaN,NaN,NaN,NaN,NaN,NaN,NaN,NaN,NaN
301,43,4,categorization,0,bathroom,SHINEd_sun_aavhrsfjbserjtht.tif,13,0.0666666666666667,0.0666666666666667,1.31666666666667,NaN,NaN,NaN,NaN,NaN,NaN,NaN,NaN,NaN
301,44,4,categorization,0,bathroom,SHINEd_sun_aspsyogrekjtfozg.tif,50,0.0666666666666667,0.0666666666666667,1.61666666666667,NaN,NaN,NaN,NaN,NaN,NaN,NaN,NaN,NaN
301,45,4,categorization,0,kitchen,SHINEd_sun_acgtpgfybqjmzeyw.tif,75,0.0666666666666667,0.0666666666666667,1.15,NaN,NaN,NaN,NaN,NaN,NaN,NaN,NaN,NaN
301,46,4,categorization,0,kitchen,SHINEd_sun_abrcnpqqhmjwekyf.tif,73,0.0666666666666667,0.0666666666666667,1.25,NaN,NaN,NaN,NaN,NaN,NaN,NaN,NaN,NaN
301,47,4,categorization,0,kitchen,SHINEd_labelme_brsyyvweiuaazfr.tif,61,0.0666666666666667,0.0666666666666667,1.1,NaN,NaN,NaN,NaN,NaN,NaN,NaN,NaN,NaN
301,48,4,categorization,0,kitchen,SHINEd_sun_abdxkyyxwfskuaqb.tif,70,0.0666666666666667,0.0666666666666667,0.9,NaN,NaN,NaN,NaN,NaN,NaN,NaN,NaN,NaN
301,49,4,categorization,0,bathroom,SHINEd_sun_ahaulkltgpkeeemi.tif,26,0.0666666666666667,0.0666666666666667,1.3,NaN,NaN,NaN,NaN,NaN,NaN,NaN,NaN,NaN
301,50,4,categorization,0,kitchen,SHINEd_sun_ajkqhtgcbgpcwrwn.tif,97,0.0666666666666667,0.0666666666666667,1.25,NaN,NaN,NaN,NaN,NaN,NaN,NaN,NaN,NaN
