sub_num,trial,block,task,is_practice,category,image,texture,duration,mask_dur,jitter,stim_time,time_of_resp,trial_response,mask_time,fix_time,jit_onset,trial_end,trial_accuracy,RT
130,1,0,usability,1,bathroom,bathroom_practice3.tif,223,1.5,0,0.983333333333333,1411.540139833,1415.8591385,3,NaN,1415.866618375,1415.885366791,1416.862096208,NaN,NaN
130,2,0,usability,1,bathroom,bathroom_practice4.tif,224,1.5,0,1.78333333333333,1416.867317083,1421.227795291,5,NaN,1421.234221583,1421.252811708,1423.029678541,NaN,NaN
130,3,0,usability,1,bathroom,bathroom_practice5.tif,225,1.5,0,1.78333333333333,1423.048615041,1426.399426625,3,NaN,1426.429479166,1426.453435208,1428.23013325,NaN,NaN
130,4,0,usability,1,bathroom,bathroom_practice2.tif,222,1.5,0,1.26666666666667,1428.240449,1431.168333708,1,NaN,1431.196250791,1431.218142958,1432.478176625,NaN,NaN
130,5,0,usability,1,bathroom,bathroom_practice1.tif,221,1.5,0,1.05,1432.498716333,1436.203718958,4,NaN,1436.209557416,1436.227767125,1437.271146916,NaN,NaN
130,1,1,usability,0,bathroom,sun_apynckhmoftszqoq.tif,157,1.5,0,1.01666666666667,1441.9882995,1445.635217208,1,NaN,1445.641104875,1445.659603583,1446.669646083,NaN,NaN
130,2,1,usability,0,bathroom,sun_avhrdrntsqrjzccq.tif,165,1.5,0,1.61666666666667,1446.686909541,1451.275815875,3,NaN,1451.281581083,1451.299973125,1452.910016083,NaN,NaN
130,3,1,usability,0,bathroom,sun_apkxzenqapsujocq.tif,155,1.5,0,1.16666666666667,1452.927019833,1455.95474,3,NaN,1455.960711333,1455.979223583,1457.1392695,NaN,NaN
130,4,1,usability,0,bathroom,sun_aoybiabnpadelefl.tif,151,1.5,0,0.983333333333333,1457.148034583,1460.76284,5,NaN,1460.768909875,1460.78722125,1461.763893125,NaN,NaN
130,5,1,usability,0,bathroom,sun_aggnnqpdorgxpvce.tif,131,1.5,0,0.783333333333333,1461.770490791,1464.963896083,6,NaN,1464.970191125,1464.988493916,1465.765166208,NaN,NaN
130,6,1,usability,0,bathroom,sun_ambriybtogmepttm.tif,146,1.5,0,0.816666666666667,1465.770322125,1468.630712541,2,NaN,1468.660021583,1468.682817166,1469.492822416,NaN,NaN
130,7,1,usability,0,bathroom,sun_agrwbmhcpmfuwmsg.tif,134,1.5,0,1.1,1469.497559166,1472.510897958,6,NaN,1472.527593708,1472.547691791,1473.641069791,NaN,NaN
130,8,1,usability,0,bathroom,sun_amzlamotzwfkwjco.tif,147,1.5,0,1.65,1473.650075541,1476.819581083,3,NaN,1476.825281,1476.843687708,1478.487058625,NaN,NaN
130,9,1,usability,0,bathroom,sun_afcoljnjfoxjtgja.tif,130,1.5,0,1.13333333333333,1478.505955375,1482.267088708,5,NaN,1482.273358833,1482.291844333,1483.418557583,NaN,NaN
130,10,1,usability,0,bathroom,sun_aofnryafpsjimzsb.tif,150,1.5,0,0.766666666666667,1483.427821125,1486.899056208,5,NaN,1486.904991333,1486.923404916,1487.683410166,NaN,NaN
130,11,1,usability,0,bathroom,sun_apeeialkgkuxddgh.tif,152,1.5,0,1.25,1487.6885355,1490.492601833,5,NaN,1490.522285375,1490.5448915,1491.788277916,NaN,NaN
130,12,1,usability,0,bathroom,sun_aavhrsfjbserjtht.tif,123,1.5,0,1.5,1491.805496,1494.602956166,4,NaN,1494.608878041,1494.627389541,1496.12077375,NaN,NaN
130,13,1,usability,0,bathroom,labelme_sfxiulhjbhlyiyt.tif,121,1.5,0,1.56666666666667,1496.139033166,1499.3231045,4,NaN,1499.328869666,1499.34724575,1500.907282291,NaN,NaN
130,14,1,usability,0,bathroom,sun_alkosphxlxwjwgjd.tif,144,1.5,0,1.45,1500.925000625,1504.171572125,3,NaN,1504.177267916,1504.195539625,1505.638921375,NaN,NaN
130,15,1,usability,0,bathroom,sun_atstyziqcmkahyxk.tif,161,1.5,0,1.53333333333333,1505.657549125,1509.5156035,3,NaN,1509.521349416,1509.539767041,1511.066470875,NaN,NaN
130,16,1,usability,0,bathroom,sun_aleqenyvunhactkl.tif,142,1.5,0,0.8,1511.08067225,1514.579665,2,NaN,1514.585329958,1514.603458583,1515.396798916,NaN,NaN
130,17,1,usability,0,bathroom,sun_ahaulkltgpkeeemi.tif,136,1.5,0,0.933333333333333,1515.402912416,1518.971000791,2,NaN,1518.976904916,1518.995258625,1519.921932291,NaN,NaN
130,18,1,usability,0,bathroom,sun_aljolscmmzydegqp.tif,143,1.5,0,1.75,1519.927255291,1523.563593041,4,NaN,1523.569280458,1523.587572708,1525.33095725,NaN,NaN
130,19,1,usability,0,bathroom,sun_ahijqszoswveeyji.tif,138,1.5,0,1.48333333333333,1525.348499541,1528.844518833,6,NaN,1528.858152875,1528.87758275,1530.354282458,NaN,NaN
130,20,1,usability,0,bathroom,sun_aclfzgynxzxlbepz.tif,129,1.5,0,1.03333333333333,1530.373174,1533.3706245,7,NaN,1533.376715083,1533.395134416,1534.421839,NaN,NaN
130,21,1,usability,0,bathroom,sun_alotolagknyrgtsk.tif,145,1.5,0,1.23333333333333,1534.435723583,1537.610603166,1,NaN,1537.616826,1537.635416916,1538.862137458,NaN,NaN
130,22,1,usability,0,bathroom,sun_axxbkopsgyouuebh.tif,168,1.5,0,1.28333333333333,1538.880115166,1542.25079875,4,NaN,1542.256653541,1542.275016125,1543.551715166,NaN,NaN
130,23,1,usability,0,bathroom,sun_ahcvzmoyaycdoftf.tif,137,1.5,0,1.66666666666667,1543.567490708,1546.275675958,7,NaN,1546.281995666,1546.300310875,1547.960363583,NaN,NaN
130,24,1,usability,0,bathroom,sun_aghyqhbptboemmoq.tif,133,1.5,0,1.26666666666667,1547.978038166,1551.171269458,5,NaN,1551.200898875,1551.224415,1552.48447025,NaN,NaN
130,25,1,usability,0,bathroom,sun_awnqiikzaispgmwo.tif,166,1.5,0,1.4,1552.502015875,1557.082835041,3,NaN,1557.088763958,1557.107074875,1558.500442333,NaN,NaN
130,1,2,usability,0,bathroom,sun_abjtwfukuwddzted.tif,125,1.5,0,1.66666666666667,1573.021488833,1576.666616,2,NaN,1576.672741416,1576.691072541,1578.351106041,NaN,NaN
130,2,2,usability,0,bathroom,sun_aqrpegblszgcoujh.tif,158,1.5,0,1.85,1578.371671666,1582.38700825,5,NaN,1582.392680708,1582.411074041,1584.254444375,NaN,NaN
130,3,2,usability,0,bathroom,sun_acgyywnybuveqsro.tif,128,1.5,0,1.65,1584.265713208,1587.083907666,6,NaN,1587.113437083,1587.136956416,1588.780321916,NaN,NaN
130,4,2,usability,0,bathroom,sun_azqyogdvyhahyram.tif,170,1.5,0,0.95,1588.798434958,1592.380362833,3,NaN,1592.392569208,1592.411645333,1593.354982791,NaN,NaN
130,5,2,usability,0,bathroom,sun_apmqjbnwghzuhhzh.tif,156,1.5,0,0.783333333333333,1593.360263958,1596.46691125,3,NaN,1596.474337041,1596.492776041,1597.2694475,NaN,NaN
130,6,2,usability,0,bathroom,sun_ajlawzvmubibwbpy.tif,140,1.5,0,1.13333333333333,1597.274608,1601.491130166,6,NaN,1601.496817583,1601.515213041,1602.641928541,NaN,NaN
130,7,2,usability,0,bathroom,sun_akiytfaagpdsphgz.tif,141,1.5,0,1.63333333333333,1602.650361166,1605.395451083,4,NaN,1605.401237083,1605.419380375,1607.046093875,NaN,NaN
130,8,2,usability,0,bathroom,sun_acduarbnmmoglmiv.tif,126,1.5,0,1.2,1607.063065416,1611.2262555,3,NaN,1611.232445375,1611.250749791,1612.44413425,NaN,NaN
130,9,2,usability,0,bathroom,sun_ahqjwnzgolcaoidx.tif,139,1.5,0,1.71666666666667,1612.455306666,1615.650253833,4,NaN,1615.656199166,1615.674517833,1617.384559458,NaN,NaN
130,10,2,usability,0,bathroom,sun_asfwthctfqerjvxr.tif,159,1.5,0,0.9,1617.405014,1620.522110041,5,NaN,1620.554042291,1620.57702775,1621.470367583,NaN,NaN
130,11,2,usability,0,bathroom,sun_apjevzvycyhuqghb.tif,153,1.5,0,0.9,1621.475941791,1624.770357708,6,NaN,1624.776445666,1624.794764791,1625.688103958,NaN,NaN
130,12,2,usability,0,bathroom,sun_agguqiubmwhqqunb.tif,132,1.5,0,0.766666666666667,1625.701328666,1628.794527083,5,NaN,1628.819556291,1628.838290291,1629.59829575,NaN,NaN
130,13,2,usability,0,bathroom,sun_acegryoqftbzowsg.tif,127,1.5,0,0.966666666666667,1629.602482458,1632.962488291,4,NaN,1632.968475333,1632.986768,1633.946774083,NaN,NaN
130,14,2,usability,0,bathroom,sun_apkruvsevgegsdwp.tif,154,1.5,0,0.7,1633.952679375,1637.170879166,5,NaN,1637.176830291,1637.195195375,1637.888534416,NaN,NaN
130,15,2,usability,0,bathroom,sun_aunuadmjocsddsrl.tif,162,1.5,0,1.1,1637.893126125,1641.419026583,3,NaN,1641.424853833,1641.443208208,1642.536593833,NaN,NaN
130,16,2,usability,0,bathroom,sun_axyrejkiiaqiurjk.tif,169,1.5,0,1.33333333333333,1642.544925583,1645.803138666,2,NaN,1645.808808208,1645.827190625,1647.153892916,NaN,NaN
130,17,2,usability,0,bathroom,sun_ausgutylgojavyoq.tif,163,1.5,0,1.15,1647.171660666,1651.402866791,4,NaN,1651.40871525,1651.427131625,1652.570503375,NaN,NaN
130,18,2,usability,0,bathroom,sun_aapitsgbtktqubfy.tif,122,1.5,0,1.28333333333333,1652.578894541,1655.594836416,5,NaN,1655.600675791,1655.619442083,1656.896156083,NaN,NaN
130,19,2,usability,0,bathroom,sun_agyqfjcfkdcydepw.tif,135,1.5,0,1.35,1656.911817458,1659.93063225,3,NaN,1659.936360208,1659.954728708,1661.298107166,NaN,NaN
130,20,2,usability,0,bathroom,sun_abapwbhyhkfixyex.tif,124,1.5,0,1.43333333333333,1661.312794666,1666.803046958,7,NaN,1666.808784416,1666.827130166,1668.253842833,NaN,NaN
130,21,2,usability,0,bathroom,sun_auzqhkafidnkrwmo.tif,164,1.5,0,0.916666666666667,1668.263501791,1671.562275375,4,NaN,1671.568195833,1671.586540583,1672.496544333,NaN,NaN
130,22,2,usability,0,bathroom,sun_anryaplzeujmzfkd.tif,149,1.5,0,0.766666666666667,1672.502429375,1676.194159083,6,NaN,1676.200356875,1676.218971083,1676.978976416,NaN,NaN
130,23,2,usability,0,bathroom,sun_anhioqovhscjqqwb.tif,148,1.5,0,0.866666666666667,1676.986013208,1679.846145583,7,NaN,1679.875255875,1679.898510875,1680.758516875,NaN,NaN
130,24,2,usability,0,bathroom,sun_axldvoqbuvuggfmq.tif,167,1.5,0,0.833333333333333,1680.764039625,1683.678259791,5,NaN,1683.704826041,1683.728116708,1684.554789,NaN,NaN
130,25,2,usability,0,bathroom,sun_aspsyogrekjtfozg.tif,160,1.5,0,0.75,1684.559964416,1687.623128291,4,NaN,1687.643807708,1687.664224208,1688.407561791,NaN,NaN
