sub_num,trial,block,task,is_practice,category,image,texture,duration,mask_dur,jitter,stim_time,time_of_resp,trial_response,mask_time,fix_time,jit_onset,trial_end,trial_accuracy,RT
123,6,0,aesthetic,1,kitchen,kitchen_practice2.tif,227,1.5,0,1.08333333333333,3703.162687666,3706.409246916,4,NaN,3706.415878,3706.434262541,3707.511020708,NaN,NaN
123,7,0,aesthetic,1,kitchen,kitchen_practice1.tif,226,1.5,0,1.06666666666667,3707.5192235,3710.265741291,3,NaN,3710.271121875,3710.289441791,3711.349534625,NaN,NaN
123,8,0,aesthetic,1,kitchen,kitchen_practice4.tif,229,1.5,0,1.11666666666667,3711.359047208,3713.769664291,5,NaN,3713.775143666,3713.793537,3714.903639666,NaN,NaN
123,9,0,aesthetic,1,kitchen,kitchen_practice3.tif,228,1.5,0,0.95,3714.913519916,3719.809373416,5,NaN,3719.8154425,3719.833860458,3720.777202041,NaN,NaN
123,10,0,aesthetic,1,kitchen,kitchen_practice5.tif,230,1.5,0,0.9,3720.781655708,3724.92984325,3,NaN,3724.935148208,3724.953391833,3725.846734,NaN,NaN
123,1,1,aesthetic,0,kitchen,sun_ahljzhgcdpomplvg.tif,201,1.5,0,1.48333333333333,3729.940020416,3733.481215333,5,NaN,3733.486858708,3733.505166791,3734.981935958,NaN,NaN
123,2,1,aesthetic,0,kitchen,sun_afuyedyxivkhecmu.tif,195,1.5,0,1.46666666666667,3734.999779416,3737.857781666,4,NaN,3737.863074583,3737.881423916,3739.341494333,NaN,NaN
123,3,1,aesthetic,0,kitchen,sun_adgqasybjyktddhj.tif,188,1.5,0,0.766666666666667,3739.363397375,3742.105938333,2,NaN,3742.111226666,3742.129358708,3742.88936675,NaN,NaN
123,4,1,aesthetic,0,kitchen,sun_ahpczsiumwwocjkv.tif,202,1.5,0,1.16666666666667,3742.894406,3745.742950541,6,NaN,3745.771062375,3745.794697,3746.954772958,NaN,NaN
123,5,1,aesthetic,0,kitchen,sun_agorklincwxrdtga.tif,197,1.5,0,1.6,3746.967025708,3749.633336291,4,NaN,3749.638904375,3749.65719425,3751.250633166,NaN,NaN
123,6,1,aesthetic,0,kitchen,sun_auaiucuqpdausiva.tif,212,1.5,0,1.68333333333333,3751.270096,3754.649329083,6,NaN,3754.654753916,3754.673091625,3756.349787208,NaN,NaN
123,7,1,aesthetic,0,kitchen,sun_aapllqyqlykszopd.tif,176,1.5,0,1.5,3756.362047291,3759.272673416,3,NaN,3759.299346875,3759.322661791,3760.8160975,NaN,NaN
123,8,1,aesthetic,0,kitchen,sun_awcpdzzznmweyyhv.tif,216,1.5,0,0.833333333333333,3760.831279041,3763.769607625,6,NaN,3763.775094708,3763.793474041,3764.620148541,NaN,NaN
123,9,1,aesthetic,0,kitchen,sun_aadbddgrdsjugojn.tif,174,1.5,0,0.9,3764.624557333,3767.921778041,7,NaN,3767.927074958,3767.945127,3768.838471333,NaN,NaN
123,10,1,aesthetic,0,kitchen,sun_aegoxogugdkwpmpj.tif,190,1.5,0,0.933333333333333,3768.844521583,3772.240959541,5,NaN,3772.246810875,3772.265039458,3773.191714916,NaN,NaN
123,11,1,aesthetic,0,kitchen,sun_abrcnpqqhmjwekyf.tif,183,1.5,0,0.9,3773.196035166,3775.777034166,4,NaN,3775.800918166,3775.824016,3776.717358375,NaN,NaN
123,12,1,aesthetic,0,kitchen,sun_avszsnwsbuqfgzbn.tif,215,1.5,0,0.85,3776.725891583,3779.437045458,4,NaN,3779.464968,3779.488288666,3780.331629166,NaN,NaN
123,13,1,aesthetic,0,kitchen,labelme_kxvouciolcpqplr.tif,172,1.5,0,1.83333333333333,3780.336282416,3783.426373666,3,NaN,3783.451531708,3783.4709105,3785.297645625,NaN,NaN
123,14,1,aesthetic,0,kitchen,sun_agzzivivdpnawacl.tif,199,1.5,0,0.733333333333333,3785.31342025,3789.153817666,2,NaN,3789.159296833,3789.17772025,3789.904396041,NaN,NaN
123,15,1,aesthetic,0,kitchen,sun_aunzlwrbjumxhwdj.tif,213,1.5,0,1.63333333333333,3789.908932958,3792.946154166,1,NaN,3792.970222916,3792.995258125,3794.622006416,NaN,NaN
123,16,1,aesthetic,0,kitchen,sun_aymvwlarqodbwuoc.tif,218,1.5,0,0.766666666666667,3794.641274083,3797.296536416,7,NaN,3797.323871916,3797.347245958,3798.107317083,NaN,NaN
123,17,1,aesthetic,0,kitchen,sun_abpwyqmlzafvklqo.tif,182,1.5,0,1.71666666666667,3798.123979916,3800.805917,4,NaN,3800.834240375,3800.857948916,3802.568018416,NaN,NaN
123,18,1,aesthetic,0,kitchen,sun_abdxkyyxwfskuaqb.tif,180,1.5,0,1.51666666666667,3802.588444708,3805.637451208,3,NaN,3805.66647375,3805.690119875,3807.200192166,NaN,NaN
123,19,1,aesthetic,0,kitchen,sun_aaxxjlsuzvqlgylf.tif,178,1.5,0,1.25,3807.220346333,3809.993099,6,NaN,3809.998702916,3810.016960208,3811.260385791,NaN,NaN
123,20,1,aesthetic,0,kitchen,sun_azmutvzbxypaceni.tif,220,1.5,0,1.41666666666667,3811.27938575,3815.352841083,7,NaN,3815.358703333,3815.377161166,3816.787247125,NaN,NaN
123,21,1,aesthetic,0,kitchen,sun_axyyrmzcupyhlivc.tif,217,1.5,0,1.1,3816.805367291,3819.345095333,7,NaN,3819.350676333,3819.369147,3820.462558833,NaN,NaN
123,22,1,aesthetic,0,kitchen,sun_ajkqhtgcbgpcwrwn.tif,207,1.5,0,0.95,3820.471415416,3822.921414875,5,NaN,3822.926855666,3822.945044541,3823.888387,NaN,NaN
123,23,1,aesthetic,0,kitchen,sun_aamedkxepzlwuxes.tif,175,1.5,0,1.45,3823.893567166,3826.810751666,2,NaN,3826.838756375,3826.862442875,3828.305838458,NaN,NaN
123,24,1,aesthetic,0,kitchen,sun_akcjzhbbjlbogpdi.tif,209,1.5,0,0.883333333333333,3828.323273583,3831.296864416,3,NaN,3831.302445333,3831.320760416,3832.197435291,NaN,NaN
123,25,1,aesthetic,0,kitchen,sun_ahywdevtimnqcsln.tif,204,1.5,0,1.23333333333333,3832.201531208,3835.569274291,3,NaN,3835.574771333,3835.593176166,3836.8199315,NaN,NaN
123,1,2,aesthetic,0,kitchen,sun_aeqdocilnnpuvuhx.tif,193,1.5,0,1.78333333333333,3840.9346215,3843.740650041,6,NaN,3843.769023166,3843.792436708,3845.569171333,NaN,NaN
123,2,2,aesthetic,0,kitchen,sun_aggjlwcdjsjcaemh.tif,196,1.5,0,1.8,3845.587115916,3848.371395458,4,NaN,3848.387063208,3848.410095875,3850.20352675,NaN,NaN
123,3,2,aesthetic,0,kitchen,sun_aixorpehvfykdynp.tif,205,1.5,0,0.8,3850.221017416,3852.997696125,3,NaN,3853.02492375,3853.048461875,3853.841805791,NaN,NaN
123,4,2,aesthetic,0,kitchen,sun_acfmftudsenhrfhy.tif,184,1.5,0,1.01666666666667,3853.858892875,3856.656437958,6,NaN,3856.685121791,3856.709087375,3857.719095833,NaN,NaN
123,5,2,aesthetic,0,kitchen,sun_acxkpeoqbwcxfvip.tif,187,1.5,0,0.85,3857.724009333,3863.77717975,7,NaN,3863.7826685,3863.801056916,3864.644398416,NaN,NaN
123,6,2,aesthetic,0,kitchen,sun_admlmbcdswaszruo.tif,189,1.5,0,1.83333333333333,3864.648879625,3867.604835458,6,NaN,3867.633782,3867.657446041,3869.4842155,NaN,NaN
123,7,2,aesthetic,0,kitchen,sun_aexklacwqwezaorf.tif,194,1.5,0,1.11666666666667,3869.502599416,3872.244038833,7,NaN,3872.2716165,3872.295406625,3873.405478416,NaN,NaN
123,8,2,aesthetic,0,kitchen,sun_agubuxuukhzyzpdp.tif,198,1.5,0,1.88333333333333,3873.414976833,3876.193542666,5,NaN,3876.199108083,3876.217480125,3878.09425875,NaN,NaN
123,9,2,aesthetic,0,kitchen,sun_aypmqwcualkenuoe.tif,219,1.5,0,0.916666666666667,3878.112884791,3880.664580958,7,NaN,3880.670029125,3880.688292208,3881.598298958,NaN,NaN
123,10,2,aesthetic,0,kitchen,labelme_rykdqxenmhulbdn.tif,173,1.5,0,1.05,3881.602520416,3884.303941791,4,NaN,3884.327601333,3884.350507416,3885.393900458,NaN,NaN
123,11,2,aesthetic,0,kitchen,sun_aqeaevwwwjoqhzvl.tif,211,1.5,0,1.35,3885.404114458,3888.480519791,3,NaN,3888.486413958,3888.504855416,3889.848257458,NaN,NaN
123,12,2,aesthetic,0,kitchen,sun_ahspylgoovwmwvgk.tif,203,1.5,0,1.01666666666667,3889.865486208,3892.401023583,6,NaN,3892.406471875,3892.424678666,3893.4347435,NaN,NaN
123,13,2,aesthetic,0,kitchen,sun_aehawpgmrlhlvcow.tif,191,1.5,0,2,3893.444854791,3897.353053208,6,NaN,3897.358551208,3897.377420125,3899.370813333,NaN,NaN
123,14,2,aesthetic,0,kitchen,sun_ahdycvpopffkzzsu.tif,200,1.5,0,0.9,3899.387769,3902.601580541,2,NaN,3902.609391833,3902.627857875,3903.5212025,NaN,NaN
123,15,2,aesthetic,0,kitchen,sun_akchetnepxlcxhsu.tif,208,1.5,0,1.15,3903.526801166,3906.400553333,3,NaN,3906.418563833,3906.440485041,3907.583879375,NaN,NaN
123,16,2,aesthetic,0,kitchen,sun_abdenxonkemggwsq.tif,179,1.5,0,1.23333333333333,3907.595921166,3910.768644041,2,NaN,3910.774353166,3910.792671375,3912.019437625,NaN,NaN
123,17,2,aesthetic,0,kitchen,sun_ajcbwwvdlsvjyzje.tif,206,1.5,0,1.03333333333333,3912.037825291,3914.976734083,6,NaN,3914.982292791,3915.000688125,3916.027442375,NaN,NaN
123,18,2,aesthetic,0,kitchen,sun_acgtpgfybqjmzeyw.tif,185,1.5,0,0.783333333333333,3916.036495625,3919.096669916,3,NaN,3919.102255416,3919.120627583,3919.897303208,NaN,NaN
123,19,2,aesthetic,0,kitchen,sun_acwjdupvyjsugpay.tif,186,1.5,0,0.766666666666667,3919.908453375,3922.557448708,4,NaN,3922.578357583,3922.60206475,3923.362075791,NaN,NaN
123,20,2,aesthetic,0,kitchen,sun_auticobqsbwgoppi.tif,214,1.5,0,1.18333333333333,3923.366929625,3926.268203666,3,NaN,3926.296886291,3926.319957958,3927.496707833,NaN,NaN
123,21,2,aesthetic,0,kitchen,sun_aenotlpyftoioydp.tif,192,1.5,0,0.7,3927.507960583,3930.280905291,1,NaN,3930.286354791,3930.304740666,3930.998083541,NaN,NaN
123,22,2,aesthetic,0,kitchen,labelme_brsyyvweiuaazfr.tif,171,1.5,0,0.7,3931.002253458,3933.992260958,3,NaN,3934.021476583,3934.04480675,3934.738150958,NaN,NaN
123,23,2,aesthetic,0,kitchen,sun_abftihopvusyfakt.tif,181,1.5,0,1.55,3934.743200541,3937.3531025,6,NaN,3937.378196875,3937.401695583,3938.945136958,NaN,NaN
123,24,2,aesthetic,0,kitchen,sun_aarfiyshqohlwkmo.tif,177,1.5,0,1.16666666666667,3938.961439041,3942.032543541,5,NaN,3942.0381515,3942.056588375,3943.216661708,NaN,NaN
123,25,2,aesthetic,0,kitchen,sun_amjjdeyrggfqgmom.tif,210,1.5,0,1.68333333333333,3943.226977416,3946.176399291,5,NaN,3946.181987458,3946.200343666,3947.877074541,NaN,NaN
