sub_num,trial,block,task,is_practice,category,image,texture,duration,mask_dur,jitter,stim_time,time_of_resp,trial_response,mask_time,fix_time,jit_onset,trial_end,trial_accuracy,RT
110,1,8,categorization,0,kitchen,SHINEd_sun_acxkpeoqbwcxfvip.tif,77,0.0666666666666667,0.0666666666666667,1.18333333333333,1631.7937535,1632.325502666,13,1631.856112208,1631.916469875,1632.3348485,1633.511558208,0,0.531749165999827
110,2,8,categorization,0,bathroom,SHINEd_sun_axldvoqbuvuggfmq.tif,57,0.0666666666666667,0.0666666666666667,0.983333333333333,1633.521592208,1633.807906791,9,1633.588368166,1633.65362725,1633.826395208,1634.803115416,0,0.286314583000149
110,3,8,categorization,0,bathroom,SHINEd_sun_acduarbnmmoglmiv.tif,16,0.0666666666666667,0.0666666666666667,1.65,1634.814212708,1635.112381166,9,1634.880833458,1634.945883,1635.1353925,1636.778745041,0,0.298168457999964
110,4,8,categorization,0,bathroom,SHINEd_sun_acgyywnybuveqsro.tif,18,0.0666666666666667,0.0666666666666667,1.23333333333333,1636.789853958,1637.098106041,13,1636.856725583,1636.921383083,1637.127761083,1638.354481541,1,0.308252082999843
110,5,8,categorization,0,bathroom,SHINEd_sun_apmqjbnwghzuhhzh.tif,46,0.0666666666666667,0.0666666666666667,0.916666666666667,1638.373393833,1638.674182541,9,1638.44060475,1638.5061395,1638.695809,1639.60584025,0,0.300788708000027
110,6,8,categorization,0,bathroom,SHINEd_sun_aunuadmjocsddsrl.tif,52,0.0666666666666667,0.0666666666666667,1.56666666666667,1639.621948083,1640.397498291,13,1639.688970125,1639.754490375,1640.406346166,1641.966388458,1,0.775550207999913
110,7,8,categorization,0,bathroom,SHINEd_sun_abapwbhyhkfixyex.tif,14,0.0666666666666667,0.0666666666666667,1.63333333333333,1641.984411625,1642.416692083,13,1642.051056541,1642.117415666,1642.440691791,1644.067404583,1,0.43228045800015
110,8,8,categorization,0,kitchen,SHINEd_labelme_brsyyvweiuaazfr.tif,61,0.0666666666666667,0.0666666666666667,1.1,1644.082847916,1645.459399833,9,1644.149382916,1644.215406375,1645.490786666,1646.584150875,1,1.37655191699992
110,9,8,categorization,0,kitchen,SHINEd_sun_acwjdupvyjsugpay.tif,76,0.0666666666666667,0.0666666666666667,1.38333333333333,1646.596932291,1648.877588916,13,1646.661667166,1646.729856291,1648.881972875,1650.258680083,0,2.28065662499989
110,10,8,categorization,0,bathroom,SHINEd_sun_avhrdrntsqrjzccq.tif,55,0.0666666666666667,0.0666666666666667,0.766666666666667,1650.275783458,1651.457344125,13,1650.344101875,1650.408442125,1651.481416458,1652.241420666,1,1.18156066699999
110,11,8,categorization,0,kitchen,SHINEd_sun_avszsnwsbuqfgzbn.tif,105,0.0666666666666667,0.0666666666666667,1.45,1652.246129208,1653.229523208,13,1652.308013791,1652.368786416,1653.237244041,1654.680632,0,0.983394000000089
110,12,8,categorization,0,kitchen,SHINEd_sun_agorklincwxrdtga.tif,87,0.0666666666666667,0.0666666666666667,0.983333333333333,1654.698101958,1655.681939833,13,1654.762223583,1654.829246583,1655.702423458,1656.679096333,0,0.983837874999836
110,13,8,categorization,0,kitchen,SHINEd_sun_aypmqwcualkenuoe.tif,109,0.0666666666666667,0.0666666666666667,0.716666666666667,1656.684821541,1657.341251791,13,1656.746559583,1656.807504208,1657.359332708,1658.069338,0,0.656430250000085
110,14,8,categorization,0,bathroom,SHINEd_sun_auzqhkafidnkrwmo.tif,54,0.0666666666666667,0.0666666666666667,1.41666666666667,1658.073982666,1659.445116125,9,1658.135634666,1658.196662791,1659.448893041,1660.858928041,0,1.37113345900002
110,15,8,categorization,0,bathroom,SHINEd_sun_apjevzvycyhuqghb.tif,43,0.0666666666666667,0.0666666666666667,1.21666666666667,1660.875559875,1661.517147541,13,1660.941985791,1661.008575458,1661.530763166,1662.740785666,1,0.641587666000078
110,16,8,categorization,0,kitchen,SHINEd_sun_axyyrmzcupyhlivc.tif,107,0.0666666666666667,0.0666666666666667,1.61666666666667,1662.750315833,1663.193253375,13,1662.8146685,1662.882915708,1663.222568333,1664.832603583,0,0.442937541999981
110,17,8,categorization,0,kitchen,SHINEd_sun_agzzivivdpnawacl.tif,89,0.0666666666666667,0.0666666666666667,0.783333333333333,1664.850503958,1666.422916708,9,1664.916861583,1664.983378333,1666.441382125,1667.218053833,1,1.57241275000001
110,18,8,categorization,0,bathroom,SHINEd_sun_agguqiubmwhqqunb.tif,22,0.0666666666666667,0.0666666666666667,1.98333333333333,1667.222970083,1667.74996525,13,1667.2846925,1667.345757125,1667.764047458,1669.740751583,1,0.526995166999995
110,19,8,categorization,0,bathroom,SHINEd_sun_aavhrsfjbserjtht.tif,13,0.0666666666666667,0.0666666666666667,0.983333333333333,1669.759139041,1670.443017375,13,1669.825822916,1669.891756416,1670.464896041,1671.441566791,1,0.683878333999928
110,20,8,categorization,0,bathroom,SHINEd_sun_apkxzenqapsujocq.tif,45,0.0666666666666667,0.0666666666666667,0.8,1671.446333,1671.997969333,9,1671.5080475,1671.56906575,1672.004080166,1672.7974185,0,0.551636332999806
110,21,8,categorization,0,bathroom,SHINEd_sun_anryaplzeujmzfkd.tif,39,0.0666666666666667,0.0666666666666667,0.733333333333333,1672.802035333,1673.421792958,13,1672.863800041,1672.9246805,1673.426528333,1674.153200625,1,0.61975762499992
110,22,8,categorization,0,bathroom,SHINEd_sun_asfwthctfqerjvxr.tif,49,0.0666666666666667,0.0666666666666667,0.966666666666667,1674.157951958,1675.348997291,9,1674.219549791,1674.280576875,1675.36611125,1676.326116333,0,1.19104533299992
110,23,8,categorization,0,kitchen,SHINEd_sun_aeqdocilnnpuvuhx.tif,83,0.0666666666666667,0.0666666666666667,0.866666666666667,1676.332404541,1678.085980875,9,1676.394056458,1676.454933083,1678.090738041,1678.950743583,1,1.75357633399994
110,24,8,categorization,0,bathroom,SHINEd_sun_agrwbmhcpmfuwmsg.tif,24,0.0666666666666667,0.0666666666666667,1.23333333333333,1678.955523458,1682.069137375,13,1679.017343916,1679.078221833,1682.080669541,1683.307374416,1,3.11361391700007
110,25,8,categorization,0,kitchen,SHINEd_sun_afuyedyxivkhecmu.tif,85,0.0666666666666667,0.0666666666666667,1.9,1683.323482791,1683.9203025,9,1683.391530458,1683.456373791,1683.946018916,1685.839391625,1,0.596819708999874
110,26,8,categorization,0,kitchen,SHINEd_sun_aixorpehvfykdynp.tif,95,0.0666666666666667,0.0666666666666667,0.866666666666667,1685.8576685,1686.953061833,9,1685.924495958,1685.990154125,1686.980016875,1687.840022958,1,1.09539333299995
110,27,8,categorization,0,kitchen,SHINEd_sun_adgqasybjyktddhj.tif,78,0.0666666666666667,0.0666666666666667,0.966666666666667,1687.844699625,1688.309181791,13,1687.9064145,1687.967391833,1688.319083541,1689.279087416,0,0.464482165999925
110,28,8,categorization,0,kitchen,SHINEd_sun_aqeaevwwwjoqhzvl.tif,101,0.0666666666666667,0.0666666666666667,0.916666666666667,1689.283888875,1689.732859666,13,1689.345615666,1689.406614916,1689.741792708,1690.651796791,0,0.448970790999965
110,29,8,categorization,0,bathroom,SHINEd_sun_amzlamotzwfkwjco.tif,37,0.0666666666666667,0.0666666666666667,0.916666666666667,1690.657123083,1691.781083125,9,1690.718713,1690.779939291,1691.798879458,1692.708883083,0,1.12396004199991
110,30,8,categorization,0,bathroom,SHINEd_sun_axxbkopsgyouuebh.tif,58,0.0666666666666667,0.0666666666666667,1.4,1692.713401166,1701.397293541,13,1692.775208458,1692.835997833,1701.413816458,1702.807204458,1,8.68389237499991
110,31,8,categorization,0,bathroom,SHINEd_sun_axyrejkiiaqiurjk.tif,59,0.0666666666666667,0.0666666666666667,1.75,1702.817928708,1704.256565375,13,1702.884726,1702.950829541,1704.275665041,1706.01904975,1,1.43863666700008
110,32,8,categorization,0,kitchen,SHINEd_sun_awcpdzzznmweyyhv.tif,106,0.0666666666666667,0.0666666666666667,1.25,1706.038122833,1708.7812465,13,1706.105339083,1706.171276333,1708.790199208,1710.033567625,0,2.74312366699996
110,33,8,categorization,0,kitchen,SHINEd_sun_aamedkxepzlwuxes.tif,65,0.0666666666666667,0.0666666666666667,1.05,1710.052051375,1714.69721575,13,1710.118776041,1710.184735458,1714.720802625,1715.764190208,0,4.64516437499992
110,34,8,categorization,0,bathroom,SHINEd_sun_aofnryafpsjimzsb.tif,40,0.0666666666666667,0.0666666666666667,1.06666666666667,1715.773677166,1716.2227455,13,1715.837838791,1715.905252,1716.24507425,1717.30510675,1,0.449068334000003
110,35,8,categorization,0,kitchen,SHINEd_sun_ajcbwwvdlsvjyzje.tif,96,0.0666666666666667,0.0666666666666667,1.21666666666667,1717.320995416,1717.820826666,9,1717.387950541,1717.453801041,1717.84340875,1719.053456541,1,0.499831249999943
110,36,8,categorization,0,kitchen,SHINEd_sun_admlmbcdswaszruo.tif,79,0.0666666666666667,0.0666666666666667,0.95,1719.071892833,1719.819041083,13,1719.138778958,1719.205042291,1719.844996833,1720.788355916,0,0.747148250000009
110,37,8,categorization,0,bathroom,SHINEd_sun_aspsyogrekjtfozg.tif,50,0.0666666666666667,0.0666666666666667,0.9,1720.798657625,1721.661475333,13,1720.865297,1720.922721333,1721.674446791,1722.567783541,1,0.862817707999966
110,38,8,categorization,0,kitchen,SHINEd_sun_aexklacwqwezaorf.tif,84,0.0666666666666667,0.0666666666666667,1.78333333333333,1722.572542,1723.029092125,13,1722.634188083,1722.6952045,1723.046919666,1724.82362625,0,0.456550124999922
110,39,8,categorization,0,bathroom,SHINEd_sun_awnqiikzaispgmwo.tif,56,0.0666666666666667,0.0666666666666667,1.16666666666667,1724.841325541,1725.20696825,9,1724.907859916,1724.974004708,1725.230745833,1726.390802125,0,0.365642708999985
110,40,8,categorization,0,kitchen,SHINEd_sun_abrcnpqqhmjwekyf.tif,73,0.0666666666666667,0.0666666666666667,0.783333333333333,1726.400562958,1727.343843541,13,1726.467083958,1726.533185083,1727.372900916,1728.149607916,0,0.94328058300016
110,41,8,categorization,0,bathroom,SHINEd_sun_aljolscmmzydegqp.tif,33,0.0666666666666667,0.0666666666666667,1.23333333333333,1728.166974541,1728.772782708,13,1728.233524958,1728.297715791,1728.782684375,1730.009387166,1,0.605808167000077
110,42,8,categorization,0,kitchen,SHINEd_sun_abpwyqmlzafvklqo.tif,72,0.0666666666666667,0.0666666666666667,0.9,1730.025632541,1731.327879291,13,1730.09228025,1730.158377625,1731.349644541,1732.24298175,0,1.30224674999999
110,43,8,categorization,0,kitchen,SHINEd_sun_aunzlwrbjumxhwdj.tif,103,0.0666666666666667,0.0666666666666667,0.7,1732.248707875,1733.30171375,13,1732.3104245,1732.371356375,1733.306391541,1733.999729958,0,1.05300587500005
110,44,8,categorization,0,bathroom,SHINEd_sun_azqyogdvyhahyram.tif,60,0.0666666666666667,0.0666666666666667,1.23333333333333,1734.004452708,1734.39686225,9,1734.066095125,1734.12720275,1734.412669916,1735.6393915,0,0.392409541999996
110,45,8,categorization,0,kitchen,SHINEd_sun_agubuxuukhzyzpdp.tif,88,0.0666666666666667,0.0666666666666667,1,1735.656242125,1736.128518375,13,1735.723190208,1735.788961625,1736.144552333,1737.137936625,0,0.47227625000005
110,46,8,categorization,0,kitchen,SHINEd_sun_ahpczsiumwwocjkv.tif,92,0.0666666666666667,0.0666666666666667,1.38333333333333,1737.154189666,1737.813365583,13,1737.220860541,1737.286824375,1737.822600583,1739.199320083,0,0.659175916999857
110,47,8,categorization,0,kitchen,SHINEd_sun_ahywdevtimnqcsln.tif,94,0.0666666666666667,0.0666666666666667,1.3,1739.217003,1740.201903291,9,1739.281949791,1739.349775833,1740.223211916,1741.51664375,1,0.984900291000031
110,48,8,categorization,0,kitchen,SHINEd_sun_aymvwlarqodbwuoc.tif,108,0.0666666666666667,0.0666666666666667,0.833333333333333,1741.534375375,1741.985914125,13,1741.600774041,1741.667221916,1742.006484916,1742.8331975,0,0.451538749999827
110,49,8,categorization,0,kitchen,SHINEd_sun_acfmftudsenhrfhy.tif,74,0.0666666666666667,0.0666666666666667,0.95,1742.85009875,1743.225301083,13,1742.916760166,1742.982901291,1743.23824975,1744.181588916,0,0.375202333000061
110,50,8,categorization,0,bathroom,SHINEd_sun_ahqjwnzgolcaoidx.tif,29,0.0666666666666667,0.0666666666666667,1.43333333333333,1744.186497875,1744.533060875,13,1744.248195625,1744.309188208,1744.54426125,1745.970976125,1,0.34656300000006
