sub_num,trial,block,task,is_practice,category,image,texture,duration,mask_dur,jitter,stim_time,time_of_resp,trial_response,mask_time,fix_time,jit_onset,trial_end,trial_accuracy,RT
110,1,20,categorization,0,bathroom,SHINEd_sun_aghyqhbptboemmoq.tif,23,0.0666666666666667,0.0666666666666667,1.95,3148.586751416,3149.054991166,13,3148.6490605,3148.709607041,3149.061290958,3151.0046835,1,0.468239750000066
110,2,20,categorization,0,kitchen,SHINEd_sun_akcjzhbbjlbogpdi.tif,99,0.0666666666666667,0.0666666666666667,0.85,3151.022119375,3154.172424208,13,3151.089287125,3151.154806833,3154.190893708,3155.034232333,0,3.15030483300006
110,3,20,categorization,0,kitchen,SHINEd_sun_abftihopvusyfakt.tif,71,0.0666666666666667,0.0666666666666667,0.816666666666667,3155.038812625,3156.102512,13,3155.100516208,3155.161489041,3156.113327041,3156.923330666,0,1.06369937499994
110,4,20,categorization,0,kitchen,SHINEd_sun_amjjdeyrggfqgmom.tif,100,0.0666666666666667,0.0666666666666667,0.983333333333333,3156.928271208,3157.438841333,13,3156.98986575,3157.050960625,3157.452657625,3158.429329375,0,0.510570124999958
110,5,20,categorization,0,bathroom,SHINEd_sun_apeeialkgkuxddgh.tif,42,0.0666666666666667,0.0666666666666667,0.75,3158.434066041,3159.126676583,13,3158.4957465,3158.557094791,3159.142229083,3159.88556625,1,0.692610542000239
110,6,20,categorization,0,kitchen,SHINEd_sun_aamedkxepzlwuxes.tif,65,0.0666666666666667,0.0666666666666667,1.48333333333333,3159.891292708,3161.263250291,9,3159.953014208,3160.014083791,3161.283043666,3162.759729875,1,1.37195758300004
110,7,20,categorization,0,bathroom,SHINEd_sun_aoybiabnpadelefl.tif,41,0.0666666666666667,0.0666666666666667,0.75,3162.76862725,3163.325150666,9,3162.83431675,3162.901306208,3163.340464458,3164.083839666,0,0.556523415999891
110,8,20,categorization,0,bathroom,SHINEd_sun_aapitsgbtktqubfy.tif,12,0.0666666666666667,0.0666666666666667,1.58333333333333,3164.09949125,3168.360759875,13,3164.166003125,3164.23223875,3168.384820583,3169.961529166,1,4.26126862499996
110,9,20,categorization,0,kitchen,SHINEd_sun_agubuxuukhzyzpdp.tif,88,0.0666666666666667,0.0666666666666667,1.88333333333333,3169.978714375,3170.307665708,13,3170.045337666,3170.111497666,3170.33442625,3172.211137458,0,0.328951333000077
110,10,20,categorization,0,kitchen,SHINEd_sun_afuyedyxivkhecmu.tif,85,0.0666666666666667,0.0666666666666667,1.18333333333333,3172.228275333,3172.786038625,9,3172.294955625,3172.360986666,3172.798661541,3173.975349375,1,0.55776329199989
110,11,20,categorization,0,bathroom,SHINEd_sun_aofnryafpsjimzsb.tif,40,0.0666666666666667,0.0666666666666667,1.65,3173.984375041,3174.268428541,13,3174.051040375,3174.116735625,3174.289908416,3175.933273958,1,0.284053500000027
110,12,20,categorization,0,bathroom,SHINEd_sun_alkosphxlxwjwgjd.tif,34,0.0666666666666667,0.0666666666666667,1.33333333333333,3175.943148375,3177.675517583,13,3176.009604,3176.07641375,3177.703128375,3179.029833041,1,1.73236920799991
110,13,20,categorization,0,kitchen,SHINEd_sun_agorklincwxrdtga.tif,87,0.0666666666666667,0.0666666666666667,0.95,3179.046658041,3179.379774875,13,3179.113342583,3179.179424041,3179.402515791,3180.345902375,0,0.333116834000066
110,14,20,categorization,0,kitchen,SHINEd_sun_aegoxogugdkwpmpj.tif,80,0.0666666666666667,0.0666666666666667,1.56666666666667,3180.362367333,3180.715291333,13,3180.428938416,3180.495123291,3180.734659916,3182.294699208,0,0.352924000000257
110,15,20,categorization,0,kitchen,SHINEd_sun_agzzivivdpnawacl.tif,89,0.0666666666666667,0.0666666666666667,1.91666666666667,3182.311858125,3184.279084916,13,3182.378716041,3182.445016875,3184.297376208,3186.207424875,0,1.96722679100003
110,16,20,categorization,0,bathroom,SHINEd_sun_atstyziqcmkahyxk.tif,51,0.0666666666666667,0.0666666666666667,1.75,3186.227924833,3187.21734725,13,3186.294891708,3186.36055275,3187.233161125,3188.976540958,1,0.989422416999787
110,17,20,categorization,0,kitchen,SHINEd_sun_acfmftudsenhrfhy.tif,74,0.0666666666666667,0.0666666666666667,0.966666666666667,3188.995884125,3189.334833625,9,3189.062509583,3189.128605125,3189.351192541,3190.311235333,1,0.338949500000126
110,18,20,categorization,0,kitchen,SHINEd_sun_ahljzhgcdpomplvg.tif,91,0.0666666666666667,0.0666666666666667,1.15,3190.327139291,3190.462391291,13,3190.390047458,3190.449924125,3190.468397125,3191.611780833,0,0.135252000000037
110,19,20,categorization,0,kitchen,SHINEd_sun_ahdycvpopffkzzsu.tif,90,0.0666666666666667,0.0666666666666667,0.733333333333333,3191.621757291,3191.960886583,9,3191.6876135,3191.75434075,3191.976684375,3192.703400208,1,0.339129292000052
110,20,20,categorization,0,bathroom,SHINEd_sun_azqyogdvyhahyram.tif,60,0.0666666666666667,0.0666666666666667,1.41666666666667,3192.714750333,3193.08047825,9,3192.779128833,3192.847885208,3193.104266541,3194.514321916,0,0.365727916999731
110,21,20,categorization,0,bathroom,SHINEd_sun_anryaplzeujmzfkd.tif,39,0.0666666666666667,0.0666666666666667,0.916666666666667,3194.532081375,3194.828578625,13,3194.598713916,3194.664925166,3194.854664291,3195.764710833,1,0.296497249999902
110,22,20,categorization,0,kitchen,SHINEd_sun_awcpdzzznmweyyhv.tif,106,0.0666666666666667,0.0666666666666667,1.05,3195.778938958,3196.11950475,9,3195.845464208,3195.911853666,3196.134099916,3197.17746875,1,0.340565792000234
110,23,20,categorization,0,kitchen,SHINEd_sun_aypmqwcualkenuoe.tif,109,0.0666666666666667,0.0666666666666667,1,3197.188428291,3197.625314791,13,3197.252387333,3197.32011775,3197.642694666,3198.636079833,0,0.436886500000128
110,24,20,categorization,0,kitchen,SHINEd_sun_aunzlwrbjumxhwdj.tif,103,0.0666666666666667,0.0666666666666667,0.766666666666667,3198.652309208,3198.974684458,13,3198.719061375,3198.780028041,3199.003404666,3199.763409791,0,0.322375249999823
110,25,20,categorization,0,kitchen,SHINEd_sun_aapllqyqlykszopd.tif,66,0.0666666666666667,0.0666666666666667,0.783333333333333,3199.767963375,3200.118719375,13,3199.829660666,3199.890596208,3200.125767958,3200.902439375,0,0.350756000000274
110,26,20,categorization,0,kitchen,SHINEd_sun_azmutvzbxypaceni.tif,110,0.0666666666666667,0.0666666666666667,1.45,3200.907644375,3201.310416083,9,3200.96932525,3201.030216125,3201.315271333,3202.758627541,1,0.402771707999818
110,27,20,categorization,0,kitchen,SHINEd_sun_avszsnwsbuqfgzbn.tif,105,0.0666666666666667,0.0666666666666667,1.15,3202.76877425,3203.296634583,13,3202.834263708,3202.90109075,3203.323875625,3204.467216458,0,0.527860332999808
110,28,20,categorization,0,kitchen,SHINEd_sun_ajkqhtgcbgpcwrwn.tif,97,0.0666666666666667,0.0666666666666667,1.35,3204.475075208,3204.90302625,13,3204.536726125,3204.597796208,3204.916220458,3206.259608791,0,0.427951042000132
110,29,20,categorization,0,kitchen,SHINEd_sun_aarfiyshqohlwkmo.tif,67,0.0666666666666667,0.0666666666666667,1.26666666666667,3206.275838541,3206.514901958,9,3206.34235325,3206.408887916,3206.531389166,3207.79143525,1,0.23906341699967
110,30,20,categorization,0,bathroom,SHINEd_sun_apjevzvycyhuqghb.tif,43,0.0666666666666667,0.0666666666666667,1.05,3207.809158291,3207.952600541,13,3207.872823833,3207.938602916,3207.974829708,3209.018197333,1,0.14344224999968
110,31,20,categorization,0,bathroom,SHINEd_sun_ahqjwnzgolcaoidx.tif,29,0.0666666666666667,0.0666666666666667,0.8,3209.026653625,3209.257869291,9,3209.090154333,3209.156835166,3209.27652475,3210.069910791,0,0.231215666000026
110,32,20,categorization,0,bathroom,SHINEd_sun_apmqjbnwghzuhhzh.tif,46,0.0666666666666667,0.0666666666666667,0.866666666666667,3210.088780208,3210.382584083,13,3210.155433166,3210.221631333,3210.411531833,3211.271535333,1,0.293803874999867
110,33,20,categorization,0,kitchen,SHINEd_sun_abpwyqmlzafvklqo.tif,72,0.0666666666666667,0.0666666666666667,0.866666666666667,3211.276606,3212.742949625,13,3211.338351125,3211.399328875,3212.751806625,3213.611812125,0,1.46634362500026
110,34,20,categorization,0,bathroom,SHINEd_sun_acgyywnybuveqsro.tif,18,0.0666666666666667,0.0666666666666667,1.53333333333333,3213.616686291,3214.038580625,9,3213.678532875,3213.739466,3214.057854,3215.584703041,0,0.421894334000172
110,35,20,categorization,0,bathroom,SHINEd_sun_alotolagknyrgtsk.tif,35,0.0666666666666667,0.0666666666666667,1.66666666666667,3215.59998675,3215.991432,13,3215.665772666,3215.7314225,3216.02249275,3217.682830833,1,0.391445249999833
110,36,20,categorization,0,bathroom,SHINEd_labelme_sfxiulhjbhlyiyt.tif,11,0.0666666666666667,0.0666666666666667,1.95,3217.701212,3218.074309166,9,3217.768533916,3217.833812666,3218.090127791,3220.033503208,0,0.373097166000207
110,37,20,categorization,0,kitchen,SHINEd_sun_ajcbwwvdlsvjyzje.tif,96,0.0666666666666667,0.0666666666666667,1.3,3220.051655916,3221.339863333,13,3220.118481583,3220.185206166,3221.361643833,3222.655035708,0,1.28820741699974
110,38,20,categorization,0,bathroom,SHINEd_sun_apkxzenqapsujocq.tif,45,0.0666666666666667,0.0666666666666667,1.25,3222.672577625,3225.872268208,13,3222.738061958,3222.80012575,3225.888812625,3227.132180166,1,3.19969058300012
110,39,20,categorization,0,kitchen,SHINEd_sun_auaiucuqpdausiva.tif,102,0.0666666666666667,0.0666666666666667,1.2,3227.150298208,3227.531792,9,3227.216894125,3227.283488791,3227.556535333,3228.749901625,1,0.381493792000128
110,40,20,categorization,0,bathroom,SHINEd_sun_agyqfjcfkdcydepw.tif,25,0.0666666666666667,0.0666666666666667,1.61666666666667,3228.761789916,3229.102762083,9,3228.827708458,3228.894467791,3229.113304416,3230.72335925,0,0.340972167000018
110,41,20,categorization,0,bathroom,SHINEd_sun_axyrejkiiaqiurjk.tif,59,0.0666666666666667,0.0666666666666667,1.65,3230.734828083,3231.126486333,13,3230.799478291,3230.867560666,3231.139896625,3232.783272708,1,0.391658249999637
110,42,20,categorization,0,kitchen,SHINEd_labelme_kxvouciolcpqplr.tif,62,0.0666666666666667,0.0666666666666667,0.9,3232.794312833,3234.422224,13,3232.861391083,3232.927207208,3234.429707916,3235.323045416,0,1.62791116700009
110,43,20,categorization,0,kitchen,SHINEd_sun_abdxkyyxwfskuaqb.tif,70,0.0666666666666667,0.0666666666666667,0.816666666666667,3235.327861041,3240.6727075,13,3235.389638333,3235.450538708,3240.689317083,3241.499322583,0,5.34484645900011
110,44,20,categorization,0,bathroom,SHINEd_sun_asfwthctfqerjvxr.tif,49,0.0666666666666667,0.0666666666666667,1.86666666666667,3241.503674166,3241.7750705,9,3241.565411416,3241.6263555,3241.77792875,3243.637973916,0,0.271396333999746
110,45,20,categorization,0,kitchen,SHINEd_sun_ahpczsiumwwocjkv.tif,92,0.0666666666666667,0.0666666666666667,1.38333333333333,3243.656534333,3243.777076916,9,3243.723295166,3243.790281166,3243.811709041,3245.188426125,1,0.120542583000315
110,46,20,categorization,0,kitchen,SHINEd_sun_adgqasybjyktddhj.tif,78,0.0666666666666667,0.0666666666666667,1.63333333333333,3245.209234291,3247.00719275,13,3245.276040875,3245.341936083,3247.028913625,3248.655624333,0,1.7979584589998
110,47,20,categorization,0,bathroom,SHINEd_sun_aunuadmjocsddsrl.tif,52,0.0666666666666667,0.0666666666666667,1.56666666666667,3248.678474708,3248.985847166,9,3248.742632,3248.806565458,3249.013043791,3250.573094916,0,0.307372457999918
110,48,20,categorization,0,bathroom,SHINEd_sun_agguqiubmwhqqunb.tif,22,0.0666666666666667,0.0666666666666667,1.21666666666667,3250.590323666,3251.834584125,9,3250.657056416,3250.720823666,3251.862386541,3253.07243275,0,1.24426045900009
110,49,20,categorization,0,bathroom,SHINEd_sun_amzlamotzwfkwjco.tif,37,0.0666666666666667,0.0666666666666667,0.716666666666667,3253.089055625,3253.209503916,13,3253.157007583,3253.220734666,3253.243540541,3253.953587541,1,0.120448290999775
110,50,20,categorization,0,bathroom,SHINEd_sun_auzqhkafidnkrwmo.tif,54,0.0666666666666667,0.0666666666666667,0.966666666666667,3253.967203166,3254.181857041,13,3254.033853958,3254.099832541,3254.206231083,3255.166235333,1,0.21465387499984
