sub_num,trial,block,task,is_practice,category,image,texture,duration,mask_dur,jitter,stim_time,time_of_resp,trial_response,mask_time,fix_time,jit_onset,trial_end,trial_accuracy,RT
110,1,1,categorization,0,kitchen,SHINEd_sun_aaxxjlsuzvqlgylf.tif,68,0.0666666666666667,0.0666666666666667,1.23333333333333,707.47253675,710.089442958,13,707.534968541,707.595187125,710.097859833,711.324561083,0,2.61690620799993
110,2,1,categorization,0,bathroom,SHINEd_sun_ajlawzvmubibwbpy.tif,30,0.0666666666666667,0.0666666666666667,0.783333333333333,711.34164375,712.997842666,9,711.408336791,711.474397,713.016007666,713.792680416,0,1.65619891599999
110,3,1,categorization,0,bathroom,SHINEd_sun_alkosphxlxwjwgjd.tif,34,0.0666666666666667,0.0666666666666667,0.75,713.798138,715.234177125,13,713.859886583,713.920819041,715.2397,715.983038208,1,1.43603912499998
110,4,1,categorization,0,kitchen,SHINEd_sun_agorklincwxrdtga.tif,87,0.0666666666666667,0.0666666666666667,1.23333333333333,715.987242,717.545543333,13,716.049006958,716.110030833,717.562389625,718.789086333,0,1.55830133299992
110,5,1,categorization,0,bathroom,SHINEd_sun_aggnnqpdorgxpvce.tif,21,0.0666666666666667,0.0666666666666667,1.13333333333333,718.798759,720.953955916,13,718.865509541,718.932376208,720.967927291,722.094644708,1,2.15519691600002
110,6,1,categorization,0,kitchen,SHINEd_sun_abdxkyyxwfskuaqb.tif,70,0.0666666666666667,0.0666666666666667,0.95,722.105597916,723.294166958,9,722.170459166,722.238489958,723.312343833,724.255681375,1,1.18856904200004
110,7,1,categorization,0,bathroom,SHINEd_sun_axxbkopsgyouuebh.tif,58,0.0666666666666667,0.0666666666666667,0.733333333333333,724.261104875,726.177925041,9,724.322749375,724.383773958,726.186038208,726.912708708,0,1.91682016599998
110,8,1,categorization,0,bathroom,SHINEd_sun_aclfzgynxzxlbepz.tif,19,0.0666666666666667,0.0666666666666667,1.31666666666667,726.917347458,728.322354041,9,726.979139333,727.04018925,728.3423045,729.652362083,0,1.40500658300004
110,9,1,categorization,0,kitchen,SHINEd_labelme_kxvouciolcpqplr.tif,62,0.0666666666666667,0.0666666666666667,0.8,729.6748675,730.747159208,13,729.7415725,729.807695,730.762053416,731.555392333,0,1.07229170799997
110,10,1,categorization,0,kitchen,SHINEd_sun_ahpczsiumwwocjkv.tif,92,0.0666666666666667,0.0666666666666667,0.716666666666667,731.560859333,732.929511875,13,731.622599416,731.683542041,732.935760416,733.645764041,0,1.36865254199995
110,11,1,categorization,0,bathroom,SHINEd_sun_ausgutylgojavyoq.tif,53,0.0666666666666667,0.0666666666666667,0.916666666666667,733.650577541,735.545632333,9,733.71221725,733.773198916,735.559008791,736.4690135,0,1.895054792
110,12,1,categorization,0,kitchen,SHINEd_sun_aamedkxepzlwuxes.tif,65,0.0666666666666667,0.0666666666666667,0.95,736.473885875,737.481635875,9,736.53570175,736.596597583,737.498398708,738.441736583,1,1.0077500000001
110,13,1,categorization,0,kitchen,SHINEd_sun_agzzivivdpnawacl.tif,89,0.0666666666666667,0.0666666666666667,0.833333333333333,738.446921958,739.425522583,9,738.508626083,738.569595916,739.438454041,740.265124416,1,0.978600625000013
110,14,1,categorization,0,kitchen,SHINEd_sun_amjjdeyrggfqgmom.tif,100,0.0666666666666667,0.0666666666666667,0.75,740.271176416,741.697650791,13,740.332833458,740.393810416,741.7125945,742.455932791,0,1.426474375
110,15,1,categorization,0,kitchen,SHINEd_sun_aegoxogugdkwpmpj.tif,80,0.0666666666666667,0.0666666666666667,1.53333333333333,742.460815666,743.497757333,13,742.522469708,742.583430875,743.50205475,745.028776916,0,1.03694166699995
110,16,1,categorization,0,kitchen,SHINEd_sun_akchetnepxlcxhsu.tif,98,0.0666666666666667,0.0666666666666667,1.05,745.046359541,745.962400916,13,745.113205708,745.179151083,745.984899375,747.028279583,0,0.916041374999963
110,17,1,categorization,0,bathroom,SHINEd_sun_abapwbhyhkfixyex.tif,14,0.0666666666666667,0.0666666666666667,0.9,747.039613125,748.290725625,9,747.104106291,747.170706875,748.312670208,749.206008041,0,1.25111250000009
110,18,1,categorization,0,kitchen,SHINEd_sun_aixorpehvfykdynp.tif,95,0.0666666666666667,0.0666666666666667,1.18333333333333,749.211337666,750.705834875,9,749.273093291,749.334056166,750.719743666,751.896457916,1,1.49449720900009
110,19,1,categorization,0,bathroom,SHINEd_sun_apynckhmoftszqoq.tif,47,0.0666666666666667,0.0666666666666667,0.9,751.907802416,752.962190583,13,751.974851916,752.040483666,752.979996791,753.873338083,1,1.05438816700007
110,20,1,categorization,0,kitchen,SHINEd_sun_azmutvzbxypaceni.tif,110,0.0666666666666667,0.0666666666666667,1.66666666666667,753.879005458,754.793790125,13,753.940891666,754.001766041,754.803529791,756.463581125,0,0.914784666999935
110,21,1,categorization,0,kitchen,SHINEd_sun_akcjzhbbjlbogpdi.tif,99,0.0666666666666667,0.0666666666666667,1.13333333333333,756.482158333,757.261273291,13,756.548796916,756.614861625,757.288223375,758.414931166,0,0.779114957999923
110,22,1,categorization,0,kitchen,SHINEd_sun_aymvwlarqodbwuoc.tif,108,0.0666666666666667,0.0666666666666667,1.3,758.426808041,759.6696085,13,758.491650208,758.55935175,759.68109325,760.974485666,0,1.24280045900002
110,23,1,categorization,0,kitchen,SHINEd_sun_adgqasybjyktddhj.tif,78,0.0666666666666667,0.0666666666666667,1.93333333333333,760.991783458,761.930090791,9,761.057276,761.124651458,761.947803666,763.874512125,1,0.938307333000012
110,24,1,categorization,0,bathroom,SHINEd_sun_awnqiikzaispgmwo.tif,56,0.0666666666666667,0.0666666666666667,1,763.892467125,765.465715458,9,763.959472791,764.0250545,765.47741,766.470748791,0,1.57324833299992
110,25,1,categorization,0,bathroom,SHINEd_sun_ahcvzmoyaycdoftf.tif,27,0.0666666666666667,0.0666666666666667,0.883333333333333,766.476258583,767.465987458,9,766.537959125,766.598969333,767.484003916,768.360675208,0,0.989728874999969
110,26,1,categorization,0,bathroom,SHINEd_sun_agguqiubmwhqqunb.tif,22,0.0666666666666667,0.0666666666666667,1.95,768.365615208,769.585713416,9,768.427419708,768.488164541,769.590533208,771.53390575,0,1.22009820799997
110,27,1,categorization,0,bathroom,SHINEd_sun_aleqenyvunhactkl.tif,32,0.0666666666666667,0.0666666666666667,1.25,771.551380583,772.237314041,9,771.617740625,771.683987958,772.257050833,773.500428,0,0.685933458000022
110,28,1,categorization,0,kitchen,SHINEd_sun_abdenxonkemggwsq.tif,69,0.0666666666666667,0.0666666666666667,1.95,773.517803041,774.619349541,13,773.584501875,773.650675625,774.641147708,776.584514208,0,1.10154650000004
110,29,1,categorization,0,kitchen,SHINEd_sun_aggjlwcdjsjcaemh.tif,86,0.0666666666666667,0.0666666666666667,1.91666666666667,776.601054541,777.366520166,9,776.667573666,776.734035583,777.390953375,779.301009541,1,0.765465624999933
110,30,1,categorization,0,bathroom,SHINEd_sun_anhioqovhscjqqwb.tif,38,0.0666666666666667,0.0666666666666667,1.41666666666667,779.313985333,780.256779875,13,779.381020708,779.44714325,780.268647125,781.678683625,1,0.942794542000001
110,31,1,categorization,0,bathroom,SHINEd_sun_acegryoqftbzowsg.tif,17,0.0666666666666667,0.0666666666666667,0.716666666666667,781.696934833,782.619768583,13,781.763671166,781.829571125,782.635582166,783.345617125,1,0.922833749999995
110,32,1,categorization,0,bathroom,SHINEd_sun_atstyziqcmkahyxk.tif,51,0.0666666666666667,0.0666666666666667,1.28333333333333,783.359333583,785.041235333,13,783.422069,783.482097875,785.050925708,786.327635,1,1.68190175000007
110,33,1,categorization,0,bathroom,SHINEd_sun_aspsyogrekjtfozg.tif,50,0.0666666666666667,0.0666666666666667,0.9,786.346230375,787.787650166,13,786.413095125,786.479144333,787.802759291,788.696098,1,1.44141979100004
110,34,1,categorization,0,kitchen,SHINEd_sun_abftihopvusyfakt.tif,71,0.0666666666666667,0.0666666666666667,0.8,788.700908208,789.409457583,13,788.762633125,788.823604583,789.4253135,790.218652666,0,0.708549374999961
110,35,1,categorization,0,kitchen,SHINEd_sun_acgtpgfybqjmzeyw.tif,75,0.0666666666666667,0.0666666666666667,1.01666666666667,790.224108041,791.113861041,9,790.285694833,790.346781166,791.131968708,792.142007791,1,0.889752999999928
110,36,1,categorization,0,bathroom,SHINEd_sun_afcoljnjfoxjtgja.tif,20,0.0666666666666667,0.0666666666666667,0.85,792.151238666,793.188561791,9,792.216507666,792.282904125,793.204455291,794.047825333,0,1.03732312499994
110,37,1,categorization,0,kitchen,SHINEd_sun_aeqdocilnnpuvuhx.tif,83,0.0666666666666667,0.0666666666666667,1.51666666666667,794.063530666,794.90548925,9,794.130021916,794.19631925,794.914856583,796.424913166,1,0.84195858399994
110,38,1,categorization,0,bathroom,SHINEd_sun_agyqfjcfkdcydepw.tif,25,0.0666666666666667,0.0666666666666667,1.83333333333333,796.440284625,797.829342791,13,796.507113375,796.573452125,797.847788708,799.674489958,1,1.38905816600004
110,39,1,categorization,0,bathroom,SHINEd_sun_ahqjwnzgolcaoidx.tif,29,0.0666666666666667,0.0666666666666667,0.716666666666667,799.691322291,800.441971458,13,799.758507083,799.824489333,800.464575791,801.174581125,1,0.750649167000006
110,40,1,categorization,0,kitchen,SHINEd_sun_axyyrmzcupyhlivc.tif,107,0.0666666666666667,0.0666666666666667,0.9,801.179396,802.705674458,9,801.241140916,801.302040291,802.720986333,803.614325458,1,1.52627845799998
110,41,1,categorization,0,kitchen,SHINEd_sun_ajkqhtgcbgpcwrwn.tif,97,0.0666666666666667,0.0666666666666667,0.916666666666667,803.620205791,804.833999291,9,803.682099875,803.7429585,804.844911291,805.754916916,1,1.21379350000007
110,42,1,categorization,0,bathroom,SHINEd_sun_aapitsgbtktqubfy.tif,12,0.0666666666666667,0.0666666666666667,0.816666666666667,805.760501958,806.537553125,13,805.822287708,805.883111416,806.551934708,807.361939458,1,0.777051167000081
110,43,1,categorization,0,kitchen,SHINEd_sun_aadbddgrdsjugojn.tif,64,0.0666666666666667,0.0666666666666667,1.88333333333333,807.366803375,808.44940975,13,807.428553875,807.489377916,808.457988291,810.334690958,0,1.08260637499995
110,44,1,categorization,0,kitchen,SHINEd_sun_aapllqyqlykszopd.tif,66,0.0666666666666667,0.0666666666666667,0.9,810.352112916,811.609562,13,810.418758541,810.485279333,811.621501583,812.514838458,0,1.25744908399997
110,45,1,categorization,0,kitchen,SHINEd_sun_awcpdzzznmweyyhv.tif,106,0.0666666666666667,0.0666666666666667,1,812.520155791,813.433340166,13,812.581829041,812.642875541,813.44466375,814.4380015,0,0.913184375000014
110,46,1,categorization,0,bathroom,SHINEd_sun_apkxzenqapsujocq.tif,45,0.0666666666666667,0.0666666666666667,0.733333333333333,814.442761666,815.273428875,13,814.504407041,814.565434333,815.283969083,816.010640583,1,0.830667209000012
110,47,1,categorization,0,kitchen,SHINEd_sun_ahljzhgcdpomplvg.tif,91,0.0666666666666667,0.0666666666666667,0.883333333333333,816.015365125,816.889502166,9,816.076997333,816.13799525,816.906786166,817.78345825,1,0.87413704100004
110,48,1,categorization,0,kitchen,SHINEd_sun_aarfiyshqohlwkmo.tif,67,0.0666666666666667,0.0666666666666667,1.73333333333333,817.78822925,818.729243125,9,817.849848458,817.910893416,818.746015875,820.472723875,1,0.941013875000067
110,49,1,categorization,0,bathroom,SHINEd_sun_ahijqszoswveeyji.tif,28,0.0666666666666667,0.0666666666666667,1.91666666666667,820.489671541,822.289552375,9,820.556234916,820.622259333,822.308158625,824.218216791,0,1.79988083399996
110,50,1,categorization,0,kitchen,SHINEd_sun_auticobqsbwgoppi.tif,104,0.0666666666666667,0.0666666666666667,1.35,824.23868525,825.388697458,9,824.305858041,824.372318791,825.412538625,826.755918833,1,1.15001220800002
