sub_num,trial,block,task,is_practice,category,image,texture,duration,mask_dur,jitter,stim_time,time_of_resp,trial_response,mask_time,fix_time,jit_onset,trial_end,trial_accuracy,RT
101,1,0,typicality,1,bathroom,bathroom_practice2.tif,222,1.5,0,1.48333333333333,732.126329583,742.888816833,2,NaN,742.911442833,742.93189475,744.4087785,NaN,NaN
101,2,0,typicality,1,bathroom,bathroom_practice4.tif,224,1.5,0,0.75,744.479757458,750.177271708,6,NaN,750.18710475,750.205872041,750.949219541,NaN,NaN
101,3,0,typicality,1,bathroom,bathroom_practice1.tif,221,1.5,0,1.93333333333333,750.955238375,754.464217083,5,NaN,754.471536083,754.490327083,756.417165041,NaN,NaN
101,4,0,typicality,1,bathroom,bathroom_practice5.tif,225,1.5,0,0.983333333333333,756.451248208,763.832966708,4,NaN,763.840596291,763.859383666,764.836066083,NaN,NaN
101,5,0,typicality,1,bathroom,bathroom_practice3.tif,223,1.5,0,0.883333333333333,764.844335666,768.73670575,5,NaN,768.746610333,768.765790708,769.642532041,NaN,NaN
101,1,1,typicality,0,bathroom,sun_aapitsgbtktqubfy.tif,122,1.5,0,0.866666666666667,779.488542708,785.120470166,4,NaN,785.126974958,785.145487791,786.005507291,NaN,NaN
101,2,1,typicality,0,bathroom,sun_aleqenyvunhactkl.tif,142,1.5,0,1.03333333333333,786.013291666,789.361032958,4,NaN,789.366602125,789.384978375,790.411683541,NaN,NaN
101,3,1,typicality,0,bathroom,sun_ajlawzvmubibwbpy.tif,140,1.5,0,0.866666666666667,790.421936208,796.777062916,2,NaN,796.782698458,796.801002208,797.661007208,NaN,NaN
101,4,1,typicality,0,bathroom,sun_alkosphxlxwjwgjd.tif,144,1.5,0,1.61666666666667,797.666657375,801.880131041,3,NaN,801.886247125,801.904611625,803.514664958,NaN,NaN
101,5,1,typicality,0,bathroom,sun_anhioqovhscjqqwb.tif,148,1.5,0,0.883333333333333,803.53357725,808.17675425,4,NaN,808.182368791,808.200678083,809.077351291,NaN,NaN
101,6,1,typicality,0,bathroom,sun_alotolagknyrgtsk.tif,145,1.5,0,0.933333333333333,809.082812916,812.488428,3,NaN,812.4943795,812.51281575,813.439487875,NaN,NaN
101,7,1,typicality,0,bathroom,sun_aghyqhbptboemmoq.tif,133,1.5,0,1.5,813.444401833,817.847939583,7,NaN,817.853835083,817.872118666,819.365495666,NaN,NaN
101,8,1,typicality,0,bathroom,sun_asfwthctfqerjvxr.tif,159,1.5,0,1.36666666666667,819.3831855,823.664774375,2,NaN,823.671394125,823.689677333,825.04973,NaN,NaN
101,9,1,typicality,0,bathroom,sun_agyqfjcfkdcydepw.tif,135,1.5,0,0.85,825.067305958,828.584748166,1,NaN,828.590233875,828.608568625,829.451908416,NaN,NaN
101,10,1,typicality,0,bathroom,sun_apeeialkgkuxddgh.tif,152,1.5,0,1.81666666666667,829.463651166,832.703851291,6,NaN,832.710018375,832.728361458,834.5384195,NaN,NaN
101,11,1,typicality,0,bathroom,sun_acegryoqftbzowsg.tif,127,1.5,0,1.28333333333333,834.556496833,839.000881,3,NaN,839.006413208,839.024778833,840.301507,NaN,NaN
101,12,1,typicality,0,bathroom,sun_anryaplzeujmzfkd.tif,149,1.5,0,1.23333333333333,840.318587541,843.880519958,2,NaN,843.886005041,843.904332541,845.131044833,NaN,NaN
101,13,1,typicality,0,bathroom,sun_amzlamotzwfkwjco.tif,147,1.5,0,0.883333333333333,845.149718208,851.096061291,4,NaN,851.101671708,851.119958708,851.996631166,NaN,NaN
101,14,1,typicality,0,bathroom,sun_afcoljnjfoxjtgja.tif,130,1.5,0,0.866666666666667,852.001478,855.304575083,2,NaN,855.309960166,855.328249208,856.188252541,NaN,NaN
101,15,1,typicality,0,bathroom,sun_aclfzgynxzxlbepz.tif,129,1.5,0,1.36666666666667,856.192457791,859.648319083,7,NaN,859.65379525,859.672331125,861.032366458,NaN,NaN
101,16,1,typicality,0,bathroom,sun_acduarbnmmoglmiv.tif,126,1.5,0,1.05,861.04428125,864.968665666,5,NaN,864.974055333,864.992411458,866.035800416,NaN,NaN
101,17,1,typicality,0,bathroom,sun_auzqhkafidnkrwmo.tif,164,1.5,0,1.21666666666667,866.044492625,869.207900708,3,NaN,869.213762875,869.231882458,870.441929333,NaN,NaN
101,18,1,typicality,0,bathroom,sun_aofnryafpsjimzsb.tif,150,1.5,0,0.816666666666667,870.4600205,873.727632458,2,NaN,873.73356825,873.751819375,874.561824541,NaN,NaN
101,19,1,typicality,0,bathroom,sun_apmqjbnwghzuhhzh.tif,156,1.5,0,1,874.566353416,878.5445105,6,NaN,878.549866875,878.568248083,879.561588333,NaN,NaN
101,20,1,typicality,0,bathroom,sun_abjtwfukuwddzted.tif,125,1.5,0,1.21666666666667,879.579486541,884.071782208,5,NaN,884.077530458,884.095936958,885.305987333,NaN,NaN
101,21,1,typicality,0,bathroom,sun_awnqiikzaispgmwo.tif,166,1.5,0,1.46666666666667,885.322782583,889.144125875,6,NaN,889.149641791,889.167885875,890.627930583,NaN,NaN
101,22,1,typicality,0,bathroom,sun_aljolscmmzydegqp.tif,143,1.5,0,1.4,890.645570083,894.6404015,6,NaN,894.645943083,894.664297,896.05766475,NaN,NaN
101,23,1,typicality,0,bathroom,sun_abapwbhyhkfixyex.tif,124,1.5,0,0.783333333333333,896.074122791,900.856506625,4,NaN,900.86190125,900.880187208,901.656859625,NaN,NaN
101,24,1,typicality,0,bathroom,labelme_sfxiulhjbhlyiyt.tif,121,1.5,0,1.21666666666667,901.661831416,905.0157555,7,NaN,905.021378208,905.039660375,906.249694375,NaN,NaN
101,25,1,typicality,0,bathroom,sun_axldvoqbuvuggfmq.tif,167,1.5,0,1.35,906.260569875,909.591495291,7,NaN,909.597306416,909.6155045,910.958890333,NaN,NaN
101,1,2,typicality,0,bathroom,sun_aoybiabnpadelefl.tif,151,1.5,0,1.65,922.335622416,926.232039541,1,NaN,926.237487,926.255723458,927.899108416,NaN,NaN
101,2,2,typicality,0,bathroom,sun_apkruvsevgegsdwp.tif,154,1.5,0,1.01666666666667,927.916570875,931.245118416,7,NaN,931.265449,931.287069,932.29711875,NaN,NaN
101,3,2,typicality,0,bathroom,sun_ahijqszoswveeyji.tif,138,1.5,0,1.58333333333333,932.305190958,935.911568083,3,NaN,935.917547,935.935951625,937.51266175,NaN,NaN
101,4,2,typicality,0,bathroom,sun_aunuadmjocsddsrl.tif,162,1.5,0,0.7,937.532462625,940.999312583,6,NaN,941.005060958,941.023364375,941.7167025,NaN,NaN
101,5,2,typicality,0,bathroom,sun_apkxzenqapsujocq.tif,155,1.5,0,1.23333333333333,941.721356666,944.975705333,5,NaN,944.982518041,945.000859208,946.227565208,NaN,NaN
101,6,2,typicality,0,bathroom,sun_akiytfaagpdsphgz.tif,141,1.5,0,0.816666666666667,946.237980708,950.120344833,3,NaN,950.125769,950.144156208,950.954162916,NaN,NaN
101,7,2,typicality,0,bathroom,sun_agrwbmhcpmfuwmsg.tif,134,1.5,0,0.733333333333333,950.959554416,954.991956375,3,NaN,954.997387291,955.015616958,955.7422885,NaN,NaN
101,8,2,typicality,0,bathroom,sun_agguqiubmwhqqunb.tif,132,1.5,0,1.15,955.74749275,960.112123,4,NaN,960.117693625,960.135981083,961.27936675,NaN,NaN
101,9,2,typicality,0,bathroom,sun_axyrejkiiaqiurjk.tif,169,1.5,0,0.933333333333333,961.287784791,964.471514,2,NaN,964.477349791,964.495978208,965.422651,NaN,NaN
101,10,2,typicality,0,bathroom,sun_aavhrsfjbserjtht.tif,123,1.5,0,0.916666666666667,965.42806525,969.423823958,3,NaN,969.429319041,969.447728125,970.357733166,NaN,NaN
101,11,2,typicality,0,bathroom,sun_avhrdrntsqrjzccq.tif,165,1.5,0,1.26666666666667,970.363630625,973.623461666,1,NaN,973.629478333,973.647710208,974.907761208,NaN,NaN
101,12,2,typicality,0,bathroom,sun_aqrpegblszgcoujh.tif,158,1.5,0,0.933333333333333,974.925072333,977.97546475,5,NaN,977.981186041,977.999521416,978.926194541,NaN,NaN
101,13,2,typicality,0,bathroom,sun_ambriybtogmepttm.tif,146,1.5,0,1,978.931469833,981.797269791,1,NaN,981.826095083,981.849320375,982.842657875,NaN,NaN
101,14,2,typicality,0,bathroom,sun_acgyywnybuveqsro.tif,128,1.5,0,1,982.84879675,986.503236416,3,NaN,986.509029583,986.527463541,987.520801208,NaN,NaN
101,15,2,typicality,0,bathroom,sun_aggnnqpdorgxpvce.tif,131,1.5,0,1.21666666666667,987.529208208,990.896182583,3,NaN,990.901531333,990.919945666,992.129982083,NaN,NaN
101,16,2,typicality,0,bathroom,sun_apjevzvycyhuqghb.tif,153,1.5,0,1.85,992.14928725,996.055032375,2,NaN,996.060921666,996.079316083,997.922692416,NaN,NaN
101,17,2,typicality,0,bathroom,sun_aspsyogrekjtfozg.tif,160,1.5,0,0.766666666666667,997.9410145,1000.932276,2,NaN,1000.960676208,1000.983512916,1001.743518541,NaN,NaN
101,18,2,typicality,0,bathroom,sun_axxbkopsgyouuebh.tif,168,1.5,0,0.966666666666667,1001.749053083,1004.887054541,7,NaN,1004.893680041,1004.911965,1005.871971208,NaN,NaN
101,19,2,typicality,0,bathroom,sun_ahaulkltgpkeeemi.tif,136,1.5,0,1.4,1005.879391666,1009.671948791,6,NaN,1009.677281958,1009.695949458,1011.089343166,NaN,NaN
101,20,2,typicality,0,bathroom,sun_apynckhmoftszqoq.tif,157,1.5,0,0.933333333333333,1011.10712225,1015.215337041,6,NaN,1015.220922,1015.239248666,1016.165921458,NaN,NaN
101,21,2,typicality,0,bathroom,sun_ahqjwnzgolcaoidx.tif,139,1.5,0,1.7,1016.170988458,1019.1349605,6,NaN,1019.160460166,1019.183422291,1020.876791083,NaN,NaN
101,22,2,typicality,0,bathroom,sun_ahcvzmoyaycdoftf.tif,137,1.5,0,0.916666666666667,1020.895584916,1023.82351025,5,NaN,1023.852566666,1023.875420958,1024.785425416,NaN,NaN
101,23,2,typicality,0,bathroom,sun_ausgutylgojavyoq.tif,163,1.5,0,0.833333333333333,1024.7909415,1028.703634625,3,NaN,1028.709171833,1028.727485875,1029.554156541,NaN,NaN
101,24,2,typicality,0,bathroom,sun_azqyogdvyhahyram.tif,170,1.5,0,0.783333333333333,1029.559160791,1034.183292916,7,NaN,1034.188998208,1034.207513708,1034.984185416,NaN,NaN
101,25,2,typicality,0,bathroom,sun_atstyziqcmkahyxk.tif,161,1.5,0,1.4,1034.989271375,1037.983468791,7,NaN,1038.012262291,1038.035166875,1039.428550166,NaN,NaN
