sub_num,trial,block,task,is_practice,category,image,texture,duration,mask_dur,jitter,stim_time,time_of_resp,trial_response,mask_time,fix_time,jit_onset,trial_end,trial_accuracy,RT
103,1,1,categorization,0,bathroom,SHINEd_sun_ahaulkltgpkeeemi.tif,26,0.0833333333333333,0.0666666666666667,1.23333333333333,3046.737369708,3046.880061541,9,3046.821788708,3046.895227208,3046.915847416,3048.144899,NaN,NaN
103,2,1,categorization,0,kitchen,SHINEd_sun_akchetnepxlcxhsu.tif,98,0.0833333333333333,0.0666666666666667,0.783333333333333,3048.195743708,3048.341619125,9,3048.283803041,3048.369846958,3048.393681416,3049.172223,NaN,NaN
103,3,1,categorization,0,bathroom,SHINEd_sun_aspsyogrekjtfozg.tif,50,0.0833333333333333,0.0666666666666667,0.75,3049.216118916,3049.358933791,9,3049.304054458,3049.373224833,3049.395055125,3050.140060416,NaN,NaN
103,4,1,categorization,0,kitchen,SHINEd_sun_admlmbcdswaszruo.tif,79,0.0833333333333333,0.0666666666666667,1.23333333333333,3050.145190875,3050.285398416,9,3050.22543175,3050.288406416,3050.3067895,3051.535154875,NaN,NaN
103,5,1,categorization,0,kitchen,SHINEd_sun_aegoxogugdkwpmpj.tif,80,0.0833333333333333,0.0666666666666667,1.13333333333333,3051.553557666,3051.698054333,9,3051.636787916,3051.7156175,3051.736668083,3052.865033208,NaN,NaN
103,6,1,categorization,0,kitchen,SHINEd_sun_acfmftudsenhrfhy.tif,74,0.0833333333333333,0.0666666666666667,0.95,3052.885949083,3053.027355125,9,3052.972593458,3053.04288825,3053.065871458,3054.010877,NaN,NaN
103,7,1,categorization,0,kitchen,SHINEd_sun_afuyedyxivkhecmu.tif,85,0.0833333333333333,0.0666666666666667,0.733333333333333,3054.01739975,3054.15746525,9,3054.097539916,3054.160513,3054.178983041,3054.907321625,NaN,NaN
103,8,1,categorization,0,bathroom,SHINEd_sun_apeeialkgkuxddgh.tif,42,0.0833333333333333,0.0666666666666667,1.31666666666667,3054.911639416,3055.051689333,9,3054.99176725,3055.054484875,3055.072789,3056.384489041,NaN,NaN
103,9,1,categorization,0,bathroom,SHINEd_sun_axxbkopsgyouuebh.tif,58,0.0833333333333333,0.0666666666666667,0.8,3056.40359025,3056.544021791,9,3056.488631958,3056.558140625,3056.581348875,3057.376386833,NaN,NaN
103,10,1,categorization,0,kitchen,SHINEd_sun_auticobqsbwgoppi.tif,104,0.0833333333333333,0.0666666666666667,0.716666666666667,3057.39154575,3057.531969375,9,3057.476629833,3057.545902083,3057.568886875,3058.280557625,NaN,NaN
103,11,1,categorization,0,bathroom,SHINEd_sun_amzlamotzwfkwjco.tif,37,0.0833333333333333,0.0666666666666667,0.916666666666667,3058.285620041,3058.425670875,9,3058.365819375,3058.429089166,3058.447395666,3059.359066291,NaN,NaN
103,12,1,categorization,0,bathroom,SHINEd_sun_aunuadmjocsddsrl.tif,52,0.0833333333333333,0.0666666666666667,0.95,3059.363489958,3059.646896916,9,3059.443633125,3059.506651625,3059.658390041,3060.603394958,NaN,NaN
103,13,1,categorization,0,bathroom,SHINEd_sun_aofnryafpsjimzsb.tif,40,0.0833333333333333,0.0666666666666667,0.833333333333333,3060.607995083,3060.748040916,9,3060.688161583,3060.7509475,3060.769230958,3061.597568666,NaN,NaN
103,14,1,categorization,0,kitchen,SHINEd_sun_abpwyqmlzafvklqo.tif,72,0.0833333333333333,0.0666666666666667,0.75,3061.601934458,3061.741977083,9,3061.682072583,3061.745029958,3061.763405833,3062.508409875,NaN,NaN
103,15,1,categorization,0,kitchen,SHINEd_sun_aaxxjlsuzvqlgylf.tif,68,0.0833333333333333,0.0666666666666667,1.53333333333333,3062.512653166,3062.652692916,9,3062.592638291,3062.655578583,3062.673873666,3064.202240416,NaN,NaN
103,16,1,categorization,0,kitchen,SHINEd_sun_ajkqhtgcbgpcwrwn.tif,97,0.0833333333333333,0.0666666666666667,1.05,3064.218355125,3064.358798958,9,3064.303481541,3064.372752333,3064.395394125,3065.440432416,NaN,NaN
103,17,1,categorization,0,bathroom,SHINEd_sun_apkruvsevgegsdwp.tif,44,0.0833333333333333,0.0666666666666667,0.9,3065.451016958,3065.591483625,9,3065.536230416,3065.606000333,3065.629240916,3066.52424575,NaN,NaN
103,18,1,categorization,0,bathroom,SHINEd_sun_aavhrsfjbserjtht.tif,13,0.0833333333333333,0.0666666666666667,1.18333333333333,3066.528947583,3066.66900025,9,3066.60892525,3066.6719445,3066.690211958,3067.868559083,NaN,NaN
103,19,1,categorization,0,kitchen,SHINEd_sun_azmutvzbxypaceni.tif,110,0.0833333333333333,0.0666666666666667,0.9,3067.880492,3068.02094275,9,3067.965812083,3068.036064833,3068.058893833,3068.953933208,NaN,NaN
103,20,1,categorization,0,bathroom,SHINEd_sun_aapitsgbtktqubfy.tif,12,0.0833333333333333,0.0666666666666667,1.66666666666667,3068.969097041,3069.109571333,9,3069.054336375,3069.124292,3069.147312833,3070.809036041,NaN,NaN
103,21,1,categorization,0,kitchen,SHINEd_sun_aadbddgrdsjugojn.tif,64,0.0833333333333333,0.0666666666666667,1.13333333333333,3070.82747325,3070.967917291,9,3070.91299875,3070.979344541,3071.002296875,3072.130682083,NaN,NaN
103,22,1,categorization,0,kitchen,SHINEd_sun_abdxkyyxwfskuaqb.tif,70,0.0833333333333333,0.0666666666666667,1.3,3072.151188708,3072.291315458,9,3072.236218833,3072.296956,3072.316155416,3073.611207541,NaN,NaN
103,23,1,categorization,0,bathroom,SHINEd_sun_afcoljnjfoxjtgja.tif,20,0.0833333333333333,0.0666666666666667,1.93333333333333,3073.628922291,3073.769357708,9,3073.714350541,3073.7833615,3073.805638416,3075.734010541,NaN,NaN
103,24,1,categorization,0,kitchen,SHINEd_sun_aixorpehvfykdynp.tif,95,0.0833333333333333,0.0666666666666667,1,3075.752735875,3075.893198291,9,3075.838079458,3075.907536,3075.929518375,3076.924576375,NaN,NaN
103,25,1,categorization,0,kitchen,SHINEd_sun_adgqasybjyktddhj.tif,78,0.0833333333333333,0.0666666666666667,0.883333333333333,3076.938423125,3077.078869541,9,3077.023419958,3077.092786541,3077.116177208,3077.994514,NaN,NaN
103,26,1,categorization,0,kitchen,SHINEd_labelme_rykdqxenmhulbdn.tif,63,0.0833333333333333,0.0666666666666667,1.95,3078.000512458,3078.140570458,9,3078.080543625,3078.143494958,3078.161906125,3080.106955,NaN,NaN
103,27,1,categorization,0,bathroom,SHINEd_sun_apynckhmoftszqoq.tif,47,0.0833333333333333,0.0666666666666667,1.25,3080.125697125,3080.266150708,9,3080.211067166,3080.28070675,3080.302845875,3081.547889083,NaN,NaN
103,28,1,categorization,0,kitchen,SHINEd_sun_aqeaevwwwjoqhzvl.tif,101,0.0833333333333333,0.0666666666666667,1.95,3081.569056291,3081.709527166,9,3081.654340333,3081.722351375,3081.744532041,3083.68956875,NaN,NaN
103,29,1,categorization,0,kitchen,SHINEd_sun_awcpdzzznmweyyhv.tif,106,0.0833333333333333,0.0666666666666667,1.91666666666667,3083.70837375,3083.848840041,9,3083.793887916,3083.863090333,3083.886082083,3085.797797958,NaN,NaN
103,30,1,categorization,0,kitchen,SHINEd_sun_aeqdocilnnpuvuhx.tif,83,0.0833333333333333,0.0666666666666667,1.41666666666667,3085.8133805,3085.9538395,9,3085.89866725,3085.96821825,3085.990948291,3087.402650791,NaN,NaN
103,31,1,categorization,0,kitchen,SHINEd_sun_acxkpeoqbwcxfvip.tif,77,0.0833333333333333,0.0666666666666667,0.716666666666667,3087.420722125,3087.561207541,9,3087.505829666,3087.575809416,3087.598509375,3088.310181125,NaN,NaN
103,32,1,categorization,0,kitchen,SHINEd_sun_aggjlwcdjsjcaemh.tif,86,0.0833333333333333,0.0666666666666667,1.28333333333333,3088.314878208,3088.454928666,9,3088.395002125,3088.45792375,3088.476363833,3089.754748166,NaN,NaN
103,33,1,categorization,0,kitchen,SHINEd_sun_acgtpgfybqjmzeyw.tif,75,0.0833333333333333,0.0666666666666667,0.9,3089.773357083,3089.913798458,9,3089.857654541,3089.928101708,3089.952367833,3090.847407208,NaN,NaN
103,34,1,categorization,0,bathroom,SHINEd_sun_aclfzgynxzxlbepz.tif,19,0.0833333333333333,0.0666666666666667,0.8,3090.862687333,3091.0031765,9,3090.94773075,3091.017342625,3091.040456875,3091.835462166,NaN,NaN
103,35,1,categorization,0,kitchen,SHINEd_sun_aunzlwrbjumxhwdj.tif,103,0.0833333333333333,0.0666666666666667,1.01666666666667,3091.839775125,3091.979827666,9,3091.919742083,3091.982734083,3092.000943541,3093.012663041,NaN,NaN
103,36,1,categorization,0,bathroom,SHINEd_sun_ahcvzmoyaycdoftf.tif,27,0.0833333333333333,0.0666666666666667,0.85,3093.021128416,3093.161567208,9,3093.103916041,3093.17426275,3093.1957165,3094.040768416,NaN,NaN
103,37,1,categorization,0,kitchen,SHINEd_labelme_brsyyvweiuaazfr.tif,61,0.0833333333333333,0.0666666666666667,1.51666666666667,3094.0533315,3094.193811625,9,3094.138456666,3094.208068541,3094.230958625,3095.742665125,NaN,NaN
103,38,1,categorization,0,bathroom,SHINEd_sun_apkxzenqapsujocq.tif,45,0.0833333333333333,0.0666666666666667,1.83333333333333,3095.763049583,3095.903541666,9,3095.846667625,3095.917857458,3095.940516333,3097.768900041,NaN,NaN
103,39,1,categorization,0,bathroom,SHINEd_sun_ahijqszoswveeyji.tif,28,0.0833333333333333,0.0666666666666667,0.716666666666667,3097.78825825,3105.63073375,9,3097.873496,3097.942363875,3105.645393708,3106.357064291,NaN,NaN
103,40,1,categorization,0,kitchen,SHINEd_sun_aapllqyqlykszopd.tif,66,0.0833333333333333,0.0666666666666667,0.9,3106.361885208,3106.501934166,9,3106.442036375,3106.505008666,3106.523414666,3107.41841875,NaN,NaN
103,41,1,categorization,0,bathroom,SHINEd_sun_aljolscmmzydegqp.tif,33,0.0833333333333333,0.0666666666666667,0.916666666666667,3107.422897666,3107.562938125,9,3107.502965375,3107.565788583,3107.583787208,3108.49545875,NaN,NaN
103,42,1,categorization,0,bathroom,SHINEd_sun_aoybiabnpadelefl.tif,41,0.0833333333333333,0.0666666666666667,0.816666666666667,3108.50040375,3108.640453416,9,3108.580431,3108.643356416,3108.661602208,3109.473271583,NaN,NaN
103,43,1,categorization,0,bathroom,SHINEd_sun_anhioqovhscjqqwb.tif,38,0.0833333333333333,0.0666666666666667,1.88333333333333,3109.477761875,3109.61780125,9,3109.557682625,3109.620901375,3109.639444083,3111.517829666,NaN,NaN
103,44,1,categorization,0,bathroom,SHINEd_sun_aggnnqpdorgxpvce.tif,21,0.0833333333333333,0.0666666666666667,0.9,3111.534410708,3111.67481475,9,3111.619424291,3111.6890765,3111.712346208,3112.607390375,NaN,NaN
103,45,1,categorization,0,bathroom,SHINEd_sun_apmqjbnwghzuhhzh.tif,46,0.0833333333333333,0.0666666666666667,1,3112.618950708,3112.759006666,9,3112.700248083,3112.76217425,3112.780506625,3113.775509833,NaN,NaN
103,46,1,categorization,0,bathroom,SHINEd_labelme_sfxiulhjbhlyiyt.tif,11,0.0833333333333333,0.0666666666666667,0.733333333333333,3113.780060875,3113.920114916,9,3113.860095791,3113.923129208,3113.941302958,3114.669638958,NaN,NaN
103,47,1,categorization,0,bathroom,SHINEd_sun_acduarbnmmoglmiv.tif,16,0.0833333333333333,0.0666666666666667,0.883333333333333,3114.673948416,3114.81400025,9,3114.754096958,3114.816839291,3114.835036083,3115.713373583,NaN,NaN
103,48,1,categorization,0,kitchen,SHINEd_sun_ahywdevtimnqcsln.tif,94,0.0833333333333333,0.0666666666666667,1.73333333333333,3115.717705041,3115.857749125,9,3115.797768708,3115.860637083,3115.879118041,3117.607491916,NaN,NaN
103,49,1,categorization,0,kitchen,SHINEd_labelme_kxvouciolcpqplr.tif,62,0.0833333333333333,0.0666666666666667,1.91666666666667,3117.627233,3117.767624708,9,3117.712817875,3117.781424291,3117.803374833,3119.715072166,NaN,NaN
103,50,1,categorization,0,kitchen,SHINEd_sun_aamedkxepzlwuxes.tif,65,0.0833333333333333,0.0666666666666667,1.35,3119.732952916,3119.873369833,9,3119.817366541,3119.882550625,3119.904175083,3121.249230041,NaN,NaN
