sub_num,trial,block,task,is_practice,category,image,texture,duration,mask_dur,jitter,stim_time,time_of_resp,trial_response,mask_time,fix_time,jit_onset,trial_end,trial_accuracy,RT
103,1,2,categorization,0,bathroom,SHINEd_sun_ahqjwnzgolcaoidx.tif,29,0.0833333333333333,0.0666666666666667,0.95,3141.668692083,NaN,NaN,3141.748746541,3141.81205975,NaN,NaN,NaN,NaN
103,2,2,categorization,0,kitchen,SHINEd_sun_amjjdeyrggfqgmom.tif,100,0.0833333333333333,0.0666666666666667,0.75,NaN,NaN,NaN,NaN,NaN,NaN,NaN,NaN,NaN
103,3,2,categorization,0,kitchen,SHINEd_sun_ahpczsiumwwocjkv.tif,92,0.0833333333333333,0.0666666666666667,1.68333333333333,NaN,NaN,NaN,NaN,NaN,NaN,NaN,NaN,NaN
103,4,2,categorization,0,bathroom,SHINEd_sun_azqyogdvyhahyram.tif,60,0.0833333333333333,0.0666666666666667,0.816666666666667,NaN,NaN,NaN,NaN,NaN,NaN,NaN,NaN,NaN
103,5,2,categorization,0,bathroom,SHINEd_sun_axldvoqbuvuggfmq.tif,57,0.0833333333333333,0.0666666666666667,0.916666666666667,NaN,NaN,NaN,NaN,NaN,NaN,NaN,NaN,NaN
103,6,2,categorization,0,bathroom,SHINEd_sun_asfwthctfqerjvxr.tif,49,0.0833333333333333,0.0666666666666667,1.21666666666667,NaN,NaN,NaN,NaN,NaN,NaN,NaN,NaN,NaN
103,7,2,categorization,0,kitchen,SHINEd_sun_abftihopvusyfakt.tif,71,0.0833333333333333,0.0666666666666667,0.9,NaN,NaN,NaN,NaN,NaN,NaN,NaN,NaN,NaN
103,8,2,categorization,0,kitchen,SHINEd_sun_ahdycvpopffkzzsu.tif,90,0.0833333333333333,0.0666666666666667,1.65,NaN,NaN,NaN,NaN,NaN,NaN,NaN,NaN,NaN
103,9,2,categorization,0,bathroom,SHINEd_sun_auzqhkafidnkrwmo.tif,54,0.0833333333333333,0.0666666666666667,1.15,NaN,NaN,NaN,NaN,NaN,NaN,NaN,NaN,NaN
103,10,2,categorization,0,bathroom,SHINEd_sun_apjevzvycyhuqghb.tif,43,0.0833333333333333,0.0666666666666667,1.13333333333333,NaN,NaN,NaN,NaN,NaN,NaN,NaN,NaN,NaN
103,11,2,categorization,0,bathroom,SHINEd_sun_abjtwfukuwddzted.tif,15,0.0833333333333333,0.0666666666666667,1.76666666666667,NaN,NaN,NaN,NaN,NaN,NaN,NaN,NaN,NaN
103,12,2,categorization,0,bathroom,SHINEd_sun_anryaplzeujmzfkd.tif,39,0.0833333333333333,0.0666666666666667,1.8,NaN,NaN,NaN,NaN,NaN,NaN,NaN,NaN,NaN
103,13,2,categorization,0,bathroom,SHINEd_sun_alkosphxlxwjwgjd.tif,34,0.0833333333333333,0.0666666666666667,0.9,NaN,NaN,NaN,NaN,NaN,NaN,NaN,NaN,NaN
103,14,2,categorization,0,bathroom,SHINEd_sun_ambriybtogmepttm.tif,36,0.0833333333333333,0.0666666666666667,0.716666666666667,NaN,NaN,NaN,NaN,NaN,NaN,NaN,NaN,NaN
103,15,2,categorization,0,bathroom,SHINEd_sun_avhrdrntsqrjzccq.tif,55,0.0833333333333333,0.0666666666666667,1.36666666666667,NaN,NaN,NaN,NaN,NaN,NaN,NaN,NaN,NaN
103,16,2,categorization,0,bathroom,SHINEd_sun_agrwbmhcpmfuwmsg.tif,24,0.0833333333333333,0.0666666666666667,0.916666666666667,NaN,NaN,NaN,NaN,NaN,NaN,NaN,NaN,NaN
103,17,2,categorization,0,kitchen,SHINEd_sun_agubuxuukhzyzpdp.tif,88,0.0833333333333333,0.0666666666666667,0.716666666666667,NaN,NaN,NaN,NaN,NaN,NaN,NaN,NaN,NaN
103,18,2,categorization,0,kitchen,SHINEd_sun_auaiucuqpdausiva.tif,102,0.0833333333333333,0.0666666666666667,0.766666666666667,NaN,NaN,NaN,NaN,NaN,NaN,NaN,NaN,NaN
103,19,2,categorization,0,bathroom,SHINEd_sun_aleqenyvunhactkl.tif,32,0.0833333333333333,0.0666666666666667,1.06666666666667,NaN,NaN,NaN,NaN,NaN,NaN,NaN,NaN,NaN
103,20,2,categorization,0,bathroom,SHINEd_sun_agyqfjcfkdcydepw.tif,25,0.0833333333333333,0.0666666666666667,0.8,NaN,NaN,NaN,NaN,NaN,NaN,NaN,NaN,NaN
103,21,2,categorization,0,bathroom,SHINEd_sun_aghyqhbptboemmoq.tif,23,0.0833333333333333,0.0666666666666667,0.866666666666667,NaN,NaN,NaN,NaN,NaN,NaN,NaN,NaN,NaN
103,22,2,categorization,0,kitchen,SHINEd_sun_agorklincwxrdtga.tif,87,0.0833333333333333,0.0666666666666667,1.48333333333333,NaN,NaN,NaN,NaN,NaN,NaN,NaN,NaN,NaN
103,23,2,categorization,0,kitchen,SHINEd_sun_abrcnpqqhmjwekyf.tif,73,0.0833333333333333,0.0666666666666667,1.1,NaN,NaN,NaN,NaN,NaN,NaN,NaN,NaN,NaN
103,24,2,categorization,0,bathroom,SHINEd_sun_ausgutylgojavyoq.tif,53,0.0833333333333333,0.0666666666666667,0.783333333333333,NaN,NaN,NaN,NaN,NaN,NaN,NaN,NaN,NaN
103,25,2,categorization,0,kitchen,SHINEd_sun_akcjzhbbjlbogpdi.tif,99,0.0833333333333333,0.0666666666666667,0.866666666666667,NaN,NaN,NaN,NaN,NaN,NaN,NaN,NaN,NaN
103,26,2,categorization,0,kitchen,SHINEd_sun_agzzivivdpnawacl.tif,89,0.0833333333333333,0.0666666666666667,1.83333333333333,NaN,NaN,NaN,NaN,NaN,NaN,NaN,NaN,NaN
103,27,2,categorization,0,bathroom,SHINEd_sun_axyrejkiiaqiurjk.tif,59,0.0833333333333333,0.0666666666666667,0.7,NaN,NaN,NaN,NaN,NaN,NaN,NaN,NaN,NaN
103,28,2,categorization,0,bathroom,SHINEd_sun_alotolagknyrgtsk.tif,35,0.0833333333333333,0.0666666666666667,1.33333333333333,NaN,NaN,NaN,NaN,NaN,NaN,NaN,NaN,NaN
103,29,2,categorization,0,bathroom,SHINEd_sun_akiytfaagpdsphgz.tif,31,0.0833333333333333,0.0666666666666667,1.33333333333333,NaN,NaN,NaN,NaN,NaN,NaN,NaN,NaN,NaN
103,30,2,categorization,0,bathroom,SHINEd_sun_aqrpegblszgcoujh.tif,48,0.0833333333333333,0.0666666666666667,1.38333333333333,NaN,NaN,NaN,NaN,NaN,NaN,NaN,NaN,NaN
103,31,2,categorization,0,bathroom,SHINEd_sun_atstyziqcmkahyxk.tif,51,0.0833333333333333,0.0666666666666667,1.25,NaN,NaN,NaN,NaN,NaN,NaN,NaN,NaN,NaN
103,32,2,categorization,0,kitchen,SHINEd_sun_aypmqwcualkenuoe.tif,109,0.0833333333333333,0.0666666666666667,1.55,NaN,NaN,NaN,NaN,NaN,NaN,NaN,NaN,NaN
103,33,2,categorization,0,kitchen,SHINEd_sun_abdenxonkemggwsq.tif,69,0.0833333333333333,0.0666666666666667,1.61666666666667,NaN,NaN,NaN,NaN,NaN,NaN,NaN,NaN,NaN
103,34,2,categorization,0,bathroom,SHINEd_sun_acgyywnybuveqsro.tif,18,0.0833333333333333,0.0666666666666667,1.33333333333333,NaN,NaN,NaN,NaN,NaN,NaN,NaN,NaN,NaN
103,35,2,categorization,0,bathroom,SHINEd_sun_acegryoqftbzowsg.tif,17,0.0833333333333333,0.0666666666666667,0.833333333333333,NaN,NaN,NaN,NaN,NaN,NaN,NaN,NaN,NaN
103,36,2,categorization,0,kitchen,SHINEd_sun_aarfiyshqohlwkmo.tif,67,0.0833333333333333,0.0666666666666667,1.45,NaN,NaN,NaN,NaN,NaN,NaN,NaN,NaN,NaN
103,37,2,categorization,0,bathroom,SHINEd_sun_abapwbhyhkfixyex.tif,14,0.0833333333333333,0.0666666666666667,0.933333333333333,NaN,NaN,NaN,NaN,NaN,NaN,NaN,NaN,NaN
103,38,2,categorization,0,kitchen,SHINEd_sun_ajcbwwvdlsvjyzje.tif,96,0.0833333333333333,0.0666666666666667,1.65,NaN,NaN,NaN,NaN,NaN,NaN,NaN,NaN,NaN
103,39,2,categorization,0,bathroom,SHINEd_sun_awnqiikzaispgmwo.tif,56,0.0833333333333333,0.0666666666666667,1.23333333333333,NaN,NaN,NaN,NaN,NaN,NaN,NaN,NaN,NaN
103,40,2,categorization,0,kitchen,SHINEd_sun_aehawpgmrlhlvcow.tif,81,0.0833333333333333,0.0666666666666667,0.766666666666667,NaN,NaN,NaN,NaN,NaN,NaN,NaN,NaN,NaN
103,41,2,categorization,0,bathroom,SHINEd_sun_ajlawzvmubibwbpy.tif,30,0.0833333333333333,0.0666666666666667,1.78333333333333,NaN,NaN,NaN,NaN,NaN,NaN,NaN,NaN,NaN
103,42,2,categorization,0,kitchen,SHINEd_sun_ahspylgoovwmwvgk.tif,93,0.0833333333333333,0.0666666666666667,1.11666666666667,NaN,NaN,NaN,NaN,NaN,NaN,NaN,NaN,NaN
103,43,2,categorization,0,kitchen,SHINEd_sun_acwjdupvyjsugpay.tif,76,0.0833333333333333,0.0666666666666667,1.85,NaN,NaN,NaN,NaN,NaN,NaN,NaN,NaN,NaN
103,44,2,categorization,0,kitchen,SHINEd_sun_axyyrmzcupyhlivc.tif,107,0.0833333333333333,0.0666666666666667,0.733333333333333,NaN,NaN,NaN,NaN,NaN,NaN,NaN,NaN,NaN
103,45,2,categorization,0,kitchen,SHINEd_sun_ahljzhgcdpomplvg.tif,91,0.0833333333333333,0.0666666666666667,0.783333333333333,NaN,NaN,NaN,NaN,NaN,NaN,NaN,NaN,NaN
103,46,2,categorization,0,kitchen,SHINEd_sun_aexklacwqwezaorf.tif,84,0.0833333333333333,0.0666666666666667,1.5,NaN,NaN,NaN,NaN,NaN,NaN,NaN,NaN,NaN
103,47,2,categorization,0,bathroom,SHINEd_sun_agguqiubmwhqqunb.tif,22,0.0833333333333333,0.0666666666666667,0.733333333333333,NaN,NaN,NaN,NaN,NaN,NaN,NaN,NaN,NaN
103,48,2,categorization,0,kitchen,SHINEd_sun_aymvwlarqodbwuoc.tif,108,0.0833333333333333,0.0666666666666667,1.1,NaN,NaN,NaN,NaN,NaN,NaN,NaN,NaN,NaN
103,49,2,categorization,0,kitchen,SHINEd_sun_avszsnwsbuqfgzbn.tif,105,0.0833333333333333,0.0666666666666667,1.6,NaN,NaN,NaN,NaN,NaN,NaN,NaN,NaN,NaN
103,50,2,categorization,0,kitchen,SHINEd_sun_aenotlpyftoioydp.tif,82,0.0833333333333333,0.0666666666666667,1.06666666666667,NaN,NaN,NaN,NaN,NaN,NaN,NaN,NaN,NaN
