sub_num,trial,block,task,is_practice,category,image,texture,duration,mask_dur,jitter,stim_time,time_of_resp,trial_response,mask_time,fix_time,jit_onset,trial_end,trial_accuracy,RT
103,1,1,categorization,0,bathroom,SHINEd_sun_ahaulkltgpkeeemi.tif,26,0.0666666666666667,0.0666666666666667,1.23333333333333,23372.799765,23373.689931042,13,23372.861946542,23372.922761375,23373.708242958,23374.93498,1,0.890166042001511
103,2,1,categorization,0,kitchen,SHINEd_sun_akchetnepxlcxhsu.tif,98,0.0666666666666667,0.0666666666666667,0.783333333333333,23374.946705917,23376.833614458,13,23375.014068792,23375.079828,23376.849199167,23377.625870458,0,1.88690854100059
103,3,1,categorization,0,bathroom,SHINEd_sun_aspsyogrekjtfozg.tif,50,0.0666666666666667,0.0666666666666667,0.75,23377.630948625,23378.281360958,13,23377.692773667,23377.75365575,23378.288673917,23379.032012458,1,0.650412333001441
103,4,1,categorization,0,kitchen,SHINEd_sun_admlmbcdswaszruo.tif,79,0.0666666666666667,0.0666666666666667,1.23333333333333,23379.036914583,23379.745893708,13,23379.098684708,23379.159589542,23379.761266125,23380.987981958,0,0.708979125000042
103,5,1,categorization,0,kitchen,SHINEd_sun_aegoxogugdkwpmpj.tif,80,0.0666666666666667,0.0666666666666667,1.13333333333333,23380.997718042,23381.794875875,9,23381.062693583,23381.130995792,23381.820729875,23382.94745475,1,0.797157832999801
103,6,1,categorization,0,kitchen,SHINEd_sun_acfmftudsenhrfhy.tif,74,0.0666666666666667,0.0666666666666667,0.95,23382.957241083,23383.71542075,9,23383.02283925,23383.090155292,23383.72875725,23384.67213725,1,0.758179666998331
103,7,1,categorization,0,kitchen,SHINEd_sun_afuyedyxivkhecmu.tif,85,0.0666666666666667,0.0666666666666667,0.733333333333333,23384.689385208,23385.417485167,9,23384.756502667,23384.822180917,23385.424110167,23386.150782042,1,0.728099959000247
103,8,1,categorization,0,bathroom,SHINEd_sun_apeeialkgkuxddgh.tif,42,0.0666666666666667,0.0666666666666667,1.31666666666667,23386.155660917,23386.881242167,13,23386.217404708,23386.278380292,23386.896765542,23388.206807625,1,0.725581250000687
103,9,1,categorization,0,bathroom,SHINEd_sun_axxbkopsgyouuebh.tif,58,0.0666666666666667,0.0666666666666667,0.8,23388.225869417,23388.867181042,13,23388.292655833,23388.358795792,23388.881000458,23389.674386875,1,0.641311624996888
103,10,1,categorization,0,kitchen,SHINEd_sun_auticobqsbwgoppi.tif,104,0.0666666666666667,0.0666666666666667,0.716666666666667,23389.691308292,23390.729319042,13,23389.757682292,23389.8240235,23390.742626417,23391.452632083,0,1.03801074999865
103,11,1,categorization,0,bathroom,SHINEd_sun_amzlamotzwfkwjco.tif,37,0.0666666666666667,0.0666666666666667,0.916666666666667,23391.458068667,23392.097601125,13,23391.520048917,23391.580673875,23392.115782958,23393.025787792,1,0.63953245799712
103,12,1,categorization,0,bathroom,SHINEd_sun_aunuadmjocsddsrl.tif,52,0.0666666666666667,0.0666666666666667,0.95,23393.030751208,23393.72967425,13,23393.092486167,23393.153457042,23393.738696833,23394.682034542,1,0.698923042000388
103,13,1,categorization,0,bathroom,SHINEd_sun_aofnryafpsjimzsb.tif,40,0.0666666666666667,0.0666666666666667,0.833333333333333,23394.687136917,23395.161578333,13,23394.748910625,23394.80985375,23395.178443292,23396.00511525,1,0.474441416001355
103,14,1,categorization,0,kitchen,SHINEd_sun_abpwyqmlzafvklqo.tif,72,0.0666666666666667,0.0666666666666667,0.75,23396.011058708,23396.465344667,13,23396.072804833,23396.133634292,23396.468572542,23397.211911375,0,0.454285959000117
103,15,1,categorization,0,kitchen,SHINEd_sun_aaxxjlsuzvqlgylf.tif,68,0.0666666666666667,0.0666666666666667,1.53333333333333,23397.216760542,23397.87360125,9,23397.278322625,23397.339437042,23397.891712083,23399.418429458,1,0.656840708001255
103,16,1,categorization,0,kitchen,SHINEd_sun_ajkqhtgcbgpcwrwn.tif,97,0.0666666666666667,0.0666666666666667,1.05,23399.437629375,23400.369204958,13,23399.50447075,23399.570944708,23400.394367583,23401.437754583,0,0.931575582999358
103,17,1,categorization,0,bathroom,SHINEd_sun_apkruvsevgegsdwp.tif,44,0.0666666666666667,0.0666666666666667,0.9,23401.45024125,23401.915472458,13,23401.514341542,23401.582054917,23401.938609208,23402.831993958,1,0.46523120799975
103,18,1,categorization,0,bathroom,SHINEd_sun_aavhrsfjbserjtht.tif,13,0.0666666666666667,0.0666666666666667,1.18333333333333,23402.84846275,23403.349173333,13,23402.915489542,23402.979420083,23403.36900925,23404.545699708,1,0.50071058300091
103,19,1,categorization,0,kitchen,SHINEd_sun_azmutvzbxypaceni.tif,110,0.0666666666666667,0.0666666666666667,0.9,23404.555632417,23405.16994875,9,23404.62251325,23404.688437042,23405.194820583,23406.088210667,1,0.614316333001625
103,20,1,categorization,0,bathroom,SHINEd_sun_aapitsgbtktqubfy.tif,12,0.0666666666666667,0.0666666666666667,1.66666666666667,23406.104272958,23406.793316542,13,23406.171089833,23406.237115917,23406.805902417,23408.465958333,1,0.689043583999592
103,21,1,categorization,0,kitchen,SHINEd_sun_aadbddgrdsjugojn.tif,64,0.0666666666666667,0.0666666666666667,1.13333333333333,23408.480530125,23408.995957125,13,23408.54785825,23408.613770458,23409.020796042,23410.147508833,0,0.515426999998454
103,22,1,categorization,0,kitchen,SHINEd_sun_abdxkyyxwfskuaqb.tif,70,0.0666666666666667,0.0666666666666667,1.3,23410.156787,23410.613119292,13,23410.2223325,23410.28995975,23410.629213333,23411.922586208,0,0.456332292000297
103,23,1,categorization,0,bathroom,SHINEd_sun_afcoljnjfoxjtgja.tif,20,0.0666666666666667,0.0666666666666667,1.93333333333333,23411.942075875,23412.538180417,13,23412.008621583,23412.074972708,23412.543588958,23414.470300667,1,0.59610454200083
103,24,1,categorization,0,kitchen,SHINEd_sun_aixorpehvfykdynp.tif,95,0.0666666666666667,0.0666666666666667,1,23414.488135083,23415.341059917,9,23414.555338083,23414.621124042,23415.361183833,23416.354521958,1,0.852924833998259
103,25,1,categorization,0,kitchen,SHINEd_sun_adgqasybjyktddhj.tif,78,0.0666666666666667,0.0666666666666667,0.883333333333333,23416.361101875,23417.001196958,13,23416.422979,23416.483819542,23417.01895025,23417.895620375,0,0.640095082999323
103,26,1,categorization,0,kitchen,SHINEd_labelme_rykdqxenmhulbdn.tif,63,0.0666666666666667,0.0666666666666667,1.95,23417.900508333,23418.482097625,13,23417.962090792,23418.023247917,23418.49173575,23420.435111292,0,0.58158929199999
103,27,1,categorization,0,bathroom,SHINEd_sun_apynckhmoftszqoq.tif,47,0.0666666666666667,0.0666666666666667,1.25,23420.454897958,23421.027430708,13,23420.522021542,23420.587554125,23421.044351125,23422.287728875,1,0.572532750000391
103,28,1,categorization,0,kitchen,SHINEd_sun_aqeaevwwwjoqhzvl.tif,101,0.0666666666666667,0.0666666666666667,1.95,23422.307411792,23423.066397125,13,23422.375055458,23422.440209208,23423.0957995,23425.039184208,0,0.758985332999146
103,29,1,categorization,0,kitchen,SHINEd_sun_awcpdzzznmweyyhv.tif,106,0.0666666666666667,0.0666666666666667,1.91666666666667,23425.058256042,23425.692492375,13,23425.125521917,23425.191219333,23425.713988292,23427.624018625,0,0.634236333000445
103,30,1,categorization,0,kitchen,SHINEd_sun_aeqdocilnnpuvuhx.tif,83,0.0666666666666667,0.0666666666666667,1.41666666666667,23427.646901792,23428.09152425,13,23427.713830458,23427.779024958,23428.119557375,23429.529598833,0,0.444622458002414
103,31,1,categorization,0,kitchen,SHINEd_sun_acxkpeoqbwcxfvip.tif,77,0.0666666666666667,0.0666666666666667,0.716666666666667,23429.545181625,23430.317514417,9,23429.61176475,23429.678079417,23430.334188417,23431.044223667,1,0.772332792002999
103,32,1,categorization,0,kitchen,SHINEd_sun_aggjlwcdjsjcaemh.tif,86,0.0666666666666667,0.0666666666666667,1.28333333333333,23431.062525917,23431.849577042,13,23431.129775958,23431.186960125,23431.855319958,23433.132032708,0,0.787051125000289
103,33,1,categorization,0,kitchen,SHINEd_sun_acgtpgfybqjmzeyw.tif,75,0.0666666666666667,0.0666666666666667,0.9,23433.148218875,23433.703556667,13,23433.215022208,23433.28114025,23433.720779708,23434.614170833,0,0.555337791996863
103,34,1,categorization,0,bathroom,SHINEd_sun_aclfzgynxzxlbepz.tif,19,0.0666666666666667,0.0666666666666667,0.8,23434.627888542,23435.449502042,9,23434.6950015,23434.760676625,23435.46257675,23436.255916,0,0.82161350000024
103,35,1,categorization,0,kitchen,SHINEd_sun_aunzlwrbjumxhwdj.tif,103,0.0666666666666667,0.0666666666666667,1.01666666666667,23436.260827,23438.017313083,9,23436.322648958,23436.383522583,23438.036109167,23439.046158125,1,1.75648608300253
103,36,1,categorization,0,bathroom,SHINEd_sun_ahcvzmoyaycdoftf.tif,27,0.0666666666666667,0.0666666666666667,0.85,23439.055490292,23440.237953667,13,23439.120268792,23439.186803292,23440.259741125,23441.103107458,1,1.18246337500022
103,37,1,categorization,0,kitchen,SHINEd_labelme_brsyyvweiuaazfr.tif,61,0.0666666666666667,0.0666666666666667,1.51666666666667,23441.110881542,23442.273995542,13,23441.172544625,23441.233526542,23442.285703125,23443.795737083,0,1.16311399999904
103,38,1,categorization,0,bathroom,SHINEd_sun_apkxzenqapsujocq.tif,45,0.0666666666666667,0.0666666666666667,1.83333333333333,23443.812286792,23444.538078958,13,23443.879596333,23443.945237833,23444.550509958,23446.377219333,1,0.725792166002066
103,39,1,categorization,0,bathroom,SHINEd_sun_ahijqszoswveeyji.tif,28,0.0666666666666667,0.0666666666666667,0.716666666666667,23446.394776792,23447.237216375,9,23446.46165925,23446.527665833,23447.267936333,23447.97794175,0,0.842439583000669
103,40,1,categorization,0,kitchen,SHINEd_sun_aapllqyqlykszopd.tif,66,0.0666666666666667,0.0666666666666667,0.9,23447.982926625,23448.753119333,13,23448.044692,23448.105624125,23448.757474417,23449.650812083,0,0.770192707997921
103,41,1,categorization,0,bathroom,SHINEd_sun_aljolscmmzydegqp.tif,33,0.0666666666666667,0.0666666666666667,0.916666666666667,23449.656109958,23450.314030625,13,23449.717695,23449.778807583,23450.330590167,23451.24059425,1,0.657920666999416
103,42,1,categorization,0,bathroom,SHINEd_sun_aoybiabnpadelefl.tif,41,0.0666666666666667,0.0666666666666667,0.816666666666667,23451.245521333,23452.257993292,9,23451.307166333,23451.368345208,23452.270100875,23453.0801045,0,1.01247195900214
103,43,1,categorization,0,bathroom,SHINEd_sun_anhioqovhscjqqwb.tif,38,0.0666666666666667,0.0666666666666667,1.88333333333333,23453.08499825,23453.785191583,13,23453.1468245,23453.207750542,23453.792818083,23455.669521333,1,0.700193332999334
103,44,1,categorization,0,bathroom,SHINEd_sun_aggnnqpdorgxpvce.tif,21,0.0666666666666667,0.0666666666666667,0.9,23455.6884425,23456.36163425,13,23455.755853208,23455.821140875,23456.375795958,23457.269134292,1,0.673191750000115
103,45,1,categorization,0,bathroom,SHINEd_sun_apmqjbnwghzuhhzh.tif,46,0.0666666666666667,0.0666666666666667,1,23457.2742275,23458.289785125,13,23457.335969458,23457.396880333,23458.298718625,23459.292056083,1,1.01555762500357
103,46,1,categorization,0,bathroom,SHINEd_labelme_sfxiulhjbhlyiyt.tif,11,0.0666666666666667,0.0666666666666667,0.733333333333333,23459.296876542,23460.073939833,13,23459.358671,23459.4195495,23460.087970875,23460.814641458,1,0.777063290999649
103,47,1,categorization,0,bathroom,SHINEd_sun_acduarbnmmoglmiv.tif,16,0.0666666666666667,0.0666666666666667,0.883333333333333,23460.819323333,23461.83388025,9,23460.88092275,23460.942611458,23461.844673833,23462.721344833,0,1.01455691700176
103,48,1,categorization,0,kitchen,SHINEd_sun_ahywdevtimnqcsln.tif,94,0.0666666666666667,0.0666666666666667,1.73333333333333,23462.727563417,23463.345678917,13,23462.789315958,23462.850224875,23463.352015042,23465.078728167,0,0.618115500001295
103,49,1,categorization,0,kitchen,SHINEd_labelme_kxvouciolcpqplr.tif,62,0.0666666666666667,0.0666666666666667,1.91666666666667,23465.097544417,23465.852675125,13,23465.164531792,23465.230596417,23465.8699855,23467.780037708,0,0.755130707999342
103,50,1,categorization,0,kitchen,SHINEd_sun_aamedkxepzlwuxes.tif,65,0.0666666666666667,0.0666666666666667,1.35,23467.797868833,23468.558740083,9,23467.865104875,23467.931182125,23468.588077667,23469.9314575,1,0.760871250000491
