slide,sub1,sub2,pairID,trialID,stim1,stim2,instructionsLoop.thisRepN,instructionsLoop.thisTrialN,instructionsLoop.thisN,instructionsLoop.thisIndex,practice.thisRepN,practice.thisTrialN,practice.thisN,practice.thisIndex,trials.thisRepN,trials.thisTrialN,trials.thisN,trials.thisIndex,thisRow.t,notes,preparation.started,preparation.stopped,instructions.started,startResponse.started,slide_img.started,instructions.stopped,startResponse.keys,startResponse.rt,startResponse.duration,trial.started,polygon.started,polygon_2.started,image1.started,image2.started,rating_1.started,question.started,rating_2.started,question_2.started,block_text.started,trial.stopped,stim1pos,stim2pos,block,rating_1.response,rating_1.rt,rating_2.response,rating_2.rt,ITI.started,text.started,text.stopped,ITI.stopped,practice_over.started,text_2.started,space_practice_over.started,practice_over.stopped,space_practice_over.keys,space_practice_over.rt,space_practice_over.duration,breakBlocks.started,breakBlocks.stopped,startBlock.keys,startBlock.started,startBlock.rt,startBlock.duration,end.started,message_end.started,key_resp.started,end.stopped,key_resp.keys,key_resp.rt,key_resp.duration,participant,session,session_number,date,expName,psychopyVersion,frameRate,expStart,
instructions/Slide2.jpg,,,,,,,0,0,0,0,,,,,,,,,0.026035583999998835,,0.0021354589999873497,0.0022385420000006206,0.009121874999991064,0.026035583999998835,0.026035583999998835,15.85327066699999,space,15.826894124999995,None,,,,,,,,,,,,,,,,,,,,,,,,,,,,,,,,,,,,,,,,,,,205,kitchen,2,2024-03-15_13h21.42.244,image_similarity_rating,2023.2.3,None,2024-03-15 13h22.00.542044 +0100,
instructions/Slide3.jpg,,,,,,,0,1,1,1,,,,,,,,,15.879496416999999,,,,15.854512624999998,15.879496416999999,15.879496416999999,17.207784833999995,space,1.328050250000004,None,,,,,,,,,,,,,,,,,,,,,,,,,,,,,,,,,,,,,,,,,,,205,kitchen,2,2024-03-15_13h21.42.244,image_similarity_rating,2023.2.3,None,2024-03-15 13h22.00.542044 +0100,
instructions/Slide4.jpg,,,,,,,0,2,2,2,,,,,,,,,17.229568625,,,,17.208385459,17.229568625,17.229568625,17.758227708999996,space,0.5283151249999918,None,,,,,,,,,,,,,,,,,,,,,,,,,,,,,,,,,,,,,,,,,,,205,kitchen,2,2024-03-15_13h21.42.244,image_similarity_rating,2023.2.3,None,2024-03-15 13h22.00.542044 +0100,
instructions/Slide5.jpg,,,,,,,0,3,3,3,,,,,,,,,17.784368333999993,,,,17.759050791999996,17.784368333999993,17.784368333999993,18.341424458999995,space,0.5567205840000042,None,,,,,,,,,,,,,,,,,,,,,,,,,,,,,,,,,,,,,,,,,,,205,kitchen,2,2024-03-15_13h21.42.244,image_similarity_rating,2023.2.3,None,2024-03-15 13h22.00.542044 +0100,
,107,133,practice,9,stimuli/own/kitchen/107_kit.jpg,stimuli/own/kitchen/133_kit.jpg,,,,,0,0,0,8,,,,,18.54828833399999,,,,,,,,,,,18.369017041999996,18.54828833399999,18.54828833399999,18.54828833399999,18.54828833399999,18.54828833399999,18.54828833399999,18.54828833399999,18.54828833399999,18.54828833399999,26.221773125,7,-7,0,5.0,4.4857935,4.0,7.019589040999989,26.222005458999988,26.224445292,26.68003954199999,26.50773149999999,,,,,,,,,,,,,,,,,,,,,205,kitchen,2,2024-03-15_13h21.42.244,image_similarity_rating,2023.2.3,None,2024-03-15 13h22.00.542044 +0100,
,107,128,practice,7,stimuli/own/kitchen/107_kit.jpg,stimuli/own/kitchen/128_kit.jpg,,,,,0,1,1,6,,,,,26.68003954199999,,,,,,,,,,,26.508222499999988,26.68003954199999,26.68003954199999,26.68003954199999,26.68003954199999,26.68003954199999,26.68003954199999,26.68003954199999,26.68003954199999,26.68003954199999,32.27984895899999,-7,7,0,5.0,3.693016875000012,7.0,5.450929375000001,32.27999224999999,32.28981725,32.741889167,32.574471292,,,,,,,,,,,,,,,,,,,,,205,kitchen,2,2024-03-15_13h21.42.244,image_similarity_rating,2023.2.3,None,2024-03-15 13h22.00.542044 +0100,
,128,108,practice,3,stimuli/own/kitchen/128_kit.jpg,stimuli/own/kitchen/108_kit.jpg,,,,,0,2,2,2,,,,,32.741889167,,,,,,,,,,,32.574922,32.741889167,32.741889167,32.741889167,32.741889167,32.741889167,32.741889167,32.741889167,32.741889167,32.741889167,40.60077033399999,7,-7,0,4.0,5.676005083999996,6.0,7.716288832999993,40.60091204199999,40.606875583999994,41.06166024999999,40.891070375,,,,,,,,,,,,,,,,,,,,,205,kitchen,2,2024-03-15_13h21.42.244,image_similarity_rating,2023.2.3,None,2024-03-15 13h22.00.542044 +0100,
,110,107,practice,4,stimuli/own/kitchen/110_kit.jpg,stimuli/own/kitchen/107_kit.jpg,,,,,0,3,3,3,,,,,41.06166024999999,,,,,,,,,,,40.891568584,41.06166024999999,41.06166024999999,41.06166024999999,41.06166024999999,41.06166024999999,41.06166024999999,41.06166024999999,41.06166024999999,41.06166024999999,49.55878583399999,7,-7,0,3.0,5.274419749999993,4.0,8.310648750000013,49.55892970899998,49.560689709,50.014668709000006,49.845501084000006,,,,,,,,,,,,,,,,,,,,,205,kitchen,2,2024-03-15_13h21.42.244,image_similarity_rating,2023.2.3,None,2024-03-15 13h22.00.542044 +0100,
,128,133,practice,6,stimuli/own/kitchen/128_kit.jpg,stimuli/own/kitchen/133_kit.jpg,,,,,0,4,4,5,,,,,50.014668709000006,,,,,,,,,,,49.84594529199998,50.014668709000006,50.014668709000006,50.014668709000006,50.014668709000006,50.014668709000006,50.014668709000006,50.014668709000006,50.014668709000006,50.014668709000006,58.167190417,7,-7,0,6.0,5.803922458000017,3.0,7.9907643330000155,58.16733479199999,58.17296274999998,58.62423791699999,58.457660167,,,,,,,,,,,,,,,,,,,,,205,kitchen,2,2024-03-15_13h21.42.244,image_similarity_rating,2023.2.3,None,2024-03-15 13h22.00.542044 +0100,
,108,133,practice,10,stimuli/own/kitchen/108_kit.jpg,stimuli/own/kitchen/133_kit.jpg,,,,,0,5,5,9,,,,,58.62423791699999,,,,,,,,,,,58.45810900000001,58.62423791699999,58.62423791699999,58.62423791699999,58.62423791699999,58.62423791699999,58.62423791699999,58.62423791699999,58.62423791699999,58.62423791699999,66.421969792,7,-7,0,5.0,5.268427750000001,4.0,7.352442540999988,66.42213312499999,66.42420425,66.875771042,66.7076305,,,,,,,,,,,,,,,,,,,,,205,kitchen,2,2024-03-15_13h21.42.244,image_similarity_rating,2023.2.3,None,2024-03-15 13h22.00.542044 +0100,
,107,108,practice,5,stimuli/own/kitchen/107_kit.jpg,stimuli/own/kitchen/108_kit.jpg,,,,,0,6,6,4,,,,,66.875771042,,,,,,,,,,,66.708082209,66.875771042,66.875771042,66.875771042,66.875771042,66.875771042,66.875771042,66.875771042,66.875771042,66.875771042,73.776403459,-7,7,0,4.0,6.424808709000018,7.0,4.033589291999988,73.77654716699999,73.778449709,74.244228292,74.07414979199999,,,,,,,,,,,,,,,,,,,,,205,kitchen,2,2024-03-15_13h21.42.244,image_similarity_rating,2023.2.3,None,2024-03-15 13h22.00.542044 +0100,
,110,133,practice,1,stimuli/own/kitchen/110_kit.jpg,stimuli/own/kitchen/133_kit.jpg,,,,,0,7,7,0,,,,,74.244228292,,,,,,,,,,,74.074643667,74.244228292,74.244228292,74.244228292,74.244228292,74.244228292,74.244228292,74.244228292,74.244228292,74.244228292,79.40875433400001,-7,7,0,5.0,2.941832125000019,2.0,4.890489416999998,79.40889737499998,79.410817584,79.85900924999999,79.69474825,,,,,,,,,,,,,,,,,,,,,205,kitchen,2,2024-03-15_13h21.42.244,image_similarity_rating,2023.2.3,None,2024-03-15 13h22.00.542044 +0100,
,108,110,practice,8,stimuli/own/kitchen/108_kit.jpg,stimuli/own/kitchen/110_kit.jpg,,,,,0,8,8,7,,,,,79.85900924999999,,,,,,,,,,,79.69511720899999,79.85900924999999,79.85900924999999,79.85900924999999,79.85900924999999,79.85900924999999,79.85900924999999,79.85900924999999,79.85900924999999,79.85900924999999,88.49648729199998,-7,7,0,5.0,6.096760791000008,2.0,8.490217125000015,88.496637459,88.50637508399998,88.956432417,88.79075954199999,,,,,,,,,,,,,,,,,,,,,205,kitchen,2,2024-03-15_13h21.42.244,image_similarity_rating,2023.2.3,None,2024-03-15 13h22.00.542044 +0100,
,110,128,practice,2,stimuli/own/kitchen/110_kit.jpg,stimuli/own/kitchen/128_kit.jpg,,,,,0,9,9,1,,,,,88.956432417,,,,,,,,,,,88.791202417,88.956432417,88.956432417,88.956432417,88.956432417,88.956432417,88.956432417,88.956432417,88.956432417,88.956432417,99.817270417,-7,7,0,4.0,4.9334342909999975,6.0,10.797844707999985,99.817412125,99.82285254199999,100.112171542,100.107323584,,,,,,,,,,,,,,,,,,,,,205,kitchen,2,2024-03-15_13h21.42.244,image_similarity_rating,2023.2.3,None,2024-03-15 13h22.00.542044 +0100,
,,,,,,,,,,,,,,,,,,,,,,,,,,,,,,,,,,,,,,,,,,,,,,,,,,,,100.10742149999999,100.112171542,100.112171542,101.975941,space,1.8635166660000095,None,,,,,,,,,,,,,,205,kitchen,2,2024-03-15_13h21.42.244,image_similarity_rating,2023.2.3,None,2024-03-15 13h22.00.542044 +0100,
,120,126,411,411,stimuli/own/kitchen/120_kit.jpg,stimuli/own/kitchen/126_kit.jpg,,,,,,,,,0,0,0,410,102.02452333399998,,,,,,,,,,,102.31160233399999,102.48854729199999,102.48854729199999,102.48854729199999,102.48854729199999,102.48854729199999,102.48854729199999,102.48854729199999,102.48854729199999,102.48854729199999,109.326124042,-7,7,1,6.0,4.876992540999993,7.0,6.709240792000003,102.02217925,102.02452333399998,102.48854729199999,102.31158908399999,,,,,,,,102.008930125,102.02190220899999,None,,,,,,,,,,,205,kitchen,2,2024-03-15_13h21.42.244,image_similarity_rating,2023.2.3,None,2024-03-15 13h22.00.542044 +0100,
,126,135,511,511,stimuli/own/kitchen/126_kit.jpg,stimuli/own/kitchen/135_kit.jpg,,,,,,,,,0,1,1,510,109.33464558399999,,,,,,,,,,,109.623895084,109.788728042,109.788728042,109.788728042,109.788728042,109.788728042,109.788728042,109.788728042,109.788728042,109.788728042,116.333711875,7,-7,1,3.0,2.816344249999986,4.0,6.401735833999993,109.33271091699999,109.33464558399999,109.788728042,109.623880584,,,,,,,,109.326695667,109.332659,None,,,,,,,,,,,205,kitchen,2,2024-03-15_13h21.42.244,image_similarity_rating,2023.2.3,None,2024-03-15 13h22.00.542044 +0100,
,125,127,492,492,stimuli/own/kitchen/125_kit.jpg,stimuli/own/kitchen/127_kit.jpg,,,,,,,,,0,2,2,491,116.339340625,,,,,,,,,,,116.623952084,116.788542,116.788542,116.788542,116.788542,116.788542,116.788542,116.788542,116.788542,116.788542,126.688070167,7,-7,1,4.0,5.399424833000012,2.0,9.788063542000003,116.33751425,116.339340625,116.788542,116.623938417,,,,,,,,116.33393733399998,116.33746670899998,None,,,,,,,,,,,205,kitchen,2,2024-03-15_13h21.42.244,image_similarity_rating,2023.2.3,None,2024-03-15 13h22.00.542044 +0100,
,103,119,79,79,stimuli/own/kitchen/103_kit.jpg,stimuli/own/kitchen/119_kit.jpg,,,,,,,,,0,3,3,78,126.69378333399999,,,,,,,,,,,126.977515834,127.14280549999998,127.14280549999998,127.14280549999998,127.14280549999998,127.14280549999998,127.14280549999998,127.14280549999998,127.14280549999998,127.14280549999998,132.334107709,-7,7,1,2.0,3.364929332999992,1.0,4.815001749999993,126.691861125,126.69378333399999,127.14280549999998,126.977503542,,,,,,,,126.68831341699999,126.6918135,None,,,,,,,,,,,205,kitchen,2,2024-03-15_13h21.42.244,image_similarity_rating,2023.2.3,None,2024-03-15 13h22.00.542044 +0100,
,106,135,183,183,stimuli/own/kitchen/106_kit.jpg,stimuli/own/kitchen/135_kit.jpg,,,,,,,,,0,4,4,182,132.356139875,,,,,,,,,,,132.64032075,132.805069875,132.805069875,132.805069875,132.805069875,132.805069875,132.805069875,132.805069875,132.805069875,132.805069875,137.92609875,7,-7,1,2.0,2.4868376249999926,4.0,4.9824022499999785,132.33780249999998,132.356139875,,132.64030424999999,,,,,,,,132.334332,132.337755459,None,,,,,,,,,,,205,kitchen,2,2024-03-15_13h21.42.244,image_similarity_rating,2023.2.3,None,2024-03-15 13h22.00.542044 +0100,
,117,130,354,354,stimuli/own/kitchen/117_kit.jpg,stimuli/own/kitchen/130_kit.jpg,,,,,,,,,0,5,5,353,137.931585959,,,,,,,,,,,138.223965375,138.396046209,138.396046209,138.396046209,138.396046209,138.396046209,138.396046209,138.396046209,138.396046209,138.396046209,145.183987,-7,7,1,3.0,5.106858208000006,3.0,6.674981500000001,137.929811584,137.931585959,138.396046209,138.223948334,,,,,,,,137.92632483399998,137.929762167,None,,,,,,,,,,,205,kitchen,2,2024-03-15_13h21.42.244,image_similarity_rating,2023.2.3,None,2024-03-15 13h22.00.542044 +0100,
,116,131,333,333,stimuli/own/kitchen/116_kit.jpg,stimuli/own/kitchen/131_kit.jpg,,,,,,,,,0,6,6,332,145.20593283399998,,,,,,,,,,,145.490173709,145.663953875,145.663953875,145.663953875,145.663953875,145.663953875,145.663953875,145.663953875,145.663953875,145.663953875,150.59160566699998,-7,7,1,1.0,4.076359707999984,1.0,4.792821833000005,145.187686084,145.20593283399998,,145.49014383399998,,,,,,,,145.18421175,145.187638875,None,,,,,,,,,,,205,kitchen,2,2024-03-15_13h21.42.244,image_similarity_rating,2023.2.3,None,2024-03-15 13h22.00.542044 +0100,
,111,121,226,226,stimuli/own/kitchen/111_kit.jpg,stimuli/own/kitchen/121_kit.jpg,,,,,,,,,0,7,7,225,150.597233959,,,,,,,,,,,150.890438125,151.05515391699998,151.05515391699998,151.05515391699998,151.05515391699998,151.05515391699998,151.05515391699998,151.05515391699998,151.05515391699998,151.05515391699998,159.041655042,-7,7,1,3.0,6.7669018329999915,6.0,7.814729707999987,150.595308459,150.597233959,151.05515391699998,150.890421334,,,,,,,,150.591830375,150.595257667,None,,,,,,,,,,,205,kitchen,2,2024-03-15_13h21.42.244,image_similarity_rating,2023.2.3,None,2024-03-15 13h22.00.542044 +0100,
,119,125,391,391,stimuli/own/kitchen/119_kit.jpg,stimuli/own/kitchen/125_kit.jpg,,,,,,,,,0,8,8,390,159.047253959,,,,,,,,,,,159.34058737499998,159.508374167,159.508374167,159.508374167,159.508374167,159.508374167,159.508374167,159.508374167,159.508374167,159.508374167,166.450466334,-7,7,1,2.0,4.210897417000012,6.0,5.918982,159.045347459,159.047253959,159.508374167,159.340570459,,,,,,,,159.041879667,159.0453,None,,,,,,,,,,,205,kitchen,2,2024-03-15_13h21.42.244,image_similarity_rating,2023.2.3,None,2024-03-15 13h22.00.542044 +0100,
,125,134,497,497,stimuli/own/kitchen/125_kit.jpg,stimuli/own/kitchen/134_kit.jpg,,,,,,,,,0,9,9,496,166.472539542,,,,,,,,,,,166.756575584,166.925166625,166.925166625,166.925166625,166.925166625,166.925166625,166.925166625,166.925166625,166.925166625,166.925166625,177.266760667,-7,7,1,2.0,9.476979166000035,5.0,6.536606040999999,166.454168042,166.472539542,,166.756555709,,,,,,,,166.450690834,166.4541205,None,,,,,,,,,,,205,kitchen,2,2024-03-15_13h21.42.244,image_similarity_rating,2023.2.3,None,2024-03-15 13h22.00.542044 +0100,
,104,109,102,102,stimuli/own/kitchen/104_kit.jpg,stimuli/own/kitchen/109_kit.jpg,,,,,,,,,0,10,10,101,177.272481709,,,,,,,,,,,177.55696500000002,177.72217600000002,177.72217600000002,177.72217600000002,177.72217600000002,177.72217600000002,177.72217600000002,177.72217600000002,177.72217600000002,177.72217600000002,187.62874912499998,-7,7,1,4.0,7.84145029199999,2.0,9.59596070799995,177.27045595899997,177.272481709,177.72217600000002,177.556950709,,,,,,,,177.26698487500002,177.27040891699997,None,,,,,,,,,,,205,kitchen,2,2024-03-15_13h21.42.244,image_similarity_rating,2023.2.3,None,2024-03-15 13h22.00.542044 +0100,
,106,127,177,177,stimuli/own/kitchen/106_kit.jpg,stimuli/own/kitchen/127_kit.jpg,,,,,,,,,0,11,11,176,187.639236792,,,,,,,,,,,187.92382104200001,188.09575079200002,188.09575079200002,188.09575079200002,188.09575079200002,188.09575079200002,188.09575079200002,188.09575079200002,188.09575079200002,188.09575079200002,200.3914445,7,-7,1,1.0,12.247378875000038,2.0,9.513597209000011,187.63246591700002,187.639236792,188.09575079200002,187.92380433399998,,,,,,,,187.62897341699997,187.632418667,None,,,,,,,,,,,205,kitchen,2,2024-03-15_13h21.42.244,image_similarity_rating,2023.2.3,None,2024-03-15 13h22.00.542044 +0100,
,123,124,460,460,stimuli/own/kitchen/123_kit.jpg,stimuli/own/kitchen/124_kit.jpg,,,,,,,,,0,12,12,459,200.397060375,,,,,,,,,,,200.69035141700002,200.85762204199997,200.85762204199997,200.85762204199997,200.85762204199997,200.85762204199997,200.85762204199997,200.85762204199997,200.85762204199997,200.85762204199997,209.64135608399997,-7,7,1,4.0,7.868892167000013,4.0,6.00028387499998,200.395142167,200.397060375,200.85762204199997,200.69033575,,,,,,,,200.391677375,200.395094709,None,,,,,,,,,,,205,kitchen,2,2024-03-15_13h21.42.244,image_similarity_rating,2023.2.3,None,2024-03-15 13h22.00.542044 +0100,
,130,135,544,544,stimuli/own/kitchen/130_kit.jpg,stimuli/own/kitchen/135_kit.jpg,,,,,,,,,0,13,13,543,209.64713433400001,,,,,,,,,,,209.94028795900002,210.107695709,210.107695709,210.107695709,210.107695709,210.107695709,210.107695709,210.107695709,210.107695709,210.107695709,217.82138875,7,-7,1,6.0,6.079194916999995,2.0,7.538242292000007,209.64504891699997,209.64713433400001,210.107695709,209.94026133399998,,,,,,,,209.64157958399997,209.64500145899999,None,,,,,,,,,,,205,kitchen,2,2024-03-15_13h21.42.244,image_similarity_rating,2023.2.3,None,2024-03-15 13h22.00.542044 +0100,
,101,141,34,34,stimuli/own/kitchen/101_kit.jpg,stimuli/own/kitchen/141_kit.jpg,,,,,,,,,0,14,14,33,217.826937334,,,,,,,,,,,218.11097841699998,218.278171167,218.278171167,218.278171167,218.278171167,218.278171167,218.278171167,218.278171167,218.278171167,218.278171167,226.12850112499999,-7,7,1,4.0,5.044063582999968,4.0,7.6281620830000065,217.82511774999998,217.826937334,218.278171167,218.110964709,,,,,,,,217.82161216699998,217.82507008399998,None,,,,,,,,,,,205,kitchen,2,2024-03-15_13h21.42.244,image_similarity_rating,2023.2.3,None,2024-03-15 13h22.00.542044 +0100,
,106,138,186,186,stimuli/own/kitchen/106_kit.jpg,stimuli/own/kitchen/138_kit.jpg,,,,,,,,,0,15,15,185,226.13906141700002,,,,,,,,,,,226.42370974999997,226.58867037500002,226.58867037500002,226.58867037500002,226.58867037500002,226.58867037500002,226.58867037500002,226.58867037500002,226.58867037500002,226.58867037500002,236.52455783399998,7,-7,1,1.0,7.653811167000015,3.0,9.725684834000049,226.13219308400002,226.13906141700002,226.58867037500002,226.42369516699998,,,,,,,,226.128724834,226.132143792,None,,,,,,,,,,,205,kitchen,2,2024-03-15_13h21.42.244,image_similarity_rating,2023.2.3,None,2024-03-15 13h22.00.542044 +0100,
,113,119,275,275,stimuli/own/kitchen/113_kit.jpg,stimuli/own/kitchen/119_kit.jpg,,,,,,,,,0,16,16,274,236.530227042,,,,,,,,,,,236.82353399999997,236.991389167,236.991389167,236.991389167,236.991389167,236.991389167,236.991389167,236.991389167,236.991389167,236.991389167,245.35831425,7,-7,1,1.0,6.241670583999962,1.0,7.852980042000013,236.52827462499997,236.530227042,236.991389167,236.823516625,,,,,,,,236.524782084,236.528225,None,,,,,,,,,,,205,kitchen,2,2024-03-15_13h21.42.244,image_similarity_rating,2023.2.3,None,2024-03-15 13h22.00.542044 +0100,
,105,139,158,158,stimuli/own/kitchen/105_kit.jpg,stimuli/own/kitchen/139_kit.jpg,,,,,,,,,0,17,17,157,245.363975292,,,,,,,,,,,245.65664274999997,245.82196304200002,245.82196304200002,245.82196304200002,245.82196304200002,245.82196304200002,245.82196304200002,245.82196304200002,245.82196304200002,245.82196304200002,251.02871174999999,7,-7,1,3.0,3.1496816669999816,2.0,4.920778082999959,245.3620405,245.363975292,245.82196304200002,245.656629042,,,,,,,,245.35853975,245.361993292,None,,,,,,,,,,,205,kitchen,2,2024-03-15_13h21.42.244,image_similarity_rating,2023.2.3,None,2024-03-15 13h22.00.542044 +0100,
,106,112,163,163,stimuli/own/kitchen/106_kit.jpg,stimuli/own/kitchen/112_kit.jpg,,,,,,,,,0,18,18,162,251.038785,,,,,,,,,,,251.323239292,251.48869937499998,251.48869937499998,251.48869937499998,251.48869937499998,251.48869937499998,251.48869937499998,251.48869937499998,251.48869937499998,251.48869937499998,257.50859554199997,-7,7,1,3.0,3.41328041700001,4.0,5.882981917000052,251.032399625,251.038785,251.48869937499998,251.32322524999998,,,,,,,,251.02893508399998,251.03235220899998,None,,,,,,,,,,,205,kitchen,2,2024-03-15_13h21.42.244,image_similarity_rating,2023.2.3,None,2024-03-15 13h22.00.542044 +0100,
,119,132,397,397,stimuli/own/kitchen/119_kit.jpg,stimuli/own/kitchen/132_kit.jpg,,,,,,,,,0,19,19,396,257.514453375,,,,,,,,,,,257.806762542,257.972089792,257.972089792,257.972089792,257.972089792,257.972089792,257.972089792,257.972089792,257.972089792,257.972089792,265.833702,-7,7,1,2.0,6.6133628329999965,1.0,7.649460834000024,257.51252391699995,257.514453375,257.972089792,257.806746792,,,,,,,,257.50882475000003,257.512473292,None,,,,,,,,,,,205,kitchen,2,2024-03-15_13h21.42.244,image_similarity_rating,2023.2.3,None,2024-03-15 13h22.00.542044 +0100,
,117,125,350,350,stimuli/own/kitchen/117_kit.jpg,stimuli/own/kitchen/125_kit.jpg,,,,,,,,,0,20,20,349,265.84024354199994,,,,,,,,,,,266.1233075,266.29499075,266.29499075,266.29499075,266.29499075,266.29499075,266.29499075,266.29499075,266.29499075,266.29499075,274.33265970900004,7,-7,1,3.0,7.951580250000006,7.0,6.185344332999989,265.83748520899996,265.84024354199994,266.29499075,266.12327883399996,,,,,,,,265.833927709,265.837435292,None,,,,,,,,,,,205,kitchen,2,2024-03-15_13h21.42.244,image_similarity_rating,2023.2.3,None,2024-03-15 13h22.00.542044 +0100,
,109,137,213,213,stimuli/own/kitchen/109_kit.jpg,stimuli/own/kitchen/137_kit.jpg,,,,,,,,,0,21,21,212,274.338632834,,,,,,,,,,,274.62338224999996,274.79515066700003,274.79515066700003,274.79515066700003,274.79515066700003,274.79515066700003,274.79515066700003,274.79515066700003,274.79515066700003,274.79515066700003,282.52809983400005,-7,7,1,4.0,7.360351166000044,3.0,3.407718541999998,274.336692417,274.338632834,274.79515066700003,274.62336470900004,,,,,,,,274.332883167,274.33664250000004,None,,,,,,,,,,,205,kitchen,2,2024-03-15_13h21.42.244,image_similarity_rating,2023.2.3,None,2024-03-15 13h22.00.542044 +0100,
,123,125,461,461,stimuli/own/kitchen/123_kit.jpg,stimuli/own/kitchen/125_kit.jpg,,,,,,,,,0,22,22,460,282.53855654200004,,,,,,,,,,,282.823340334,282.99503337500005,282.99503337500005,282.99503337500005,282.99503337500005,282.99503337500005,282.99503337500005,282.99503337500005,282.99503337500005,282.99503337500005,298.24936183399996,7,-7,1,3.0,15.199253082999974,6.0,12.343025750000038,282.531788917,282.53855654200004,282.99503337500005,282.823323084,,,,,,,,282.52832312500004,282.53174225,None,,,,,,,,,,,205,kitchen,2,2024-03-15_13h21.42.244,image_similarity_rating,2023.2.3,None,2024-03-15 13h22.00.542044 +0100,
,105,117,138,138,stimuli/own/kitchen/105_kit.jpg,stimuli/own/kitchen/117_kit.jpg,,,,,,,,,0,23,23,137,298.255158792,,,,,,,,,,,298.539938334,298.7081945,298.7081945,298.7081945,298.7081945,298.7081945,298.7081945,298.7081945,298.7081945,298.7081945,304.12067375000004,-7,7,1,3.0,5.401360083999975,6.0,3.1442107909999777,298.253365667,298.255158792,298.7081945,298.53991591700003,,,,,,,,298.249585667,298.25331404199994,None,,,,,,,,,,,205,kitchen,2,2024-03-15_13h21.42.244,image_similarity_rating,2023.2.3,None,2024-03-15 13h22.00.542044 +0100,
,105,131,151,151,stimuli/own/kitchen/105_kit.jpg,stimuli/own/kitchen/131_kit.jpg,,,,,,,,,0,24,24,150,304.12639879200003,,,,,,,,,,,304.410515584,304.57506312500004,304.57506312500004,304.57506312500004,304.57506312500004,304.57506312500004,304.57506312500004,304.57506312500004,304.57506312500004,304.57506312500004,311.19970691699996,7,-7,1,1.0,5.179654167000024,1.0,6.1248663750000105,304.12456570899997,304.12639879200003,304.57506312500004,304.41049970899996,,,,,,,,304.120919167,304.12451791700005,None,,,,,,,,,,,205,kitchen,2,2024-03-15_13h21.42.244,image_similarity_rating,2023.2.3,None,2024-03-15 13h22.00.542044 +0100,
,104,113,105,105,stimuli/own/kitchen/104_kit.jpg,stimuli/own/kitchen/113_kit.jpg,,,,,,,,,0,25,25,104,311.22207420899997,,,,,,,,,,,311.505987334,311.670432375,311.670432375,311.670432375,311.670432375,311.670432375,311.670432375,311.670432375,311.670432375,311.670432375,318.72044945899995,7,-7,1,5.0,3.8700427500000387,1.0,6.462545874999989,311.203514875,311.22207420899997,,311.50596895900003,,,,,,,,311.19992875,311.20346774999996,None,,,,,,,,,,,205,kitchen,2,2024-03-15_13h21.42.244,image_similarity_rating,2023.2.3,None,2024-03-15 13h22.00.542044 +0100,
,118,141,385,385,stimuli/own/kitchen/118_kit.jpg,stimuli/own/kitchen/141_kit.jpg,,,,,,,,,0,26,26,384,318.72635612499994,,,,,,,,,,,319.010754584,319.182045959,319.182045959,319.182045959,319.182045959,319.182045959,319.182045959,319.182045959,319.182045959,319.182045959,324.59087320899994,-7,7,1,3.0,3.575761458000045,1.0,5.135292084000014,318.7244055,318.72635612499994,319.182045959,319.01074025,,,,,,,,318.72067341699994,318.724354917,None,,,,,,,,,,,205,kitchen,2,2024-03-15_13h21.42.244,image_similarity_rating,2023.2.3,None,2024-03-15 13h22.00.542044 +0100,
,116,123,326,326,stimuli/own/kitchen/116_kit.jpg,stimuli/own/kitchen/123_kit.jpg,,,,,,,,,0,27,27,325,324.596569292,,,,,,,,,,,324.889661292,325.05319829200005,325.05319829200005,325.05319829200005,325.05319829200005,325.05319829200005,325.05319829200005,325.05319829200005,325.05319829200005,325.05319829200005,334.31161637499997,7,-7,1,3.0,7.637219958000003,1.0,5.932805833000032,324.59456124999997,324.596569292,325.05319829200005,324.88964829199995,,,,,,,,324.59110833399995,324.59451412500005,None,,,,,,,,,,,205,kitchen,2,2024-03-15_13h21.42.244,image_similarity_rating,2023.2.3,None,2024-03-15 13h22.00.542044 +0100,
,137,138,586,586,stimuli/own/kitchen/137_kit.jpg,stimuli/own/kitchen/138_kit.jpg,,,,,,,,,0,28,28,585,334.321856334,,,,,,,,,,,334.606595709,334.774303584,334.774303584,334.774303584,334.774303584,334.774303584,334.774303584,334.774303584,334.774303584,334.774303584,343.39490750000004,7,-7,1,3.0,6.545760832999974,4.0,8.296045833999983,334.31532804200003,334.321856334,334.774303584,334.60657887499997,,,,,,,,334.311842125,334.315280959,None,,,,,,,,,,,205,kitchen,2,2024-03-15_13h21.42.244,image_similarity_rating,2023.2.3,None,2024-03-15 13h22.00.542044 +0100,
,104,137,126,126,stimuli/own/kitchen/104_kit.jpg,stimuli/own/kitchen/137_kit.jpg,,,,,,,,,0,29,29,125,343.40501329200004,,,,,,,,,,,343.689688125,343.85797420899996,343.85797420899996,343.85797420899996,343.85797420899996,343.85797420899996,343.85797420899996,343.85797420899996,343.85797420899996,343.85797420899996,351.62415320900004,7,-7,1,3.0,5.97009187499998,1.0,7.555764416999978,343.398676334,343.40501329200004,343.85797420899996,343.689670792,,,,,,,,343.395129334,343.39862908400005,None,,,,,,,,,,,205,kitchen,2,2024-03-15_13h21.42.244,image_similarity_rating,2023.2.3,None,2024-03-15 13h22.00.542044 +0100,
,123,130,465,465,stimuli/own/kitchen/123_kit.jpg,stimuli/own/kitchen/130_kit.jpg,,,,,,,,,0,30,30,464,351.629740084,,,,,,,,,,,351.922840167,352.08987916700005,352.08987916700005,352.08987916700005,352.08987916700005,352.08987916700005,352.08987916700005,352.08987916700005,352.08987916700005,352.08987916700005,362.17056787499996,7,-7,1,6.0,8.31329312500003,4.0,9.957561124999984,351.627829584,351.629740084,352.08987916700005,351.922824459,,,,,,,,351.62437520900005,351.62778204200004,None,,,,,,,,,,,205,kitchen,2,2024-03-15_13h21.42.244,image_similarity_rating,2023.2.3,None,2024-03-15 13h22.00.542044 +0100,
,113,117,273,273,stimuli/own/kitchen/113_kit.jpg,stimuli/own/kitchen/117_kit.jpg,,,,,,,,,0,31,31,272,362.17624479200003,,,,,,,,,,,362.46011695899995,362.62504279200004,362.62504279200004,362.62504279200004,362.62504279200004,362.62504279200004,362.62504279200004,362.62504279200004,362.62504279200004,362.62504279200004,369.078383542,7,-7,1,3.0,4.882543584000018,1.0,6.328616833000012,362.17431650000003,362.17624479200003,362.62504279200004,362.46010045900005,,,,,,,,362.17082325,362.17426887499994,None,,,,,,,,,,,205,kitchen,2,2024-03-15_13h21.42.244,image_similarity_rating,2023.2.3,None,2024-03-15 13h22.00.542044 +0100,
,130,139,548,548,stimuli/own/kitchen/130_kit.jpg,stimuli/own/kitchen/139_kit.jpg,,,,,,,,,0,32,32,547,369.088260334,,,,,,,,,,,369.37289887500003,369.53907625,369.53907625,369.53907625,369.53907625,369.53907625,369.53907625,369.53907625,369.53907625,369.53907625,373.837322417,7,-7,1,3.0,4.158638124999982,6.0,2.2084639170000173,369.082068917,369.088260334,369.53907625,369.372883,,,,,,,,369.07860725,369.082021917,None,,,,,,,,,,,205,kitchen,2,2024-03-15_13h21.42.244,image_similarity_rating,2023.2.3,None,2024-03-15 13h22.00.542044 +0100,
,101,121,16,16,stimuli/own/kitchen/101_kit.jpg,stimuli/own/kitchen/121_kit.jpg,,,,,,,,,0,33,33,15,373.842947709,,,,,,,,,,,374.127200667,374.298624917,374.298624917,374.298624917,374.298624917,374.298624917,374.298624917,374.298624917,374.298624917,374.298624917,381.14150845899997,7,-7,1,4.0,4.734885417000044,2.0,6.6050343750000025,373.841026167,373.842947709,374.298624917,374.127185917,,,,,,,,373.83754733399996,373.84097908399997,None,,,,,,,,,,,205,kitchen,2,2024-03-15_13h21.42.244,image_similarity_rating,2023.2.3,None,2024-03-15 13h22.00.542044 +0100,
,119,137,401,401,stimuli/own/kitchen/119_kit.jpg,stimuli/own/kitchen/137_kit.jpg,,,,,,,,,0,34,34,400,381.14722141699997,,,,,,,,,,,381.43954462499994,381.60391500000003,381.60391500000003,381.60391500000003,381.60391500000003,381.60391500000003,381.60391500000003,381.60391500000003,381.60391500000003,381.60391500000003,389.59925754200003,7,-7,1,3.0,7.555476833,5.0,5.362339458000008,381.145285917,381.14722141699997,381.60391500000003,381.43952958399996,,,,,,,,381.14173337499994,381.145239167,None,,,,,,,,,,,205,kitchen,2,2024-03-15_13h21.42.244,image_similarity_rating,2023.2.3,None,2024-03-15 13h22.00.542044 +0100,
,102,138,64,64,stimuli/own/kitchen/102_kit.jpg,stimuli/own/kitchen/138_kit.jpg,,,,,,,,,0,35,35,63,389.62176520900005,,,,,,,,,,,389.90572366699996,390.07902749999994,390.07902749999994,390.07902749999994,390.07902749999994,390.07902749999994,390.07902749999994,390.07902749999994,390.07902749999994,390.07902749999994,396.44408695899995,7,-7,1,4.0,4.3096217499999625,5.0,6.2797577499999875,389.603046542,389.62176520900005,,389.90570312499995,,,,,,,,389.59948387500003,389.602999542,None,,,,,,,,,,,205,kitchen,2,2024-03-15_13h21.42.244,image_similarity_rating,2023.2.3,None,2024-03-15 13h22.00.542044 +0100,
,112,138,267,267,stimuli/own/kitchen/112_kit.jpg,stimuli/own/kitchen/138_kit.jpg,,,,,,,,,0,36,36,266,396.45478012499996,,,,,,,,,,,396.73946683400004,396.90559774999997,396.90559774999997,396.90559774999997,396.90559774999997,396.90559774999997,396.90559774999997,396.90559774999997,396.90559774999997,396.90559774999997,400.878158375,-7,7,1,4.0,3.847267540999951,5.0,2.9046111670000414,396.44788133400004,396.45478012499996,396.90559774999997,396.739447167,,,,,,,,396.44431158400005,396.447833834,None,,,,,,,,,,,205,kitchen,2,2024-03-15_13h21.42.244,image_similarity_rating,2023.2.3,None,2024-03-15 13h22.00.542044 +0100,
,127,134,522,522,stimuli/own/kitchen/127_kit.jpg,stimuli/own/kitchen/134_kit.jpg,,,,,,,,,0,37,37,521,400.88809608400004,,,,,,,,,,,401.172725334,401.34433658399996,401.34433658399996,401.34433658399996,401.34433658399996,401.34433658399996,401.34433658399996,401.34433658399996,401.34433658399996,401.34433658399996,404.803585042,-7,7,1,4.0,1.7472014169999852,4.0,2.9090686670000423,400.8818325,400.88809608400004,401.34433658399996,401.172700792,,,,,,,,400.878379667,400.88178508399994,None,,,,,,,,,,,205,kitchen,2,2024-03-15_13h21.42.244,image_similarity_rating,2023.2.3,None,2024-03-15 13h22.00.542044 +0100,
,135,136,575,575,stimuli/own/kitchen/135_kit.jpg,stimuli/own/kitchen/136_kit.jpg,,,,,,,,,0,38,38,574,404.80934249999996,,,,,,,,,,,405.093912292,405.264968125,405.264968125,405.264968125,405.264968125,405.264968125,405.264968125,405.264968125,405.264968125,405.264968125,409.357506542,-7,7,1,3.0,3.956179334000012,6.0,3.045155541999975,404.80740679199994,404.80934249999996,405.264968125,405.093897084,,,,,,,,404.80383604199994,404.807359625,None,,,,,,,,,,,205,kitchen,2,2024-03-15_13h21.42.244,image_similarity_rating,2023.2.3,None,2024-03-15 13h22.00.542044 +0100,
,101,106,5,5,stimuli/own/kitchen/101_kit.jpg,stimuli/own/kitchen/106_kit.jpg,,,,,,,,,0,39,39,4,409.363091209,,,,,,,,,,,409.656219084,409.820761542,409.820761542,409.820761542,409.820761542,409.820761542,409.820761542,409.820761542,409.820761542,409.820761542,416.394607875,7,-7,1,4.0,3.6779853749999916,7.0,6.448911624999994,409.361280125,409.363091209,409.820761542,409.65619920899996,,,,,,,,409.357727875,409.361233084,None,,,,,,,,,,,205,kitchen,2,2024-03-15_13h21.42.244,image_similarity_rating,2023.2.3,None,2024-03-15 13h22.00.542044 +0100,
,113,136,290,290,stimuli/own/kitchen/113_kit.jpg,stimuli/own/kitchen/136_kit.jpg,,,,,,,,,0,40,40,289,416.40496466699994,,,,,,,,,,,416.68931358400005,416.860464417,416.860464417,416.860464417,416.860464417,416.860464417,416.860464417,416.860464417,416.860464417,416.860464417,420.053649875,-7,7,1,3.0,3.180858833000002,1.0,1.9335757919999992,416.39829791700004,416.40496466699994,416.860464417,416.68929712499994,,,,,,,,416.39483225000004,416.39824875,None,,,,,,,,,,,205,kitchen,2,2024-03-15_13h21.42.244,image_similarity_rating,2023.2.3,None,2024-03-15 13h22.00.542044 +0100,
,124,141,490,490,stimuli/own/kitchen/124_kit.jpg,stimuli/own/kitchen/141_kit.jpg,,,,,,,,,0,41,41,489,420.05912812500003,,,,,,,,,,,420.34281058399995,420.50589779200004,420.50589779200004,420.50589779200004,420.50589779200004,420.50589779200004,420.50589779200004,420.50589779200004,420.50589779200004,420.50589779200004,426.215551084,-7,7,1,3.0,5.682159709000018,2.0,2.91513495800001,420.05736475000003,420.05912812500003,420.50589779200004,420.34279720899997,,,,,,,,420.05389425,420.057317625,None,,,,,,,,,,,205,kitchen,2,2024-03-15_13h21.42.244,image_similarity_rating,2023.2.3,None,2024-03-15 13h22.00.542044 +0100,
,105,114,136,136,stimuli/own/kitchen/105_kit.jpg,stimuli/own/kitchen/114_kit.jpg,,,,,,,,,0,42,42,135,426.221346542,,,,,,,,,,,426.505995375,426.67344179199995,426.67344179199995,426.67344179199995,426.67344179199995,426.67344179199995,426.67344179199995,426.67344179199995,426.67344179199995,426.67344179199995,431.77846866699997,-7,7,1,5.0,3.34624366700001,6.0,4.879960124999968,426.219354084,426.221346542,426.67344179199995,426.505979667,,,,,,,,426.215772584,426.219306792,None,,,,,,,,,,,205,kitchen,2,2024-03-15_13h21.42.244,image_similarity_rating,2023.2.3,None,2024-03-15 13h22.00.542044 +0100,
,119,139,403,403,stimuli/own/kitchen/119_kit.jpg,stimuli/own/kitchen/139_kit.jpg,,,,,,,,,0,43,43,402,431.78815424999993,,,,,,,,,,,432.072682042,432.244086875,432.244086875,432.244086875,432.244086875,432.244086875,432.244086875,432.244086875,432.244086875,432.244086875,438.5412917919999,7,-7,1,4.0,4.301478999999972,3.0,6.2333476250000786,431.7821373339999,431.78815424999993,432.244086875,432.07266583399996,,,,,,,,431.77869075,431.78209045899996,None,,,,,,,,,,,205,kitchen,2,2024-03-15_13h21.42.244,image_similarity_rating,2023.2.3,None,2024-03-15 13h22.00.542044 +0100,
,120,129,413,413,stimuli/own/kitchen/120_kit.jpg,stimuli/own/kitchen/129_kit.jpg,,,,,,,,,0,44,44,412,438.54703108399997,,,,,,,,,,,438.839348042,439.005452334,439.005452334,439.005452334,439.005452334,439.005452334,439.005452334,439.005452334,439.005452334,439.005452334,446.6701980419999,7,-7,1,3.0,6.792906374999916,1.0,7.514237291000086,438.545101209,438.54703108399997,439.005452334,438.83933220899996,,,,,,,,438.541516709,438.5450516249999,None,,,,,,,,,,,205,kitchen,2,2024-03-15_13h21.42.244,image_similarity_rating,2023.2.3,None,2024-03-15 13h22.00.542044 +0100,
,126,130,507,507,stimuli/own/kitchen/126_kit.jpg,stimuli/own/kitchen/130_kit.jpg,,,,,,,,,0,45,45,506,446.675868292,,,,,,,,,,,446.95997358399995,447.12560633399994,447.12560633399994,447.12560633399994,447.12560633399994,447.12560633399994,447.12560633399994,447.12560633399994,447.12560633399994,447.12560633399994,454.557011334,7,-7,1,5.0,4.862688541000011,3.0,7.357506708999949,446.673934292,446.675868292,447.12560633399994,446.95996120899997,,,,,,,,446.67045945899997,446.67388679199996,None,,,,,,,,,,,205,kitchen,2,2024-03-15_13h21.42.244,image_similarity_rating,2023.2.3,None,2024-03-15 13h22.00.542044 +0100,
,124,135,484,484,stimuli/own/kitchen/124_kit.jpg,stimuli/own/kitchen/135_kit.jpg,,,,,,,,,0,46,46,483,454.562645042,,,,,,,,,,,454.855790084,455.021821125,455.021821125,455.021821125,455.021821125,455.021821125,455.021821125,455.021821125,455.021821125,455.021821125,462.065456875,7,-7,1,3.0,6.8307283339999,7.0,2.341569416000084,454.560672167,454.562645042,455.021821125,454.85576620899997,,,,,,,,454.5572354589999,454.56062499999996,None,,,,,,,,,,,205,kitchen,2,2024-03-15_13h21.42.244,image_similarity_rating,2023.2.3,None,2024-03-15 13h22.00.542044 +0100,
,129,135,534,534,stimuli/own/kitchen/129_kit.jpg,stimuli/own/kitchen/135_kit.jpg,,,,,,,,,0,47,47,533,462.071088584,,,,,,,,,,,462.35603949999995,462.524397625,462.524397625,462.524397625,462.524397625,462.524397625,462.524397625,462.524397625,462.524397625,462.524397625,468.327749209,-7,7,1,2.0,4.414788041999941,4.0,5.727654083000061,462.06921762499996,462.071088584,462.524397625,462.35602308399996,,,,,,,,462.065679875,462.06917087499994,None,,,,,,,,,,,205,kitchen,2,2024-03-15_13h21.42.244,image_similarity_rating,2023.2.3,None,2024-03-15 13h22.00.542044 +0100,
,118,125,371,371,stimuli/own/kitchen/118_kit.jpg,stimuli/own/kitchen/125_kit.jpg,,,,,,,,,0,48,48,370,468.337987709,,,,,,,,,,,468.622525667,468.78973666699994,468.78973666699994,468.78973666699994,468.78973666699994,468.78973666699994,468.78973666699994,468.78973666699994,468.78973666699994,468.78973666699994,474.02727425,7,-7,1,4.0,5.238129583000045,6.0,2.653636540999969,468.33141287499996,468.337987709,468.78973666699994,468.62250808399995,,,,,,,,468.3279712919999,468.33136616699994,None,,,,,,,,,,,205,kitchen,2,2024-03-15_13h21.42.244,image_similarity_rating,2023.2.3,None,2024-03-15 13h22.00.542044 +0100,
,121,122,425,425,stimuli/own/kitchen/121_kit.jpg,stimuli/own/kitchen/122_kit.jpg,,,,,,,,,0,49,49,424,474.037881792,,,,,,,,,,,474.32244416699996,474.489585875,474.489585875,474.489585875,474.489585875,474.489585875,474.489585875,474.489585875,474.489585875,474.489585875,483.19848220899996,-7,7,1,3.0,8.543546291999974,1.0,7.036689582999998,474.03102216699995,474.037881792,474.489585875,474.322427459,,,,,,,,474.0274975,474.0309753749999,None,,,,,,,,,,,205,kitchen,2,2024-03-15_13h21.42.244,image_similarity_rating,2023.2.3,None,2024-03-15 13h22.00.542044 +0100,
,135,138,577,577,stimuli/own/kitchen/135_kit.jpg,stimuli/own/kitchen/138_kit.jpg,,,,,,,,,0,50,50,576,483.2042974589999,,,,,,,,,,,483.48921299999995,483.656584209,483.656584209,483.656584209,483.656584209,483.656584209,483.656584209,483.656584209,483.656584209,483.656584209,490.482569709,7,-7,1,2.0,6.835156624999968,1.0,4.500414915999954,483.2021525,483.2042974589999,483.656584209,483.4891910839999,,,,,,,,483.19870616699995,483.20210499999996,None,,,,,,,,,,,205,kitchen,2,2024-03-15_13h21.42.244,image_similarity_rating,2023.2.3,None,2024-03-15 13h22.00.542044 +0100,
,124,127,478,478,stimuli/own/kitchen/124_kit.jpg,stimuli/own/kitchen/127_kit.jpg,,,,,,,,,0,51,51,477,490.50442824999993,,,,,,,,,,,490.7886085,490.96029562499996,490.96029562499996,490.96029562499996,490.96029562499996,490.96029562499996,490.96029562499996,490.96029562499996,490.96029562499996,490.96029562499996,500.42344008399994,-7,7,1,3.0,3.5581438329999173,2.0,9.375520999999935,490.486335459,490.50442824999993,,490.78858854199996,,,,,,,,490.4827944169999,490.48628770899995,None,,,,,,,,,,,205,kitchen,2,2024-03-15_13h21.42.244,image_similarity_rating,2023.2.3,None,2024-03-15 13h22.00.542044 +0100,
,111,124,229,229,stimuli/own/kitchen/111_kit.jpg,stimuli/own/kitchen/124_kit.jpg,,,,,,,,,0,52,52,228,500.4289907919999,,,,,,,,,,,500.72234983399994,500.89179283399994,500.89179283399994,500.89179283399994,500.89179283399994,500.89179283399994,500.89179283399994,500.89179283399994,500.89179283399994,500.89179283399994,505.198862375,7,-7,1,5.0,3.2925959169999715,2.0,4.134100124999918,500.42709020899997,500.4289907919999,500.89179283399994,500.722333584,,,,,,,,500.423661542,500.427042875,None,,,,,,,,,,,205,kitchen,2,2024-03-15_13h21.42.244,image_similarity_rating,2023.2.3,None,2024-03-15 13h22.00.542044 +0100,
,118,121,367,367,stimuli/own/kitchen/118_kit.jpg,stimuli/own/kitchen/121_kit.jpg,,,,,,,,,0,53,53,366,505.204345417,,,,,,,,,,,505.488993834,505.6583475,505.6583475,505.6583475,505.6583475,505.6583475,505.6583475,505.6583475,505.6583475,505.6583475,510.373316125,7,-7,1,5.0,2.948091874999932,2.0,4.579044124999996,505.202520834,505.204345417,505.6583475,505.48897658399994,,,,,,,,505.199085792,505.2024735,None,,,,,,,,,,,205,kitchen,2,2024-03-15_13h21.42.244,image_similarity_rating,2023.2.3,None,2024-03-15 13h22.00.542044 +0100,
,116,121,324,324,stimuli/own/kitchen/116_kit.jpg,stimuli/own/kitchen/121_kit.jpg,,,,,,,,,0,54,54,323,510.3789889589999,,,,,,,,,,,510.672197375,510.83797445899995,510.83797445899995,510.83797445899995,510.83797445899995,510.83797445899995,510.83797445899995,510.83797445899995,510.83797445899995,510.83797445899995,514.894435459,-7,7,1,6.0,2.4773420829999395,2.0,4.031575583999938,510.37707449999994,510.3789889589999,510.83797445899995,510.67218212499995,,,,,,,,510.37353674999997,510.37702749999994,None,,,,,,,,,,,205,kitchen,2,2024-03-15_13h21.42.244,image_similarity_rating,2023.2.3,None,2024-03-15 13h22.00.542044 +0100,
,112,132,262,611,stimuli/own/kitchen/112_kit.jpg,stimuli/own/kitchen/132_kit.jpg,,,,,,,,,0,55,55,610,514.9044390419999,,,,,,,,,,,515.1889032089999,515.353602542,515.353602542,515.353602542,515.353602542,515.353602542,515.353602542,515.353602542,515.353602542,515.353602542,520.432011959,-7,7,1,5.0,3.928141584000059,2.0,5.004400042000043,514.898095167,514.9044390419999,515.353602542,515.1888884589999,,,,,,,,514.8946589999999,514.898048209,None,,,,,,,,,,,205,kitchen,2,2024-03-15_13h21.42.244,image_similarity_rating,2023.2.3,None,2024-03-15 13h22.00.542044 +0100,
,112,126,257,257,stimuli/own/kitchen/112_kit.jpg,stimuli/own/kitchen/126_kit.jpg,,,,,,,,,0,56,56,256,520.437537667,,,,,,,,,,,520.722191167,520.888670167,520.888670167,520.888670167,520.888670167,520.888670167,520.888670167,520.888670167,520.888670167,520.888670167,526.761438334,-7,7,1,5.0,4.052325416000031,1.0,5.747567874999959,520.435681542,520.437537667,520.888670167,520.7221752089999,,,,,,,,520.432235709,520.4356312499999,None,,,,,,,,,,,205,kitchen,2,2024-03-15_13h21.42.244,image_similarity_rating,2023.2.3,None,2024-03-15 13h22.00.542044 +0100,
,101,135,28,28,stimuli/own/kitchen/101_kit.jpg,stimuli/own/kitchen/135_kit.jpg,,,,,,,,,0,57,57,27,526.771161334,,,,,,,,,,,527.055450459,527.220024625,527.220024625,527.220024625,527.220024625,527.220024625,527.220024625,527.220024625,527.220024625,527.220024625,532.5441653749999,7,-7,1,5.0,4.080489292000038,2.0,5.262615291999964,526.765100834,526.771161334,527.220024625,527.0554368749999,,,,,,,,526.761661667,526.76505075,None,,,,,,,,,,,205,kitchen,2,2024-03-15_13h21.42.244,image_similarity_rating,2023.2.3,None,2024-03-15 13h22.00.542044 +0100,
,106,123,173,173,stimuli/own/kitchen/106_kit.jpg,stimuli/own/kitchen/123_kit.jpg,,,,,,,,,0,58,58,172,532.5544310419999,,,,,,,,,,,532.83883825,533.003554,533.003554,533.003554,533.003554,533.003554,533.003554,533.003554,533.003554,533.003554,537.819629,7,-7,1,2.0,3.2808051249999153,5.0,4.640591083999993,532.547832792,532.5544310419999,533.003554,532.838822042,,,,,,,,532.5443894169999,532.5477854999999,None,,,,,,,,,,,205,kitchen,2,2024-03-15_13h21.42.244,image_similarity_rating,2023.2.3,None,2024-03-15 13h22.00.542044 +0100,
,112,129,259,259,stimuli/own/kitchen/112_kit.jpg,stimuli/own/kitchen/129_kit.jpg,,,,,,,,,0,59,59,258,537.8250442919999,,,,,,,,,,,538.109952875,538.27999125,538.27999125,538.27999125,538.27999125,538.27999125,538.27999125,538.27999125,538.27999125,538.27999125,547.661090584,7,-7,1,2.0,9.405330499999991,1.0,7.697275999999988,537.8233104589999,537.8250442919999,538.27999125,538.109937084,,,,,,,,537.819853,537.823263209,None,,,,,,,,,,,205,kitchen,2,2024-03-15_13h21.42.244,image_similarity_rating,2023.2.3,None,2024-03-15 13h22.00.542044 +0100,
,109,131,208,208,stimuli/own/kitchen/109_kit.jpg,stimuli/own/kitchen/131_kit.jpg,,,,,,,,,0,60,60,207,547.671059,,,,,,,,,,,547.9556169169999,548.1230299169999,548.1230299169999,548.1230299169999,548.1230299169999,548.1230299169999,548.1230299169999,548.1230299169999,548.1230299169999,548.1230299169999,552.4776308749999,7,-7,1,1.0,3.3735889170000064,1.0,4.118505042000038,547.6647879589999,547.671059,548.1230299169999,547.955600292,,,,,,,,547.6613142919999,547.664739209,None,,,,,,,,,,,205,kitchen,2,2024-03-15_13h21.42.244,image_similarity_rating,2023.2.3,None,2024-03-15 13h22.00.542044 +0100,
,109,130,207,207,stimuli/own/kitchen/109_kit.jpg,stimuli/own/kitchen/130_kit.jpg,,,,,,,,,0,61,61,206,552.487583292,,,,,,,,,,,552.772007167,552.936542959,552.936542959,552.936542959,552.936542959,552.936542959,552.936542959,552.936542959,552.936542959,552.936542959,560.069922625,7,-7,1,2.0,7.078757791000044,1.0,3.526064333000022,552.481435792,552.487583292,552.936542959,552.771993,,,,,,,,552.477850334,552.481388917,None,,,,,,,,,,,205,kitchen,2,2024-03-15_13h21.42.244,image_similarity_rating,2023.2.3,None,2024-03-15 13h22.00.542044 +0100,
,114,116,296,296,stimuli/own/kitchen/114_kit.jpg,stimuli/own/kitchen/116_kit.jpg,,,,,,,,,0,62,62,295,560.0753929589999,,,,,,,,,,,560.3591195419999,560.522408834,560.522408834,560.522408834,560.522408834,560.522408834,560.522408834,560.522408834,560.522408834,560.522408834,566.436210084,-7,7,1,6.0,4.358231708000062,7.0,5.788151417000108,560.073639167,560.0753929589999,560.522408834,560.3591064999999,,,,,,,,560.0701440419999,560.0735918749999,None,,,,,,,,,,,205,kitchen,2,2024-03-15_13h21.42.244,image_similarity_rating,2023.2.3,None,2024-03-15 13h22.00.542044 +0100,
,120,141,424,424,stimuli/own/kitchen/120_kit.jpg,stimuli/own/kitchen/141_kit.jpg,,,,,,,,,0,63,63,423,566.4422751669999,,,,,,,,,,,572.672060459,572.8457734169999,572.8457734169999,572.8457734169999,572.8457734169999,572.8457734169999,572.8457734169999,572.8457734169999,572.8457734169999,572.8457734169999,584.673077792,7,-7,2,6.0,10.057607291999943,3.0,11.70532137500004,572.376173375,572.3797459589999,572.8457734169999,572.6720353339999,,,,,,,,566.436439667,572.3743882499999,space,566.4422751669999,5.931807333000052,None,,,,,,,,205,kitchen,2,2024-03-15_13h21.42.244,image_similarity_rating,2023.2.3,None,2024-03-15 13h22.00.542044 +0100,
,121,129,431,431,stimuli/own/kitchen/121_kit.jpg,stimuli/own/kitchen/129_kit.jpg,,,,,,,,,0,64,64,430,584.679213875,,,,,,,,,,,584.972101834,585.1399877089999,585.1399877089999,585.1399877089999,585.1399877089999,585.1399877089999,585.1399877089999,585.1399877089999,585.1399877089999,585.1399877089999,589.940516959,-7,7,2,3.0,2.823342417000049,2.0,4.715341458000012,584.67729,584.679213875,585.1399877089999,584.9720852089999,,,,,,,,584.6732987089999,584.677242125,None,,,,,,,,,,,205,kitchen,2,2024-03-15_13h21.42.244,image_similarity_rating,2023.2.3,None,2024-03-15 13h22.00.542044 +0100,
,103,116,76,76,stimuli/own/kitchen/103_kit.jpg,stimuli/own/kitchen/116_kit.jpg,,,,,,,,,0,65,65,75,589.945988875,,,,,,,,,,,590.238565,590.403454042,590.403454042,590.403454042,590.403454042,590.403454042,590.403454042,590.403454042,590.403454042,590.403454042,595.0107074169999,-7,7,2,6.0,2.763761708000061,3.0,4.159523624999906,589.944175417,589.945988875,590.403454042,590.2385463749999,,,,,,,,589.9407394169999,589.94412925,None,,,,,,,,,,,205,kitchen,2,2024-03-15_13h21.42.244,image_similarity_rating,2023.2.3,None,2024-03-15 13h22.00.542044 +0100,
,124,136,485,485,stimuli/own/kitchen/124_kit.jpg,stimuli/own/kitchen/136_kit.jpg,,,,,,,,,0,66,66,484,595.020808584,,,,,,,,,,,595.30537075,595.4728122089999,595.4728122089999,595.4728122089999,595.4728122089999,595.4728122089999,595.4728122089999,595.4728122089999,595.4728122089999,595.4728122089999,600.314851292,-7,7,2,6.0,3.901452082999981,3.0,4.793189084000005,595.0143741669999,595.020808584,595.4728122089999,595.305353709,,,,,,,,595.010929209,595.014327584,None,,,,,,,,,,,205,kitchen,2,2024-03-15_13h21.42.244,image_similarity_rating,2023.2.3,None,2024-03-15 13h22.00.542044 +0100,
,111,130,234,234,stimuli/own/kitchen/111_kit.jpg,stimuli/own/kitchen/130_kit.jpg,,,,,,,,,0,67,67,233,600.320415875,,,,,,,,,,,600.605391709,600.776935042,600.776935042,600.776935042,600.776935042,600.776935042,600.776935042,600.776935042,600.776935042,600.776935042,605.0195414169999,7,-7,2,7.0,2.2580849170000192,5.0,4.005756499999961,600.3185193339999,600.320415875,600.776935042,600.6053744999999,,,,,,,,600.315072709,600.318473167,None,,,,,,,,,,,205,kitchen,2,2024-03-15_13h21.42.244,image_similarity_rating,2023.2.3,None,2024-03-15 13h22.00.542044 +0100,
,105,109,132,132,stimuli/own/kitchen/105_kit.jpg,stimuli/own/kitchen/109_kit.jpg,,,,,,,,,0,68,68,131,605.025194834,,,,,,,,,,,605.309624334,605.478874959,605.478874959,605.478874959,605.478874959,605.478874959,605.478874959,605.478874959,605.478874959,605.478874959,613.7531101249999,7,-7,2,3.0,5.000477917000012,6.0,2.5597419160000072,605.023263917,605.025194834,605.478874959,605.309609542,,,,,,,,605.019787792,605.0232169589999,None,,,,,,,,,,,205,kitchen,2,2024-03-15_13h21.42.244,image_similarity_rating,2023.2.3,None,2024-03-15 13h22.00.542044 +0100,
,111,131,235,235,stimuli/own/kitchen/111_kit.jpg,stimuli/own/kitchen/131_kit.jpg,,,,,,,,,0,69,69,234,613.7589044169999,,,,,,,,,,,614.043327417,614.210266584,614.210266584,614.210266584,614.210266584,614.210266584,614.210266584,614.210266584,614.210266584,614.210266584,622.743911209,7,-7,2,1.0,8.520475083000065,5.0,5.116833250000013,613.756966584,613.7589044169999,614.210266584,614.043313875,,,,,,,,613.7533391249999,613.756919875,None,,,,,,,,,,,205,kitchen,2,2024-03-15_13h21.42.244,image_similarity_rating,2023.2.3,None,2024-03-15 13h22.00.542044 +0100,
,104,121,112,112,stimuli/own/kitchen/104_kit.jpg,stimuli/own/kitchen/121_kit.jpg,,,,,,,,,0,70,70,111,622.7539812499999,,,,,,,,,,,623.038470792,623.204183542,623.204183542,623.204183542,623.204183542,623.204183542,623.204183542,623.204183542,623.204183542,623.204183542,633.106622667,7,-7,2,3.0,6.7775768750000225,7.0,9.897240291000003,622.74757575,622.7539812499999,623.204183542,623.038455542,,,,,,,,622.7441316249999,622.74752925,None,,,,,,,,,,,205,kitchen,2,2024-03-15_13h21.42.244,image_similarity_rating,2023.2.3,None,2024-03-15 13h22.00.542044 +0100,
,105,141,160,160,stimuli/own/kitchen/105_kit.jpg,stimuli/own/kitchen/141_kit.jpg,,,,,,,,,0,71,71,159,633.112413792,,,,,,,,,,,633.404849167,633.5689619999999,633.5689619999999,633.5689619999999,633.5689619999999,633.5689619999999,633.5689619999999,633.5689619999999,633.5689619999999,633.5689619999999,638.6061230419999,7,-7,2,5.0,3.8014351670000224,2.0,4.975046749999933,633.110470667,633.112413792,633.5689619999999,633.404837417,,,,,,,,633.1068494169999,633.110423417,None,,,,,,,,,,,205,kitchen,2,2024-03-15_13h21.42.244,image_similarity_rating,2023.2.3,None,2024-03-15 13h22.00.542044 +0100,
,116,134,335,335,stimuli/own/kitchen/116_kit.jpg,stimuli/own/kitchen/134_kit.jpg,,,,,,,,,0,72,72,334,638.6117268339999,,,,,,,,,,,638.9053854169999,639.078249625,639.078249625,639.078249625,639.078249625,639.078249625,639.078249625,639.078249625,639.078249625,639.078249625,647.3695867089999,7,-7,2,3.0,6.665363040999978,1.0,8.141679082999985,638.609789792,638.6117268339999,639.078249625,638.9053629169999,,,,,,,,638.606344542,638.609742792,None,,,,,,,,,,,205,kitchen,2,2024-03-15_13h21.42.244,image_similarity_rating,2023.2.3,None,2024-03-15 13h22.00.542044 +0100,
,103,130,89,89,stimuli/own/kitchen/103_kit.jpg,stimuli/own/kitchen/130_kit.jpg,,,,,,,,,0,73,73,88,647.3750461249999,,,,,,,,,,,647.6586801249999,647.8221834999999,647.8221834999999,647.8221834999999,647.8221834999999,647.8221834999999,647.8221834999999,647.8221834999999,647.8221834999999,647.8221834999999,664.15616375,-7,7,2,5.0,9.11398666699995,2.0,15.37155020900002,647.3732901669999,647.3750461249999,647.8221834999999,647.6586683749999,,,,,,,,647.3698046669999,647.373243667,None,,,,,,,,,,,205,kitchen,2,2024-03-15_13h21.42.244,image_similarity_rating,2023.2.3,None,2024-03-15 13h22.00.542044 +0100,
,136,139,583,583,stimuli/own/kitchen/136_kit.jpg,stimuli/own/kitchen/139_kit.jpg,,,,,,,,,0,74,74,582,664.161762042,,,,,,,,,,,664.454997375,664.622785959,664.622785959,664.622785959,664.622785959,664.622785959,664.622785959,664.622785959,664.622785959,664.622785959,670.385581625,-7,7,2,5.0,3.0203158330000406,7.0,5.388999958999989,664.159835417,664.161762042,664.622785959,664.45498,,,,,,,,664.156388542,664.159788584,None,,,,,,,,,,,205,kitchen,2,2024-03-15_13h21.42.244,image_similarity_rating,2023.2.3,None,2024-03-15 13h22.00.542044 +0100,
,113,134,288,288,stimuli/own/kitchen/113_kit.jpg,stimuli/own/kitchen/134_kit.jpg,,,,,,,,,0,75,75,287,670.391268292,,,,,,,,,,,670.6755043339999,670.8412157089999,670.8412157089999,670.8412157089999,670.8412157089999,670.8412157089999,670.8412157089999,670.8412157089999,670.8412157089999,670.8412157089999,677.8694896669999,7,-7,2,4.0,5.44069587499996,2.0,6.5413039169999365,670.389311917,670.391268292,670.8412157089999,670.675487625,,,,,,,,670.3858037499999,670.3892650839999,None,,,,,,,,,,,205,kitchen,2,2024-03-15_13h21.42.244,image_similarity_rating,2023.2.3,None,2024-03-15 13h22.00.542044 +0100,
,111,127,232,232,stimuli/own/kitchen/111_kit.jpg,stimuli/own/kitchen/127_kit.jpg,,,,,,,,,0,76,76,231,677.875130875,,,,,,,,,,,678.159261875,678.330814125,678.330814125,678.330814125,678.330814125,678.330814125,678.330814125,678.330814125,678.330814125,678.330814125,685.069121875,7,-7,2,3.0,5.441059249999967,2.0,2.2923763750000035,677.873187792,677.875130875,678.330814125,678.159244125,,,,,,,,677.8697085,677.873140584,None,,,,,,,,,,,205,kitchen,2,2024-03-15_13h21.42.244,image_similarity_rating,2023.2.3,None,2024-03-15 13h22.00.542044 +0100,
,118,126,372,372,stimuli/own/kitchen/118_kit.jpg,stimuli/own/kitchen/126_kit.jpg,,,,,,,,,0,77,77,371,685.074620334,,,,,,,,,,,685.358989834,685.524918084,685.524918084,685.524918084,685.524918084,685.524918084,685.524918084,685.524918084,685.524918084,685.524918084,694.3060070419999,7,-7,2,3.0,8.679918458000088,1.0,3.523270249999996,685.0728567919999,685.074620334,685.524918084,685.3589778749999,,,,,,,,685.069370792,685.072810042,None,,,,,,,,,,,205,kitchen,2,2024-03-15_13h21.42.244,image_similarity_rating,2023.2.3,None,2024-03-15 13h22.00.542044 +0100,
,125,136,499,499,stimuli/own/kitchen/125_kit.jpg,stimuli/own/kitchen/136_kit.jpg,,,,,,,,,0,78,78,498,694.311539917,,,,,,,,,,,694.6048977089999,694.770911,694.770911,694.770911,694.770911,694.770911,694.770911,694.770911,694.770911,694.770911,701.056125709,-7,7,2,5.0,2.6881303330000037,1.0,6.148823249999964,694.309792625,694.311539917,694.770911,694.604879459,,,,,,,,694.3062283339999,694.3097460419999,None,,,,,,,,,,,205,kitchen,2,2024-03-15_13h21.42.244,image_similarity_rating,2023.2.3,None,2024-03-15 13h22.00.542044 +0100,
,127,140,528,528,stimuli/own/kitchen/127_kit.jpg,stimuli/own/kitchen/140_kit.jpg,,,,,,,,,0,79,79,527,701.0615527919999,,,,,,,,,,,701.354828875,701.520325334,701.520325334,701.520325334,701.520325334,701.520325334,701.520325334,701.520325334,701.520325334,701.520325334,708.026375792,7,-7,2,7.0,4.704417084000056,6.0,5.970394040999963,701.059808042,701.0615527919999,701.520325334,701.35481375,,,,,,,,701.0563485419999,701.059761584,None,,,,,,,,,,,205,kitchen,2,2024-03-15_13h21.42.244,image_similarity_rating,2023.2.3,None,2024-03-15 13h22.00.542044 +0100,
,116,125,328,328,stimuli/own/kitchen/116_kit.jpg,stimuli/own/kitchen/125_kit.jpg,,,,,,,,,0,80,80,327,708.03699875,,,,,,,,,,,708.321513375,708.490341,708.490341,708.490341,708.490341,708.490341,708.490341,708.490341,708.490341,708.490341,715.4429645839999,7,-7,2,4.0,4.6314615,5.0,6.852559166999981,708.030055834,708.03699875,708.490341,708.3214970419999,,,,,,,,708.0265980839999,708.0300096249999,None,,,,,,,,,,,205,kitchen,2,2024-03-15_13h21.42.244,image_similarity_rating,2023.2.3,None,2024-03-15 13h22.00.542044 +0100,
,120,131,415,415,stimuli/own/kitchen/120_kit.jpg,stimuli/own/kitchen/131_kit.jpg,,,,,,,,,0,81,81,414,715.45351575,,,,,,,,,,,715.7381571249999,715.903788167,715.903788167,715.903788167,715.903788167,715.903788167,715.903788167,715.903788167,715.903788167,715.903788167,722.7892288339999,7,-7,2,1.0,6.820702833000041,1.0,4.1913051660000065,715.4466414999999,715.45351575,715.903788167,715.7381426249999,,,,,,,,715.443187417,715.44659525,None,,,,,,,,,,,205,kitchen,2,2024-03-15_13h21.42.244,image_similarity_rating,2023.2.3,None,2024-03-15 13h22.00.542044 +0100,
,103,129,88,88,stimuli/own/kitchen/103_kit.jpg,stimuli/own/kitchen/129_kit.jpg,,,,,,,,,0,82,82,87,722.794858292,,,,,,,,,,,723.0881150839999,723.256003709,723.256003709,723.256003709,723.256003709,723.256003709,723.256003709,723.256003709,723.256003709,723.256003709,735.647712209,7,-7,2,3.0,11.891859624999938,1.0,9.802584290999903,722.792912209,722.794858292,723.256003709,723.0880935,,,,,,,,722.7894612089999,722.792865917,None,,,,,,,,,,,205,kitchen,2,2024-03-15_13h21.42.244,image_similarity_rating,2023.2.3,None,2024-03-15 13h22.00.542044 +0100,
,102,136,62,62,stimuli/own/kitchen/102_kit.jpg,stimuli/own/kitchen/136_kit.jpg,,,,,,,,,0,83,83,61,735.6533085,,,,,,,,,,,735.9380307499999,736.102800709,736.102800709,736.102800709,736.102800709,736.102800709,736.102800709,736.102800709,736.102800709,736.102800709,744.235387542,7,-7,2,4.0,8.078471374999936,1.0,5.956290500000023,735.651395,735.6533085,736.102800709,735.938012334,,,,,,,,735.647930959,735.6513485419999,None,,,,,,,,,,,205,kitchen,2,2024-03-15_13h21.42.244,image_similarity_rating,2023.2.3,None,2024-03-15 13h22.00.542044 +0100,
,104,140,129,129,stimuli/own/kitchen/104_kit.jpg,stimuli/own/kitchen/140_kit.jpg,,,,,,,,,0,84,84,128,744.240872459,,,,,,,,,,,744.5257571669999,744.6931039589999,744.6931039589999,744.6931039589999,744.6931039589999,744.6931039589999,744.6931039589999,744.6931039589999,744.6931039589999,744.6931039589999,751.222444375,7,-7,2,3.0,4.025184833000026,4.0,6.343249750000041,744.239122167,744.240872459,744.6931039589999,744.5257392919999,,,,,,,,744.235613209,744.239075084,None,,,,,,,,,,,205,kitchen,2,2024-03-15_13h21.42.244,image_similarity_rating,2023.2.3,None,2024-03-15 13h22.00.542044 +0100,
,104,130,120,120,stimuli/own/kitchen/104_kit.jpg,stimuli/own/kitchen/130_kit.jpg,,,,,,,,,0,85,85,119,751.228177084,,,,,,,,,,,751.5213216249999,751.687094042,751.687094042,751.687094042,751.687094042,751.687094042,751.687094042,751.687094042,751.687094042,751.687094042,769.5641604589999,-7,7,2,5.0,13.663238958000079,2.0,17.61455550000005,751.226235667,751.228177084,751.687094042,751.52130525,,,,,,,,751.222664667,751.2261895419999,None,,,,,,,,,,,205,kitchen,2,2024-03-15_13h21.42.244,image_similarity_rating,2023.2.3,None,2024-03-15 13h22.00.542044 +0100,
,118,138,382,382,stimuli/own/kitchen/118_kit.jpg,stimuli/own/kitchen/138_kit.jpg,,,,,,,,,0,86,86,381,769.569685125,,,,,,,,,,,769.854658959,770.023834834,770.023834834,770.023834834,770.023834834,770.023834834,770.023834834,770.023834834,770.023834834,770.023834834,775.0855138339999,7,-7,2,6.0,2.1984878330000583,3.0,4.961350959000015,769.567922542,769.569685125,770.023834834,769.854641625,,,,,,,,769.564382334,769.56787575,None,,,,,,,,,,,205,kitchen,2,2024-03-15_13h21.42.244,image_similarity_rating,2023.2.3,None,2024-03-15 13h22.00.542044 +0100,
,112,132,262,610,stimuli/own/kitchen/112_kit.jpg,stimuli/own/kitchen/132_kit.jpg,,,,,,,,,0,87,87,609,775.091230875,,,,,,,,,,,775.375124834,775.53897575,775.53897575,775.53897575,775.53897575,775.53897575,775.53897575,775.53897575,775.53897575,775.53897575,782.08087025,7,-7,2,6.0,6.550737041999923,1.0,4.459175875000028,775.089233459,775.091230875,775.53897575,775.375110167,,,,,,,,775.085760209,775.0891866669999,None,,,,,,,,,,,205,kitchen,2,2024-03-15_13h21.42.244,image_similarity_rating,2023.2.3,None,2024-03-15 13h22.00.542044 +0100,
,126,139,515,515,stimuli/own/kitchen/126_kit.jpg,stimuli/own/kitchen/139_kit.jpg,,,,,,,,,0,88,88,514,782.0862845839999,,,,,,,,,,,782.3711768339999,782.5350515,782.5350515,782.5350515,782.5350515,782.5350515,782.5350515,782.5350515,782.5350515,782.5350515,789.326255709,7,-7,2,5.0,4.731570457999965,4.0,6.691987750000067,782.0845177499999,782.0862845839999,782.5350515,782.3711610839999,,,,,,,,782.081090125,782.0844711249999,None,,,,,,,,,,,205,kitchen,2,2024-03-15_13h21.42.244,image_similarity_rating,2023.2.3,None,2024-03-15 13h22.00.542044 +0100,
,134,141,574,574,stimuli/own/kitchen/134_kit.jpg,stimuli/own/kitchen/141_kit.jpg,,,,,,,,,0,89,89,573,789.336799917,,,,,,,,,,,789.62120575,789.786348709,789.786348709,789.786348709,789.786348709,789.786348709,789.786348709,789.786348709,789.786348709,789.786348709,796.893081584,-7,7,2,7.0,4.221566791999976,2.0,6.9569979589999775,789.329917917,789.336799917,789.786348709,789.621190125,,,,,,,,789.326477334,789.329871667,None,,,,,,,,,,,205,kitchen,2,2024-03-15_13h21.42.244,image_similarity_rating,2023.2.3,None,2024-03-15 13h22.00.542044 +0100,
,106,141,189,189,stimuli/own/kitchen/106_kit.jpg,stimuli/own/kitchen/141_kit.jpg,,,,,,,,,0,90,90,188,796.9033512919999,,,,,,,,,,,797.187837417,797.354474375,797.354474375,797.354474375,797.354474375,797.354474375,797.354474375,797.354474375,797.354474375,797.354474375,802.35545,-7,7,2,4.0,3.72728470800007,2.0,4.726662375000046,796.896844042,796.9033512919999,797.354474375,797.187821292,,,,,,,,796.893301209,796.896798084,None,,,,,,,,,,,205,kitchen,2,2024-03-15_13h21.42.244,image_similarity_rating,2023.2.3,None,2024-03-15 13h22.00.542044 +0100,
,109,139,215,215,stimuli/own/kitchen/109_kit.jpg,stimuli/own/kitchen/139_kit.jpg,,,,,,,,,0,91,91,214,802.361135667,,,,,,,,,,,802.65470925,802.819372959,802.819372959,802.819372959,802.819372959,802.819372959,802.819372959,802.819372959,802.819372959,802.819372959,813.988884709,-7,7,2,3.0,9.541498832999991,1.0,10.271277625000039,802.359211375,802.361135667,802.819372959,802.654693417,,,,,,,,802.355667875,802.359165084,None,,,,,,,,,,,205,kitchen,2,2024-03-15_13h21.42.244,image_similarity_rating,2023.2.3,None,2024-03-15 13h22.00.542044 +0100,
,102,141,67,67,stimuli/own/kitchen/102_kit.jpg,stimuli/own/kitchen/141_kit.jpg,,,,,,,,,0,92,92,66,813.994424042,,,,,,,,,,,814.287704375,814.451933542,814.451933542,814.451933542,814.451933542,814.451933542,814.451933542,814.451933542,814.451933542,814.451933542,828.052032709,-7,7,2,1.0,9.803253458000086,3.0,12.938116874999992,813.99267075,813.994424042,814.451933542,814.287689625,,,,,,,,813.989119709,813.992622042,None,,,,,,,,,,,205,kitchen,2,2024-03-15_13h21.42.244,image_similarity_rating,2023.2.3,None,2024-03-15 13h22.00.542044 +0100,
,105,117,138,598,stimuli/own/kitchen/105_kit.jpg,stimuli/own/kitchen/117_kit.jpg,,,,,,,,,0,93,93,597,828.057712542,,,,,,,,,,,828.3420572499999,828.5112386249999,828.5112386249999,828.5112386249999,828.5112386249999,828.5112386249999,828.5112386249999,828.5112386249999,828.5112386249999,828.5112386249999,841.314256,7,-7,2,4.0,12.039238040999976,7.0,3.467586082999901,828.055770875,828.057712542,828.5112386249999,828.3420424999999,,,,,,,,828.052271875,828.055723875,None,,,,,,,,,,,205,kitchen,2,2024-03-15_13h21.42.244,image_similarity_rating,2023.2.3,None,2024-03-15 13h22.00.542044 +0100,
,125,141,504,504,stimuli/own/kitchen/125_kit.jpg,stimuli/own/kitchen/141_kit.jpg,,,,,,,,,0,94,94,503,841.3366297499999,,,,,,,,,,,841.6205344589999,841.787279209,841.787279209,841.787279209,841.787279209,841.787279209,841.787279209,841.787279209,841.787279209,841.787279209,853.3183044589999,-7,7,2,4.0,7.880600416999982,6.0,10.946381083000006,841.3179531669999,841.3366297499999,,841.620515167,,,,,,,,841.3144760839999,841.3179064589999,None,,,,,,,,,,,205,kitchen,2,2024-03-15_13h21.42.244,image_similarity_rating,2023.2.3,None,2024-03-15 13h22.00.542044 +0100,
,113,121,277,277,stimuli/own/kitchen/113_kit.jpg,stimuli/own/kitchen/121_kit.jpg,,,,,,,,,0,95,95,276,853.323997084,,,,,,,,,,,853.6083199589999,853.774161209,853.774161209,853.774161209,853.774161209,853.774161209,853.774161209,853.774161209,853.774161209,853.774161209,862.947339792,7,-7,2,4.0,8.721671833000073,1.0,5.420888333999983,853.3221881249999,853.323997084,853.774161209,853.608307792,,,,,,,,853.318528625,853.322140584,None,,,,,,,,,,,205,kitchen,2,2024-03-15_13h21.42.244,image_similarity_rating,2023.2.3,None,2024-03-15 13h22.00.542044 +0100,
,122,135,453,453,stimuli/own/kitchen/122_kit.jpg,stimuli/own/kitchen/135_kit.jpg,,,,,,,,,0,96,96,452,862.952915042,,,,,,,,,,,863.237696875,863.4021184999999,863.4021184999999,863.4021184999999,863.4021184999999,863.4021184999999,863.4021184999999,863.4021184999999,863.4021184999999,863.4021184999999,872.30157475,-7,7,2,4.0,6.678079582999999,3.0,8.429307167000047,862.951117042,862.952915042,863.4021184999999,863.2376829589999,,,,,,,,862.9475669589999,862.951070167,None,,,,,,,,,,,205,kitchen,2,2024-03-15_13h21.42.244,image_similarity_rating,2023.2.3,None,2024-03-15 13h22.00.542044 +0100,
,106,120,170,170,stimuli/own/kitchen/106_kit.jpg,stimuli/own/kitchen/120_kit.jpg,,,,,,,,,0,97,97,169,872.307121459,,,,,,,,,,,872.591734459,872.7594762919999,872.7594762919999,872.7594762919999,872.7594762919999,872.7594762919999,872.7594762919999,872.7594762919999,872.7594762919999,872.7594762919999,881.9807428749999,-7,7,2,3.0,8.70676545799995,2.0,6.624378833000037,872.30530625,872.307121459,872.7594762919999,872.591721334,,,,,,,,872.301796459,872.30525725,None,,,,,,,,,,,205,kitchen,2,2024-03-15_13h21.42.244,image_similarity_rating,2023.2.3,None,2024-03-15 13h22.00.542044 +0100,
,123,131,466,466,stimuli/own/kitchen/123_kit.jpg,stimuli/own/kitchen/131_kit.jpg,,,,,,,,,0,98,98,465,882.003089959,,,,,,,,,,,882.287055334,882.4539267499999,882.4539267499999,882.4539267499999,882.4539267499999,882.4539267499999,882.4539267499999,882.4539267499999,882.4539267499999,882.4539267499999,889.034903334,7,-7,2,1.0,5.403486374999943,1.0,2.6710797089999687,881.984414334,882.003089959,,882.287021459,,,,,,,,881.980965042,881.984367834,None,,,,,,,,,,,205,kitchen,2,2024-03-15_13h21.42.244,image_similarity_rating,2023.2.3,None,2024-03-15 13h22.00.542044 +0100,
,106,129,178,178,stimuli/own/kitchen/106_kit.jpg,stimuli/own/kitchen/129_kit.jpg,,,,,,,,,0,99,99,177,889.04069025,,,,,,,,,,,889.325255459,889.4913477089999,889.4913477089999,889.4913477089999,889.4913477089999,889.4913477089999,889.4913477089999,889.4913477089999,889.4913477089999,889.4913477089999,896.621895084,-7,7,2,4.0,4.775711791999925,5.0,6.66801795799995,889.038760167,889.04069025,889.4913477089999,889.325242292,,,,,,,,889.035139042,889.0387130839999,None,,,,,,,,,,,205,kitchen,2,2024-03-15_13h21.42.244,image_similarity_rating,2023.2.3,None,2024-03-15 13h22.00.542044 +0100,
,118,132,377,377,stimuli/own/kitchen/118_kit.jpg,stimuli/own/kitchen/132_kit.jpg,,,,,,,,,0,100,100,376,896.6275201249999,,,,,,,,,,,896.920690584,897.087138584,897.087138584,897.087138584,897.087138584,897.087138584,897.087138584,897.087138584,897.087138584,897.087138584,904.363816584,-7,7,2,5.0,6.610816208000074,1.0,3.931730334000008,896.6255639589999,896.6275201249999,897.087138584,896.9206698749999,,,,,,,,896.622117292,896.625517084,None,,,,,,,,,,,205,kitchen,2,2024-03-15_13h21.42.244,image_similarity_rating,2023.2.3,None,2024-03-15 13h22.00.542044 +0100,
,103,104,68,68,stimuli/own/kitchen/103_kit.jpg,stimuli/own/kitchen/104_kit.jpg,,,,,,,,,0,101,101,67,904.369608417,,,,,,,,,,,904.654185917,904.821159334,904.821159334,904.821159334,904.821159334,904.821159334,904.821159334,904.821159334,904.821159334,904.821159334,926.9974205,7,-7,2,4.0,19.904303082999945,6.0,21.649822707999988,904.367500542,904.369608417,904.821159334,904.65416425,,,,,,,,904.3640359589999,904.3674539589999,None,,,,,,,,,,,205,kitchen,2,2024-03-15_13h21.42.244,image_similarity_rating,2023.2.3,None,2024-03-15 13h22.00.542044 +0100,
,104,118,109,109,stimuli/own/kitchen/104_kit.jpg,stimuli/own/kitchen/118_kit.jpg,,,,,,,,,0,102,102,108,927.019761959,,,,,,,,,,,927.303456,927.474555584,927.474555584,927.474555584,927.474555584,927.474555584,927.474555584,927.474555584,927.474555584,927.474555584,935.780566334,7,-7,2,3.0,7.800450082999987,2.0,4.064958499999989,927.00108775,927.019761959,,927.303435167,,,,,,,,926.9976413339999,927.0010411669999,None,,,,,,,,,,,205,kitchen,2,2024-03-15_13h21.42.244,image_similarity_rating,2023.2.3,None,2024-03-15 13h22.00.542044 +0100,
,127,139,527,527,stimuli/own/kitchen/127_kit.jpg,stimuli/own/kitchen/139_kit.jpg,,,,,,,,,0,103,103,526,935.802661584,,,,,,,,,,,936.086823709,936.253020584,936.253020584,936.253020584,936.253020584,936.253020584,936.253020584,936.253020584,936.253020584,936.253020584,943.864061917,-7,7,2,3.0,4.804772249999928,5.0,6.823102790999883,935.784240167,935.802661584,,936.086798917,,,,,,,,935.7807863749999,935.7841939169999,None,,,,,,,,,,,205,kitchen,2,2024-03-15_13h21.42.244,image_similarity_rating,2023.2.3,None,2024-03-15 13h22.00.542044 +0100,
,119,122,388,388,stimuli/own/kitchen/119_kit.jpg,stimuli/own/kitchen/122_kit.jpg,,,,,,,,,0,104,104,387,943.886449042,,,,,,,,,,,944.1701026669999,944.3348332090001,944.3348332090001,944.3348332090001,944.3348332090001,944.3348332090001,944.3348332090001,944.3348332090001,944.3348332090001,944.3348332090001,957.026131792,7,-7,2,4.0,6.622370207999893,3.0,12.054648124999858,943.8678672089999,943.886449042,,944.1700852499999,,,,,,,,943.8642841249999,943.867821042,None,,,,,,,,,,,205,kitchen,2,2024-03-15_13h21.42.244,image_similarity_rating,2023.2.3,None,2024-03-15 13h22.00.542044 +0100,
,131,132,551,551,stimuli/own/kitchen/131_kit.jpg,stimuli/own/kitchen/132_kit.jpg,,,,,,,,,0,105,105,550,957.0358420839999,,,,,,,,,,,957.320619667,957.4879453340001,957.4879453340001,957.4879453340001,957.4879453340001,957.4879453340001,957.4879453340001,957.4879453340001,957.4879453340001,957.4879453340001,961.2050627089999,7,-7,2,1.0,3.2516793330000837,1.0,1.875906250000071,957.029792834,957.0358420839999,957.4879453340001,957.320598459,,,,,,,,957.0263536250001,957.029746542,None,,,,,,,,,,,205,kitchen,2,2024-03-15_13h21.42.244,image_similarity_rating,2023.2.3,None,2024-03-15 13h22.00.542044 +0100,
,104,126,117,117,stimuli/own/kitchen/104_kit.jpg,stimuli/own/kitchen/126_kit.jpg,,,,,,,,,0,106,106,116,961.2106506669999,,,,,,,,,,,961.5039157919999,961.671766,961.671766,961.671766,961.671766,961.671766,961.671766,961.671766,961.671766,961.671766,980.034687875,7,-7,2,5.0,14.686783458000036,3.0,6.636709584000073,961.208711917,961.2106506669999,961.671766,961.503893875,,,,,,,,961.205280709,961.208665084,None,,,,,,,,,,,205,kitchen,2,2024-03-15_13h21.42.244,image_similarity_rating,2023.2.3,None,2024-03-15 13h22.00.542044 +0100,
,109,135,211,211,stimuli/own/kitchen/109_kit.jpg,stimuli/own/kitchen/135_kit.jpg,,,,,,,,,0,107,107,210,980.0403447499999,,,,,,,,,,,980.3247394169999,980.4911965,980.4911965,980.4911965,980.4911965,980.4911965,980.4911965,980.4911965,980.4911965,980.4911965,987.176040084,7,-7,2,5.0,5.020803167000167,1.0,6.104013707999911,980.0384205419999,980.0403447499999,980.4911965,980.324726292,,,,,,,,980.034937125,980.038373209,None,,,,,,,,,,,205,kitchen,2,2024-03-15_13h21.42.244,image_similarity_rating,2023.2.3,None,2024-03-15 13h22.00.542044 +0100,
,125,137,500,500,stimuli/own/kitchen/125_kit.jpg,stimuli/own/kitchen/137_kit.jpg,,,,,,,,,0,108,108,499,987.185953042,,,,,,,,,,,987.470692167,987.635686834,987.635686834,987.635686834,987.635686834,987.635686834,987.635686834,987.635686834,987.635686834,987.635686834,998.347108,-7,7,2,5.0,6.513990708999927,5.0,10.248419333999891,987.1797370840001,987.185953042,987.635686834,987.4706765,,,,,,,,987.176265209,987.179690459,None,,,,,,,,,,,205,kitchen,2,2024-03-15_13h21.42.244,image_similarity_rating,2023.2.3,None,2024-03-15 13h22.00.542044 +0100,
,111,125,230,230,stimuli/own/kitchen/111_kit.jpg,stimuli/own/kitchen/125_kit.jpg,,,,,,,,,0,109,109,229,998.3696209169999,,,,,,,,,,,998.6532237089999,998.8182276669999,998.8182276669999,998.8182276669999,998.8182276669999,998.8182276669999,998.8182276669999,998.8182276669999,998.8182276669999,998.8182276669999,1004.163432084,7,-7,2,3.0,5.041213666999965,1.0,2.4064814169998954,998.350764834,998.3696209169999,,998.653205875,,,,,,,,998.3473277090001,998.3507184169999,None,,,,,,,,,,,205,kitchen,2,2024-03-15_13h21.42.244,image_similarity_rating,2023.2.3,None,2024-03-15 13h22.00.542044 +0100,
,104,131,121,613,stimuli/own/kitchen/104_kit.jpg,stimuli/own/kitchen/131_kit.jpg,,,,,,,,,0,110,110,612,1004.168899917,,,,,,,,,,,1004.4537146249999,1004.6194846249999,1004.6194846249999,1004.6194846249999,1004.6194846249999,1004.6194846249999,1004.6194846249999,1004.6194846249999,1004.6194846249999,1004.6194846249999,1013.2967312089999,-7,7,2,1.0,8.164321665999978,1.0,6.605142333000003,1004.1670901669999,1004.168899917,1004.6194846249999,1004.4536992499999,,,,,,,,1004.163653125,1004.1670438749999,None,,,,,,,,,,,205,kitchen,2,2024-03-15_13h21.42.244,image_similarity_rating,2023.2.3,None,2024-03-15 13h22.00.542044 +0100,
,103,111,72,72,stimuli/own/kitchen/103_kit.jpg,stimuli/own/kitchen/111_kit.jpg,,,,,,,,,0,111,111,71,1013.3021984589999,,,,,,,,,,,1013.5870182499999,1013.7521406249999,1013.7521406249999,1013.7521406249999,1013.7521406249999,1013.7521406249999,1013.7521406249999,1013.7521406249999,1013.7521406249999,1013.7521406249999,1018.6255306249999,-7,7,2,7.0,3.355223541999976,6.0,4.231445291,1013.300393917,1013.3021984589999,1013.7521406249999,1013.587001625,,,,,,,,1013.2969541250001,1013.300344959,None,,,,,,,,,,,205,kitchen,2,2024-03-15_13h21.42.244,image_similarity_rating,2023.2.3,None,2024-03-15 13h22.00.542044 +0100,
,105,136,155,155,stimuli/own/kitchen/105_kit.jpg,stimuli/own/kitchen/136_kit.jpg,,,,,,,,,0,112,112,154,1018.6358665419999,,,,,,,,,,,1018.920337292,1019.088201917,1019.088201917,1019.088201917,1019.088201917,1019.088201917,1019.088201917,1019.088201917,1019.088201917,1019.088201917,1027.421441417,-7,7,2,4.0,6.629284084000119,3.0,7.770529167000177,1018.629180709,1018.6358665419999,1019.088201917,1018.920319917,,,,,,,,1018.625750459,1018.629134167,None,,,,,,,,,,,205,kitchen,2,2024-03-15_13h21.42.244,image_similarity_rating,2023.2.3,None,2024-03-15 13h22.00.542044 +0100,
,119,121,387,387,stimuli/own/kitchen/119_kit.jpg,stimuli/own/kitchen/121_kit.jpg,,,,,,,,,0,113,113,386,1027.42712075,,,,,,,,,,,1027.7202225,1027.8850347090001,1027.8850347090001,1027.8850347090001,1027.8850347090001,1027.8850347090001,1027.8850347090001,1027.8850347090001,1027.8850347090001,1027.8850347090001,1036.184421542,-7,7,2,3.0,7.821206374999974,1.0,4.92877729199995,1027.425215959,1027.42712075,1027.8850347090001,1027.7202085000001,,,,,,,,1027.421664209,1027.425168792,None,,,,,,,,,,,205,kitchen,2,2024-03-15_13h21.42.244,image_similarity_rating,2023.2.3,None,2024-03-15 13h22.00.542044 +0100,
,123,129,464,464,stimuli/own/kitchen/123_kit.jpg,stimuli/own/kitchen/129_kit.jpg,,,,,,,,,0,114,114,463,1036.1900642090002,,,,,,,,,,,1036.474691375,1036.642024084,1036.642024084,1036.642024084,1036.642024084,1036.642024084,1036.642024084,1036.642024084,1036.642024084,1036.642024084,1045.017496125,-7,7,2,3.0,3.691854375000048,5.0,7.950607291999859,1036.1881284590002,1036.1900642090002,1036.642024084,1036.474678042,,,,,,,,1036.184671167,1036.18808175,None,,,,,,,,,,,205,kitchen,2,2024-03-15_13h21.42.244,image_similarity_rating,2023.2.3,None,2024-03-15 13h22.00.542044 +0100,
,102,119,47,47,stimuli/own/kitchen/102_kit.jpg,stimuli/own/kitchen/119_kit.jpg,,,,,,,,,0,115,115,46,1045.0232659590001,,,,,,,,,,,1045.307780667,1045.4761700420001,1045.4761700420001,1045.4761700420001,1045.4761700420001,1045.4761700420001,1045.4761700420001,1045.4761700420001,1045.4761700420001,1045.4761700420001,1055.97243725,-7,7,2,4.0,10.067102999999861,2.0,8.381209624999883,1045.0213411670002,1045.0232659590001,1045.4761700420001,1045.307765667,,,,,,,,1045.017718792,1045.0212947920002,None,,,,,,,,,,,205,kitchen,2,2024-03-15_13h21.42.244,image_similarity_rating,2023.2.3,None,2024-03-15 13h22.00.542044 +0100,
,116,139,340,340,stimuli/own/kitchen/116_kit.jpg,stimuli/own/kitchen/139_kit.jpg,,,,,,,,,0,116,116,339,1055.98559025,,,,,,,,,,,1056.270274209,1056.434895042,1056.434895042,1056.434895042,1056.434895042,1056.434895042,1056.434895042,1056.434895042,1056.434895042,1056.434895042,1061.737855417,7,-7,2,5.0,2.50492383400001,1.0,4.652441167000006,1055.976299209,1055.98559025,1056.434895042,1056.2702590840001,,,,,,,,1055.9726741250001,1055.976250375,None,,,,,,,,,,,205,kitchen,2,2024-03-15_13h21.42.244,image_similarity_rating,2023.2.3,None,2024-03-15 13h22.00.542044 +0100,
,114,137,315,315,stimuli/own/kitchen/114_kit.jpg,stimuli/own/kitchen/137_kit.jpg,,,,,,,,,0,117,117,314,1061.743261042,,,,,,,,,,,1062.036879167,1062.208800417,1062.208800417,1062.208800417,1062.208800417,1062.208800417,1062.208800417,1062.208800417,1062.208800417,1062.208800417,1066.909098084,-7,7,2,3.0,4.354162374999987,6.0,1.9823941669999385,1061.741505209,1061.743261042,1062.208800417,1062.0368612500001,,,,,,,,1061.73807725,1061.7414565000001,None,,,,,,,,,,,205,kitchen,2,2024-03-15_13h21.42.244,image_similarity_rating,2023.2.3,None,2024-03-15 13h22.00.542044 +0100,
,103,126,86,86,stimuli/own/kitchen/103_kit.jpg,stimuli/own/kitchen/126_kit.jpg,,,,,,,,,0,118,118,85,1066.91882975,,,,,,,,,,,1067.2035222920001,1067.3752341670001,1067.3752341670001,1067.3752341670001,1067.3752341670001,1067.3752341670001,1067.3752341670001,1067.3752341670001,1067.3752341670001,1067.3752341670001,1072.738742625,7,-7,2,5.0,2.3997620420000203,5.0,4.825041084000077,1066.9127432500002,1066.91882975,1067.3752341670001,1067.203505125,,,,,,,,1066.909316667,1066.9126969170002,None,,,,,,,,,,,205,kitchen,2,2024-03-15_13h21.42.244,image_similarity_rating,2023.2.3,None,2024-03-15 13h22.00.542044 +0100,
,117,131,355,355,stimuli/own/kitchen/117_kit.jpg,stimuli/own/kitchen/131_kit.jpg,,,,,,,,,0,119,119,354,1072.7443647920002,,,,,,,,,,,1073.036811292,1073.201783875,1073.201783875,1073.201783875,1073.201783875,1073.201783875,1073.201783875,1073.201783875,1073.201783875,1073.201783875,1076.759016042,7,-7,2,1.0,3.117598874999885,1.0,2.2055663749999894,1072.7424055420001,1072.7443647920002,1073.201783875,1073.036791959,,,,,,,,1072.7389673750001,1072.742359667,None,,,,,,,,,,,205,kitchen,2,2024-03-15_13h21.42.244,image_similarity_rating,2023.2.3,None,2024-03-15 13h22.00.542044 +0100,
,101,122,17,17,stimuli/own/kitchen/101_kit.jpg,stimuli/own/kitchen/122_kit.jpg,,,,,,,,,0,120,120,16,1076.768909625,,,,,,,,,,,1077.053420292,1077.218938292,1077.218938292,1077.218938292,1077.218938292,1077.218938292,1077.218938292,1077.218938292,1077.218938292,1077.218938292,1085.3553544590002,7,-7,2,5.0,7.709569542000054,6.0,4.382409790999873,1076.762772834,1076.768909625,1077.218938292,1077.0534050840001,,,,,,,,1076.7592394590001,1076.762726375,None,,,,,,,,,,,205,kitchen,2,2024-03-15_13h21.42.244,image_similarity_rating,2023.2.3,None,2024-03-15 13h22.00.542044 +0100,
,102,130,57,57,stimuli/own/kitchen/102_kit.jpg,stimuli/own/kitchen/130_kit.jpg,,,,,,,,,0,121,121,56,1085.360772875,,,,,,,,,,,1085.6534012500001,1085.818976792,1085.818976792,1085.818976792,1085.818976792,1085.818976792,1085.818976792,1085.818976792,1085.818976792,1085.818976792,1095.2378443750001,7,-7,2,5.0,9.090273749999824,2.0,6.192650375000085,1085.3590147500001,1085.360772875,1085.818976792,1085.653386917,,,,,,,,1085.3555772500001,1085.358968584,None,,,,,,,,,,,205,kitchen,2,2024-03-15_13h21.42.244,image_similarity_rating,2023.2.3,None,2024-03-15 13h22.00.542044 +0100,
,136,139,583,601,stimuli/own/kitchen/136_kit.jpg,stimuli/own/kitchen/139_kit.jpg,,,,,,,,,0,122,122,600,1095.243303875,,,,,,,,,,,1095.5367196250002,1095.7056085000002,1095.7056085000002,1095.7056085000002,1095.7056085000002,1095.7056085000002,1095.7056085000002,1095.7056085000002,1095.7056085000002,1095.7056085000002,1105.90881625,7,-7,2,4.0,7.069564124999943,7.0,9.864099416000045,1095.241518625,1095.243303875,1095.7056085000002,1095.53669825,,,,,,,,1095.238066459,1095.2414719170001,None,,,,,,,,,,,205,kitchen,2,2024-03-15_13h21.42.244,image_similarity_rating,2023.2.3,None,2024-03-15 13h22.00.542044 +0100,
,101,112,8,8,stimuli/own/kitchen/101_kit.jpg,stimuli/own/kitchen/112_kit.jpg,,,,,,,,,0,123,123,7,1105.9191077090002,,,,,,,,,,,1106.20327275,1106.3699665420002,1106.3699665420002,1106.3699665420002,1106.3699665420002,1106.3699665420002,1106.3699665420002,1106.3699665420002,1106.3699665420002,1106.3699665420002,1111.825339834,-7,7,2,4.0,5.039710084000035,6.0,3.1041985829999703,1105.9124765000001,1105.9191077090002,1106.3699665420002,1106.203246625,,,,,,,,1105.909038167,1105.9124302920002,None,,,,,,,,,,,205,kitchen,2,2024-03-15_13h21.42.244,image_similarity_rating,2023.2.3,None,2024-03-15 13h22.00.542044 +0100,
,102,118,46,46,stimuli/own/kitchen/102_kit.jpg,stimuli/own/kitchen/118_kit.jpg,,,,,,,,,0,124,124,45,1111.8354336250002,,,,,,,,,,,1112.119911334,1112.285664625,1112.285664625,1112.285664625,1112.285664625,1112.285664625,1112.285664625,1112.285664625,1112.285664625,1112.285664625,1119.963073459,-7,7,2,4.0,7.236469707999959,1.0,5.668545917000074,1111.829008459,1111.8354336250002,1112.285664625,1112.1198886250002,,,,,,,,1111.825560792,1111.828962209,None,,,,,,,,,,,205,kitchen,2,2024-03-15_13h21.42.244,image_similarity_rating,2023.2.3,None,2024-03-15 13h22.00.542044 +0100,
,105,135,154,154,stimuli/own/kitchen/105_kit.jpg,stimuli/own/kitchen/135_kit.jpg,,,,,,,,,0,125,125,153,1119.9855441670002,,,,,,,,,,,1120.269435959,1120.4355177500001,1120.4355177500001,1120.4355177500001,1120.4355177500001,1120.4355177500001,1120.4355177500001,1120.4355177500001,1120.4355177500001,1120.4355177500001,1128.154334709,-7,7,2,4.0,4.5337446670000645,2.0,6.706141957999989,1119.966846625,1119.9855441670002,,1120.269412542,,,,,,,,1119.9632935000002,1119.9668001250002,None,,,,,,,,,,,205,kitchen,2,2024-03-15_13h21.42.244,image_similarity_rating,2023.2.3,None,2024-03-15 13h22.00.542044 +0100,
,120,134,417,417,stimuli/own/kitchen/120_kit.jpg,stimuli/own/kitchen/134_kit.jpg,,,,,,,,,0,126,126,416,1128.159914792,,,,,,,,,,,1152.086376709,1152.2537958750002,1152.2537958750002,1152.2537958750002,1152.2537958750002,1152.2537958750002,1152.2537958750002,1152.2537958750002,1152.2537958750002,1152.2537958750002,1162.441638875,7,-7,3,4.0,5.544912874999909,6.0,9.653911999999991,1151.789623959,1151.793794792,1152.2537958750002,1152.0863625000002,,,,,,,,1128.154556834,1151.788841125,space,1128.159914792,23.62866570799997,None,,,,,,,,205,kitchen,2,2024-03-15_13h21.42.244,image_similarity_rating,2023.2.3,None,2024-03-15 13h22.00.542044 +0100,
,129,130,530,530,stimuli/own/kitchen/129_kit.jpg,stimuli/own/kitchen/130_kit.jpg,,,,,,,,,0,127,127,529,1162.451905875,,,,,,,,,,,1162.736515459,1162.9043382090001,1162.9043382090001,1162.9043382090001,1162.9043382090001,1162.9043382090001,1162.9043382090001,1162.9043382090001,1162.9043382090001,1162.9043382090001,1172.858686167,7,-7,3,2.0,8.150006374999975,4.0,9.504180041999916,1162.445840709,1162.451905875,1162.9043382090001,1162.736498042,,,,,,,,1162.441859792,1162.445793,None,,,,,,,,,,,205,kitchen,2,2024-03-15_13h21.42.244,image_similarity_rating,2023.2.3,None,2024-03-15 13h22.00.542044 +0100,
,106,109,161,161,stimuli/own/kitchen/106_kit.jpg,stimuli/own/kitchen/109_kit.jpg,,,,,,,,,0,128,128,160,1172.868581167,,,,,,,,,,,1173.153132917,1173.324280209,1173.324280209,1173.324280209,1173.324280209,1173.324280209,1173.324280209,1173.324280209,1173.324280209,1173.324280209,1177.5458647090002,-7,7,3,3.0,3.9089864160000616,1.0,2.3195027910001045,1172.862453084,1172.868581167,1173.324280209,1173.153115375,,,,,,,,1172.85890975,1172.8624065840002,None,,,,,,,,,,,205,kitchen,2,2024-03-15_13h21.42.244,image_similarity_rating,2023.2.3,None,2024-03-15 13h22.00.542044 +0100,
,116,140,341,341,stimuli/own/kitchen/116_kit.jpg,stimuli/own/kitchen/140_kit.jpg,,,,,,,,,0,129,129,340,1177.5514425420001,,,,,,,,,,,1177.8364357500002,1178.001287834,1178.001287834,1178.001287834,1178.001287834,1178.001287834,1178.001287834,1178.001287834,1178.001287834,1178.001287834,1182.958670709,-7,7,3,4.0,4.607228374999977,1.0,2.4064864169999964,1177.549544917,1177.5514425420001,1178.001287834,1177.836420709,,,,,,,,1177.546087917,1177.549499042,None,,,,,,,,,,,205,kitchen,2,2024-03-15_13h21.42.244,image_similarity_rating,2023.2.3,None,2024-03-15 13h22.00.542044 +0100,
,121,123,426,426,stimuli/own/kitchen/121_kit.jpg,stimuli/own/kitchen/123_kit.jpg,,,,,,,,,0,130,130,425,1182.9683460840001,,,,,,,,,,,1183.25296525,1183.420736834,1183.420736834,1183.420736834,1183.420736834,1183.420736834,1183.420736834,1183.420736834,1183.420736834,1183.420736834,1189.012772792,7,-7,3,3.0,4.202287041999853,3.0,5.153892792000079,1182.9625895840002,1182.9683460840001,1183.420736834,1183.2529445,,,,,,,,1182.958892584,1182.962540292,None,,,,,,,,,,,205,kitchen,2,2024-03-15_13h21.42.244,image_similarity_rating,2023.2.3,None,2024-03-15 13h22.00.542044 +0100,
,119,130,395,395,stimuli/own/kitchen/119_kit.jpg,stimuli/own/kitchen/130_kit.jpg,,,,,,,,,0,131,131,394,1189.01835125,,,,,,,,,,,1189.302904917,1189.466542292,1189.466542292,1189.466542292,1189.466542292,1189.466542292,1189.466542292,1189.466542292,1189.466542292,1189.466542292,1197.7875322090001,7,-7,3,3.0,7.916073500000039,5.0,6.729912499999955,1189.016428292,1189.01835125,1189.466542292,1189.302892792,,,,,,,,1189.0129939590001,1189.0163818340002,None,,,,,,,,,,,205,kitchen,2,2024-03-15_13h21.42.244,image_similarity_rating,2023.2.3,None,2024-03-15 13h22.00.542044 +0100,
,123,141,475,475,stimuli/own/kitchen/123_kit.jpg,stimuli/own/kitchen/141_kit.jpg,,,,,,,,,0,132,132,474,1197.793366459,,,,,,,,,,,1198.0863307500001,1198.2522115420002,1198.2522115420002,1198.2522115420002,1198.2522115420002,1198.2522115420002,1198.2522115420002,1198.2522115420002,1198.2522115420002,1198.2522115420002,1207.854077042,-7,7,3,3.0,8.78601304200015,5.0,7.494040333000157,1197.791438875,1197.793366459,1198.2522115420002,1198.086315667,,,,,,,,1197.787754459,1197.791389334,None,,,,,,,,,,,205,kitchen,2,2024-03-15_13h21.42.244,image_similarity_rating,2023.2.3,None,2024-03-15 13h22.00.542044 +0100,
,103,121,81,81,stimuli/own/kitchen/103_kit.jpg,stimuli/own/kitchen/121_kit.jpg,,,,,,,,,0,133,133,80,1207.85964425,,,,,,,,,,,1208.152885834,1208.31738475,1208.31738475,1208.31738475,1208.31738475,1208.31738475,1208.31738475,1208.31738475,1208.31738475,1208.31738475,1213.233527042,-7,7,3,5.0,4.423890999999912,7.0,3.0950319159999253,1207.8578817500002,1207.85964425,1208.31738475,1208.15287175,,,,,,,,1207.8543004590001,1207.857835209,None,,,,,,,,,,,205,kitchen,2,2024-03-15_13h21.42.244,image_similarity_rating,2023.2.3,None,2024-03-15 13h22.00.542044 +0100,
,102,112,41,41,stimuli/own/kitchen/102_kit.jpg,stimuli/own/kitchen/112_kit.jpg,,,,,,,,,0,134,134,40,1213.2394014170002,,,,,,,,,,,1213.523603417,1213.688785125,1213.688785125,1213.688785125,1213.688785125,1213.688785125,1213.688785125,1213.688785125,1213.688785125,1213.688785125,1220.0123881670002,-7,7,3,5.0,6.034653124999977,3.0,3.8077141670000856,1213.237456667,1213.2394014170002,1213.688785125,1213.52359125,,,,,,,,1213.233751167,1213.2374058750001,None,,,,,,,,,,,205,kitchen,2,2024-03-15_13h21.42.244,image_similarity_rating,2023.2.3,None,2024-03-15 13h22.00.542044 +0100,
,112,125,256,256,stimuli/own/kitchen/112_kit.jpg,stimuli/own/kitchen/125_kit.jpg,,,,,,,,,0,135,135,255,1220.0178895420001,,,,,,,,,,,1220.3028935,1220.473644334,1220.473644334,1220.473644334,1220.473644334,1220.473644334,1220.473644334,1220.473644334,1220.473644334,1220.473644334,1229.050463875,7,-7,3,4.0,8.250371666000092,1.0,5.969433999999865,1220.016132709,1220.0178895420001,1220.473644334,1220.3028759170002,,,,,,,,1220.012608875,1220.0160862920002,None,,,,,,,,,,,205,kitchen,2,2024-03-15_13h21.42.244,image_similarity_rating,2023.2.3,None,2024-03-15 13h22.00.542044 +0100,
,114,141,319,319,stimuli/own/kitchen/114_kit.jpg,stimuli/own/kitchen/141_kit.jpg,,,,,,,,,0,136,136,318,1229.0562924590001,,,,,,,,,,,1229.339765167,1229.501919084,1229.501919084,1229.501919084,1229.501919084,1229.501919084,1229.501919084,1229.501919084,1229.501919084,1229.501919084,1235.7546877920001,-7,7,3,4.0,5.873990708000065,1.0,2.082222750000028,1229.054194709,1229.0562924590001,1229.501919084,1229.339755167,,,,,,,,1229.0507111670001,1229.0541480000002,None,,,,,,,,,,,205,kitchen,2,2024-03-15_13h21.42.244,image_similarity_rating,2023.2.3,None,2024-03-15 13h22.00.542044 +0100,
,127,137,525,525,stimuli/own/kitchen/127_kit.jpg,stimuli/own/kitchen/137_kit.jpg,,,,,,,,,0,137,137,524,1235.760322542,,,,,,,,,,,1236.0528301250001,1236.220067375,1236.220067375,1236.220067375,1236.220067375,1236.220067375,1236.220067375,1236.220067375,1236.220067375,1236.220067375,1242.020585375,-7,7,3,3.0,4.009928749999972,2.0,5.290613500000063,1235.7583563750002,1235.760322542,1236.220067375,1236.0528094170002,,,,,,,,1235.7549115000002,1235.7583107500002,None,,,,,,,,,,,205,kitchen,2,2024-03-15_13h21.42.244,image_similarity_rating,2023.2.3,None,2024-03-15 13h22.00.542044 +0100,
,104,127,118,118,stimuli/own/kitchen/104_kit.jpg,stimuli/own/kitchen/127_kit.jpg,,,,,,,,,0,138,138,117,1242.025999834,,,,,,,,,,,1242.3194686670001,1242.484955334,1242.484955334,1242.484955334,1242.484955334,1242.484955334,1242.484955334,1242.484955334,1242.484955334,1242.484955334,1255.7289278750002,7,-7,3,3.0,10.388501292,4.0,13.120614458000091,1242.024254834,1242.025999834,1242.484955334,1242.319444084,,,,,,,,1242.020805625,1242.024208792,None,,,,,,,,,,,205,kitchen,2,2024-03-15_13h21.42.244,image_similarity_rating,2023.2.3,None,2024-03-15 13h22.00.542044 +0100,
,113,141,295,295,stimuli/own/kitchen/113_kit.jpg,stimuli/own/kitchen/141_kit.jpg,,,,,,,,,0,139,139,294,1255.7347817090001,,,,,,,,,,,1256.019468084,1256.184224,1256.184224,1256.184224,1256.184224,1256.184224,1256.184224,1256.184224,1256.184224,1256.184224,1262.129330209,-7,7,3,3.0,5.804598166999995,4.0,4.428369459000123,1255.732587292,1255.7347817090001,1256.184224,1256.01944925,,,,,,,,1255.729145875,1255.7325412920002,None,,,,,,,,,,,205,kitchen,2,2024-03-15_13h21.42.244,image_similarity_rating,2023.2.3,None,2024-03-15 13h22.00.542044 +0100,
,106,136,184,184,stimuli/own/kitchen/106_kit.jpg,stimuli/own/kitchen/136_kit.jpg,,,,,,,,,0,140,140,183,1262.1513979170002,,,,,,,,,,,1262.435421875,1262.6006562090001,1262.6006562090001,1262.6006562090001,1262.6006562090001,1262.6006562090001,1262.6006562090001,1262.6006562090001,1262.6006562090001,1262.6006562090001,1267.670846792,-7,7,3,5.0,3.2283010000001013,2.0,4.9649905839999064,1262.132977,1262.1513979170002,,1262.435393209,,,,,,,,1262.129548,1262.13293075,None,,,,,,,,,,,205,kitchen,2,2024-03-15_13h21.42.244,image_similarity_rating,2023.2.3,None,2024-03-15 13h22.00.542044 +0100,
,114,118,298,298,stimuli/own/kitchen/114_kit.jpg,stimuli/own/kitchen/118_kit.jpg,,,,,,,,,0,141,141,297,1267.676331584,,,,,,,,,,,1267.969423,1268.140918709,1268.140918709,1268.140918709,1268.140918709,1268.140918709,1268.140918709,1268.140918709,1268.140918709,1268.140918709,1275.6244724590001,-7,7,3,4.0,7.43451370799994,6.0,2.532793874999925,1267.674528084,1267.676331584,1268.140918709,1267.969400459,,,,,,,,1267.671066584,1267.67448225,None,,,,,,,,,,,205,kitchen,2,2024-03-15_13h21.42.244,image_similarity_rating,2023.2.3,None,2024-03-15 13h22.00.542044 +0100,
,101,138,31,31,stimuli/own/kitchen/101_kit.jpg,stimuli/own/kitchen/138_kit.jpg,,,,,,,,,0,142,142,30,1275.634772375,,,,,,,,,,,1275.919540334,1276.086892542,1276.086892542,1276.086892542,1276.086892542,1276.086892542,1276.086892542,1276.086892542,1276.086892542,1276.086892542,1284.5870441250001,-7,7,3,4.0,8.335628416999953,6.0,4.452612207999891,1275.628262417,1275.634772375,1276.086892542,1275.919523209,,,,,,,,1275.6246914590001,1275.6282149590002,None,,,,,,,,,,,205,kitchen,2,2024-03-15_13h21.42.244,image_similarity_rating,2023.2.3,None,2024-03-15 13h22.00.542044 +0100,
,106,111,162,162,stimuli/own/kitchen/106_kit.jpg,stimuli/own/kitchen/111_kit.jpg,,,,,,,,,0,143,143,161,1284.5926308750002,,,,,,,,,,,1284.886104792,1285.053367667,1285.053367667,1285.053367667,1285.053367667,1285.053367667,1285.053367667,1285.053367667,1285.053367667,1285.053367667,1290.14554825,7,-7,3,2.0,5.060035708999976,5.0,3.6669285829998444,1284.590697084,1284.5926308750002,1285.053367667,1284.886081,,,,,,,,1284.587263584,1284.590650709,None,,,,,,,,,,,205,kitchen,2,2024-03-15_13h21.42.244,image_similarity_rating,2023.2.3,None,2024-03-15 13h22.00.542044 +0100,
,104,106,101,101,stimuli/own/kitchen/104_kit.jpg,stimuli/own/kitchen/106_kit.jpg,,,,,,,,,0,144,144,100,1290.1511669590002,,,,,,,,,,,1290.436124667,1290.6008040000002,1290.6008040000002,1290.6008040000002,1290.6008040000002,1290.6008040000002,1290.6008040000002,1290.6008040000002,1290.6008040000002,1290.6008040000002,1299.650295417,-7,7,3,3.0,5.653256416999966,5.0,8.948785042000054,1290.149330334,1290.1511669590002,1290.6008040000002,1290.4361108340001,,,,,,,,1290.1457701670001,1290.1492850000002,None,,,,,,,,,,,205,kitchen,2,2024-03-15_13h21.42.244,image_similarity_rating,2023.2.3,None,2024-03-15 13h22.00.542044 +0100,
,112,139,268,268,stimuli/own/kitchen/112_kit.jpg,stimuli/own/kitchen/139_kit.jpg,,,,,,,,,0,145,145,267,1299.6561120000001,,,,,,,,,,,1299.9399377500001,1300.1060527920001,1300.1060527920001,1300.1060527920001,1300.1060527920001,1300.1060527920001,1300.1060527920001,1300.1060527920001,1300.1060527920001,1300.1060527920001,1306.228873042,7,-7,3,3.0,5.969774041000164,1.0,4.742189041000074,1299.654092334,1299.6561120000001,1300.1060527920001,1299.939924625,,,,,,,,1299.650520959,1299.6540460840001,None,,,,,,,,,,,205,kitchen,2,2024-03-15_13h21.42.244,image_similarity_rating,2023.2.3,None,2024-03-15 13h22.00.542044 +0100,
,122,131,450,450,stimuli/own/kitchen/122_kit.jpg,stimuli/own/kitchen/131_kit.jpg,,,,,,,,,0,146,146,449,1306.234416,,,,,,,,,,,1306.519257875,1306.6858380420001,1306.6858380420001,1306.6858380420001,1306.6858380420001,1306.6858380420001,1306.6858380420001,1306.6858380420001,1306.6858380420001,1306.6858380420001,1310.7453097920002,-7,7,3,1.0,4.039145166000026,1.0,3.0904915410001195,1306.232520709,1306.234416,1306.6858380420001,1306.5192425,,,,,,,,1306.2290929170001,1306.232474584,None,,,,,,,,,,,205,kitchen,2,2024-03-15_13h21.42.244,image_similarity_rating,2023.2.3,None,2024-03-15 13h22.00.542044 +0100,
,113,122,278,278,stimuli/own/kitchen/113_kit.jpg,stimuli/own/kitchen/122_kit.jpg,,,,,,,,,0,147,147,277,1310.7508891250002,,,,,,,,,,,1311.0357611250001,1311.200582209,1311.200582209,1311.200582209,1311.200582209,1311.200582209,1311.200582209,1311.200582209,1311.200582209,1311.200582209,1318.5211932920001,7,-7,3,4.0,7.353637958000036,1.0,1.93144674999985,1310.748967625,1310.7508891250002,1311.200582209,1311.0357472090002,,,,,,,,1310.745533834,1310.748921959,None,,,,,,,,,,,205,kitchen,2,2024-03-15_13h21.42.244,image_similarity_rating,2023.2.3,None,2024-03-15 13h22.00.542044 +0100,
,116,122,325,325,stimuli/own/kitchen/116_kit.jpg,stimuli/own/kitchen/122_kit.jpg,,,,,,,,,0,148,148,324,1318.526760125,,,,,,,,,,,1318.819121667,1318.9838052500002,1318.9838052500002,1318.9838052500002,1318.9838052500002,1318.9838052500002,1318.9838052500002,1318.9838052500002,1318.9838052500002,1318.9838052500002,1326.32400075,-7,7,3,2.0,6.889635584000189,1.0,2.814726875000133,1318.524844542,1318.526760125,1318.9838052500002,1318.8190932500002,,,,,,,,1318.521414625,1318.5247994590002,None,,,,,,,,,,,205,kitchen,2,2024-03-15_13h21.42.244,image_similarity_rating,2023.2.3,None,2024-03-15 13h22.00.542044 +0100,
,116,130,332,332,stimuli/own/kitchen/116_kit.jpg,stimuli/own/kitchen/130_kit.jpg,,,,,,,,,0,149,149,331,1326.335014667,,,,,,,,,,,1326.6188550840002,1326.782178834,1326.782178834,1326.782178834,1326.782178834,1326.782178834,1326.782178834,1326.782178834,1326.782178834,1326.782178834,1332.3378602500002,-7,7,3,3.0,4.493415292000009,1.0,5.480385458000001,1326.327665209,1326.335014667,1326.782178834,1326.61883925,,,,,,,,1326.324218125,1326.3276197500002,None,,,,,,,,,,,205,kitchen,2,2024-03-15_13h21.42.244,image_similarity_rating,2023.2.3,None,2024-03-15 13h22.00.542044 +0100,
,114,140,318,318,stimuli/own/kitchen/114_kit.jpg,stimuli/own/kitchen/140_kit.jpg,,,,,,,,,0,150,150,317,1332.34345875,,,,,,,,,,,1332.635796,1332.801632417,1332.801632417,1332.801632417,1332.801632417,1332.801632417,1332.801632417,1332.801632417,1332.801632417,1332.801632417,1341.8620278340002,7,-7,3,6.0,4.649613624999802,3.0,8.216768624999986,1332.341524917,1332.34345875,1332.801632417,1332.635780792,,,,,,,,1332.338082,1332.341479292,None,,,,,,,,,,,205,kitchen,2,2024-03-15_13h21.42.244,image_similarity_rating,2023.2.3,None,2024-03-15 13h22.00.542044 +0100,
,132,135,561,561,stimuli/own/kitchen/132_kit.jpg,stimuli/own/kitchen/135_kit.jpg,,,,,,,,,0,151,151,560,1341.867944,,,,,,,,,,,1342.1524405,1342.317303542,1342.317303542,1342.317303542,1342.317303542,1342.317303542,1342.317303542,1342.317303542,1342.317303542,1342.317303542,1349.0201771670002,-7,7,3,5.0,4.902913249999983,4.0,5.990674082999931,1341.865816,1341.867944,1342.317303542,1342.15242525,,,,,,,,1341.862246375,1341.86577025,None,,,,,,,,,,,205,kitchen,2,2024-03-15_13h21.42.244,image_similarity_rating,2023.2.3,None,2024-03-15 13h22.00.542044 +0100,
,102,123,51,51,stimuli/own/kitchen/102_kit.jpg,stimuli/own/kitchen/123_kit.jpg,,,,,,,,,0,152,152,50,1349.025923417,,,,,,,,,,,1349.3191329590002,1349.487899417,1349.487899417,1349.487899417,1349.487899417,1349.487899417,1349.487899417,1349.487899417,1349.487899417,1349.487899417,1355.028517334,7,-7,3,4.0,5.540683208000019,6.0,2.296196957999882,1349.02383125,1349.025923417,1349.487899417,1349.3191147500002,,,,,,,,1349.020397625,1349.0237855,None,,,,,,,,,,,205,kitchen,2,2024-03-15_13h21.42.244,image_similarity_rating,2023.2.3,None,2024-03-15 13h22.00.542044 +0100,
,126,137,513,513,stimuli/own/kitchen/126_kit.jpg,stimuli/own/kitchen/137_kit.jpg,,,,,,,,,0,153,153,512,1355.034166209,,,,,,,,,,,1355.319024375,1355.483516125,1355.483516125,1355.483516125,1355.483516125,1355.483516125,1355.483516125,1355.483516125,1355.483516125,1355.483516125,1362.299888834,-7,7,3,5.0,3.333938958999852,2.0,6.093041625000069,1355.032257375,1355.034166209,1355.483516125,1355.3190078750001,,,,,,,,1355.028735042,1355.032210459,None,,,,,,,,,,,205,kitchen,2,2024-03-15_13h21.42.244,image_similarity_rating,2023.2.3,None,2024-03-15 13h22.00.542044 +0100,
,101,129,23,23,stimuli/own/kitchen/101_kit.jpg,stimuli/own/kitchen/129_kit.jpg,,,,,,,,,0,154,154,22,1362.3056012920001,,,,,,,,,,,1362.589563,1362.7534486670002,1362.7534486670002,1362.7534486670002,1362.7534486670002,1362.7534486670002,1362.7534486670002,1362.7534486670002,1362.7534486670002,1362.7534486670002,1368.345219709,7,-7,3,2.0,2.8550233749999734,5.0,5.542409125000177,1362.3036039170001,1362.3056012920001,1362.7534486670002,1362.5895507920002,,,,,,,,1362.3001390420002,1362.3035577090002,None,,,,,,,,,,,205,kitchen,2,2024-03-15_13h21.42.244,image_similarity_rating,2023.2.3,None,2024-03-15 13h22.00.542044 +0100,
,104,141,130,130,stimuli/own/kitchen/104_kit.jpg,stimuli/own/kitchen/141_kit.jpg,,,,,,,,,0,155,155,129,1368.35091025,,,,,,,,,,,1368.635664959,1368.801460459,1368.801460459,1368.801460459,1368.801460459,1368.801460459,1368.801460459,1368.801460459,1368.801460459,1368.801460459,1374.816243,-7,7,3,3.0,5.975814333000017,2.0,3.362160417000041,1368.349001834,1368.35091025,1368.801460459,1368.635649,,,,,,,,1368.3454417500002,1368.3489562920001,None,,,,,,,,,,,205,kitchen,2,2024-03-15_13h21.42.244,image_similarity_rating,2023.2.3,None,2024-03-15 13h22.00.542044 +0100,
,112,118,249,249,stimuli/own/kitchen/112_kit.jpg,stimuli/own/kitchen/118_kit.jpg,,,,,,,,,0,156,156,248,1374.8219780420002,,,,,,,,,,,1375.106648125,1375.270309667,1375.270309667,1375.270309667,1375.270309667,1375.270309667,1375.270309667,1375.270309667,1375.270309667,1375.270309667,1378.820015209,7,-7,3,4.0,3.5604925840000305,1.0,2.452399292000109,1374.820033959,1374.8219780420002,1375.270309667,1375.106635542,,,,,,,,1374.8164658340002,1374.8199878340001,None,,,,,,,,,,,205,kitchen,2,2024-03-15_13h21.42.244,image_similarity_rating,2023.2.3,None,2024-03-15 13h22.00.542044 +0100,
,117,129,353,353,stimuli/own/kitchen/117_kit.jpg,stimuli/own/kitchen/129_kit.jpg,,,,,,,,,0,157,157,352,1378.8257385420002,,,,,,,,,,,1379.1192358750002,1379.290595834,1379.290595834,1379.290595834,1379.290595834,1379.290595834,1379.290595834,1379.290595834,1379.290595834,1379.290595834,1385.0533897090002,-7,7,3,2.0,3.9220720419998543,1.0,5.675649708000037,1378.823750667,1378.8257385420002,1379.290595834,1379.119213959,,,,,,,,1378.8202309590001,1378.823705167,None,,,,,,,,,,,205,kitchen,2,2024-03-15_13h21.42.244,image_similarity_rating,2023.2.3,None,2024-03-15 13h22.00.542044 +0100,
