sub_num,trial,block,task,is_practice,category,image,texture,duration,mask_dur,jitter,stim_time,time_of_resp,trial_response,mask_time,fix_time,jit_onset,trial_end,trial_accuracy,RT
140,6,0,complexity,1,kitchen,kitchen_practice5.tif,230,1.5,0,1.46666666666667,3993.469149833,3997.222945041,4,NaN,3997.228624916,3997.247014833,3998.707076375,NaN,NaN
140,7,0,complexity,1,kitchen,kitchen_practice2.tif,227,1.5,0,1.31666666666667,3998.723358583,4001.422882291,6,NaN,4001.429278333,4001.447603,4002.757672708,NaN,NaN
140,8,0,complexity,1,kitchen,kitchen_practice4.tif,229,1.5,0,1.76666666666667,4002.774975541,4005.797930666,6,NaN,4005.803892583,4005.822079666,4007.582144458,NaN,NaN
140,9,0,complexity,1,kitchen,kitchen_practice1.tif,226,1.5,0,0.816666666666667,4007.600175666,4010.416192791,7,NaN,4010.44539625,4010.468509166,4011.278518291,NaN,NaN
140,10,0,complexity,1,kitchen,kitchen_practice3.tif,228,1.5,0,0.9,4011.286991041,4014.101284875,3,NaN,4014.153050833,4014.176098416,4015.06944,NaN,NaN
140,1,1,complexity,0,kitchen,sun_avszsnwsbuqfgzbn.tif,215,1.5,0,1.15,4019.745758833,4022.91073775,7,NaN,4022.916299875,4022.934756708,4024.07817575,NaN,NaN
140,2,1,complexity,0,kitchen,sun_ahpczsiumwwocjkv.tif,202,1.5,0,1.33333333333333,4024.089558208,4026.534798875,4,NaN,4026.540106375,4026.55843075,4027.885171875,NaN,NaN
140,3,1,complexity,0,kitchen,sun_aeqdocilnnpuvuhx.tif,193,1.5,0,1.75,4027.904734625,4030.326871333,5,NaN,4030.332224833,4030.350605541,4032.0940085,NaN,NaN
140,4,1,complexity,0,kitchen,sun_ahywdevtimnqcsln.tif,204,1.5,0,1.2,4032.112926041,4035.750656875,4,NaN,4035.75613675,4035.774389416,4036.967800791,NaN,NaN
140,5,1,complexity,0,kitchen,sun_aqeaevwwwjoqhzvl.tif,211,1.5,0,1.46666666666667,4036.977669416,4040.246723333,5,NaN,4040.252128583,4040.270694833,4041.730777666,NaN,NaN
140,6,1,complexity,0,kitchen,sun_aehawpgmrlhlvcow.tif,191,1.5,0,1.01666666666667,4041.748651166,4045.07035875,4,NaN,4045.0759225,4045.094232541,4046.104285041,NaN,NaN
140,7,1,complexity,0,kitchen,sun_agorklincwxrdtga.tif,197,1.5,0,1.18333333333333,4046.112126625,4049.094643916,3,NaN,4049.100016541,4049.118184666,4050.294958791,NaN,NaN
140,8,1,complexity,0,kitchen,sun_agzzivivdpnawacl.tif,199,1.5,0,1.03333333333333,4050.30602425,4054.2697605,2,NaN,4054.275645833,4054.294033875,4055.320771666,NaN,NaN
140,9,1,complexity,0,kitchen,sun_acfmftudsenhrfhy.tif,184,1.5,0,1.25,4055.330817875,4058.214033083,5,NaN,4058.219678291,4058.238109916,4059.481525541,NaN,NaN
140,10,1,complexity,0,kitchen,sun_aarfiyshqohlwkmo.tif,177,1.5,0,0.733333333333333,4059.498696166,4062.773846375,6,NaN,4062.779612041,4062.797777625,4063.524455375,NaN,NaN
140,11,1,complexity,0,kitchen,labelme_rykdqxenmhulbdn.tif,173,1.5,0,1.01666666666667,4063.536740666,4067.98213075,3,NaN,4067.987580416,4068.005801125,4069.015855,NaN,NaN
140,12,1,complexity,0,kitchen,sun_aexklacwqwezaorf.tif,194,1.5,0,1.53333333333333,4069.024935666,4072.342470875,5,NaN,4072.347892125,4072.366300125,4073.893070333,NaN,NaN
140,13,1,complexity,0,kitchen,sun_aunzlwrbjumxhwdj.tif,213,1.5,0,1.33333333333333,4073.911653916,4077.205858041,3,NaN,4077.211655166,4077.229952458,4078.556678375,NaN,NaN
140,14,1,complexity,0,kitchen,sun_ahljzhgcdpomplvg.tif,201,1.5,0,1.53333333333333,4078.575312041,4084.206558625,2,NaN,4084.211982708,4084.230297541,4085.757071458,NaN,NaN
140,15,1,complexity,0,kitchen,labelme_kxvouciolcpqplr.tif,172,1.5,0,1.01666666666667,4085.775877583,4088.750088333,2,NaN,4088.755590666,4088.773949083,4089.784005875,NaN,NaN
140,16,1,complexity,0,kitchen,sun_awcpdzzznmweyyhv.tif,216,1.5,0,1.23333333333333,4089.79407025,4099.982612041,4,NaN,4099.988678875,4100.007260833,4101.233993291,NaN,NaN
140,17,1,complexity,0,kitchen,sun_aaxxjlsuzvqlgylf.tif,178,1.5,0,1.18333333333333,4101.250726916,4104.350296875,7,NaN,4104.355798875,4104.37409025,4105.550822375,NaN,NaN
140,18,1,complexity,0,kitchen,sun_aamedkxepzlwuxes.tif,175,1.5,0,0.783333333333333,4105.562428458,4109.157933166,4,NaN,4109.16357225,4109.18205275,4109.958727791,NaN,NaN
140,19,1,complexity,0,kitchen,sun_ajcbwwvdlsvjyzje.tif,206,1.5,0,1.73333333333333,4109.969795208,4112.863251375,2,NaN,4112.900561583,4112.922079916,4114.648830041,NaN,NaN
140,20,1,complexity,0,kitchen,sun_azmutvzbxypaceni.tif,220,1.5,0,1.21666666666667,4114.666435333,4118.114391458,1,NaN,4118.143734416,4118.167822666,4119.377910291,NaN,NaN
140,21,1,complexity,0,kitchen,sun_acxkpeoqbwcxfvip.tif,187,1.5,0,1.26666666666667,4119.397322583,4121.85446975,4,NaN,4121.860783458,4121.879164958,4123.139223333,NaN,NaN
140,22,1,complexity,0,kitchen,sun_aggjlwcdjsjcaemh.tif,196,1.5,0,0.783333333333333,4123.155522083,4126.734005791,3,NaN,4126.740042875,4126.758391125,4127.535065166,NaN,NaN
140,23,1,complexity,0,kitchen,sun_aadbddgrdsjugojn.tif,174,1.5,0,1.48333333333333,4127.540011458,4132.038297958,4,NaN,4132.043811416,4132.062106833,4133.538865333,NaN,NaN
140,24,1,complexity,0,kitchen,sun_acwjdupvyjsugpay.tif,186,1.5,0,1.36666666666667,4133.55721825,4136.653686916,2,NaN,4136.659337916,4136.677638291,4138.037720458,NaN,NaN
140,25,1,complexity,0,kitchen,sun_auticobqsbwgoppi.tif,214,1.5,0,0.983333333333333,4138.053461,4143.373929333,1,NaN,4143.379594041,4143.3979745,4144.374647458,NaN,NaN
140,1,2,complexity,0,kitchen,sun_aixorpehvfykdynp.tif,205,1.5,0,1.26666666666667,4148.753150791,4152.261974291,4,NaN,4152.2683525,4152.286712458,4153.546817375,NaN,NaN
140,2,2,complexity,0,kitchen,sun_aypmqwcualkenuoe.tif,219,1.5,0,1.11666666666667,4153.566515708,4156.694304208,7,NaN,4156.699669541,4156.718036583,4157.828125583,NaN,NaN
140,3,2,complexity,0,kitchen,sun_aymvwlarqodbwuoc.tif,218,1.5,0,1.43333333333333,4157.839005375,4161.213442333,5,NaN,4161.219382333,4161.237944666,4162.6647115,NaN,NaN
140,4,2,complexity,0,kitchen,sun_amjjdeyrggfqgmom.tif,210,1.5,0,0.8,4162.683501833,4166.221360541,4,NaN,4166.227327375,4166.2460335,4167.03937525,NaN,NaN
140,5,2,complexity,0,kitchen,sun_akcjzhbbjlbogpdi.tif,209,1.5,0,0.733333333333333,4167.043867625,4169.805227291,2,NaN,4169.831462666,4169.855298875,4170.581976375,NaN,NaN
140,6,2,complexity,0,kitchen,sun_abdxkyyxwfskuaqb.tif,180,1.5,0,1.03333333333333,4170.588176833,4174.021705875,6,NaN,4174.027300166,4174.045690666,4175.07243475,NaN,NaN
140,7,2,complexity,0,kitchen,sun_acgtpgfybqjmzeyw.tif,185,1.5,0,1.56666666666667,4175.087244166,4179.9573315,3,NaN,4179.963202208,4179.981447666,4181.541528083,NaN,NaN
140,8,2,complexity,0,kitchen,sun_ahdycvpopffkzzsu.tif,200,1.5,0,0.866666666666667,4181.559390583,4185.766075666,2,NaN,4185.771588041,4185.789819125,4186.649828666,NaN,NaN
140,9,2,complexity,0,kitchen,sun_ajkqhtgcbgpcwrwn.tif,207,1.5,0,0.716666666666667,4186.654380708,4195.053320875,3,NaN,4195.059999,4195.078363041,4195.78837125,NaN,NaN
140,10,2,complexity,0,kitchen,sun_agubuxuukhzyzpdp.tif,198,1.5,0,1.33333333333333,4195.792841208,4203.997982791,4,NaN,4204.003406208,4204.02155575,4205.348329125,NaN,NaN
140,11,2,complexity,0,kitchen,sun_aegoxogugdkwpmpj.tif,190,1.5,0,1.01666666666667,4205.3681,4208.645473833,6,NaN,4208.651164166,4208.670008625,4209.680086916,NaN,NaN
140,12,2,complexity,0,kitchen,sun_aenotlpyftoioydp.tif,192,1.5,0,0.733333333333333,4209.688638,4218.205892708,3,NaN,4218.211378583,4218.22965025,4218.956326458,NaN,NaN
140,13,2,complexity,0,kitchen,sun_auaiucuqpdausiva.tif,212,1.5,0,1.38333333333333,4218.96102225,4222.229218666,5,NaN,4222.23528475,4222.253620333,4223.630387541,NaN,NaN
140,14,2,complexity,0,kitchen,sun_aapllqyqlykszopd.tif,176,1.5,0,1.06666666666667,4223.649771458,4228.725507958,4,NaN,4228.731212458,4228.749474583,4229.809556,NaN,NaN
140,15,2,complexity,0,kitchen,sun_adgqasybjyktddhj.tif,188,1.5,0,0.85,4229.820283833,4232.70163275,2,NaN,4232.707196166,4232.725536625,4233.568880625,NaN,NaN
140,16,2,complexity,0,kitchen,labelme_brsyyvweiuaazfr.tif,171,1.5,0,0.9,4233.585913125,4238.205146875,5,NaN,4238.211520875,4238.229895708,4239.123237833,NaN,NaN
140,17,2,complexity,0,kitchen,sun_admlmbcdswaszruo.tif,189,1.5,0,1.55,4239.127821333,4241.849274166,3,NaN,4241.877112708,4241.900461958,4243.443896125,NaN,NaN
140,18,2,complexity,0,kitchen,sun_abrcnpqqhmjwekyf.tif,183,1.5,0,0.7,4243.462565083,4246.293693291,4,NaN,4246.299098875,4246.317521,4247.010861625,NaN,NaN
140,19,2,complexity,0,kitchen,sun_abdenxonkemggwsq.tif,179,1.5,0,0.716666666666667,4247.019310416,4250.901434958,6,NaN,4250.907108958,4250.925462791,4251.635472,NaN,NaN
140,20,2,complexity,0,kitchen,sun_akchetnepxlcxhsu.tif,208,1.5,0,0.85,4251.639756625,4254.47303475,3,NaN,4254.500746416,4254.5239385,4255.36728225,NaN,NaN
140,21,2,complexity,0,kitchen,sun_axyyrmzcupyhlivc.tif,217,1.5,0,1.35,4255.372040583,4259.197952333,3,NaN,4259.203320666,4259.221465541,4260.56488775,NaN,NaN
140,22,2,complexity,0,kitchen,sun_abftihopvusyfakt.tif,181,1.5,0,1.96666666666667,4260.58126125,4263.605026625,4,NaN,4263.610503541,4263.628847125,4265.588915291,NaN,NaN
140,23,2,complexity,0,kitchen,sun_afuyedyxivkhecmu.tif,195,1.5,0,0.933333333333333,4265.606910166,4268.524447708,6,NaN,4268.550078041,4268.573686791,4269.500363416,NaN,NaN
140,24,2,complexity,0,kitchen,sun_ahspylgoovwmwvgk.tif,203,1.5,0,1.33333333333333,4269.505221625,4273.069230666,2,NaN,4273.074986833,4273.093244916,4274.420017041,NaN,NaN
140,25,2,complexity,0,kitchen,sun_abpwyqmlzafvklqo.tif,182,1.5,0,1.16666666666667,4274.439754041,4277.037961666,2,NaN,4277.0433855,4277.061721083,4278.221782208,NaN,NaN
