sub_num,trial,block,task,is_practice,category,image,texture,duration,mask_dur,jitter,stim_time,time_of_resp,trial_response,mask_time,fix_time,jit_onset,trial_end,trial_accuracy,RT
138,1,0,categorization,1,bathroom,SHINEd_bathroom_practice1.tif,111,0.0666666666666667,0.0666666666666667,1.21666666666667,7070.331902708,7071.131390916,13,7070.397896,7070.457826,7071.161157833,7072.3713665,1,0.799488208000184
138,2,0,categorization,1,kitchen,SHINEd_kitchen_practice5.tif,120,0.0666666666666667,0.0666666666666667,1.36666666666667,7072.430727833,7073.244278958,9,7072.504249375,7072.565386833,7073.288055541,7074.648286916,1,0.813551125000231
138,3,0,categorization,1,bathroom,SHINEd_bathroom_practice3.tif,113,0.0666666666666667,0.0666666666666667,1.85,7074.701911625,7075.574156458,13,7074.776541541,7074.837598791,7075.602799416,7077.446363166,1,0.872244832999968
138,4,0,categorization,1,kitchen,SHINEd_kitchen_practice2.tif,117,0.0666666666666667,0.0666666666666667,1.55,7077.474095916,7078.447572208,9,7077.544205291,7077.608501083,7078.485539416,7080.029100708,1,0.973476291999759
138,5,0,categorization,1,bathroom,SHINEd_bathroom_practice4.tif,114,0.0666666666666667,0.0666666666666667,1.48333333333333,7080.064131041,7080.85258625,13,7080.137705166,7080.198755625,7080.892990708,7082.37070275,1,0.788455208999949
138,6,0,categorization,1,bathroom,SHINEd_bathroom_practice2.tif,112,0.0666666666666667,0.0666666666666667,1.15,7082.398332291,7083.777968291,13,7082.46744725,7082.532622375,7083.810321833,7084.953834875,1,1.37963600000057
138,7,0,categorization,1,kitchen,SHINEd_kitchen_practice3.tif,118,0.0666666666666667,0.0666666666666667,0.733333333333333,7084.9658225,7085.668598166,9,7085.032792875,7085.100341458,7085.689581291,7086.416399666,1,0.70277566599998
138,8,0,categorization,1,kitchen,SHINEd_kitchen_practice1.tif,116,0.0666666666666667,0.0666666666666667,1.6,7086.435025791,7087.347509083,9,7086.502456583,7086.568281916,7087.353622125,7088.94700725,1,0.912483291999706
138,9,0,categorization,1,kitchen,SHINEd_kitchen_practice4.tif,119,0.0666666666666667,0.0666666666666667,0.716666666666667,7088.966928916,7089.754161375,9,7089.033801625,7089.101213666,7089.775080958,7090.485090875,1,0.787232458999824
138,10,0,categorization,1,bathroom,SHINEd_bathroom_practice5.tif,115,0.0666666666666667,0.0666666666666667,1.21666666666667,7090.491010791,7091.300337458,9,7090.552669791,7090.613778333,7091.315721375,7092.525776875,0,0.809326667000278
138,1,1,categorization,0,bathroom,SHINEd_sun_alotolagknyrgtsk.tif,35,0.0666666666666667,0.0666666666666667,1.23333333333333,7112.630748416,7113.363345291,9,7112.693223166,7112.753501916,7113.37206225,7114.598772541,0,0.732596875000127
138,2,1,categorization,0,bathroom,SHINEd_sun_ambriybtogmepttm.tif,36,0.0666666666666667,0.0666666666666667,0.783333333333333,7114.617192125,7115.440486708,9,7114.683791416,7114.750352041,7115.456212541,7116.232914125,0,0.823294583000461
138,3,1,categorization,0,kitchen,SHINEd_sun_azmutvzbxypaceni.tif,110,0.0666666666666667,0.0666666666666667,0.75,7116.249537916,7116.932240708,9,7116.316690291,7116.382583833,7116.951493291,7117.694832083,1,0.682702791999873
138,4,1,categorization,0,kitchen,SHINEd_sun_abrcnpqqhmjwekyf.tif,73,0.0666666666666667,0.0666666666666667,1.23333333333333,7117.700706541,7118.427524916,9,7117.762357208,7117.823498375,7118.44189825,7119.668624,1,0.726818375000221
138,5,1,categorization,0,kitchen,SHINEd_sun_abdxkyyxwfskuaqb.tif,70,0.0666666666666667,0.0666666666666667,1.13333333333333,7119.685776125,7120.548608125,13,7119.752636541,7119.818568041,7120.575273833,7121.701986583,0,0.862831999999798
138,6,1,categorization,0,bathroom,SHINEd_sun_agguqiubmwhqqunb.tif,22,0.0666666666666667,0.0666666666666667,0.95,7121.719944333,7122.560003458,13,7121.787201875,7121.85295975,7122.575411916,7123.518806416,1,0.840059125000153
138,7,1,categorization,0,bathroom,SHINEd_sun_akiytfaagpdsphgz.tif,31,0.0666666666666667,0.0666666666666667,0.733333333333333,7123.536472458,7124.307519666,13,7123.603369083,7123.669481291,7124.321520958,7125.048191541,1,0.7710472079998
138,8,1,categorization,0,bathroom,SHINEd_sun_agrwbmhcpmfuwmsg.tif,24,0.0666666666666667,0.0666666666666667,1.31666666666667,7125.053936208,7126.012104791,9,7125.115621208,7125.176702416,7126.029021708,7127.339177875,0,0.958168582999861
138,9,1,categorization,0,bathroom,SHINEd_sun_acduarbnmmoglmiv.tif,16,0.0666666666666667,0.0666666666666667,0.8,7127.349859166,7128.065475208,9,7127.416739375,7127.482763833,7128.08955375,7128.882920875,0,0.715616041999965
138,10,1,categorization,0,bathroom,SHINEd_sun_aoybiabnpadelefl.tif,41,0.0666666666666667,0.0666666666666667,0.716666666666667,7128.899362125,7129.675602791,13,7128.96635875,7129.032072708,7129.684197875,7130.394202666,1,0.776240665999467
138,11,1,categorization,0,kitchen,SHINEd_sun_acfmftudsenhrfhy.tif,74,0.0666666666666667,0.0666666666666667,0.916666666666667,7130.399939958,7131.156032583,9,7130.46158275,7130.52264925,7131.174525791,7132.084532041,1,0.756092624999837
138,12,1,categorization,0,bathroom,SHINEd_sun_aljolscmmzydegqp.tif,33,0.0666666666666667,0.0666666666666667,0.95,7132.090203041,7132.811073208,13,7132.151914125,7132.212992833,7132.814671416,7133.75801025,1,0.720870167000612
138,13,1,categorization,0,kitchen,SHINEd_sun_agorklincwxrdtga.tif,87,0.0666666666666667,0.0666666666666667,0.833333333333333,7133.763841,7134.523459916,9,7133.825579333,7133.886540166,7134.538323916,7135.364995583,1,0.759618916000363
138,14,1,categorization,0,bathroom,SHINEd_sun_ausgutylgojavyoq.tif,53,0.0666666666666667,0.0666666666666667,0.75,7135.370111625,7136.131570291,13,7135.431758958,7135.492938083,7136.144840166,7136.888177375,1,0.761458665999271
138,15,1,categorization,0,bathroom,SHINEd_sun_atstyziqcmkahyxk.tif,51,0.0666666666666667,0.0666666666666667,1.53333333333333,7136.896112083,7137.659569041,13,7136.957968791,7137.018774625,7137.670910541,7139.197613958,1,0.763456958000461
138,16,1,categorization,0,bathroom,SHINEd_sun_amzlamotzwfkwjco.tif,37,0.0666666666666667,0.0666666666666667,1.05,7139.208939916,7140.088847333,9,7139.273639583,7139.3400685,7140.113362208,7141.156731291,0,0.879907416999231
138,17,1,categorization,0,bathroom,SHINEd_sun_acgyywnybuveqsro.tif,18,0.0666666666666667,0.0666666666666667,0.9,7141.166228125,7141.925930125,13,7141.230999416,7141.297154,7141.953693958,7142.847076083,1,0.759702000000289
138,18,1,categorization,0,kitchen,SHINEd_sun_amjjdeyrggfqgmom.tif,100,0.0666666666666667,0.0666666666666667,1.18333333333333,7142.863641708,7143.571516875,9,7142.930300916,7142.996311583,7143.581835708,7144.758532541,1,0.707875167000566
138,19,1,categorization,0,bathroom,SHINEd_sun_anhioqovhscjqqwb.tif,38,0.0666666666666667,0.0666666666666667,0.9,7144.768826916,7145.741881375,13,7144.835834083,7144.901752625,7145.757895166,7146.651234875,1,0.973054459000195
138,20,1,categorization,0,bathroom,SHINEd_sun_agyqfjcfkdcydepw.tif,25,0.0666666666666667,0.0666666666666667,1.66666666666667,7146.657154416,7147.684129583,13,7146.719158291,7146.779923833,7147.698787208,7149.358839958,1,1.02697516700027
138,21,1,categorization,0,bathroom,SHINEd_sun_alkosphxlxwjwgjd.tif,34,0.0666666666666667,0.0666666666666667,1.13333333333333,7149.371172833,7150.237384041,13,7149.438372333,7149.5041595,7150.261172458,7151.387894541,1,0.866211208000095
138,22,1,categorization,0,bathroom,SHINEd_sun_apynckhmoftszqoq.tif,47,0.0666666666666667,0.0666666666666667,1.3,7151.397792291,7152.076305458,13,7151.462391958,7151.53130325,7152.104955458,7153.398297208,1,0.678513167000347
138,23,1,categorization,0,kitchen,SHINEd_sun_aeqdocilnnpuvuhx.tif,83,0.0666666666666667,0.0666666666666667,1.93333333333333,7153.40492275,7154.019280875,9,7153.46673175,7153.527698583,7154.029877125,7155.956580875,1,0.614358124999853
138,24,1,categorization,0,bathroom,SHINEd_sun_ahaulkltgpkeeemi.tif,26,0.0666666666666667,0.0666666666666667,1,7155.976098416,7156.745581166,13,7156.042653041,7156.108927958,7156.766164625,7157.759504708,1,0.769482749999952
138,25,1,categorization,0,bathroom,SHINEd_sun_aunuadmjocsddsrl.tif,52,0.0666666666666667,0.0666666666666667,0.883333333333333,7157.765536041,7158.330964666,13,7157.827296916,7157.888220916,7158.3401595,7159.21683075,1,0.565428625000095
138,26,1,categorization,0,kitchen,SHINEd_sun_admlmbcdswaszruo.tif,79,0.0666666666666667,0.0666666666666667,1.95,7159.221730458,7160.019854958,9,7159.283354666,7159.344580041,7160.030123583,7161.9734995,1,0.798124500000085
138,27,1,categorization,0,kitchen,SHINEd_sun_acxkpeoqbwcxfvip.tif,77,0.0666666666666667,0.0666666666666667,1.25,7161.992339166,7162.64940325,9,7162.059104291,7162.124815875,7162.663862375,7163.907235208,1,0.657064084000012
138,28,1,categorization,0,kitchen,SHINEd_sun_ahywdevtimnqcsln.tif,94,0.0666666666666667,0.0666666666666667,1.95,7163.924675916,7164.524706291,9,7163.991481333,7164.057296,7164.547468,7166.490857708,1,0.600030375000642
138,29,1,categorization,0,kitchen,SHINEd_sun_aymvwlarqodbwuoc.tif,108,0.0666666666666667,0.0666666666666667,1.91666666666667,7166.505230958,7167.084813375,9,7166.572735791,7166.638566333,7167.112023583,7169.022069958,1,0.579582416999983
138,30,1,categorization,0,bathroom,SHINEd_sun_awnqiikzaispgmwo.tif,56,0.0666666666666667,0.0666666666666667,1.41666666666667,7169.039375541,7169.859579791,13,7169.106349833,7169.170681583,7169.87736625,7171.287385791,1,0.820204250000643
138,31,1,categorization,0,bathroom,SHINEd_sun_aavhrsfjbserjtht.tif,13,0.0666666666666667,0.0666666666666667,0.716666666666667,7171.297137541,7172.421226541,9,7171.362042916,7171.430095833,7172.43652825,7173.146532666,0,1.12408899999991
138,32,1,categorization,0,bathroom,SHINEd_sun_axldvoqbuvuggfmq.tif,57,0.0666666666666667,0.0666666666666667,1.28333333333333,7173.15216525,7174.227842625,9,7173.213881916,7173.274876,7174.244074666,7175.520776916,0,1.07567737500085
138,33,1,categorization,0,bathroom,SHINEd_sun_aggnnqpdorgxpvce.tif,21,0.0666666666666667,0.0666666666666667,0.9,7175.536906666,7176.239548416,9,7175.605027583,7175.670046,7176.259752791,7177.153110583,0,0.702641750000112
138,34,1,categorization,0,kitchen,SHINEd_sun_acwjdupvyjsugpay.tif,76,0.0666666666666667,0.0666666666666667,0.8,7177.162374166,7177.931151416,9,7177.229418791,7177.290566958,7177.943025958,7178.736364625,1,0.768777250000312
138,35,1,categorization,0,bathroom,SHINEd_sun_acegryoqftbzowsg.tif,17,0.0666666666666667,0.0666666666666667,1.01666666666667,7178.742136166,7179.3634875,13,7178.803856958,7178.865008083,7179.366819166,7180.376864541,1,0.621351333999883
138,36,1,categorization,0,kitchen,SHINEd_sun_aunzlwrbjumxhwdj.tif,103,0.0666666666666667,0.0666666666666667,0.85,7180.388877416,7181.143452458,9,7180.454004291,7180.519984375,7181.157123833,7182.000499958,1,0.754575042000397
138,37,1,categorization,0,kitchen,SHINEd_sun_ahljzhgcdpomplvg.tif,91,0.0666666666666667,0.0666666666666667,1.51666666666667,7182.016130583,7183.475614125,9,7182.082944958,7182.148876125,7183.484752875,7184.994791458,1,1.45948354200027
138,38,1,categorization,0,kitchen,SHINEd_sun_auticobqsbwgoppi.tif,104,0.0666666666666667,0.0666666666666667,1.83333333333333,7185.014475125,7185.757270291,9,7185.081984125,7185.145481541,7185.786136333,7187.612854166,1,0.742795166000178
138,39,1,categorization,0,bathroom,SHINEd_sun_aqrpegblszgcoujh.tif,48,0.0666666666666667,0.0666666666666667,0.716666666666667,7187.630885208,7188.3674285,13,7187.697727791,7187.764508916,7188.388420375,7189.098426916,1,0.736543291999624
138,40,1,categorization,0,kitchen,SHINEd_sun_ajkqhtgcbgpcwrwn.tif,97,0.0666666666666667,0.0666666666666667,0.9,7189.104325791,7189.603240666,13,7189.165960541,7189.226998833,7189.612195791,7190.505534083,0,0.498914875000082
138,41,1,categorization,0,kitchen,SHINEd_sun_acgtpgfybqjmzeyw.tif,75,0.0666666666666667,0.0666666666666667,0.916666666666667,7190.512055833,7191.219866708,9,7190.573805458,7190.63476475,7191.2363415,7192.146347041,1,0.707810875000177
138,42,1,categorization,0,bathroom,SHINEd_sun_apkruvsevgegsdwp.tif,44,0.0666666666666667,0.0666666666666667,0.816666666666667,7192.151936,7192.61135725,9,7192.2135765,7192.274640541,7192.626445333,7193.4364505,0,0.45942124999965
138,43,1,categorization,0,kitchen,SHINEd_sun_axyyrmzcupyhlivc.tif,107,0.0666666666666667,0.0666666666666667,1.88333333333333,7193.441657,7194.003957833,9,7193.5034405,7193.564324625,7194.016057125,7195.8927705,1,0.562300832999426
138,44,1,categorization,0,bathroom,SHINEd_sun_avhrdrntsqrjzccq.tif,55,0.0666666666666667,0.0666666666666667,0.9,7195.913797625,7196.623396208,9,7195.98057225,7196.046766666,7196.6534115,7197.546751291,0,0.709598582999206
138,45,1,categorization,0,bathroom,SHINEd_sun_apjevzvycyhuqghb.tif,43,0.0666666666666667,0.0666666666666667,1,7197.552528625,7198.235174125,9,7197.614170041,7197.675295166,7198.243652375,7199.236990375,0,0.682645500000035
138,46,1,categorization,0,bathroom,SHINEd_sun_aspsyogrekjtfozg.tif,50,0.0666666666666667,0.0666666666666667,0.733333333333333,7199.241829375,7200.522867333,9,7199.303484458,7199.364488791,7200.533571625,7201.260241875,0,1.28103795800052
138,47,1,categorization,0,kitchen,SHINEd_sun_aaxxjlsuzvqlgylf.tif,68,0.0666666666666667,0.0666666666666667,0.883333333333333,7201.264769583,7202.139813375,9,7201.326596166,7201.3876745,7202.156132583,7203.032804083,1,0.875043791999815
138,48,1,categorization,0,bathroom,SHINEd_sun_afcoljnjfoxjtgja.tif,20,0.0666666666666667,0.0666666666666667,1.73333333333333,7203.038599833,7203.443437291,13,7203.10034425,7203.1613595,7203.446268916,7205.172993291,1,0.404837457999747
138,49,1,categorization,0,kitchen,SHINEd_sun_akcjzhbbjlbogpdi.tif,99,0.0666666666666667,0.0666666666666667,1.91666666666667,7205.184154958,7205.784537166,9,7205.248295125,7205.315608833,7205.805851791,7207.71591225,1,0.600382207999246
138,50,1,categorization,0,kitchen,SHINEd_sun_aexklacwqwezaorf.tif,84,0.0666666666666667,0.0666666666666667,1.35,7207.735905625,7208.412325416,9,7207.802690333,7207.868880625,7208.423458833,7209.766829791,1,0.676419791000626
138,1,2,categorization,0,bathroom,SHINEd_sun_apkxzenqapsujocq.tif,45,0.0666666666666667,0.0666666666666667,0.95,7218.375497625,7219.011266125,13,7218.438028,7218.49823675,7219.016854625,7219.960194125,1,0.635768499999358
138,2,2,categorization,0,kitchen,SHINEd_sun_agzzivivdpnawacl.tif,89,0.0666666666666667,0.0666666666666667,0.75,7219.966055458,7221.074957166,13,7220.027770208,7220.088774083,7221.090517,7221.833854833,0,1.1089017080003
138,3,2,categorization,0,kitchen,SHINEd_labelme_brsyyvweiuaazfr.tif,61,0.0666666666666667,0.0666666666666667,1.68333333333333,7221.839356291,7222.699309916,9,7221.901099833,7221.962147,7222.714235083,7224.390946166,1,0.859953625000344
138,4,2,categorization,0,kitchen,SHINEd_sun_afuyedyxivkhecmu.tif,85,0.0666666666666667,0.0666666666666667,0.816666666666667,7224.408953875,7225.09061175,9,7224.475450041,7224.541559333,7225.115067625,7225.925073875,1,0.681657874999473
138,5,2,categorization,0,kitchen,SHINEd_sun_akchetnepxlcxhsu.tif,98,0.0666666666666667,0.0666666666666667,0.916666666666667,7225.931085875,7226.699164208,13,7225.992866583,7226.05369375,7226.7056075,7227.615613333,0,0.768078333000631
138,6,2,categorization,0,bathroom,SHINEd_sun_asfwthctfqerjvxr.tif,49,0.0666666666666667,0.0666666666666667,1.21666666666667,7227.621466541,7228.355918375,9,7227.683234375,7227.744205833,7228.362691458,7229.572740708,0,0.734451834000538
138,7,2,categorization,0,bathroom,SHINEd_sun_apeeialkgkuxddgh.tif,42,0.0666666666666667,0.0666666666666667,0.9,7229.590559291,7230.302468291,9,7229.657543708,7229.724108625,7230.31141375,7231.204784625,0,0.71190899999965
138,8,2,categorization,0,kitchen,SHINEd_sun_aqeaevwwwjoqhzvl.tif,101,0.0666666666666667,0.0666666666666667,1.65,7231.217263958,7231.842938,13,7231.282898416,7231.348838125,7231.850898416,7233.494281125,0,0.625674041999446
138,9,2,categorization,0,kitchen,SHINEd_sun_ahpczsiumwwocjkv.tif,92,0.0666666666666667,0.0666666666666667,1.15,7233.513311583,7234.286471875,9,7233.5802975,7233.646106875,7234.301108083,7235.444484208,1,0.773160291999375
138,10,2,categorization,0,kitchen,SHINEd_sun_auaiucuqpdausiva.tif,102,0.0666666666666667,0.0666666666666667,1.13333333333333,7235.454028666,7236.413191208,9,7235.521080666,7235.586843,7236.44352275,7237.570228583,1,0.959162541999831
138,11,2,categorization,0,kitchen,SHINEd_sun_adgqasybjyktddhj.tif,78,0.0666666666666667,0.0666666666666667,1.76666666666667,7237.581125166,7238.228100416,9,7237.647845166,7237.714410208,7238.254861208,7240.014906208,1,0.646975250000651
138,12,2,categorization,0,kitchen,SHINEd_sun_agubuxuukhzyzpdp.tif,88,0.0666666666666667,0.0666666666666667,1.8,7240.033294875,7240.735196708,9,7240.100095083,7240.166470625,7240.756740583,7242.550119708,1,0.701901833000193
138,13,2,categorization,0,bathroom,SHINEd_sun_ahqjwnzgolcaoidx.tif,29,0.0666666666666667,0.0666666666666667,0.9,7242.567302583,7243.27490075,13,7242.634243083,7242.700237,7243.28843025,7244.181768833,1,0.70759816699956
138,14,2,categorization,0,kitchen,SHINEd_sun_aehawpgmrlhlvcow.tif,81,0.0666666666666667,0.0666666666666667,0.716666666666667,7244.1877855,7244.851855541,9,7244.249537333,7244.31054025,7244.862428416,7245.572432,1,0.664070040999832
138,15,2,categorization,0,kitchen,SHINEd_sun_aggjlwcdjsjcaemh.tif,86,0.0666666666666667,0.0666666666666667,1.36666666666667,7245.578656791,7246.139081083,9,7245.640521916,7245.70141075,7246.153099416,7247.5131345,1,0.56042429199988
138,16,2,categorization,0,kitchen,SHINEd_sun_aarfiyshqohlwkmo.tif,67,0.0666666666666667,0.0666666666666667,0.916666666666667,7247.525904708,7248.178750458,9,7247.592532458,7247.658984541,7248.198004375,7249.108061,1,0.652845749999869
138,17,2,categorization,0,kitchen,SHINEd_sun_avszsnwsbuqfgzbn.tif,105,0.0666666666666667,0.0666666666666667,0.716666666666667,7249.125787833,7249.771047375,9,7249.19123275,7249.250108375,7249.785363708,7250.495368625,1,0.645259542000531
138,18,2,categorization,0,bathroom,SHINEd_sun_apmqjbnwghzuhhzh.tif,46,0.0666666666666667,0.0666666666666667,0.766666666666667,7250.501076291,7251.283408125,13,7250.562838125,7250.623820791,7251.29218575,7252.052191041,1,0.782331834000615
138,19,2,categorization,0,bathroom,SHINEd_sun_axxbkopsgyouuebh.tif,58,0.0666666666666667,0.0666666666666667,1.06666666666667,7252.057960291,7252.619607833,13,7252.119863041,7252.180635958,7252.632638833,7253.692684333,1,0.561647542000173
138,20,2,categorization,0,bathroom,SHINEd_sun_aapitsgbtktqubfy.tif,12,0.0666666666666667,0.0666666666666667,0.8,7253.703840791,7254.418428458,13,7253.76886,7253.835205958,7254.442193916,7255.2355895,1,0.71458766699925
138,21,2,categorization,0,bathroom,SHINEd_sun_anryaplzeujmzfkd.tif,39,0.0666666666666667,0.0666666666666667,0.866666666666667,7255.245941958,7255.899537916,9,7255.311005583,7255.377806416,7255.913824833,7256.773829833,0,0.653595957999642
138,22,2,categorization,0,kitchen,SHINEd_sun_abftihopvusyfakt.tif,71,0.0666666666666667,0.0666666666666667,1.48333333333333,7256.779497416,7257.418891625,9,7256.84134575,7256.902202,7257.437504291,7258.914218791,1,0.639394208999875
138,23,2,categorization,0,kitchen,SHINEd_sun_aegoxogugdkwpmpj.tif,80,0.0666666666666667,0.0666666666666667,1.1,7258.932391875,7259.701864291,9,7258.999892666,7259.065722708,7259.724399,7260.817787625,1,0.769472416000099
138,24,2,categorization,0,bathroom,SHINEd_labelme_sfxiulhjbhlyiyt.tif,11,0.0666666666666667,0.0666666666666667,0.783333333333333,7260.830330625,7261.446272916,13,7260.89639025,7260.963520833,7261.470252958,7262.24695675,1,0.615942291000465
138,25,2,categorization,0,kitchen,SHINEd_labelme_rykdqxenmhulbdn.tif,63,0.0666666666666667,0.0666666666666667,0.866666666666667,7262.264602583,7262.843857083,9,7262.332622,7262.397989458,7262.851009875,7263.711014333,1,0.579254500000388
138,26,2,categorization,0,bathroom,SHINEd_sun_azqyogdvyhahyram.tif,60,0.0666666666666667,0.0666666666666667,1.83333333333333,7263.716786666,7264.323710666,9,7263.778440708,7263.83947475,7264.341494333,7266.16821925,0,0.606923999999708
138,27,2,categorization,0,bathroom,SHINEd_sun_auzqhkafidnkrwmo.tif,54,0.0666666666666667,0.0666666666666667,0.7,7266.18844575,7266.8307855,13,7266.256059708,7266.321925541,7266.8452145,7267.538553916,1,0.642339750000247
138,28,2,categorization,0,kitchen,SHINEd_sun_abpwyqmlzafvklqo.tif,72,0.0666666666666667,0.0666666666666667,1.33333333333333,7267.544661916,7268.394827291,9,7267.606532083,7267.6675745,7268.402754916,7269.729468208,1,0.85016537499996
138,29,2,categorization,0,kitchen,SHINEd_sun_aypmqwcualkenuoe.tif,109,0.0666666666666667,0.0666666666666667,1.33333333333333,7269.747549,7270.450925791,9,7269.814503875,7269.88049475,7270.47056425,7271.797282208,1,0.703376791000665
138,30,2,categorization,0,kitchen,SHINEd_sun_abdenxonkemggwsq.tif,69,0.0666666666666667,0.0666666666666667,1.38333333333333,7271.816064333,7272.508014916,13,7271.883009041,7271.949212916,7272.5217145,7273.898442166,0,0.691950583000107
138,31,2,categorization,0,bathroom,SHINEd_sun_abjtwfukuwddzted.tif,15,0.0666666666666667,0.0666666666666667,1.25,7273.915453708,7274.72587375,9,7273.982556208,7274.048716291,7274.737241875,7275.980618208,0,0.81042004199935
138,32,2,categorization,0,bathroom,SHINEd_sun_aofnryafpsjimzsb.tif,40,0.0666666666666667,0.0666666666666667,1.55,7275.995526458,7276.719345166,9,7276.0627725,7276.128378541,7276.733666791,7278.277060708,0,0.723818707999271
138,33,2,categorization,0,bathroom,SHINEd_sun_aleqenyvunhactkl.tif,32,0.0666666666666667,0.0666666666666667,1.61666666666667,7278.297002291,7279.354682708,13,7278.364078791,7278.429806625,7279.368170458,7280.978218666,1,1.05768041699957
138,34,2,categorization,0,bathroom,SHINEd_sun_ahijqszoswveeyji.tif,28,0.0666666666666667,0.0666666666666667,1.33333333333333,7280.996722166,7281.60591175,9,7281.063347583,7281.129611583,7281.636510625,7282.963221583,0,0.609189583999978
138,35,2,categorization,0,kitchen,SHINEd_labelme_kxvouciolcpqplr.tif,62,0.0666666666666667,0.0666666666666667,0.833333333333333,7282.978649083,7283.438345083,9,7283.045968041,7283.111432583,7283.468468833,7284.295195083,1,0.459695999999894
138,36,2,categorization,0,bathroom,SHINEd_sun_aghyqhbptboemmoq.tif,23,0.0666666666666667,0.0666666666666667,1.45,7284.313092458,7284.850778708,9,7284.380188583,7284.446023333,7284.865162083,7286.308541083,0,0.537686249999751
138,37,2,categorization,0,kitchen,SHINEd_sun_aadbddgrdsjugojn.tif,64,0.0666666666666667,0.0666666666666667,0.933333333333333,7286.327174083,7286.7319785,13,7286.394586041,7286.460498083,7286.749679125,7287.67640175,0,0.404804417000378
138,38,2,categorization,0,kitchen,SHINEd_sun_aenotlpyftoioydp.tif,82,0.0666666666666667,0.0666666666666667,1.65,7287.693383541,7287.972581458,13,7287.759954375,7287.826646083,7287.998046166,7289.641436041,0,0.279197916999692
138,39,2,categorization,0,bathroom,SHINEd_sun_aclfzgynxzxlbepz.tif,19,0.0666666666666667,0.0666666666666667,1.23333333333333,7289.660875791,7290.383569875,13,7289.728096958,7289.793783,7290.399736083,7291.62644075,1,0.722694084000068
138,40,2,categorization,0,bathroom,SHINEd_sun_ajlawzvmubibwbpy.tif,30,0.0666666666666667,0.0666666666666667,0.766666666666667,7291.643873625,7292.503071083,9,7291.711051083,7291.7770015,7292.534455875,7293.29447675,0,0.859197457999471
138,41,2,categorization,0,kitchen,SHINEd_sun_awcpdzzznmweyyhv.tif,106,0.0666666666666667,0.0666666666666667,1.78333333333333,7293.303070166,7293.826906958,9,7293.369092375,7293.436059791,7293.83807875,7295.614807958,1,0.523836792000111
138,42,2,categorization,0,kitchen,SHINEd_sun_ajcbwwvdlsvjyzje.tif,96,0.0666666666666667,0.0666666666666667,1.11666666666667,7295.632704166,7296.063145916,9,7295.699636458,7295.766037833,7296.08934425,7297.199385791,1,0.430441750000682
138,43,2,categorization,0,kitchen,SHINEd_sun_aapllqyqlykszopd.tif,66,0.0666666666666667,0.0666666666666667,1.85,7297.209644416,7297.546614541,13,7297.274738416,7297.341047875,7297.563951166,7299.407320708,0,0.336970125000335
138,44,2,categorization,0,bathroom,SHINEd_sun_abapwbhyhkfixyex.tif,14,0.0666666666666667,0.0666666666666667,0.733333333333333,7299.425492,7300.015104708,9,7299.492028041,7299.558174291,7300.031369625,7300.75809075,0,0.589612707999549
138,45,2,categorization,0,bathroom,SHINEd_sun_ahcvzmoyaycdoftf.tif,27,0.0666666666666667,0.0666666666666667,0.783333333333333,7300.770326666,7301.475433375,13,7300.837512291,7300.903593416,7301.48926125,7302.265933375,1,0.705106708999665
138,46,2,categorization,0,kitchen,SHINEd_sun_aixorpehvfykdynp.tif,95,0.0666666666666667,0.0666666666666667,1.5,7302.271672958,7302.898805375,9,7302.333349875,7302.394545958,7302.913306541,7304.406677166,1,0.627132417000212
138,47,2,categorization,0,kitchen,SHINEd_sun_aamedkxepzlwuxes.tif,65,0.0666666666666667,0.0666666666666667,0.733333333333333,7304.425378833,7305.218713916,9,7304.4920135,7304.558310416,7305.230357958,7305.957071041,1,0.793335082999874
138,48,2,categorization,0,bathroom,SHINEd_sun_axyrejkiiaqiurjk.tif,59,0.0666666666666667,0.0666666666666667,1.1,7305.974123791,7306.6111735,9,7306.036754625,7306.096880583,7306.615777958,7307.709170541,0,0.637049709000166
138,49,2,categorization,0,kitchen,SHINEd_sun_ahspylgoovwmwvgk.tif,93,0.0666666666666667,0.0666666666666667,1.6,7307.720054125,7308.3199015,9,7307.785604333,7307.853244708,7308.342064041,7309.935450541,1,0.599847374999626
138,50,2,categorization,0,kitchen,SHINEd_sun_ahdycvpopffkzzsu.tif,90,0.0666666666666667,0.0666666666666667,1.06666666666667,7309.954061666,7310.871894291,9,7310.021025708,7310.087761166,7310.893596208,7311.9536575,1,0.917832625000301
138,1,3,categorization,0,bathroom,SHINEd_sun_apkxzenqapsujocq.tif,45,0.0666666666666667,0.0666666666666667,0.85,7316.968420625,7317.690538,13,7317.030694541,7317.091243875,7317.710069666,7318.55340775,1,0.72211737499947
138,2,3,categorization,0,bathroom,SHINEd_sun_aqrpegblszgcoujh.tif,48,0.0666666666666667,0.0666666666666667,1.65,7318.559148833,7319.323086541,13,7318.620885708,7318.681827416,7319.333681833,7320.97704975,1,0.763937707999503
138,3,3,categorization,0,bathroom,SHINEd_sun_alkosphxlxwjwgjd.tif,34,0.0666666666666667,0.0666666666666667,0.783333333333333,7320.992174583,7321.7291575,9,7321.058593375,7321.124861,7321.748185416,7322.524856708,0,0.736982917000205
138,4,3,categorization,0,kitchen,SHINEd_sun_acxkpeoqbwcxfvip.tif,77,0.0666666666666667,0.0666666666666667,0.933333333333333,7322.53067125,7323.162621708,9,7322.592466708,7322.6533945,7323.171761,7324.098433208,1,0.631950458000574
138,5,3,categorization,0,kitchen,SHINEd_sun_admlmbcdswaszruo.tif,79,0.0666666666666667,0.0666666666666667,0.866666666666667,7324.104159458,7324.803128708,9,7324.16577525,7324.226984208,7324.812165291,7325.672169083,1,0.698969250000118
138,6,3,categorization,0,kitchen,SHINEd_sun_aegoxogugdkwpmpj.tif,80,0.0666666666666667,0.0666666666666667,1.11666666666667,7325.678153916,7326.267209375,9,7325.739956958,7325.800910208,7326.286189916,7327.3962465,1,0.58905545899961
138,7,3,categorization,0,kitchen,SHINEd_sun_acfmftudsenhrfhy.tif,74,0.0666666666666667,0.0666666666666667,0.966666666666667,7327.405020416,7328.014792208,9,7327.470121333,7327.537792666,7328.02668675,7328.98672275,1,0.609771791999265
138,8,3,categorization,0,kitchen,SHINEd_sun_agzzivivdpnawacl.tif,89,0.0666666666666667,0.0666666666666667,1.78333333333333,7329.003170875,7329.643096041,13,7329.07004575,7329.135919,7329.655151458,7331.431880291,0,0.639925165999557
138,9,3,categorization,0,bathroom,SHINEd_sun_amzlamotzwfkwjco.tif,37,0.0666666666666667,0.0666666666666667,1.55,7331.449686791,7332.079842166,9,7331.516625333,7331.57998725,7332.103252833,7333.646647458,0,0.630155374999958
138,10,3,categorization,0,kitchen,SHINEd_sun_aexklacwqwezaorf.tif,84,0.0666666666666667,0.0666666666666667,1.41666666666667,7333.664525375,7334.27166725,9,7333.731616291,7333.797667458,7334.287007166,7335.697047541,1,0.607141874999797
138,11,3,categorization,0,bathroom,SHINEd_sun_acduarbnmmoglmiv.tif,16,0.0666666666666667,0.0666666666666667,0.8,7335.715133208,7336.682393458,9,7335.782369291,7335.848016416,7336.705064333,7337.498402708,0,0.967260249999526
138,12,3,categorization,0,kitchen,SHINEd_sun_aarfiyshqohlwkmo.tif,67,0.0666666666666667,0.0666666666666667,1.28333333333333,7337.50426025,7338.043221208,9,7337.566022958,7337.626986791,7338.062518,7339.339222458,1,0.538960958000644
138,13,3,categorization,0,bathroom,SHINEd_sun_aunuadmjocsddsrl.tif,52,0.0666666666666667,0.0666666666666667,1.66666666666667,7339.349134375,7339.872714708,9,7339.415936625,7339.482180166,7339.888141,7341.548187791,0,0.5235803329997
138,14,3,categorization,0,kitchen,SHINEd_labelme_rykdqxenmhulbdn.tif,63,0.0666666666666667,0.0666666666666667,1.81666666666667,7341.566186208,7341.686731208,9,7341.633045541,7341.70025375,7341.723558125,7343.533617083,1,0.120545000000675
138,15,3,categorization,0,bathroom,SHINEd_sun_agguqiubmwhqqunb.tif,22,0.0666666666666667,0.0666666666666667,1.35,7343.55176325,7344.086146625,9,7343.618791333,7343.685261083,7344.109211416,7345.452579958,0,0.534383375000289
138,16,3,categorization,0,kitchen,SHINEd_sun_axyyrmzcupyhlivc.tif,107,0.0666666666666667,0.0666666666666667,0.916666666666667,7345.46574375,7346.06475875,9,7345.532672333,7345.598759916,7346.088829791,7346.998883583,1,0.599014999999781
138,17,3,categorization,0,bathroom,SHINEd_sun_awnqiikzaispgmwo.tif,56,0.0666666666666667,0.0666666666666667,0.916666666666667,7347.016259166,7347.826777666,13,7347.083422,7347.1460725,7347.832191583,7348.74219575,1,0.810518500000398
138,18,3,categorization,0,kitchen,SHINEd_sun_abrcnpqqhmjwekyf.tif,73,0.0666666666666667,0.0666666666666667,1.31666666666667,7348.74780275,7349.40353025,9,7348.809568583,7348.870603666,7349.422461291,7350.7325175,1,0.655727499999557
138,19,3,categorization,0,bathroom,SHINEd_sun_asfwthctfqerjvxr.tif,49,0.0666666666666667,0.0666666666666667,1.45,7350.74690625,7351.316604458,13,7350.813190833,7350.879693041,7351.334011916,7352.777400583,1,0.569698207999863
138,20,3,categorization,0,bathroom,SHINEd_sun_anryaplzeujmzfkd.tif,39,0.0666666666666667,0.0666666666666667,0.95,7352.796422083,7353.059688916,9,7352.863814958,7352.929601291,7353.087137708,7354.03052575,0,0.263266832999761
138,21,3,categorization,0,kitchen,SHINEd_sun_azmutvzbxypaceni.tif,110,0.0666666666666667,0.0666666666666667,1.38333333333333,7354.045817916,7354.770672416,9,7354.113320416,7354.179743333,7354.782563333,7356.159264958,1,0.72485450000022
138,22,3,categorization,0,kitchen,SHINEd_sun_aadbddgrdsjugojn.tif,64,0.0666666666666667,0.0666666666666667,1.16666666666667,7356.179889416,7357.013346666,9,7356.246936125,7356.312795958,7357.03657875,7358.196618041,1,0.83345724999981
138,23,3,categorization,0,bathroom,SHINEd_sun_agrwbmhcpmfuwmsg.tif,24,0.0666666666666667,0.0666666666666667,1.61666666666667,7358.207147958,7358.875891291,9,7358.274085708,7358.339896125,7358.896238708,7360.506293875,0,0.668743332999838
138,24,3,categorization,0,bathroom,SHINEd_sun_abjtwfukuwddzted.tif,15,0.0666666666666667,0.0666666666666667,1.38333333333333,7360.524692,7361.538456458,9,7360.591444666,7360.657369833,7361.564335958,7362.9410575,0,1.01376445799997
138,25,3,categorization,0,kitchen,SHINEd_sun_aggjlwcdjsjcaemh.tif,86,0.0666666666666667,0.0666666666666667,1.78333333333333,7362.959063458,7363.559157916,9,7363.025572041,7363.09278175,7363.583165166,7365.35989275,1,0.600094458000058
138,26,3,categorization,0,kitchen,SHINEd_labelme_kxvouciolcpqplr.tif,62,0.0666666666666667,0.0666666666666667,0.783333333333333,7365.372512125,7366.125631458,13,7365.439787916,7365.505553791,7366.145731666,7366.9224045,0,0.753119332999631
138,27,3,categorization,0,bathroom,SHINEd_sun_anhioqovhscjqqwb.tif,38,0.0666666666666667,0.0666666666666667,1.65,7366.928289333,7367.635176291,13,7366.990019458,7367.051071041,7367.652845041,7369.296229375,1,0.706886957999814
138,28,3,categorization,0,kitchen,SHINEd_sun_aapllqyqlykszopd.tif,66,0.0666666666666667,0.0666666666666667,1.86666666666667,7369.306156375,7370.031177708,9,7369.371358625,7369.439106458,7370.044870833,7371.904937958,1,0.725021332999859
138,29,3,categorization,0,bathroom,SHINEd_sun_auzqhkafidnkrwmo.tif,54,0.0666666666666667,0.0666666666666667,1.23333333333333,7371.925014708,7372.251265416,9,7371.991793958,7372.057380208,7372.280137333,7373.506862208,0,0.326250707999861
138,30,3,categorization,0,bathroom,SHINEd_sun_aoybiabnpadelefl.tif,41,0.0666666666666667,0.0666666666666667,0.7,7373.526071458,7374.159347458,9,7373.592486083,7373.657695083,7374.181067166,7374.874450666,0,0.633276000000478
138,31,3,categorization,0,bathroom,SHINEd_sun_atstyziqcmkahyxk.tif,51,0.0666666666666667,0.0666666666666667,0.716666666666667,7374.891645583,7375.738657416,13,7374.958327041,7375.024125208,7375.743301375,7376.453307375,1,0.847011832999669
138,32,3,categorization,0,bathroom,SHINEd_sun_agyqfjcfkdcydepw.tif,25,0.0666666666666667,0.0666666666666667,1.05,7376.459134541,7377.474458208,9,7376.520810416,7376.581814625,7377.48372825,7378.527115291,0,1.0153236670003
138,33,3,categorization,0,bathroom,SHINEd_sun_ausgutylgojavyoq.tif,53,0.0666666666666667,0.0666666666666667,1.1,7378.5390685,7379.142679833,13,7378.604333333,7378.668107958,7379.155510875,7380.2488995,1,0.603611333000117
138,34,3,categorization,0,bathroom,SHINEd_sun_azqyogdvyhahyram.tif,60,0.0666666666666667,0.0666666666666667,1.13333333333333,7380.267480333,7380.87464425,13,7380.334123166,7380.400131458,7380.885908416,7382.012636958,1,0.607163916999525
138,35,3,categorization,0,kitchen,SHINEd_sun_aymvwlarqodbwuoc.tif,108,0.0666666666666667,0.0666666666666667,1.38333333333333,7382.023078666,7382.518099458,13,7382.088218666,7382.1561165,7382.54641375,7383.923093416,0,0.495020791999195
138,36,3,categorization,0,bathroom,SHINEd_sun_aofnryafpsjimzsb.tif,40,0.0666666666666667,0.0666666666666667,1.5,7383.92980575,7384.522434833,13,7383.991946875,7384.052531625,7384.537781291,7386.03115625,1,0.592629083000247
138,37,3,categorization,0,kitchen,SHINEd_sun_agorklincwxrdtga.tif,87,0.0666666666666667,0.0666666666666667,1.61666666666667,7386.048581416,7386.69910525,9,7386.115608833,7386.181568666,7386.720634166,7388.330697416,1,0.650523833999614
138,38,3,categorization,0,kitchen,SHINEd_sun_abdenxonkemggwsq.tif,69,0.0666666666666667,0.0666666666666667,0.983333333333333,7388.348695166,7388.983305,9,7388.415649958,7388.482027791,7389.00588975,7389.98256175,1,0.634609834000003
138,39,3,categorization,0,kitchen,SHINEd_sun_auticobqsbwgoppi.tif,104,0.0666666666666667,0.0666666666666667,1.3,7389.988251291,7390.339059958,9,7390.049925583,7390.1109525,7390.34615,7391.639520125,1,0.35080866699991
138,40,3,categorization,0,kitchen,SHINEd_sun_awcpdzzznmweyyhv.tif,106,0.0666666666666667,0.0666666666666667,1.03333333333333,7391.657448666,7392.154272375,9,7391.724125583,7391.790320541,7392.180367958,7393.207080791,1,0.496823708999727
138,41,3,categorization,0,bathroom,SHINEd_sun_acegryoqftbzowsg.tif,17,0.0666666666666667,0.0666666666666667,1.45,7393.219864916,7393.514425375,13,7393.284436333,7393.35156075,7393.520797416,7394.964191666,1,0.294560459000422
138,42,3,categorization,0,bathroom,SHINEd_sun_aapitsgbtktqubfy.tif,12,0.0666666666666667,0.0666666666666667,1.23333333333333,7394.982305833,7395.664237291,13,7395.049184666,7395.115741333,7395.68761375,7396.914332791,1,0.681931457999781
138,43,3,categorization,0,kitchen,SHINEd_sun_ahspylgoovwmwvgk.tif,93,0.0666666666666667,0.0666666666666667,1.26666666666667,7396.933055875,7397.487500666,9,7397.000358625,7397.06691975,7397.506978375,7398.767024583,1,0.554444791000606
138,44,3,categorization,0,bathroom,SHINEd_sun_aclfzgynxzxlbepz.tif,19,0.0666666666666667,0.0666666666666667,1.03333333333333,7398.778097791,7399.514444458,9,7398.84007275,7398.900934583,7399.519371125,7400.546074208,0,0.736346667000362
138,45,3,categorization,0,kitchen,SHINEd_sun_adgqasybjyktddhj.tif,78,0.0666666666666667,0.0666666666666667,1.31666666666667,7400.559056083,7401.197886708,13,7400.624006375,7400.690344458,7401.211798916,7402.521845,0,0.638830625000082
138,46,3,categorization,0,bathroom,SHINEd_sun_abapwbhyhkfixyex.tif,14,0.0666666666666667,0.0666666666666667,1.7,7402.540677291,7402.9789475,9,7402.603186666,7402.663444416,7402.998498125,7404.691888958,0,0.438270208999711
138,47,3,categorization,0,kitchen,SHINEd_sun_akcjzhbbjlbogpdi.tif,99,0.0666666666666667,0.0666666666666667,1.35,7404.713279375,7405.149034,13,7404.780242833,7404.846044791,7405.167801833,7406.511175875,0,0.4357546250003
138,48,3,categorization,0,bathroom,SHINEd_sun_aghyqhbptboemmoq.tif,23,0.0666666666666667,0.0666666666666667,0.8,7406.533171291,7407.000327583,9,7406.600500666,7406.66666475,7407.023662291,7407.817029875,0,0.467156292000254
138,49,3,categorization,0,bathroom,SHINEd_sun_aljolscmmzydegqp.tif,33,0.0666666666666667,0.0666666666666667,0.766666666666667,7407.835640916,7408.602639541,9,7407.903064916,7407.968676625,7408.620944958,7409.380950125,0,0.766998625000269
138,50,3,categorization,0,kitchen,SHINEd_sun_ahywdevtimnqcsln.tif,94,0.0666666666666667,0.0666666666666667,1.38333333333333,7409.385932958,7409.922515916,9,7409.44761525,7409.508784958,7409.927352916,7411.304073083,1,0.536582957999599
138,1,4,categorization,0,bathroom,SHINEd_sun_apeeialkgkuxddgh.tif,42,0.0666666666666667,0.0666666666666667,1,7417.534681166,7418.283088541,13,7417.597256875,7417.657883916,7418.293097416,7419.286434666,1,0.74840737500017
138,2,4,categorization,0,bathroom,SHINEd_sun_aggnnqpdorgxpvce.tif,21,0.0666666666666667,0.0666666666666667,0.966666666666667,7419.291232,7419.842601375,9,7419.353037875,7419.414003083,7419.849263833,7420.809268375,0,0.551369375000831
138,3,4,categorization,0,bathroom,SHINEd_sun_alotolagknyrgtsk.tif,35,0.0666666666666667,0.0666666666666667,1.75,7420.814849,7421.427052958,9,7420.876419,7420.937526541,7421.439232625,7423.182609125,0,0.612203957999554
138,4,4,categorization,0,bathroom,SHINEd_sun_apjevzvycyhuqghb.tif,43,0.0666666666666667,0.0666666666666667,1.68333333333333,7423.194341416,7423.85350425,9,7423.258862458,7423.32574,7423.882045375,7425.558769375,0,0.659162834000199
138,5,4,categorization,0,bathroom,SHINEd_labelme_sfxiulhjbhlyiyt.tif,11,0.0666666666666667,0.0666666666666667,1.58333333333333,7425.579391708,7426.555844125,9,7425.646182333,7425.712282125,7426.567291916,7428.144001875,0,0.976452416999564
138,6,4,categorization,0,kitchen,SHINEd_sun_abpwyqmlzafvklqo.tif,72,0.0666666666666667,0.0666666666666667,1,7428.163564416,7428.519345291,9,7428.230340291,7428.296063166,7428.53573175,7429.529117291,1,0.355780875000164
138,7,4,categorization,0,bathroom,SHINEd_sun_axldvoqbuvuggfmq.tif,57,0.0666666666666667,0.0666666666666667,1.33333333333333,7429.546330125,7429.842814291,9,7429.612857666,7429.670819583,7429.856058,7431.182762666,0,0.296484165999573
138,8,4,categorization,0,kitchen,SHINEd_sun_aqeaevwwwjoqhzvl.tif,101,0.0666666666666667,0.0666666666666667,1.26666666666667,7431.19476275,7431.339698416,13,7431.259364041,7431.326069416,7431.364305583,7432.624361958,0,0.144935665999583
138,9,4,categorization,0,kitchen,SHINEd_sun_aenotlpyftoioydp.tif,82,0.0666666666666667,0.0666666666666667,0.883333333333333,7432.642711708,7432.763158,13,7432.709337125,7432.776456625,7432.799422916,7433.676095875,0,0.120446291999542
138,10,4,categorization,0,bathroom,SHINEd_sun_ahcvzmoyaycdoftf.tif,27,0.0666666666666667,0.0666666666666667,1.26666666666667,7433.6816915,7434.274958666,13,7433.743442208,7433.804486333,7434.289653333,7435.549695791,1,0.59326716600026
138,11,4,categorization,0,bathroom,SHINEd_sun_axyrejkiiaqiurjk.tif,59,0.0666666666666667,0.0666666666666667,2,7435.567811625,7435.68831925,9,7435.635111083,7435.70175675,7435.725127375,7437.718506833,0,0.120507624999846
138,12,4,categorization,0,bathroom,SHINEd_sun_aspsyogrekjtfozg.tif,50,0.0666666666666667,0.0666666666666667,0.733333333333333,7437.737549,7438.014946791,13,7437.804958375,7437.870352166,7438.0436065,7438.770321,1,0.277397790999203
138,13,4,categorization,0,kitchen,SHINEd_sun_auaiucuqpdausiva.tif,102,0.0666666666666667,0.0666666666666667,0.883333333333333,7438.784745208,7439.34929775,13,7438.85130025,7438.917548958,7439.373092458,7440.249763333,0,0.564552542000456
138,14,4,categorization,0,kitchen,SHINEd_sun_aeqdocilnnpuvuhx.tif,83,0.0666666666666667,0.0666666666666667,0.983333333333333,7440.255420416,7440.57855875,9,7440.317158166,7440.37822775,7440.596593916,7441.57326575,1,0.32313833400076
138,15,4,categorization,0,bathroom,SHINEd_sun_akiytfaagpdsphgz.tif,31,0.0666666666666667,0.0666666666666667,1.56666666666667,7441.579008416,7441.86701775,9,7441.640736875,7441.701768,7441.870312541,7443.430355916,0,0.28800933399998
138,16,4,categorization,0,kitchen,SHINEd_sun_ajcbwwvdlsvjyzje.tif,96,0.0666666666666667,0.0666666666666667,1.08333333333333,7443.448091041,7445.234665125,9,7443.514976416,7443.581521083,7445.250632125,7446.327358583,1,1.78657408399977
138,17,4,categorization,0,bathroom,SHINEd_sun_axxbkopsgyouuebh.tif,58,0.0666666666666667,0.0666666666666667,0.75,7446.339698333,7448.538201458,13,7446.404806125,7446.471389125,7448.557749125,7449.301088958,1,2.19850312499966
138,18,4,categorization,0,kitchen,SHINEd_sun_aamedkxepzlwuxes.tif,65,0.0666666666666667,0.0666666666666667,0.966666666666667,7449.305898458,7454.042403875,13,7449.367681916,7449.42862975,7454.064835083,7455.02484125,0,4.73650541699953
138,19,4,categorization,0,kitchen,SHINEd_sun_amjjdeyrggfqgmom.tif,100,0.0666666666666667,0.0666666666666667,1.63333333333333,7455.030241458,7455.994813708,9,7455.092074125,7455.153013875,7456.005230583,7457.631957208,1,0.964572249999947
138,20,4,categorization,0,kitchen,SHINEd_sun_ahljzhgcdpomplvg.tif,91,0.0666666666666667,0.0666666666666667,1.46666666666667,7457.649591583,7458.237603666,9,7457.716201666,7457.781528833,7458.254183625,7459.714242208,1,0.58801208299974
138,21,4,categorization,0,kitchen,SHINEd_sun_aunzlwrbjumxhwdj.tif,103,0.0666666666666667,0.0666666666666667,0.933333333333333,7459.73328375,7460.461315166,9,7459.800019541,7459.866297375,7460.489799375,7461.416474333,1,0.728031415999794
138,22,4,categorization,0,kitchen,SHINEd_sun_aypmqwcualkenuoe.tif,109,0.0666666666666667,0.0666666666666667,1.45,7461.422576708,7461.778029708,13,7461.484299041,7461.545327958,7461.797164375,7463.240516208,0,0.355453000000125
138,23,4,categorization,0,bathroom,SHINEd_sun_aavhrsfjbserjtht.tif,13,0.0666666666666667,0.0666666666666667,0.966666666666667,7463.249150208,7463.71975675,9,7463.314153958,7463.381407458,7463.737323541,7464.697375541,0,0.470606541999587
138,24,4,categorization,0,kitchen,SHINEd_sun_abftihopvusyfakt.tif,71,0.0666666666666667,0.0666666666666667,0.816666666666667,7464.713398666,7465.107148916,9,7464.779409041,7464.845886,7465.115041166,7465.925046708,1,0.393750250000267
138,25,4,categorization,0,kitchen,SHINEd_sun_aehawpgmrlhlvcow.tif,81,0.0666666666666667,0.0666666666666667,1.96666666666667,7465.930453583,7466.738374833,9,7465.992255791,7466.053269541,7466.755613291,7468.715671083,1,0.807921250000618
138,26,4,categorization,0,bathroom,SHINEd_sun_apynckhmoftszqoq.tif,47,0.0666666666666667,0.0666666666666667,0.916666666666667,7468.732976541,7469.122655583,13,7468.799650291,7468.865748166,7469.13767175,7470.047677541,1,0.389679041999443
138,27,4,categorization,0,kitchen,SHINEd_sun_acwjdupvyjsugpay.tif,76,0.0666666666666667,0.0666666666666667,1.28333333333333,7470.053511083,7470.658369,9,7470.115250791,7470.17625,7470.661383541,7471.93810175,1,0.604857917000118
138,28,4,categorization,0,bathroom,SHINEd_sun_ambriybtogmepttm.tif,36,0.0666666666666667,0.0666666666666667,1.8,7471.955102916,7472.362609,13,7472.021789,7472.088456166,7472.377565708,7474.170939583,1,0.407506083999579
138,29,4,categorization,0,bathroom,SHINEd_sun_ajlawzvmubibwbpy.tif,30,0.0666666666666667,0.0666666666666667,1.33333333333333,7474.189454958,7474.72301325,9,7474.256393333,7474.321577708,7474.7451675,7476.071882916,0,0.533558291999725
138,30,4,categorization,0,bathroom,SHINEd_sun_ahaulkltgpkeeemi.tif,26,0.0666666666666667,0.0666666666666667,1.06666666666667,7476.087751583,7476.8156465,13,7476.154768833,7476.221005166,7476.844967875,7477.905020916,1,0.727894917000413
138,31,4,categorization,0,kitchen,SHINEd_sun_aaxxjlsuzvqlgylf.tif,68,0.0666666666666667,0.0666666666666667,1.03333333333333,7477.915525708,7478.485530791,13,7477.983146458,7478.048627,7478.50538875,7479.532091416,0,0.570005083000069
138,32,4,categorization,0,kitchen,SHINEd_sun_aixorpehvfykdynp.tif,95,0.0666666666666667,0.0666666666666667,0.733333333333333,7479.548864333,7480.106984166,9,7479.616035125,7479.68181225,7480.117554625,7480.844228208,1,0.558119833000092
138,33,4,categorization,0,bathroom,SHINEd_sun_afcoljnjfoxjtgja.tif,20,0.0666666666666667,0.0666666666666667,0.766666666666667,7480.849722791,7481.266567458,9,7480.911316,7480.972488083,7481.274316708,7482.034323083,0,0.416844667000078
138,34,4,categorization,0,kitchen,SHINEd_sun_avszsnwsbuqfgzbn.tif,105,0.0666666666666667,0.0666666666666667,1.1,7482.039414708,7482.666911291,9,7482.100974333,7482.162171791,7482.680724416,7483.774112666,1,0.62749658300072
138,35,4,categorization,0,kitchen,SHINEd_sun_akchetnepxlcxhsu.tif,98,0.0666666666666667,0.0666666666666667,1.81666666666667,7483.786033333,7484.462321291,9,7483.851436916,7483.918968541,7484.492470708,7486.302530958,1,0.676287958000103
138,36,4,categorization,0,kitchen,SHINEd_sun_acgtpgfybqjmzeyw.tif,75,0.0666666666666667,0.0666666666666667,0.883333333333333,7486.321717125,7486.771314625,9,7486.388817708,7486.454316791,7486.794433666,7487.671156375,1,0.449597499999982
138,37,4,categorization,0,kitchen,SHINEd_sun_ajkqhtgcbgpcwrwn.tif,97,0.0666666666666667,0.0666666666666667,1.7,7487.68715275,7491.708996041,9,7487.75391975,7487.819558125,7491.725748916,7493.419141833,1,4.02184329100055
138,38,4,categorization,0,bathroom,SHINEd_sun_apkruvsevgegsdwp.tif,44,0.0666666666666667,0.0666666666666667,1.58333333333333,7493.4390435,7494.0692145,13,7493.505846291,7493.571877583,7494.095188541,7495.671911416,1,0.630171000000701
138,39,4,categorization,0,kitchen,SHINEd_sun_ahpczsiumwwocjkv.tif,92,0.0666666666666667,0.0666666666666667,0.833333333333333,7495.690360166,7496.197490125,9,7495.757016,7495.822804625,7496.211949625,7497.038663958,1,0.50712995899994
138,40,4,categorization,0,bathroom,SHINEd_sun_ahqjwnzgolcaoidx.tif,29,0.0666666666666667,0.0666666666666667,0.95,7497.0555595,7497.442368,9,7497.122492375,7497.187655958,7497.456395,7498.399734625,0,0.38680850000037
138,41,4,categorization,0,bathroom,SHINEd_sun_ahijqszoswveeyji.tif,28,0.0666666666666667,0.0666666666666667,1.06666666666667,7498.405139916,7498.730575416,9,7498.466812583,7498.527887833,7498.746237,7499.806291333,0,0.325435499999912
138,42,4,categorization,0,kitchen,SHINEd_sun_afuyedyxivkhecmu.tif,85,0.0666666666666667,0.0666666666666667,1.68333333333333,7499.819427333,7500.010228583,9,7499.884632666,7499.950507375,7500.021476583,7501.698177708,1,0.190801249999822
138,43,4,categorization,0,kitchen,SHINEd_sun_ahdycvpopffkzzsu.tif,90,0.0666666666666667,0.0666666666666667,1.31666666666667,7501.716158083,7503.62657075,9,7501.783568125,7501.84886,7503.634860666,7504.94491825,1,1.91041266699995
138,44,4,categorization,0,bathroom,SHINEd_sun_aleqenyvunhactkl.tif,32,0.0666666666666667,0.0666666666666667,1.61666666666667,7504.9635255,7505.30637825,9,7505.030302625,7505.096732375,7505.317581583,7506.927631708,0,0.34285275000002
138,45,4,categorization,0,kitchen,SHINEd_sun_agubuxuukhzyzpdp.tif,88,0.0666666666666667,0.0666666666666667,1.15,7506.945849458,7507.293744625,13,7507.01221225,7507.078829041,7507.317641208,7508.4610305,0,0.347895166999479
138,46,4,categorization,0,bathroom,SHINEd_sun_avhrdrntsqrjzccq.tif,55,0.0666666666666667,0.0666666666666667,1.25,7508.479161125,7508.794861541,9,7508.546067583,7508.612096458,7508.814540208,7510.057937208,0,0.315700415999345
138,47,4,categorization,0,bathroom,SHINEd_sun_apmqjbnwghzuhhzh.tif,46,0.0666666666666667,0.0666666666666667,1.1,7510.076541333,7510.4104825,9,7510.144208041,7510.20930175,7510.43323025,7511.5265995,0,0.333941167000376
138,48,4,categorization,0,kitchen,SHINEd_sun_abdxkyyxwfskuaqb.tif,70,0.0666666666666667,0.0666666666666667,0.9,7511.545949541,7511.886925541,13,7511.613340916,7511.678852083,7511.901849458,7512.795189333,0,0.34097600000041
138,49,4,categorization,0,kitchen,SHINEd_labelme_brsyyvweiuaazfr.tif,61,0.0666666666666667,0.0666666666666667,1.3,7512.801077333,7513.282897625,13,7512.862829083,7512.923817833,7513.292088083,7514.585471666,0,0.481820292000521
138,50,4,categorization,0,bathroom,SHINEd_sun_acgyywnybuveqsro.tif,18,0.0666666666666667,0.0666666666666667,1.25,7514.603528,7515.147200166,13,7514.670308166,7514.7359545,7515.174338416,7516.417703333,1,0.543672166000761
138,1,5,categorization,0,bathroom,SHINEd_sun_aapitsgbtktqubfy.tif,12,0.0666666666666667,0.0666666666666667,1.7,7522.395603166,7523.154694541,13,7522.458419083,7522.518309708,7523.170086083,7524.8634695,1,0.759091375000025
138,2,5,categorization,0,bathroom,SHINEd_sun_axyrejkiiaqiurjk.tif,59,0.0666666666666667,0.0666666666666667,1.81666666666667,7524.880810625,7525.541668166,9,7524.947809583,7525.013487666,7525.570322458,7527.380377875,0,0.660857541000041
138,3,5,categorization,0,bathroom,SHINEd_sun_aavhrsfjbserjtht.tif,13,0.0666666666666667,0.0666666666666667,1.23333333333333,7527.400609166,7528.081680541,9,7527.467600041,7527.533217208,7528.10660675,7529.333307791,0,0.681071375000101
138,4,5,categorization,0,kitchen,SHINEd_sun_ahspylgoovwmwvgk.tif,93,0.0666666666666667,0.0666666666666667,1.4,7529.344097583,7529.875289875,9,7529.410762916,7529.477082208,7529.900616625,7531.294006458,1,0.531192292000014
138,5,5,categorization,0,bathroom,SHINEd_sun_apeeialkgkuxddgh.tif,42,0.0666666666666667,0.0666666666666667,1.03333333333333,7531.303942083,7532.062706208,13,7531.368791958,7531.434634541,7532.091431208,7533.118133291,1,0.758764125000198
138,6,5,categorization,0,bathroom,SHINEd_sun_ahaulkltgpkeeemi.tif,26,0.0666666666666667,0.0666666666666667,1.38333333333333,7533.1356835,7533.85821125,13,7533.200570875,7533.263755833,7533.865749458,7535.24244475,1,0.722527750000154
138,7,5,categorization,0,bathroom,SHINEd_sun_aunuadmjocsddsrl.tif,52,0.0666666666666667,0.0666666666666667,2,7535.253059791,7535.563503541,13,7535.3186565,7535.386072083,7535.592321083,7537.585703625,1,0.310443749999649
138,8,5,categorization,0,bathroom,SHINEd_sun_abapwbhyhkfixyex.tif,14,0.0666666666666667,0.0666666666666667,1.85,7537.603954875,7538.155668083,13,7537.670799,7537.73708125,7538.176949791,7540.020327166,1,0.551713207999455
138,9,5,categorization,0,kitchen,SHINEd_sun_aymvwlarqodbwuoc.tif,108,0.0666666666666667,0.0666666666666667,0.816666666666667,7540.037799166,7540.742848666,13,7540.104927166,7540.17101425,7540.760515625,7541.570521916,0,0.705049500000314
138,10,5,categorization,0,kitchen,SHINEd_sun_aarfiyshqohlwkmo.tif,67,0.0666666666666667,0.0666666666666667,1.85,7541.577458,7541.986737416,9,7541.639179666,7541.700710583,7542.002482833,7543.845877916,1,0.409279416000572
138,11,5,categorization,0,bathroom,SHINEd_sun_apkruvsevgegsdwp.tif,44,0.0666666666666667,0.0666666666666667,0.733333333333333,7543.858523125,7544.572392291,13,7543.924817041,7543.991342333,7544.597986791,7545.324659375,1,0.713869166000222
138,12,5,categorization,0,bathroom,SHINEd_sun_aofnryafpsjimzsb.tif,40,0.0666666666666667,0.0666666666666667,0.716666666666667,7545.329490666,7545.970015458,13,7545.391265041,7545.452280625,7545.987620625,7546.697626625,1,0.640524791999269
138,13,5,categorization,0,kitchen,SHINEd_sun_aadbddgrdsjugojn.tif,64,0.0666666666666667,0.0666666666666667,0.833333333333333,7546.703306125,7547.346493166,9,7546.764891458,7546.825935625,7547.361171166,7548.187842166,1,0.643187040999692
138,14,5,categorization,0,kitchen,SHINEd_sun_acfmftudsenhrfhy.tif,74,0.0666666666666667,0.0666666666666667,0.95,7548.194060083,7548.849771291,9,7548.255835666,7548.316791291,7548.869140333,7549.812480708,1,0.655711207999957
138,15,5,categorization,0,bathroom,SHINEd_sun_anryaplzeujmzfkd.tif,39,0.0666666666666667,0.0666666666666667,1.96666666666667,7549.818107458,7550.409891208,9,7549.879755416,7549.940973166,7550.426125291,7552.38616675,0,0.591783750000104
138,16,5,categorization,0,kitchen,SHINEd_sun_aaxxjlsuzvqlgylf.tif,68,0.0666666666666667,0.0666666666666667,1.86666666666667,7552.4047305,7553.169693166,9,7552.471576166,7552.538148791,7553.193017333,7555.053060583,1,0.764962665999519
138,17,5,categorization,0,kitchen,SHINEd_sun_aegoxogugdkwpmpj.tif,80,0.0666666666666667,0.0666666666666667,1.51666666666667,7555.070730458,7555.783106458,13,7555.137445625,7555.200153416,7555.807144041,7557.317187416,0,0.712375999999495
138,18,5,categorization,0,bathroom,SHINEd_sun_atstyziqcmkahyxk.tif,51,0.0666666666666667,0.0666666666666667,1.3,7557.32715125,7557.658327291,9,7557.394252,7557.460237166,7557.683833625,7558.977201375,0,0.331176041000617
138,19,5,categorization,0,bathroom,SHINEd_sun_apmqjbnwghzuhhzh.tif,46,0.0666666666666667,0.0666666666666667,1.91666666666667,7558.9873615,7559.308881333,9,7559.052617125,7559.120109166,7559.32438175,7561.234426875,0,0.321519832999911
138,20,5,categorization,0,kitchen,SHINEd_sun_adgqasybjyktddhj.tif,78,0.0666666666666667,0.0666666666666667,1.23333333333333,7561.248848833,7561.671850208,13,7561.314274375,7561.378165458,7561.701962208,7562.928678541,0,0.42300137500024
138,21,5,categorization,0,kitchen,SHINEd_sun_akcjzhbbjlbogpdi.tif,99,0.0666666666666667,0.0666666666666667,0.866666666666667,7562.944518583,7563.522010541,9,7563.011698291,7563.077902625,7563.530013875,7564.390018875,1,0.577491957999882
138,22,5,categorization,0,bathroom,SHINEd_labelme_sfxiulhjbhlyiyt.tif,11,0.0666666666666667,0.0666666666666667,0.8,7564.395872166,7564.881909291,9,7564.457621291,7564.51854125,7564.887298375,7565.680635833,0,0.486037124999712
138,23,5,categorization,0,kitchen,SHINEd_sun_acxkpeoqbwcxfvip.tif,77,0.0666666666666667,0.0666666666666667,1.51666666666667,7565.686369625,7566.442153708,9,7565.748075375,7565.809201375,7566.461044041,7567.97107975,1,0.755784082999526
138,24,5,categorization,0,kitchen,SHINEd_sun_auaiucuqpdausiva.tif,102,0.0666666666666667,0.0666666666666667,1.18333333333333,7567.99006975,7568.355532625,9,7568.056865,7568.122812708,7568.380108208,7569.556831,1,0.365462875000048
138,25,5,categorization,0,kitchen,SHINEd_sun_aehawpgmrlhlvcow.tif,81,0.0666666666666667,0.0666666666666667,1.6,7569.567495875,7569.9238505,9,7569.634782416,7569.700702916,7569.940729875,7571.53410975,1,0.356354625000677
138,26,5,categorization,0,kitchen,SHINEd_sun_aixorpehvfykdynp.tif,95,0.0666666666666667,0.0666666666666667,1.56666666666667,7571.553353791,7571.914333541,9,7571.621101,7571.677925083,7571.9296795,7573.489737208,1,0.360979750000297
138,27,5,categorization,0,kitchen,SHINEd_sun_agzzivivdpnawacl.tif,89,0.0666666666666667,0.0666666666666667,1.36666666666667,7573.508188458,7573.863570208,9,7573.574804333,7573.641177916,7573.880952666,7575.241012,1,0.355381749999651
138,28,5,categorization,0,kitchen,SHINEd_sun_abdenxonkemggwsq.tif,69,0.0666666666666667,0.0666666666666667,1.53333333333333,7575.251289833,7575.434623,9,7575.316216583,7575.383042208,7575.456658833,7576.983388958,1,0.183333167000455
138,29,5,categorization,0,bathroom,SHINEd_sun_acgyywnybuveqsro.tif,18,0.0666666666666667,0.0666666666666667,1.4,7577.001964791,7577.466259875,9,7577.068961833,7577.13489775,7577.470265666,7578.863633583,0,0.464295083999787
138,30,5,categorization,0,bathroom,SHINEd_sun_axxbkopsgyouuebh.tif,58,0.0666666666666667,0.0666666666666667,1.06666666666667,7578.880069333,7579.235619166,9,7578.947007291,7579.013179041,7579.251440083,7580.311490708,0,0.355549832999714
138,31,5,categorization,0,bathroom,SHINEd_sun_apynckhmoftszqoq.tif,47,0.0666666666666667,0.0666666666666667,1.63333333333333,7580.328535541,7580.666070166,13,7580.395389333,7580.461256791,7580.680278541,7582.306983833,1,0.337534625000444
138,32,5,categorization,0,bathroom,SHINEd_sun_ahcvzmoyaycdoftf.tif,27,0.0666666666666667,0.0666666666666667,1.8,7582.325418625,7582.700462708,13,7582.391883416,7582.458263333,7582.713887583,7584.507264166,1,0.375044082999921
138,33,5,categorization,0,kitchen,SHINEd_sun_agorklincwxrdtga.tif,87,0.0666666666666667,0.0666666666666667,1.53333333333333,7584.526784208,7585.021300666,9,7584.593954916,7584.659716,7585.050060166,7586.57678375,1,0.494516457999453
138,34,5,categorization,0,bathroom,SHINEd_sun_ausgutylgojavyoq.tif,53,0.0666666666666667,0.0666666666666667,0.766666666666667,7586.598836166,7586.925551375,13,7586.665553291,7586.732136375,7586.937453333,7587.697513041,1,0.326715209000213
138,35,5,categorization,0,bathroom,SHINEd_sun_abjtwfukuwddzted.tif,15,0.0666666666666667,0.0666666666666667,1.86666666666667,7587.712493083,7588.362051291,13,7587.779352625,7587.846478041,7588.381970583,7590.242028333,1,0.649558208000599
138,36,5,categorization,0,bathroom,SHINEd_sun_alkosphxlxwjwgjd.tif,34,0.0666666666666667,0.0666666666666667,1.13333333333333,7590.262096166,7593.858546833,9,7590.3290065,7590.394757583,7593.880886541,7595.007602958,0,3.59645066699977
138,37,5,categorization,0,bathroom,SHINEd_sun_apjevzvycyhuqghb.tif,43,0.0666666666666667,0.0666666666666667,1.73333333333333,7595.019269166,7595.58588425,13,7595.08417325,7595.148364916,7595.604296,7597.331004541,1,0.56661508399975
138,38,5,categorization,0,kitchen,SHINEd_sun_amjjdeyrggfqgmom.tif,100,0.0666666666666667,0.0666666666666667,0.766666666666667,7597.343583,7597.868186875,9,7597.410805166,7597.476678791,7597.881968125,7598.642003166,1,0.524603875000139
138,39,5,categorization,0,kitchen,SHINEd_sun_afuyedyxivkhecmu.tif,85,0.0666666666666667,0.0666666666666667,1.85,7598.658953291,7599.138670416,9,7598.725551666,7598.792129083,7599.144805833,7600.9881845,1,0.479717125000207
138,40,5,categorization,0,kitchen,SHINEd_sun_akchetnepxlcxhsu.tif,98,0.0666666666666667,0.0666666666666667,0.966666666666667,7601.006208875,7601.3750605,9,7601.072653416,7601.139133125,7601.396029166,7602.356034166,1,0.368851624999479
138,41,5,categorization,0,bathroom,SHINEd_sun_alotolagknyrgtsk.tif,35,0.0666666666666667,0.0666666666666667,1.06666666666667,7602.361882416,7603.07393875,9,7602.42353275,7602.484636666,7603.086822291,7604.146868958,0,0.712056333999499
138,42,5,categorization,0,kitchen,SHINEd_sun_abrcnpqqhmjwekyf.tif,73,0.0666666666666667,0.0666666666666667,1.38333333333333,7604.159104166,7604.783966541,13,7604.224378833,7604.289082041,7604.812362041,7606.189091666,0,0.624862374999793
138,43,5,categorization,0,kitchen,SHINEd_sun_aapllqyqlykszopd.tif,66,0.0666666666666667,0.0666666666666667,0.766666666666667,7606.20393775,7606.630987833,13,7606.270690833,7606.3371545,7606.660380291,7607.420416041,0,0.427050083000722
138,44,5,categorization,0,bathroom,SHINEd_sun_aghyqhbptboemmoq.tif,23,0.0666666666666667,0.0666666666666667,0.866666666666667,7607.432587708,7608.138619666,13,7607.499273708,7607.565707791,7608.155201166,7609.015206375,1,0.706031957999585
138,45,5,categorization,0,kitchen,SHINEd_sun_abdxkyyxwfskuaqb.tif,70,0.0666666666666667,0.0666666666666667,1.25,7609.020886375,7609.505835666,9,7609.0826085,7609.143997958,7609.512505833,7610.7558935,1,0.484949290999793
138,46,5,categorization,0,bathroom,SHINEd_sun_azqyogdvyhahyram.tif,60,0.0666666666666667,0.0666666666666667,1.03333333333333,7610.770827541,7611.290719666,13,7610.837421125,7610.903481708,7611.308324958,7612.335037041,1,0.519892125000297
138,47,5,categorization,0,kitchen,SHINEd_sun_aenotlpyftoioydp.tif,82,0.0666666666666667,0.0666666666666667,0.783333333333333,7612.351673291,7612.802205125,13,7612.4184945,7612.484302958,7612.820152458,7613.596824625,0,0.450531833999776
138,48,5,categorization,0,bathroom,SHINEd_sun_aleqenyvunhactkl.tif,32,0.0666666666666667,0.0666666666666667,0.7,7613.602495,7614.234031416,13,7613.664288583,7613.72523775,7614.243907875,7614.937245625,1,0.631536416000017
138,49,5,categorization,0,kitchen,SHINEd_sun_ahljzhgcdpomplvg.tif,91,0.0666666666666667,0.0666666666666667,1.75,7614.943821333,7615.658659083,9,7615.005611666,7615.066539625,7615.668531541,7617.411908916,1,0.714837749999788
138,50,5,categorization,0,kitchen,SHINEd_sun_ajcbwwvdlsvjyzje.tif,96,0.0666666666666667,0.0666666666666667,1.36666666666667,7617.429741125,7617.870009708,13,7617.496476833,7617.562633791,7617.885099041,7619.245136083,0,0.440268583000034
138,1,6,categorization,0,bathroom,SHINEd_sun_ambriybtogmepttm.tif,36,0.0666666666666667,0.0666666666666667,0.966666666666667,7624.480365625,7625.042168125,13,7624.54279075,7624.603093583,7625.055352291,7626.015356791,1,0.56180250000034
138,2,6,categorization,0,bathroom,SHINEd_sun_amzlamotzwfkwjco.tif,37,0.0666666666666667,0.0666666666666667,1.73333333333333,7626.021117666,7626.5061235,13,7626.082800833,7626.143833916,7626.51249525,7628.23922225,1,0.485005834000731
138,3,6,categorization,0,bathroom,SHINEd_sun_awnqiikzaispgmwo.tif,56,0.0666666666666667,0.0666666666666667,1.91666666666667,7628.258206458,7628.514554125,9,7628.324446125,7628.391209833,7628.530543541,7630.440590625,0,0.256347667000227
138,4,6,categorization,0,kitchen,SHINEd_sun_agubuxuukhzyzpdp.tif,88,0.0666666666666667,0.0666666666666667,0.766666666666667,7630.458865041,7630.93549975,13,7630.525855583,7630.591783666,7630.965179333,7631.725224458,0,0.476634709000791
138,5,6,categorization,0,bathroom,SHINEd_sun_aqrpegblszgcoujh.tif,48,0.0666666666666667,0.0666666666666667,0.916666666666667,7631.742309541,7632.497981875,13,7631.8047755,7631.864976666,7632.516905583,7633.426910625,1,0.755672333999428
138,6,6,categorization,0,kitchen,SHINEd_labelme_kxvouciolcpqplr.tif,62,0.0666666666666667,0.0666666666666667,1.18333333333333,7633.432178,7634.11360425,9,7633.493788166,7633.554918833,7634.123491625,7635.300197625,1,0.681426250000186
138,7,6,categorization,0,bathroom,SHINEd_sun_acegryoqftbzowsg.tif,17,0.0666666666666667,0.0666666666666667,1.8,7635.310288583,7636.118986583,13,7635.375880125,7635.443283708,7636.132917708,7637.926301125,1,0.808697999999822
138,8,6,categorization,0,kitchen,SHINEd_sun_ahywdevtimnqcsln.tif,94,0.0666666666666667,0.0666666666666667,0.883333333333333,7637.944871791,7638.566328791,9,7638.01222825,7638.078092,7638.584640041,7639.461311916,1,0.621457000000191
138,9,6,categorization,0,kitchen,SHINEd_sun_aqeaevwwwjoqhzvl.tif,101,0.0666666666666667,0.0666666666666667,1.83333333333333,7639.467451041,7639.930605541,9,7639.529182041,7639.590171416,7639.942026708,7641.768737875,1,0.463154500000201
138,10,6,categorization,0,bathroom,SHINEd_sun_axldvoqbuvuggfmq.tif,57,0.0666666666666667,0.0666666666666667,1.76666666666667,7641.78700025,7642.142690791,9,7641.853745791,7641.919805791,7642.159090375,7643.919138583,0,0.355690540999603
138,11,6,categorization,0,kitchen,SHINEd_labelme_brsyyvweiuaazfr.tif,61,0.0666666666666667,0.0666666666666667,0.983333333333333,7643.936829375,7644.478060958,9,7644.003707708,7644.06966925,7644.4914705,7645.468141166,1,0.541231582999899
138,12,6,categorization,0,bathroom,SHINEd_sun_aggnnqpdorgxpvce.tif,21,0.0666666666666667,0.0666666666666667,0.883333333333333,7645.4740605,7646.12201375,9,7645.535962583,7645.596860791,7646.132178958,7647.008850916,0,0.647953250000683
138,13,6,categorization,0,kitchen,SHINEd_sun_acwjdupvyjsugpay.tif,76,0.0666666666666667,0.0666666666666667,0.85,7647.014567208,7647.241601083,13,7647.076267916,7647.137251125,7647.255638041,7648.098976541,0,0.227033875000416
138,14,6,categorization,0,kitchen,SHINEd_sun_avszsnwsbuqfgzbn.tif,105,0.0666666666666667,0.0666666666666667,0.733333333333333,7648.104169708,7648.945740416,9,7648.165874875,7648.226825791,7648.962634958,7649.689307,1,0.84157070800029
138,15,6,categorization,0,bathroom,SHINEd_sun_asfwthctfqerjvxr.tif,49,0.0666666666666667,0.0666666666666667,1.88333333333333,7649.69486175,7650.289923416,9,7649.756676166,7649.8176195,7650.302768125,7652.179474666,0,0.59506166600022
138,16,6,categorization,0,bathroom,SHINEd_sun_ahqjwnzgolcaoidx.tif,29,0.0666666666666667,0.0666666666666667,0.816666666666667,7652.197453708,7653.075507708,13,7652.264158958,7652.330432833,7653.104146166,7653.914151375,1,0.878054000000702
138,17,6,categorization,0,kitchen,SHINEd_sun_ajkqhtgcbgpcwrwn.tif,97,0.0666666666666667,0.0666666666666667,1.9,7653.920089375,7654.561918666,9,7653.981769166,7654.042775583,7654.577861875,7656.471255708,1,0.64182929099934
138,18,6,categorization,0,kitchen,SHINEd_sun_ahdycvpopffkzzsu.tif,90,0.0666666666666667,0.0666666666666667,0.983333333333333,7656.489161083,7657.454680916,9,7656.555832583,7656.621555416,7657.478733958,7658.455406666,1,0.965519833000144
138,19,6,categorization,0,kitchen,SHINEd_sun_abftihopvusyfakt.tif,71,0.0666666666666667,0.0666666666666667,0.75,7658.461251916,7659.09039975,9,7658.52305,7658.583942458,7659.10246775,7659.845806375,1,0.629147833999923
138,20,6,categorization,0,kitchen,SHINEd_sun_abpwyqmlzafvklqo.tif,72,0.0666666666666667,0.0666666666666667,1.6,7659.851464916,7660.738339208,9,7659.913164375,7659.974357583,7660.742898,7662.336273708,1,0.886874292000357
138,21,6,categorization,0,kitchen,SHINEd_sun_axyyrmzcupyhlivc.tif,107,0.0666666666666667,0.0666666666666667,1.58333333333333,7662.35548475,7663.022336375,9,7662.422319,7662.48824825,7663.045077833,7664.621786041,1,0.666851625000163
138,22,6,categorization,0,bathroom,SHINEd_sun_aclfzgynxzxlbepz.tif,19,0.0666666666666667,0.0666666666666667,1.11666666666667,7664.640259416,7665.212121916,13,7664.706787375,7664.773365416,7665.229249208,7666.339298666,1,0.571862499999952
138,23,6,categorization,0,bathroom,SHINEd_sun_ajlawzvmubibwbpy.tif,30,0.0666666666666667,0.0666666666666667,1.53333333333333,7666.350322708,7667.139584666,13,7666.415176958,7666.483188541,7667.15464375,7668.681366125,1,0.78926195799977
138,24,6,categorization,0,kitchen,SHINEd_sun_awcpdzzznmweyyhv.tif,106,0.0666666666666667,0.0666666666666667,1.48333333333333,7668.699740416,7669.301078958,9,7668.766424208,7668.832749583,7669.320217125,7670.796929958,1,0.601338542000121
138,25,6,categorization,0,bathroom,SHINEd_sun_agrwbmhcpmfuwmsg.tif,24,0.0666666666666667,0.0666666666666667,1.1,7670.816238833,7671.615577625,9,7670.883349333,7670.949076666,7671.63993675,7672.73331925,0,0.799338791999617
138,26,6,categorization,0,bathroom,SHINEd_sun_ahijqszoswveeyji.tif,28,0.0666666666666667,0.0666666666666667,0.933333333333333,7672.743507,7673.420349833,13,7672.80878425,7672.87705,7673.432448041,7674.359174916,1,0.676842832999682
138,27,6,categorization,0,bathroom,SHINEd_sun_agguqiubmwhqqunb.tif,22,0.0666666666666667,0.0666666666666667,0.816666666666667,7674.379023041,7675.265594458,9,7674.446124541,7674.512205916,7675.280898166,7676.090903083,0,0.886571416999686
138,28,6,categorization,0,kitchen,SHINEd_sun_auticobqsbwgoppi.tif,104,0.0666666666666667,0.0666666666666667,1.78333333333333,7676.096881125,7677.177340583,9,7676.158576,7676.21957625,7677.188042,7678.964757166,1,1.0804594579995
138,29,6,categorization,0,kitchen,SHINEd_sun_aunzlwrbjumxhwdj.tif,103,0.0666666666666667,0.0666666666666667,0.766666666666667,7678.981562875,7679.901678125,9,7679.04871725,7679.114298416,7679.9209005,7680.680905,1,0.920115249999981
138,30,6,categorization,0,kitchen,SHINEd_sun_aexklacwqwezaorf.tif,84,0.0666666666666667,0.0666666666666667,1.45,7680.68671875,7681.4500655,9,7680.748477666,7680.809583875,7681.461485458,7682.904870083,1,0.763346749999982
138,31,6,categorization,0,bathroom,SHINEd_sun_auzqhkafidnkrwmo.tif,54,0.0666666666666667,0.0666666666666667,0.75,7682.922696541,7683.585990875,9,7682.989263125,7683.055295541,7683.611495666,7684.354866291,0,0.663294334000057
138,32,6,categorization,0,bathroom,SHINEd_sun_aspsyogrekjtfozg.tif,50,0.0666666666666667,0.0666666666666667,1.36666666666667,7684.370871541,7685.057751875,13,7684.437668833,7684.501114416,7685.070111333,7686.4301605,1,0.686880333999397
138,33,6,categorization,0,bathroom,SHINEd_sun_acduarbnmmoglmiv.tif,16,0.0666666666666667,0.0666666666666667,0.75,7686.447767541,7687.019405708,9,7686.514755125,7686.57827925,7687.034138416,7687.777524791,0,0.571638166999946
138,34,6,categorization,0,bathroom,SHINEd_sun_avhrdrntsqrjzccq.tif,55,0.0666666666666667,0.0666666666666667,0.783333333333333,7687.794834,7688.346017291,9,7687.86253525,7687.927662666,7688.363711291,7689.140383041,0,0.551183290999688
138,35,6,categorization,0,kitchen,SHINEd_sun_ahpczsiumwwocjkv.tif,92,0.0666666666666667,0.0666666666666667,1.11666666666667,7689.145003416,7689.426388166,13,7689.206783583,7689.267845875,7689.436382333,7690.546425708,0,0.281384750000143
138,36,6,categorization,0,kitchen,SHINEd_sun_aeqdocilnnpuvuhx.tif,83,0.0666666666666667,0.0666666666666667,0.766666666666667,7690.55570125,7690.85260625,9,7690.62021775,7690.688390291,7690.878139708,7691.638181708,1,0.296904999999242
138,37,6,categorization,0,kitchen,SHINEd_sun_aypmqwcualkenuoe.tif,109,0.0666666666666667,0.0666666666666667,0.716666666666667,7691.652012458,7692.171785125,9,7691.718701916,7691.784881416,7692.191075041,7692.901080541,1,0.519772666999415
138,38,6,categorization,0,bathroom,SHINEd_sun_anhioqovhscjqqwb.tif,38,0.0666666666666667,0.0666666666666667,1.33333333333333,7692.906566416,7695.841796916,9,7692.968329416,7693.029229458,7695.848852833,7697.175578083,0,2.93523050000022
138,39,6,categorization,0,bathroom,SHINEd_sun_akiytfaagpdsphgz.tif,31,0.0666666666666667,0.0666666666666667,1.75,7697.185335,7697.729510541,9,7697.250214916,7697.316726708,7697.757033208,7699.500405083,0,0.544175541000186
138,40,6,categorization,0,kitchen,SHINEd_sun_aggjlwcdjsjcaemh.tif,86,0.0666666666666667,0.0666666666666667,1.13333333333333,7699.519094708,7700.222494541,9,7699.586208833,7699.652447041,7700.242644625,7701.369349083,1,0.703399832999821
138,41,6,categorization,0,kitchen,SHINEd_labelme_rykdqxenmhulbdn.tif,63,0.0666666666666667,0.0666666666666667,1.63333333333333,7701.380107875,7702.043462166,9,7701.444787208,7701.513241833,7702.069824791,7703.696538125,1,0.66335429099945
138,42,6,categorization,0,kitchen,SHINEd_sun_aamedkxepzlwuxes.tif,65,0.0666666666666667,0.0666666666666667,1.43333333333333,7703.714683875,7704.331459625,9,7703.781961833,7703.847710958,7704.354954791,7705.781659708,1,0.616775749999761
138,43,6,categorization,0,bathroom,SHINEd_sun_afcoljnjfoxjtgja.tif,20,0.0666666666666667,0.0666666666666667,1.83333333333333,7705.800570916,7706.571298,13,7705.867748708,7705.933795833,7706.590173625,7708.416898208,1,0.7707270840001
138,44,6,categorization,0,bathroom,SHINEd_sun_aoybiabnpadelefl.tif,41,0.0666666666666667,0.0666666666666667,1.93333333333333,7708.435942625,7709.057158375,9,7708.503086125,7708.568804375,7709.075673375,7711.00238525,0,0.621215749999465
138,45,6,categorization,0,bathroom,SHINEd_sun_agyqfjcfkdcydepw.tif,25,0.0666666666666667,0.0666666666666667,1.26666666666667,7711.021241208,7711.90005,13,7711.088395791,7711.15013575,7711.92418425,7713.184232125,1,0.8788087920002
138,46,6,categorization,0,kitchen,SHINEd_sun_admlmbcdswaszruo.tif,79,0.0666666666666667,0.0666666666666667,1.86666666666667,7713.195992541,7713.964103708,9,7713.260901666,7713.328311916,7713.985557291,7715.845594333,1,0.768111166999915
138,47,6,categorization,0,kitchen,SHINEd_sun_acgtpgfybqjmzeyw.tif,75,0.0666666666666667,0.0666666666666667,1.41666666666667,7715.863856833,7716.797162666,9,7715.930977541,7715.997286208,7716.821123,7718.231171708,1,0.933305833000304
138,48,6,categorization,0,kitchen,SHINEd_sun_azmutvzbxypaceni.tif,110,0.0666666666666667,0.0666666666666667,1.11666666666667,7718.25052025,7719.087645375,9,7718.317881666,7718.383928708,7719.1075105,7720.217573458,1,0.837125125000057
138,49,6,categorization,0,bathroom,SHINEd_sun_apkxzenqapsujocq.tif,45,0.0666666666666667,0.0666666666666667,1.8,7720.228914375,7720.746323125,13,7720.293787666,7720.362327208,7720.769404208,7722.562796333,1,0.517408749999959
138,50,6,categorization,0,bathroom,SHINEd_sun_aljolscmmzydegqp.tif,33,0.0666666666666667,0.0666666666666667,1.25,7722.581535166,7723.289774916,13,7722.648492541,7722.715012208,7723.30316675,7724.546564125,1,0.708239749999848
138,1,7,categorization,0,kitchen,SHINEd_sun_amjjdeyrggfqgmom.tif,100,0.0666666666666667,0.0666666666666667,0.883333333333333,7735.187608833,7735.818035583,9,7735.249335875,7735.310310833,7735.828798541,7736.705471416,1,0.63042674999997
138,2,7,categorization,0,kitchen,SHINEd_sun_aggjlwcdjsjcaemh.tif,86,0.0666666666666667,0.0666666666666667,1.03333333333333,7736.711127666,7737.434143583,9,7736.772840791,7736.833874333,7737.452395666,7738.479108125,1,0.723015917000339
138,3,7,categorization,0,kitchen,SHINEd_sun_abdenxonkemggwsq.tif,69,0.0666666666666667,0.0666666666666667,1.06666666666667,7738.492288375,7738.868805083,9,7738.556976416,7738.623535333,7738.896562916,7739.956622333,1,0.376516708000054
138,4,7,categorization,0,bathroom,SHINEd_sun_akiytfaagpdsphgz.tif,31,0.0666666666666667,0.0666666666666667,0.833333333333333,7739.975166583,7740.508315,9,7740.041971708,7740.108115833,7740.532033416,7741.358705958,0,0.53314841700012
138,5,7,categorization,0,kitchen,SHINEd_sun_ahywdevtimnqcsln.tif,94,0.0666666666666667,0.0666666666666667,0.716666666666667,7741.363919708,7741.70612275,13,7741.425682625,7741.486641541,7741.721739625,7742.431745,0,0.34220304199971
138,6,7,categorization,0,kitchen,SHINEd_sun_aehawpgmrlhlvcow.tif,81,0.0666666666666667,0.0666666666666667,0.733333333333333,7742.436833083,7743.289683083,9,7742.498449375,7742.559488291,7743.294413,7744.021084958,1,0.852850000000217
138,7,7,categorization,0,bathroom,SHINEd_sun_aapitsgbtktqubfy.tif,12,0.0666666666666667,0.0666666666666667,1.38333333333333,7744.026915708,7744.754145125,13,7744.088667458,7744.1496475,7744.768349625,7746.145062958,1,0.727229416999762
138,8,7,categorization,0,bathroom,SHINEd_sun_aspsyogrekjtfozg.tif,50,0.0666666666666667,0.0666666666666667,0.9,7746.162986875,7746.466481916,9,7746.228151916,7746.295885916,7746.485569583,7747.37893675,0,0.303495041000133
138,9,7,categorization,0,bathroom,SHINEd_sun_abjtwfukuwddzted.tif,15,0.0666666666666667,0.0666666666666667,0.816666666666667,7747.390475041,7747.66739425,13,7747.456737666,7747.523057291,7747.696170666,7748.506177708,1,0.276919208999971
138,10,7,categorization,0,bathroom,SHINEd_sun_axyrejkiiaqiurjk.tif,59,0.0666666666666667,0.0666666666666667,0.85,7748.511858666,7748.833693666,9,7748.57356275,7748.634561708,7748.852925458,7749.696263208,0,0.321834999999737
138,11,7,categorization,0,bathroom,SHINEd_sun_atstyziqcmkahyxk.tif,51,0.0666666666666667,0.0666666666666667,1.6,7749.701198,7750.401466541,13,7749.7628425,7749.823978,7750.409345416,7752.002737833,1,0.700268541000696
138,12,7,categorization,0,bathroom,SHINEd_sun_awnqiikzaispgmwo.tif,56,0.0666666666666667,0.0666666666666667,1.75,7752.018119875,7752.645719583,13,7752.085156291,7752.151556208,7752.675446041,7754.418815791,1,0.627599708000162
138,13,7,categorization,0,kitchen,SHINEd_sun_agubuxuukhzyzpdp.tif,88,0.0666666666666667,0.0666666666666667,1.1,7754.437657375,7755.214632125,9,7754.504529958,7754.570668416,7755.243566791,7756.336951208,1,0.776974750000591
138,14,7,categorization,0,bathroom,SHINEd_sun_ambriybtogmepttm.tif,36,0.0666666666666667,0.0666666666666667,1.46666666666667,7756.34651325,7757.006256416,9,7756.4116955,7756.47954925,7757.036743583,7758.4967975,0,0.659743166000226
138,15,7,categorization,0,kitchen,SHINEd_sun_abrcnpqqhmjwekyf.tif,73,0.0666666666666667,0.0666666666666667,1.25,7758.510898416,7759.212932541,9,7758.578524041,7758.644179791,7759.234908333,7760.478293291,1,0.702034124999955
138,16,7,categorization,0,kitchen,SHINEd_sun_aeqdocilnnpuvuhx.tif,83,0.0666666666666667,0.0666666666666667,1.13333333333333,7760.488839166,7761.171456125,9,7760.553646166,7760.621909875,7761.1947715,7762.321497375,1,0.68261695900037
138,17,7,categorization,0,kitchen,SHINEd_sun_aypmqwcualkenuoe.tif,109,0.0666666666666667,0.0666666666666667,1.33333333333333,7762.339599375,7762.9858565,9,7762.406345458,7762.472215291,7762.99123725,7764.317954,1,0.646257125000375
138,18,7,categorization,0,kitchen,SHINEd_labelme_brsyyvweiuaazfr.tif,61,0.0666666666666667,0.0666666666666667,1.86666666666667,7764.336335625,7764.951477916,9,7764.403566125,7764.469348625,7764.976254041,7766.836307541,1,0.615142290999756
138,19,7,categorization,0,kitchen,SHINEd_sun_acwjdupvyjsugpay.tif,76,0.0666666666666667,0.0666666666666667,1.58333333333333,7766.855339166,7767.449282541,9,7766.922398291,7766.988368583,7767.478695,7769.055418125,1,0.593943374999981
138,20,7,categorization,0,kitchen,SHINEd_sun_ahljzhgcdpomplvg.tif,91,0.0666666666666667,0.0666666666666667,1.05,7769.074723041,7769.91508675,9,7769.141589541,7769.203381,7769.94353325,7770.986915458,1,0.840363709000485
138,21,7,categorization,0,bathroom,SHINEd_sun_axxbkopsgyouuebh.tif,58,0.0666666666666667,0.0666666666666667,0.9,7770.999893708,7771.825921791,13,7771.064841,7771.13132125,7771.855234,7772.748625166,1,0.826028082999983
138,22,7,categorization,0,kitchen,SHINEd_sun_aenotlpyftoioydp.tif,82,0.0666666666666667,0.0666666666666667,0.7,7772.76181225,7773.465921333,9,7772.827803208,7772.895890791,7773.48166475,7774.175003208,1,0.704109082999821
138,23,7,categorization,0,kitchen,SHINEd_sun_axyyrmzcupyhlivc.tif,107,0.0666666666666667,0.0666666666666667,0.933333333333333,7774.179762666,7774.91414,9,7774.241540083,7774.302482666,7774.9213615,7775.848033833,1,0.734377333999873
138,24,7,categorization,0,bathroom,SHINEd_sun_apmqjbnwghzuhhzh.tif,46,0.0666666666666667,0.0666666666666667,1.95,7775.853845625,7776.433224833,9,7775.915581,7775.976569708,7776.444976833,7778.388372666,0,0.579379208000319
138,25,7,categorization,0,kitchen,SHINEd_sun_awcpdzzznmweyyhv.tif,106,0.0666666666666667,0.0666666666666667,1.06666666666667,7778.407270458,7779.211534541,9,7778.47385425,7778.540471833,7779.228704625,7780.28875725,1,0.804264082999907
138,26,7,categorization,0,bathroom,SHINEd_sun_amzlamotzwfkwjco.tif,37,0.0666666666666667,0.0666666666666667,1.2,7780.3001165,7780.990669916,9,7780.364850833,7780.431471166,7781.003802833,7782.197174041,0,0.690553416000512
138,27,7,categorization,0,kitchen,SHINEd_sun_admlmbcdswaszruo.tif,79,0.0666666666666667,0.0666666666666667,0.75,7782.2132885,7782.826196958,9,7782.280211833,7782.345142833,7782.830648791,7783.573986458,1,0.612908457999765
138,28,7,categorization,0,bathroom,SHINEd_sun_aqrpegblszgcoujh.tif,48,0.0666666666666667,0.0666666666666667,0.816666666666667,7783.579148375,7784.217604625,13,7783.641030375,7783.701971875,7784.237139791,7785.0471445,1,0.638456249999763
138,29,7,categorization,0,kitchen,SHINEd_sun_aunzlwrbjumxhwdj.tif,103,0.0666666666666667,0.0666666666666667,1.96666666666667,7785.052872791,7785.817893083,9,7785.114523541,7785.175581583,7785.827359333,7787.787415958,1,0.765020292000372
138,30,7,categorization,0,bathroom,SHINEd_sun_apeeialkgkuxddgh.tif,42,0.0666666666666667,0.0666666666666667,1.2,7787.813597583,7787.982167625,9,7787.881357458,7787.946835541,7788.003610958,7789.196964166,0,0.168570042000283
138,31,7,categorization,0,kitchen,SHINEd_sun_auticobqsbwgoppi.tif,104,0.0666666666666667,0.0666666666666667,0.883333333333333,7789.20698975,7791.905663708,9,7789.271673,7789.338629916,7791.924717083,7792.801390583,1,2.69867395800065
138,32,7,categorization,0,bathroom,SHINEd_sun_agyqfjcfkdcydepw.tif,25,0.0666666666666667,0.0666666666666667,1.33333333333333,7792.807170416,7793.754103,9,7792.868971625,7792.9299705,7793.765167958,7795.0918715,0,0.946932584000024
138,33,7,categorization,0,kitchen,SHINEd_sun_ahdycvpopffkzzsu.tif,90,0.0666666666666667,0.0666666666666667,1.45,7795.111057291,7795.838679416,9,7795.17650275,7795.240664833,7795.863869625,7797.307237541,1,0.727622124999471
138,34,7,categorization,0,kitchen,SHINEd_sun_afuyedyxivkhecmu.tif,85,0.0666666666666667,0.0666666666666667,1.15,7797.317182541,7797.90759775,9,7797.382210916,7797.449941958,7797.922430291,7799.065803666,1,0.59041520899973
138,35,7,categorization,0,bathroom,SHINEd_sun_apynckhmoftszqoq.tif,47,0.0666666666666667,0.0666666666666667,0.966666666666667,7799.076742458,7799.692335458,13,7799.142998208,7799.205757416,7799.712337333,7800.672376,1,0.615593000000445
138,36,7,categorization,0,kitchen,SHINEd_sun_akcjzhbbjlbogpdi.tif,99,0.0666666666666667,0.0666666666666667,1.45,7800.690171125,7801.417710166,9,7800.756979541,7800.823106666,7801.425133041,7802.868501666,1,0.727539040999545
138,37,7,categorization,0,kitchen,SHINEd_sun_abpwyqmlzafvklqo.tif,72,0.0666666666666667,0.0666666666666667,0.8,7802.884599666,7803.164954416,9,7802.951570375,7803.017577708,7803.188549708,7803.981940666,1,0.280354749999788
138,38,7,categorization,0,kitchen,SHINEd_sun_abdxkyyxwfskuaqb.tif,70,0.0666666666666667,0.0666666666666667,1.45,7803.996653583,7804.546157125,9,7804.062899875,7804.129411708,7804.565416208,7806.008809875,1,0.549503541999911
138,39,7,categorization,0,bathroom,SHINEd_sun_ahijqszoswveeyji.tif,28,0.0666666666666667,0.0666666666666667,1.1,7806.027608416,7806.673200166,13,7806.093882083,7806.160284416,7806.700402833,7807.793773041,1,0.645591750000676
138,40,7,categorization,0,bathroom,SHINEd_sun_auzqhkafidnkrwmo.tif,54,0.0666666666666667,0.0666666666666667,1.16666666666667,7807.804477583,7808.52259325,13,7807.869702208,7807.937491041,7808.5439875,7809.704039,1,0.718115666999438
138,41,7,categorization,0,bathroom,SHINEd_sun_axldvoqbuvuggfmq.tif,57,0.0666666666666667,0.0666666666666667,1.31666666666667,7809.7206155,7810.345959583,9,7809.7864565,7809.84490375,7810.363508875,7811.673557041,0,0.625344082999618
138,42,7,categorization,0,bathroom,SHINEd_sun_alkosphxlxwjwgjd.tif,34,0.0666666666666667,0.0666666666666667,1.68333333333333,7811.690716625,7812.326839,9,7811.757313875,7811.8236755,7812.347411583,7814.024133041,0,0.636122375000014
138,43,7,categorization,0,kitchen,SHINEd_sun_aarfiyshqohlwkmo.tif,67,0.0666666666666667,0.0666666666666667,0.966666666666667,7814.044935458,7814.74834375,9,7814.111829375,7814.177825916,7814.766954791,7815.726965416,1,0.703408291999949
138,44,7,categorization,0,bathroom,SHINEd_sun_alotolagknyrgtsk.tif,35,0.0666666666666667,0.0666666666666667,1.4,7815.732883916,7816.449175208,9,7815.794636958,7815.855640958,7816.457460541,7817.850846,0,0.716291292000278
138,45,7,categorization,0,kitchen,SHINEd_sun_aegoxogugdkwpmpj.tif,80,0.0666666666666667,0.0666666666666667,0.783333333333333,7817.868951833,7818.41870275,9,7817.935863291,7818.001661833,7818.441641666,7819.218352291,1,0.549750916999983
138,46,7,categorization,0,kitchen,SHINEd_sun_agzzivivdpnawacl.tif,89,0.0666666666666667,0.0666666666666667,1.08333333333333,7819.23129225,7819.929368833,13,7819.295643458,7819.362843708,7819.948730041,7821.025435916,0,0.698076583000329
138,47,7,categorization,0,kitchen,SHINEd_sun_ajcbwwvdlsvjyzje.tif,96,0.0666666666666667,0.0666666666666667,1.43333333333333,7821.038420416,7821.686710125,9,7821.103277375,7821.166022125,7821.70611375,7823.132834208,1,0.648289708999982
138,48,7,categorization,0,kitchen,SHINEd_sun_aqeaevwwwjoqhzvl.tif,101,0.0666666666666667,0.0666666666666667,1.75,7823.143375041,7823.660365791,9,7823.207909041,7823.272676541,7823.67879875,7825.422166958,1,0.516990750000332
138,49,7,categorization,0,bathroom,SHINEd_sun_aavhrsfjbserjtht.tif,13,0.0666666666666667,0.0666666666666667,1.21666666666667,7825.444617541,7826.036077375,9,7825.511507541,7825.578092208,7826.050696791,7827.260753458,0,0.591459833999579
138,50,7,categorization,0,bathroom,SHINEd_sun_aclfzgynxzxlbepz.tif,19,0.0666666666666667,0.0666666666666667,1.31666666666667,7827.271523666,7827.73758325,9,7827.333586625,7827.394323041,7827.746159291,7829.056195541,0,0.466059584000504
138,1,8,categorization,0,bathroom,SHINEd_sun_apkruvsevgegsdwp.tif,44,0.0666666666666667,0.0666666666666667,1.18333333333333,7833.484489458,7834.145071041,9,7833.547247125,7833.607733625,7834.159635916,7835.336336708,0,0.660581582999839
138,2,8,categorization,0,bathroom,SHINEd_sun_aoybiabnpadelefl.tif,41,0.0666666666666667,0.0666666666666667,0.983333333333333,7835.347871833,7835.99449575,9,7835.412695375,7835.481243416,7836.020714458,7836.997424208,0,0.646623917000397
138,3,8,categorization,0,kitchen,SHINEd_sun_ahspylgoovwmwvgk.tif,93,0.0666666666666667,0.0666666666666667,1.65,7837.0138805,7837.617033666,9,7837.080492875,7837.1453195,7837.630757666,7839.274152625,1,0.603153166000084
138,4,8,categorization,0,bathroom,SHINEd_sun_apkxzenqapsujocq.tif,45,0.0666666666666667,0.0666666666666667,1.23333333333333,7839.284868875,7839.8903215,13,7839.34993525,7839.417546416,7839.906919708,7841.133622375,1,0.605452624999998
138,5,8,categorization,0,bathroom,SHINEd_sun_ajlawzvmubibwbpy.tif,30,0.0666666666666667,0.0666666666666667,0.916666666666667,7841.146853916,7841.705829833,13,7841.212076625,7841.27593175,7841.731854625,7842.641902958,1,0.55897591700068
138,6,8,categorization,0,kitchen,SHINEd_sun_acgtpgfybqjmzeyw.tif,75,0.0666666666666667,0.0666666666666667,1.56666666666667,7842.658544208,7843.129086291,9,7842.725330875,7842.791349708,7843.143783458,7844.703834291,1,0.4705420829996
138,7,8,categorization,0,kitchen,SHINEd_sun_aexklacwqwezaorf.tif,84,0.0666666666666667,0.0666666666666667,1.63333333333333,7844.721273,7845.423286708,13,7844.788159416,7844.8538065,7845.443797875,7847.070499291,0,0.702013707999868
138,8,8,categorization,0,bathroom,SHINEd_sun_ausgutylgojavyoq.tif,53,0.0666666666666667,0.0666666666666667,1.1,7847.0881025,7847.76296875,13,7847.153126083,7847.217199583,7847.791715208,7848.885107791,1,0.674866250000377
138,9,8,categorization,0,kitchen,SHINEd_sun_aaxxjlsuzvqlgylf.tif,68,0.0666666666666667,0.0666666666666667,1.38333333333333,7848.895441708,7849.665449583,9,7848.960563666,7849.0279425,7849.6837725,7851.06049425,1,0.770007874999465
138,10,8,categorization,0,bathroom,SHINEd_sun_ahcvzmoyaycdoftf.tif,27,0.0666666666666667,0.0666666666666667,0.766666666666667,7851.077979708,7851.796506375,13,7851.143729208,7851.209930041,7851.816402833,7852.576460166,1,0.718526666999423
138,11,8,categorization,0,bathroom,SHINEd_sun_ahaulkltgpkeeemi.tif,26,0.0666666666666667,0.0666666666666667,1.45,7852.594144708,7853.489451458,13,7852.66126325,7852.727231291,7853.496032625,7854.939407166,1,0.895306749999691
138,12,8,categorization,0,bathroom,SHINEd_sun_anryaplzeujmzfkd.tif,39,0.0666666666666667,0.0666666666666667,0.983333333333333,7854.953089625,7855.876416375,13,7855.019962791,7855.085725583,7855.891408375,7856.868081666,1,0.923326750000342
138,13,8,categorization,0,bathroom,SHINEd_sun_aofnryafpsjimzsb.tif,40,0.0666666666666667,0.0666666666666667,0.716666666666667,7856.876900083,7857.7049285,13,7856.938633708,7856.999674625,7857.718478666,7858.428484583,1,0.828028417000496
138,14,8,categorization,0,kitchen,SHINEd_sun_ajkqhtgcbgpcwrwn.tif,97,0.0666666666666667,0.0666666666666667,1.41666666666667,7858.433611583,7859.225804291,9,7858.495251416,7858.55640275,7859.241572041,7860.651621583,1,0.792192707999675
138,15,8,categorization,0,bathroom,SHINEd_sun_aghyqhbptboemmoq.tif,23,0.0666666666666667,0.0666666666666667,1.21666666666667,7860.668857,7861.298949,9,7860.73670375,7860.802138666,7861.324494083,7862.534531041,0,0.630092000000332
138,16,8,categorization,0,bathroom,SHINEd_sun_apjevzvycyhuqghb.tif,43,0.0666666666666667,0.0666666666666667,1.61666666666667,7862.552130875,7863.172161291,9,7862.618879166,7862.6848235,7863.18956575,7864.799606416,0,0.620030415999281
138,17,8,categorization,0,bathroom,SHINEd_sun_anhioqovhscjqqwb.tif,38,0.0666666666666667,0.0666666666666667,0.783333333333333,7864.818029333,7865.418059833,13,7864.884684166,7864.95061225,7865.4406555,7866.21737475,1,0.600030500000685
138,18,8,categorization,0,bathroom,SHINEd_labelme_sfxiulhjbhlyiyt.tif,11,0.0666666666666667,0.0666666666666667,1.98333333333333,7866.234838208,7866.761460166,13,7866.3021155,7866.367482833,7866.769563916,7868.746287583,1,0.526621957999851
138,19,8,categorization,0,bathroom,SHINEd_sun_aljolscmmzydegqp.tif,33,0.0666666666666667,0.0666666666666667,0.983333333333333,7868.766035583,7869.609912958,13,7868.833418083,7868.899369375,7869.640389625,7870.617061375,1,0.843877374999465
138,20,8,categorization,0,bathroom,SHINEd_sun_aleqenyvunhactkl.tif,32,0.0666666666666667,0.0666666666666667,0.8,7870.623409875,7871.305073416,13,7870.685262208,7870.746183583,7871.314538791,7872.107878625,1,0.68166354099958
138,21,8,categorization,0,kitchen,SHINEd_sun_aymvwlarqodbwuoc.tif,108,0.0666666666666667,0.0666666666666667,0.733333333333333,7872.113445,7872.744792291,9,7872.175173541,7872.236134,7872.75483125,7873.48150375,1,0.631347290999656
138,22,8,categorization,0,kitchen,SHINEd_sun_acfmftudsenhrfhy.tif,74,0.0666666666666667,0.0666666666666667,0.966666666666667,7873.4864745,7874.1212435,9,7873.5482295,7873.609188083,7874.127940333,7875.08794575,1,0.634768999999324
138,23,8,categorization,0,kitchen,SHINEd_sun_agorklincwxrdtga.tif,87,0.0666666666666667,0.0666666666666667,0.866666666666667,7875.093784,7875.753836583,9,7875.155495041,7875.216516375,7875.768576625,7876.628582833,1,0.660052582999924
138,24,8,categorization,0,kitchen,SHINEd_sun_aadbddgrdsjugojn.tif,64,0.0666666666666667,0.0666666666666667,1.23333333333333,7876.634288125,7877.25775925,9,7876.695975208,7876.757171625,7877.275720333,7878.502446583,1,0.623471124999924
138,25,8,categorization,0,kitchen,SHINEd_sun_auaiucuqpdausiva.tif,102,0.0666666666666667,0.0666666666666667,1.9,7878.519741416,7879.168600291,9,7878.586365125,7878.652949208,7879.192046375,7881.085431208,1,0.64885887499986
138,26,8,categorization,0,kitchen,SHINEd_sun_aapllqyqlykszopd.tif,66,0.0666666666666667,0.0666666666666667,0.866666666666667,7881.10327475,7881.749543458,9,7881.168553791,7881.235914875,7881.775787375,7882.635792875,1,0.646268707999297
138,27,8,categorization,0,bathroom,SHINEd_sun_acduarbnmmoglmiv.tif,16,0.0666666666666667,0.0666666666666667,0.966666666666667,7882.642791875,7883.241296625,9,7882.70459075,7882.765534125,7883.250611125,7884.21061675,0,0.598504750000757
138,28,8,categorization,0,bathroom,SHINEd_sun_agrwbmhcpmfuwmsg.tif,24,0.0666666666666667,0.0666666666666667,0.916666666666667,7884.216399291,7884.7053995,9,7884.278114875,7884.339120333,7884.724471625,7885.634475708,0,0.489000208999641
138,29,8,categorization,0,kitchen,SHINEd_labelme_kxvouciolcpqplr.tif,62,0.0666666666666667,0.0666666666666667,0.916666666666667,7885.640193625,7886.177320583,9,7885.701974375,7885.762999833,7886.181626458,7887.091632208,1,0.537126958000044
138,30,8,categorization,0,kitchen,SHINEd_sun_acxkpeoqbwcxfvip.tif,77,0.0666666666666667,0.0666666666666667,1.4,7887.097365166,7887.58469825,9,7887.158996333,7887.220109708,7887.588555625,7888.981940375,1,0.487333084000056
138,31,8,categorization,0,kitchen,SHINEd_sun_ahpczsiumwwocjkv.tif,92,0.0666666666666667,0.0666666666666667,1.75,7888.999400875,7889.332087083,9,7889.065880291,7889.132280083,7889.354107333,7891.097484291,1,0.332686208000268
138,32,8,categorization,0,kitchen,SHINEd_labelme_rykdqxenmhulbdn.tif,63,0.0666666666666667,0.0666666666666667,1.25,7891.115053125,7891.725311166,9,7891.179229166,7891.241794208,7891.748618541,7892.992005666,1,0.610258041000634
138,33,8,categorization,0,kitchen,SHINEd_sun_aamedkxepzlwuxes.tif,65,0.0666666666666667,0.0666666666666667,1.05,7893.011078875,7893.412886666,9,7893.077734416,7893.144117875,7893.434007,7894.477391541,1,0.401807791000465
138,34,8,categorization,0,bathroom,SHINEd_sun_avhrdrntsqrjzccq.tif,55,0.0666666666666667,0.0666666666666667,1.06666666666667,7894.494038666,7895.033509083,9,7894.5609065,7894.626683833,7895.045965625,7896.106010625,0,0.539470417000302
138,35,8,categorization,0,kitchen,SHINEd_sun_adgqasybjyktddhj.tif,78,0.0666666666666667,0.0666666666666667,1.21666666666667,7896.11617775,7896.69507775,9,7896.181229833,7896.246873,7896.71969125,7897.929726416,1,0.578899999999521
138,36,8,categorization,0,bathroom,SHINEd_sun_azqyogdvyhahyram.tif,60,0.0666666666666667,0.0666666666666667,0.95,7897.946985458,7898.601634583,13,7898.014058875,7898.078454666,7898.614061458,7899.557400875,1,0.654649125000105
138,37,8,categorization,0,bathroom,SHINEd_sun_ahqjwnzgolcaoidx.tif,29,0.0666666666666667,0.0666666666666667,0.9,7899.562564333,7900.297352375,9,7899.624398041,7899.685288708,7900.304435416,7901.197771958,0,0.734788041999309
138,38,8,categorization,0,kitchen,SHINEd_sun_aixorpehvfykdynp.tif,95,0.0666666666666667,0.0666666666666667,1.78333333333333,7901.202644208,7901.704837541,9,7901.2642815,7901.325407,7901.710553125,7903.48725975,1,0.502193333000832
138,39,8,categorization,0,kitchen,SHINEd_sun_avszsnwsbuqfgzbn.tif,105,0.0666666666666667,0.0666666666666667,1.16666666666667,7903.503936083,7904.977040916,9,7903.570567958,7903.636708875,7904.989564875,7906.14960475,1,1.47310483300043
138,40,8,categorization,0,bathroom,SHINEd_sun_abapwbhyhkfixyex.tif,14,0.0666666666666667,0.0666666666666667,0.783333333333333,7906.160547291,7906.4915995,9,7906.227409291,7906.293945208,7906.51738575,7907.294099083,0,0.331052209000518
138,41,8,categorization,0,kitchen,SHINEd_sun_abftihopvusyfakt.tif,71,0.0666666666666667,0.0666666666666667,1.23333333333333,7907.30266975,7907.731984041,9,7907.367713083,7907.4355945,7907.759042375,7908.9857645,1,0.429314291000082
138,42,8,categorization,0,bathroom,SHINEd_sun_afcoljnjfoxjtgja.tif,20,0.0666666666666667,0.0666666666666667,0.9,7909.003862583,7909.377965666,9,7909.07045575,7909.137046791,7909.393027041,7910.286398208,0,0.374103082999682
138,43,8,categorization,0,bathroom,SHINEd_sun_acegryoqftbzowsg.tif,17,0.0666666666666667,0.0666666666666667,0.7,7910.302323166,7910.604629541,9,7910.36898725,7910.43523725,7910.62500525,7911.318343208,0,0.302306374999716
138,44,8,categorization,0,kitchen,SHINEd_sun_azmutvzbxypaceni.tif,110,0.0666666666666667,0.0666666666666667,1.23333333333333,7911.323025541,7911.832872333,9,7911.384801083,7911.445773833,7911.84783575,7913.074552625,1,0.509846791999735
138,45,8,categorization,0,bathroom,SHINEd_sun_aunuadmjocsddsrl.tif,52,0.0666666666666667,0.0666666666666667,1,7913.091368666,7913.481498166,9,7913.155439833,7913.2222805,7913.494492291,7914.4878735,0,0.390129500000512
138,46,8,categorization,0,kitchen,SHINEd_sun_akchetnepxlcxhsu.tif,98,0.0666666666666667,0.0666666666666667,1.38333333333333,7914.504604583,7914.867339875,9,7914.571093041,7914.63720425,7914.893455791,7916.270160125,1,0.362735291999343
138,47,8,categorization,0,bathroom,SHINEd_sun_aggnnqpdorgxpvce.tif,21,0.0666666666666667,0.0666666666666667,1.3,7916.288640541,7916.837612,9,7916.355261625,7916.420850916,7916.861072875,7918.154464958,0,0.548971459000313
138,48,8,categorization,0,bathroom,SHINEd_sun_acgyywnybuveqsro.tif,18,0.0666666666666667,0.0666666666666667,0.833333333333333,7918.172854958,7918.8422465,9,7918.239472708,7918.305557958,7918.862053375,7919.688768375,0,0.669391542000085
138,49,8,categorization,0,bathroom,SHINEd_sun_asfwthctfqerjvxr.tif,49,0.0666666666666667,0.0666666666666667,0.95,7919.705721958,7920.361353083,9,7919.772275125,7919.838066291,7920.373607875,7921.316944958,0,0.655631124999672
138,50,8,categorization,0,bathroom,SHINEd_sun_agguqiubmwhqqunb.tif,22,0.0666666666666667,0.0666666666666667,1.43333333333333,7921.321875791,7921.489098041,13,7921.383560708,7921.444652333,7921.496347333,7922.923066458,1,0.167222250000123
138,1,9,categorization,0,bathroom,SHINEd_sun_awnqiikzaispgmwo.tif,56,0.0666666666666667,0.0666666666666667,1.08333333333333,7926.984062291,7928.393593083,9,7927.046542083,7927.10696875,7928.409337541,7929.486057125,0,1.40953079200062
138,2,9,categorization,0,kitchen,SHINEd_sun_aqeaevwwwjoqhzvl.tif,101,0.0666666666666667,0.0666666666666667,0.8,7929.498710583,7929.835179166,9,7929.563849375,7929.631560166,7929.85463575,7930.648020958,1,0.336468583000169
138,3,9,categorization,0,bathroom,SHINEd_sun_agyqfjcfkdcydepw.tif,25,0.0666666666666667,0.0666666666666667,0.833333333333333,7930.662070291,7931.038883833,9,7930.728221,7930.794849541,7931.068251458,7931.894924416,0,0.376813541999582
138,4,9,categorization,0,bathroom,SHINEd_sun_aclfzgynxzxlbepz.tif,19,0.0666666666666667,0.0666666666666667,1.45,7931.900329,7932.185371208,9,7931.961996125,7932.023155916,7932.191646333,7933.635023791,0,0.28504220800005
138,5,9,categorization,0,bathroom,SHINEd_sun_acduarbnmmoglmiv.tif,16,0.0666666666666667,0.0666666666666667,1.3,7933.649091791,7934.451461083,13,7933.715925,7933.781888541,7934.47158275,7935.764953541,1,0.802369292000549
138,6,9,categorization,0,bathroom,SHINEd_sun_abjtwfukuwddzted.tif,15,0.0666666666666667,0.0666666666666667,1.21666666666667,7935.783047,7937.005306958,9,7935.8500105,7935.916471166,7937.024587666,7938.234638416,0,1.222259958
138,7,9,categorization,0,bathroom,SHINEd_sun_anryaplzeujmzfkd.tif,39,0.0666666666666667,0.0666666666666667,0.733333333333333,7938.25180275,7938.602819833,9,7938.319975458,7938.384447875,7938.624911625,7939.351635791,0,0.351017082999533
138,8,9,categorization,0,kitchen,SHINEd_sun_aypmqwcualkenuoe.tif,109,0.0666666666666667,0.0666666666666667,1.03333333333333,7939.361770833,7941.889464666,13,7939.42844825,7939.494560291,7941.897516875,7942.924227083,0,2.52769383299983
138,9,9,categorization,0,bathroom,SHINEd_sun_ahijqszoswveeyji.tif,28,0.0666666666666667,0.0666666666666667,1.1,7942.941069416,7943.637305791,13,7943.007463041,7943.073465791,7943.665397666,7944.758774458,1,0.696236374999899
138,10,9,categorization,0,kitchen,SHINEd_sun_auaiucuqpdausiva.tif,102,0.0666666666666667,0.0666666666666667,1.25,7944.77729775,7945.409338333,9,7944.844052333,7944.910591041,7945.4294055,7946.672794041,1,0.632040583000162
138,11,9,categorization,0,kitchen,SHINEd_sun_aexklacwqwezaorf.tif,84,0.0666666666666667,0.0666666666666667,1.4,7946.690424125,7947.323709958,9,7946.757464666,7946.823233708,7947.345190333,7948.738577833,1,0.633285832999718
138,12,9,categorization,0,kitchen,SHINEd_sun_akchetnepxlcxhsu.tif,98,0.0666666666666667,0.0666666666666667,1.43333333333333,7948.760204166,7949.154273166,9,7948.826929958,7948.893237833,7949.164227625,7950.590936458,1,0.394068999999945
138,13,9,categorization,0,bathroom,SHINEd_sun_axldvoqbuvuggfmq.tif,57,0.0666666666666667,0.0666666666666667,1.26666666666667,7950.610608708,7950.731112375,9,7950.677943916,7950.744081208,7950.766812541,7952.026852625,0,0.120503666999866
138,14,9,categorization,0,kitchen,SHINEd_sun_aeqdocilnnpuvuhx.tif,83,0.0666666666666667,0.0666666666666667,0.916666666666667,7952.044973583,7952.657777583,13,7952.112214708,7952.178231916,7952.664347,7953.574351083,0,0.612804000000324
138,15,9,categorization,0,kitchen,SHINEd_sun_ahljzhgcdpomplvg.tif,91,0.0666666666666667,0.0666666666666667,1.05,7953.579286708,7954.472785875,9,7953.6411165,7953.702070166,7954.4872085,7955.530576125,1,0.8934991670003
138,16,9,categorization,0,bathroom,SHINEd_sun_acegryoqftbzowsg.tif,17,0.0666666666666667,0.0666666666666667,1.53333333333333,7955.543410708,7956.245361708,13,7955.608285208,7955.673944833,7956.263355083,7957.790069041,1,0.701951000000008
138,17,9,categorization,0,kitchen,SHINEd_labelme_kxvouciolcpqplr.tif,62,0.0666666666666667,0.0666666666666667,1.11666666666667,7957.808428416,7958.477202291,9,7957.875589666,7957.941476625,7958.498942166,7959.609001875,1,0.668773874999715
138,18,9,categorization,0,kitchen,SHINEd_labelme_rykdqxenmhulbdn.tif,63,0.0666666666666667,0.0666666666666667,1.05,7959.627773958,7960.097609166,9,7959.690360666,7959.750604291,7960.102381083,7961.145761666,1,0.469835208000404
138,19,9,categorization,0,kitchen,SHINEd_sun_aehawpgmrlhlvcow.tif,81,0.0666666666666667,0.0666666666666667,1.66666666666667,7961.154363666,7961.490199333,9,7961.218921666,7961.2855705,7961.50738075,7963.167441833,1,0.335835667000538
138,20,9,categorization,0,bathroom,SHINEd_sun_alkosphxlxwjwgjd.tif,34,0.0666666666666667,0.0666666666666667,1.98333333333333,7963.178490166,7963.609313791,9,7963.241047916,7963.301267541,7963.619736416,7965.596452208,0,0.430823624999903
138,21,9,categorization,0,kitchen,SHINEd_sun_abdxkyyxwfskuaqb.tif,70,0.0666666666666667,0.0666666666666667,1.06666666666667,7965.613335916,7969.623181916,9,7965.67993125,7965.746373583,7969.63972225,7970.699775333,1,4.00984599999992
138,22,9,categorization,0,bathroom,SHINEd_sun_apmqjbnwghzuhhzh.tif,46,0.0666666666666667,0.0666666666666667,1.31666666666667,7970.711758208,7971.436648291,13,7970.776892,7970.840868791,7971.464264791,7972.774320333,1,0.724890082999991
