sub_num,trial,block,task,is_practice,category,image,texture,duration,mask_dur,jitter,stim_time,time_of_resp,trial_response,mask_time,fix_time,jit_onset,trial_end,trial_accuracy,RT
136,1,0,familiarity,1,bathroom,bathroom_practice1.tif,221,1.5,0,0.916666666666667,1212.721304291,1216.560408916,5,NaN,1216.566605333,1216.585067541,1217.495073541,NaN,NaN
136,2,0,familiarity,1,bathroom,bathroom_practice2.tif,222,1.5,0,0.85,1217.499557166,1220.300096708,1,NaN,1220.329606208,1220.352848041,1221.196185291,NaN,NaN
136,3,0,familiarity,1,bathroom,bathroom_practice3.tif,223,1.5,0,0.883333333333333,1221.201025541,1223.972798791,6,NaN,1224.001650333,1224.025723208,1224.90239525,NaN,NaN
136,4,0,familiarity,1,bathroom,bathroom_practice5.tif,225,1.5,0,1.43333333333333,1224.907249291,1227.841634458,4,NaN,1227.870838041,1227.894394791,1229.32111275,NaN,NaN
136,5,0,familiarity,1,bathroom,bathroom_practice4.tif,224,1.5,0,1.53333333333333,1229.340961583,1232.952084,5,NaN,1232.957837041,1232.976432166,1234.503138166,NaN,NaN
136,1,1,familiarity,0,bathroom,sun_ahcvzmoyaycdoftf.tif,137,1.5,0,1.26666666666667,1249.446113833,1252.483830416,5,NaN,1252.498871875,1252.518917458,1253.778953333,NaN,NaN
136,2,1,familiarity,0,bathroom,sun_aggnnqpdorgxpvce.tif,131,1.5,0,1.76666666666667,1253.789348333,1256.687950041,2,NaN,1256.693913125,1256.712136,1258.472181208,NaN,NaN
136,3,1,familiarity,0,bathroom,sun_aclfzgynxzxlbepz.tif,129,1.5,0,1.46666666666667,1258.488475916,1261.476444083,5,NaN,1261.500668083,1261.523409291,1262.983441791,NaN,NaN
136,4,1,familiarity,0,bathroom,sun_apmqjbnwghzuhhzh.tif,156,1.5,0,1.28333333333333,1263.002502875,1268.352139625,5,NaN,1268.358002458,1268.376649541,1269.653349,NaN,NaN
136,5,1,familiarity,0,bathroom,sun_acegryoqftbzowsg.tif,127,1.5,0,0.966666666666667,1269.6675355,1272.743935958,4,NaN,1272.749873708,1272.768323041,1273.728327958,NaN,NaN
136,6,1,familiarity,0,bathroom,sun_alkosphxlxwjwgjd.tif,144,1.5,0,0.783333333333333,1273.733024375,1277.488349583,4,NaN,1277.493912791,1277.512394333,1278.289066833,NaN,NaN
136,7,1,familiarity,0,bathroom,sun_acgyywnybuveqsro.tif,128,1.5,0,1.21666666666667,1278.294824458,1280.972716625,6,NaN,1281.00186325,1281.025721875,1282.235760041,NaN,NaN
136,8,1,familiarity,0,bathroom,sun_anhioqovhscjqqwb.tif,148,1.5,0,1.4,1282.254203625,1285.18439225,5,NaN,1285.18982475,1285.208267458,1286.601634458,NaN,NaN
136,9,1,familiarity,0,bathroom,sun_aspsyogrekjtfozg.tif,160,1.5,0,1.3,1286.621789833,1289.320507041,3,NaN,1289.326124333,1289.34447625,1290.637851833,NaN,NaN
136,10,1,familiarity,0,bathroom,sun_ahqjwnzgolcaoidx.tif,139,1.5,0,0.95,1290.655967083,1295.295569916,4,NaN,1295.301579583,1295.319945666,1296.263283833,NaN,NaN
136,11,1,familiarity,0,bathroom,sun_ausgutylgojavyoq.tif,163,1.5,0,1.96666666666667,1296.267954,1299.376201,2,NaN,1299.385663875,1299.404797458,1301.3648335,NaN,NaN
136,12,1,familiarity,0,bathroom,sun_axyrejkiiaqiurjk.tif,169,1.5,0,1.13333333333333,1301.383154166,1303.9929475,4,NaN,1304.017866416,1304.041665125,1305.168375375,NaN,NaN
136,13,1,familiarity,0,bathroom,sun_agrwbmhcpmfuwmsg.tif,134,1.5,0,0.933333333333333,1305.181056833,1308.223902666,3,NaN,1308.229663666,1308.247949125,1309.174620083,NaN,NaN
136,14,1,familiarity,0,bathroom,sun_axxbkopsgyouuebh.tif,168,1.5,0,1.6,1309.178987458,1312.368218541,5,NaN,1312.375606166,1312.39460875,1313.987991,NaN,NaN
136,15,1,familiarity,0,bathroom,sun_akiytfaagpdsphgz.tif,141,1.5,0,1.38333333333333,1314.002170083,1318.664530375,4,NaN,1318.670110166,1318.688588333,1320.065301375,NaN,NaN
136,16,1,familiarity,0,bathroom,sun_aavhrsfjbserjtht.tif,123,1.5,0,1.58333333333333,1320.084482958,1322.968187083,5,NaN,1322.973615166,1322.992070041,1324.568769,NaN,NaN
136,17,1,familiarity,0,bathroom,sun_auzqhkafidnkrwmo.tif,164,1.5,0,0.966666666666667,1324.585712083,1327.664898458,4,NaN,1327.689138916,1327.710774666,1328.670780416,NaN,NaN
136,18,1,familiarity,0,bathroom,sun_amzlamotzwfkwjco.tif,147,1.5,0,0.983333333333333,1328.675521583,1331.61163425,3,NaN,1331.640671416,1331.6636625,1332.640334875,NaN,NaN
136,19,1,familiarity,0,bathroom,sun_asfwthctfqerjvxr.tif,159,1.5,0,0.8,1332.645142833,1335.839551708,2,NaN,1335.845628833,1335.864316791,1336.657653875,NaN,NaN
136,20,1,familiarity,0,bathroom,sun_apkxzenqapsujocq.tif,155,1.5,0,0.7,1336.662276166,1340.1039205,6,NaN,1340.10962,1340.127879958,1340.821218333,NaN,NaN
136,21,1,familiarity,0,bathroom,sun_anryaplzeujmzfkd.tif,149,1.5,0,0.716666666666667,1340.825671416,1343.76015875,5,NaN,1343.785033375,1343.806775625,1344.516781666,NaN,NaN
136,22,1,familiarity,0,bathroom,sun_atstyziqcmkahyxk.tif,161,1.5,0,1.76666666666667,1344.521619708,1346.984948541,7,NaN,1347.013754958,1347.037387125,1348.7974215,NaN,NaN
136,23,1,familiarity,0,bathroom,sun_ajlawzvmubibwbpy.tif,140,1.5,0,1.7,1348.815724916,1351.755476458,4,NaN,1351.782385583,1351.804249083,1353.497627041,NaN,NaN
136,24,1,familiarity,0,bathroom,sun_aljolscmmzydegqp.tif,143,1.5,0,1.38333333333333,1353.509140833,1356.655481416,4,NaN,1356.684727083,1356.70824675,1358.084965708,NaN,NaN
136,25,1,familiarity,0,bathroom,sun_afcoljnjfoxjtgja.tif,130,1.5,0,0.766666666666667,1358.104190416,1360.63992575,3,NaN,1360.64553825,1360.6637735,1361.423777833,NaN,NaN
136,1,2,familiarity,0,bathroom,sun_azqyogdvyhahyram.tif,170,1.5,0,0.85,1366.830195833,1369.5226815,6,NaN,1369.544328041,1369.567195,1370.410532458,NaN,NaN
136,2,2,familiarity,0,bathroom,sun_agguqiubmwhqqunb.tif,132,1.5,0,1.53333333333333,1370.415322416,1373.527702083,4,NaN,1373.534395958,1373.553027916,1375.079747666,NaN,NaN
136,3,2,familiarity,0,bathroom,sun_avhrdrntsqrjzccq.tif,165,1.5,0,0.7,1375.096942291,1379.015965083,2,NaN,1379.022460708,1379.040962458,1379.734301208,NaN,NaN
136,4,2,familiarity,0,bathroom,sun_aunuadmjocsddsrl.tif,162,1.5,0,1.36666666666667,1379.738629625,1383.023769541,7,NaN,1383.030525458,1383.049059041,1384.409106458,NaN,NaN
136,5,2,familiarity,0,bathroom,sun_abapwbhyhkfixyex.tif,124,1.5,0,0.716666666666667,1384.429814416,1387.495923625,5,NaN,1387.501676041,1387.519917,1388.229923083,NaN,NaN
136,6,2,familiarity,0,bathroom,sun_alotolagknyrgtsk.tif,145,1.5,0,1.38333333333333,1388.234447416,1392.47206675,3,NaN,1392.478357125,1392.496775458,1393.873477291,NaN,NaN
136,7,2,familiarity,0,bathroom,labelme_sfxiulhjbhlyiyt.tif,121,1.5,0,0.916666666666667,1393.887563208,1397.495329833,6,NaN,1397.501388416,1397.519721875,1398.429726541,NaN,NaN
136,8,2,familiarity,0,bathroom,sun_aqrpegblszgcoujh.tif,158,1.5,0,1.58333333333333,1398.434490708,1402.927794583,4,NaN,1402.933352916,1402.951744416,1404.528458375,NaN,NaN
136,9,2,familiarity,0,bathroom,sun_ahijqszoswveeyji.tif,138,1.5,0,1.25,1404.546721208,1409.015767,4,NaN,1409.021931416,1409.040402958,1410.283785416,NaN,NaN
136,10,2,familiarity,0,bathroom,sun_axldvoqbuvuggfmq.tif,167,1.5,0,0.95,1410.304004875,1413.495206791,5,NaN,1413.501157208,1413.519572,1414.462911333,NaN,NaN
136,11,2,familiarity,0,bathroom,sun_ahaulkltgpkeeemi.tif,136,1.5,0,1.4,1414.467658333,1417.470922708,7,NaN,1417.500160958,1417.522937666,1418.916313208,NaN,NaN
136,12,2,familiarity,0,bathroom,sun_aghyqhbptboemmoq.tif,133,1.5,0,0.766666666666667,1418.934916875,1421.488021541,7,NaN,1421.493540458,1421.511859625,1422.271863333,NaN,NaN
136,13,2,familiarity,0,bathroom,sun_apynckhmoftszqoq.tif,157,1.5,0,0.733333333333333,1422.27693025,1425.192723125,5,NaN,1425.221166958,1425.244484666,1425.971155916,NaN,NaN
136,14,2,familiarity,0,bathroom,sun_apeeialkgkuxddgh.tif,152,1.5,0,1.06666666666667,1425.977187875,1428.852087583,7,NaN,1428.878773125,1428.901063333,1429.961105083,NaN,NaN
136,15,2,familiarity,0,bathroom,sun_agyqfjcfkdcydepw.tif,135,1.5,0,1.33333333333333,1429.970940666,1432.536040916,2,NaN,1432.541574541,1432.56038375,1433.887084708,NaN,NaN
136,16,2,familiarity,0,bathroom,sun_aleqenyvunhactkl.tif,142,1.5,0,1.41666666666667,1433.903243625,1437.663365958,4,NaN,1437.669070541,1437.687439,1439.09747025,NaN,NaN
136,17,2,familiarity,0,bathroom,sun_aapitsgbtktqubfy.tif,122,1.5,0,1.95,1439.115274875,1442.679549375,5,NaN,1442.68517925,1442.703589916,1444.646954833,NaN,NaN
136,18,2,familiarity,0,bathroom,sun_ambriybtogmepttm.tif,146,1.5,0,0.866666666666667,1444.665002916,1447.69586125,3,NaN,1447.721228833,1447.7442715,1448.604275666,NaN,NaN
136,19,2,familiarity,0,bathroom,sun_apkruvsevgegsdwp.tif,154,1.5,0,0.983333333333333,1448.610709916,1454.247890458,4,NaN,1454.253364958,1454.271826291,1455.248496875,NaN,NaN
136,20,2,familiarity,0,bathroom,sun_awnqiikzaispgmwo.tif,166,1.5,0,0.983333333333333,1455.252927125,1458.159585791,4,NaN,1458.18836275,1458.211116375,1459.187787791,NaN,NaN
136,21,2,familiarity,0,bathroom,sun_abjtwfukuwddzted.tif,125,1.5,0,0.766666666666667,1459.19336025,1462.511830708,4,NaN,1462.517181208,1462.535709083,1463.295713166,NaN,NaN
136,22,2,familiarity,0,bathroom,sun_acduarbnmmoglmiv.tif,126,1.5,0,0.833333333333333,1463.300108125,1465.866915625,2,NaN,1465.895200583,1465.917221916,1466.743893708,NaN,NaN
136,23,2,familiarity,0,bathroom,sun_apjevzvycyhuqghb.tif,153,1.5,0,0.833333333333333,1466.748823333,1469.580265958,2,NaN,1469.609308125,1469.63257225,1470.459244083,NaN,NaN
136,24,2,familiarity,0,bathroom,sun_aofnryafpsjimzsb.tif,150,1.5,0,0.716666666666667,1470.4641105,1475.223867125,4,NaN,1475.229339041,1475.247691875,1475.95769775,NaN,NaN
136,25,2,familiarity,0,bathroom,sun_aoybiabnpadelefl.tif,151,1.5,0,1.71666666666667,1475.962207875,1479.016376375,2,NaN,1479.028808041,1479.047504208,1480.757547708,NaN,NaN
