sub_num,trial,block,task,is_practice,category,image,texture,duration,mask_dur,jitter,stim_time,time_of_resp,trial_response,mask_time,fix_time,jit_onset,trial_end,trial_accuracy,RT
113,6,0,typicality,1,kitchen,kitchen_practice2.tif,227,1.5,0,0.966666666666667,2182.918018416,2188.823834291,3,NaN,2188.84545825,2188.866541333,2189.8266845,NaN,NaN
113,7,0,typicality,1,kitchen,kitchen_practice5.tif,230,1.5,0,1.58333333333333,2189.837849375,2195.054840708,4,NaN,2195.064604375,2195.083418208,2196.660303583,NaN,NaN
113,8,0,typicality,1,kitchen,kitchen_practice1.tif,226,1.5,0,1.03333333333333,2196.688488791,2200.096752375,2,NaN,2200.130045291,2200.154302208,2201.18105625,NaN,NaN
113,9,0,typicality,1,kitchen,kitchen_practice4.tif,229,1.5,0,1.68333333333333,2201.200336958,2204.255524916,1,NaN,2204.261992041,2204.280396833,2205.957158083,NaN,NaN
113,10,0,typicality,1,kitchen,kitchen_practice3.tif,228,1.5,0,1.45,2205.980286208,2209.823764958,1,NaN,2209.832530125,2209.851266708,2211.294661333,NaN,NaN
113,1,1,typicality,0,kitchen,sun_agubuxuukhzyzpdp.tif,198,1.5,0,0.733333333333333,2216.759053333,2221.91089,4,NaN,2221.917059041,2221.935476541,2222.662150208,NaN,NaN
113,2,1,typicality,0,kitchen,sun_ahpczsiumwwocjkv.tif,202,1.5,0,1.18333333333333,2222.667899416,2226.590755583,2,NaN,2226.596581166,2226.614938958,2227.791658875,NaN,NaN
113,3,1,typicality,0,kitchen,sun_aapllqyqlykszopd.tif,176,1.5,0,0.7,2227.800862375,2231.959332958,6,NaN,2231.964929375,2231.983291916,2232.676633458,NaN,NaN
113,4,1,typicality,0,kitchen,sun_auaiucuqpdausiva.tif,212,1.5,0,1.2,2232.6810345,2236.207815583,1,NaN,2236.213069791,2236.231316875,2237.424721,NaN,NaN
113,5,1,typicality,0,kitchen,sun_adgqasybjyktddhj.tif,188,1.5,0,0.966666666666667,2237.435479083,2242.479164583,6,NaN,2242.485066166,2242.503219875,2243.463227,NaN,NaN
113,6,1,typicality,0,kitchen,sun_aaxxjlsuzvqlgylf.tif,178,1.5,0,1.3,2243.467686625,2249.895594625,1,NaN,2249.901824125,2249.920054208,2251.213463333,NaN,NaN
113,7,1,typicality,0,kitchen,labelme_kxvouciolcpqplr.tif,172,1.5,0,1.65,2251.229174791,2256.86330625,5,NaN,2256.868729416,2256.886997,2258.530393291,NaN,NaN
113,8,1,typicality,0,kitchen,sun_amjjdeyrggfqgmom.tif,210,1.5,0,1.63333333333333,2258.548838875,2263.967492333,2,NaN,2263.972979,2263.991296791,2265.618020833,NaN,NaN
113,9,1,typicality,0,kitchen,sun_acfmftudsenhrfhy.tif,184,1.5,0,0.9,2265.62964725,2269.2872955,4,NaN,2269.293572958,2269.311827333,2270.205169333,NaN,NaN
113,10,1,typicality,0,kitchen,sun_aypmqwcualkenuoe.tif,219,1.5,0,0.95,2270.209875083,2274.270580416,5,NaN,2274.276381625,2274.294707458,2275.238047916,NaN,NaN
113,11,1,typicality,0,kitchen,sun_avszsnwsbuqfgzbn.tif,215,1.5,0,0.816666666666667,2275.242381125,2279.6631395,4,NaN,2279.668570666,2279.686797416,2280.496806375,NaN,NaN
113,12,1,typicality,0,kitchen,sun_aarfiyshqohlwkmo.tif,177,1.5,0,1.96666666666667,2280.501327833,2284.551080791,6,NaN,2284.556564458,2284.574911458,2286.535008916,NaN,NaN
113,13,1,typicality,0,kitchen,sun_aeqdocilnnpuvuhx.tif,193,1.5,0,0.783333333333333,2286.552586416,2292.207213458,4,NaN,2292.212632291,2292.231030875,2293.007708375,NaN,NaN
113,14,1,typicality,0,kitchen,sun_ahdycvpopffkzzsu.tif,200,1.5,0,0.733333333333333,2293.012176208,2298.68723975,6,NaN,2298.692500791,2298.710873916,2299.4375515,NaN,NaN
113,15,1,typicality,0,kitchen,sun_acgtpgfybqjmzeyw.tif,185,1.5,0,1.9,2299.441909458,2303.167130958,7,NaN,2303.172545,2303.190801708,2305.084209708,NaN,NaN
113,16,1,typicality,0,kitchen,sun_aqeaevwwwjoqhzvl.tif,211,1.5,0,0.75,2305.102713125,2310.078349375,5,NaN,2310.084421875,2310.102911083,2310.846252166,NaN,NaN
113,17,1,typicality,0,kitchen,sun_aenotlpyftoioydp.tif,192,1.5,0,0.916666666666667,2310.850824833,2315.286725625,5,NaN,2315.292271916,2315.310666208,2316.220676791,NaN,NaN
113,18,1,typicality,0,kitchen,sun_ajkqhtgcbgpcwrwn.tif,207,1.5,0,0.733333333333333,2316.225083958,2319.248582375,7,NaN,2319.277210958,2319.300509916,2320.02718425,NaN,NaN
113,19,1,typicality,0,kitchen,sun_acxkpeoqbwcxfvip.tif,187,1.5,0,1.81666666666667,2320.0318785,2323.097088166,6,NaN,2323.110342333,2323.129626833,2324.939689916,NaN,NaN
113,20,1,typicality,0,kitchen,labelme_rykdqxenmhulbdn.tif,173,1.5,0,1.16666666666667,2324.95685,2329.510495791,5,NaN,2329.516410791,2329.5346455,2330.694745625,NaN,NaN
113,21,1,typicality,0,kitchen,sun_agorklincwxrdtga.tif,197,1.5,0,1.81666666666667,2330.704968125,2334.839229416,2,NaN,2334.844517708,2334.862861416,2336.672965041,NaN,NaN
113,22,1,typicality,0,kitchen,sun_aexklacwqwezaorf.tif,194,1.5,0,1.35,2336.690594291,2341.198622916,2,NaN,2341.2040395,2341.222609208,2342.566014666,NaN,NaN
113,23,1,typicality,0,kitchen,sun_ahywdevtimnqcsln.tif,204,1.5,0,1.25,2342.581503125,2346.190294333,2,NaN,2346.196028875,2346.214410708,2347.457828208,NaN,NaN
113,24,1,typicality,0,kitchen,sun_aamedkxepzlwuxes.tif,175,1.5,0,1.05,2347.473909583,2350.622854916,2,NaN,2350.628123458,2350.646448583,2351.689850458,NaN,NaN
113,25,1,typicality,0,kitchen,sun_ajcbwwvdlsvjyzje.tif,206,1.5,0,0.916666666666667,2351.698143041,2356.118539333,4,NaN,2356.124136333,2356.142454166,2357.052463375,NaN,NaN
113,1,2,typicality,0,kitchen,sun_awcpdzzznmweyyhv.tif,216,1.5,0,1.56666666666667,2361.961841541,2367.934201875,4,NaN,2367.93997075,2367.958252416,2369.518287083,NaN,NaN
113,2,2,typicality,0,kitchen,sun_aegoxogugdkwpmpj.tif,190,1.5,0,0.883333333333333,2369.527472708,2376.318219916,4,NaN,2376.323946625,2376.342293916,2377.218969041,NaN,NaN
113,3,2,typicality,0,kitchen,sun_aixorpehvfykdynp.tif,205,1.5,0,0.75,2377.223512,2380.550430125,6,NaN,2380.556258,2380.574737083,2381.318079625,NaN,NaN
113,4,2,typicality,0,kitchen,sun_aehawpgmrlhlvcow.tif,191,1.5,0,1.23333333333333,2381.322627,2384.862611,3,NaN,2384.868038208,2384.88638675,2386.113152541,NaN,NaN
113,5,2,typicality,0,kitchen,sun_acwjdupvyjsugpay.tif,186,1.5,0,0.85,2386.130456833,2391.366074625,6,NaN,2391.371928541,2391.390480333,2392.233824916,NaN,NaN
113,6,2,typicality,0,kitchen,labelme_brsyyvweiuaazfr.tif,171,1.5,0,0.916666666666667,2392.238418541,2396.078556083,5,NaN,2396.0840495,2396.102327291,2397.012336333,NaN,NaN
113,7,2,typicality,0,kitchen,sun_akchetnepxlcxhsu.tif,208,1.5,0,1.75,2397.016611333,2400.670733666,6,NaN,2400.675960375,2400.694273916,2402.437690916,NaN,NaN
113,8,2,typicality,0,kitchen,sun_ahljzhgcdpomplvg.tif,201,1.5,0,1.43333333333333,2402.456223375,2405.2158095,6,NaN,2405.243919583,2405.265906791,2406.692669041,NaN,NaN
113,9,2,typicality,0,kitchen,sun_abpwyqmlzafvklqo.tif,182,1.5,0,0.783333333333333,2406.708926083,2409.654860166,7,NaN,2409.6601815,2409.678560375,2410.4552345,NaN,NaN
113,10,2,typicality,0,kitchen,sun_axyyrmzcupyhlivc.tif,217,1.5,0,1.76666666666667,2410.4594905,2414.462630916,4,NaN,2414.467899375,2414.486107041,2416.246204625,NaN,NaN
113,11,2,typicality,0,kitchen,sun_auticobqsbwgoppi.tif,214,1.5,0,1.78333333333333,2416.264105083,2419.631660958,6,NaN,2419.652961125,2419.672771166,2421.44953825,NaN,NaN
113,12,2,typicality,0,kitchen,sun_aymvwlarqodbwuoc.tif,218,1.5,0,1.85,2421.467698458,2425.837962958,3,NaN,2425.84364925,2425.861921583,2427.705355041,NaN,NaN
113,13,2,typicality,0,kitchen,sun_ahspylgoovwmwvgk.tif,203,1.5,0,1.18333333333333,2427.719579416,2433.381875125,2,NaN,2433.38863125,2433.406971041,2434.583726541,NaN,NaN
113,14,2,typicality,0,kitchen,sun_aggjlwcdjsjcaemh.tif,196,1.5,0,1.01666666666667,2434.593533583,2439.854750125,4,NaN,2439.859974333,2439.878340625,2440.888395833,NaN,NaN
113,15,2,typicality,0,kitchen,sun_aunzlwrbjumxhwdj.tif,213,1.5,0,1.65,2440.896782958,2445.89464875,6,NaN,2445.900022208,2445.918970708,2447.562367708,NaN,NaN
113,16,2,typicality,0,kitchen,sun_abrcnpqqhmjwekyf.tif,183,1.5,0,1.83333333333333,2447.573913125,2454.813862416,4,NaN,2454.820279625,2454.8386245,2456.665376541,NaN,NaN
113,17,2,typicality,0,kitchen,sun_agzzivivdpnawacl.tif,199,1.5,0,1.58333333333333,2456.684399583,2460.518610041,5,NaN,2460.523922083,2460.542225666,2462.118964458,NaN,NaN
113,18,2,typicality,0,kitchen,sun_abftihopvusyfakt.tif,181,1.5,0,1.85,2462.138014833,2466.238228541,2,NaN,2466.243794958,2466.262210541,2468.105639458,NaN,NaN
113,19,2,typicality,0,kitchen,sun_afuyedyxivkhecmu.tif,195,1.5,0,0.766666666666667,2468.122999875,2474.1340185,4,NaN,2474.139790416,2474.158087375,2474.918095541,NaN,NaN
113,20,2,typicality,0,kitchen,sun_aadbddgrdsjugojn.tif,174,1.5,0,0.716666666666667,2474.933562541,2478.941727291,6,NaN,2478.947582,2478.965892458,2479.675899916,NaN,NaN
113,21,2,typicality,0,kitchen,sun_azmutvzbxypaceni.tif,220,1.5,0,1.38333333333333,2479.680226375,2483.86193625,6,NaN,2483.867548791,2483.885727041,2485.262479041,NaN,NaN
113,22,2,typicality,0,kitchen,sun_abdxkyyxwfskuaqb.tif,180,1.5,0,0.866666666666667,2485.278708125,2489.229965208,5,NaN,2489.235721041,2489.254051458,2490.114058458,NaN,NaN
113,23,2,typicality,0,kitchen,sun_akcjzhbbjlbogpdi.tif,209,1.5,0,1.4,2490.118329666,2495.829830708,5,NaN,2495.83633525,2495.854562916,2497.247996375,NaN,NaN
113,24,2,typicality,0,kitchen,sun_admlmbcdswaszruo.tif,189,1.5,0,1,2497.267224958,2500.5661725,3,NaN,2500.571654666,2500.589971041,2501.58331475,NaN,NaN
113,25,2,typicality,0,kitchen,sun_abdenxonkemggwsq.tif,179,1.5,0,1.28333333333333,2501.587821541,2504.417935416,2,NaN,2504.443845625,2504.466709583,2505.743465083,NaN,NaN
