sub_num,trial,block,task,is_practice,category,image,texture,duration,mask_dur,jitter,stim_time,time_of_resp,trial_response,mask_time,fix_time,jit_onset,trial_end,trial_accuracy,RT
111,1,0,categorization,1,bathroom,SHINEd_bathroom_practice3.tif,113,0.0666666666666667,0.0666666666666667,1.21666666666667,19783.857237375,19784.845109042,13,19783.923106333,19783.982973958,19784.870524625,19786.081355292,1,0.987871666999126
111,2,0,categorization,1,kitchen,SHINEd_kitchen_practice1.tif,116,0.0666666666666667,0.0666666666666667,1.36666666666667,19786.118982333,19786.882054167,9,19786.192595833,19786.256570792,19786.916490958,19788.276674583,1,0.763071834000584
111,3,0,categorization,1,kitchen,SHINEd_kitchen_practice4.tif,119,0.0666666666666667,0.0666666666666667,1.85,19788.323758667,19789.094854083,9,19788.394814458,19788.455210667,19789.111966125,19790.955350042,1,0.771095415999298
111,4,0,categorization,1,kitchen,SHINEd_kitchen_practice3.tif,118,0.0666666666666667,0.0666666666666667,1.55,19790.975076208,19791.864775125,9,19791.043556417,19791.109137,19791.883217792,19793.426585083,1,0.889698916998896
111,5,0,categorization,1,bathroom,SHINEd_bathroom_practice2.tif,112,0.0666666666666667,0.0666666666666667,1.48333333333333,19793.440301292,19794.423468125,9,19793.509687833,19793.574413875,19794.448668917,19795.925375458,0,0.983166833000723
111,6,0,categorization,1,kitchen,SHINEd_kitchen_practice2.tif,117,0.0666666666666667,0.0666666666666667,1.15,19795.944399625,19796.722519,9,19796.0123865,19796.078062958,19796.752376042,19797.895754458,1,0.778119374997914
111,7,0,categorization,1,kitchen,SHINEd_kitchen_practice5.tif,120,0.0666666666666667,0.0666666666666667,0.733333333333333,19797.906835042,19798.605671292,13,19797.975335875,19798.040759917,19798.630959833,19799.357677958,0,0.698836250001477
111,8,0,categorization,1,bathroom,SHINEd_bathroom_practice5.tif,115,0.0666666666666667,0.0666666666666667,1.6,19799.375447208,19800.469612458,9,19799.443100958,19799.508658833,19800.47786925,19802.071238833,0,1.09416525000051
111,9,0,categorization,1,bathroom,SHINEd_bathroom_practice4.tif,114,0.0666666666666667,0.0666666666666667,0.716666666666667,19802.088274792,19802.726736333,13,19802.155598542,19802.221961417,19802.744880167,19803.454925417,1,0.638461540998833
111,10,0,categorization,1,bathroom,SHINEd_bathroom_practice1.tif,111,0.0666666666666667,0.0666666666666667,1.21666666666667,19803.471285042,19804.045869167,13,19803.537406333,19803.595549917,19804.064105375,19805.274156333,1,0.574584124999092
111,1,1,categorization,0,kitchen,SHINEd_sun_aamedkxepzlwuxes.tif,65,0.0666666666666667,0.0666666666666667,1.23333333333333,19815.802488875,19816.565659792,9,19815.864984833,19815.925483917,19816.577325458,19817.804041125,1,0.763170916998206
111,2,1,categorization,0,bathroom,SHINEd_sun_acegryoqftbzowsg.tif,17,0.0666666666666667,0.0666666666666667,0.783333333333333,19817.814037125,19818.439729917,9,19817.882123333,19817.947659208,19818.454239875,19819.231178458,0,0.625692792000336
111,3,1,categorization,0,bathroom,SHINEd_sun_anhioqovhscjqqwb.tif,38,0.0666666666666667,0.0666666666666667,0.75,19819.276937792,19819.805564208,13,19819.349964042,19819.411283542,19819.813124292,19820.55646125,1,0.528626415998588
111,4,1,categorization,0,kitchen,SHINEd_sun_abdenxonkemggwsq.tif,69,0.0666666666666667,0.0666666666666667,1.23333333333333,19820.562002875,19821.181551167,9,19820.623837333,19820.68463475,19821.186251917,19822.412971625,1,0.619548291997489
111,5,1,categorization,0,bathroom,SHINEd_sun_axldvoqbuvuggfmq.tif,57,0.0666666666666667,0.0666666666666667,1.13333333333333,19822.430484292,19822.958263375,13,19822.498096208,19822.563793,19822.987196167,19824.113896333,1,0.527779083000496
111,6,1,categorization,0,kitchen,SHINEd_sun_aapllqyqlykszopd.tif,66,0.0666666666666667,0.0666666666666667,0.95,19824.130899667,19824.724719708,9,19824.198655583,19824.255667625,19824.740784833,19825.684122667,1,0.593820040998253
111,7,1,categorization,0,kitchen,SHINEd_sun_auaiucuqpdausiva.tif,102,0.0666666666666667,0.0666666666666667,0.733333333333333,19825.688992125,19826.341062917,13,19825.750744542,19825.811789458,19826.346911875,19827.07358225,0,0.652070791998995
111,8,1,categorization,0,kitchen,SHINEd_sun_aarfiyshqohlwkmo.tif,67,0.0666666666666667,0.0666666666666667,1.31666666666667,19827.078917542,19827.805168625,9,19827.140527,19827.201646292,19827.820157042,19829.130206583,1,0.726251083000534
111,9,1,categorization,0,kitchen,SHINEd_sun_ahljzhgcdpomplvg.tif,91,0.0666666666666667,0.0666666666666667,0.8,19829.146132583,19829.891144583,9,19829.213895333,19829.279885583,19829.919722875,19830.713094458,1,0.745012000003044
111,10,1,categorization,0,bathroom,SHINEd_sun_ahqjwnzgolcaoidx.tif,29,0.0666666666666667,0.0666666666666667,0.716666666666667,19830.726161083,19831.412809208,13,19830.792775917,19830.859332292,19831.428052,19832.1380565,1,0.68664812499992
111,11,1,categorization,0,bathroom,SHINEd_sun_aghyqhbptboemmoq.tif,23,0.0666666666666667,0.0666666666666667,0.916666666666667,19832.143483708,19832.749574333,13,19832.205124458,19832.266256167,19832.768085333,19833.678088542,1,0.606090624998615
111,12,1,categorization,0,bathroom,SHINEd_sun_aofnryafpsjimzsb.tif,40,0.0666666666666667,0.0666666666666667,0.95,19833.683223375,19834.533786083,13,19833.745004875,19833.806069583,19834.541283375,19835.48462225,1,0.850562708001235
111,13,1,categorization,0,bathroom,SHINEd_sun_ahijqszoswveeyji.tif,28,0.0666666666666667,0.0666666666666667,0.833333333333333,19835.490326625,19836.34136225,9,19835.552085875,19835.61297475,19836.348212375,19837.174883875,0,0.851035625000804
111,14,1,categorization,0,kitchen,SHINEd_sun_aaxxjlsuzvqlgylf.tif,68,0.0666666666666667,0.0666666666666667,0.75,19837.1806,19838.133654375,9,19837.242320083,19837.3033405,19838.13851175,19838.881851,1,0.953054375000647
111,15,1,categorization,0,kitchen,SHINEd_sun_akcjzhbbjlbogpdi.tif,99,0.0666666666666667,0.0666666666666667,1.53333333333333,19838.887409583,19839.893171375,9,19838.949163917,19839.010059375,19839.91182725,19841.438550458,1,1.00576179199925
111,16,1,categorization,0,bathroom,SHINEd_sun_apmqjbnwghzuhhzh.tif,46,0.0666666666666667,0.0666666666666667,1.05,19841.453737875,19842.012399583,13,19841.520793375,19841.586864208,19842.025698583,19843.069074875,1,0.558661708000727
111,17,1,categorization,0,kitchen,SHINEd_sun_aeqdocilnnpuvuhx.tif,83,0.0666666666666667,0.0666666666666667,0.9,19843.08059075,19843.972951458,9,19843.145434958,19843.213539542,19844.004263417,19844.89763125,1,0.892360707999615
111,18,1,categorization,0,bathroom,SHINEd_sun_acduarbnmmoglmiv.tif,16,0.0666666666666667,0.0666666666666667,1.18333333333333,19844.914977167,19845.453115625,13,19844.981322167,19845.048638167,19845.467268,19846.643987542,1,0.538138457999594
111,19,1,categorization,0,kitchen,SHINEd_sun_acfmftudsenhrfhy.tif,74,0.0666666666666667,0.0666666666666667,0.9,19846.654091083,19847.392497083,9,19846.720941375,19846.787593083,19847.410229083,19848.303643875,1,0.738406000000396
111,20,1,categorization,0,bathroom,SHINEd_sun_aapitsgbtktqubfy.tif,12,0.0666666666666667,0.0666666666666667,1.66666666666667,19848.320514292,19849.06088675,13,19848.387425375,19848.453637417,19849.072144292,19850.7321855,1,0.740372457999911
111,21,1,categorization,0,kitchen,SHINEd_sun_ajcbwwvdlsvjyzje.tif,96,0.0666666666666667,0.0666666666666667,1.13333333333333,19850.749186833,19851.50171425,13,19850.8161195,19850.883298667,19851.523280292,19852.649992958,0,0.752527417000238
111,22,1,categorization,0,kitchen,SHINEd_sun_agubuxuukhzyzpdp.tif,88,0.0666666666666667,0.0666666666666667,1.3,19852.659136875,19853.409075208,13,19852.724212375,19852.791863917,19853.432224958,19854.725603083,0,0.749938332999591
111,23,1,categorization,0,kitchen,SHINEd_sun_abpwyqmlzafvklqo.tif,72,0.0666666666666667,0.0666666666666667,1.93333333333333,19854.743589,19855.528159333,13,19854.810772042,19854.876465958,19855.549999125,19857.47670375,0,0.784570332998555
111,24,1,categorization,0,kitchen,SHINEd_sun_abrcnpqqhmjwekyf.tif,73,0.0666666666666667,0.0666666666666667,1,19857.494883292,19858.143001292,13,19857.562190542,19857.628169208,19858.168394833,19859.161732292,0,0.648117999997339
111,25,1,categorization,0,kitchen,SHINEd_sun_aixorpehvfykdynp.tif,95,0.0666666666666667,0.0666666666666667,0.883333333333333,19859.167753875,19859.997112875,13,19859.229792667,19859.290602375,19860.009124375,19860.885795208,0,0.829358999999386
111,26,1,categorization,0,kitchen,SHINEd_sun_aunzlwrbjumxhwdj.tif,103,0.0666666666666667,0.0666666666666667,1.95,19860.891486875,19861.964628167,13,19860.953139,19861.0141735,19861.982655333,19863.926030083,0,1.07314129199949
111,27,1,categorization,0,kitchen,SHINEd_sun_aypmqwcualkenuoe.tif,109,0.0666666666666667,0.0666666666666667,1.25,19863.94297675,19864.694561292,9,19864.01014075,19864.076787458,19864.717636833,19865.96101925,1,0.751584541998454
111,28,1,categorization,0,kitchen,SHINEd_sun_abdxkyyxwfskuaqb.tif,70,0.0666666666666667,0.0666666666666667,1.95,19865.9794065,19866.815419583,13,19866.0464025,19866.109118208,19866.832257167,19868.775635208,0,0.83601308300058
111,29,1,categorization,0,bathroom,SHINEd_sun_agguqiubmwhqqunb.tif,22,0.0666666666666667,0.0666666666666667,1.91666666666667,19868.794132375,19869.70611025,13,19868.861378042,19868.927480708,19869.732935167,19871.64298175,1,0.911977875002776
111,30,1,categorization,0,bathroom,SHINEd_sun_aclfzgynxzxlbepz.tif,19,0.0666666666666667,0.0666666666666667,1.41666666666667,19871.656221542,19872.161014667,13,19871.721803375,19871.787089667,19872.176708167,19873.586753,1,0.504793124997377
111,31,1,categorization,0,bathroom,SHINEd_sun_apkruvsevgegsdwp.tif,44,0.0666666666666667,0.0666666666666667,0.716666666666667,19873.602922333,19874.248787208,13,19873.66811475,19873.734482667,19874.274881083,19874.984925542,1,0.645864874997642
111,32,1,categorization,0,bathroom,SHINEd_sun_ahaulkltgpkeeemi.tif,26,0.0666666666666667,0.0666666666666667,1.28333333333333,19875.00143675,19875.597529,13,19875.068746917,19875.134170792,19875.602992917,19876.879710458,1,0.596092249998037
111,33,1,categorization,0,bathroom,SHINEd_sun_abjtwfukuwddzted.tif,15,0.0666666666666667,0.0666666666666667,0.9,19876.89722575,19877.560049333,9,19876.964953,19877.030699083,19877.587482042,19878.480867125,0,0.662823582999408
111,34,1,categorization,0,kitchen,SHINEd_sun_awcpdzzznmweyyhv.tif,106,0.0666666666666667,0.0666666666666667,0.8,19878.498470583,19879.117287167,13,19878.565528083,19878.631686417,19879.133689292,19879.927026333,0,0.618816583999433
111,35,1,categorization,0,kitchen,SHINEd_sun_aadbddgrdsjugojn.tif,64,0.0666666666666667,0.0666666666666667,1.01666666666667,19879.932576208,19880.445135042,13,19879.994422042,19880.055389958,19880.457074208,19881.467118333,0,0.5125588339979
111,36,1,categorization,0,bathroom,SHINEd_sun_ausgutylgojavyoq.tif,53,0.0666666666666667,0.0666666666666667,0.85,19881.477510958,19882.167886833,13,19881.54240875,19881.609142167,19882.181452292,19883.024830083,1,0.690375874997699
111,37,1,categorization,0,bathroom,SHINEd_sun_atstyziqcmkahyxk.tif,51,0.0666666666666667,0.0666666666666667,1.51666666666667,19883.041468667,19883.66047875,13,19883.108033375,19883.174436042,19883.676150667,19885.186199042,1,0.619010082999012
111,38,1,categorization,0,bathroom,SHINEd_sun_afcoljnjfoxjtgja.tif,20,0.0666666666666667,0.0666666666666667,1.83333333333333,19885.203425458,19886.119346917,13,19885.270196792,19885.336523417,19886.143330458,19887.970043625,1,0.915921458999946
111,39,1,categorization,0,kitchen,SHINEd_sun_ahspylgoovwmwvgk.tif,93,0.0666666666666667,0.0666666666666667,0.716666666666667,19887.989056542,19888.821640667,13,19888.055733625,19888.122091833,19888.845591417,19889.555595833,0,0.832584125000722
111,40,1,categorization,0,kitchen,SHINEd_sun_ahpczsiumwwocjkv.tif,92,0.0666666666666667,0.0666666666666667,0.9,19889.56156175,19890.405196083,13,19889.623206167,19889.684348167,19890.419589667,19891.3129285,0,0.8436343329995
111,41,1,categorization,0,bathroom,SHINEd_sun_aunuadmjocsddsrl.tif,52,0.0666666666666667,0.0666666666666667,0.916666666666667,19891.318612458,19891.988777542,13,19891.380474958,19891.441413,19891.993119833,19892.9031245,1,0.670165084000473
111,42,1,categorization,0,bathroom,SHINEd_sun_asfwthctfqerjvxr.tif,49,0.0666666666666667,0.0666666666666667,0.816666666666667,19892.908691583,19894.173028125,9,19892.9703425,19893.0315235,19894.183651708,19894.993655375,0,1.26433654199718
111,43,1,categorization,0,kitchen,SHINEd_labelme_rykdqxenmhulbdn.tif,63,0.0666666666666667,0.0666666666666667,1.88333333333333,19894.999265208,19895.884456292,13,19895.060963,19895.121961792,19895.890441292,19897.767157417,0,0.885191083998507
111,44,1,categorization,0,bathroom,SHINEd_sun_acgyywnybuveqsro.tif,18,0.0666666666666667,0.0666666666666667,0.9,19897.777729625,19898.535519833,13,19897.844843708,19897.910720292,19898.55002425,19899.443362667,1,0.757790208001097
111,45,1,categorization,0,bathroom,SHINEd_sun_amzlamotzwfkwjco.tif,37,0.0666666666666667,0.0666666666666667,1,19899.44960525,19899.973411583,13,19899.511354417,19899.572378667,19899.99081225,19900.984148917,1,0.523806332999811
111,46,1,categorization,0,bathroom,SHINEd_sun_aavhrsfjbserjtht.tif,13,0.0666666666666667,0.0666666666666667,0.733333333333333,19900.989976958,19901.91733375,13,19901.051599,19901.11300675,19901.931593542,19902.658265292,1,0.927356791999046
111,47,1,categorization,0,kitchen,SHINEd_sun_admlmbcdswaszruo.tif,79,0.0666666666666667,0.0666666666666667,0.883333333333333,19902.666654792,19903.444593667,13,19902.728254458,19902.789336833,19903.457791625,19904.334462125,0,0.777938875002292
111,48,1,categorization,0,bathroom,SHINEd_sun_anryaplzeujmzfkd.tif,39,0.0666666666666667,0.0666666666666667,1.73333333333333,19904.340323625,19905.372398458,13,19904.401999208,19904.46299,19905.38152975,19907.108229125,1,1.03207483299775
111,49,1,categorization,0,kitchen,SHINEd_sun_aehawpgmrlhlvcow.tif,81,0.0666666666666667,0.0666666666666667,1.91666666666667,19907.124956625,19907.880969667,13,19907.192511458,19907.258782792,19907.89891775,19909.808949917,0,0.756013041998813
111,50,1,categorization,0,bathroom,SHINEd_sun_ahcvzmoyaycdoftf.tif,27,0.0666666666666667,0.0666666666666667,1.35,19909.825610042,19910.532635875,13,19909.892900458,19909.959055667,19910.548750125,19911.892129875,1,0.707025832998625
111,1,2,categorization,0,kitchen,SHINEd_sun_acwjdupvyjsugpay.tif,76,0.0666666666666667,0.0666666666666667,0.95,19955.213761333,19956.108220583,9,19955.276355208,19955.336869625,19956.1219965,19957.06533575,1,0.894459249997453
111,2,2,categorization,0,kitchen,SHINEd_sun_ahywdevtimnqcsln.tif,94,0.0666666666666667,0.0666666666666667,0.75,19957.071004208,19957.724344375,9,19957.13264125,19957.193706583,19957.729096833,19958.472436042,1,0.65334016700217
111,3,2,categorization,0,kitchen,SHINEd_labelme_brsyyvweiuaazfr.tif,61,0.0666666666666667,0.0666666666666667,1.68333333333333,19958.477466333,19959.300207542,13,19958.539228542,19958.600313125,19959.318797208,19960.995499792,0,0.822741209001833
111,4,2,categorization,0,kitchen,SHINEd_sun_ahdycvpopffkzzsu.tif,90,0.0666666666666667,0.0666666666666667,0.816666666666667,19961.012989958,19961.725023875,9,19961.080975125,19961.14415075,19961.749150958,19962.559157,1,0.712033916999644
111,5,2,categorization,0,bathroom,SHINEd_sun_aqrpegblszgcoujh.tif,48,0.0666666666666667,0.0666666666666667,0.916666666666667,19962.566023167,19963.212254958,13,19962.627824667,19962.688836375,19963.223976292,19964.133981958,1,0.646231791000901
111,6,2,categorization,0,kitchen,SHINEd_sun_afuyedyxivkhecmu.tif,85,0.0666666666666667,0.0666666666666667,1.21666666666667,19964.139805625,19964.91690275,13,19964.201453875,19964.262571167,19964.931098792,19966.141137,0,0.777097124999273
111,7,2,categorization,0,kitchen,SHINEd_sun_abftihopvusyfakt.tif,71,0.0666666666666667,0.0666666666666667,0.9,19966.158228375,19966.880179292,9,19966.225158208,19966.290708833,19966.896559375,19967.789929667,1,0.721950916999049
111,8,2,categorization,0,bathroom,SHINEd_sun_apjevzvycyhuqghb.tif,43,0.0666666666666667,0.0666666666666667,1.65,19967.799065875,19968.692096792,13,19967.865444125,19967.931400333,19968.700119333,19970.343503333,1,0.893030917002761
111,9,2,categorization,0,bathroom,SHINEd_sun_alotolagknyrgtsk.tif,35,0.0666666666666667,0.0666666666666667,1.15,19970.36064975,19971.101882208,9,19970.427820458,19970.494818667,19971.117264208,19972.260654167,0,0.741232458000013
111,10,2,categorization,0,kitchen,SHINEd_sun_aggjlwcdjsjcaemh.tif,86,0.0666666666666667,0.0666666666666667,1.13333333333333,19972.270247125,19972.846603583,13,19972.336251208,19972.403691458,19972.876982167,19974.003681292,0,0.576356457997463
111,11,2,categorization,0,kitchen,SHINEd_sun_aegoxogugdkwpmpj.tif,80,0.0666666666666667,0.0666666666666667,1.76666666666667,19974.021749125,19974.636756708,13,19974.089498917,19974.154434208,19974.656476,19976.416531417,0,0.615007583000988
111,12,2,categorization,0,bathroom,SHINEd_labelme_sfxiulhjbhlyiyt.tif,11,0.0666666666666667,0.0666666666666667,1.8,19976.435510667,19977.150898458,13,19976.502661042,19976.569125125,19977.176238917,19978.969629042,1,0.715387790998648
111,13,2,categorization,0,bathroom,SHINEd_sun_apynckhmoftszqoq.tif,47,0.0666666666666667,0.0666666666666667,0.9,19978.985748875,19979.7578715,13,19979.052753542,19979.11905275,19979.774659292,19980.667996583,1,0.772122625003249
111,14,2,categorization,0,kitchen,SHINEd_sun_aymvwlarqodbwuoc.tif,108,0.0666666666666667,0.0666666666666667,0.716666666666667,19980.673952917,19981.212853125,13,19980.735665542,19980.796834708,19981.231944625,19981.941948292,0,0.538900207997358
111,15,2,categorization,0,bathroom,SHINEd_sun_agyqfjcfkdcydepw.tif,25,0.0666666666666667,0.0666666666666667,1.36666666666667,19981.948875333,19982.548912542,9,19982.010508833,19982.071631667,19982.556869083,19983.916910042,0,0.600037208998401
111,16,2,categorization,0,kitchen,SHINEd_sun_akchetnepxlcxhsu.tif,98,0.0666666666666667,0.0666666666666667,0.916666666666667,19983.935197542,19984.700252375,13,19984.001942958,19984.068475792,19984.725172792,19985.63517775,0,0.765054833002068
111,17,2,categorization,0,kitchen,SHINEd_sun_adgqasybjyktddhj.tif,78,0.0666666666666667,0.0666666666666667,0.716666666666667,19985.641120708,19986.740878125,13,19985.702861167,19985.763913667,19986.74911025,19987.459115583,0,1.09975741700327
111,18,2,categorization,0,bathroom,SHINEd_sun_agrwbmhcpmfuwmsg.tif,24,0.0666666666666667,0.0666666666666667,0.766666666666667,19987.46609225,19988.116181083,13,19987.528071667,19987.588744917,19988.123952083,19988.883956375,1,0.650088833001064
111,19,2,categorization,0,kitchen,SHINEd_sun_avszsnwsbuqfgzbn.tif,105,0.0666666666666667,0.0666666666666667,1.06666666666667,19988.889567583,19989.788990958,9,19988.95126625,19989.012466292,19989.797716792,19990.857751875,1,0.899423375001788
111,20,2,categorization,0,kitchen,SHINEd_sun_acgtpgfybqjmzeyw.tif,75,0.0666666666666667,0.0666666666666667,0.8,19990.868795375,19991.561426083,13,19990.933598417,19991.000296917,19991.59017325,19992.383542875,0,0.692630707999342
111,21,2,categorization,0,kitchen,SHINEd_sun_agorklincwxrdtga.tif,87,0.0666666666666667,0.0666666666666667,0.866666666666667,19992.4006645,19993.228072167,9,19992.467054708,19992.533624708,19993.235657625,19994.095662,1,0.827407666998624
111,22,2,categorization,0,bathroom,SHINEd_sun_apeeialkgkuxddgh.tif,42,0.0666666666666667,0.0666666666666667,1.48333333333333,19994.10071575,19994.940773917,13,19994.162439083,19994.223649083,19994.958806583,19996.43552925,1,0.84005816699937
111,23,2,categorization,0,bathroom,SHINEd_sun_aspsyogrekjtfozg.tif,50,0.0666666666666667,0.0666666666666667,1.1,19996.45426525,19997.304524125,9,19996.521038542,19996.587224625,19997.327141167,19998.420513917,0,0.8502588750016
111,24,2,categorization,0,kitchen,SHINEd_sun_axyyrmzcupyhlivc.tif,107,0.0666666666666667,0.0666666666666667,0.783333333333333,19998.43334,19999.00718675,13,19998.498428875,19998.566488708,19999.022236458,19999.798938708,0,0.573846750001394
111,25,2,categorization,0,kitchen,SHINEd_sun_acxkpeoqbwcxfvip.tif,77,0.0666666666666667,0.0666666666666667,0.866666666666667,19999.817219292,20000.484544417,9,19999.884207208,19999.950672042,20000.503461833,20001.363466625,1,0.667325124999479
111,26,2,categorization,0,bathroom,SHINEd_sun_abapwbhyhkfixyex.tif,14,0.0666666666666667,0.0666666666666667,1.83333333333333,20001.368313125,20001.980956833,9,20001.430080167,20001.4910715,20001.992794958,20003.819500333,0,0.612643707998359
111,27,2,categorization,0,bathroom,SHINEd_sun_akiytfaagpdsphgz.tif,31,0.0666666666666667,0.0666666666666667,0.7,20003.836304417,20004.518904125,9,20003.901194708,20003.965850292,20004.539666708,20005.233004458,0,0.682599708001362
111,28,2,categorization,0,kitchen,SHINEd_sun_azmutvzbxypaceni.tif,110,0.0666666666666667,0.0666666666666667,1.33333333333333,20005.238952292,20006.10027075,13,20005.300727875,20005.361743875,20006.1136745,20007.440372208,0,0.861318458002643
111,29,2,categorization,0,bathroom,SHINEd_sun_azqyogdvyhahyram.tif,60,0.0666666666666667,0.0666666666666667,1.33333333333333,20007.454585875,20008.189724667,9,20007.521242667,20007.587387083,20008.21065125,20009.537370125,0,0.735138792002545
111,30,2,categorization,0,bathroom,SHINEd_sun_ambriybtogmepttm.tif,36,0.0666666666666667,0.0666666666666667,1.38333333333333,20009.5505435,20010.622780292,13,20009.617154,20009.682112542,20010.638166792,20012.0148795,1,1.07223679199888
111,31,2,categorization,0,bathroom,SHINEd_sun_awnqiikzaispgmwo.tif,56,0.0666666666666667,0.0666666666666667,1.25,20012.028373167,20012.694976958,13,20012.095212417,20012.163315167,20012.719644208,20013.963011083,1,0.666603790999943
111,32,2,categorization,0,bathroom,SHINEd_sun_aljolscmmzydegqp.tif,33,0.0666666666666667,0.0666666666666667,1.55,20013.980455667,20014.784257625,9,20014.048191833,20014.114018375,20014.803646083,20016.347033792,0,0.803801958001714
111,33,2,categorization,0,bathroom,SHINEd_sun_aoybiabnpadelefl.tif,41,0.0666666666666667,0.0666666666666667,1.61666666666667,20016.364634583,20017.079950125,9,20016.43303625,20016.49810675,20017.105101792,20018.715145667,0,0.715315542001917
111,34,2,categorization,0,bathroom,SHINEd_sun_aleqenyvunhactkl.tif,32,0.0666666666666667,0.0666666666666667,1.33333333333333,20018.734708292,20019.3183765,13,20018.802093792,20018.868268542,20019.342004792,20020.668709542,1,0.583668208000745
111,35,2,categorization,0,kitchen,SHINEd_sun_aqeaevwwwjoqhzvl.tif,101,0.0666666666666667,0.0666666666666667,0.833333333333333,20020.687915583,20021.305023958,9,20020.75482325,20020.821853625,20021.328828625,20022.155552583,1,0.617108375001408
111,36,2,categorization,0,kitchen,SHINEd_sun_agzzivivdpnawacl.tif,89,0.0666666666666667,0.0666666666666667,1.45,20022.172836125,20022.74809325,9,20022.239638458,20022.30603475,20022.758113292,20024.201498417,1,0.575257125001372
111,37,2,categorization,0,kitchen,SHINEd_sun_auticobqsbwgoppi.tif,104,0.0666666666666667,0.0666666666666667,0.933333333333333,20024.218664792,20024.944771583,13,20024.28543275,20024.35229375,20024.958407833,20025.885082667,0,0.726106791000348
111,38,2,categorization,0,bathroom,SHINEd_sun_ajlawzvmubibwbpy.tif,30,0.0666666666666667,0.0666666666666667,1.65,20025.891145958,20026.660331167,13,20025.952860917,20026.014021542,20026.665761917,20028.309137,1,0.769185208999261
111,39,2,categorization,0,kitchen,SHINEd_sun_aexklacwqwezaorf.tif,84,0.0666666666666667,0.0666666666666667,1.23333333333333,20028.326146,20029.055464,13,20028.393331792,20028.459586375,20029.082738833,20030.309443625,0,0.729318000001513
111,40,2,categorization,0,bathroom,SHINEd_sun_avhrdrntsqrjzccq.tif,55,0.0666666666666667,0.0666666666666667,0.766666666666667,20030.326570125,20030.9574435,9,20030.395370042,20030.459362292,20030.983166875,20031.743199833,0,0.630873375001102
111,41,2,categorization,0,kitchen,SHINEd_sun_amjjdeyrggfqgmom.tif,100,0.0666666666666667,0.0666666666666667,1.78333333333333,20031.753458333,20032.388147833,13,20031.82027125,20031.8867465,20032.405364167,20034.182061167,0,0.634689499998785
111,42,2,categorization,0,bathroom,SHINEd_sun_axxbkopsgyouuebh.tif,58,0.0666666666666667,0.0666666666666667,1.11666666666667,20034.201296417,20035.131776083,13,20034.268054917,20034.334713,20035.158164542,20036.268216958,1,0.930479665999883
111,43,2,categorization,0,bathroom,SHINEd_sun_auzqhkafidnkrwmo.tif,54,0.0666666666666667,0.0666666666666667,1.85,20036.280074208,20037.074006208,13,20036.345238208,20036.412738875,20037.102841917,20038.946213042,1,0.793932000000495
111,44,2,categorization,0,kitchen,SHINEd_sun_ajkqhtgcbgpcwrwn.tif,97,0.0666666666666667,0.0666666666666667,0.733333333333333,20038.963015042,20039.516096,9,20039.030689542,20039.096537542,20039.535285583,20040.261998042,1,0.553080957997736
111,45,2,categorization,0,bathroom,SHINEd_sun_axyrejkiiaqiurjk.tif,59,0.0666666666666667,0.0666666666666667,0.783333333333333,20040.278777583,20041.019809042,13,20040.342750042,20040.402679,20041.037890042,20041.81456225,1,0.741031459001533
111,46,2,categorization,0,kitchen,SHINEd_sun_aenotlpyftoioydp.tif,82,0.0666666666666667,0.0666666666666667,1.5,20041.819554125,20042.451957458,9,20041.881212792,20041.942412042,20042.460886667,20043.954261208,1,0.632403333002003
111,47,2,categorization,0,kitchen,SHINEd_labelme_kxvouciolcpqplr.tif,62,0.0666666666666667,0.0666666666666667,0.733333333333333,20043.972899125,20044.824575625,13,20044.039651792,20044.106118708,20044.846462625,20045.573134917,0,0.851676499998575
111,48,2,categorization,0,bathroom,SHINEd_sun_aggnnqpdorgxpvce.tif,21,0.0666666666666667,0.0666666666666667,1.1,20045.5790785,20046.356552083,9,20045.640966958,20045.701957167,20046.370539375,20047.463923125,0,0.777473583002575
111,49,2,categorization,0,bathroom,SHINEd_sun_alkosphxlxwjwgjd.tif,34,0.0666666666666667,0.0666666666666667,1.6,20047.47543025,20048.278270583,13,20047.541241875,20047.608349958,20048.298364792,20049.8917355,1,0.80284033299904
111,50,2,categorization,0,bathroom,SHINEd_sun_apkxzenqapsujocq.tif,45,0.0666666666666667,0.0666666666666667,1.06666666666667,20049.908742542,20050.612239833,13,20049.976114875,20050.042199375,20050.63200425,20051.692037625,1,0.703497291000531
111,1,3,categorization,0,kitchen,SHINEd_labelme_kxvouciolcpqplr.tif,62,0.0666666666666667,0.0666666666666667,0.85,20061.276420917,20062.06830125,13,20061.338966708,20061.399307333,20062.08451775,20062.927855917,0,0.791880332999426
111,2,3,categorization,0,kitchen,SHINEd_sun_adgqasybjyktddhj.tif,78,0.0666666666666667,0.0666666666666667,1.65,20062.9336125,20063.708818708,13,20062.995389792,20063.056321208,20063.724752917,20065.368123542,0,0.775206207999872
111,3,3,categorization,0,bathroom,SHINEd_sun_axxbkopsgyouuebh.tif,58,0.0666666666666667,0.0666666666666667,0.783333333333333,20065.386078083,20066.064258708,13,20065.453320542,20065.519516833,20066.092988208,20066.869662417,1,0.678180625000095
111,4,3,categorization,0,bathroom,SHINEd_sun_auzqhkafidnkrwmo.tif,54,0.0666666666666667,0.0666666666666667,0.933333333333333,20066.875559333,20067.5721945,13,20066.9372935,20066.998431375,20067.583592625,20068.510262,1,0.696635167001659
111,5,3,categorization,0,bathroom,SHINEd_sun_asfwthctfqerjvxr.tif,49,0.0666666666666667,0.0666666666666667,0.866666666666667,20068.515867667,20069.243994708,9,20068.577554542,20068.638657083,20069.257000958,20070.117005292,0,0.728127040998515
111,6,3,categorization,0,kitchen,SHINEd_sun_aadbddgrdsjugojn.tif,64,0.0666666666666667,0.0666666666666667,1.11666666666667,20070.122857792,20070.764240458,9,20070.184487,20070.245674708,20070.780708833,20071.890758542,1,0.641382665999117
111,7,3,categorization,0,kitchen,SHINEd_sun_aamedkxepzlwuxes.tif,65,0.0666666666666667,0.0666666666666667,0.966666666666667,20071.9023035,20072.734301625,9,20071.967939708,20072.035680667,20072.759457708,20073.719495958,1,0.831998125002428
111,8,3,categorization,0,bathroom,SHINEd_sun_aspsyogrekjtfozg.tif,50,0.0666666666666667,0.0666666666666667,1.78333333333333,20073.72852875,20074.540275292,13,20073.793654583,20073.861464833,20074.546746333,20076.323461333,1,0.811746542000037
111,9,3,categorization,0,kitchen,SHINEd_labelme_brsyyvweiuaazfr.tif,61,0.0666666666666667,0.0666666666666667,1.55,20076.340409875,20077.106495,9,20076.408722583,20076.473928375,20077.130885292,20078.674256417,1,0.766085125000245
111,10,3,categorization,0,kitchen,SHINEd_sun_ahljzhgcdpomplvg.tif,91,0.0666666666666667,0.0666666666666667,1.41666666666667,20078.691773208,20079.353257167,9,20078.760354708,20078.824916708,20079.381850917,20080.791900167,1,0.661483959000179
111,11,3,categorization,0,kitchen,SHINEd_sun_agorklincwxrdtga.tif,87,0.0666666666666667,0.0666666666666667,0.8,20080.808465625,20081.429216625,9,20080.876778625,20080.942115,20081.448518542,20082.241907333,1,0.620751000002201
111,12,3,categorization,0,bathroom,SHINEd_sun_amzlamotzwfkwjco.tif,37,0.0666666666666667,0.0666666666666667,1.28333333333333,20082.258135333,20083.156605792,13,20082.32510675,20082.391441292,20083.159960667,20084.4366615,1,0.898470459000237
111,13,3,categorization,0,bathroom,SHINEd_sun_anryaplzeujmzfkd.tif,39,0.0666666666666667,0.0666666666666667,1.66666666666667,20084.456503583,20085.669887208,13,20084.523308708,20084.59016825,20085.695375083,20087.355421,1,1.21338362500319
111,14,3,categorization,0,kitchen,SHINEd_sun_auaiucuqpdausiva.tif,102,0.0666666666666667,0.0666666666666667,1.81666666666667,20087.373002208,20088.221785042,9,20087.440143375,20087.506163042,20088.2467345,20090.056783667,1,0.848782833996665
111,15,3,categorization,0,kitchen,SHINEd_sun_akchetnepxlcxhsu.tif,98,0.0666666666666667,0.0666666666666667,1.35,20090.073978333,20090.918739708,13,20090.142394375,20090.2068885,20090.947205833,20092.290586667,0,0.844761374999507
111,16,3,categorization,0,kitchen,SHINEd_sun_abdxkyyxwfskuaqb.tif,70,0.0666666666666667,0.0666666666666667,0.916666666666667,20092.308192333,20092.917917917,9,20092.377024167,20092.44164725,20092.948614042,20093.858662875,1,0.609725583999534
111,17,3,categorization,0,kitchen,SHINEd_sun_acfmftudsenhrfhy.tif,74,0.0666666666666667,0.0666666666666667,0.916666666666667,20093.87498375,20094.532138333,9,20093.941981083,20094.008477333,20094.543724,20095.453729,1,0.657154583001102
111,18,3,categorization,0,kitchen,SHINEd_sun_aggjlwcdjsjcaemh.tif,86,0.0666666666666667,0.0666666666666667,1.31666666666667,20095.459518958,20096.20445775,9,20095.52116,20095.58233325,20096.2175315,20097.527563875,1,0.74493879199872
111,19,3,categorization,0,bathroom,SHINEd_sun_anhioqovhscjqqwb.tif,38,0.0666666666666667,0.0666666666666667,1.45,20097.544569833,20098.039756,13,20097.612576417,20097.671370583,20098.061436167,20099.504808708,1,0.495186166997883
111,20,3,categorization,0,kitchen,SHINEd_sun_aexklacwqwezaorf.tif,84,0.0666666666666667,0.0666666666666667,0.95,20099.523311167,20100.047825458,9,20099.590191125,20099.652958792,20100.076476708,20101.019864042,1,0.524514291002561
111,21,3,categorization,0,kitchen,SHINEd_sun_azmutvzbxypaceni.tif,110,0.0666666666666667,0.0666666666666667,1.38333333333333,20101.033056417,20101.980693833,9,20101.099852417,20101.166281708,20101.984892583,20103.361592292,1,0.947637416000362
111,22,3,categorization,0,bathroom,SHINEd_sun_abjtwfukuwddzted.tif,15,0.0666666666666667,0.0666666666666667,1.16666666666667,20103.378150208,20104.759794708,9,20103.444783542,20103.512508042,20104.787450625,20105.947486917,0,1.38164450000113
111,23,3,categorization,0,kitchen,SHINEd_sun_ahpczsiumwwocjkv.tif,92,0.0666666666666667,0.0666666666666667,1.61666666666667,20105.957385375,20106.735860792,9,20106.024425042,20106.090353333,20106.76430925,20108.374352292,1,0.778475416998845
111,24,3,categorization,0,kitchen,SHINEd_sun_aenotlpyftoioydp.tif,82,0.0666666666666667,0.0666666666666667,1.38333333333333,20108.391901833,20108.896051792,13,20108.460410083,20108.525070333,20108.914487625,20110.291208667,0,0.504149958997004
111,25,3,categorization,0,bathroom,SHINEd_sun_ahcvzmoyaycdoftf.tif,27,0.0666666666666667,0.0666666666666667,1.78333333333333,20110.308643333,20110.841560917,13,20110.376021583,20110.441759875,20110.865170667,20112.641886833,1,0.532917584001552
111,26,3,categorization,0,bathroom,SHINEd_sun_aoybiabnpadelefl.tif,41,0.0666666666666667,0.0666666666666667,0.783333333333333,20112.658321375,20113.4769905,13,20112.725626333,20112.791577375,20113.498198667,20114.274908833,1,0.818669125001179
111,27,3,categorization,0,bathroom,SHINEd_sun_aqrpegblszgcoujh.tif,48,0.0666666666666667,0.0666666666666667,1.65,20114.285972,20114.852193208,13,20114.347911375,20114.408680333,20114.860551833,20116.503940375,1,0.566221207998751
111,28,3,categorization,0,kitchen,SHINEd_sun_auticobqsbwgoppi.tif,104,0.0666666666666667,0.0666666666666667,1.86666666666667,20116.521228333,20117.079744208,9,20116.588389333,20116.654838,20117.09403075,20118.954080333,1,0.558515875000012
111,29,3,categorization,0,kitchen,SHINEd_sun_aqeaevwwwjoqhzvl.tif,101,0.0666666666666667,0.0666666666666667,1.23333333333333,20118.971478208,20119.671454292,13,20119.039137625,20119.105088917,20119.693813,20120.920529875,0,0.699976084000809
111,30,3,categorization,0,bathroom,SHINEd_sun_aclfzgynxzxlbepz.tif,19,0.0666666666666667,0.0666666666666667,0.7,20120.9385395,20121.540043667,13,20121.006274917,20121.071866167,20121.562218875,20122.255613708,1,0.601504166999803
111,31,3,categorization,0,bathroom,SHINEd_sun_acgyywnybuveqsro.tif,18,0.0666666666666667,0.0666666666666667,0.716666666666667,20122.273650292,20122.859480042,13,20122.340968042,20122.407186417,20122.876398833,20123.586403542,1,0.585829749998084
111,32,3,categorization,0,bathroom,SHINEd_sun_avhrdrntsqrjzccq.tif,55,0.0666666666666667,0.0666666666666667,1.05,20123.591797,20124.388438875,13,20123.653385375,20123.714543583,20124.39963625,20125.443014458,1,0.796641875000205
111,33,3,categorization,0,bathroom,SHINEd_sun_acegryoqftbzowsg.tif,17,0.0666666666666667,0.0666666666666667,1.1,20125.455503292,20126.176811875,13,20125.521352042,20125.586990458,20126.192782833,20127.286149083,1,0.721308583000791
111,34,3,categorization,0,bathroom,SHINEd_sun_aofnryafpsjimzsb.tif,40,0.0666666666666667,0.0666666666666667,1.13333333333333,20127.30332925,20127.916018667,13,20127.370268833,20127.436484833,20127.9218795,20129.048599875,1,0.612689417001093
111,35,3,categorization,0,bathroom,SHINEd_sun_apkruvsevgegsdwp.tif,44,0.0666666666666667,0.0666666666666667,1.38333333333333,20129.05968675,20129.773314667,13,20129.124691583,20129.194066333,20129.799652,20131.176361417,1,0.713627917000849
111,36,3,categorization,0,kitchen,SHINEd_sun_abrcnpqqhmjwekyf.tif,73,0.0666666666666667,0.0666666666666667,1.5,20131.194390625,20131.710529625,9,20131.26129475,20131.327607083,20131.733164542,20133.22652925,1,0.516138999999384
111,37,3,categorization,0,kitchen,SHINEd_sun_akcjzhbbjlbogpdi.tif,99,0.0666666666666667,0.0666666666666667,1.61666666666667,20133.238505125,20134.023878083,13,20133.305720333,20133.37207275,20134.045470667,20135.655485,0,0.785372958001972
111,38,3,categorization,0,bathroom,SHINEd_sun_aapitsgbtktqubfy.tif,12,0.0666666666666667,0.0666666666666667,0.983333333333333,20135.665677875,20136.334358292,13,20135.72969425,20135.796232125,20136.353190042,20137.329868417,1,0.668680416998541
111,39,3,categorization,0,bathroom,SHINEd_sun_abapwbhyhkfixyex.tif,14,0.0666666666666667,0.0666666666666667,1.3,20137.335973792,20138.075442333,13,20137.397762917,20137.458954292,20138.094137,20139.387507125,1,0.739468540999951
111,40,3,categorization,0,bathroom,SHINEd_sun_apjevzvycyhuqghb.tif,43,0.0666666666666667,0.0666666666666667,1.03333333333333,20139.405048875,20140.015460125,9,20139.471846875,20139.538209708,20140.044935292,20141.071651542,0,0.610411249999743
111,41,3,categorization,0,bathroom,SHINEd_sun_agguqiubmwhqqunb.tif,22,0.0666666666666667,0.0666666666666667,1.45,20141.088689417,20141.811737042,13,20141.155756333,20141.220796917,20141.822805083,20143.266176125,1,0.723047625000618
111,42,3,categorization,0,bathroom,SHINEd_labelme_sfxiulhjbhlyiyt.tif,11,0.0666666666666667,0.0666666666666667,1.23333333333333,20143.285266833,20143.989966875,13,20143.352108875,20143.418350417,20144.0079065,20145.23461775,1,0.704700041998876
111,43,3,categorization,0,kitchen,SHINEd_labelme_rykdqxenmhulbdn.tif,63,0.0666666666666667,0.0666666666666667,1.26666666666667,20145.253832167,20145.950433875,13,20145.3207265,20145.386658208,20145.976664708,20147.236699667,0,0.696601708001253
111,44,3,categorization,0,bathroom,SHINEd_sun_aavhrsfjbserjtht.tif,13,0.0666666666666667,0.0666666666666667,1.03333333333333,20147.252967958,20147.751310542,9,20147.319945583,20147.386340542,20147.774715792,20148.801419208,0,0.498342584000056
111,45,3,categorization,0,kitchen,SHINEd_sun_aypmqwcualkenuoe.tif,109,0.0666666666666667,0.0666666666666667,1.31666666666667,20148.81869125,20149.836310708,13,20148.885560292,20148.951865667,20149.853707,20151.163741792,0,1.01761945800172
111,46,3,categorization,0,kitchen,SHINEd_sun_agubuxuukhzyzpdp.tif,88,0.0666666666666667,0.0666666666666667,1.7,20151.185843833,20151.787846375,9,20151.252772333,20151.318996375,20151.807995,20153.501372625,1,0.602002542000264
111,47,3,categorization,0,bathroom,SHINEd_sun_aleqenyvunhactkl.tif,32,0.0666666666666667,0.0666666666666667,1.35,20153.516697083,20154.391671167,9,20153.583448625,20153.649257708,20154.40471875,20155.748101708,0,0.874974083999405
111,48,3,categorization,0,kitchen,SHINEd_sun_aunzlwrbjumxhwdj.tif,103,0.0666666666666667,0.0666666666666667,0.8,20155.757940042,20156.414878167,9,20155.8263505,20155.891143083,20156.430406083,20157.223769083,1,0.656938125001034
111,49,3,categorization,0,bathroom,SHINEd_sun_axyrejkiiaqiurjk.tif,59,0.0666666666666667,0.0666666666666667,0.766666666666667,20157.240915042,20157.843577083,9,20157.308061667,20157.374139542,20157.859493042,20158.619496125,0,0.602662041001167
111,50,3,categorization,0,bathroom,SHINEd_sun_agyqfjcfkdcydepw.tif,25,0.0666666666666667,0.0666666666666667,1.38333333333333,20158.625243792,20159.596280125,9,20158.686973,20158.747931917,20159.599768333,20160.976485333,0,0.971036332997755
111,1,4,categorization,0,kitchen,SHINEd_sun_avszsnwsbuqfgzbn.tif,105,0.0666666666666667,0.0666666666666667,1,20175.2121465,20175.81180225,9,20175.274748583,20175.334976833,20175.82012625,20176.81346375,1,0.599655750000238
111,2,4,categorization,0,kitchen,SHINEd_sun_aegoxogugdkwpmpj.tif,80,0.0666666666666667,0.0666666666666667,0.966666666666667,20176.819182667,20177.363724833,9,20176.880783625,20176.941834625,20177.377019167,20178.337023625,1,0.54454216600061
111,3,4,categorization,0,kitchen,SHINEd_sun_abpwyqmlzafvklqo.tif,72,0.0666666666666667,0.0666666666666667,1.75,20178.342715958,20178.852114208,13,20178.40437925,20178.465469875,20178.867250583,20180.61062675,0,0.509398250000231
111,4,4,categorization,0,bathroom,SHINEd_sun_alkosphxlxwjwgjd.tif,34,0.0666666666666667,0.0666666666666667,1.68333333333333,20180.628819,20181.286779583,13,20180.696466708,20180.761935958,20181.30118425,20182.977883042,1,0.657960582997475
111,5,4,categorization,0,kitchen,SHINEd_sun_ahspylgoovwmwvgk.tif,93,0.0666666666666667,0.0666666666666667,1.58333333333333,20182.995303,20183.451799,9,20183.062806333,20183.12854125,20183.467543958,20185.044253917,1,0.456495999998879
111,6,4,categorization,0,bathroom,SHINEd_sun_acduarbnmmoglmiv.tif,16,0.0666666666666667,0.0666666666666667,1,20185.0619175,20185.60572825,13,20185.129647458,20185.195061375,20185.635325875,20186.628664458,1,0.543810750001285
111,7,4,categorization,0,bathroom,SHINEd_sun_ahqjwnzgolcaoidx.tif,29,0.0666666666666667,0.0666666666666667,1.33333333333333,20186.634509875,20187.211827333,13,20186.696115833,20186.757235167,20187.225822292,20188.552536583,1,0.577317458002653
111,8,4,categorization,0,kitchen,SHINEd_sun_axyyrmzcupyhlivc.tif,107,0.0666666666666667,0.0666666666666667,1.26666666666667,20188.571611792,20189.102409333,13,20188.638871667,20188.705046417,20189.128852167,20190.388894667,0,0.530797541003267
111,9,4,categorization,0,kitchen,SHINEd_sun_ajcbwwvdlsvjyzje.tif,96,0.0666666666666667,0.0666666666666667,0.883333333333333,20190.401266042,20191.06180775,13,20190.468361083,20190.536220125,20191.075659375,20191.952366042,0,0.660541707999073
111,10,4,categorization,0,bathroom,SHINEd_sun_aljolscmmzydegqp.tif,33,0.0666666666666667,0.0666666666666667,1.26666666666667,20191.969357083,20192.579476958,13,20192.03650825,20192.102769208,20192.588282417,20193.848326333,1,0.610119875000237
111,11,4,categorization,0,bathroom,SHINEd_sun_ahijqszoswveeyji.tif,28,0.0666666666666667,0.0666666666666667,2,20193.868637833,20194.479808083,13,20193.935590792,20194.00230675,20194.510027125,20196.503402875,1,0.611170250002033
111,12,4,categorization,0,bathroom,SHINEd_sun_akiytfaagpdsphgz.tif,31,0.0666666666666667,0.0666666666666667,0.733333333333333,20196.522116458,20197.206231917,13,20196.589587917,20196.655471708,20197.229480417,20197.956152,1,0.684115459000168
111,13,4,categorization,0,kitchen,SHINEd_sun_aixorpehvfykdynp.tif,95,0.0666666666666667,0.0666666666666667,0.883333333333333,20197.962196292,20198.531634583,13,20198.024010708,20198.084917,20198.5366195,20199.413290917,0,0.569438291000552
111,14,4,categorization,0,kitchen,SHINEd_sun_ahywdevtimnqcsln.tif,94,0.0666666666666667,0.0666666666666667,0.983333333333333,20199.418955625,20200.067860417,9,20199.480657583,20199.541786,20200.076926375,20201.053598292,1,0.648904792000394
111,15,4,categorization,0,kitchen,SHINEd_sun_aapllqyqlykszopd.tif,66,0.0666666666666667,0.0666666666666667,1.56666666666667,20201.059143583,20201.604120375,9,20201.120777208,20201.181848667,20201.616954458,20203.176987917,1,0.544976791999943
111,16,4,categorization,0,kitchen,SHINEd_sun_awcpdzzznmweyyhv.tif,106,0.0666666666666667,0.0666666666666667,1.08333333333333,20203.194999917,20203.774521083,9,20203.26167125,20203.328027458,20203.8007345,20204.877447083,1,0.579521166000632
111,17,4,categorization,0,kitchen,SHINEd_sun_ahdycvpopffkzzsu.tif,90,0.0666666666666667,0.0666666666666667,0.75,20204.88842675,20205.926384208,9,20204.953890375,20205.021593333,20205.944936167,20206.688316375,1,1.03795745800016
111,18,4,categorization,0,bathroom,SHINEd_sun_atstyziqcmkahyxk.tif,51,0.0666666666666667,0.0666666666666667,0.966666666666667,20206.704367917,20207.299612208,13,20206.771294333,20206.83760075,20207.306166958,20208.266171833,1,0.595244291002018
111,19,4,categorization,0,bathroom,SHINEd_sun_aunuadmjocsddsrl.tif,52,0.0666666666666667,0.0666666666666667,1.63333333333333,20208.271815125,20208.851381042,13,20208.333581917,20208.394516167,20208.8630975,20210.489806417,1,0.579565916999854
111,20,4,categorization,0,kitchen,SHINEd_sun_acwjdupvyjsugpay.tif,76,0.0666666666666667,0.0666666666666667,1.46666666666667,20210.507511167,20211.1552535,9,20210.576543958,20210.640488917,20211.180329,20212.64037525,1,0.647742332999769
111,21,4,categorization,0,bathroom,SHINEd_sun_apkxzenqapsujocq.tif,45,0.0666666666666667,0.0666666666666667,0.933333333333333,20212.658630167,20213.243417667,13,20212.725638833,20212.791738708,20213.264991208,20214.191703208,1,0.584787499999948
111,22,4,categorization,0,kitchen,SHINEd_sun_ajkqhtgcbgpcwrwn.tif,97,0.0666666666666667,0.0666666666666667,1.45,20214.207667833,20214.772023417,9,20214.270169208,20214.330518042,20214.782257375,20216.225633583,1,0.564355583999713
111,23,4,categorization,0,kitchen,SHINEd_sun_amjjdeyrggfqgmom.tif,100,0.0666666666666667,0.0666666666666667,0.966666666666667,20216.242298625,20216.799486542,9,20216.309257833,20216.375576625,20216.8141215,20217.774161417,1,0.557187917002011
111,24,4,categorization,0,bathroom,SHINEd_sun_awnqiikzaispgmwo.tif,56,0.0666666666666667,0.0666666666666667,0.816666666666667,20217.784672292,20218.307973292,13,20217.851228292,20217.909075542,20218.327690583,20219.137695375,1,0.523301000001084
111,25,4,categorization,0,bathroom,SHINEd_sun_apmqjbnwghzuhhzh.tif,46,0.0666666666666667,0.0666666666666667,1.96666666666667,20219.143413458,20219.675702083,13,20219.205287083,20219.266104083,20219.684361292,20221.644401167,1,0.532288624999637
111,26,4,categorization,0,bathroom,SHINEd_sun_apeeialkgkuxddgh.tif,42,0.0666666666666667,0.0666666666666667,0.916666666666667,20221.656776333,20222.331149917,13,20221.721083,20221.78744525,20222.360900708,20223.270905708,1,0.674373584002751
111,27,4,categorization,0,kitchen,SHINEd_sun_abftihopvusyfakt.tif,71,0.0666666666666667,0.0666666666666667,1.28333333333333,20223.276903833,20223.820081625,9,20223.33871725,20223.399623708,20223.834814625,20225.111515208,1,0.54317779199846
111,28,4,categorization,0,bathroom,SHINEd_sun_alotolagknyrgtsk.tif,35,0.0666666666666667,0.0666666666666667,1.8,20225.128358667,20225.605164625,9,20225.194919167,20225.261008292,20225.634631667,20227.428016917,0,0.476805958001933
111,29,4,categorization,0,kitchen,SHINEd_sun_aymvwlarqodbwuoc.tif,108,0.0666666666666667,0.0666666666666667,1.33333333333333,20227.445858375,20227.869175083,9,20227.512177833,20227.579301542,20227.884949167,20229.211661875,1,0.423316708001948
111,30,4,categorization,0,bathroom,SHINEd_sun_ausgutylgojavyoq.tif,53,0.0666666666666667,0.0666666666666667,1.06666666666667,20229.228938292,20229.65314825,9,20229.295211458,20229.362062708,20229.666278667,20230.726312625,0,0.424209958000574
111,31,4,categorization,0,kitchen,SHINEd_sun_admlmbcdswaszruo.tif,79,0.0666666666666667,0.0666666666666667,1.03333333333333,20230.743182958,20231.300088625,9,20230.811242333,20230.876183125,20231.312044083,20232.338762333,1,0.556905667002866
111,32,4,categorization,0,kitchen,SHINEd_sun_acgtpgfybqjmzeyw.tif,75,0.0666666666666667,0.0666666666666667,0.733333333333333,20232.349094167,20232.955870542,9,20232.4140525,20232.480489042,20232.969337458,20233.696057792,1,0.606776374999754
111,33,4,categorization,0,bathroom,SHINEd_sun_aggnnqpdorgxpvce.tif,21,0.0666666666666667,0.0666666666666667,0.766666666666667,20233.704690875,20234.302573292,9,20233.769945667,20233.8378455,20234.328053958,20235.088057625,0,0.597882416997891
111,34,4,categorization,0,kitchen,SHINEd_sun_agzzivivdpnawacl.tif,89,0.0666666666666667,0.0666666666666667,1.1,20235.093953625,20235.97978775,13,20235.155719292,20235.216724625,20235.984956583,20237.07834525,0,0.885834124997928
111,35,4,categorization,0,bathroom,SHINEd_sun_azqyogdvyhahyram.tif,60,0.0666666666666667,0.0666666666666667,1.81666666666667,20237.08790025,20237.598002458,13,20237.1539445,20237.221243292,20237.608980542,20239.419026042,1,0.510102207997988
111,36,4,categorization,0,kitchen,SHINEd_sun_aeqdocilnnpuvuhx.tif,83,0.0666666666666667,0.0666666666666667,0.883333333333333,20239.437124875,20239.997522083,9,20239.504707,20239.570342125,20240.02779375,20240.904512,1,0.560397207998903
111,37,4,categorization,0,kitchen,SHINEd_sun_afuyedyxivkhecmu.tif,85,0.0666666666666667,0.0666666666666667,1.7,20240.921385125,20241.555661125,9,20240.988900708,20241.04666825,20241.565052417,20243.25843925,1,0.634276000000682
111,38,4,categorization,0,bathroom,SHINEd_sun_aghyqhbptboemmoq.tif,23,0.0666666666666667,0.0666666666666667,1.58333333333333,20243.27525325,20243.89090725,13,20243.342122333,20243.40859875,20243.915290292,20245.492006875,1,0.615653999997448
111,39,4,categorization,0,bathroom,SHINEd_sun_axldvoqbuvuggfmq.tif,57,0.0666666666666667,0.0666666666666667,0.833333333333333,20245.509797,20245.940070167,13,20245.578300167,20245.642752042,20245.966029125,20246.79273175,1,0.430273166999541
111,40,4,categorization,0,bathroom,SHINEd_sun_agrwbmhcpmfuwmsg.tif,24,0.0666666666666667,0.0666666666666667,0.95,20246.810039958,20247.45985225,13,20246.876337042,20246.941927458,20247.477230292,20248.420569708,1,0.649812291998387
111,41,4,categorization,0,kitchen,SHINEd_sun_aaxxjlsuzvqlgylf.tif,68,0.0666666666666667,0.0666666666666667,1.06666666666667,20248.426086583,20248.9558755,9,20248.487853042,20248.548890917,20248.967179875,20250.0272125,1,0.529788916999678
111,42,4,categorization,0,bathroom,SHINEd_sun_apynckhmoftszqoq.tif,47,0.0666666666666667,0.0666666666666667,1.68333333333333,20250.0385165,20250.497444,9,20250.104125833,20250.17025425,20250.508450792,20252.185157708,0,0.458927499999845
111,43,4,categorization,0,kitchen,SHINEd_sun_aarfiyshqohlwkmo.tif,67,0.0666666666666667,0.0666666666666667,1.31666666666667,20252.198811417,20252.83942525,9,20252.265389917,20252.331810667,20252.854057875,20254.164091208,1,0.640613832998497
111,44,4,categorization,0,bathroom,SHINEd_sun_afcoljnjfoxjtgja.tif,20,0.0666666666666667,0.0666666666666667,1.61666666666667,20254.184051125,20254.851679083,13,20254.247415083,20254.307249375,20254.859085542,20256.4691255,1,0.667627957998775
111,45,4,categorization,0,kitchen,SHINEd_sun_acxkpeoqbwcxfvip.tif,77,0.0666666666666667,0.0666666666666667,1.15,20256.487059,20257.046161,9,20256.554741167,20256.621107625,20257.060429333,20258.2038005,1,0.559101999999257
111,46,4,categorization,0,kitchen,SHINEd_sun_abdenxonkemggwsq.tif,69,0.0666666666666667,0.0666666666666667,1.25,20258.215902208,20258.749130042,9,20258.282978292,20258.349563792,20258.773263708,20260.016651125,1,0.533227833999263
111,47,4,categorization,0,bathroom,SHINEd_sun_ajlawzvmubibwbpy.tif,30,0.0666666666666667,0.0666666666666667,1.1,20260.035380042,20260.555096292,13,20260.102372833,20260.163766167,20260.565512292,20261.658902375,1,0.519716249997145
111,48,4,categorization,0,bathroom,SHINEd_sun_ahaulkltgpkeeemi.tif,26,0.0666666666666667,0.0666666666666667,0.9,20261.66784725,20262.408183292,13,20261.732773458,20261.799826375,20262.4222855,20263.315658167,1,0.740336041999399
111,49,4,categorization,0,bathroom,SHINEd_sun_ambriybtogmepttm.tif,36,0.0666666666666667,0.0666666666666667,1.3,20263.332387542,20263.939235042,9,20263.398881042,20263.465102208,20263.950385667,20265.243766208,0,0.606847499999276
111,50,4,categorization,0,kitchen,SHINEd_sun_aehawpgmrlhlvcow.tif,81,0.0666666666666667,0.0666666666666667,1.25,20265.259591625,20266.209382833,9,20265.325953833,20265.393582458,20266.2336155,20267.476980083,1,0.949791208000534
111,1,5,categorization,0,bathroom,SHINEd_sun_agguqiubmwhqqunb.tif,22,0.0666666666666667,0.0666666666666667,1.7,20282.687767333,20283.507155792,13,20282.750303167,20282.810521125,20283.512289125,20285.205679042,1,0.819388459000038
111,2,5,categorization,0,bathroom,SHINEd_sun_aspsyogrekjtfozg.tif,50,0.0666666666666667,0.0666666666666667,1.81666666666667,20285.22299525,20285.775181333,13,20285.29115275,20285.355954208,20285.795322333,20287.605366333,1,0.552186083001288
111,3,5,categorization,0,bathroom,SHINEd_sun_aljolscmmzydegqp.tif,33,0.0666666666666667,0.0666666666666667,1.23333333333333,20287.623069958,20288.19185225,13,20287.687597333,20287.75464275,20288.211045917,20289.4377545,1,0.568782291997195
111,4,5,categorization,0,bathroom,SHINEd_sun_anhioqovhscjqqwb.tif,38,0.0666666666666667,0.0666666666666667,1.4,20289.4551515,20289.991567333,13,20289.52349725,20289.588815875,20290.012621292,20291.405982875,1,0.536415833001229
111,5,5,categorization,0,bathroom,SHINEd_sun_apynckhmoftszqoq.tif,47,0.0666666666666667,0.0666666666666667,1.03333333333333,20291.416095833,20291.919057833,13,20291.484828125,20291.54945575,20291.93978025,20292.966493792,1,0.502962000002299
111,6,5,categorization,0,kitchen,SHINEd_sun_auticobqsbwgoppi.tif,104,0.0666666666666667,0.0666666666666667,1.38333333333333,20292.982185792,20293.579047125,9,20293.050351958,20293.116020167,20293.584917125,20294.961623417,1,0.596861333000561
111,7,5,categorization,0,bathroom,SHINEd_sun_apjevzvycyhuqghb.tif,43,0.0666666666666667,0.0666666666666667,2,20294.979361833,20295.524508542,9,20295.045588583,20295.113684042,20295.553632542,20297.54701075,0,0.5451467089988
111,8,5,categorization,0,kitchen,SHINEd_sun_axyyrmzcupyhlivc.tif,107,0.0666666666666667,0.0666666666666667,1.85,20297.563985625,20298.191184833,13,20297.63244975,20297.692624417,20298.216115792,20300.05948625,0,0.627199207996455
111,9,5,categorization,0,bathroom,SHINEd_sun_acegryoqftbzowsg.tif,17,0.0666666666666667,0.0666666666666667,0.816666666666667,20300.077542542,20300.830358583,9,20300.1457945,20300.211114417,20300.851000542,20301.661004208,0,0.752816041000187
111,10,5,categorization,0,bathroom,SHINEd_sun_ahaulkltgpkeeemi.tif,26,0.0666666666666667,0.0666666666666667,1.85,20301.666470167,20302.235215167,13,20301.728211,20301.789295667,20302.241136625,20304.084524583,1,0.568744999996852
111,11,5,categorization,0,kitchen,SHINEd_sun_agorklincwxrdtga.tif,87,0.0666666666666667,0.0666666666666667,0.733333333333333,20304.101708375,20304.744502167,9,20304.168114625,20304.2347915,20304.755882042,20305.482552792,1,0.642793791997974
111,12,5,categorization,0,kitchen,SHINEd_sun_acwjdupvyjsugpay.tif,76,0.0666666666666667,0.0666666666666667,0.716666666666667,20305.488513792,20305.963558708,9,20305.550133167,20305.611358792,20305.979935875,20306.689940875,1,0.475044916001934
111,13,5,categorization,0,bathroom,SHINEd_sun_agyqfjcfkdcydepw.tif,25,0.0666666666666667,0.0666666666666667,0.833333333333333,20306.697508792,20307.267879375,9,20306.759227667,20306.820257958,20307.27200025,20308.098672,0,0.570370582998294
111,14,5,categorization,0,kitchen,SHINEd_sun_ahljzhgcdpomplvg.tif,91,0.0666666666666667,0.0666666666666667,0.95,20308.104019125,20308.907877708,9,20308.165624917,20308.226764083,20308.911960167,20309.855297667,1,0.803858582999965
111,15,5,categorization,0,bathroom,SHINEd_sun_aofnryafpsjimzsb.tif,40,0.0666666666666667,0.0666666666666667,1.96666666666667,20309.860156875,20310.466890125,13,20309.92196025,20309.982940083,20310.484860542,20312.444891417,1,0.606733250002435
111,16,5,categorization,0,kitchen,SHINEd_sun_abftihopvusyfakt.tif,71,0.0666666666666667,0.0666666666666667,1.86666666666667,20312.462559667,20313.053272458,9,20312.529025833,20312.595633583,20313.067811958,20314.927841792,1,0.590712790999532
111,17,5,categorization,0,kitchen,SHINEd_sun_ahywdevtimnqcsln.tif,94,0.0666666666666667,0.0666666666666667,1.51666666666667,20314.9455505,20315.481273917,9,20315.012263625,20315.078813583,20315.502099917,20317.012131292,1,0.535723417000554
111,18,5,categorization,0,bathroom,SHINEd_sun_ahcvzmoyaycdoftf.tif,27,0.0666666666666667,0.0666666666666667,1.3,20317.033722833,20317.585521458,13,20317.100622542,20317.16704225,20317.607262417,20318.900634792,1,0.551798625001538
111,19,5,categorization,0,kitchen,SHINEd_sun_agzzivivdpnawacl.tif,89,0.0666666666666667,0.0666666666666667,1.91666666666667,20318.918583792,20319.5088,9,20318.985392125,20319.051803875,20319.524738042,20321.434784042,1,0.59021620799831
111,20,5,categorization,0,bathroom,SHINEd_sun_aoybiabnpadelefl.tif,41,0.0666666666666667,0.0666666666666667,1.23333333333333,20321.453400458,20322.160049833,9,20321.52027975,20321.586542,20322.176023625,20323.402735333,0,0.706649375002598
111,21,5,categorization,0,kitchen,SHINEd_sun_aehawpgmrlhlvcow.tif,81,0.0666666666666667,0.0666666666666667,0.866666666666667,20323.419598208,20324.102157667,9,20323.486911958,20323.552612333,20324.126308292,20324.9863485,1,0.682559459000913
111,22,5,categorization,0,kitchen,SHINEd_sun_awcpdzzznmweyyhv.tif,106,0.0666666666666667,0.0666666666666667,0.8,20325.003008,20325.611476625,9,20325.070344333,20325.136149333,20325.621548792,20326.414887167,1,0.608468624999659
111,23,5,categorization,0,bathroom,SHINEd_sun_amzlamotzwfkwjco.tif,37,0.0666666666666667,0.0666666666666667,1.51666666666667,20326.420526042,20327.067612083,9,20326.482093667,20326.543304,20327.078602792,20328.588650458,0,0.647086041000875
111,24,5,categorization,0,kitchen,SHINEd_sun_aymvwlarqodbwuoc.tif,108,0.0666666666666667,0.0666666666666667,1.18333333333333,20328.60452025,20329.245917125,9,20328.671512792,20328.737451417,20329.259870375,20330.436566958,1,0.641396875002101
111,25,5,categorization,0,kitchen,SHINEd_sun_ahdycvpopffkzzsu.tif,90,0.0666666666666667,0.0666666666666667,1.6,20330.449101917,20331.0314015,9,20330.515739375,20330.582033917,20331.055095875,20332.648469083,1,0.582299583002168
111,26,5,categorization,0,kitchen,SHINEd_sun_aeqdocilnnpuvuhx.tif,83,0.0666666666666667,0.0666666666666667,1.56666666666667,20332.668274958,20333.251156875,9,20332.73501925,20332.801531417,20333.2749915,20334.835023958,1,0.582881917001941
111,27,5,categorization,0,kitchen,SHINEd_sun_aarfiyshqohlwkmo.tif,67,0.0666666666666667,0.0666666666666667,1.36666666666667,20334.850061458,20335.3596885,9,20334.916861,20334.982992875,20335.389748125,20336.749803708,1,0.50962704199992
111,28,5,categorization,0,bathroom,SHINEd_sun_aqrpegblszgcoujh.tif,48,0.0666666666666667,0.0666666666666667,1.53333333333333,20336.767107167,20337.368927833,13,20336.834015625,20336.900431042,20337.390362625,20338.917072417,1,0.601820665997366
111,29,5,categorization,0,bathroom,SHINEd_sun_apkruvsevgegsdwp.tif,44,0.0666666666666667,0.0666666666666667,1.4,20338.935867792,20339.438743125,13,20339.002669292,20339.069017667,20339.458893833,20340.85228175,1,0.502875333000702
111,30,5,categorization,0,bathroom,SHINEd_sun_ahqjwnzgolcaoidx.tif,29,0.0666666666666667,0.0666666666666667,1.06666666666667,20340.869089917,20341.379321667,9,20340.931507833,20340.991875625,20341.393753833,20342.453796125,0,0.510231749998638
111,31,5,categorization,0,bathroom,SHINEd_sun_aclfzgynxzxlbepz.tif,19,0.0666666666666667,0.0666666666666667,1.63333333333333,20342.465678333,20342.991147125,13,20342.531045667,20342.596668292,20343.020360167,20344.647065833,1,0.525468792002357
111,32,5,categorization,0,bathroom,SHINEd_sun_aghyqhbptboemmoq.tif,23,0.0666666666666667,0.0666666666666667,1.8,20344.666215417,20345.343133792,13,20344.733146875,20344.799351625,20345.355577708,20347.148955083,1,0.676918375000241
111,33,5,categorization,0,kitchen,SHINEd_sun_akchetnepxlcxhsu.tif,98,0.0666666666666667,0.0666666666666667,1.53333333333333,20347.167742417,20347.826966583,9,20347.23468825,20347.300909542,20347.85798725,20349.384705958,1,0.659224166000058
111,34,5,categorization,0,bathroom,SHINEd_sun_apeeialkgkuxddgh.tif,42,0.0666666666666667,0.0666666666666667,0.766666666666667,20349.401923833,20349.89241775,13,20349.469058917,20349.535240542,20349.907440125,20350.667482583,1,0.490493917001004
111,35,5,categorization,0,kitchen,SHINEd_sun_acxkpeoqbwcxfvip.tif,77,0.0666666666666667,0.0666666666666667,1.86666666666667,20350.683541875,20351.30675225,9,20350.750565125,20350.817033083,20351.319040667,20353.179076792,1,0.623210374997143
111,36,5,categorization,0,bathroom,SHINEd_sun_axxbkopsgyouuebh.tif,58,0.0666666666666667,0.0666666666666667,1.13333333333333,20353.195800458,20353.73982625,13,20353.262869042,20353.329270208,20353.750197833,20354.876903333,1,0.544025791998138
111,37,5,categorization,0,kitchen,SHINEd_sun_akcjzhbbjlbogpdi.tif,99,0.0666666666666667,0.0666666666666667,1.73333333333333,20354.887719,20355.531091625,9,20354.953279,20355.020910375,20355.561146875,20357.287855958,1,0.643372624999756
111,38,5,categorization,0,kitchen,SHINEd_labelme_brsyyvweiuaazfr.tif,61,0.0666666666666667,0.0666666666666667,0.766666666666667,20357.304533125,20357.90087975,13,20357.371707292,20357.438174375,20357.927404625,20358.687439375,0,0.596346624999569
111,39,5,categorization,0,bathroom,SHINEd_sun_awnqiikzaispgmwo.tif,56,0.0666666666666667,0.0666666666666667,1.85,20358.704218958,20359.315322167,13,20358.771238958,20358.832093625,20359.334190042,20361.177572583,1,0.611103209001158
111,40,5,categorization,0,bathroom,SHINEd_sun_azqyogdvyhahyram.tif,60,0.0666666666666667,0.0666666666666667,0.966666666666667,20361.194965292,20361.710487958,13,20361.261472167,20361.3284315,20361.734239333,20362.694244208,1,0.515522665999015
111,41,5,categorization,0,bathroom,SHINEd_sun_auzqhkafidnkrwmo.tif,54,0.0666666666666667,0.0666666666666667,1.06666666666667,20362.700311958,20363.250635833,13,20362.761977125,20362.823109833,20363.258146292,20364.318194833,1,0.550323874998867
111,42,5,categorization,0,bathroom,SHINEd_labelme_sfxiulhjbhlyiyt.tif,11,0.0666666666666667,0.0666666666666667,1.38333333333333,20364.328598417,20364.935121667,13,20364.39318975,20364.458250792,20364.964906333,20366.341629875,1,0.606523250000464
111,43,5,categorization,0,bathroom,SHINEd_sun_abapwbhyhkfixyex.tif,14,0.0666666666666667,0.0666666666666667,0.766666666666667,20366.353403417,20366.828872417,9,20366.418467917,20366.485191292,20366.858475,20367.618533292,0,0.475469000000885
111,44,5,categorization,0,bathroom,SHINEd_sun_axldvoqbuvuggfmq.tif,57,0.0666666666666667,0.0666666666666667,0.866666666666667,20367.634904125,20368.2313545,13,20367.699816625,20367.76633375,20368.256434875,20369.116439708,1,0.596450375000131
111,45,5,categorization,0,kitchen,SHINEd_sun_amjjdeyrggfqgmom.tif,100,0.0666666666666667,0.0666666666666667,1.25,20369.122325625,20369.683172583,13,20369.183968917,20369.245316833,20369.69688725,20370.940268542,0,0.560846958000184
111,46,5,categorization,0,kitchen,SHINEd_sun_abdxkyyxwfskuaqb.tif,70,0.0666666666666667,0.0666666666666667,1.03333333333333,20370.957057375,20371.59124625,9,20371.023715042,20371.09002325,20371.613394625,20372.640118375,1,0.634188874999381
111,47,5,categorization,0,kitchen,SHINEd_sun_aadbddgrdsjugojn.tif,64,0.0666666666666667,0.0666666666666667,0.783333333333333,20372.656586542,20373.202498708,13,20372.721389417,20372.779824667,20373.214894083,20373.991564125,0,0.545912165998743
111,48,5,categorization,0,bathroom,SHINEd_sun_avhrdrntsqrjzccq.tif,55,0.0666666666666667,0.0666666666666667,0.7,20373.997222708,20374.947555667,13,20374.058977042,20374.120014875,20374.955158125,20375.648495875,1,0.950332959000662
111,49,5,categorization,0,kitchen,SHINEd_sun_agubuxuukhzyzpdp.tif,88,0.0666666666666667,0.0666666666666667,1.75,20375.654054542,20376.171596708,9,20375.71593275,20375.7767935,20376.178438333,20377.9218185,1,0.517542166002386
111,50,5,categorization,0,bathroom,SHINEd_sun_aavhrsfjbserjtht.tif,13,0.0666666666666667,0.0666666666666667,1.36666666666667,20377.938246667,20378.386327208,9,20378.004921125,20378.071195417,20378.410971833,20379.771024625,0,0.448080541002128
111,1,6,categorization,0,bathroom,SHINEd_sun_abjtwfukuwddzted.tif,15,0.0666666666666667,0.0666666666666667,0.966666666666667,20401.949133458,20402.611045375,13,20402.011962083,20402.071963125,20402.62376525,20403.583770417,1,0.661911916999088
111,2,6,categorization,0,bathroom,SHINEd_sun_ajlawzvmubibwbpy.tif,30,0.0666666666666667,0.0666666666666667,1.73333333333333,20403.5890675,20404.115331333,9,20403.650692417,20403.711830167,20404.130353,20405.85705375,0,0.526263832998666
111,3,6,categorization,0,bathroom,SHINEd_sun_ahijqszoswveeyji.tif,28,0.0666666666666667,0.0666666666666667,1.91666666666667,20405.874004375,20406.508124417,9,20405.942369958,20406.006432792,20406.529468625,20408.439503958,0,0.634120041999267
111,4,6,categorization,0,kitchen,SHINEd_sun_aqeaevwwwjoqhzvl.tif,101,0.0666666666666667,0.0666666666666667,0.766666666666667,20408.456651042,20408.9722435,9,20408.525361958,20408.588910708,20408.996209,20409.7562125,1,0.515592457999446
111,5,6,categorization,0,kitchen,SHINEd_sun_aapllqyqlykszopd.tif,66,0.0666666666666667,0.0666666666666667,0.916666666666667,20409.761224458,20410.39480575,9,20409.823033875,20409.88396675,20410.40242125,20411.312426292,1,0.633581291996961
111,6,6,categorization,0,bathroom,SHINEd_sun_apmqjbnwghzuhhzh.tif,46,0.0666666666666667,0.0666666666666667,1.18333333333333,20411.317984917,20411.738619083,9,20411.379642875,20411.440593375,20411.742307458,20412.919016208,0,0.420634165999218
111,7,6,categorization,0,bathroom,SHINEd_sun_afcoljnjfoxjtgja.tif,20,0.0666666666666667,0.0666666666666667,1.8,20412.928589208,20413.900387042,9,20412.996341542,20413.061457625,20413.9179175,20415.711289,0,0.971797833997698
111,8,6,categorization,0,kitchen,SHINEd_sun_ajcbwwvdlsvjyzje.tif,96,0.0666666666666667,0.0666666666666667,0.883333333333333,20415.720463083,20416.306492958,13,20415.786479833,20415.853273042,20416.32616425,20417.202836458,0,0.586029875001259
111,9,6,categorization,0,kitchen,SHINEd_sun_aypmqwcualkenuoe.tif,109,0.0666666666666667,0.0666666666666667,1.83333333333333,20417.208667125,20417.683169708,13,20417.270288667,20417.331401708,20417.699662,20419.526364625,0,0.474502583001595
111,10,6,categorization,0,kitchen,SHINEd_sun_ahpczsiumwwocjkv.tif,92,0.0666666666666667,0.0666666666666667,1.76666666666667,20419.543901917,20420.111842417,9,20419.610118625,20419.674804292,20420.131487833,20421.891521833,1,0.567940500000987
111,11,6,categorization,0,bathroom,SHINEd_sun_acduarbnmmoglmiv.tif,16,0.0666666666666667,0.0666666666666667,0.983333333333333,20421.9046825,20422.621198708,13,20421.971936958,20422.038238833,20422.644943333,20423.62161375,1,0.716516207998211
111,12,6,categorization,0,kitchen,SHINEd_sun_azmutvzbxypaceni.tif,110,0.0666666666666667,0.0666666666666667,0.883333333333333,20423.627219875,20424.315041458,13,20423.688849917,20423.749907583,20424.31835775,20425.195027833,0,0.687821583000186
111,13,6,categorization,0,bathroom,SHINEd_sun_akiytfaagpdsphgz.tif,31,0.0666666666666667,0.0666666666666667,0.85,20425.200845042,20425.755307708,13,20425.26247725,20425.323569458,20425.758806125,20426.602145,1,0.5544626660012
111,14,6,categorization,0,bathroom,SHINEd_sun_alotolagknyrgtsk.tif,35,0.0666666666666667,0.0666666666666667,0.733333333333333,20426.607748458,20427.298418083,9,20426.66947475,20426.730396375,20427.315477708,20428.042149042,0,0.690669625000737
111,15,6,categorization,0,bathroom,SHINEd_sun_ausgutylgojavyoq.tif,53,0.0666666666666667,0.0666666666666667,1.88333333333333,20428.047497667,20428.522773083,13,20428.109144333,20428.170168042,20428.538694792,20430.415395542,1,0.475275415999931
111,16,6,categorization,0,kitchen,SHINEd_labelme_kxvouciolcpqplr.tif,62,0.0666666666666667,0.0666666666666667,0.816666666666667,20430.433969333,20430.970698167,13,20430.500778292,20430.567031708,20430.989925375,20431.7999295,0,0.536728833998495
111,17,6,categorization,0,kitchen,SHINEd_labelme_rykdqxenmhulbdn.tif,63,0.0666666666666667,0.0666666666666667,1.9,20431.805161833,20432.603386083,9,20431.866891083,20431.927975875,20432.613252375,20434.506631375,1,0.798224250000203
111,18,6,categorization,0,kitchen,SHINEd_sun_ahspylgoovwmwvgk.tif,93,0.0666666666666667,0.0666666666666667,0.983333333333333,20434.523640042,20435.055152833,9,20434.590622917,20434.657161542,20435.080297458,20436.056968417,1,0.531512790999841
111,19,6,categorization,0,kitchen,SHINEd_sun_aixorpehvfykdynp.tif,95,0.0666666666666667,0.0666666666666667,0.75,20436.06314225,20436.722237083,9,20436.124838583,20436.185906125,20436.737674667,20437.481011583,1,0.659094832997653
111,20,6,categorization,0,kitchen,SHINEd_sun_abpwyqmlzafvklqo.tif,72,0.0666666666666667,0.0666666666666667,1.6,20437.4868245,20438.019200042,9,20437.54850275,20437.609554042,20438.028012333,20439.621396625,1,0.5323755419995
111,21,6,categorization,0,bathroom,SHINEd_sun_aggnnqpdorgxpvce.tif,21,0.0666666666666667,0.0666666666666667,1.58333333333333,20439.639099333,20440.223668,9,20439.703810708,20439.770246667,20440.243007458,20441.819719792,0,0.584568666999985
111,22,6,categorization,0,kitchen,SHINEd_sun_afuyedyxivkhecmu.tif,85,0.0666666666666667,0.0666666666666667,1.11666666666667,20441.836450542,20442.653834958,9,20441.904503292,20441.969836125,20442.676499917,20443.7865335,1,0.817384416001005
111,23,6,categorization,0,bathroom,SHINEd_sun_aleqenyvunhactkl.tif,32,0.0666666666666667,0.0666666666666667,1.53333333333333,20443.798737083,20444.433953333,13,20443.863980833,20443.932039333,20444.455416458,20445.982126708,1,0.635216249997029
111,24,6,categorization,0,bathroom,SHINEd_sun_anryaplzeujmzfkd.tif,39,0.0666666666666667,0.0666666666666667,1.48333333333333,20446.001315833,20446.762612708,9,20446.068696833,20446.134826375,20446.791781708,20448.268498625,0,0.761296874999971
111,25,6,categorization,0,bathroom,SHINEd_sun_ambriybtogmepttm.tif,36,0.0666666666666667,0.0666666666666667,1.1,20448.286054708,20449.20532425,13,20448.353085625,20448.419050917,20449.226322208,20450.319700333,1,0.919269541998801
111,26,6,categorization,0,kitchen,SHINEd_sun_abdenxonkemggwsq.tif,69,0.0666666666666667,0.0666666666666667,0.933333333333333,20450.332168292,20450.92349325,9,20450.397487375,20450.465636333,20450.938652333,20451.865360042,1,0.591324958000769
111,27,6,categorization,0,bathroom,SHINEd_sun_axyrejkiiaqiurjk.tif,59,0.0666666666666667,0.0666666666666667,0.816666666666667,20451.882462583,20452.675203667,13,20451.94983475,20452.015664542,20452.684388625,20453.494393167,1,0.792741084002046
111,28,6,categorization,0,kitchen,SHINEd_sun_abrcnpqqhmjwekyf.tif,73,0.0666666666666667,0.0666666666666667,1.78333333333333,20453.500161792,20454.187004583,9,20453.561963833,20453.6230055,20454.19152275,20455.968222833,1,0.686842791001254
111,29,6,categorization,0,kitchen,SHINEd_sun_aunzlwrbjumxhwdj.tif,103,0.0666666666666667,0.0666666666666667,0.766666666666667,20455.986596958,20456.735694125,9,20456.053439833,20456.120076042,20456.760237417,20457.520241125,1,0.74909716700131
111,30,6,categorization,0,bathroom,SHINEd_sun_aapitsgbtktqubfy.tif,12,0.0666666666666667,0.0666666666666667,1.45,20457.5261255,20458.058635458,9,20457.587914208,20457.648793667,20458.067315167,20459.5106905,0,0.532509958000446
111,31,6,categorization,0,kitchen,SHINEd_sun_aenotlpyftoioydp.tif,82,0.0666666666666667,0.0666666666666667,0.75,20459.527772792,20460.174542208,9,20459.594265417,20459.654970583,20460.194641208,20460.938026583,1,0.646769415998278
111,32,6,categorization,0,kitchen,SHINEd_sun_aaxxjlsuzvqlgylf.tif,68,0.0666666666666667,0.0666666666666667,1.36666666666667,20460.954811083,20461.546648917,9,20461.01995475,20461.087904208,20461.556547208,20462.916580542,1,0.591837833999307
111,33,6,categorization,0,kitchen,SHINEd_sun_aggjlwcdjsjcaemh.tif,86,0.0666666666666667,0.0666666666666667,0.75,20462.934125167,20463.555112583,9,20463.001104208,20463.067499208,20463.573900875,20464.317265625,1,0.620987415997661
111,34,6,categorization,0,kitchen,SHINEd_sun_aamedkxepzlwuxes.tif,65,0.0666666666666667,0.0666666666666667,0.783333333333333,20464.333825875,20464.914267375,9,20464.400913708,20464.467033208,20464.9191415,20465.695812583,1,0.580441499998415
111,35,6,categorization,0,bathroom,SHINEd_sun_asfwthctfqerjvxr.tif,49,0.0666666666666667,0.0666666666666667,1.11666666666667,20465.70052225,20466.314651042,9,20465.762299375,20465.823329917,20466.325027125,20467.435067292,0,0.614128791999974
111,36,6,categorization,0,kitchen,SHINEd_sun_adgqasybjyktddhj.tif,78,0.0666666666666667,0.0666666666666667,0.766666666666667,20467.448987208,20468.090225083,9,20467.513677792,20467.581363083,20468.10336975,20468.863401375,1,0.641237874999206
111,37,6,categorization,0,kitchen,SHINEd_sun_aexklacwqwezaorf.tif,84,0.0666666666666667,0.0666666666666667,0.716666666666667,20468.882665917,20469.514775708,9,20468.949383417,20469.015336375,20469.534656583,20470.244662375,1,0.632109791000403
111,38,6,categorization,0,kitchen,SHINEd_sun_acfmftudsenhrfhy.tif,74,0.0666666666666667,0.0666666666666667,1.33333333333333,20470.250374792,20471.307177833,13,20470.311964792,20470.373146708,20471.324920333,20472.651637792,0,1.05680304100315
111,39,6,categorization,0,kitchen,SHINEd_sun_aegoxogugdkwpmpj.tif,80,0.0666666666666667,0.0666666666666667,1.75,20472.669429042,20473.2673465,9,20472.736148875,20472.802458333,20473.29254575,20475.035935167,1,0.597917458002485
111,40,6,categorization,0,bathroom,SHINEd_sun_apkxzenqapsujocq.tif,45,0.0666666666666667,0.0666666666666667,1.13333333333333,20475.053357208,20475.575034583,13,20475.1198645,20475.18649925,20475.591450042,20476.718163542,1,0.521677374999854
111,41,6,categorization,0,bathroom,SHINEd_sun_aunuadmjocsddsrl.tif,52,0.0666666666666667,0.0666666666666667,1.63333333333333,20476.728147458,20477.196204333,13,20476.794247167,20476.86070175,20477.217205292,20478.843914958,1,0.468056874997274
111,42,6,categorization,0,kitchen,SHINEd_sun_admlmbcdswaszruo.tif,79,0.0666666666666667,0.0666666666666667,1.43333333333333,20478.855371625,20479.4111325,9,20478.923831542,20478.988596792,20479.428379917,20480.855080667,1,0.555760875002306
111,43,6,categorization,0,kitchen,SHINEd_sun_acgtpgfybqjmzeyw.tif,75,0.0666666666666667,0.0666666666666667,1.83333333333333,20480.873551042,20481.514945333,9,20480.936278583,20480.996393208,20481.531422083,20483.358124042,1,0.641394291000324
111,44,6,categorization,0,bathroom,SHINEd_sun_acgyywnybuveqsro.tif,18,0.0666666666666667,0.0666666666666667,1.93333333333333,20483.376569542,20483.884557333,13,20483.443207583,20483.510269958,20483.899403833,20485.826121708,1,0.507987790999323
111,45,6,categorization,0,kitchen,SHINEd_sun_auaiucuqpdausiva.tif,102,0.0666666666666667,0.0666666666666667,1.26666666666667,20485.839893583,20486.365266625,13,20485.906797042,20485.973025375,20486.379005708,20487.639049042,0,0.525373041997227
111,46,6,categorization,0,bathroom,SHINEd_sun_alkosphxlxwjwgjd.tif,34,0.0666666666666667,0.0666666666666667,1.86666666666667,20487.6541725,20488.167333708,13,20487.719656958,20487.785134208,20488.191949667,20490.052002125,1,0.513161208000383
111,47,6,categorization,0,bathroom,SHINEd_sun_agrwbmhcpmfuwmsg.tif,24,0.0666666666666667,0.0666666666666667,1.41666666666667,20490.070305208,20490.711448,9,20490.137613,20490.2035235,20490.726188833,20492.136244125,0,0.6411427919993
111,48,6,categorization,0,kitchen,SHINEd_sun_avszsnwsbuqfgzbn.tif,105,0.0666666666666667,0.0666666666666667,1.11666666666667,20492.15424275,20492.789924458,9,20492.221589417,20492.287452,20492.811265708,20493.92130525,1,0.635681708001357
111,49,6,categorization,0,kitchen,SHINEd_sun_ajkqhtgcbgpcwrwn.tif,97,0.0666666666666667,0.0666666666666667,1.8,20493.932413417,20494.6243005,9,20493.999659708,20494.066050792,20494.638770417,20496.432141208,1,0.691887083001347
111,50,6,categorization,0,bathroom,SHINEd_sun_atstyziqcmkahyxk.tif,51,0.0666666666666667,0.0666666666666667,1.25,20496.450693583,20497.086427417,9,20496.517712208,20496.583723375,20497.107739375,20498.351116833,0,0.635733834002167
111,1,7,categorization,0,bathroom,SHINEd_sun_aspsyogrekjtfozg.tif,50,0.0666666666666667,0.0666666666666667,0.883333333333333,20532.981236708,20533.71428375,9,20533.043619792,20533.104038833,20533.722629042,20534.599299208,0,0.733047041998361
111,2,7,categorization,0,bathroom,SHINEd_sun_aghyqhbptboemmoq.tif,23,0.0666666666666667,0.0666666666666667,1.03333333333333,20534.604893,20535.242594167,13,20534.666522417,20534.728171,20535.246695042,20536.273413792,1,0.637701167001069
111,3,7,categorization,0,bathroom,SHINEd_sun_agyqfjcfkdcydepw.tif,25,0.0666666666666667,0.0666666666666667,1.06666666666667,20536.284902042,20536.930967542,13,20536.349864917,20536.416443542,20536.956660583,20538.016712208,1,0.646065500000987
111,4,7,categorization,0,kitchen,SHINEd_sun_agzzivivdpnawacl.tif,89,0.0666666666666667,0.0666666666666667,0.833333333333333,20538.034624,20538.666696167,9,20538.101432125,20538.167799708,20538.686437375,20539.513108417,1,0.632072167001752
111,5,7,categorization,0,kitchen,SHINEd_sun_aapllqyqlykszopd.tif,66,0.0666666666666667,0.0666666666666667,0.716666666666667,20539.51888775,20540.13827075,9,20539.580519292,20539.641639958,20540.143509625,20540.85351425,1,0.619383000001108
111,6,7,categorization,0,kitchen,SHINEd_sun_aypmqwcualkenuoe.tif,109,0.0666666666666667,0.0666666666666667,0.733333333333333,20540.859226083,20541.410322792,13,20540.920996917,20540.982121542,20541.41728025,20542.143951583,0,0.551096708997648
111,7,7,categorization,0,bathroom,SHINEd_sun_afcoljnjfoxjtgja.tif,20,0.0666666666666667,0.0666666666666667,1.38333333333333,20542.149570917,20542.970309958,13,20542.211190583,20542.272371292,20542.97425875,20544.350965833,1,0.820739040998888
111,8,7,categorization,0,kitchen,SHINEd_sun_aadbddgrdsjugojn.tif,64,0.0666666666666667,0.0666666666666667,0.9,20544.367398917,20545.044654833,9,20544.434218792,20544.500514208,20545.073952,20545.967338167,1,0.677255916001741
111,9,7,categorization,0,bathroom,SHINEd_sun_alotolagknyrgtsk.tif,35,0.0666666666666667,0.0666666666666667,0.816666666666667,20545.983277333,20546.578044958,9,20546.045881,20546.106200292,20546.591239083,20547.401242083,0,0.594767624999804
111,10,7,categorization,0,kitchen,SHINEd_sun_acwjdupvyjsugpay.tif,76,0.0666666666666667,0.0666666666666667,0.85,20547.406955417,20547.962203792,13,20547.468542042,20547.529643167,20547.981694875,20548.825031375,0,0.55524837500343
111,11,7,categorization,0,bathroom,SHINEd_sun_awnqiikzaispgmwo.tif,56,0.0666666666666667,0.0666666666666667,1.6,20548.830700792,20549.370863292,13,20548.892397458,20548.953458542,20549.3885545,20550.981921208,1,0.540162499997678
111,12,7,categorization,0,kitchen,SHINEd_sun_ahywdevtimnqcsln.tif,94,0.0666666666666667,0.0666666666666667,1.75,20551.000334,20551.5728765,9,20551.067157125,20551.130864083,20551.586881417,20553.330272375,1,0.572542499998235
111,13,7,categorization,0,bathroom,SHINEd_sun_apmqjbnwghzuhhzh.tif,46,0.0666666666666667,0.0666666666666667,1.1,20553.350742167,20554.090390833,13,20553.417985583,20553.483969917,20554.106808208,20555.200181375,1,0.739648665999994
111,14,7,categorization,0,kitchen,SHINEd_sun_abrcnpqqhmjwekyf.tif,73,0.0666666666666667,0.0666666666666667,1.46666666666667,20555.210419125,20555.964662,9,20555.27562275,20555.343693042,20555.983614,20557.44365525,1,0.754242874998454
111,15,7,categorization,0,bathroom,SHINEd_sun_apkxzenqapsujocq.tif,45,0.0666666666666667,0.0666666666666667,1.25,20557.462309833,20558.062491542,13,20557.529948292,20557.595601875,20558.086000042,20559.329364417,1,0.600181709000026
111,16,7,categorization,0,kitchen,SHINEd_labelme_kxvouciolcpqplr.tif,62,0.0666666666666667,0.0666666666666667,1.13333333333333,20559.347238167,20560.097966167,9,20559.409116583,20559.470057208,20560.105249708,20561.231963542,1,0.750727999999071
111,17,7,categorization,0,bathroom,SHINEd_sun_apynckhmoftszqoq.tif,47,0.0666666666666667,0.0666666666666667,1.33333333333333,20561.241064542,20561.842739667,9,20561.305457083,20561.374810208,20561.864432792,20563.191132208,0,0.601675125002657
111,18,7,categorization,0,bathroom,SHINEd_sun_atstyziqcmkahyxk.tif,51,0.0666666666666667,0.0666666666666667,1.86666666666667,20563.208877333,20563.944445333,13,20563.276958792,20563.341870417,20563.965264583,20565.825318708,1,0.735568000000058
111,19,7,categorization,0,bathroom,SHINEd_sun_ahijqszoswveeyji.tif,28,0.0666666666666667,0.0666666666666667,1.58333333333333,20565.844295042,20566.828637583,13,20565.911086583,20565.977921167,20566.851743875,20568.428456375,1,0.984342540999933
111,20,7,categorization,0,kitchen,SHINEd_sun_avszsnwsbuqfgzbn.tif,105,0.0666666666666667,0.0666666666666667,1.05,20568.448743458,20569.010676375,9,20568.5159685,20568.582164375,20569.039061083,20570.082449208,1,0.561932917000377
111,21,7,categorization,0,bathroom,SHINEd_sun_apkruvsevgegsdwp.tif,44,0.0666666666666667,0.0666666666666667,0.9,20570.097788542,20570.730927083,13,20570.162869208,20570.229598583,20570.753580083,20571.64694325,1,0.633138541001244
111,22,7,categorization,0,kitchen,SHINEd_sun_aeqdocilnnpuvuhx.tif,83,0.0666666666666667,0.0666666666666667,0.7,20571.657892542,20572.43452425,9,20571.722971792,20571.790201083,20572.442487708,20573.135824708,1,0.776631707998604
111,23,7,categorization,0,bathroom,SHINEd_sun_ahqjwnzgolcaoidx.tif,29,0.0666666666666667,0.0666666666666667,0.933333333333333,20573.141506458,20573.714233917,13,20573.203161042,20573.2642435,20573.732708292,20574.659378417,1,0.572727458998997
111,24,7,categorization,0,kitchen,SHINEd_sun_akchetnepxlcxhsu.tif,98,0.0666666666666667,0.0666666666666667,1.95,20574.665082167,20575.521925417,9,20574.726700708,20574.787776333,20575.539468,20577.482839917,1,0.856843249999656
111,25,7,categorization,0,kitchen,SHINEd_sun_awcpdzzznmweyyhv.tif,106,0.0666666666666667,0.0666666666666667,1.06666666666667,20577.502967125,20578.092861042,9,20577.569940958,20577.636514,20578.10864275,20579.168694458,1,0.589893917000154
111,26,7,categorization,0,kitchen,SHINEd_labelme_brsyyvweiuaazfr.tif,61,0.0666666666666667,0.0666666666666667,1.2,20579.181035083,20580.020541667,13,20579.246432125,20579.312252,20580.035100417,20581.228469958,0,0.839506584001356
111,27,7,categorization,0,kitchen,SHINEd_sun_axyyrmzcupyhlivc.tif,107,0.0666666666666667,0.0666666666666667,0.75,20581.240395042,20582.250749958,9,20581.303135208,20581.363195542,20582.26504225,20583.0083815,1,1.0103549159976
111,28,7,categorization,0,bathroom,SHINEd_sun_acegryoqftbzowsg.tif,17,0.0666666666666667,0.0666666666666667,0.816666666666667,20583.01399475,20583.642400583,9,20583.07573775,20583.136774292,20583.655225208,20584.465230125,0,0.628405833002034
111,29,7,categorization,0,bathroom,SHINEd_sun_agrwbmhcpmfuwmsg.tif,24,0.0666666666666667,0.0666666666666667,1.96666666666667,20584.470786875,20585.31402125,9,20584.53251175,20584.59371575,20585.328992542,20587.289032917,0,0.843234374999156
111,30,7,categorization,0,kitchen,SHINEd_sun_aqeaevwwwjoqhzvl.tif,101,0.0666666666666667,0.0666666666666667,1.2,20587.305612125,20588.023585042,9,20587.374429583,20587.439032125,20588.046168917,20589.239552125,1,0.717972916998406
111,31,7,categorization,0,kitchen,SHINEd_sun_admlmbcdswaszruo.tif,79,0.0666666666666667,0.0666666666666667,0.883333333333333,20589.254707208,20589.815312583,9,20589.322731417,20589.388053,20589.845245375,20590.721959083,1,0.560605374997976
111,32,7,categorization,0,bathroom,SHINEd_sun_apjevzvycyhuqghb.tif,43,0.0666666666666667,0.0666666666666667,1.33333333333333,20590.738354958,20591.306123417,9,20590.80517175,20590.871569958,20591.323650208,20592.650347875,0,0.567768459000945
111,33,7,categorization,0,bathroom,SHINEd_sun_apeeialkgkuxddgh.tif,42,0.0666666666666667,0.0666666666666667,1.45,20592.667419833,20593.192478167,13,20592.734251458,20592.800970417,20593.206604375,20594.649981667,1,0.525058333998459
111,34,7,categorization,0,bathroom,SHINEd_sun_asfwthctfqerjvxr.tif,49,0.0666666666666667,0.0666666666666667,1.15,20594.667896708,20595.229176125,9,20594.734689292,20594.801144125,20595.258060417,20596.401429208,0,0.56127941700106
111,35,7,categorization,0,bathroom,SHINEd_sun_aapitsgbtktqubfy.tif,12,0.0666666666666667,0.0666666666666667,0.966666666666667,20596.419593542,20596.985860417,13,20596.482505,20596.542498958,20596.994289708,20597.954292833,1,0.56626687500102
111,36,7,categorization,0,kitchen,SHINEd_sun_auaiucuqpdausiva.tif,102,0.0666666666666667,0.0666666666666667,1.45,20597.959796292,20598.697783792,9,20598.021496667,20598.082557667,20598.700795125,20600.1441665,1,0.737987499996962
111,37,7,categorization,0,kitchen,SHINEd_sun_azmutvzbxypaceni.tif,110,0.0666666666666667,0.0666666666666667,0.8,20600.161663208,20600.810849583,9,20600.228893875,20600.294906042,20600.835099417,20601.628481958,1,0.649186374997953
111,38,7,categorization,0,bathroom,SHINEd_sun_agguqiubmwhqqunb.tif,22,0.0666666666666667,0.0666666666666667,1.45,20601.644797,20602.346527958,13,20601.709993875,20601.769848083,20602.3549075,20603.798283042,1,0.701730958000553
111,39,7,categorization,0,bathroom,SHINEd_sun_amzlamotzwfkwjco.tif,37,0.0666666666666667,0.0666666666666667,1.1,20603.813985583,20604.515347042,13,20603.880831292,20603.947008,20604.536868542,20605.630245375,1,0.7013614589996
111,40,7,categorization,0,kitchen,SHINEd_sun_aymvwlarqodbwuoc.tif,108,0.0666666666666667,0.0666666666666667,1.16666666666667,20605.640253792,20606.250822833,9,20605.705075542,20605.772241292,20606.278784958,20607.438837792,1,0.610569041000417
111,41,7,categorization,0,bathroom,SHINEd_labelme_sfxiulhjbhlyiyt.tif,11,0.0666666666666667,0.0666666666666667,1.31666666666667,20607.456480375,20608.082296292,13,20607.52369425,20607.58195175,20608.100406667,20609.41043975,1,0.625815916999272
111,42,7,categorization,0,bathroom,SHINEd_sun_aofnryafpsjimzsb.tif,40,0.0666666666666667,0.0666666666666667,1.68333333333333,20609.428141417,20610.21619,13,20609.496323042,20609.561339083,20610.234360042,20611.911069375,1,0.788048582999181
111,43,7,categorization,0,kitchen,SHINEd_sun_ahspylgoovwmwvgk.tif,93,0.0666666666666667,0.0666666666666667,0.966666666666667,20611.92813275,20612.543814042,9,20611.994632708,20612.061398208,20612.567984042,20613.5279895,1,0.615681292001682
111,44,7,categorization,0,bathroom,SHINEd_sun_acduarbnmmoglmiv.tif,16,0.0666666666666667,0.0666666666666667,1.4,20613.533876333,20614.217579333,13,20613.595602625,20613.656618792,20614.225200458,20615.618577917,1,0.683702999998786
111,45,7,categorization,0,bathroom,SHINEd_sun_aclfzgynxzxlbepz.tif,19,0.0666666666666667,0.0666666666666667,0.783333333333333,20615.635661375,20616.231606333,13,20615.700626708,20615.767181917,20616.2571705,20617.033868542,1,0.595944958000473
111,46,7,categorization,0,bathroom,SHINEd_sun_aoybiabnpadelefl.tif,41,0.0666666666666667,0.0666666666666667,1.08333333333333,20617.049759,20618.162178125,13,20617.116168833,20617.183241708,20618.169022583,20619.245746333,1,1.11241912499827
111,47,7,categorization,0,kitchen,SHINEd_sun_aegoxogugdkwpmpj.tif,80,0.0666666666666667,0.0666666666666667,1.43333333333333,20619.257441833,20619.892936958,9,20619.322115208,20619.388211708,20619.9105925,20621.337301875,1,0.635495124999579
111,48,7,categorization,0,bathroom,SHINEd_sun_abapwbhyhkfixyex.tif,14,0.0666666666666667,0.0666666666666667,1.75,20621.353920167,20622.030806292,9,20621.422257167,20621.486787292,20622.059354417,20623.80274025,0,0.676886125002056
111,49,7,categorization,0,kitchen,SHINEd_sun_ajcbwwvdlsvjyzje.tif,96,0.0666666666666667,0.0666666666666667,1.21666666666667,20623.819867292,20624.538614958,13,20623.886767125,20623.953171875,20624.559825917,20625.769866917,0,0.718747666000127
111,50,7,categorization,0,bathroom,SHINEd_sun_auzqhkafidnkrwmo.tif,54,0.0666666666666667,0.0666666666666667,1.31666666666667,20625.781301417,20626.802821625,13,20625.849760208,20625.914461458,20626.820970792,20628.13100325,1,1.02152020799986
111,1,8,categorization,0,kitchen,SHINEd_sun_aehawpgmrlhlvcow.tif,81,0.0666666666666667,0.0666666666666667,1.18333333333333,20637.998100625,20638.809550292,9,20638.060469,20638.120876,20638.822755833,20639.9994765,1,0.811449667002307
111,2,8,categorization,0,bathroom,SHINEd_sun_ajlawzvmubibwbpy.tif,30,0.0666666666666667,0.0666666666666667,0.983333333333333,20640.009698542,20640.745613833,9,20640.077606917,20640.142899542,20640.766017542,20641.742721583,0,0.735915291003039
111,3,8,categorization,0,kitchen,SHINEd_sun_acgtpgfybqjmzeyw.tif,75,0.0666666666666667,0.0666666666666667,1.65,20641.752247333,20642.345476958,13,20641.819379917,20641.885754958,20642.354266542,20643.997634458,0,0.593229624999367
111,4,8,categorization,0,bathroom,SHINEd_sun_akiytfaagpdsphgz.tif,31,0.0666666666666667,0.0666666666666667,1.23333333333333,20644.015563292,20644.675462417,9,20644.082200542,20644.149092542,20644.705770042,20645.932478833,0,0.659899124999356
111,5,8,categorization,0,kitchen,SHINEd_sun_akcjzhbbjlbogpdi.tif,99,0.0666666666666667,0.0666666666666667,0.916666666666667,20645.95020975,20646.586865792,9,20646.017028708,20646.083325375,20646.606326375,20647.5163605,1,0.636656041999231
111,6,8,categorization,0,kitchen,SHINEd_sun_amjjdeyrggfqgmom.tif,100,0.0666666666666667,0.0666666666666667,1.56666666666667,20647.532491792,20648.154061333,9,20647.599302458,20647.663646625,20648.165606833,20649.725637917,1,0.621569540999189
111,7,8,categorization,0,bathroom,SHINEd_sun_ambriybtogmepttm.tif,36,0.0666666666666667,0.0666666666666667,1.63333333333333,20649.733828708,20650.365542875,13,20649.798987625,20649.8684735,20650.392193958,20652.01891225,1,0.631714167000609
111,8,8,categorization,0,bathroom,SHINEd_sun_aqrpegblszgcoujh.tif,48,0.0666666666666667,0.0666666666666667,1.1,20652.036688708,20652.66575425,13,20652.104482417,20652.169998042,20652.693739625,20653.787128208,1,0.629065541997988
111,9,8,categorization,0,kitchen,SHINEd_sun_aaxxjlsuzvqlgylf.tif,68,0.0666666666666667,0.0666666666666667,1.38333333333333,20653.800018708,20654.687304083,9,20653.866059167,20653.933156208,20654.706621583,20656.083341167,1,0.887285374999919
111,10,8,categorization,0,bathroom,SHINEd_sun_axyrejkiiaqiurjk.tif,59,0.0666666666666667,0.0666666666666667,0.766666666666667,20656.102819583,20656.858763667,9,20656.169924208,20656.236740792,20656.876761292,20657.636801458,0,0.755944084001385
111,11,8,categorization,0,bathroom,SHINEd_sun_avhrdrntsqrjzccq.tif,55,0.0666666666666667,0.0666666666666667,1.45,20657.652069625,20658.378088667,13,20657.717084,20657.783798292,20658.386008542,20659.829390375,1,0.72601904199837
111,12,8,categorization,0,bathroom,SHINEd_sun_axldvoqbuvuggfmq.tif,57,0.0666666666666667,0.0666666666666667,0.983333333333333,20659.84966575,20660.45457975,13,20659.916239042,20659.9829845,20660.473112083,20661.449822792,1,0.604913999999553
111,13,8,categorization,0,bathroom,SHINEd_sun_aunuadmjocsddsrl.tif,52,0.0666666666666667,0.0666666666666667,0.716666666666667,20661.464264042,20662.170309167,13,20661.526913667,20661.587028167,20662.188914417,20662.898920125,1,0.706045124999946
111,14,8,categorization,0,kitchen,SHINEd_sun_aarfiyshqohlwkmo.tif,67,0.0666666666666667,0.0666666666666667,1.41666666666667,20662.904528,20663.497705333,9,20662.966170042,20663.02717475,20663.512196375,20664.922232958,1,0.593177333001222
111,15,8,categorization,0,bathroom,SHINEd_sun_anhioqovhscjqqwb.tif,38,0.0666666666666667,0.0666666666666667,1.21666666666667,20664.938939667,20665.494658833,13,20665.006613083,20665.071952833,20665.511184625,20666.721226167,1,0.555719165997289
111,16,8,categorization,0,kitchen,SHINEd_sun_abdxkyyxwfskuaqb.tif,70,0.0666666666666667,0.0666666666666667,1.61666666666667,20666.737390542,20667.287341958,9,20666.805701208,20666.870447458,20667.310215667,20668.920268583,1,0.549951416000113
111,17,8,categorization,0,bathroom,SHINEd_sun_anryaplzeujmzfkd.tif,39,0.0666666666666667,0.0666666666666667,0.783333333333333,20668.937165542,20669.599984167,9,20669.006175667,20669.070389958,20669.627304292,20670.404022333,0,0.662818624998181
111,18,8,categorization,0,bathroom,SHINEd_sun_ausgutylgojavyoq.tif,53,0.0666666666666667,0.0666666666666667,1.98333333333333,20670.421283042,20671.058097125,13,20670.488224417,20670.554330958,20671.073138667,20673.049851625,1,0.636814082998171
111,19,8,categorization,0,kitchen,SHINEd_sun_ajkqhtgcbgpcwrwn.tif,97,0.0666666666666667,0.0666666666666667,0.983333333333333,20673.067658,20674.0108435,13,20673.134739958,20673.201312375,20674.041413417,20675.018085375,0,0.943185500000254
111,20,8,categorization,0,bathroom,SHINEd_sun_ahaulkltgpkeeemi.tif,26,0.0666666666666667,0.0666666666666667,0.8,20675.023945125,20675.642343208,13,20675.085727708,20675.146950958,20675.648717167,20676.4420545,1,0.618398082999192
111,21,8,categorization,0,bathroom,SHINEd_sun_abjtwfukuwddzted.tif,15,0.0666666666666667,0.0666666666666667,0.733333333333333,20676.447539417,20677.273920833,13,20676.50915525,20676.570233833,20677.28869975,20678.015371375,1,0.826381415998185
111,22,8,categorization,0,kitchen,SHINEd_sun_aunzlwrbjumxhwdj.tif,103,0.0666666666666667,0.0666666666666667,0.966666666666667,20678.021051958,20678.825581667,9,20678.082782292,20678.143813417,20678.828845583,20679.78884975,1,0.804529708999326
111,23,8,categorization,0,kitchen,SHINEd_sun_aggjlwcdjsjcaemh.tif,86,0.0666666666666667,0.0666666666666667,0.866666666666667,20679.795786542,20680.361868708,9,20679.857634583,20679.91855575,20680.370280167,20681.230283417,1,0.566082166002161
111,24,8,categorization,0,bathroom,SHINEd_sun_acgyywnybuveqsro.tif,18,0.0666666666666667,0.0666666666666667,1.23333333333333,20681.2360025,20681.7696795,13,20681.297726375,20681.358731833,20681.777257375,20683.003956792,1,0.533676999999443
111,25,8,categorization,0,kitchen,SHINEd_sun_aixorpehvfykdynp.tif,95,0.0666666666666667,0.0666666666666667,1.9,20683.02066175,20683.891182792,13,20683.08729975,20683.152266458,20683.908628958,20685.802003,0,0.870521041997563
111,26,8,categorization,0,kitchen,SHINEd_sun_aenotlpyftoioydp.tif,82,0.0666666666666667,0.0666666666666667,0.866666666666667,20685.819068292,20686.348573417,9,20685.886105083,20685.952004583,20686.375214333,20687.235219958,1,0.529505124999559
111,27,8,categorization,0,kitchen,SHINEd_sun_aamedkxepzlwuxes.tif,65,0.0666666666666667,0.0666666666666667,0.966666666666667,20687.240786125,20687.769853,9,20687.302407667,20687.363737042,20687.782186208,20688.742192,1,0.529066875002172
111,28,8,categorization,0,kitchen,SHINEd_sun_afuyedyxivkhecmu.tif,85,0.0666666666666667,0.0666666666666667,0.916666666666667,20688.747881292,20689.77034225,9,20688.809653292,20688.870568417,20689.78901625,20690.699021625,1,1.02246095800001
111,29,8,categorization,0,bathroom,SHINEd_sun_aavhrsfjbserjtht.tif,13,0.0666666666666667,0.0666666666666667,0.916666666666667,20690.704649458,20691.210143375,9,20690.766414958,20690.827174917,20691.228885875,20692.13889175,0,0.505493917000422
111,30,8,categorization,0,kitchen,SHINEd_sun_acxkpeoqbwcxfvip.tif,77,0.0666666666666667,0.0666666666666667,1.4,20692.145796375,20692.889737,9,20692.207540583,20692.26855425,20692.903744208,20694.297108292,1,0.743940625001414
111,31,8,categorization,0,kitchen,SHINEd_sun_acfmftudsenhrfhy.tif,74,0.0666666666666667,0.0666666666666667,1.75,20694.315677625,20695.037747042,13,20694.382680833,20694.448863625,20695.05359775,20696.796982917,0,0.722069416999148
111,32,8,categorization,0,kitchen,SHINEd_sun_abdenxonkemggwsq.tif,69,0.0666666666666667,0.0666666666666667,1.25,20696.817184667,20697.531838833,9,20696.884819167,20696.950222875,20697.558051958,20698.801432042,1,0.7146541660004
111,33,8,categorization,0,bathroom,SHINEd_sun_axxbkopsgyouuebh.tif,58,0.0666666666666667,0.0666666666666667,1.05,20698.820096042,20699.359588083,13,20698.8877165,20698.955053792,20699.378339333,20700.421741667,1,0.539492040999903
111,34,8,categorization,0,kitchen,SHINEd_sun_abftihopvusyfakt.tif,71,0.0666666666666667,0.0666666666666667,1.06666666666667,20700.438954417,20701.041370083,9,20700.506256292,20700.572310125,20701.057685833,20702.117736125,1,0.602415665998706
111,35,8,categorization,0,bathroom,SHINEd_sun_ahcvzmoyaycdoftf.tif,27,0.0666666666666667,0.0666666666666667,1.21666666666667,20702.129631667,20702.68915225,13,20702.194784208,20702.260745542,20702.717619583,20703.927667958,1,0.559520582999539
111,36,8,categorization,0,kitchen,SHINEd_sun_ahdycvpopffkzzsu.tif,90,0.0666666666666667,0.0666666666666667,0.95,20703.941822083,20704.490232667,9,20704.008822458,20704.076363667,20704.494910042,20705.438248042,1,0.548410584000521
111,37,8,categorization,0,kitchen,SHINEd_sun_agorklincwxrdtga.tif,87,0.0666666666666667,0.0666666666666667,0.9,20705.445161458,20705.898200667,13,20705.506922208,20705.567996958,20705.903182042,20706.796521208,0,0.453039209001872
111,38,8,categorization,0,bathroom,SHINEd_sun_azqyogdvyhahyram.tif,60,0.0666666666666667,0.0666666666666667,1.78333333333333,20706.801364542,20707.337518917,13,20706.862956333,20706.924137208,20707.34246325,20709.119176,1,0.536154375000478
111,39,8,categorization,0,kitchen,SHINEd_sun_aexklacwqwezaorf.tif,84,0.0666666666666667,0.0666666666666667,1.16666666666667,20709.136511625,20709.773460083,9,20709.203404208,20709.269671083,20709.791629458,20710.9516835,1,0.636948457999097
111,40,8,categorization,0,bathroom,SHINEd_sun_aleqenyvunhactkl.tif,32,0.0666666666666667,0.0666666666666667,0.783333333333333,20710.963381083,20711.449695417,13,20711.030381375,20711.096186667,20711.469205208,20712.245902167,1,0.486314334000781
111,41,8,categorization,0,bathroom,SHINEd_sun_aggnnqpdorgxpvce.tif,21,0.0666666666666667,0.0666666666666667,1.23333333333333,20712.263457583,20713.009924292,9,20712.33017675,20712.396635042,20713.01568375,20714.242381125,0,0.746466708998923
111,42,8,categorization,0,kitchen,SHINEd_sun_auticobqsbwgoppi.tif,104,0.0666666666666667,0.0666666666666667,0.9,20714.259430958,20715.045605958,9,20714.327701625,20714.392604917,20715.066180542,20715.959571,1,0.786174999997456
111,43,8,categorization,0,bathroom,SHINEd_sun_aljolscmmzydegqp.tif,33,0.0666666666666667,0.0666666666666667,0.7,20715.976209292,20716.577241333,9,20716.04283025,20716.101153667,20716.586390458,20717.279727583,0,0.601032041002327
111,44,8,categorization,0,bathroom,SHINEd_sun_alkosphxlxwjwgjd.tif,34,0.0666666666666667,0.0666666666666667,1.23333333333333,20717.285500667,20717.993898625,13,20717.347160208,20717.408169958,20718.010200458,20719.236906542,1,0.708397958002024
111,45,8,categorization,0,kitchen,SHINEd_sun_ahpczsiumwwocjkv.tif,92,0.0666666666666667,0.0666666666666667,1,20719.254915708,20719.887385625,9,20719.323419875,20719.388120542,20719.9114275,20720.904815833,1,0.63246991699998
111,46,8,categorization,0,kitchen,SHINEd_sun_abpwyqmlzafvklqo.tif,72,0.0666666666666667,0.0666666666666667,1.38333333333333,20720.921224333,20721.6897525,9,20720.987997833,20721.054008292,20721.705674042,20723.082381667,1,0.768528166998294
111,47,8,categorization,0,kitchen,SHINEd_sun_adgqasybjyktddhj.tif,78,0.0666666666666667,0.0666666666666667,1.3,20723.097552542,20724.062740792,13,20723.165889125,20723.230315875,20724.086816583,20725.380195917,0,0.96518825000021
111,48,8,categorization,0,kitchen,SHINEd_sun_agubuxuukhzyzpdp.tif,88,0.0666666666666667,0.0666666666666667,0.833333333333333,20725.397117708,20726.506805667,9,20725.463748542,20725.530131292,20726.51827825,20727.344948958,1,1.10968795900044
111,49,8,categorization,0,kitchen,SHINEd_labelme_rykdqxenmhulbdn.tif,63,0.0666666666666667,0.0666666666666667,0.95,20727.350820417,20728.001332583,9,20727.412486875,20727.47363425,20728.008741167,20728.95207875,1,0.650512166001135
111,50,8,categorization,0,kitchen,SHINEd_sun_ahljzhgcdpomplvg.tif,91,0.0666666666666667,0.0666666666666667,1.43333333333333,20728.957485208,20729.809486667,9,20729.019321833,20729.08021375,20729.815320792,20731.242021167,1,0.852001458999439
111,1,9,categorization,0,bathroom,SHINEd_sun_asfwthctfqerjvxr.tif,49,0.0666666666666667,0.0666666666666667,1.08333333333333,20750.126633792,20750.913963417,9,20750.189352333,20750.249471833,20750.917976583,20751.994682375,0,0.787329624999984
111,2,9,categorization,0,bathroom,SHINEd_sun_atstyziqcmkahyxk.tif,51,0.0666666666666667,0.0666666666666667,0.8,20752.004453167,20752.537923917,13,20752.069708458,20752.137704792,20752.561245958,20753.354618833,1,0.533470750000561
111,3,9,categorization,0,kitchen,SHINEd_sun_aamedkxepzlwuxes.tif,65,0.0666666666666667,0.0666666666666667,0.833333333333333,20753.370750333,20753.972158417,9,20753.438078583,20753.504061917,20753.994169708,20754.820840417,1,0.601408083999559
111,4,9,categorization,0,bathroom,SHINEd_sun_aofnryafpsjimzsb.tif,40,0.0666666666666667,0.0666666666666667,1.45,20754.826306458,20755.521394458,13,20754.887963625,20754.94899,20755.534139375,20756.977508125,1,0.695088000000396
111,5,9,categorization,0,bathroom,SHINEd_sun_aghyqhbptboemmoq.tif,23,0.0666666666666667,0.0666666666666667,1.3,20756.999636458,20757.692012208,13,20757.066209625,20757.132668625,20757.703427667,20758.996816417,1,0.692375750000792
111,6,9,categorization,0,bathroom,SHINEd_sun_azqyogdvyhahyram.tif,60,0.0666666666666667,0.0666666666666667,1.21666666666667,20759.014866625,20759.552915667,13,20759.081660125,20759.148245875,20759.570912292,20760.780951833,1,0.538049042002967
111,7,9,categorization,0,kitchen,SHINEd_sun_aunzlwrbjumxhwdj.tif,103,0.0666666666666667,0.0666666666666667,0.733333333333333,20760.799346625,20761.553339875,9,20760.861976417,20760.922223292,20761.557321417,20762.283993708,1,0.753993250000349
111,8,9,categorization,0,kitchen,SHINEd_sun_ahspylgoovwmwvgk.tif,93,0.0666666666666667,0.0666666666666667,1.03333333333333,20762.288864458,20762.898007958,9,20762.350579958,20762.41162,20762.913468917,20763.940167208,1,0.609143499998027
111,9,9,categorization,0,bathroom,SHINEd_sun_aggnnqpdorgxpvce.tif,21,0.0666666666666667,0.0666666666666667,1.1,20763.948720625,20764.652081958,9,20764.013733917,20764.08063725,20764.67005175,20765.763435042,0,0.703361332998611
111,10,9,categorization,0,kitchen,SHINEd_sun_aypmqwcualkenuoe.tif,109,0.0666666666666667,0.0666666666666667,1.25,20765.774056833,20766.337142792,13,20765.84219125,20765.906780583,20766.342050042,20767.585431625,0,0.563085958998272
111,11,9,categorization,0,bathroom,SHINEd_sun_axyrejkiiaqiurjk.tif,59,0.0666666666666667,0.0666666666666667,1.4,20767.601367458,20768.282303917,13,20767.665900292,20767.733194083,20768.30680825,20769.700172083,1,0.680936459000804
