sub_num,trial,block,task,is_practice,category,image,texture,duration,mask_dur,jitter,stim_time,time_of_resp,trial_response,mask_time,fix_time,jit_onset,trial_end,trial_accuracy,RT
111,1,6,categorization,0,bathroom,SHINEd_sun_abjtwfukuwddzted.tif,15,0.0666666666666667,0.0666666666666667,0.966666666666667,20401.949133458,20402.611045375,13,20402.011962083,20402.071963125,20402.62376525,20403.583770417,1,0.661911916999088
111,2,6,categorization,0,bathroom,SHINEd_sun_ajlawzvmubibwbpy.tif,30,0.0666666666666667,0.0666666666666667,1.73333333333333,20403.5890675,20404.115331333,9,20403.650692417,20403.711830167,20404.130353,20405.85705375,0,0.526263832998666
111,3,6,categorization,0,bathroom,SHINEd_sun_ahijqszoswveeyji.tif,28,0.0666666666666667,0.0666666666666667,1.91666666666667,20405.874004375,20406.508124417,9,20405.942369958,20406.006432792,20406.529468625,20408.439503958,0,0.634120041999267
111,4,6,categorization,0,kitchen,SHINEd_sun_aqeaevwwwjoqhzvl.tif,101,0.0666666666666667,0.0666666666666667,0.766666666666667,20408.456651042,20408.9722435,9,20408.525361958,20408.588910708,20408.996209,20409.7562125,1,0.515592457999446
111,5,6,categorization,0,kitchen,SHINEd_sun_aapllqyqlykszopd.tif,66,0.0666666666666667,0.0666666666666667,0.916666666666667,20409.761224458,20410.39480575,9,20409.823033875,20409.88396675,20410.40242125,20411.312426292,1,0.633581291996961
111,6,6,categorization,0,bathroom,SHINEd_sun_apmqjbnwghzuhhzh.tif,46,0.0666666666666667,0.0666666666666667,1.18333333333333,20411.317984917,20411.738619083,9,20411.379642875,20411.440593375,20411.742307458,20412.919016208,0,0.420634165999218
111,7,6,categorization,0,bathroom,SHINEd_sun_afcoljnjfoxjtgja.tif,20,0.0666666666666667,0.0666666666666667,1.8,20412.928589208,20413.900387042,9,20412.996341542,20413.061457625,20413.9179175,20415.711289,0,0.971797833997698
111,8,6,categorization,0,kitchen,SHINEd_sun_ajcbwwvdlsvjyzje.tif,96,0.0666666666666667,0.0666666666666667,0.883333333333333,20415.720463083,20416.306492958,13,20415.786479833,20415.853273042,20416.32616425,20417.202836458,0,0.586029875001259
111,9,6,categorization,0,kitchen,SHINEd_sun_aypmqwcualkenuoe.tif,109,0.0666666666666667,0.0666666666666667,1.83333333333333,20417.208667125,20417.683169708,13,20417.270288667,20417.331401708,20417.699662,20419.526364625,0,0.474502583001595
111,10,6,categorization,0,kitchen,SHINEd_sun_ahpczsiumwwocjkv.tif,92,0.0666666666666667,0.0666666666666667,1.76666666666667,20419.543901917,20420.111842417,9,20419.610118625,20419.674804292,20420.131487833,20421.891521833,1,0.567940500000987
111,11,6,categorization,0,bathroom,SHINEd_sun_acduarbnmmoglmiv.tif,16,0.0666666666666667,0.0666666666666667,0.983333333333333,20421.9046825,20422.621198708,13,20421.971936958,20422.038238833,20422.644943333,20423.62161375,1,0.716516207998211
111,12,6,categorization,0,kitchen,SHINEd_sun_azmutvzbxypaceni.tif,110,0.0666666666666667,0.0666666666666667,0.883333333333333,20423.627219875,20424.315041458,13,20423.688849917,20423.749907583,20424.31835775,20425.195027833,0,0.687821583000186
111,13,6,categorization,0,bathroom,SHINEd_sun_akiytfaagpdsphgz.tif,31,0.0666666666666667,0.0666666666666667,0.85,20425.200845042,20425.755307708,13,20425.26247725,20425.323569458,20425.758806125,20426.602145,1,0.5544626660012
111,14,6,categorization,0,bathroom,SHINEd_sun_alotolagknyrgtsk.tif,35,0.0666666666666667,0.0666666666666667,0.733333333333333,20426.607748458,20427.298418083,9,20426.66947475,20426.730396375,20427.315477708,20428.042149042,0,0.690669625000737
111,15,6,categorization,0,bathroom,SHINEd_sun_ausgutylgojavyoq.tif,53,0.0666666666666667,0.0666666666666667,1.88333333333333,20428.047497667,20428.522773083,13,20428.109144333,20428.170168042,20428.538694792,20430.415395542,1,0.475275415999931
111,16,6,categorization,0,kitchen,SHINEd_labelme_kxvouciolcpqplr.tif,62,0.0666666666666667,0.0666666666666667,0.816666666666667,20430.433969333,20430.970698167,13,20430.500778292,20430.567031708,20430.989925375,20431.7999295,0,0.536728833998495
111,17,6,categorization,0,kitchen,SHINEd_labelme_rykdqxenmhulbdn.tif,63,0.0666666666666667,0.0666666666666667,1.9,20431.805161833,20432.603386083,9,20431.866891083,20431.927975875,20432.613252375,20434.506631375,1,0.798224250000203
111,18,6,categorization,0,kitchen,SHINEd_sun_ahspylgoovwmwvgk.tif,93,0.0666666666666667,0.0666666666666667,0.983333333333333,20434.523640042,20435.055152833,9,20434.590622917,20434.657161542,20435.080297458,20436.056968417,1,0.531512790999841
111,19,6,categorization,0,kitchen,SHINEd_sun_aixorpehvfykdynp.tif,95,0.0666666666666667,0.0666666666666667,0.75,20436.06314225,20436.722237083,9,20436.124838583,20436.185906125,20436.737674667,20437.481011583,1,0.659094832997653
111,20,6,categorization,0,kitchen,SHINEd_sun_abpwyqmlzafvklqo.tif,72,0.0666666666666667,0.0666666666666667,1.6,20437.4868245,20438.019200042,9,20437.54850275,20437.609554042,20438.028012333,20439.621396625,1,0.5323755419995
111,21,6,categorization,0,bathroom,SHINEd_sun_aggnnqpdorgxpvce.tif,21,0.0666666666666667,0.0666666666666667,1.58333333333333,20439.639099333,20440.223668,9,20439.703810708,20439.770246667,20440.243007458,20441.819719792,0,0.584568666999985
111,22,6,categorization,0,kitchen,SHINEd_sun_afuyedyxivkhecmu.tif,85,0.0666666666666667,0.0666666666666667,1.11666666666667,20441.836450542,20442.653834958,9,20441.904503292,20441.969836125,20442.676499917,20443.7865335,1,0.817384416001005
111,23,6,categorization,0,bathroom,SHINEd_sun_aleqenyvunhactkl.tif,32,0.0666666666666667,0.0666666666666667,1.53333333333333,20443.798737083,20444.433953333,13,20443.863980833,20443.932039333,20444.455416458,20445.982126708,1,0.635216249997029
111,24,6,categorization,0,bathroom,SHINEd_sun_anryaplzeujmzfkd.tif,39,0.0666666666666667,0.0666666666666667,1.48333333333333,20446.001315833,20446.762612708,9,20446.068696833,20446.134826375,20446.791781708,20448.268498625,0,0.761296874999971
111,25,6,categorization,0,bathroom,SHINEd_sun_ambriybtogmepttm.tif,36,0.0666666666666667,0.0666666666666667,1.1,20448.286054708,20449.20532425,13,20448.353085625,20448.419050917,20449.226322208,20450.319700333,1,0.919269541998801
111,26,6,categorization,0,kitchen,SHINEd_sun_abdenxonkemggwsq.tif,69,0.0666666666666667,0.0666666666666667,0.933333333333333,20450.332168292,20450.92349325,9,20450.397487375,20450.465636333,20450.938652333,20451.865360042,1,0.591324958000769
111,27,6,categorization,0,bathroom,SHINEd_sun_axyrejkiiaqiurjk.tif,59,0.0666666666666667,0.0666666666666667,0.816666666666667,20451.882462583,20452.675203667,13,20451.94983475,20452.015664542,20452.684388625,20453.494393167,1,0.792741084002046
111,28,6,categorization,0,kitchen,SHINEd_sun_abrcnpqqhmjwekyf.tif,73,0.0666666666666667,0.0666666666666667,1.78333333333333,20453.500161792,20454.187004583,9,20453.561963833,20453.6230055,20454.19152275,20455.968222833,1,0.686842791001254
111,29,6,categorization,0,kitchen,SHINEd_sun_aunzlwrbjumxhwdj.tif,103,0.0666666666666667,0.0666666666666667,0.766666666666667,20455.986596958,20456.735694125,9,20456.053439833,20456.120076042,20456.760237417,20457.520241125,1,0.74909716700131
111,30,6,categorization,0,bathroom,SHINEd_sun_aapitsgbtktqubfy.tif,12,0.0666666666666667,0.0666666666666667,1.45,20457.5261255,20458.058635458,9,20457.587914208,20457.648793667,20458.067315167,20459.5106905,0,0.532509958000446
111,31,6,categorization,0,kitchen,SHINEd_sun_aenotlpyftoioydp.tif,82,0.0666666666666667,0.0666666666666667,0.75,20459.527772792,20460.174542208,9,20459.594265417,20459.654970583,20460.194641208,20460.938026583,1,0.646769415998278
111,32,6,categorization,0,kitchen,SHINEd_sun_aaxxjlsuzvqlgylf.tif,68,0.0666666666666667,0.0666666666666667,1.36666666666667,20460.954811083,20461.546648917,9,20461.01995475,20461.087904208,20461.556547208,20462.916580542,1,0.591837833999307
111,33,6,categorization,0,kitchen,SHINEd_sun_aggjlwcdjsjcaemh.tif,86,0.0666666666666667,0.0666666666666667,0.75,20462.934125167,20463.555112583,9,20463.001104208,20463.067499208,20463.573900875,20464.317265625,1,0.620987415997661
111,34,6,categorization,0,kitchen,SHINEd_sun_aamedkxepzlwuxes.tif,65,0.0666666666666667,0.0666666666666667,0.783333333333333,20464.333825875,20464.914267375,9,20464.400913708,20464.467033208,20464.9191415,20465.695812583,1,0.580441499998415
111,35,6,categorization,0,bathroom,SHINEd_sun_asfwthctfqerjvxr.tif,49,0.0666666666666667,0.0666666666666667,1.11666666666667,20465.70052225,20466.314651042,9,20465.762299375,20465.823329917,20466.325027125,20467.435067292,0,0.614128791999974
111,36,6,categorization,0,kitchen,SHINEd_sun_adgqasybjyktddhj.tif,78,0.0666666666666667,0.0666666666666667,0.766666666666667,20467.448987208,20468.090225083,9,20467.513677792,20467.581363083,20468.10336975,20468.863401375,1,0.641237874999206
111,37,6,categorization,0,kitchen,SHINEd_sun_aexklacwqwezaorf.tif,84,0.0666666666666667,0.0666666666666667,0.716666666666667,20468.882665917,20469.514775708,9,20468.949383417,20469.015336375,20469.534656583,20470.244662375,1,0.632109791000403
111,38,6,categorization,0,kitchen,SHINEd_sun_acfmftudsenhrfhy.tif,74,0.0666666666666667,0.0666666666666667,1.33333333333333,20470.250374792,20471.307177833,13,20470.311964792,20470.373146708,20471.324920333,20472.651637792,0,1.05680304100315
111,39,6,categorization,0,kitchen,SHINEd_sun_aegoxogugdkwpmpj.tif,80,0.0666666666666667,0.0666666666666667,1.75,20472.669429042,20473.2673465,9,20472.736148875,20472.802458333,20473.29254575,20475.035935167,1,0.597917458002485
111,40,6,categorization,0,bathroom,SHINEd_sun_apkxzenqapsujocq.tif,45,0.0666666666666667,0.0666666666666667,1.13333333333333,20475.053357208,20475.575034583,13,20475.1198645,20475.18649925,20475.591450042,20476.718163542,1,0.521677374999854
111,41,6,categorization,0,bathroom,SHINEd_sun_aunuadmjocsddsrl.tif,52,0.0666666666666667,0.0666666666666667,1.63333333333333,20476.728147458,20477.196204333,13,20476.794247167,20476.86070175,20477.217205292,20478.843914958,1,0.468056874997274
111,42,6,categorization,0,kitchen,SHINEd_sun_admlmbcdswaszruo.tif,79,0.0666666666666667,0.0666666666666667,1.43333333333333,20478.855371625,20479.4111325,9,20478.923831542,20478.988596792,20479.428379917,20480.855080667,1,0.555760875002306
111,43,6,categorization,0,kitchen,SHINEd_sun_acgtpgfybqjmzeyw.tif,75,0.0666666666666667,0.0666666666666667,1.83333333333333,20480.873551042,20481.514945333,9,20480.936278583,20480.996393208,20481.531422083,20483.358124042,1,0.641394291000324
111,44,6,categorization,0,bathroom,SHINEd_sun_acgyywnybuveqsro.tif,18,0.0666666666666667,0.0666666666666667,1.93333333333333,20483.376569542,20483.884557333,13,20483.443207583,20483.510269958,20483.899403833,20485.826121708,1,0.507987790999323
111,45,6,categorization,0,kitchen,SHINEd_sun_auaiucuqpdausiva.tif,102,0.0666666666666667,0.0666666666666667,1.26666666666667,20485.839893583,20486.365266625,13,20485.906797042,20485.973025375,20486.379005708,20487.639049042,0,0.525373041997227
111,46,6,categorization,0,bathroom,SHINEd_sun_alkosphxlxwjwgjd.tif,34,0.0666666666666667,0.0666666666666667,1.86666666666667,20487.6541725,20488.167333708,13,20487.719656958,20487.785134208,20488.191949667,20490.052002125,1,0.513161208000383
111,47,6,categorization,0,bathroom,SHINEd_sun_agrwbmhcpmfuwmsg.tif,24,0.0666666666666667,0.0666666666666667,1.41666666666667,20490.070305208,20490.711448,9,20490.137613,20490.2035235,20490.726188833,20492.136244125,0,0.6411427919993
111,48,6,categorization,0,kitchen,SHINEd_sun_avszsnwsbuqfgzbn.tif,105,0.0666666666666667,0.0666666666666667,1.11666666666667,20492.15424275,20492.789924458,9,20492.221589417,20492.287452,20492.811265708,20493.92130525,1,0.635681708001357
111,49,6,categorization,0,kitchen,SHINEd_sun_ajkqhtgcbgpcwrwn.tif,97,0.0666666666666667,0.0666666666666667,1.8,20493.932413417,20494.6243005,9,20493.999659708,20494.066050792,20494.638770417,20496.432141208,1,0.691887083001347
111,50,6,categorization,0,bathroom,SHINEd_sun_atstyziqcmkahyxk.tif,51,0.0666666666666667,0.0666666666666667,1.25,20496.450693583,20497.086427417,9,20496.517712208,20496.583723375,20497.107739375,20498.351116833,0,0.635733834002167
