sub_num,trial,block,task,is_practice,category,image,texture,duration,mask_dur,jitter,stim_time,time_of_resp,trial_response,mask_time,fix_time,jit_onset,trial_end,trial_accuracy,RT
111,1,8,categorization,0,kitchen,SHINEd_sun_aehawpgmrlhlvcow.tif,81,0.0666666666666667,0.0666666666666667,1.18333333333333,20637.998100625,20638.809550292,9,20638.060469,20638.120876,20638.822755833,20639.9994765,1,0.811449667002307
111,2,8,categorization,0,bathroom,SHINEd_sun_ajlawzvmubibwbpy.tif,30,0.0666666666666667,0.0666666666666667,0.983333333333333,20640.009698542,20640.745613833,9,20640.077606917,20640.142899542,20640.766017542,20641.742721583,0,0.735915291003039
111,3,8,categorization,0,kitchen,SHINEd_sun_acgtpgfybqjmzeyw.tif,75,0.0666666666666667,0.0666666666666667,1.65,20641.752247333,20642.345476958,13,20641.819379917,20641.885754958,20642.354266542,20643.997634458,0,0.593229624999367
111,4,8,categorization,0,bathroom,SHINEd_sun_akiytfaagpdsphgz.tif,31,0.0666666666666667,0.0666666666666667,1.23333333333333,20644.015563292,20644.675462417,9,20644.082200542,20644.149092542,20644.705770042,20645.932478833,0,0.659899124999356
111,5,8,categorization,0,kitchen,SHINEd_sun_akcjzhbbjlbogpdi.tif,99,0.0666666666666667,0.0666666666666667,0.916666666666667,20645.95020975,20646.586865792,9,20646.017028708,20646.083325375,20646.606326375,20647.5163605,1,0.636656041999231
111,6,8,categorization,0,kitchen,SHINEd_sun_amjjdeyrggfqgmom.tif,100,0.0666666666666667,0.0666666666666667,1.56666666666667,20647.532491792,20648.154061333,9,20647.599302458,20647.663646625,20648.165606833,20649.725637917,1,0.621569540999189
111,7,8,categorization,0,bathroom,SHINEd_sun_ambriybtogmepttm.tif,36,0.0666666666666667,0.0666666666666667,1.63333333333333,20649.733828708,20650.365542875,13,20649.798987625,20649.8684735,20650.392193958,20652.01891225,1,0.631714167000609
111,8,8,categorization,0,bathroom,SHINEd_sun_aqrpegblszgcoujh.tif,48,0.0666666666666667,0.0666666666666667,1.1,20652.036688708,20652.66575425,13,20652.104482417,20652.169998042,20652.693739625,20653.787128208,1,0.629065541997988
111,9,8,categorization,0,kitchen,SHINEd_sun_aaxxjlsuzvqlgylf.tif,68,0.0666666666666667,0.0666666666666667,1.38333333333333,20653.800018708,20654.687304083,9,20653.866059167,20653.933156208,20654.706621583,20656.083341167,1,0.887285374999919
111,10,8,categorization,0,bathroom,SHINEd_sun_axyrejkiiaqiurjk.tif,59,0.0666666666666667,0.0666666666666667,0.766666666666667,20656.102819583,20656.858763667,9,20656.169924208,20656.236740792,20656.876761292,20657.636801458,0,0.755944084001385
111,11,8,categorization,0,bathroom,SHINEd_sun_avhrdrntsqrjzccq.tif,55,0.0666666666666667,0.0666666666666667,1.45,20657.652069625,20658.378088667,13,20657.717084,20657.783798292,20658.386008542,20659.829390375,1,0.72601904199837
111,12,8,categorization,0,bathroom,SHINEd_sun_axldvoqbuvuggfmq.tif,57,0.0666666666666667,0.0666666666666667,0.983333333333333,20659.84966575,20660.45457975,13,20659.916239042,20659.9829845,20660.473112083,20661.449822792,1,0.604913999999553
111,13,8,categorization,0,bathroom,SHINEd_sun_aunuadmjocsddsrl.tif,52,0.0666666666666667,0.0666666666666667,0.716666666666667,20661.464264042,20662.170309167,13,20661.526913667,20661.587028167,20662.188914417,20662.898920125,1,0.706045124999946
111,14,8,categorization,0,kitchen,SHINEd_sun_aarfiyshqohlwkmo.tif,67,0.0666666666666667,0.0666666666666667,1.41666666666667,20662.904528,20663.497705333,9,20662.966170042,20663.02717475,20663.512196375,20664.922232958,1,0.593177333001222
111,15,8,categorization,0,bathroom,SHINEd_sun_anhioqovhscjqqwb.tif,38,0.0666666666666667,0.0666666666666667,1.21666666666667,20664.938939667,20665.494658833,13,20665.006613083,20665.071952833,20665.511184625,20666.721226167,1,0.555719165997289
111,16,8,categorization,0,kitchen,SHINEd_sun_abdxkyyxwfskuaqb.tif,70,0.0666666666666667,0.0666666666666667,1.61666666666667,20666.737390542,20667.287341958,9,20666.805701208,20666.870447458,20667.310215667,20668.920268583,1,0.549951416000113
111,17,8,categorization,0,bathroom,SHINEd_sun_anryaplzeujmzfkd.tif,39,0.0666666666666667,0.0666666666666667,0.783333333333333,20668.937165542,20669.599984167,9,20669.006175667,20669.070389958,20669.627304292,20670.404022333,0,0.662818624998181
111,18,8,categorization,0,bathroom,SHINEd_sun_ausgutylgojavyoq.tif,53,0.0666666666666667,0.0666666666666667,1.98333333333333,20670.421283042,20671.058097125,13,20670.488224417,20670.554330958,20671.073138667,20673.049851625,1,0.636814082998171
111,19,8,categorization,0,kitchen,SHINEd_sun_ajkqhtgcbgpcwrwn.tif,97,0.0666666666666667,0.0666666666666667,0.983333333333333,20673.067658,20674.0108435,13,20673.134739958,20673.201312375,20674.041413417,20675.018085375,0,0.943185500000254
111,20,8,categorization,0,bathroom,SHINEd_sun_ahaulkltgpkeeemi.tif,26,0.0666666666666667,0.0666666666666667,0.8,20675.023945125,20675.642343208,13,20675.085727708,20675.146950958,20675.648717167,20676.4420545,1,0.618398082999192
111,21,8,categorization,0,bathroom,SHINEd_sun_abjtwfukuwddzted.tif,15,0.0666666666666667,0.0666666666666667,0.733333333333333,20676.447539417,20677.273920833,13,20676.50915525,20676.570233833,20677.28869975,20678.015371375,1,0.826381415998185
111,22,8,categorization,0,kitchen,SHINEd_sun_aunzlwrbjumxhwdj.tif,103,0.0666666666666667,0.0666666666666667,0.966666666666667,20678.021051958,20678.825581667,9,20678.082782292,20678.143813417,20678.828845583,20679.78884975,1,0.804529708999326
111,23,8,categorization,0,kitchen,SHINEd_sun_aggjlwcdjsjcaemh.tif,86,0.0666666666666667,0.0666666666666667,0.866666666666667,20679.795786542,20680.361868708,9,20679.857634583,20679.91855575,20680.370280167,20681.230283417,1,0.566082166002161
111,24,8,categorization,0,bathroom,SHINEd_sun_acgyywnybuveqsro.tif,18,0.0666666666666667,0.0666666666666667,1.23333333333333,20681.2360025,20681.7696795,13,20681.297726375,20681.358731833,20681.777257375,20683.003956792,1,0.533676999999443
111,25,8,categorization,0,kitchen,SHINEd_sun_aixorpehvfykdynp.tif,95,0.0666666666666667,0.0666666666666667,1.9,20683.02066175,20683.891182792,13,20683.08729975,20683.152266458,20683.908628958,20685.802003,0,0.870521041997563
111,26,8,categorization,0,kitchen,SHINEd_sun_aenotlpyftoioydp.tif,82,0.0666666666666667,0.0666666666666667,0.866666666666667,20685.819068292,20686.348573417,9,20685.886105083,20685.952004583,20686.375214333,20687.235219958,1,0.529505124999559
111,27,8,categorization,0,kitchen,SHINEd_sun_aamedkxepzlwuxes.tif,65,0.0666666666666667,0.0666666666666667,0.966666666666667,20687.240786125,20687.769853,9,20687.302407667,20687.363737042,20687.782186208,20688.742192,1,0.529066875002172
111,28,8,categorization,0,kitchen,SHINEd_sun_afuyedyxivkhecmu.tif,85,0.0666666666666667,0.0666666666666667,0.916666666666667,20688.747881292,20689.77034225,9,20688.809653292,20688.870568417,20689.78901625,20690.699021625,1,1.02246095800001
111,29,8,categorization,0,bathroom,SHINEd_sun_aavhrsfjbserjtht.tif,13,0.0666666666666667,0.0666666666666667,0.916666666666667,20690.704649458,20691.210143375,9,20690.766414958,20690.827174917,20691.228885875,20692.13889175,0,0.505493917000422
111,30,8,categorization,0,kitchen,SHINEd_sun_acxkpeoqbwcxfvip.tif,77,0.0666666666666667,0.0666666666666667,1.4,20692.145796375,20692.889737,9,20692.207540583,20692.26855425,20692.903744208,20694.297108292,1,0.743940625001414
111,31,8,categorization,0,kitchen,SHINEd_sun_acfmftudsenhrfhy.tif,74,0.0666666666666667,0.0666666666666667,1.75,20694.315677625,20695.037747042,13,20694.382680833,20694.448863625,20695.05359775,20696.796982917,0,0.722069416999148
111,32,8,categorization,0,kitchen,SHINEd_sun_abdenxonkemggwsq.tif,69,0.0666666666666667,0.0666666666666667,1.25,20696.817184667,20697.531838833,9,20696.884819167,20696.950222875,20697.558051958,20698.801432042,1,0.7146541660004
111,33,8,categorization,0,bathroom,SHINEd_sun_axxbkopsgyouuebh.tif,58,0.0666666666666667,0.0666666666666667,1.05,20698.820096042,20699.359588083,13,20698.8877165,20698.955053792,20699.378339333,20700.421741667,1,0.539492040999903
111,34,8,categorization,0,kitchen,SHINEd_sun_abftihopvusyfakt.tif,71,0.0666666666666667,0.0666666666666667,1.06666666666667,20700.438954417,20701.041370083,9,20700.506256292,20700.572310125,20701.057685833,20702.117736125,1,0.602415665998706
111,35,8,categorization,0,bathroom,SHINEd_sun_ahcvzmoyaycdoftf.tif,27,0.0666666666666667,0.0666666666666667,1.21666666666667,20702.129631667,20702.68915225,13,20702.194784208,20702.260745542,20702.717619583,20703.927667958,1,0.559520582999539
111,36,8,categorization,0,kitchen,SHINEd_sun_ahdycvpopffkzzsu.tif,90,0.0666666666666667,0.0666666666666667,0.95,20703.941822083,20704.490232667,9,20704.008822458,20704.076363667,20704.494910042,20705.438248042,1,0.548410584000521
111,37,8,categorization,0,kitchen,SHINEd_sun_agorklincwxrdtga.tif,87,0.0666666666666667,0.0666666666666667,0.9,20705.445161458,20705.898200667,13,20705.506922208,20705.567996958,20705.903182042,20706.796521208,0,0.453039209001872
111,38,8,categorization,0,bathroom,SHINEd_sun_azqyogdvyhahyram.tif,60,0.0666666666666667,0.0666666666666667,1.78333333333333,20706.801364542,20707.337518917,13,20706.862956333,20706.924137208,20707.34246325,20709.119176,1,0.536154375000478
111,39,8,categorization,0,kitchen,SHINEd_sun_aexklacwqwezaorf.tif,84,0.0666666666666667,0.0666666666666667,1.16666666666667,20709.136511625,20709.773460083,9,20709.203404208,20709.269671083,20709.791629458,20710.9516835,1,0.636948457999097
111,40,8,categorization,0,bathroom,SHINEd_sun_aleqenyvunhactkl.tif,32,0.0666666666666667,0.0666666666666667,0.783333333333333,20710.963381083,20711.449695417,13,20711.030381375,20711.096186667,20711.469205208,20712.245902167,1,0.486314334000781
111,41,8,categorization,0,bathroom,SHINEd_sun_aggnnqpdorgxpvce.tif,21,0.0666666666666667,0.0666666666666667,1.23333333333333,20712.263457583,20713.009924292,9,20712.33017675,20712.396635042,20713.01568375,20714.242381125,0,0.746466708998923
111,42,8,categorization,0,kitchen,SHINEd_sun_auticobqsbwgoppi.tif,104,0.0666666666666667,0.0666666666666667,0.9,20714.259430958,20715.045605958,9,20714.327701625,20714.392604917,20715.066180542,20715.959571,1,0.786174999997456
111,43,8,categorization,0,bathroom,SHINEd_sun_aljolscmmzydegqp.tif,33,0.0666666666666667,0.0666666666666667,0.7,20715.976209292,20716.577241333,9,20716.04283025,20716.101153667,20716.586390458,20717.279727583,0,0.601032041002327
111,44,8,categorization,0,bathroom,SHINEd_sun_alkosphxlxwjwgjd.tif,34,0.0666666666666667,0.0666666666666667,1.23333333333333,20717.285500667,20717.993898625,13,20717.347160208,20717.408169958,20718.010200458,20719.236906542,1,0.708397958002024
111,45,8,categorization,0,kitchen,SHINEd_sun_ahpczsiumwwocjkv.tif,92,0.0666666666666667,0.0666666666666667,1,20719.254915708,20719.887385625,9,20719.323419875,20719.388120542,20719.9114275,20720.904815833,1,0.63246991699998
111,46,8,categorization,0,kitchen,SHINEd_sun_abpwyqmlzafvklqo.tif,72,0.0666666666666667,0.0666666666666667,1.38333333333333,20720.921224333,20721.6897525,9,20720.987997833,20721.054008292,20721.705674042,20723.082381667,1,0.768528166998294
111,47,8,categorization,0,kitchen,SHINEd_sun_adgqasybjyktddhj.tif,78,0.0666666666666667,0.0666666666666667,1.3,20723.097552542,20724.062740792,13,20723.165889125,20723.230315875,20724.086816583,20725.380195917,0,0.96518825000021
111,48,8,categorization,0,kitchen,SHINEd_sun_agubuxuukhzyzpdp.tif,88,0.0666666666666667,0.0666666666666667,0.833333333333333,20725.397117708,20726.506805667,9,20725.463748542,20725.530131292,20726.51827825,20727.344948958,1,1.10968795900044
111,49,8,categorization,0,kitchen,SHINEd_labelme_rykdqxenmhulbdn.tif,63,0.0666666666666667,0.0666666666666667,0.95,20727.350820417,20728.001332583,9,20727.412486875,20727.47363425,20728.008741167,20728.95207875,1,0.650512166001135
111,50,8,categorization,0,kitchen,SHINEd_sun_ahljzhgcdpomplvg.tif,91,0.0666666666666667,0.0666666666666667,1.43333333333333,20728.957485208,20729.809486667,9,20729.019321833,20729.08021375,20729.815320792,20731.242021167,1,0.852001458999439
