sub_num,trial,block,task,is_practice,category,image,texture,duration,mask_dur,jitter,stim_time,time_of_resp,trial_response,mask_time,fix_time,jit_onset,trial_end,trial_accuracy,RT
133,6,0,familiarity,1,kitchen,kitchen_practice2.tif,227,1.5,0,0.733333333333333,2438.795357958,2445.722779291,2,NaN,2445.729177708,2445.748262666,2446.474939833,NaN,NaN
133,7,0,familiarity,1,kitchen,kitchen_practice3.tif,228,1.5,0,1.3,2446.479218208,2449.1933655,6,NaN,2449.223174375,2449.246781958,2450.540167125,NaN,NaN
133,8,0,familiarity,1,kitchen,kitchen_practice1.tif,226,1.5,0,2,2450.558442916,2453.322233958,2,NaN,2453.328007,2453.346814791,2455.340215958,NaN,NaN
133,9,0,familiarity,1,kitchen,kitchen_practice5.tif,230,1.5,0,1.81666666666667,2455.3589225,2460.186759333,3,NaN,2460.192269458,2460.210661083,2462.020756708,NaN,NaN
133,10,0,familiarity,1,kitchen,kitchen_practice4.tif,229,1.5,0,0.75,2462.03577375,2464.95562775,6,NaN,2464.983245666,2465.00597375,2465.749315666,NaN,NaN
133,1,1,familiarity,0,kitchen,sun_acxkpeoqbwcxfvip.tif,187,1.5,0,0.866666666666667,2470.263021958,2473.554707291,3,NaN,2473.562155916,2473.581017166,2474.441077791,NaN,NaN
133,2,1,familiarity,0,kitchen,sun_aggjlwcdjsjcaemh.tif,196,1.5,0,1.01666666666667,2474.446228083,2478.737699916,5,NaN,2478.743889958,2478.762482208,2479.772673083,NaN,NaN
133,3,1,familiarity,0,kitchen,sun_agorklincwxrdtga.tif,197,1.5,0,1.78333333333333,2479.781798375,2482.305706291,6,NaN,2482.311610791,2482.330034333,2484.106771208,NaN,NaN
133,4,1,familiarity,0,kitchen,sun_aadbddgrdsjugojn.tif,174,1.5,0,1.85,2484.125954791,2486.861854958,5,NaN,2486.89019225,2486.913482625,2488.756879166,NaN,NaN
133,5,1,familiarity,0,kitchen,sun_ahdycvpopffkzzsu.tif,200,1.5,0,1.83333333333333,2488.777725458,2491.542805,5,NaN,2491.570177166,2491.593545375,2493.420285791,NaN,NaN
133,6,1,familiarity,0,kitchen,sun_ahljzhgcdpomplvg.tif,201,1.5,0,1.56666666666667,2493.433671291,2498.146344791,4,NaN,2498.151911583,2498.170323583,2499.730624833,NaN,NaN
133,7,1,familiarity,0,kitchen,sun_agzzivivdpnawacl.tif,199,1.5,0,1.31666666666667,2499.750954291,2502.809956708,2,NaN,2502.836617666,2502.859916625,2504.169974833,NaN,NaN
133,8,1,familiarity,0,kitchen,sun_ahspylgoovwmwvgk.tif,203,1.5,0,1.75,2504.187173791,2507.385860333,7,NaN,2507.391598541,2507.409837666,2509.153251625,NaN,NaN
133,9,1,familiarity,0,kitchen,sun_azmutvzbxypaceni.tif,220,1.5,0,1.9,2509.172907125,2511.946619416,6,NaN,2511.97373875,2511.997245291,2513.890663833,NaN,NaN
133,10,1,familiarity,0,kitchen,sun_agubuxuukhzyzpdp.tif,198,1.5,0,1.76666666666667,2513.909984666,2516.874222083,5,NaN,2516.898787,2516.92198625,2518.682075666,NaN,NaN
133,11,1,familiarity,0,kitchen,labelme_kxvouciolcpqplr.tif,172,1.5,0,1.05,2518.702506041,2521.91798225,2,NaN,2521.948625416,2521.971949833,2523.015372083,NaN,NaN
133,12,1,familiarity,0,kitchen,labelme_brsyyvweiuaazfr.tif,171,1.5,0,1.58333333333333,2523.023594625,2526.410478041,4,NaN,2526.41606075,2526.434401166,2528.011119083,NaN,NaN
133,13,1,familiarity,0,kitchen,sun_aegoxogugdkwpmpj.tif,190,1.5,0,0.983333333333333,2528.030415708,2531.737544541,3,NaN,2531.744395375,2531.763165625,2532.739841708,NaN,NaN
133,14,1,familiarity,0,kitchen,sun_adgqasybjyktddhj.tif,188,1.5,0,0.733333333333333,2532.744408041,2535.514463625,5,NaN,2535.539978875,2535.56523475,2536.291909083,NaN,NaN
133,15,1,familiarity,0,kitchen,sun_akchetnepxlcxhsu.tif,208,1.5,0,1.13333333333333,2536.297912875,2539.85805975,4,NaN,2539.86361075,2539.881715416,2541.008447583,NaN,NaN
133,16,1,familiarity,0,kitchen,sun_acgtpgfybqjmzeyw.tif,185,1.5,0,1.58333333333333,2541.019382,2544.553819291,3,NaN,2544.559508958,2544.57775875,2546.154482041,NaN,NaN
133,17,1,familiarity,0,kitchen,sun_abrcnpqqhmjwekyf.tif,183,1.5,0,0.783333333333333,2546.171943041,2548.813591708,4,NaN,2548.840983583,2548.864217375,2549.6409575,NaN,NaN
133,18,1,familiarity,0,kitchen,sun_aapllqyqlykszopd.tif,176,1.5,0,0.8,2549.655840541,2552.339341458,3,NaN,2552.361434625,2552.38239025,2553.175734125,NaN,NaN
133,19,1,familiarity,0,kitchen,sun_aymvwlarqodbwuoc.tif,218,1.5,0,1.7,2553.180928875,2556.489665791,3,NaN,2556.4955255,2556.513979666,2558.20738925,NaN,NaN
133,20,1,familiarity,0,kitchen,sun_abftihopvusyfakt.tif,181,1.5,0,1.48333333333333,2558.226411208,2560.9310455,4,NaN,2560.960223416,2560.984104583,2562.460820916,NaN,NaN
133,21,1,familiarity,0,kitchen,sun_acwjdupvyjsugpay.tif,186,1.5,0,0.966666666666667,2562.478114833,2567.281866041,3,NaN,2567.287653875,2567.306093791,2568.2661,NaN,NaN
133,22,1,familiarity,0,kitchen,sun_aexklacwqwezaorf.tif,194,1.5,0,1.28333333333333,2568.270675375,2571.858197708,5,NaN,2571.866777916,2571.885136791,2573.161897458,NaN,NaN
133,23,1,familiarity,0,kitchen,sun_auaiucuqpdausiva.tif,212,1.5,0,0.783333333333333,2573.183273666,2576.633908166,5,NaN,2576.639528583,2576.657898166,2577.434573083,NaN,NaN
133,24,1,familiarity,0,kitchen,sun_aamedkxepzlwuxes.tif,175,1.5,0,1.36666666666667,2577.438904333,2580.269826083,6,NaN,2580.29877425,2580.320502625,2581.680600041,NaN,NaN
133,25,1,familiarity,0,kitchen,labelme_rykdqxenmhulbdn.tif,173,1.5,0,1.45,2581.699447666,2584.497528958,5,NaN,2584.503455875,2584.521850916,2585.965275166,NaN,NaN
133,1,2,familiarity,0,kitchen,sun_ajcbwwvdlsvjyzje.tif,206,1.5,0,1.81666666666667,2590.315128666,2593.498144291,4,NaN,2593.504438833,2593.522732583,2595.3328075,NaN,NaN
133,2,2,familiarity,0,kitchen,sun_aypmqwcualkenuoe.tif,219,1.5,0,0.816666666666667,2595.351455166,2598.986382958,2,NaN,2598.992006041,2599.010359791,2599.820367333,NaN,NaN
133,3,2,familiarity,0,kitchen,sun_ahpczsiumwwocjkv.tif,202,1.5,0,0.9,2599.824690458,2602.735844291,6,NaN,2602.765444583,2602.78890025,2603.682239208,NaN,NaN
133,4,2,familiarity,0,kitchen,sun_acfmftudsenhrfhy.tif,184,1.5,0,0.933333333333333,2603.686932708,2606.36140575,5,NaN,2606.384014458,2606.405872916,2607.332548625,NaN,NaN
133,5,2,familiarity,0,kitchen,sun_afuyedyxivkhecmu.tif,195,1.5,0,1.48333333333333,2607.337360125,2610.102869791,5,NaN,2610.132165083,2610.155615541,2611.632356916,NaN,NaN
133,6,2,familiarity,0,kitchen,sun_axyyrmzcupyhlivc.tif,217,1.5,0,1.48333333333333,2611.650712375,2615.610110083,5,NaN,2615.615734791,2615.634133375,2617.110857708,NaN,NaN
133,7,2,familiarity,0,kitchen,sun_aenotlpyftoioydp.tif,192,1.5,0,1.43333333333333,2617.130362875,2620.161823166,5,NaN,2620.167333083,2620.185716791,2621.612460958,NaN,NaN
133,8,2,familiarity,0,kitchen,sun_avszsnwsbuqfgzbn.tif,215,1.5,0,0.733333333333333,2621.632369625,2625.31334975,5,NaN,2625.319373333,2625.337834875,2626.064512,NaN,NaN
133,9,2,familiarity,0,kitchen,sun_abpwyqmlzafvklqo.tif,182,1.5,0,0.966666666666667,2626.068817833,2629.321694,5,NaN,2629.327416625,2629.346321083,2630.3063275,NaN,NaN
133,10,2,familiarity,0,kitchen,sun_aixorpehvfykdynp.tif,205,1.5,0,0.916666666666667,2630.310692416,2632.98934625,6,NaN,2633.018777458,2633.041908166,2633.95191625,NaN,NaN
133,11,2,familiarity,0,kitchen,sun_abdxkyyxwfskuaqb.tif,180,1.5,0,1.03333333333333,2633.962205041,2637.337934,4,NaN,2637.343413375,2637.361885875,2638.388638833,NaN,NaN
133,12,2,familiarity,0,kitchen,sun_abdenxonkemggwsq.tif,179,1.5,0,0.733333333333333,2638.397736666,2641.273918166,4,NaN,2641.279403708,2641.297581708,2642.024257333,NaN,NaN
133,13,2,familiarity,0,kitchen,sun_aehawpgmrlhlvcow.tif,191,1.5,0,1.13333333333333,2642.028576041,2644.742310125,5,NaN,2644.771646,2644.795464041,2645.922225708,NaN,NaN
133,14,2,familiarity,0,kitchen,sun_ajkqhtgcbgpcwrwn.tif,207,1.5,0,0.883333333333333,2645.931693541,2649.257464875,4,NaN,2649.263303916,2649.281526791,2650.158203083,NaN,NaN
133,15,2,familiarity,0,kitchen,sun_aarfiyshqohlwkmo.tif,177,1.5,0,1.85,2650.164029833,2654.394149416,2,NaN,2654.399818166,2654.418191083,2656.261611875,NaN,NaN
133,16,2,familiarity,0,kitchen,sun_aeqdocilnnpuvuhx.tif,193,1.5,0,0.733333333333333,2656.279462583,2659.389909708,5,NaN,2659.419141166,2659.441753541,2660.16842925,NaN,NaN
133,17,2,familiarity,0,kitchen,sun_aqeaevwwwjoqhzvl.tif,211,1.5,0,1.95,2660.173141375,2662.933170583,2,NaN,2662.960789291,2662.983624625,2664.927017791,NaN,NaN
133,18,2,familiarity,0,kitchen,sun_auticobqsbwgoppi.tif,214,1.5,0,1.1,2664.937994208,2667.870653,5,NaN,2667.900726708,2667.924467541,2669.017876041,NaN,NaN
133,19,2,familiarity,0,kitchen,sun_aaxxjlsuzvqlgylf.tif,178,1.5,0,1.31666666666667,2669.028574916,2671.770020375,2,NaN,2671.775559041,2671.793940833,2673.104013666,NaN,NaN
133,20,2,familiarity,0,kitchen,sun_amjjdeyrggfqgmom.tif,210,1.5,0,1.78333333333333,2673.123264666,2677.833404,2,NaN,2677.839149333,2677.857363666,2679.63409125,NaN,NaN
133,21,2,familiarity,0,kitchen,sun_aunzlwrbjumxhwdj.tif,213,1.5,0,1.33333333333333,2679.651569333,2682.529639666,1,NaN,2682.557701583,2682.580978333,2683.907742333,NaN,NaN
133,22,2,familiarity,0,kitchen,sun_awcpdzzznmweyyhv.tif,216,1.5,0,0.95,2683.926596541,2686.426010625,4,NaN,2686.43162925,2686.449847208,2687.393190875,NaN,NaN
133,23,2,familiarity,0,kitchen,sun_akcjzhbbjlbogpdi.tif,209,1.5,0,1.93333333333333,2687.39733925,2690.513145083,3,NaN,2690.519696833,2690.538175416,2692.464920458,NaN,NaN
133,24,2,familiarity,0,kitchen,sun_ahywdevtimnqcsln.tif,204,1.5,0,1.28333333333333,2692.477237416,2695.277865,2,NaN,2695.306293875,2695.32991675,2696.606645958,NaN,NaN
133,25,2,familiarity,0,kitchen,sun_admlmbcdswaszruo.tif,189,1.5,0,1.43333333333333,2696.624222166,2699.04989775,6,NaN,2699.055430458,2699.0737435,2700.500504666,NaN,NaN
