sub_num,trial,block,task,is_practice,category,image,texture,duration,mask_dur,jitter,stim_time,time_of_resp,trial_response,mask_time,fix_time,jit_onset,trial_end,trial_accuracy,RT
130,1,0,typicality,1,bathroom,bathroom_practice2.tif,222,1.5,0,1.48333333333333,403.744939875,410.719387166,2,NaN,410.741067291,410.761255583,412.238103541,NaN,NaN
130,2,0,typicality,1,bathroom,bathroom_practice4.tif,224,1.5,0,0.75,412.301810125,417.951235041,7,NaN,417.961114125,417.97993325,418.72329025,NaN,NaN
130,3,0,typicality,1,bathroom,bathroom_practice1.tif,221,1.5,0,1.93333333333333,418.730547291,423.159096125,5,NaN,423.16667625,423.185507458,425.1123595,NaN,NaN
130,4,0,typicality,1,bathroom,bathroom_practice5.tif,225,1.5,0,0.983333333333333,425.148871875,431.910686166,5,NaN,431.919321208,431.938204,432.914904166,NaN,NaN
130,5,0,typicality,1,bathroom,bathroom_practice3.tif,223,1.5,0,0.883333333333333,432.924109958,436.758661208,4,NaN,436.768942416,436.788476875,437.665219208,NaN,NaN
130,1,1,typicality,0,bathroom,sun_aapitsgbtktqubfy.tif,122,1.5,0,0.866666666666667,446.847648708,452.598277875,4,NaN,452.604910125,452.623462458,453.483476625,NaN,NaN
130,2,1,typicality,0,bathroom,sun_aleqenyvunhactkl.tif,142,1.5,0,1.03333333333333,453.488747708,457.750092,2,NaN,457.756110291,457.77492375,458.801645416,NaN,NaN
130,3,1,typicality,0,bathroom,sun_ajlawzvmubibwbpy.tif,140,1.5,0,0.866666666666667,458.811529333,462.990887125,4,NaN,462.996626583,463.014852875,463.874857166,NaN,NaN
130,4,1,typicality,0,bathroom,sun_alkosphxlxwjwgjd.tif,144,1.5,0,1.61666666666667,463.89108675,468.302979625,5,NaN,468.309293416,468.327524708,469.937570333,NaN,NaN
130,5,1,typicality,0,bathroom,sun_anhioqovhscjqqwb.tif,148,1.5,0,0.883333333333333,469.9540795,473.431059291,5,NaN,473.437102041,473.455467291,474.332137375,NaN,NaN
130,6,1,typicality,0,bathroom,sun_alotolagknyrgtsk.tif,145,1.5,0,0.933333333333333,474.33668075,478.278801208,2,NaN,478.284611125,478.302919166,479.2295895,NaN,NaN
130,7,1,typicality,0,bathroom,sun_aghyqhbptboemmoq.tif,133,1.5,0,1.5,479.234199416,482.990248583,7,NaN,482.996817375,483.015142958,484.508528583,NaN,NaN
130,8,1,typicality,0,bathroom,sun_asfwthctfqerjvxr.tif,159,1.5,0,1.36666666666667,484.52359175,487.566499333,3,NaN,487.572677916,487.591516833,488.951552208,NaN,NaN
130,9,1,typicality,0,bathroom,sun_agyqfjcfkdcydepw.tif,135,1.5,0,0.85,488.970034916,491.782245958,1,NaN,491.78906225,491.80746975,492.650808125,NaN,NaN
130,10,1,typicality,0,bathroom,sun_apeeialkgkuxddgh.tif,152,1.5,0,1.81666666666667,492.655096416,497.150422916,5,NaN,497.160337625,497.17871575,498.988864625,NaN,NaN
130,11,1,typicality,0,bathroom,sun_acegryoqftbzowsg.tif,127,1.5,0,1.28333333333333,499.001384708,502.974131291,3,NaN,502.980781708,502.998905041,504.275873166,NaN,NaN
130,12,1,typicality,0,bathroom,sun_anryaplzeujmzfkd.tif,149,1.5,0,1.23333333333333,504.296231791,509.982478708,3,NaN,509.98892625,510.007441625,511.234122458,NaN,NaN
130,13,1,typicality,0,bathroom,sun_amzlamotzwfkwjco.tif,147,1.5,0,0.883333333333333,511.246278916,514.415469791,1,NaN,514.422355083,514.440801125,515.317471333,NaN,NaN
130,14,1,typicality,0,bathroom,sun_afcoljnjfoxjtgja.tif,130,1.5,0,0.866666666666667,515.322239541,518.426201916,4,NaN,518.452115625,518.4717375,519.331744333,NaN,NaN
130,15,1,typicality,0,bathroom,sun_aclfzgynxzxlbepz.tif,129,1.5,0,1.36666666666667,519.337182208,522.1014075,6,NaN,522.12870025,522.150940375,523.511045208,NaN,NaN
130,16,1,typicality,0,bathroom,sun_acduarbnmmoglmiv.tif,126,1.5,0,1.05,523.524069583,526.695267291,3,NaN,526.701691458,526.719969791,527.763316125,NaN,NaN
130,17,1,typicality,0,bathroom,sun_auzqhkafidnkrwmo.tif,164,1.5,0,1.21666666666667,527.779678583,530.614712333,6,NaN,530.620644875,530.638948083,531.848987958,NaN,NaN
130,18,1,typicality,0,bathroom,sun_aofnryafpsjimzsb.tif,150,1.5,0,0.816666666666667,531.866558666,535.494938708,4,NaN,535.500706291,535.519116541,536.329121458,NaN,NaN
130,19,1,typicality,0,bathroom,sun_apmqjbnwghzuhhzh.tif,156,1.5,0,1,536.333476291,540.445819291,3,NaN,540.452361333,540.4707405,541.464078958,NaN,NaN
130,20,1,typicality,0,bathroom,sun_abjtwfukuwddzted.tif,125,1.5,0,1.21666666666667,541.468632416,545.542150958,2,NaN,545.548045875,545.566375416,546.776392458,NaN,NaN
130,21,1,typicality,0,bathroom,sun_awnqiikzaispgmwo.tif,166,1.5,0,1.46666666666667,546.794451083,551.086445458,4,NaN,551.092271291,551.110441333,552.570486166,NaN,NaN
130,22,1,typicality,0,bathroom,sun_aljolscmmzydegqp.tif,143,1.5,0,1.4,552.587601375,555.870788208,5,NaN,555.876861375,555.895226541,557.288614041,NaN,NaN
130,23,1,typicality,0,bathroom,sun_abapwbhyhkfixyex.tif,124,1.5,0,0.783333333333333,557.30448925,560.373984583,6,NaN,560.379806916,560.398182916,561.174855916,NaN,NaN
130,24,1,typicality,0,bathroom,labelme_sfxiulhjbhlyiyt.tif,121,1.5,0,1.21666666666667,561.179239958,564.056015,7,NaN,564.083842791,564.109601125,565.319635833,NaN,NaN
130,25,1,typicality,0,bathroom,sun_axldvoqbuvuggfmq.tif,167,1.5,0,1.35,565.340801208,568.246424791,7,NaN,568.252269291,568.270533041,569.613902625,NaN,NaN
130,1,2,typicality,0,bathroom,sun_aoybiabnpadelefl.tif,151,1.5,0,1.65,598.611013791,603.669530416,3,NaN,603.675804,603.694019333,605.337397208,NaN,NaN
130,2,2,typicality,0,bathroom,sun_apkruvsevgegsdwp.tif,154,1.5,0,1.01666666666667,605.356251375,608.301268125,4,NaN,608.325423791,608.347432416,609.357497,NaN,NaN
130,3,2,typicality,0,bathroom,sun_ahijqszoswveeyji.tif,138,1.5,0,1.58333333333333,609.367919916,612.902417416,5,NaN,612.908293875,612.926508416,614.5032275,NaN,NaN
130,4,2,typicality,0,bathroom,sun_aunuadmjocsddsrl.tif,162,1.5,0,0.7,614.521601583,618.119097333,6,NaN,618.128041791,618.14705475,618.840393625,NaN,NaN
130,5,2,typicality,0,bathroom,sun_apkxzenqapsujocq.tif,155,1.5,0,1.23333333333333,618.845844291,622.390336958,3,NaN,622.396078125,622.414466375,623.641178375,NaN,NaN
130,6,2,typicality,0,bathroom,sun_akiytfaagpdsphgz.tif,141,1.5,0,0.816666666666667,623.657585625,626.637990041,4,NaN,626.64398225,626.66229475,627.4723,NaN,NaN
130,7,2,typicality,0,bathroom,sun_agrwbmhcpmfuwmsg.tif,134,1.5,0,0.733333333333333,627.477782333,630.557673625,5,NaN,630.567696791,630.586653583,631.313326208,NaN,NaN
130,8,2,typicality,0,bathroom,sun_agguqiubmwhqqunb.tif,132,1.5,0,1.15,631.318647166,634.202089708,3,NaN,634.22714675,634.248939833,635.392319291,NaN,NaN
130,9,2,typicality,0,bathroom,sun_axyrejkiiaqiurjk.tif,169,1.5,0,0.933333333333333,635.401992958,638.862062,3,NaN,638.868001666,638.8863685,639.813039916,NaN,NaN
130,10,2,typicality,0,bathroom,sun_aavhrsfjbserjtht.tif,123,1.5,0,0.916666666666667,639.818150958,643.221733541,6,NaN,643.227839375,643.246359458,644.156365,NaN,NaN
130,11,2,typicality,0,bathroom,sun_avhrdrntsqrjzccq.tif,165,1.5,0,1.26666666666667,644.160944833,647.033754541,2,NaN,647.059969958,647.083432166,648.34347975,NaN,NaN
130,12,2,typicality,0,bathroom,sun_aqrpegblszgcoujh.tif,158,1.5,0,0.933333333333333,648.356850583,652.478059583,2,NaN,652.483907208,652.502297083,653.428968916,NaN,NaN
130,13,2,typicality,0,bathroom,sun_ambriybtogmepttm.tif,146,1.5,0,1,653.433527166,656.047145583,1,NaN,656.070033083,656.093624333,657.086963083,NaN,NaN
130,14,2,typicality,0,bathroom,sun_acgyywnybuveqsro.tif,128,1.5,0,1,657.093642875,659.897875125,6,NaN,659.923970416,659.94699475,660.940332833,NaN,NaN
130,15,2,typicality,0,bathroom,sun_aggnnqpdorgxpvce.tif,131,1.5,0,1.21666666666667,660.945660875,666.094420083,4,NaN,666.100114666,666.11851875,667.328551458,NaN,NaN
130,16,2,typicality,0,bathroom,sun_apjevzvycyhuqghb.tif,153,1.5,0,1.85,667.346433416,671.766026875,3,NaN,671.771772708,671.790465375,673.633836,NaN,NaN
130,17,2,typicality,0,bathroom,sun_aspsyogrekjtfozg.tif,160,1.5,0,0.766666666666667,673.653040625,677.221725291,2,NaN,677.22855325,677.246918416,678.006923166,NaN,NaN
130,18,2,typicality,0,bathroom,sun_axxbkopsgyouuebh.tif,168,1.5,0,0.966666666666667,678.012269458,681.310184541,5,NaN,681.316794208,681.335158541,682.295164666,NaN,NaN
130,19,2,typicality,0,bathroom,sun_ahaulkltgpkeeemi.tif,136,1.5,0,1.4,682.299984458,685.265721166,6,NaN,685.293655625,685.316900083,686.710288791,NaN,NaN
130,20,2,typicality,0,bathroom,sun_apynckhmoftszqoq.tif,157,1.5,0,0.933333333333333,686.727680583,690.87743875,2,NaN,690.883429375,690.90189,691.828562125,NaN,NaN
130,21,2,typicality,0,bathroom,sun_ahqjwnzgolcaoidx.tif,139,1.5,0,1.7,691.83380675,695.062416541,4,NaN,695.06901425,695.0873915,696.780766333,NaN,NaN
130,22,2,typicality,0,bathroom,sun_ahcvzmoyaycdoftf.tif,137,1.5,0,0.916666666666667,696.797805416,701.725964916,5,NaN,701.731712,701.750144541,702.660150625,NaN,NaN
130,23,2,typicality,0,bathroom,sun_ausgutylgojavyoq.tif,163,1.5,0,0.833333333333333,702.664635208,706.085268791,1,NaN,706.0913765,706.109764666,706.936438083,NaN,NaN
130,24,2,typicality,0,bathroom,sun_azqyogdvyhahyram.tif,170,1.5,0,0.783333333333333,706.94159575,709.890519125,6,NaN,709.915636416,709.9388855,710.715557208,NaN,NaN
130,25,2,typicality,0,bathroom,sun_atstyziqcmkahyxk.tif,161,1.5,0,1.4,710.720177291,713.387100416,5,NaN,713.405664416,713.427801666,714.821174875,NaN,NaN
