sub_num,trial,block,task,is_practice,category,image,texture,duration,mask_dur,jitter,stim_time,time_of_resp,trial_response,mask_time,fix_time,jit_onset,trial_end,trial_accuracy,RT
113,1,0,usability,1,bathroom,bathroom_practice3.tif,223,1.5,0,0.983333333333333,1416.034515875,1422.931045208,6,NaN,1422.938202833,1422.957082333,1423.933819875,NaN,NaN
113,2,0,usability,1,bathroom,bathroom_practice4.tif,224,1.5,0,1.78333333333333,1423.939043458,1428.347079958,5,NaN,1428.352923833,1428.371411208,1430.148206541,NaN,NaN
113,3,0,usability,1,bathroom,bathroom_practice5.tif,225,1.5,0,1.78333333333333,1430.167133666,1434.458454916,6,NaN,1434.4641785,1434.482529958,1436.259241875,NaN,NaN
113,4,0,usability,1,bathroom,bathroom_practice2.tif,222,1.5,0,1.26666666666667,1436.276878041,1441.602522416,1,NaN,1441.608041416,1441.626354041,1442.886396416,NaN,NaN
113,5,0,usability,1,bathroom,bathroom_practice1.tif,221,1.5,0,1.05,1442.900747458,1449.3626975,4,NaN,1449.368041,1449.386348208,1450.429724666,NaN,NaN
113,1,1,usability,0,bathroom,sun_apynckhmoftszqoq.tif,157,1.5,0,1.01666666666667,1454.62528725,1459.114879375,7,NaN,1459.120268291,1459.138731041,1460.148770458,NaN,NaN
113,2,1,usability,0,bathroom,sun_avhrdrntsqrjzccq.tif,165,1.5,0,1.61666666666667,1460.157844666,1464.1621785,5,NaN,1464.167850333,1464.186209458,1465.796246333,NaN,NaN
113,3,1,usability,0,bathroom,sun_apkxzenqapsujocq.tif,155,1.5,0,1.16666666666667,1465.810292958,1470.555028458,5,NaN,1470.560324291,1470.578799416,1471.738848916,NaN,NaN
113,4,1,usability,0,bathroom,sun_aoybiabnpadelefl.tif,151,1.5,0,0.983333333333333,1471.750011375,1475.386216166,7,NaN,1475.391809541,1475.410082416,1476.386753041,NaN,NaN
113,5,1,usability,0,bathroom,sun_aggnnqpdorgxpvce.tif,131,1.5,0,0.783333333333333,1476.391466958,1480.306399625,6,NaN,1480.31201475,1480.330358416,1481.10702975,NaN,NaN
113,6,1,usability,0,bathroom,sun_ambriybtogmepttm.tif,146,1.5,0,0.816666666666667,1481.1114625,1484.433918875,1,NaN,1484.439890541,1484.458094583,1485.268100416,NaN,NaN
113,7,1,usability,0,bathroom,sun_agrwbmhcpmfuwmsg.tif,134,1.5,0,1.1,1485.273326875,1489.258430291,3,NaN,1489.263899375,1489.282331166,1490.37570275,NaN,NaN
113,8,1,usability,0,bathroom,sun_amzlamotzwfkwjco.tif,147,1.5,0,1.65,1490.38508625,1495.778247916,4,NaN,1495.783913041,1495.802235916,1497.445607958,NaN,NaN
113,9,1,usability,0,bathroom,sun_afcoljnjfoxjtgja.tif,130,1.5,0,1.13333333333333,1497.461688208,1502.434540958,5,NaN,1502.440369916,1502.458661583,1503.585384,NaN,NaN
113,10,1,usability,0,bathroom,sun_aofnryafpsjimzsb.tif,150,1.5,0,0.766666666666667,1503.593177625,1508.705830333,3,NaN,1508.711616916,1508.72992,1509.489925541,NaN,NaN
113,11,1,usability,0,bathroom,sun_apeeialkgkuxddgh.tif,152,1.5,0,1.25,1509.494497458,1515.08224075,5,NaN,1515.087822791,1515.106173875,1516.349551083,NaN,NaN
113,12,1,usability,0,bathroom,sun_aavhrsfjbserjtht.tif,123,1.5,0,1.5,1516.368149958,1520.1785315,3,NaN,1520.183953541,1520.202493625,1521.69588275,NaN,NaN
113,13,1,usability,0,bathroom,labelme_sfxiulhjbhlyiyt.tif,121,1.5,0,1.56666666666667,1521.713940875,1526.266368541,4,NaN,1526.271830583,1526.290003083,1527.850047,NaN,NaN
113,14,1,usability,0,bathroom,sun_alkosphxlxwjwgjd.tif,144,1.5,0,1.45,1527.86340375,1531.522831666,7,NaN,1531.528699625,1531.547482083,1532.99096125,NaN,NaN
113,15,1,usability,0,bathroom,sun_atstyziqcmkahyxk.tif,161,1.5,0,1.53333333333333,1533.00411225,1536.226683166,6,NaN,1536.232076791,1536.25052775,1537.777243625,NaN,NaN
113,16,1,usability,0,bathroom,sun_aleqenyvunhactkl.tif,142,1.5,0,0.8,1537.7918525,1541.6102685,7,NaN,1541.615840833,1541.634239291,1542.427578875,NaN,NaN
113,17,1,usability,0,bathroom,sun_ahaulkltgpkeeemi.tif,136,1.5,0,0.933333333333333,1542.4319785,1546.033926166,7,NaN,1546.039566625,1546.057813041,1546.984484625,NaN,NaN
113,18,1,usability,0,bathroom,sun_aljolscmmzydegqp.tif,143,1.5,0,1.75,1546.990125833,1550.266627375,2,NaN,1550.272378541,1550.290538,1552.033914625,NaN,NaN
113,19,1,usability,0,bathroom,sun_ahijqszoswveeyji.tif,138,1.5,0,1.48333333333333,1552.051051041,1554.845812166,7,NaN,1554.874537458,1554.897618125,1556.3743285,NaN,NaN
113,20,1,usability,0,bathroom,sun_aclfzgynxzxlbepz.tif,129,1.5,0,1.03333333333333,1556.392021916,1559.938292625,5,NaN,1559.943593708,1559.961947791,1560.988652791,NaN,NaN
113,21,1,usability,0,bathroom,sun_alotolagknyrgtsk.tif,145,1.5,0,1.23333333333333,1560.997361166,1564.602469791,1,NaN,1564.607775083,1564.6261175,1565.8528355,NaN,NaN
113,22,1,usability,0,bathroom,sun_axxbkopsgyouuebh.tif,168,1.5,0,1.28333333333333,1565.870671125,1569.769621916,4,NaN,1569.775341875,1569.793566208,1571.070271875,NaN,NaN
113,23,1,usability,0,bathroom,sun_ahcvzmoyaycdoftf.tif,137,1.5,0,1.66666666666667,1571.085203666,1574.401540875,7,NaN,1574.407455541,1574.425740083,1576.085773666,NaN,NaN
113,24,1,usability,0,bathroom,sun_aghyqhbptboemmoq.tif,133,1.5,0,1.26666666666667,1576.104484166,1579.463042333,6,NaN,1579.4916845,1579.513378,1580.773414541,NaN,NaN
113,25,1,usability,0,bathroom,sun_awnqiikzaispgmwo.tif,166,1.5,0,1.4,1580.791456833,1584.3697575,7,NaN,1584.375426708,1584.394007083,1585.78738475,NaN,NaN
113,1,2,usability,0,bathroom,sun_abjtwfukuwddzted.tif,125,1.5,0,1.66666666666667,1592.926950416,1596.794475958,1,NaN,1596.79974225,1596.818144083,1598.4781895,NaN,NaN
113,2,2,usability,0,bathroom,sun_aqrpegblszgcoujh.tif,158,1.5,0,1.85,1598.494269041,1602.337450875,6,NaN,1602.343235166,1602.361556875,1604.2049315,NaN,NaN
113,3,2,usability,0,bathroom,sun_acgyywnybuveqsro.tif,128,1.5,0,1.65,1604.225594166,1607.986063,5,NaN,1607.991414,1608.009872083,1609.653245875,NaN,NaN
113,4,2,usability,0,bathroom,sun_azqyogdvyhahyram.tif,170,1.5,0,0.95,1609.672106291,1613.06187975,5,NaN,1613.09093425,1613.114342041,1614.05767975,NaN,NaN
113,5,2,usability,0,bathroom,sun_apmqjbnwghzuhhzh.tif,156,1.5,0,0.783333333333333,1614.062387625,1617.545786791,4,NaN,1617.551521916,1617.569729791,1618.346400208,NaN,NaN
113,6,2,usability,0,bathroom,sun_ajlawzvmubibwbpy.tif,140,1.5,0,1.13333333333333,1618.350653666,1621.449968166,7,NaN,1621.456311083,1621.474530875,1622.601255625,NaN,NaN
113,7,2,usability,0,bathroom,sun_akiytfaagpdsphgz.tif,141,1.5,0,1.63333333333333,1622.609428291,1627.361922458,7,NaN,1627.36900125,1627.387538666,1629.014243583,NaN,NaN
113,8,2,usability,0,bathroom,sun_acduarbnmmoglmiv.tif,126,1.5,0,1.2,1629.034060458,1633.802237416,2,NaN,1633.807681708,1633.826095916,1635.019474666,NaN,NaN
113,9,2,usability,0,bathroom,sun_ahqjwnzgolcaoidx.tif,139,1.5,0,1.71666666666667,1635.032655916,1639.593297083,2,NaN,1639.599168166,1639.617639,1641.3276865,NaN,NaN
113,10,2,usability,0,bathroom,sun_asfwthctfqerjvxr.tif,159,1.5,0,0.9,1641.344350958,1645.513691333,4,NaN,1645.519593791,1645.5379875,1646.431324583,NaN,NaN
113,11,2,usability,0,bathroom,sun_apjevzvycyhuqghb.tif,153,1.5,0,0.9,1646.435870041,1650.161216083,5,NaN,1650.167001,1650.185339333,1651.078676166,NaN,NaN
113,12,2,usability,0,bathroom,sun_agguqiubmwhqqunb.tif,132,1.5,0,0.766666666666667,1651.0832315,1654.897853416,1,NaN,1654.903270583,1654.921698291,1655.681702916,NaN,NaN
113,13,2,usability,0,bathroom,sun_acegryoqftbzowsg.tif,127,1.5,0,0.966666666666667,1655.686209416,1659.385852375,5,NaN,1659.391208916,1659.409576416,1660.369580083,NaN,NaN
113,14,2,usability,0,bathroom,sun_apkruvsevgegsdwp.tif,154,1.5,0,0.7,1660.374194583,1664.145995166,4,NaN,1664.151313791,1664.169715125,1664.863052875,NaN,NaN
113,15,2,usability,0,bathroom,sun_aunuadmjocsddsrl.tif,162,1.5,0,1.1,1664.867334208,1670.76970975,4,NaN,1670.775164458,1670.793603,1671.886987166,NaN,NaN
113,16,2,usability,0,bathroom,sun_axyrejkiiaqiurjk.tif,169,1.5,0,1.33333333333333,1671.894908416,1675.441759916,7,NaN,1675.447265833,1675.465604833,1676.792308208,NaN,NaN
113,17,2,usability,0,bathroom,sun_ausgutylgojavyoq.tif,163,1.5,0,1.15,1676.807735708,1680.113389625,3,NaN,1680.118921166,1680.137275708,1681.280658458,NaN,NaN
113,18,2,usability,0,bathroom,sun_aapitsgbtktqubfy.tif,122,1.5,0,1.28333333333333,1681.289713708,1684.481733083,6,NaN,1684.487065416,1684.505622083,1685.782325291,NaN,NaN
113,19,2,usability,0,bathroom,sun_agyqfjcfkdcydepw.tif,135,1.5,0,1.35,1685.800085416,1689.297662708,5,NaN,1689.303045625,1689.32151225,1690.664893708,NaN,NaN
113,20,2,usability,0,bathroom,sun_abapwbhyhkfixyex.tif,124,1.5,0,1.43333333333333,1690.6824615,1693.881579625,6,NaN,1693.887031083,1693.905786,1695.332510416,NaN,NaN
113,21,2,usability,0,bathroom,sun_auzqhkafidnkrwmo.tif,164,1.5,0,0.916666666666667,1695.3502365,1698.401609125,6,NaN,1698.40691225,1698.425534958,1699.335540791,NaN,NaN
113,22,2,usability,0,bathroom,sun_anryaplzeujmzfkd.tif,149,1.5,0,0.766666666666667,1699.340239458,1702.577753291,5,NaN,1702.583161166,1702.601565125,1703.36156875,NaN,NaN
113,23,2,usability,0,bathroom,sun_anhioqovhscjqqwb.tif,148,1.5,0,0.866666666666667,1703.366111333,1706.429125333,7,NaN,1706.447265666,1706.467279916,1707.327284125,NaN,NaN
113,24,2,usability,0,bathroom,sun_axldvoqbuvuggfmq.tif,167,1.5,0,0.833333333333333,1707.331923083,1710.99331,5,NaN,1710.99893075,1711.017426708,1711.84409875,NaN,NaN
113,25,2,usability,0,bathroom,sun_aspsyogrekjtfozg.tif,160,1.5,0,0.75,1711.848491166,1714.613113333,4,NaN,1714.642191625,1714.665301541,1715.408639208,NaN,NaN
