sub_num,trial,block,task,is_practice,category,image,texture,duration,mask_dur,jitter,stim_time,time_of_resp,trial_response,mask_time,fix_time,jit_onset,trial_end,trial_accuracy,RT
127,1,0,usability,1,bathroom,bathroom_practice3.tif,223,1.5,0,0.983333333333333,6678.828395,6682.451142541,5,NaN,6682.457665083,6682.476501958,6683.453268541,NaN,NaN
127,2,0,usability,1,bathroom,bathroom_practice4.tif,224,1.5,0,1.78333333333333,6683.458600291,6686.707405291,6,NaN,6686.713284666,6686.731819375,6688.508705083,NaN,NaN
127,3,0,usability,1,bathroom,bathroom_practice5.tif,225,1.5,0,1.78333333333333,6688.527158875,6691.718933083,4,NaN,6691.748830166,6691.772669083,6693.5495495,NaN,NaN
127,4,0,usability,1,bathroom,bathroom_practice2.tif,222,1.5,0,1.26666666666667,6693.563030958,6696.862617166,7,NaN,6696.892041291,6696.9155925,6698.175650458,NaN,NaN
127,5,0,usability,1,bathroom,bathroom_practice1.tif,221,1.5,0,1.05,6698.195239333,6701.738405,4,NaN,6701.744565666,6701.762958833,6702.806347083,NaN,NaN
127,1,1,usability,0,bathroom,sun_apynckhmoftszqoq.tif,157,1.5,0,1.01666666666667,6707.676171416,6710.770654958,3,NaN,6710.781240666,6710.800388,6711.810606791,NaN,NaN
127,2,1,usability,0,bathroom,sun_avhrdrntsqrjzccq.tif,165,1.5,0,1.61666666666667,6711.821336875,6714.44291775,7,NaN,6714.44853075,6714.466920166,6716.076969083,NaN,NaN
127,3,1,usability,0,bathroom,sun_apkxzenqapsujocq.tif,155,1.5,0,1.16666666666667,6716.096336958,6718.9998685,6,NaN,6719.028551791,6719.051733583,6720.211797208,NaN,NaN
127,4,1,usability,0,bathroom,sun_aoybiabnpadelefl.tif,151,1.5,0,0.983333333333333,6720.222940416,6723.418352375,5,NaN,6723.424359,6723.442768708,6724.419441,NaN,NaN
127,5,1,usability,0,bathroom,sun_aggnnqpdorgxpvce.tif,131,1.5,0,0.783333333333333,6724.436951583,6727.619045833,4,NaN,6727.624771791,6727.643089666,6728.419761333,NaN,NaN
127,6,1,usability,0,bathroom,sun_ambriybtogmepttm.tif,146,1.5,0,0.816666666666667,6728.436943041,6731.158247916,2,NaN,6731.183530375,6731.206076916,6732.016080833,NaN,NaN
127,7,1,usability,0,bathroom,sun_agrwbmhcpmfuwmsg.tif,134,1.5,0,1.1,6732.022117791,6734.826829833,2,NaN,6734.85130675,6734.874830083,6735.96820775,NaN,NaN
127,8,1,usability,0,bathroom,sun_amzlamotzwfkwjco.tif,147,1.5,0,1.65,6735.97685425,6738.554290583,1,NaN,6738.560486125,6738.578791083,6740.222171208,NaN,NaN
127,9,1,usability,0,bathroom,sun_afcoljnjfoxjtgja.tif,130,1.5,0,1.13333333333333,6740.241064958,6742.746553333,5,NaN,6742.775509166,6742.79916675,6743.925872833,NaN,NaN
127,10,1,usability,0,bathroom,sun_aofnryafpsjimzsb.tif,150,1.5,0,0.766666666666667,6743.935659333,6747.738880416,4,NaN,6747.744511166,6747.762825166,6748.522829333,NaN,NaN
127,11,1,usability,0,bathroom,sun_apeeialkgkuxddgh.tif,152,1.5,0,1.25,6748.527176541,6752.346641541,5,NaN,6752.352354875,6752.370648041,6753.614016625,NaN,NaN
127,12,1,usability,0,bathroom,sun_aavhrsfjbserjtht.tif,123,1.5,0,1.5,6753.633275625,6756.434314083,6,NaN,6756.440304875,6756.458634625,6757.952035666,NaN,NaN
127,13,1,usability,0,bathroom,labelme_sfxiulhjbhlyiyt.tif,121,1.5,0,1.56666666666667,6757.970407833,6761.042926875,3,NaN,6761.04855125,6761.066890083,6762.62693925,NaN,NaN
127,14,1,usability,0,bathroom,sun_alkosphxlxwjwgjd.tif,144,1.5,0,1.45,6762.641284583,6765.570711583,4,NaN,6765.576335666,6765.594670833,6767.038047125,NaN,NaN
127,15,1,usability,0,bathroom,sun_atstyziqcmkahyxk.tif,161,1.5,0,1.53333333333333,6767.057425166,6771.378379708,5,NaN,6771.384276791,6771.402923333,6772.929636291,NaN,NaN
127,16,1,usability,0,bathroom,sun_aleqenyvunhactkl.tif,142,1.5,0,0.8,6772.946897,6776.11494475,2,NaN,6776.120520958,6776.138829916,6776.932168416,NaN,NaN
127,17,1,usability,0,bathroom,sun_ahaulkltgpkeeemi.tif,136,1.5,0,0.933333333333333,6776.936303583,6780.194626416,1,NaN,6780.200449041,6780.21895775,6781.145628333,NaN,NaN
127,18,1,usability,0,bathroom,sun_aljolscmmzydegqp.tif,143,1.5,0,1.75,6781.150416875,6784.274957833,5,NaN,6784.281233083,6784.299723791,6786.043104416,NaN,NaN
127,19,1,usability,0,bathroom,sun_ahijqszoswveeyji.tif,138,1.5,0,1.48333333333333,6786.061883416,6788.751793833,5,NaN,6788.780488583,6788.8041305,6790.28084975,NaN,NaN
127,20,1,usability,0,bathroom,sun_aclfzgynxzxlbepz.tif,129,1.5,0,1.03333333333333,6790.299366,6793.346740666,4,NaN,6793.352252583,6793.370551208,6794.397251333,NaN,NaN
127,21,1,usability,0,bathroom,sun_alotolagknyrgtsk.tif,145,1.5,0,1.23333333333333,6794.409103833,6797.618779,6,NaN,6797.624478208,6797.642908916,6798.869621791,NaN,NaN
127,22,1,usability,0,bathroom,sun_axxbkopsgyouuebh.tif,168,1.5,0,1.28333333333333,6798.887423208,6802.531151791,4,NaN,6802.536792791,6802.555113958,6803.831817833,NaN,NaN
127,23,1,usability,0,bathroom,sun_ahcvzmoyaycdoftf.tif,137,1.5,0,1.66666666666667,6803.846319916,6806.570773458,3,NaN,6806.5762715,6806.594674041,6808.254716166,NaN,NaN
127,24,1,usability,0,bathroom,sun_aghyqhbptboemmoq.tif,133,1.5,0,1.26666666666667,6808.273663291,6811.207425458,3,NaN,6811.231437458,6811.256037375,6812.516099958,NaN,NaN
127,25,1,usability,0,bathroom,sun_awnqiikzaispgmwo.tif,166,1.5,0,1.4,6812.534657083,6816.890538875,4,NaN,6816.8962495,6816.914631916,6818.3080195,NaN,NaN
127,1,2,usability,0,bathroom,sun_abjtwfukuwddzted.tif,125,1.5,0,1.66666666666667,6849.83408425,6852.654685791,3,NaN,6852.683925125,6852.707543666,6854.367584125,NaN,NaN
127,2,2,usability,0,bathroom,sun_aqrpegblszgcoujh.tif,158,1.5,0,1.85,6854.386322958,6857.76678525,4,NaN,6857.795117333,6857.818461458,6859.6618585,NaN,NaN
127,3,2,usability,0,bathroom,sun_acgyywnybuveqsro.tif,128,1.5,0,1.65,6859.681113625,6862.322980375,4,NaN,6862.352825625,6862.376262291,6864.019640791,NaN,NaN
127,4,2,usability,0,bathroom,sun_azqyogdvyhahyram.tif,170,1.5,0,0.95,6864.036291958,6867.373877208,4,NaN,6867.40383125,6867.426776166,6868.370114583,NaN,NaN
127,5,2,usability,0,bathroom,sun_apmqjbnwghzuhhzh.tif,156,1.5,0,0.783333333333333,6868.375113583,6871.209581958,5,NaN,6871.239373791,6871.263029375,6872.039700208,NaN,NaN
127,6,2,usability,0,bathroom,sun_ajlawzvmubibwbpy.tif,140,1.5,0,1.13333333333333,6872.044627625,6875.218634125,5,NaN,6875.225626375,6875.24395975,6876.370662708,NaN,NaN
127,7,2,usability,0,bathroom,sun_akiytfaagpdsphgz.tif,141,1.5,0,1.63333333333333,6876.381661291,6879.482064083,6,NaN,6879.488097291,6879.506460833,6881.133184125,NaN,NaN
127,8,2,usability,0,bathroom,sun_acduarbnmmoglmiv.tif,126,1.5,0,1.2,6881.153279166,6885.466571083,3,NaN,6885.47229225,6885.490650375,6886.68404425,NaN,NaN
127,9,2,usability,0,bathroom,sun_ahqjwnzgolcaoidx.tif,139,1.5,0,1.71666666666667,6886.699186875,6890.946040291,3,NaN,6890.952357958,6890.972058333,6892.682122958,NaN,NaN
127,10,2,usability,0,bathroom,sun_asfwthctfqerjvxr.tif,159,1.5,0,0.9,6892.699752666,6897.386150958,5,NaN,6897.392403583,6897.410891958,6898.304230416,NaN,NaN
127,11,2,usability,0,bathroom,sun_apjevzvycyhuqghb.tif,153,1.5,0,0.9,6898.309077833,6901.077996208,5,NaN,6901.105678166,6901.129055791,6902.02239425,NaN,NaN
127,12,2,usability,0,bathroom,sun_agguqiubmwhqqunb.tif,132,1.5,0,0.766666666666667,6902.027248291,6904.643769041,3,NaN,6904.672589083,6904.69595025,6905.455955333,NaN,NaN
127,13,2,usability,0,bathroom,sun_acegryoqftbzowsg.tif,127,1.5,0,0.966666666666667,6905.461408458,6908.666644041,4,NaN,6908.672171916,6908.690376583,6909.650382083,NaN,NaN
127,14,2,usability,0,bathroom,sun_apkruvsevgegsdwp.tif,154,1.5,0,0.7,6909.654990916,6914.738766833,5,NaN,6914.744306916,6914.76269025,6915.45602875,NaN,NaN
127,15,2,usability,0,bathroom,sun_aunuadmjocsddsrl.tif,162,1.5,0,1.1,6915.460347958,6918.189903375,2,NaN,6918.218744958,6918.241932625,6919.335324166,NaN,NaN
127,16,2,usability,0,bathroom,sun_axyrejkiiaqiurjk.tif,169,1.5,0,1.33333333333333,6919.345576666,6922.338662791,6,NaN,6922.344313208,6922.362554791,6923.689269708,NaN,NaN
127,17,2,usability,0,bathroom,sun_ausgutylgojavyoq.tif,163,1.5,0,1.15,6923.70667425,6926.402041833,4,NaN,6926.409339,6926.427961541,6927.571327625,NaN,NaN
127,18,2,usability,0,bathroom,sun_aapitsgbtktqubfy.tif,122,1.5,0,1.28333333333333,6927.583224583,6930.25039425,5,NaN,6930.256056541,6930.274462041,6931.551176958,NaN,NaN
127,19,2,usability,0,bathroom,sun_agyqfjcfkdcydepw.tif,135,1.5,0,1.35,6931.562051291,6934.458233791,7,NaN,6934.463892,6934.482155875,6935.825547166,NaN,NaN
127,20,2,usability,0,bathroom,sun_abapwbhyhkfixyex.tif,124,1.5,0,1.43333333333333,6935.842167041,6938.506507708,6,NaN,6938.512079375,6938.53042525,6939.957128125,NaN,NaN
127,21,2,usability,0,bathroom,sun_auzqhkafidnkrwmo.tif,164,1.5,0,0.916666666666667,6939.975728291,6942.898622958,6,NaN,6942.904225875,6942.922531833,6943.8325375,NaN,NaN
127,22,2,usability,0,bathroom,sun_anryaplzeujmzfkd.tif,149,1.5,0,0.766666666666667,6943.836991458,6947.266656083,6,NaN,6947.272186125,6947.290597041,6948.0506005,NaN,NaN
127,23,2,usability,0,bathroom,sun_anhioqovhscjqqwb.tif,148,1.5,0,0.866666666666667,6948.055219541,6951.930643916,5,NaN,6951.936177875,6951.954431333,6952.814436041,NaN,NaN
127,24,2,usability,0,bathroom,sun_axldvoqbuvuggfmq.tif,167,1.5,0,0.833333333333333,6952.835776458,6956.385629375,3,NaN,6956.391815291,6956.410229583,6957.236902541,NaN,NaN
127,25,2,usability,0,bathroom,sun_aspsyogrekjtfozg.tif,160,1.5,0,0.75,6957.241472791,6960.279512583,5,NaN,6960.308600958,6960.332177958,6961.075516416,NaN,NaN
