sub_num,trial,block,task,is_practice,category,image,texture,duration,mask_dur,jitter,stim_time,time_of_resp,trial_response,mask_time,fix_time,jit_onset,trial_end,trial_accuracy,RT
120,1,0,typicality,1,bathroom,bathroom_practice2.tif,222,1.5,0,1.48333333333333,555.363041208,570.175459958,6,NaN,570.198528125,570.218930875,571.69582925,NaN,NaN
120,2,0,typicality,1,bathroom,bathroom_practice4.tif,224,1.5,0,0.75,571.766796791,581.862873583,6,NaN,581.873387416,581.892643791,582.635991833,NaN,NaN
120,3,0,typicality,1,bathroom,bathroom_practice1.tif,221,1.5,0,1.93333333333333,582.643864791,587.263803083,4,NaN,587.271050125,587.289847125,589.216701333,NaN,NaN
120,4,0,typicality,1,bathroom,bathroom_practice5.tif,225,1.5,0,0.983333333333333,589.253667958,601.846875958,7,NaN,601.855037,601.873781125,602.850460583,NaN,NaN
120,5,0,typicality,1,bathroom,bathroom_practice3.tif,223,1.5,0,0.883333333333333,602.858392458,607.510789291,7,NaN,607.521711041,607.541365708,608.418114916,NaN,NaN
120,1,1,typicality,0,bathroom,sun_aapitsgbtktqubfy.tif,122,1.5,0,0.866666666666667,622.655901458,628.959259125,5,NaN,628.965985541,628.984624333,629.844642958,NaN,NaN
120,2,1,typicality,0,bathroom,sun_aleqenyvunhactkl.tif,142,1.5,0,1.03333333333333,629.849207625,634.591540291,5,NaN,634.598064708,634.616483166,635.64320325,NaN,NaN
120,3,1,typicality,0,bathroom,sun_ajlawzvmubibwbpy.tif,140,1.5,0,0.866666666666667,635.653421541,641.471616416,7,NaN,641.477513791,641.49581475,642.355820333,NaN,NaN
120,4,1,typicality,0,bathroom,sun_alkosphxlxwjwgjd.tif,144,1.5,0,1.61666666666667,642.3609405,647.767438,7,NaN,647.773902958,647.792452,649.402501666,NaN,NaN
120,5,1,typicality,0,bathroom,sun_anhioqovhscjqqwb.tif,148,1.5,0,0.883333333333333,649.421159458,657.150606791,6,NaN,657.157064541,657.175713791,658.052386125,NaN,NaN
120,6,1,typicality,0,bathroom,sun_alotolagknyrgtsk.tif,145,1.5,0,0.933333333333333,658.058116,667.319535708,3,NaN,667.325638958,667.344171208,668.270842625,NaN,NaN
120,7,1,typicality,0,bathroom,sun_aghyqhbptboemmoq.tif,133,1.5,0,1.5,668.276761291,673.63899675,5,NaN,673.645468458,673.663817166,675.15720325,NaN,NaN
120,8,1,typicality,0,bathroom,sun_asfwthctfqerjvxr.tif,159,1.5,0,1.36666666666667,675.169580041,682.871300625,2,NaN,682.878618791,682.896965708,684.257001375,NaN,NaN
120,9,1,typicality,0,bathroom,sun_agyqfjcfkdcydepw.tif,135,1.5,0,0.85,684.272848458,737.190721833,1,NaN,737.196750166,737.215139,738.058477583,NaN,NaN
120,10,1,typicality,0,bathroom,sun_apeeialkgkuxddgh.tif,152,1.5,0,1.81666666666667,738.063632583,744.00611575,4,NaN,744.012813041,744.031109041,745.841139416,NaN,NaN
120,11,1,typicality,0,bathroom,sun_acegryoqftbzowsg.tif,127,1.5,0,1.28333333333333,745.858827958,748.886509833,1,NaN,748.892392583,748.910548791,750.187256625,NaN,NaN
120,12,1,typicality,0,bathroom,sun_anryaplzeujmzfkd.tif,149,1.5,0,1.23333333333333,750.203469666,754.583083416,2,NaN,754.588657833,754.606977291,755.833690125,NaN,NaN
120,13,1,typicality,0,bathroom,sun_amzlamotzwfkwjco.tif,147,1.5,0,0.883333333333333,755.851793208,762.558304916,3,NaN,762.564216,762.582579958,763.459250375,NaN,NaN
120,14,1,typicality,0,bathroom,sun_afcoljnjfoxjtgja.tif,130,1.5,0,0.866666666666667,763.463937541,769.1102435,2,NaN,769.116585041,769.1349655,769.994971333,NaN,NaN
120,15,1,typicality,0,bathroom,sun_aclfzgynxzxlbepz.tif,129,1.5,0,1.36666666666667,770.000311208,776.614376041,4,NaN,776.620255,776.638622,777.998660958,NaN,NaN
120,16,1,typicality,0,bathroom,sun_acduarbnmmoglmiv.tif,126,1.5,0,1.05,778.014483083,782.454796083,4,NaN,782.460401083,782.478679291,783.52206475,NaN,NaN
120,17,1,typicality,0,bathroom,sun_auzqhkafidnkrwmo.tif,164,1.5,0,1.21666666666667,783.530176625,788.526885458,4,NaN,788.532387916,788.550725,789.761167833,NaN,NaN
120,18,1,typicality,0,bathroom,sun_aofnryafpsjimzsb.tif,150,1.5,0,0.816666666666667,789.777993583,794.318993458,3,NaN,794.32456425,794.342745041,795.15275075,NaN,NaN
120,19,1,typicality,0,bathroom,sun_apmqjbnwghzuhhzh.tif,156,1.5,0,1,795.157342041,800.797903583,5,NaN,800.804106916,800.822479208,801.815817,NaN,NaN
120,20,1,typicality,0,bathroom,sun_abjtwfukuwddzted.tif,125,1.5,0,1.21666666666667,801.820985625,810.054969708,4,NaN,810.060778583,810.079269666,811.289336625,NaN,NaN
120,21,1,typicality,0,bathroom,sun_awnqiikzaispgmwo.tif,166,1.5,0,1.46666666666667,811.303074541,815.56628075,4,NaN,815.571900291,815.590395083,817.050445125,NaN,NaN
120,22,1,typicality,0,bathroom,sun_aljolscmmzydegqp.tif,143,1.5,0,1.4,817.059944541,823.48682875,4,NaN,823.492457958,823.51072075,824.904087166,NaN,NaN
120,23,1,typicality,0,bathroom,sun_abapwbhyhkfixyex.tif,124,1.5,0,0.783333333333333,824.9201145,832.454218958,5,NaN,832.459854375,832.478087166,833.254758375,NaN,NaN
120,24,1,typicality,0,bathroom,labelme_sfxiulhjbhlyiyt.tif,121,1.5,0,1.21666666666667,833.259058875,838.086210416,6,NaN,838.091790333,838.109999166,839.320032833,NaN,NaN
120,25,1,typicality,0,bathroom,sun_axldvoqbuvuggfmq.tif,167,1.5,0,1.35,839.336556791,843.814417666,5,NaN,843.819870375,843.838316458,845.181683916,NaN,NaN
120,1,2,typicality,0,bathroom,sun_aoybiabnpadelefl.tif,151,1.5,0,1.65,855.579581333,863.941944125,3,NaN,863.947621625,863.966004625,865.609389125,NaN,NaN
120,2,2,typicality,0,bathroom,sun_apkruvsevgegsdwp.tif,154,1.5,0,1.01666666666667,865.62756025,867.999015666,3,NaN,868.026930166,868.050126541,869.060164833,NaN,NaN
120,3,2,typicality,0,bathroom,sun_ahijqszoswveeyji.tif,138,1.5,0,1.58333333333333,869.068267625,876.181879875,4,NaN,876.187653208,876.20604075,877.782748708,NaN,NaN
120,4,2,typicality,0,bathroom,sun_aunuadmjocsddsrl.tif,162,1.5,0,0.7,877.801437583,884.086524916,6,NaN,884.092675958,884.111085458,884.804423,NaN,NaN
120,5,2,typicality,0,bathroom,sun_apkxzenqapsujocq.tif,155,1.5,0,1.23333333333333,884.808760916,889.677713166,5,NaN,889.683485875,889.701863166,890.928567916,NaN,NaN
120,6,2,typicality,0,bathroom,sun_akiytfaagpdsphgz.tif,141,1.5,0,0.816666666666667,890.944317208,896.694462916,6,NaN,896.700178875,896.71852175,897.528527583,NaN,NaN
120,7,2,typicality,0,bathroom,sun_agrwbmhcpmfuwmsg.tif,134,1.5,0,0.733333333333333,897.533817541,902.398221041,3,NaN,902.404137958,902.422479541,903.149152291,NaN,NaN
120,8,2,typicality,0,bathroom,sun_agguqiubmwhqqunb.tif,132,1.5,0,1.15,903.156980958,907.830000541,3,NaN,907.835576791,907.85396575,908.997343666,NaN,NaN
120,9,2,typicality,0,bathroom,sun_axyrejkiiaqiurjk.tif,169,1.5,0,0.933333333333333,909.005302458,912.405954166,1,NaN,912.411455666,912.429806291,913.3564785,NaN,NaN
120,10,2,typicality,0,bathroom,sun_aavhrsfjbserjtht.tif,123,1.5,0,0.916666666666667,913.361492583,922.486083958,2,NaN,922.491640583,922.509891958,923.41989825,NaN,NaN
120,11,2,typicality,0,bathroom,sun_avhrdrntsqrjzccq.tif,165,1.5,0,1.26666666666667,923.42476375,926.097917625,1,NaN,926.120357083,926.143895791,927.403928541,NaN,NaN
120,12,2,typicality,0,bathroom,sun_aqrpegblszgcoujh.tif,158,1.5,0,0.933333333333333,927.418699125,932.133562875,5,NaN,932.139413,932.157678208,933.084349208,NaN,NaN
120,13,2,typicality,0,bathroom,sun_ambriybtogmepttm.tif,146,1.5,0,1,933.090027583,936.438151791,1,NaN,936.443671666,936.461956333,937.455295916,NaN,NaN
120,14,2,typicality,0,bathroom,sun_acgyywnybuveqsro.tif,128,1.5,0,1,937.46031,944.270080458,5,NaN,944.275554416,944.293748208,945.287086625,NaN,NaN
120,15,2,typicality,0,bathroom,sun_aggnnqpdorgxpvce.tif,131,1.5,0,1.21666666666667,945.292201791,949.221911458,3,NaN,949.227441416,949.245649666,950.4556975,NaN,NaN
120,16,2,typicality,0,bathroom,sun_apjevzvycyhuqghb.tif,153,1.5,0,1.85,950.472827083,954.909787916,5,NaN,954.915318791,954.933651541,956.777037416,NaN,NaN
120,17,2,typicality,0,bathroom,sun_aspsyogrekjtfozg.tif,160,1.5,0,0.766666666666667,956.792773166,975.973889416,4,NaN,975.97942575,975.997812583,976.757819875,NaN,NaN
120,18,2,typicality,0,bathroom,sun_axxbkopsgyouuebh.tif,168,1.5,0,0.966666666666667,976.762929916,982.269930875,5,NaN,982.275426208,982.293702708,983.253706791,NaN,NaN
120,19,2,typicality,0,bathroom,sun_ahaulkltgpkeeemi.tif,136,1.5,0,1.4,983.258454625,992.637377791,5,NaN,992.643423416,992.662087958,994.055467291,NaN,NaN
120,20,2,typicality,0,bathroom,sun_apynckhmoftszqoq.tif,157,1.5,0,0.933333333333333,994.073813125,999.485594375,6,NaN,999.49139,999.5097545,1000.436427833,NaN,NaN
120,21,2,typicality,0,bathroom,sun_ahqjwnzgolcaoidx.tif,139,1.5,0,1.7,1000.441723416,1004.926070041,6,NaN,1004.931576125,1004.950003875,1006.643383833,NaN,NaN
120,22,2,typicality,0,bathroom,sun_ahcvzmoyaycdoftf.tif,137,1.5,0,0.916666666666667,1006.660084166,1010.485537583,7,NaN,1010.491120916,1010.509330833,1011.419336,NaN,NaN
120,23,2,typicality,0,bathroom,sun_ausgutylgojavyoq.tif,163,1.5,0,0.833333333333333,1011.425208875,1015.325772166,5,NaN,1015.331327791,1015.349674791,1016.176347166,NaN,NaN
120,24,2,typicality,0,bathroom,sun_azqyogdvyhahyram.tif,170,1.5,0,0.783333333333333,1016.180655916,1019.350055208,5,NaN,1019.356783333,1019.374987416,1020.151657416,NaN,NaN
120,25,2,typicality,0,bathroom,sun_atstyziqcmkahyxk.tif,161,1.5,0,1.4,1020.156121333,1023.301830625,5,NaN,1023.307564,1023.325841208,1024.719227083,NaN,NaN
