sub_num,trial,block,task,is_practice,category,image,texture,duration,mask_dur,jitter,stim_time,time_of_resp,trial_response,mask_time,fix_time,jit_onset,trial_end,trial_accuracy,RT
141,6,0,familiarity,1,kitchen,kitchen_practice2.tif,227,1.5,0,0.733333333333333,8768.510008333,8771.917455958,4,NaN,8771.92305275,8771.941313667,8772.667986625,NaN,NaN
141,7,0,familiarity,1,kitchen,kitchen_practice3.tif,228,1.5,0,1.3,8772.672762375,8775.545272208,1,NaN,8775.573696833,8775.595999167,8776.889379833,NaN,NaN
141,8,0,familiarity,1,kitchen,kitchen_practice1.tif,226,1.5,0,2,8776.908442625,8779.62909425,4,NaN,8779.634549083,8779.652883917,8781.64624725,NaN,NaN
141,9,0,familiarity,1,kitchen,kitchen_practice5.tif,230,1.5,0,1.81666666666667,8781.666226292,8784.401001167,4,NaN,8784.429787458,8784.453570958,8786.263602125,NaN,NaN
141,10,0,familiarity,1,kitchen,kitchen_practice4.tif,229,1.5,0,0.75,8786.282924167,8789.860704458,2,NaN,8789.866692,8789.884814792,8790.628151958,NaN,NaN
141,1,1,familiarity,0,kitchen,sun_acxkpeoqbwcxfvip.tif,187,1.5,0,0.866666666666667,8795.194315208,8798.549644833,1,NaN,8798.555654542,8798.574432542,8799.4344995,NaN,NaN
141,2,1,familiarity,0,kitchen,sun_aggjlwcdjsjcaemh.tif,196,1.5,0,1.01666666666667,8799.44971125,8804.43661,7,NaN,8804.443353,8804.461837292,8805.472015917,NaN,NaN
141,3,1,familiarity,0,kitchen,sun_agorklincwxrdtga.tif,197,1.5,0,1.78333333333333,8805.480689208,8809.717143542,1,NaN,8809.722668875,8809.741014667,8811.517727583,NaN,NaN
141,4,1,familiarity,0,kitchen,sun_aadbddgrdsjugojn.tif,174,1.5,0,1.85,8811.53756625,8814.95803325,1,NaN,8814.965945375,8814.985060833,8816.828427125,NaN,NaN
141,5,1,familiarity,0,kitchen,sun_ahdycvpopffkzzsu.tif,200,1.5,0,1.83333333333333,8816.848404792,8821.42859875,6,NaN,8821.434616417,8821.452980375,8823.279701625,NaN,NaN
141,6,1,familiarity,0,kitchen,sun_ahljzhgcdpomplvg.tif,201,1.5,0,1.56666666666667,8823.299839708,8826.301149625,6,NaN,8826.329900625,8826.353935667,8827.913984,NaN,NaN
141,7,1,familiarity,0,kitchen,sun_agzzivivdpnawacl.tif,199,1.5,0,1.31666666666667,8827.926234667,8832.260573292,1,NaN,8832.266575333,8832.284888542,8833.594927792,NaN,NaN
141,8,1,familiarity,0,kitchen,sun_ahspylgoovwmwvgk.tif,203,1.5,0,1.75,8833.612661667,8836.348590125,1,NaN,8836.354587083,8836.373016125,8838.11640425,NaN,NaN
141,9,1,familiarity,0,kitchen,sun_azmutvzbxypaceni.tif,220,1.5,0,1.9,8838.134860792,8841.861322792,4,NaN,8841.866752167,8841.885107708,8843.778490542,NaN,NaN
141,10,1,familiarity,0,kitchen,sun_agubuxuukhzyzpdp.tif,198,1.5,0,1.76666666666667,8843.795828125,8846.985383667,1,NaN,8847.014943292,8847.038125667,8848.798176167,NaN,NaN
141,11,1,familiarity,0,kitchen,labelme_kxvouciolcpqplr.tif,172,1.5,0,1.05,8848.8174375,8852.168609083,4,NaN,8852.197242625,8852.220587833,8853.263965708,NaN,NaN
141,12,1,familiarity,0,kitchen,labelme_brsyyvweiuaazfr.tif,171,1.5,0,1.58333333333333,8853.273560292,8861.0686395,4,NaN,8861.074530625,8861.092906667,8862.669616833,NaN,NaN
141,13,1,familiarity,0,kitchen,sun_aegoxogugdkwpmpj.tif,190,1.5,0,0.983333333333333,8862.688295375,8865.310536542,1,NaN,8865.339515083,8865.362983,8866.339655875,NaN,NaN
141,14,1,familiarity,0,kitchen,sun_adgqasybjyktddhj.tif,188,1.5,0,0.733333333333333,8866.345479167,8869.446696208,6,NaN,8869.463202708,8869.484087208,8870.210759417,NaN,NaN
141,15,1,familiarity,0,kitchen,sun_akchetnepxlcxhsu.tif,208,1.5,0,1.13333333333333,8870.215990125,8873.308446458,6,NaN,8873.315017833,8873.333441833,8874.460158458,NaN,NaN
141,16,1,familiarity,0,kitchen,sun_acgtpgfybqjmzeyw.tif,185,1.5,0,1.58333333333333,8874.468479583,8878.357443792,6,NaN,8878.362966333,8878.381311958,8879.958003917,NaN,NaN
141,17,1,familiarity,0,kitchen,sun_abrcnpqqhmjwekyf.tif,183,1.5,0,0.783333333333333,8879.969730208,8887.596450708,4,NaN,8887.60238625,8887.620683625,8888.397355333,NaN,NaN
141,18,1,familiarity,0,kitchen,sun_aapllqyqlykszopd.tif,176,1.5,0,0.8,8888.416148708,8891.098098833,4,NaN,8891.126343208,8891.149061417,8891.942398917,NaN,NaN
141,19,1,familiarity,0,kitchen,sun_aymvwlarqodbwuoc.tif,218,1.5,0,1.7,8891.949335958,8894.853583917,4,NaN,8894.882245417,8894.905453583,8896.598842583,NaN,NaN
141,20,1,familiarity,0,kitchen,sun_abftihopvusyfakt.tif,181,1.5,0,1.48333333333333,8896.616983083,8899.208455917,4,NaN,8899.236128542,8899.259293583,8900.735994375,NaN,NaN
141,21,1,familiarity,0,kitchen,sun_acwjdupvyjsugpay.tif,186,1.5,0,0.966666666666667,8900.753617125,8903.580743417,4,NaN,8903.586378167,8903.60472325,8904.564728583,NaN,NaN
141,22,1,familiarity,0,kitchen,sun_aexklacwqwezaorf.tif,194,1.5,0,1.28333333333333,8904.569636417,8907.383961,4,NaN,8907.41223,8907.435408,8908.712129,NaN,NaN
141,23,1,familiarity,0,kitchen,sun_auaiucuqpdausiva.tif,212,1.5,0,0.783333333333333,8908.728266583,8912.461211917,4,NaN,8912.466654,8912.485003833,8913.26167875,NaN,NaN
141,24,1,familiarity,0,kitchen,sun_aamedkxepzlwuxes.tif,175,1.5,0,1.36666666666667,8913.267343708,8917.468303792,1,NaN,8917.474360458,8917.492699708,8918.852750792,NaN,NaN
141,25,1,familiarity,0,kitchen,labelme_rykdqxenmhulbdn.tif,173,1.5,0,1.45,8918.871996167,8922.045087708,4,NaN,8922.050481333,8922.068731125,8923.512096792,NaN,NaN
141,1,2,familiarity,0,kitchen,sun_ajcbwwvdlsvjyzje.tif,206,1.5,0,1.81666666666667,8930.874462292,8934.092237708,4,NaN,8934.09933825,8934.11780125,8935.927824333,NaN,NaN
141,2,2,familiarity,0,kitchen,sun_aypmqwcualkenuoe.tif,219,1.5,0,0.816666666666667,8935.938023125,8938.405037,4,NaN,8938.428964833,8938.452503,8939.262556708,NaN,NaN
141,3,2,familiarity,0,kitchen,sun_ahpczsiumwwocjkv.tif,202,1.5,0,0.9,8939.274904083,8943.6207,4,NaN,8943.626315417,8943.644642125,8944.537981667,NaN,NaN
141,4,2,familiarity,0,kitchen,sun_acfmftudsenhrfhy.tif,184,1.5,0,0.933333333333333,8944.54300925,8947.180073958,1,NaN,8947.205317708,8947.228466875,8948.155137208,NaN,NaN
141,5,2,familiarity,0,kitchen,sun_afuyedyxivkhecmu.tif,195,1.5,0,1.48333333333333,8948.160163583,8950.640464208,1,NaN,8950.665068208,8950.688178167,8952.164891667,NaN,NaN
141,6,2,familiarity,0,kitchen,sun_axyyrmzcupyhlivc.tif,217,1.5,0,1.48333333333333,8952.18262825,8954.868847083,4,NaN,8954.8742835,8954.892603417,8956.36931275,NaN,NaN
141,7,2,familiarity,0,kitchen,sun_aenotlpyftoioydp.tif,192,1.5,0,1.43333333333333,8956.387964792,8960.108397667,1,NaN,8960.114090333,8960.132809583,8961.559506917,NaN,NaN
141,8,2,familiarity,0,kitchen,sun_avszsnwsbuqfgzbn.tif,215,1.5,0,0.733333333333333,8961.577378167,8964.292169083,4,NaN,8964.298318458,8964.317296625,8965.043968333,NaN,NaN
141,9,2,familiarity,0,kitchen,sun_abpwyqmlzafvklqo.tif,182,1.5,0,0.966666666666667,8965.048046792,8970.6849225,2,NaN,8970.690304875,8970.7086315,8971.668635708,NaN,NaN
141,10,2,familiarity,0,kitchen,sun_aixorpehvfykdynp.tif,205,1.5,0,0.916666666666667,8971.673176,8975.14096025,2,NaN,8975.146666625,8975.165042417,8976.075048417,NaN,NaN
141,11,2,familiarity,0,kitchen,sun_abdxkyyxwfskuaqb.tif,180,1.5,0,1.03333333333333,8976.082083583,8979.039684958,1,NaN,8979.064915958,8979.087586792,8980.114291125,NaN,NaN
141,12,2,familiarity,0,kitchen,sun_abdenxonkemggwsq.tif,179,1.5,0,0.733333333333333,8980.124496,8986.196362958,4,NaN,8986.202234083,8986.220643375,8986.947315458,NaN,NaN
141,13,2,familiarity,0,kitchen,sun_aehawpgmrlhlvcow.tif,191,1.5,0,1.13333333333333,8986.95152725,8990.348281542,1,NaN,8990.354313042,8990.372570417,8991.499291833,NaN,NaN
141,14,2,familiarity,0,kitchen,sun_ajkqhtgcbgpcwrwn.tif,207,1.5,0,0.883333333333333,8991.508550417,8997.268910083,1,NaN,8997.274558958,8997.293045958,8998.169716583,NaN,NaN
141,15,2,familiarity,0,kitchen,sun_aarfiyshqohlwkmo.tif,177,1.5,0,1.85,8998.174549208,9001.708433417,4,NaN,9001.713921167,9001.732565375,9003.57593375,NaN,NaN
141,16,2,familiarity,0,kitchen,sun_aeqdocilnnpuvuhx.tif,193,1.5,0,0.733333333333333,9003.5916215,9007.07657,4,NaN,9007.083010583,9007.1012205,9007.827891167,NaN,NaN
141,17,2,familiarity,0,kitchen,sun_aqeaevwwwjoqhzvl.tif,211,1.5,0,1.95,9007.833400833,9012.80453475,1,NaN,9012.810087417,9012.828280083,9014.771660167,NaN,NaN
141,18,2,familiarity,0,kitchen,sun_auticobqsbwgoppi.tif,214,1.5,0,1.1,9014.786451125,9017.859744208,1,NaN,9017.889943417,9017.911057708,9019.004442375,NaN,NaN
141,19,2,familiarity,0,kitchen,sun_aaxxjlsuzvqlgylf.tif,178,1.5,0,1.31666666666667,9019.0123165,9021.917029917,1,NaN,9021.922474792,9021.940724667,9023.250763667,NaN,NaN
141,20,2,familiarity,0,kitchen,sun_amjjdeyrggfqgmom.tif,210,1.5,0,1.78333333333333,9023.269114708,9025.955982875,1,NaN,9025.961982208,9025.980202958,9027.756917875,NaN,NaN
141,21,2,familiarity,0,kitchen,sun_aunzlwrbjumxhwdj.tif,213,1.5,0,1.33333333333333,9027.77223675,9030.789655708,1,NaN,9030.818268792,9030.841007042,9032.167721042,NaN,NaN
141,22,2,familiarity,0,kitchen,sun_awcpdzzznmweyyhv.tif,216,1.5,0,0.95,9032.185406625,9035.428286083,4,NaN,9035.434060292,9035.452347625,9036.395685625,NaN,NaN
141,23,2,familiarity,0,kitchen,sun_akcjzhbbjlbogpdi.tif,209,1.5,0,1.93333333333333,9036.400165917,9039.473229917,4,NaN,9039.502006458,9039.522770958,9041.44948975,NaN,NaN
141,24,2,familiarity,0,kitchen,sun_ahywdevtimnqcsln.tif,204,1.5,0,1.28333333333333,9041.465375042,9045.172325458,4,NaN,9045.177780333,9045.196097,9046.472795667,NaN,NaN
141,25,2,familiarity,0,kitchen,sun_admlmbcdswaszruo.tif,189,1.5,0,1.43333333333333,9046.487302625,9052.732896333,4,NaN,9052.738427125,9052.756803292,9054.183513417,NaN,NaN
