slide,sub1,sub2,pairID,trialID,stim1,stim2,instructionsLoop.thisRepN,instructionsLoop.thisTrialN,instructionsLoop.thisN,instructionsLoop.thisIndex,practice.thisRepN,practice.thisTrialN,practice.thisN,practice.thisIndex,trials.thisRepN,trials.thisTrialN,trials.thisN,trials.thisIndex,thisRow.t,notes,preparation.started,preparation.stopped,instructions.started,startResponse.started,slide_img.started,instructions.stopped,startResponse.keys,startResponse.rt,startResponse.duration,trial.started,polygon.started,polygon_2.started,image1.started,image2.started,rating_1.started,question.started,rating_2.started,question_2.started,block_text.started,trial.stopped,stim1pos,stim2pos,block,rating_1.response,rating_1.rt,rating_2.response,rating_2.rt,ITI.started,text.started,text.stopped,ITI.stopped,practice_over.started,text_2.started,space_practice_over.started,practice_over.stopped,space_practice_over.keys,space_practice_over.rt,space_practice_over.duration,breakBlocks.started,breakBlocks.stopped,startBlock.keys,startBlock.started,startBlock.rt,startBlock.duration,end.started,message_end.started,key_resp.started,end.stopped,key_resp.keys,key_resp.rt,key_resp.duration,participant,session,session_number,date,expName,psychopyVersion,frameRate,expStart,
instructions/Slide2.jpg,,,,,,,0,0,0,0,,,,,,,,,0.03596583400002373,,0.002104625000015403,0.0022171670000261656,0.009908709000001181,0.03596583400002373,0.03596583400002373,8.200132625000037,space,8.163816875000009,None,,,,,,,,,,,,,,,,,,,,,,,,,,,,,,,,,,,,,,,,,,,204,kitchen,1,2024-03-14_11h32.48.122,image_similarity_rating,2023.2.3,None,2024-03-14 11h33.00.047090 +0100,
instructions/Slide3.jpg,,,,,,,0,1,1,1,,,,,,,,,8.226045209000006,,,,8.20144775,8.226045209000006,8.226045209000006,11.589783417000035,space,3.363487999999961,None,,,,,,,,,,,,,,,,,,,,,,,,,,,,,,,,,,,,,,,,,,,204,kitchen,1,2024-03-14_11h32.48.122,image_similarity_rating,2023.2.3,None,2024-03-14 11h33.00.047090 +0100,
instructions/Slide4.jpg,,,,,,,0,2,2,2,,,,,,,,,11.610592750000023,,,,11.590353917000016,11.610592750000023,11.610592750000023,13.302940292000017,space,1.6920214589999887,None,,,,,,,,,,,,,,,,,,,,,,,,,,,,,,,,,,,,,,,,,,,204,kitchen,1,2024-03-14_11h32.48.122,image_similarity_rating,2023.2.3,None,2024-03-14 11h33.00.047090 +0100,
instructions/Slide5.jpg,,,,,,,0,3,3,3,,,,,,,,,13.33029112500003,,,,13.303735000000017,13.33029112500003,13.33029112500003,15.856476250000014,space,2.5258201670000062,None,,,,,,,,,,,,,,,,,,,,,,,,,,,,,,,,,,,,,,,,,,,204,kitchen,1,2024-03-14_11h32.48.122,image_similarity_rating,2023.2.3,None,2024-03-14 11h33.00.047090 +0100,
,108,110,practice,8,stimuli/own/kitchen/108_kit.jpg,stimuli/own/kitchen/110_kit.jpg,,,,,0,0,0,7,,,,,16.091357042000027,,,,,,,,,,,15.882547208999995,16.091357042000027,16.091357042000027,16.091357042000027,16.091357042000027,16.091357042000027,16.091357042000027,16.091357042000027,16.091357042000027,16.091357042000027,44.041289500000005,-7,7,0,3.0,23.687373374999993,7.0,12.882837457999983,44.04151712500004,44.05119758400002,44.50437091700002,44.33581733400001,,,,,,,,,,,,,,,,,,,,,204,kitchen,1,2024-03-14_11h32.48.122,image_similarity_rating,2023.2.3,None,2024-03-14 11h33.00.047090 +0100,
,128,108,practice,3,stimuli/own/kitchen/128_kit.jpg,stimuli/own/kitchen/108_kit.jpg,,,,,0,1,1,2,,,,,44.50437091700002,,,,,,,,,,,44.336270375000026,44.50437091700002,44.50437091700002,44.50437091700002,44.50437091700002,44.50437091700002,44.50437091700002,44.50437091700002,44.50437091700002,44.50437091700002,58.24987950000002,-7,7,0,1.0,12.819932833000053,7.0,7.581161791999989,58.25002133400005,58.252978041999995,58.704188084000066,58.53600458400001,,,,,,,,,,,,,,,,,,,,,204,kitchen,1,2024-03-14_11h32.48.122,image_similarity_rating,2023.2.3,None,2024-03-14 11h33.00.047090 +0100,
,110,128,practice,2,stimuli/own/kitchen/110_kit.jpg,stimuli/own/kitchen/128_kit.jpg,,,,,0,2,2,1,,,,,58.704188084000066,,,,,,,,,,,58.53650162500003,58.704188084000066,58.704188084000066,58.704188084000066,58.704188084000066,58.704188084000066,58.704188084000066,58.704188084000066,58.704188084000066,58.704188084000066,71.29109766700003,7,-7,0,1.0,12.487306792000027,7.0,8.996758458000045,71.29126770900007,71.30121900000006,71.75291020899999,71.58629854200001,,,,,,,,,,,,,,,,,,,,,204,kitchen,1,2024-03-14_11h32.48.122,image_similarity_rating,2023.2.3,None,2024-03-14 11h33.00.047090 +0100,
,107,133,practice,9,stimuli/own/kitchen/107_kit.jpg,stimuli/own/kitchen/133_kit.jpg,,,,,0,3,3,8,,,,,71.75291020899999,,,,,,,,,,,71.58677179200004,71.75291020899999,71.75291020899999,71.75291020899999,71.75291020899999,71.75291020899999,71.75291020899999,71.75291020899999,71.75291020899999,71.75291020899999,85.88745816699998,7,-7,0,4.0,13.906318917000021,4.0,5.753490249999913,85.88760000000002,85.88967604200002,86.34316458399996,86.17323854200004,,,,,,,,,,,,,,,,,,,,,204,kitchen,1,2024-03-14_11h32.48.122,image_similarity_rating,2023.2.3,None,2024-03-14 11h33.00.047090 +0100,
,107,108,practice,5,stimuli/own/kitchen/107_kit.jpg,stimuli/own/kitchen/108_kit.jpg,,,,,0,4,4,4,,,,,86.34316458399996,,,,,,,,,,,86.173709917,86.34316458399996,86.34316458399996,86.34316458399996,86.34316458399996,86.34316458399996,86.34316458399996,86.34316458399996,86.34316458399996,86.34316458399996,100.70390333399996,7,-7,0,3.0,14.164968416000079,6.0,7.188891957999999,100.70404625000003,100.70611454200002,101.15964791700003,100.99003600000003,,,,,,,,,,,,,,,,,,,,,204,kitchen,1,2024-03-14_11h32.48.122,image_similarity_rating,2023.2.3,None,2024-03-14 11h33.00.047090 +0100,
,110,133,practice,1,stimuli/own/kitchen/110_kit.jpg,stimuli/own/kitchen/133_kit.jpg,,,,,0,5,5,0,,,,,101.15964791700003,,,,,,,,,,,100.99048666700003,101.15964791700003,101.15964791700003,101.15964791700003,101.15964791700003,101.15964791700003,101.15964791700003,101.15964791700003,101.15964791700003,101.15964791700003,115.18312349999997,-7,7,0,4.0,13.908915499999921,4.0,4.431393250000042,115.18329537500006,115.18553416700001,115.634964459,115.46903137499999,,,,,,,,,,,,,,,,,,,,,204,kitchen,1,2024-03-14_11h32.48.122,image_similarity_rating,2023.2.3,None,2024-03-14 11h33.00.047090 +0100,
,108,133,practice,10,stimuli/own/kitchen/108_kit.jpg,stimuli/own/kitchen/133_kit.jpg,,,,,0,6,6,9,,,,,115.634964459,,,,,,,,,,,115.46947933399997,115.634964459,115.634964459,115.634964459,115.634964459,115.634964459,115.634964459,115.634964459,115.634964459,115.634964459,136.649420125,-7,7,0,4.0,20.964341375000004,4.0,14.75364316699995,136.64955904199996,136.652196709,137.10560970899996,136.93549741699997,,,,,,,,,,,,,,,,,,,,,204,kitchen,1,2024-03-14_11h32.48.122,image_similarity_rating,2023.2.3,None,2024-03-14 11h33.00.047090 +0100,
,107,128,practice,7,stimuli/own/kitchen/107_kit.jpg,stimuli/own/kitchen/128_kit.jpg,,,,,0,7,7,6,,,,,137.10560970899996,,,,,,,,,,,136.93598220900003,137.10560970899996,137.10560970899996,137.10560970899996,137.10560970899996,137.10560970899996,137.10560970899996,137.10560970899996,137.10560970899996,137.10560970899996,149.90401704199996,-7,7,0,5.0,11.584093332999942,6.0,4.076634457999944,149.90416025000002,149.90606954200007,150.35247845900005,150.18897745900006,,,,,,,,,,,,,,,,,,,,,204,kitchen,1,2024-03-14_11h32.48.122,image_similarity_rating,2023.2.3,None,2024-03-14 11h33.00.047090 +0100,
,128,133,practice,6,stimuli/own/kitchen/128_kit.jpg,stimuli/own/kitchen/133_kit.jpg,,,,,0,8,8,5,,,,,150.35247845900005,,,,,,,,,,,150.18928533400003,150.35247845900005,150.35247845900005,150.35247845900005,150.35247845900005,150.35247845900005,150.35247845900005,150.35247845900005,150.35247845900005,150.35247845900005,161.25317325000003,-7,7,0,5.0,10.736233125000012,4.0,3.2235320839999986,161.25331291700002,161.25506229200005,161.70300437499998,161.53911937500004,,,,,,,,,,,,,,,,,,,,,204,kitchen,1,2024-03-14_11h32.48.122,image_similarity_rating,2023.2.3,None,2024-03-14 11h33.00.047090 +0100,
,110,107,practice,4,stimuli/own/kitchen/110_kit.jpg,stimuli/own/kitchen/107_kit.jpg,,,,,0,9,9,3,,,,,161.70300437499998,,,,,,,,,,,161.53951695900003,161.70300437499998,161.70300437499998,161.70300437499998,161.70300437499998,161.70300437499998,161.70300437499998,161.70300437499998,161.70300437499998,161.70300437499998,177.62452529200004,7,-7,0,3.0,15.768476125000007,6.0,9.579699165999955,177.62467545900006,177.63396483400004,177.923211917,177.91834983399997,,,,,,,,,,,,,,,,,,,,,204,kitchen,1,2024-03-14_11h32.48.122,image_similarity_rating,2023.2.3,None,2024-03-14 11h33.00.047090 +0100,
,,,,,,,,,,,,,,,,,,,,,,,,,,,,,,,,,,,,,,,,,,,,,,,,,,,,177.918442292,177.923211917,177.923211917,234.40955250000002,space,56.486125833000074,None,,,,,,,,,,,,,,204,kitchen,1,2024-03-14_11h32.48.122,image_similarity_rating,2023.2.3,None,2024-03-14 11h33.00.047090 +0100,
,124,127,478,478,stimuli/own/kitchen/124_kit.jpg,stimuli/own/kitchen/127_kit.jpg,,,,,,,,,0,0,0,477,234.45975129199996,,,,,,,,,,,234.751642125,234.93310725000003,234.93310725000003,234.93310725000003,234.93310725000003,234.93310725000003,234.93310725000003,234.93310725000003,234.93310725000003,234.93310725000003,245.89911579199998,7,-7,1,5.0,8.059519041000044,4.0,10.049211833000072,234.457551792,234.45975129199996,234.93310725000003,234.751624667,,,,,,,,234.44350362500006,234.45725208400006,None,,,,,,,,,,,204,kitchen,1,2024-03-14_11h32.48.122,image_similarity_rating,2023.2.3,None,2024-03-14 11h33.00.047090 +0100,
,103,136,94,94,stimuli/own/kitchen/103_kit.jpg,stimuli/own/kitchen/136_kit.jpg,,,,,,,,,0,1,1,93,245.90751495899997,,,,,,,,,,,246.20146491700007,246.36761891700007,246.36761891700007,246.36761891700007,246.36761891700007,246.36761891700007,246.36761891700007,246.36761891700007,246.36761891700007,246.36761891700007,271.594400167,-7,7,1,4.0,25.149756583,3.0,14.440250208000066,245.90558250000004,245.90751495899997,246.36761891700007,246.20145041700005,,,,,,,,245.89971691699998,245.90553116700005,None,,,,,,,,,,,204,kitchen,1,2024-03-14_11h32.48.122,image_similarity_rating,2023.2.3,None,2024-03-14 11h33.00.047090 +0100,
,101,123,18,18,stimuli/own/kitchen/101_kit.jpg,stimuli/own/kitchen/123_kit.jpg,,,,,,,,,0,2,2,17,271.61698591699997,,,,,,,,,,,271.90093225,272.068876542,272.068876542,272.068876542,272.068876542,272.068876542,272.068876542,272.068876542,272.068876542,272.068876542,285.557293792,7,-7,1,5.0,10.527564125000026,3.0,13.288295167000001,271.598145834,271.61698591699997,,271.900912167,,,,,,,,271.594622375,271.5980984170001,None,,,,,,,,,,,204,kitchen,1,2024-03-14_11h32.48.122,image_similarity_rating,2023.2.3,None,2024-03-14 11h33.00.047090 +0100,
,106,112,163,163,stimuli/own/kitchen/106_kit.jpg,stimuli/own/kitchen/112_kit.jpg,,,,,,,,,0,3,3,162,285.566912375,,,,,,,,,,,285.852085084,286.01910366699997,286.01910366699997,286.01910366699997,286.01910366699997,286.01910366699997,286.01910366699997,286.01910366699997,286.01910366699997,286.01910366699997,305.23246137500007,7,-7,1,1.0,18.74644562499998,2.0,6.671629707999955,285.56112862500004,285.566912375,286.01910366699997,285.85207004200004,,,,,,,,285.55751520900003,285.56108075,None,,,,,,,,,,,204,kitchen,1,2024-03-14_11h32.48.122,image_similarity_rating,2023.2.3,None,2024-03-14 11h33.00.047090 +0100,
,116,119,322,322,stimuli/own/kitchen/116_kit.jpg,stimuli/own/kitchen/119_kit.jpg,,,,,,,,,0,4,4,321,305.2381395,,,,,,,,,,,305.52230258400004,305.68696495899997,305.68696495899997,305.68696495899997,305.68696495899997,305.68696495899997,305.68696495899997,305.68696495899997,305.68696495899997,305.68696495899997,329.58580325,-7,7,1,2.0,17.812651540999923,2.0,23.74427070799993,305.236222625,305.2381395,305.68696495899997,305.52229220900006,,,,,,,,305.232681209,305.23617483400005,None,,,,,,,,,,,204,kitchen,1,2024-03-14_11h32.48.122,image_similarity_rating,2023.2.3,None,2024-03-14 11h33.00.047090 +0100,
,121,135,436,436,stimuli/own/kitchen/121_kit.jpg,stimuli/own/kitchen/135_kit.jpg,,,,,,,,,0,5,5,435,329.59137966700007,,,,,,,,,,,329.88505250000003,330.05003750000003,330.05003750000003,330.05003750000003,330.05003750000003,330.05003750000003,330.05003750000003,330.05003750000003,330.05003750000003,330.05003750000003,341.83927883399997,-7,7,1,5.0,11.697811999999999,4.0,4.326351249999902,329.589614709,329.59137966700007,330.05003750000003,329.88503875000004,,,,,,,,329.58602362500005,329.58956716700004,None,,,,,,,,,,,204,kitchen,1,2024-03-14_11h32.48.122,image_similarity_rating,2023.2.3,None,2024-03-14 11h33.00.047090 +0100,
,101,105,4,4,stimuli/own/kitchen/101_kit.jpg,stimuli/own/kitchen/105_kit.jpg,,,,,,,,,0,6,6,3,341.84972700000003,,,,,,,,,,,342.13430937500004,342.299046792,342.299046792,342.299046792,342.299046792,342.299046792,342.299046792,342.299046792,342.299046792,342.299046792,355.67296825000005,7,-7,1,3.0,13.121807417000014,4.0,7.135648791999984,341.84310245899997,341.84972700000003,342.299046792,342.134296417,,,,,,,,341.8395025,341.843054959,None,,,,,,,,,,,204,kitchen,1,2024-03-14_11h32.48.122,image_similarity_rating,2023.2.3,None,2024-03-14 11h33.00.047090 +0100,
,101,111,7,7,stimuli/own/kitchen/101_kit.jpg,stimuli/own/kitchen/111_kit.jpg,,,,,,,,,0,7,7,6,355.68318733399997,,,,,,,,,,,355.96768604199997,356.13352491700005,356.13352491700005,356.13352491700005,356.13352491700005,356.13352491700005,356.13352491700005,356.13352491700005,356.13352491700005,356.13352491700005,368.694486667,-7,7,1,2.0,12.319196874999989,2.0,3.284769084000004,355.67666695900004,355.68318733399997,356.13352491700005,355.967670417,,,,,,,,355.673193167,355.67661962500006,None,,,,,,,,,,,204,kitchen,1,2024-03-14_11h32.48.122,image_similarity_rating,2023.2.3,None,2024-03-14 11h33.00.047090 +0100,
,120,129,413,413,stimuli/own/kitchen/120_kit.jpg,stimuli/own/kitchen/129_kit.jpg,,,,,,,,,0,8,8,412,368.716411459,,,,,,,,,,,369.00050395900007,369.17370979200007,369.17370979200007,369.17370979200007,369.17370979200007,369.17370979200007,369.17370979200007,369.17370979200007,369.17370979200007,369.17370979200007,390.632735,7,-7,1,2.0,21.215977250000037,1.0,19.88869412500003,368.69828708400007,368.716411459,,369.00048170900004,,,,,,,,368.69470812500003,368.69823933400005,None,,,,,,,,,,,204,kitchen,1,2024-03-14_11h32.48.122,image_similarity_rating,2023.2.3,None,2024-03-14 11h33.00.047090 +0100,
,121,124,427,427,stimuli/own/kitchen/121_kit.jpg,stimuli/own/kitchen/124_kit.jpg,,,,,,,,,0,9,9,426,390.638232917,,,,,,,,,,,390.92311945899996,391.08958370900007,391.08958370900007,391.08958370900007,391.08958370900007,391.08958370900007,391.08958370900007,391.08958370900007,391.08958370900007,391.08958370900007,407.910346959,7,-7,1,4.0,16.763587667000024,3.0,7.994680458000062,390.636465584,390.638232917,391.08958370900007,390.92310670899997,,,,,,,,390.63295508400006,390.63641808400007,None,,,,,,,,,,,204,kitchen,1,2024-03-14_11h32.48.122,image_similarity_rating,2023.2.3,None,2024-03-14 11h33.00.047090 +0100,
,120,134,417,417,stimuli/own/kitchen/120_kit.jpg,stimuli/own/kitchen/134_kit.jpg,,,,,,,,,0,10,10,416,407.915997167,,,,,,,,,,,408.201028417,408.36735591700005,408.36735591700005,408.36735591700005,408.36735591700005,408.36735591700005,408.36735591700005,408.36735591700005,408.36735591700005,408.36735591700005,429.57420375000004,7,-7,1,2.0,8.625021791999984,3.0,21.05652441699999,407.91417458399997,407.915997167,408.36735591700005,408.201007,,,,,,,,407.910574625,407.91412725,None,,,,,,,,,,,204,kitchen,1,2024-03-14_11h32.48.122,image_similarity_rating,2023.2.3,None,2024-03-14 11h33.00.047090 +0100,
,103,113,74,74,stimuli/own/kitchen/103_kit.jpg,stimuli/own/kitchen/113_kit.jpg,,,,,,,,,0,11,11,73,429.582422084,,,,,,,,,,,429.86783104200003,430.033428875,430.033428875,430.033428875,430.033428875,430.033428875,430.033428875,430.033428875,430.033428875,430.033428875,442.46146729200007,7,-7,1,1.0,12.29298629199991,3.0,10.391923083000052,429.5780095,429.582422084,430.033428875,429.86781725000003,,,,,,,,429.574424542,429.577961792,None,,,,,,,,,,,204,kitchen,1,2024-03-14_11h32.48.122,image_similarity_rating,2023.2.3,None,2024-03-14 11h33.00.047090 +0100,
,103,129,88,88,stimuli/own/kitchen/103_kit.jpg,stimuli/own/kitchen/129_kit.jpg,,,,,,,,,0,12,12,87,442.467657334,,,,,,,,,,,442.75535141700004,442.92066991700005,442.92066991700005,442.92066991700005,442.92066991700005,442.92066991700005,442.92066991700005,442.92066991700005,442.92066991700005,442.92066991700005,454.10711216699997,-7,7,1,1.0,6.805230749999964,3.0,11.074558541999977,442.46531383399997,442.467657334,442.92066991700005,442.75534045899997,,,,,,,,442.46168987500005,442.4652665,None,,,,,,,,,,,204,kitchen,1,2024-03-14_11h32.48.122,image_similarity_rating,2023.2.3,None,2024-03-14 11h33.00.047090 +0100,
,117,134,357,357,stimuli/own/kitchen/117_kit.jpg,stimuli/own/kitchen/134_kit.jpg,,,,,,,,,0,13,13,356,454.116008042,,,,,,,,,,,454.40076254200005,454.565416209,454.565416209,454.565416209,454.565416209,454.565416209,454.565416209,454.565416209,454.565416209,454.565416209,467.222984625,-7,7,1,2.0,8.501458082999989,2.0,12.319896416999995,454.11084470900005,454.116008042,454.565416209,454.40074775000005,,,,,,,,454.10733300000004,454.11079737500006,None,,,,,,,,,,,204,kitchen,1,2024-03-14_11h32.48.122,image_similarity_rating,2023.2.3,None,2024-03-14 11h33.00.047090 +0100,
,109,127,205,205,stimuli/own/kitchen/109_kit.jpg,stimuli/own/kitchen/127_kit.jpg,,,,,,,,,0,14,14,204,467.23270554199996,,,,,,,,,,,467.51830429200004,467.68450400000006,467.68450400000006,467.68450400000006,467.68450400000006,467.68450400000006,467.68450400000006,467.68450400000006,467.68450400000006,467.68450400000006,481.635546,7,-7,1,2.0,13.828077624999992,1.0,2.7553657920000205,467.22669708399997,467.23270554199996,467.68450400000006,467.51828854200005,,,,,,,,467.22320716700006,467.22664929200005,None,,,,,,,,,,,204,kitchen,1,2024-03-14_11h32.48.122,image_similarity_rating,2023.2.3,None,2024-03-14 11h33.00.047090 +0100,
,102,103,35,35,stimuli/own/kitchen/102_kit.jpg,stimuli/own/kitchen/103_kit.jpg,,,,,,,,,0,15,15,34,481.641785209,,,,,,,,,,,481.933776417,482.100850875,482.100850875,482.100850875,482.100850875,482.100850875,482.100850875,482.100850875,482.100850875,482.100850875,493.902562417,7,-7,1,2.0,11.584740957999998,1.0,3.1099713749999864,481.639491917,481.641785209,482.100850875,481.933755667,,,,,,,,481.63577862500006,481.63944337500004,None,,,,,,,,,,,204,kitchen,1,2024-03-14_11h32.48.122,image_similarity_rating,2023.2.3,None,2024-03-14 11h33.00.047090 +0100,
,139,140,593,593,stimuli/own/kitchen/139_kit.jpg,stimuli/own/kitchen/140_kit.jpg,,,,,,,,,0,16,16,592,493.90805220900006,,,,,,,,,,,494.20037,494.36639575000004,494.36639575000004,494.36639575000004,494.36639575000004,494.36639575000004,494.36639575000004,494.36639575000004,494.36639575000004,494.36639575000004,505.872671167,7,-7,1,3.0,11.380798333999905,2.0,5.334659249999959,493.90628008400006,493.90805220900006,494.36639575000004,494.2003553750001,,,,,,,,493.90278683400004,493.90622966700005,None,,,,,,,,,,,204,kitchen,1,2024-03-14_11h32.48.122,image_similarity_rating,2023.2.3,None,2024-03-14 11h33.00.047090 +0100,
,109,113,192,192,stimuli/own/kitchen/109_kit.jpg,stimuli/own/kitchen/113_kit.jpg,,,,,,,,,0,17,17,191,505.88246337500004,,,,,,,,,,,506.1668075,506.33208587499996,506.33208587499996,506.33208587499996,506.33208587499996,506.33208587499996,506.33208587499996,506.33208587499996,506.33208587499996,506.33208587499996,521.09335275,-7,7,1,3.0,14.684041666999974,1.0,8.414429666000046,505.876387917,505.88246337500004,506.33208587499996,506.16679387500005,,,,,,,,505.872892792,505.87634070900003,None,,,,,,,,,,,204,kitchen,1,2024-03-14_11h32.48.122,image_similarity_rating,2023.2.3,None,2024-03-14 11h33.00.047090 +0100,
,132,139,565,565,stimuli/own/kitchen/132_kit.jpg,stimuli/own/kitchen/139_kit.jpg,,,,,,,,,0,18,18,564,521.098928959,,,,,,,,,,,521.383663792,521.548842625,521.548842625,521.548842625,521.548842625,521.548842625,521.548842625,521.548842625,521.548842625,521.548842625,538.105478834,7,-7,1,3.0,16.481722375000004,3.0,6.681940749999967,521.097069167,521.098928959,521.548842625,521.383651375,,,,,,,,521.093573459,521.097020875,None,,,,,,,,,,,204,kitchen,1,2024-03-14_11h32.48.122,image_similarity_rating,2023.2.3,None,2024-03-14 11h33.00.047090 +0100,
,105,124,145,145,stimuli/own/kitchen/105_kit.jpg,stimuli/own/kitchen/124_kit.jpg,,,,,,,,,0,19,19,144,538.115781375,,,,,,,,,,,538.4002195420001,538.572120667,538.572120667,538.572120667,538.572120667,538.572120667,538.572120667,538.572120667,538.572120667,538.572120667,547.807838167,7,-7,1,4.0,4.900105957999926,3.0,8.941605333999973,538.109187917,538.115781375,538.572120667,538.400197542,,,,,,,,538.105700084,538.109140959,None,,,,,,,,,,,204,kitchen,1,2024-03-14_11h32.48.122,image_similarity_rating,2023.2.3,None,2024-03-14 11h33.00.047090 +0100,
,104,136,125,125,stimuli/own/kitchen/104_kit.jpg,stimuli/own/kitchen/136_kit.jpg,,,,,,,,,0,20,20,124,547.81545275,,,,,,,,,,,548.100791084,548.265581459,548.265581459,548.265581459,548.265581459,548.265581459,548.265581459,548.265581459,548.265581459,548.265581459,566.081508917,-7,7,1,2.0,17.77366120800002,2.0,3.615191416000016,547.811653625,547.81545275,548.265581459,548.100778334,,,,,,,,547.808058375,547.811605834,None,,,,,,,,,,,204,kitchen,1,2024-03-14_11h32.48.122,image_similarity_rating,2023.2.3,None,2024-03-14 11h33.00.047090 +0100,
,109,130,207,207,stimuli/own/kitchen/109_kit.jpg,stimuli/own/kitchen/130_kit.jpg,,,,,,,,,0,21,21,206,566.087330875,,,,,,,,,,,566.3713572089999,566.5353107500001,566.5353107500001,566.5353107500001,566.5353107500001,566.5353107500001,566.5353107500001,566.5353107500001,566.5353107500001,566.5353107500001,587.48465475,7,-7,1,4.0,19.31282695799996,2.0,20.792460625000103,566.085397959,566.087330875,566.5353107500001,566.371344084,,,,,,,,566.0817297919999,566.085350042,None,,,,,,,,,,,204,kitchen,1,2024-03-14_11h32.48.122,image_similarity_rating,2023.2.3,None,2024-03-14 11h33.00.047090 +0100,
,102,127,55,55,stimuli/own/kitchen/102_kit.jpg,stimuli/own/kitchen/127_kit.jpg,,,,,,,,,0,22,22,54,587.490558542,,,,,,,,,,,587.78383825,587.950509917,587.950509917,587.950509917,587.950509917,587.950509917,587.950509917,587.950509917,587.950509917,587.950509917,599.222259,-7,7,1,3.0,6.897210875000155,2.0,8.625396207999984,587.488485625,587.490558542,587.950509917,587.783824,,,,,,,,587.4848819590001,587.4884370420001,None,,,,,,,,,,,204,kitchen,1,2024-03-14_11h32.48.122,image_similarity_rating,2023.2.3,None,2024-03-14 11h33.00.047090 +0100,
,109,139,215,215,stimuli/own/kitchen/109_kit.jpg,stimuli/own/kitchen/139_kit.jpg,,,,,,,,,0,23,23,214,599.232449709,,,,,,,,,,,599.51664025,599.6871178750001,599.6871178750001,599.6871178750001,599.6871178750001,599.6871178750001,599.6871178750001,599.6871178750001,599.6871178750001,599.6871178750001,610.622400292,-7,7,1,3.0,10.874544415999935,2.0,3.35380562499995,599.2260689999999,599.232449709,599.6871178750001,599.5166231669999,,,,,,,,599.222486125,599.2260210420001,None,,,,,,,,,,,204,kitchen,1,2024-03-14_11h32.48.122,image_similarity_rating,2023.2.3,None,2024-03-14 11h33.00.047090 +0100,
,112,132,262,609,stimuli/own/kitchen/112_kit.jpg,stimuli/own/kitchen/132_kit.jpg,,,,,,,,,0,24,24,608,610.6321118750001,,,,,,,,,,,610.916642,611.084540709,611.084540709,611.084540709,611.084540709,611.084540709,611.084540709,611.084540709,611.084540709,611.084540709,622.181945167,7,-7,1,4.0,5.340493416999834,2.0,10.921370249999882,610.6261048340001,610.6321118750001,611.084540709,610.916620459,,,,,,,,610.6226230000001,610.6260571250001,None,,,,,,,,,,,204,kitchen,1,2024-03-14_11h32.48.122,image_similarity_rating,2023.2.3,None,2024-03-14 11h33.00.047090 +0100,
,120,140,423,423,stimuli/own/kitchen/120_kit.jpg,stimuli/own/kitchen/140_kit.jpg,,,,,,,,,0,25,25,422,622.1879572920001,,,,,,,,,,,622.483341625,622.6480728749999,622.6480728749999,622.6480728749999,622.6480728749999,622.6480728749999,622.6480728749999,622.6480728749999,622.6480728749999,622.6480728749999,629.864925834,-7,7,1,5.0,4.267666999999847,2.0,7.001366582999935,622.1857277089999,622.1879572920001,622.6480728749999,622.483330417,,,,,,,,622.1821675,622.185679709,None,,,,,,,,,,,204,kitchen,1,2024-03-14_11h32.48.122,image_similarity_rating,2023.2.3,None,2024-03-14 11h33.00.047090 +0100,
,122,138,456,456,stimuli/own/kitchen/122_kit.jpg,stimuli/own/kitchen/138_kit.jpg,,,,,,,,,0,26,26,455,629.870625417,,,,,,,,,,,630.1537192090001,630.3173813750001,630.3173813750001,630.3173813750001,630.3173813750001,630.3173813750001,630.3173813750001,630.3173813750001,630.3173813750001,630.3173813750001,642.485934834,7,-7,1,4.0,10.047211291999929,2.0,11.989132292000022,629.8686818750001,629.870625417,630.3173813750001,630.153708334,,,,,,,,629.865146625,629.8686335840001,None,,,,,,,,,,,204,kitchen,1,2024-03-14_11h32.48.122,image_similarity_rating,2023.2.3,None,2024-03-14 11h33.00.047090 +0100,
,121,132,434,434,stimuli/own/kitchen/121_kit.jpg,stimuli/own/kitchen/132_kit.jpg,,,,,,,,,0,27,27,433,642.498553667,,,,,,,,,,,642.783271334,642.9489555000001,642.9489555000001,642.9489555000001,642.9489555000001,642.9489555000001,642.9489555000001,642.9489555000001,642.9489555000001,642.9489555000001,650.085490584,-7,7,1,2.0,3.937982375000047,2.0,6.998912166999844,642.4898530419999,642.498553667,642.9489555000001,642.783257084,,,,,,,,642.486165875,642.4898031670001,None,,,,,,,,,,,204,kitchen,1,2024-03-14_11h32.48.122,image_similarity_rating,2023.2.3,None,2024-03-14 11h33.00.047090 +0100,
,102,111,40,40,stimuli/own/kitchen/102_kit.jpg,stimuli/own/kitchen/111_kit.jpg,,,,,,,,,0,28,28,39,650.098484084,,,,,,,,,,,650.384001125,650.547693375,650.547693375,650.547693375,650.547693375,650.547693375,650.547693375,650.547693375,650.547693375,650.547693375,663.135830375,7,-7,1,5.0,7.781523500000048,2.0,12.410228749999987,650.0895490419999,650.098484084,650.547693375,650.383987417,,,,,,,,650.0857218750001,650.0894991250001,None,,,,,,,,,,,204,kitchen,1,2024-03-14_11h32.48.122,image_similarity_rating,2023.2.3,None,2024-03-14 11h33.00.047090 +0100,
,122,127,447,447,stimuli/own/kitchen/122_kit.jpg,stimuli/own/kitchen/127_kit.jpg,,,,,,,,,0,29,29,446,663.1483871670001,,,,,,,,,,,663.43352475,663.599341167,663.599341167,663.599341167,663.599341167,663.599341167,663.599341167,663.599341167,663.599341167,663.599341167,673.906785625,7,-7,1,5.0,8.175672834000125,3.0,9.954803584000047,663.1397295,663.1483871670001,663.599341167,663.433511625,,,,,,,,663.136061709,663.13967975,None,,,,,,,,,,,204,kitchen,1,2024-03-14_11h32.48.122,image_similarity_rating,2023.2.3,None,2024-03-14 11h33.00.047090 +0100,
,121,136,437,437,stimuli/own/kitchen/121_kit.jpg,stimuli/own/kitchen/136_kit.jpg,,,,,,,,,0,30,30,436,673.9147622920001,,,,,,,,,,,674.20045975,674.3662957089999,674.3662957089999,674.3662957089999,674.3662957089999,674.3662957089999,674.3662957089999,674.3662957089999,674.3662957089999,674.3662957089999,685.0551777920001,-7,7,1,3.0,10.626216375000013,3.0,8.195279000000028,673.910641625,673.9147622920001,674.3662957089999,674.200446292,,,,,,,,673.90700725,673.9105935420001,None,,,,,,,,,,,204,kitchen,1,2024-03-14_11h32.48.122,image_similarity_rating,2023.2.3,None,2024-03-14 11h33.00.047090 +0100,
,119,135,399,399,stimuli/own/kitchen/119_kit.jpg,stimuli/own/kitchen/135_kit.jpg,,,,,,,,,0,31,31,398,685.064953334,,,,,,,,,,,685.349643417,685.5205151670001,685.5205151670001,685.5205151670001,685.5205151670001,685.5205151670001,685.5205151670001,685.5205151670001,685.5205151670001,685.5205151670001,701.143911125,-7,7,1,2.0,15.574375000000146,2.0,10.427064166999799,685.0589182499999,685.064953334,685.5205151670001,685.349627167,,,,,,,,685.0553993750001,685.0588704590001,None,,,,,,,,,,,204,kitchen,1,2024-03-14_11h32.48.122,image_similarity_rating,2023.2.3,None,2024-03-14 11h33.00.047090 +0100,
,130,138,547,547,stimuli/own/kitchen/130_kit.jpg,stimuli/own/kitchen/138_kit.jpg,,,,,,,,,0,32,32,546,701.150084667,,,,,,,,,,,701.433030709,701.5992414589999,701.5992414589999,701.5992414589999,701.5992414589999,701.5992414589999,701.5992414589999,701.5992414589999,701.5992414589999,701.5992414589999,713.8897774590001,-7,7,1,4.0,4.750474583999903,2.0,12.194923000000017,701.1477610000001,701.150084667,701.5992414589999,701.4330160420001,,,,,,,,701.144131167,701.1477129589999,None,,,,,,,,,,,204,kitchen,1,2024-03-14_11h32.48.122,image_similarity_rating,2023.2.3,None,2024-03-14 11h33.00.047090 +0100,
,124,140,489,489,stimuli/own/kitchen/124_kit.jpg,stimuli/own/kitchen/140_kit.jpg,,,,,,,,,0,33,33,488,713.89817875,,,,,,,,,,,714.1828745839999,714.349930792,714.349930792,714.349930792,714.349930792,714.349930792,714.349930792,714.349930792,714.349930792,714.349930792,726.0688739169999,7,-7,1,4.0,4.977882667000131,2.0,11.608821250000119,713.893512209,713.89817875,714.349930792,714.1828597090001,,,,,,,,713.889996584,713.893464917,None,,,,,,,,,,,204,kitchen,1,2024-03-14_11h32.48.122,image_similarity_rating,2023.2.3,None,2024-03-14 11h33.00.047090 +0100,
,123,126,462,462,stimuli/own/kitchen/123_kit.jpg,stimuli/own/kitchen/126_kit.jpg,,,,,,,,,0,34,34,461,726.081433084,,,,,,,,,,,726.366850167,726.5338572090001,726.5338572090001,726.5338572090001,726.5338572090001,726.5338572090001,726.5338572090001,726.5338572090001,726.5338572090001,726.5338572090001,743.546708875,-7,7,1,6.0,14.951955750000025,4.0,8.466247875000136,726.0726229999999,726.081433084,726.5338572090001,726.366836667,,,,,,,,726.0690935000001,726.0725753749999,None,,,,,,,,,,,204,kitchen,1,2024-03-14_11h32.48.122,image_similarity_rating,2023.2.3,None,2024-03-14 11h33.00.047090 +0100,
,131,141,559,559,stimuli/own/kitchen/131_kit.jpg,stimuli/own/kitchen/141_kit.jpg,,,,,,,,,0,35,35,558,743.552247834,,,,,,,,,,,743.837215209,744.007786709,744.007786709,744.007786709,744.007786709,744.007786709,744.007786709,744.007786709,744.007786709,744.007786709,751.751904459,-7,7,1,2.0,6.556019249999963,1.0,3.020190292000052,743.550485292,743.552247834,744.007786709,743.8371996669999,,,,,,,,743.546937917,743.550437834,None,,,,,,,,,,,204,kitchen,1,2024-03-14_11h32.48.122,image_similarity_rating,2023.2.3,None,2024-03-14 11h33.00.047090 +0100,
,119,132,397,397,stimuli/own/kitchen/119_kit.jpg,stimuli/own/kitchen/132_kit.jpg,,,,,,,,,0,36,36,396,751.7649143750001,,,,,,,,,,,752.0493526250001,752.214603125,752.214603125,752.214603125,752.214603125,752.214603125,752.214603125,752.214603125,752.214603125,752.214603125,763.3554044589999,7,-7,1,5.0,7.576545583000097,2.0,10.903291416000002,751.7556135420001,751.7649143750001,752.214603125,752.0493418750001,,,,,,,,751.7521278749999,751.755566334,None,,,,,,,,,,,204,kitchen,1,2024-03-14_11h32.48.122,image_similarity_rating,2023.2.3,None,2024-03-14 11h33.00.047090 +0100,
,106,136,184,184,stimuli/own/kitchen/106_kit.jpg,stimuli/own/kitchen/136_kit.jpg,,,,,,,,,0,37,37,183,763.364798917,,,,,,,,,,,763.650300917,763.817071375,763.817071375,763.817071375,763.817071375,763.817071375,763.817071375,763.817071375,763.817071375,763.817071375,776.088070875,7,-7,1,3.0,12.220399083000075,1.0,7.21678929199993,763.3591002500001,763.364798917,763.817071375,763.65028675,,,,,,,,763.355632375,763.359051542,None,,,,,,,,,,,204,kitchen,1,2024-03-14_11h32.48.122,image_similarity_rating,2023.2.3,None,2024-03-14 11h33.00.047090 +0100,
,116,136,337,337,stimuli/own/kitchen/116_kit.jpg,stimuli/own/kitchen/136_kit.jpg,,,,,,,,,0,38,38,336,776.0982297500001,,,,,,,,,,,776.3828515000001,776.5554418339999,776.5554418339999,776.5554418339999,776.5554418339999,776.5554418339999,776.5554418339999,776.5554418339999,776.5554418339999,776.5554418339999,785.7765089590001,7,-7,1,3.0,9.123210334000078,2.0,2.596334249999927,776.091795042,776.0982297500001,776.5554418339999,776.3828311670001,,,,,,,,776.0882917499999,776.0917472499999,None,,,,,,,,,,,204,kitchen,1,2024-03-14_11h32.48.122,image_similarity_rating,2023.2.3,None,2024-03-14 11h33.00.047090 +0100,
,120,127,412,412,stimuli/own/kitchen/120_kit.jpg,stimuli/own/kitchen/127_kit.jpg,,,,,,,,,0,39,39,411,785.783094584,,,,,,,,,,,786.0657929170001,786.2294916669999,786.2294916669999,786.2294916669999,786.2294916669999,786.2294916669999,786.2294916669999,786.2294916669999,786.2294916669999,786.2294916669999,794.9096532499999,-7,7,1,4.0,3.3235380000000987,2.0,8.50666212499982,785.780583417,785.783094584,786.2294916669999,786.065779167,,,,,,,,785.776731584,785.780532459,None,,,,,,,,,,,204,kitchen,1,2024-03-14_11h32.48.122,image_similarity_rating,2023.2.3,None,2024-03-14 11h33.00.047090 +0100,
,131,134,552,552,stimuli/own/kitchen/131_kit.jpg,stimuli/own/kitchen/134_kit.jpg,,,,,,,,,0,40,40,551,794.915905709,,,,,,,,,,,795.2001260000001,795.365885459,795.365885459,795.365885459,795.365885459,795.365885459,795.365885459,795.365885459,795.365885459,795.365885459,818.017000792,7,-7,1,1.0,14.559311334000085,1.0,21.904187500000035,794.913596709,794.915905709,795.365885459,795.2001120840001,,,,,,,,794.909873709,794.913538417,None,,,,,,,,,,,204,kitchen,1,2024-03-14_11h32.48.122,image_similarity_rating,2023.2.3,None,2024-03-14 11h33.00.047090 +0100,
,136,139,583,600,stimuli/own/kitchen/136_kit.jpg,stimuli/own/kitchen/139_kit.jpg,,,,,,,,,0,41,41,599,818.022637417,,,,,,,,,,,818.3165386669999,818.483243792,818.483243792,818.483243792,818.483243792,818.483243792,818.483243792,818.483243792,818.483243792,818.483243792,833.196646875,-7,7,1,2.0,14.219503667000026,2.0,7.0831686250000985,818.0207004170001,818.022637417,818.483243792,818.3165250420001,,,,,,,,818.017225834,818.0206521670001,None,,,,,,,,,,,204,kitchen,1,2024-03-14_11h32.48.122,image_similarity_rating,2023.2.3,None,2024-03-14 11h33.00.047090 +0100,
,114,124,304,304,stimuli/own/kitchen/114_kit.jpg,stimuli/own/kitchen/124_kit.jpg,,,,,,,,,0,42,42,303,833.202363834,,,,,,,,,,,833.486133709,833.6504328750001,833.6504328750001,833.6504328750001,833.6504328750001,833.6504328750001,833.6504328750001,833.6504328750001,833.6504328750001,833.6504328750001,843.667084042,-7,7,1,4.0,4.62738570800002,2.0,9.855005666999887,833.2004262500001,833.202363834,833.6504328750001,833.4861200839999,,,,,,,,833.1968942090001,833.2003785,None,,,,,,,,,,,204,kitchen,1,2024-03-14_11h32.48.122,image_similarity_rating,2023.2.3,None,2024-03-14 11h33.00.047090 +0100,
,138,139,590,590,stimuli/own/kitchen/138_kit.jpg,stimuli/own/kitchen/139_kit.jpg,,,,,,,,,0,43,43,589,843.672549667,,,,,,,,,,,843.9665277089999,844.136414334,844.136414334,844.136414334,844.136414334,844.136414334,844.136414334,844.136414334,844.136414334,844.136414334,853.552441792,7,-7,1,3.0,4.505256125000187,2.0,9.110003249999863,843.670764375,843.672549667,844.136414334,843.966511667,,,,,,,,843.6673083750001,843.6707171669999,None,,,,,,,,,,,204,kitchen,1,2024-03-14_11h32.48.122,image_similarity_rating,2023.2.3,None,2024-03-14 11h33.00.047090 +0100,
,138,140,591,591,stimuli/own/kitchen/138_kit.jpg,stimuli/own/kitchen/140_kit.jpg,,,,,,,,,0,44,44,590,853.5644415,,,,,,,,,,,853.8490762089999,854.015993959,854.015993959,854.015993959,854.015993959,854.015993959,854.015993959,854.015993959,854.015993959,854.015993959,870.1175065420001,-7,7,1,4.0,4.930376000000024,2.0,11.686741041999994,853.5561502500001,853.5644415,854.015993959,853.849057084,,,,,,,,853.5526637920001,853.5561026670001,None,,,,,,,,,,,204,kitchen,1,2024-03-14_11h32.48.122,image_similarity_rating,2023.2.3,None,2024-03-14 11h33.00.047090 +0100,
,104,138,127,127,stimuli/own/kitchen/104_kit.jpg,stimuli/own/kitchen/138_kit.jpg,,,,,,,,,0,45,45,126,870.123140084,,,,,,,,,,,870.4154541250001,870.581222209,870.581222209,870.581222209,870.581222209,870.581222209,870.581222209,870.581222209,870.581222209,870.581222209,884.1803767499999,-7,7,1,6.0,7.669737709000174,3.0,13.488465416999816,870.1212019589999,870.123140084,870.581222209,870.415440292,,,,,,,,870.117733334,870.1211542919999,None,,,,,,,,,,,204,kitchen,1,2024-03-14_11h32.48.122,image_similarity_rating,2023.2.3,None,2024-03-14 11h33.00.047090 +0100,
,101,103,2,2,stimuli/own/kitchen/101_kit.jpg,stimuli/own/kitchen/103_kit.jpg,,,,,,,,,0,46,46,1,884.1864010840001,,,,,,,,,,,884.4700926669999,884.6344634999999,884.6344634999999,884.6344634999999,884.6344634999999,884.6344634999999,884.6344634999999,884.6344634999999,884.6344634999999,884.6344634999999,894.187703959,-7,7,1,4.0,5.252176834000011,3.0,9.418778040999996,884.184148834,884.1864010840001,884.6344634999999,884.470081459,,,,,,,,884.180602625,884.184099334,None,,,,,,,,,,,204,kitchen,1,2024-03-14_11h32.48.122,image_similarity_rating,2023.2.3,None,2024-03-14 11h33.00.047090 +0100,
,104,111,103,103,stimuli/own/kitchen/104_kit.jpg,stimuli/own/kitchen/111_kit.jpg,,,,,,,,,0,47,47,102,894.1975362920001,,,,,,,,,,,894.48271025,894.648322292,894.648322292,894.648322292,894.648322292,894.648322292,894.648322292,894.648322292,894.648322292,894.648322292,912.1591710419999,7,-7,1,6.0,15.394429166999998,3.0,17.399965290999944,894.191376375,894.1975362920001,894.648322292,894.482696834,,,,,,,,894.187923625,894.191329209,None,,,,,,,,,,,204,kitchen,1,2024-03-14_11h32.48.122,image_similarity_rating,2023.2.3,None,2024-03-14 11h33.00.047090 +0100,
,126,137,513,513,stimuli/own/kitchen/126_kit.jpg,stimuli/own/kitchen/137_kit.jpg,,,,,,,,,0,48,48,512,912.165472542,,,,,,,,,,,912.4493087920001,912.616616917,912.616616917,912.616616917,912.616616917,912.616616917,912.616616917,912.616616917,912.616616917,912.616616917,930.446919292,-7,7,1,4.0,14.396394249999958,3.0,17.675355208999918,912.162876125,912.165472542,912.616616917,912.4492886250001,,,,,,,,912.159417084,912.162828459,None,,,,,,,,,,,204,kitchen,1,2024-03-14_11h32.48.122,image_similarity_rating,2023.2.3,None,2024-03-14 11h33.00.047090 +0100,
,106,120,170,170,stimuli/own/kitchen/106_kit.jpg,stimuli/own/kitchen/120_kit.jpg,,,,,,,,,0,49,49,169,930.4527616250001,,,,,,,,,,,930.7360931249999,930.903604084,930.903604084,930.903604084,930.903604084,930.903604084,930.903604084,930.903604084,930.903604084,930.903604084,940.3085412500001,-7,7,1,3.0,9.266972915999986,1.0,3.442992125000046,930.450647084,930.4527616250001,930.903604084,930.736076042,,,,,,,,930.4471394999999,930.4505996250001,None,,,,,,,,,,,204,kitchen,1,2024-03-14_11h32.48.122,image_similarity_rating,2023.2.3,None,2024-03-14 11h33.00.047090 +0100,
,112,121,252,252,stimuli/own/kitchen/112_kit.jpg,stimuli/own/kitchen/121_kit.jpg,,,,,,,,,0,50,50,251,940.330770125,,,,,,,,,,,940.6148185840001,940.7821594999999,940.7821594999999,940.7821594999999,940.7821594999999,940.7821594999999,940.7821594999999,940.7821594999999,940.7821594999999,940.7821594999999,953.234763417,7,-7,1,3.0,7.213918333000038,4.0,12.07953950000001,940.3122226670001,940.330770125,,940.6147956670001,,,,,,,,940.308762709,940.3121761670001,None,,,,,,,,,,,204,kitchen,1,2024-03-14_11h32.48.122,image_similarity_rating,2023.2.3,None,2024-03-14 11h33.00.047090 +0100,
,102,136,62,62,stimuli/own/kitchen/102_kit.jpg,stimuli/own/kitchen/136_kit.jpg,,,,,,,,,0,51,51,61,953.247297625,,,,,,,,,,,953.532527209,953.6983160840001,953.6983160840001,953.6983160840001,953.6983160840001,953.6983160840001,953.6983160840001,953.6983160840001,953.6983160840001,953.6983160840001,962.1761499590001,-7,7,1,2.0,5.766744582999991,2.0,8.290504542000008,953.23874975,953.247297625,953.6983160840001,953.5325125840001,,,,,,,,953.234999167,953.2387003340001,None,,,,,,,,,,,204,kitchen,1,2024-03-14_11h32.48.122,image_similarity_rating,2023.2.3,None,2024-03-14 11h33.00.047090 +0100,
,104,105,100,100,stimuli/own/kitchen/104_kit.jpg,stimuli/own/kitchen/105_kit.jpg,,,,,,,,,0,52,52,99,962.1818890840001,,,,,,,,,,,962.465443875,962.629907334,962.629907334,962.629907334,962.629907334,962.629907334,962.629907334,962.629907334,962.629907334,962.629907334,979.275697292,-7,7,1,4.0,11.413009916999954,5.0,16.39661004200002,962.1799092090001,962.1818890840001,962.629907334,962.4654294170001,,,,,,,,962.1763663339999,962.1798613750001,None,,,,,,,,,,,204,kitchen,1,2024-03-14_11h32.48.122,image_similarity_rating,2023.2.3,None,2024-03-14 11h33.00.047090 +0100,
,113,124,280,280,stimuli/own/kitchen/113_kit.jpg,stimuli/own/kitchen/124_kit.jpg,,,,,,,,,0,53,53,279,979.281679625,,,,,,,,,,,979.565909667,979.733066417,979.733066417,979.733066417,979.733066417,979.733066417,979.733066417,979.733066417,979.733066417,979.733066417,994.7632024590001,7,-7,1,5.0,11.591649582999935,4.0,14.870031791000201,979.279376459,979.281679625,979.733066417,979.565896084,,,,,,,,979.2759157090001,979.279329417,None,,,,,,,,,,,204,kitchen,1,2024-03-14_11h32.48.122,image_similarity_rating,2023.2.3,None,2024-03-14 11h33.00.047090 +0100,
,113,116,272,272,stimuli/own/kitchen/113_kit.jpg,stimuli/own/kitchen/116_kit.jpg,,,,,,,,,0,54,54,271,994.768963542,,,,,,,,,,,995.0522597089999,995.2157539589999,995.2157539589999,995.2157539589999,995.2157539589999,995.2157539589999,995.2157539589999,995.2157539589999,995.2157539589999,995.2157539589999,1011.716609125,7,-7,1,4.0,11.419517667000036,2.0,16.217439917000092,994.767035875,994.768963542,995.2157539589999,995.0522489589999,,,,,,,,994.763421,994.7669884590001,None,,,,,,,,,,,204,kitchen,1,2024-03-14_11h32.48.122,image_similarity_rating,2023.2.3,None,2024-03-14 11h33.00.047090 +0100,
,134,136,569,569,stimuli/own/kitchen/134_kit.jpg,stimuli/own/kitchen/136_kit.jpg,,,,,,,,,0,55,55,568,1011.722606292,,,,,,,,,,,1012.0152367920001,1012.185387334,1012.185387334,1012.185387334,1012.185387334,1012.185387334,1012.185387334,1012.185387334,1012.185387334,1012.185387334,1021.575153917,7,-7,1,5.0,3.328989583000066,5.0,9.04345074999992,1011.7205297090001,1011.722606292,1012.185387334,1012.015215625,,,,,,,,1011.7168403750001,1011.720481334,None,,,,,,,,,,,204,kitchen,1,2024-03-14_11h32.48.122,image_similarity_rating,2023.2.3,None,2024-03-14 11h33.00.047090 +0100,
,124,132,482,482,stimuli/own/kitchen/124_kit.jpg,stimuli/own/kitchen/132_kit.jpg,,,,,,,,,0,56,56,481,1021.597036667,,,,,,,,,,,1021.8812965000001,1022.0468802500001,1022.0468802500001,1022.0468802500001,1022.0468802500001,1022.0468802500001,1022.0468802500001,1022.0468802500001,1022.0468802500001,1022.0468802500001,1033.1169411669998,7,-7,1,6.0,10.96822562500006,5.0,3.7905477499998597,1021.5788289170001,1021.597036667,,1021.8812784170001,,,,,,,,1021.575372917,1021.578782125,None,,,,,,,,,,,204,kitchen,1,2024-03-14_11h32.48.122,image_similarity_rating,2023.2.3,None,2024-03-14 11h33.00.047090 +0100,
,103,112,73,73,stimuli/own/kitchen/103_kit.jpg,stimuli/own/kitchen/112_kit.jpg,,,,,,,,,0,57,57,72,1033.1227117090002,,,,,,,,,,,1033.415825,1033.58423975,1033.58423975,1033.58423975,1033.58423975,1033.58423975,1033.58423975,1033.58423975,1033.58423975,1033.58423975,1042.1580374589998,-7,7,1,4.0,5.242471667000018,5.0,7.855039499999975,1033.120622,1033.1227117090002,1033.58423975,1033.4158096249998,,,,,,,,1033.117164834,1033.1205746249998,None,,,,,,,,,,,204,kitchen,1,2024-03-14_11h32.48.122,image_similarity_rating,2023.2.3,None,2024-03-14 11h33.00.047090 +0100,
,116,138,339,339,stimuli/own/kitchen/116_kit.jpg,stimuli/own/kitchen/138_kit.jpg,,,,,,,,,0,58,58,338,1042.163503584,,,,,,,,,,,1042.448294709,1042.6133586669998,1042.6133586669998,1042.6133586669998,1042.6133586669998,1042.6133586669998,1042.6133586669998,1042.6133586669998,1042.6133586669998,1042.6133586669998,1064.2832842090002,-7,7,1,4.0,21.66847299999995,4.0,7.909813540999949,1042.1617123340002,1042.163503584,1042.6133586669998,1042.448283959,,,,,,,,1042.158259542,1042.1616654590002,None,,,,,,,,,,,204,kitchen,1,2024-03-14_11h32.48.122,image_similarity_rating,2023.2.3,None,2024-03-14 11h33.00.047090 +0100,
,125,129,493,493,stimuli/own/kitchen/125_kit.jpg,stimuli/own/kitchen/129_kit.jpg,,,,,,,,,0,59,59,492,1064.2889142499998,,,,,,,,,,,1064.58257775,1064.7479212920002,1064.7479212920002,1064.7479212920002,1064.7479212920002,1064.7479212920002,1064.7479212920002,1064.7479212920002,1064.7479212920002,1064.7479212920002,1075.2456315,-7,7,1,2.0,5.151299082999913,3.0,10.006324875000018,1064.286977709,1064.2889142499998,1064.7479212920002,1064.582563417,,,,,,,,1064.2835071670002,1064.2869302919999,None,,,,,,,,,,,204,kitchen,1,2024-03-14_11h32.48.122,image_similarity_rating,2023.2.3,None,2024-03-14 11h33.00.047090 +0100,
,121,140,441,441,stimuli/own/kitchen/121_kit.jpg,stimuli/own/kitchen/140_kit.jpg,,,,,,,,,0,60,60,440,1075.25128575,,,,,,,,,,,1075.5350108339999,1075.698946334,1075.698946334,1075.698946334,1075.698946334,1075.698946334,1075.698946334,1075.698946334,1075.698946334,1075.698946334,1093.599814792,-7,7,1,3.0,13.653393790999871,4.0,17.74866254199992,1075.249347375,1075.25128575,1075.698946334,1075.535000584,,,,,,,,1075.2458781670002,1075.249300209,None,,,,,,,,,,,204,kitchen,1,2024-03-14_11h32.48.122,image_similarity_rating,2023.2.3,None,2024-03-14 11h33.00.047090 +0100,
,114,140,318,318,stimuli/own/kitchen/114_kit.jpg,stimuli/own/kitchen/140_kit.jpg,,,,,,,,,0,61,61,317,1093.6133745000002,,,,,,,,,,,1093.8980515839999,1094.0630889170002,1094.0630889170002,1094.0630889170002,1094.0630889170002,1094.0630889170002,1094.0630889170002,1094.0630889170002,1094.0630889170002,1094.0630889170002,1101.4916705,7,-7,1,5.0,3.823374041000079,3.0,7.291508667000016,1093.603683584,1093.6133745000002,1094.0630889170002,1093.8980404590002,,,,,,,,1093.600043417,1093.603633709,None,,,,,,,,,,,204,kitchen,1,2024-03-14_11h32.48.122,image_similarity_rating,2023.2.3,None,2024-03-14 11h33.00.047090 +0100,
,111,119,224,224,stimuli/own/kitchen/111_kit.jpg,stimuli/own/kitchen/119_kit.jpg,,,,,,,,,0,62,62,223,1101.4977963750002,,,,,,,,,,,1101.7819882919998,1101.948505292,1101.948505292,1101.948505292,1101.948505292,1101.948505292,1101.948505292,1101.948505292,1101.948505292,1101.948505292,1117.942085917,-7,7,1,3.0,15.928173332999904,3.0,10.805014916000118,1101.495528334,1101.4977963750002,1101.948505292,1101.781974,,,,,,,,1101.491889,1101.4954788750001,None,,,,,,,,,,,204,kitchen,1,2024-03-14_11h32.48.122,image_similarity_rating,2023.2.3,None,2024-03-14 11h33.00.047090 +0100,
,111,129,233,233,stimuli/own/kitchen/111_kit.jpg,stimuli/own/kitchen/129_kit.jpg,,,,,,,,,0,63,63,232,1117.947909167,,,,,,,,,,,1147.014776292,1147.1893183339998,1147.1893183339998,1147.1893183339998,1147.1893183339998,1147.1893183339998,1147.1893183339998,1147.1893183339998,1147.1893183339998,1147.1893183339998,1160.4993652920002,7,-7,2,2.0,8.940317707999839,4.0,12.027633624999908,1146.718983459,1146.7225505000001,1147.1893183339998,1147.0147523340001,,,,,,,,1117.942301209,1146.717047959,space,1117.947909167,28.768895042000167,None,,,,,,,,204,kitchen,1,2024-03-14_11h32.48.122,image_similarity_rating,2023.2.3,None,2024-03-14 11h33.00.047090 +0100,
,114,129,308,308,stimuli/own/kitchen/114_kit.jpg,stimuli/own/kitchen/129_kit.jpg,,,,,,,,,0,64,64,307,1160.505866125,,,,,,,,,,,1160.7982968340002,1160.963926,1160.963926,1160.963926,1160.963926,1160.963926,1160.963926,1160.963926,1160.963926,1160.963926,1173.741865167,7,-7,2,2.0,7.36487000000011,4.0,12.59094370899993,1160.503786834,1160.505866125,1160.963926,1160.7982822089998,,,,,,,,1160.4995893750001,1160.5037362090002,None,,,,,,,,,,,204,kitchen,1,2024-03-14_11h32.48.122,image_similarity_rating,2023.2.3,None,2024-03-14 11h33.00.047090 +0100,
,130,139,548,548,stimuli/own/kitchen/130_kit.jpg,stimuli/own/kitchen/139_kit.jpg,,,,,,,,,0,65,65,547,1173.7477397500002,,,,,,,,,,,1174.0313849170002,1174.197472459,1174.197472459,1174.197472459,1174.197472459,1174.197472459,1174.197472459,1174.197472459,1174.197472459,1174.197472459,1182.488177709,7,-7,2,3.0,5.5532247090000055,5.0,8.155163666000135,1173.745609167,1173.7477397500002,1174.197472459,1174.0313703339998,,,,,,,,1173.742081125,1173.7455623750002,None,,,,,,,,,,,204,kitchen,1,2024-03-14_11h32.48.122,image_similarity_rating,2023.2.3,None,2024-03-14 11h33.00.047090 +0100,
,106,139,187,187,stimuli/own/kitchen/106_kit.jpg,stimuli/own/kitchen/139_kit.jpg,,,,,,,,,0,66,66,186,1182.4960942500002,,,,,,,,,,,1182.7810077499998,1182.9502659169998,1182.9502659169998,1182.9502659169998,1182.9502659169998,1182.9502659169998,1182.9502659169998,1182.9502659169998,1182.9502659169998,1182.9502659169998,1194.4698518750001,7,-7,2,2.0,8.824961875000099,4.0,10.927653167000017,1182.491842584,1182.4960942500002,1182.9502659169998,1182.7809809999999,,,,,,,,1182.4883937089999,1182.4917956670001,None,,,,,,,,,,,204,kitchen,1,2024-03-14_11h32.48.122,image_similarity_rating,2023.2.3,None,2024-03-14 11h33.00.047090 +0100,
,123,137,471,471,stimuli/own/kitchen/123_kit.jpg,stimuli/own/kitchen/137_kit.jpg,,,,,,,,,0,67,67,470,1194.479829125,,,,,,,,,,,1194.7651612089999,1194.9304025420001,1194.9304025420001,1194.9304025420001,1194.9304025420001,1194.9304025420001,1194.9304025420001,1194.9304025420001,1194.9304025420001,1194.9304025420001,1210.065460459,-7,7,2,3.0,11.699661541000069,4.0,15.04278870799999,1194.473625,1194.479829125,1194.9304025420001,1194.765146917,,,,,,,,1194.470071625,1194.473578042,None,,,,,,,,,,,204,kitchen,1,2024-03-14_11h32.48.122,image_similarity_rating,2023.2.3,None,2024-03-14 11h33.00.047090 +0100,
,102,124,52,52,stimuli/own/kitchen/102_kit.jpg,stimuli/own/kitchen/124_kit.jpg,,,,,,,,,0,68,68,51,1210.0710775839998,,,,,,,,,,,1210.364839542,1210.530880417,1210.530880417,1210.530880417,1210.530880417,1210.530880417,1210.530880417,1210.530880417,1210.530880417,1210.530880417,1221.6083802500002,-7,7,2,4.0,7.327643916999932,2.0,10.826770457999828,1210.0691366669998,1210.0710775839998,1210.530880417,1210.3648237500001,,,,,,,,1210.065679292,1210.0690896669998,None,,,,,,,,,,,204,kitchen,1,2024-03-14_11h32.48.122,image_similarity_rating,2023.2.3,None,2024-03-14 11h33.00.047090 +0100,
,111,125,230,230,stimuli/own/kitchen/111_kit.jpg,stimuli/own/kitchen/125_kit.jpg,,,,,,,,,0,69,69,229,1221.6142838340002,,,,,,,,,,,1221.8976737920002,1222.062625125,1222.062625125,1222.062625125,1222.062625125,1222.062625125,1222.062625125,1222.062625125,1222.062625125,1222.062625125,1238.970308209,7,-7,2,3.0,14.656432333000112,2.0,16.846447749999925,1221.6121144590002,1221.6142838340002,1222.062625125,1221.8976629590002,,,,,,,,1221.6085981249998,1221.61206825,None,,,,,,,,,,,204,kitchen,1,2024-03-14_11h32.48.122,image_similarity_rating,2023.2.3,None,2024-03-14 11h33.00.047090 +0100,
,120,123,408,408,stimuli/own/kitchen/120_kit.jpg,stimuli/own/kitchen/123_kit.jpg,,,,,,,,,0,70,70,407,1238.979485584,,,,,,,,,,,1239.2649770419998,1239.430883292,1239.430883292,1239.430883292,1239.430883292,1239.430883292,1239.430883292,1239.430883292,1239.430883292,1239.430883292,1253.315370792,-7,7,2,4.0,10.803008459000011,2.0,13.837562458000093,1238.9741275420001,1238.979485584,1239.430883292,1239.264964167,,,,,,,,1238.9705359999998,1238.974081167,None,,,,,,,,,,,204,kitchen,1,2024-03-14_11h32.48.122,image_similarity_rating,2023.2.3,None,2024-03-14 11h33.00.047090 +0100,
,102,117,45,45,stimuli/own/kitchen/102_kit.jpg,stimuli/own/kitchen/117_kit.jpg,,,,,,,,,0,71,71,44,1253.321070167,,,,,,,,,,,1253.6147366670002,1253.781626209,1253.781626209,1253.781626209,1253.781626209,1253.781626209,1253.781626209,1253.781626209,1253.781626209,1253.781626209,1269.79072925,-7,7,2,3.0,14.096732083000006,2.0,15.9109108749999,1253.319063125,1253.321070167,1253.781626209,1253.6147204170002,,,,,,,,1253.3155900000002,1253.3190165,None,,,,,,,,,,,204,kitchen,1,2024-03-14_11h32.48.122,image_similarity_rating,2023.2.3,None,2024-03-14 11h33.00.047090 +0100,
,112,113,245,245,stimuli/own/kitchen/112_kit.jpg,stimuli/own/kitchen/113_kit.jpg,,,,,,,,,0,72,72,244,1269.813106,,,,,,,,,,,1270.0972004169998,1270.26423075,1270.26423075,1270.26423075,1270.26423075,1270.26423075,1270.26423075,1270.26423075,1270.26423075,1270.26423075,1283.5044896670001,-7,7,2,3.0,13.281715542000029,3.0,9.219863416999942,1269.794411584,1269.813106,,1270.0971816669999,,,,,,,,1269.7909488750001,1269.7943653749999,None,,,,,,,,,,,204,kitchen,1,2024-03-14_11h32.48.122,image_similarity_rating,2023.2.3,None,2024-03-14 11h33.00.047090 +0100,
,121,129,431,431,stimuli/own/kitchen/121_kit.jpg,stimuli/own/kitchen/129_kit.jpg,,,,,,,,,0,73,73,430,1283.5123857499998,,,,,,,,,,,1283.79756925,1283.964117125,1283.964117125,1283.964117125,1283.964117125,1283.964117125,1283.964117125,1283.964117125,1283.964117125,1283.964117125,1292.9827909589999,7,-7,2,1.0,6.102017082999964,3.0,8.903696125000124,1283.508258209,1283.5123857499998,1283.964117125,1283.797554959,,,,,,,,1283.50470925,1283.5082110839999,None,,,,,,,,,,,204,kitchen,1,2024-03-14_11h32.48.122,image_similarity_rating,2023.2.3,None,2024-03-14 11h33.00.047090 +0100,
,106,113,164,164,stimuli/own/kitchen/106_kit.jpg,stimuli/own/kitchen/113_kit.jpg,,,,,,,,,0,74,74,163,1292.9959720420002,,,,,,,,,,,1293.281397625,1293.4501773749998,1293.4501773749998,1293.4501773749998,1293.4501773749998,1293.4501773749998,1293.4501773749998,1293.4501773749998,1293.4501773749998,1293.4501773749998,1301.0449563749999,7,-7,2,1.0,3.9648369159999675,2.0,7.5349913749998905,1292.986885334,1292.9959720420002,1293.4501773749998,1293.281376334,,,,,,,,1292.9830269590002,1292.9868365000002,None,,,,,,,,,,,204,kitchen,1,2024-03-14_11h32.48.122,image_similarity_rating,2023.2.3,None,2024-03-14 11h33.00.047090 +0100,
,102,119,47,47,stimuli/own/kitchen/102_kit.jpg,stimuli/own/kitchen/119_kit.jpg,,,,,,,,,0,75,75,46,1301.0507605419998,,,,,,,,,,,1301.335729,1301.500122167,1301.500122167,1301.500122167,1301.500122167,1301.500122167,1301.500122167,1301.500122167,1301.500122167,1301.500122167,1309.698468959,7,-7,2,2.0,8.096634499999936,4.0,2.7140094999999747,1301.048802667,1301.0507605419998,1301.500122167,1301.335714292,,,,,,,,1301.0451885000002,1301.048755625,None,,,,,,,,,,,204,kitchen,1,2024-03-14_11h32.48.122,image_similarity_rating,2023.2.3,None,2024-03-14 11h33.00.047090 +0100,
,105,119,140,140,stimuli/own/kitchen/105_kit.jpg,stimuli/own/kitchen/119_kit.jpg,,,,,,,,,0,76,76,139,1309.703917375,,,,,,,,,,,1309.9980288339998,1310.1633928750002,1310.1633928750002,1310.1633928750002,1310.1633928750002,1310.1633928750002,1310.1633928750002,1310.1633928750002,1310.1633928750002,1310.1633928750002,1322.557097125,7,-7,2,2.0,4.288776291999966,3.0,12.319268584000156,1309.7021585000002,1309.703917375,1310.1633928750002,1309.9980096250001,,,,,,,,1309.698684292,1309.7021116249998,None,,,,,,,,,,,204,kitchen,1,2024-03-14_11h32.48.122,image_similarity_rating,2023.2.3,None,2024-03-14 11h33.00.047090 +0100,
,129,132,532,532,stimuli/own/kitchen/129_kit.jpg,stimuli/own/kitchen/132_kit.jpg,,,,,,,,,0,77,77,531,1322.5790522500001,,,,,,,,,,,1322.863321584,1323.0265867090002,1323.0265867090002,1323.0265867090002,1323.0265867090002,1323.0265867090002,1323.0265867090002,1323.0265867090002,1323.0265867090002,1323.0265867090002,1331.9113172500001,-7,7,2,1.0,8.519477499999994,3.0,3.270164790999843,1322.560781667,1322.5790522500001,,1322.863310542,,,,,,,,1322.5573238749998,1322.5607353750001,None,,,,,,,,,,,204,kitchen,1,2024-03-14_11h32.48.122,image_similarity_rating,2023.2.3,None,2024-03-14 11h33.00.047090 +0100,
,113,134,288,288,stimuli/own/kitchen/113_kit.jpg,stimuli/own/kitchen/134_kit.jpg,,,,,,,,,0,78,78,287,1331.9169777500001,,,,,,,,,,,1332.2015756249998,1332.3668082499998,1332.3668082499998,1332.3668082499998,1332.3668082499998,1332.3668082499998,1332.3668082499998,1332.3668082499998,1332.3668082499998,1332.3668082499998,1340.6655478339999,7,-7,2,2.0,5.263621000000057,3.0,8.22044249999999,1331.9150370840002,1331.9169777500001,1332.3668082499998,1332.201565167,,,,,,,,1331.9115590840001,1331.9149900000002,None,,,,,,,,,,,204,kitchen,1,2024-03-14_11h32.48.122,image_similarity_rating,2023.2.3,None,2024-03-14 11h33.00.047090 +0100,
,116,132,334,334,stimuli/own/kitchen/116_kit.jpg,stimuli/own/kitchen/132_kit.jpg,,,,,,,,,0,79,79,333,1340.679107292,,,,,,,,,,,1340.963792,1341.133734292,1341.133734292,1341.133734292,1341.133734292,1341.133734292,1341.133734292,1341.133734292,1341.133734292,1341.133734292,1355.0903936670002,7,-7,2,3.0,11.684714792000022,2.0,2.9271942089999357,1340.6694338339998,1340.679107292,1341.133734292,1340.963774792,,,,,,,,1340.665778,1340.66938475,None,,,,,,,,,,,204,kitchen,1,2024-03-14_11h32.48.122,image_similarity_rating,2023.2.3,None,2024-03-14 11h33.00.047090 +0100,
,103,134,92,92,stimuli/own/kitchen/103_kit.jpg,stimuli/own/kitchen/134_kit.jpg,,,,,,,,,0,80,80,91,1355.1124318749999,,,,,,,,,,,1355.396514959,1355.5666526250002,1355.5666526250002,1355.5666526250002,1355.5666526250002,1355.5666526250002,1355.5666526250002,1355.5666526250002,1355.5666526250002,1355.5666526250002,1361.2316849170002,-7,7,2,4.0,2.8180062910000743,4.0,5.593828708000046,1355.0940718339998,1355.1124318749999,,1355.3964891250002,,,,,,,,1355.0906138340001,1355.094025417,None,,,,,,,,,,,204,kitchen,1,2024-03-14_11h32.48.122,image_similarity_rating,2023.2.3,None,2024-03-14 11h33.00.047090 +0100,
,113,137,291,291,stimuli/own/kitchen/113_kit.jpg,stimuli/own/kitchen/137_kit.jpg,,,,,,,,,0,81,81,290,1361.2374034999998,,,,,,,,,,,1361.5302931669999,1361.696626459,1361.696626459,1361.696626459,1361.696626459,1361.696626459,1361.696626459,1361.696626459,1361.696626459,1361.696626459,1374.298093584,-7,7,2,3.0,10.986714124999935,2.0,12.543034374999934,1361.2353481670002,1361.2374034999998,1361.696626459,1361.530277792,,,,,,,,1361.2319013340002,1361.235301542,None,,,,,,,,,,,204,kitchen,1,2024-03-14_11h32.48.122,image_similarity_rating,2023.2.3,None,2024-03-14 11h33.00.047090 +0100,
,105,118,139,139,stimuli/own/kitchen/105_kit.jpg,stimuli/own/kitchen/118_kit.jpg,,,,,,,,,0,82,82,138,1374.303994167,,,,,,,,,,,1374.5971731250002,1374.7635206250002,1374.7635206250002,1374.7635206250002,1374.7635206250002,1374.7635206250002,1374.7635206250002,1374.7635206250002,1374.7635206250002,1374.7635206250002,1379.4618934589998,-7,7,2,5.0,2.980084125000076,4.0,4.50970991600002,1374.3018957089998,1374.303994167,1374.7635206250002,1374.597159,,,,,,,,1374.2983078749999,1374.3018486669998,None,,,,,,,,,,,204,kitchen,1,2024-03-14_11h32.48.122,image_similarity_rating,2023.2.3,None,2024-03-14 11h33.00.047090 +0100,
,101,119,14,14,stimuli/own/kitchen/101_kit.jpg,stimuli/own/kitchen/119_kit.jpg,,,,,,,,,0,83,83,13,1379.467711417,,,,,,,,,,,1379.7512579170002,1379.9227703340002,1379.9227703340002,1379.9227703340002,1379.9227703340002,1379.9227703340002,1379.9227703340002,1379.9227703340002,1379.9227703340002,1379.9227703340002,1390.9814767500002,7,-7,2,3.0,11.021954083000082,4.0,10.399151625000059,1379.465601042,1379.467711417,1379.9227703340002,1379.751238417,,,,,,,,1379.4621120000002,1379.4655534590001,None,,,,,,,,,,,204,kitchen,1,2024-03-14_11h32.48.122,image_similarity_rating,2023.2.3,None,2024-03-14 11h33.00.047090 +0100,
,135,139,578,578,stimuli/own/kitchen/135_kit.jpg,stimuli/own/kitchen/139_kit.jpg,,,,,,,,,0,84,84,577,1390.987188,,,,,,,,,,,1391.280169792,1391.4471022920002,1391.4471022920002,1391.4471022920002,1391.4471022920002,1391.4471022920002,1391.4471022920002,1391.4471022920002,1391.4471022920002,1391.4471022920002,1398.906891,-7,7,2,3.0,7.484448749999956,5.0,2.9083152079999763,1390.9852486250002,1390.987188,1391.4471022920002,1391.280152292,,,,,,,,1390.9816943340002,1390.9852019999998,None,,,,,,,,,,,204,kitchen,1,2024-03-14_11h32.48.122,image_similarity_rating,2023.2.3,None,2024-03-14 11h33.00.047090 +0100,
,101,109,6,6,stimuli/own/kitchen/101_kit.jpg,stimuli/own/kitchen/109_kit.jpg,,,,,,,,,0,85,85,5,1398.9288609589998,,,,,,,,,,,1399.2130347500001,1399.3818855,1399.3818855,1399.3818855,1399.3818855,1399.3818855,1399.3818855,1399.3818855,1399.3818855,1399.3818855,1410.7812920420001,-7,7,2,3.0,11.422482917000025,2.0,3.842356541000072,1398.910577875,1398.9288609589998,,1399.213009959,,,,,,,,1398.907109792,1398.9105315840002,None,,,,,,,,,,,204,kitchen,1,2024-03-14_11h32.48.122,image_similarity_rating,2023.2.3,None,2024-03-14 11h33.00.047090 +0100,
,113,129,284,284,stimuli/own/kitchen/113_kit.jpg,stimuli/own/kitchen/129_kit.jpg,,,,,,,,,0,86,86,283,1410.78669975,,,,,,,,,,,1411.0802188339999,1411.249023125,1411.249023125,1411.249023125,1411.249023125,1411.249023125,1411.249023125,1411.249023125,1411.249023125,1411.249023125,1416.4237157090001,7,-7,2,1.0,2.4405734160000065,2.0,5.10741199999984,1410.7849512500002,1410.78669975,1411.249023125,1411.080203167,,,,,,,,1410.7815087919998,1410.7849046669999,None,,,,,,,,,,,204,kitchen,1,2024-03-14_11h32.48.122,image_similarity_rating,2023.2.3,None,2024-03-14 11h33.00.047090 +0100,
,113,126,282,282,stimuli/own/kitchen/113_kit.jpg,stimuli/own/kitchen/126_kit.jpg,,,,,,,,,0,87,87,281,1416.4456864590002,,,,,,,,,,,1416.729909709,1416.896353792,1416.896353792,1416.896353792,1416.896353792,1416.896353792,1416.896353792,1416.896353792,1416.896353792,1416.896353792,1425.7624098750002,7,-7,2,3.0,7.586771666999994,2.0,8.788418750000119,1416.4273655840002,1416.4456864590002,,1416.72989125,,,,,,,,1416.423930375,1416.427319417,None,,,,,,,,,,,204,kitchen,1,2024-03-14_11h32.48.122,image_similarity_rating,2023.2.3,None,2024-03-14 11h33.00.047090 +0100,
,102,125,53,53,stimuli/own/kitchen/102_kit.jpg,stimuli/own/kitchen/125_kit.jpg,,,,,,,,,0,88,88,52,1425.7683430000002,,,,,,,,,,,1426.064327209,1426.2298662090002,1426.2298662090002,1426.2298662090002,1426.2298662090002,1426.2298662090002,1426.2298662090002,1426.2298662090002,1426.2298662090002,1426.2298662090002,1433.382252084,7,-7,2,3.0,5.568888083000047,2.0,7.0237150410000595,1425.766253417,1425.7683430000002,1426.2298662090002,1426.064312042,,,,,,,,1425.762651167,1425.766206959,None,,,,,,,,,,,204,kitchen,1,2024-03-14_11h32.48.122,image_similarity_rating,2023.2.3,None,2024-03-14 11h33.00.047090 +0100,
,119,137,401,401,stimuli/own/kitchen/119_kit.jpg,stimuli/own/kitchen/137_kit.jpg,,,,,,,,,0,89,89,400,1433.395447417,,,,,,,,,,,1433.6807926249999,1433.848251667,1433.848251667,1433.848251667,1433.848251667,1433.848251667,1433.848251667,1433.848251667,1433.848251667,1433.848251667,1448.5397657090002,-7,7,2,2.0,11.21342750000008,3.0,13.243817792000073,1433.386285917,1433.395447417,1433.848251667,1433.6807775840002,,,,,,,,1433.382484917,1433.386236542,None,,,,,,,,,,,204,kitchen,1,2024-03-14_11h32.48.122,image_similarity_rating,2023.2.3,None,2024-03-14 11h33.00.047090 +0100,
,101,120,15,15,stimuli/own/kitchen/101_kit.jpg,stimuli/own/kitchen/120_kit.jpg,,,,,,,,,0,90,90,14,1448.545264625,,,,,,,,,,,1448.8306576670002,1448.9969417500001,1448.9969417500001,1448.9969417500001,1448.9969417500001,1448.9969417500001,1448.9969417500001,1448.9969417500001,1448.9969417500001,1448.9969417500001,1457.33147925,-7,7,2,3.0,6.685569665999992,2.0,8.177544707999914,1448.543452,1448.545264625,1448.9969417500001,1448.83064375,,,,,,,,1448.5399834589998,1448.5434047919998,None,,,,,,,,,,,204,kitchen,1,2024-03-14_11h32.48.122,image_similarity_rating,2023.2.3,None,2024-03-14 11h33.00.047090 +0100,
,106,131,180,180,stimuli/own/kitchen/106_kit.jpg,stimuli/own/kitchen/131_kit.jpg,,,,,,,,,0,91,91,179,1457.3373889999998,,,,,,,,,,,1457.6304690000002,1457.796489417,1457.796489417,1457.796489417,1457.796489417,1457.796489417,1457.796489417,1457.796489417,1457.796489417,1457.796489417,1464.224135125,-7,7,2,1.0,6.051380917000188,5.0,3.098408415999984,1457.3352975839998,1457.3373889999998,1457.796489417,1457.6304554170001,,,,,,,,1457.331704917,1457.33524825,None,,,,,,,,,,,204,kitchen,1,2024-03-14_11h32.48.122,image_similarity_rating,2023.2.3,None,2024-03-14 11h33.00.047090 +0100,
,111,113,219,219,stimuli/own/kitchen/111_kit.jpg,stimuli/own/kitchen/113_kit.jpg,,,,,,,,,0,92,92,218,1464.2301467500001,,,,,,,,,,,1464.5133732499999,1464.6760720000002,1464.6760720000002,1464.6760720000002,1464.6760720000002,1464.6760720000002,1464.6760720000002,1464.6760720000002,1464.6760720000002,1464.6760720000002,1475.1356837500002,7,-7,2,3.0,10.40650354200011,4.0,4.9175331249998635,1464.2278460420002,1464.2301467500001,1464.6760720000002,1464.5133622500002,,,,,,,,1464.224351292,1464.227799542,None,,,,,,,,,,,204,kitchen,1,2024-03-14_11h32.48.122,image_similarity_rating,2023.2.3,None,2024-03-14 11h33.00.047090 +0100,
,105,112,134,134,stimuli/own/kitchen/105_kit.jpg,stimuli/own/kitchen/112_kit.jpg,,,,,,,,,0,93,93,133,1475.145342375,,,,,,,,,,,1475.430948792,1475.59654375,1475.59654375,1475.59654375,1475.59654375,1475.59654375,1475.59654375,1475.59654375,1475.59654375,1475.59654375,1484.2908575840002,-7,7,2,3.0,4.50915608299988,3.0,8.631007625000166,1475.1393561670002,1475.145342375,1475.59654375,1475.4309345420002,,,,,,,,1475.1359069589998,1475.1393092920002,None,,,,,,,,,,,204,kitchen,1,2024-03-14_11h32.48.122,image_similarity_rating,2023.2.3,None,2024-03-14 11h33.00.047090 +0100,
,132,140,566,566,stimuli/own/kitchen/132_kit.jpg,stimuli/own/kitchen/140_kit.jpg,,,,,,,,,0,94,94,565,1484.296868459,,,,,,,,,,,1484.580084625,1484.743613875,1484.743613875,1484.743613875,1484.743613875,1484.743613875,1484.743613875,1484.743613875,1484.743613875,1484.743613875,1497.5746009590002,7,-7,2,5.0,4.634951999999885,4.0,12.620632916000204,1484.2947319999998,1484.296868459,1484.743613875,1484.5800706250002,,,,,,,,1484.2910782919998,1484.2946847500002,None,,,,,,,,,,,204,kitchen,1,2024-03-14_11h32.48.122,image_similarity_rating,2023.2.3,None,2024-03-14 11h33.00.047090 +0100,
,111,140,243,243,stimuli/own/kitchen/111_kit.jpg,stimuli/own/kitchen/140_kit.jpg,,,,,,,,,0,95,95,242,1497.580297125,,,,,,,,,,,1497.8640770840002,1498.03085475,1498.03085475,1498.03085475,1498.03085475,1498.03085475,1498.03085475,1498.03085475,1498.03085475,1498.03085475,1511.89037,-7,7,2,3.0,10.16057145800005,2.0,13.760911707999867,1497.5784253339998,1497.580297125,1498.03085475,1497.8640622500002,,,,,,,,1497.5748210420002,1497.5783781250002,None,,,,,,,,,,,204,kitchen,1,2024-03-14_11h32.48.122,image_similarity_rating,2023.2.3,None,2024-03-14 11h33.00.047090 +0100,
,131,139,557,557,stimuli/own/kitchen/131_kit.jpg,stimuli/own/kitchen/139_kit.jpg,,,,,,,,,0,96,96,556,1511.8964045839998,,,,,,,,,,,1512.1807104999998,1512.346746792,1512.346746792,1512.346746792,1512.346746792,1512.346746792,1512.346746792,1512.346746792,1512.346746792,1512.346746792,1521.9241769169998,7,-7,2,1.0,4.991856999999982,3.0,9.440872458000058,1511.8940669170001,1511.8964045839998,1512.346746792,1512.180696125,,,,,,,,1511.8905922499998,1511.894014292,None,,,,,,,,,,,204,kitchen,1,2024-03-14_11h32.48.122,image_similarity_rating,2023.2.3,None,2024-03-14 11h33.00.047090 +0100,
,102,116,44,44,stimuli/own/kitchen/102_kit.jpg,stimuli/own/kitchen/116_kit.jpg,,,,,,,,,0,97,97,43,1521.9297889170002,,,,,,,,,,,1522.213261375,1522.386735084,1522.386735084,1522.386735084,1522.386735084,1522.386735084,1522.386735084,1522.386735084,1522.386735084,1522.386735084,1530.3735380839998,-7,7,2,3.0,7.945006207999995,3.0,3.293050125000036,1521.927911834,1521.9297889170002,1522.386735084,1522.213244209,,,,,,,,1521.924393542,1521.9278655419998,None,,,,,,,,,,,204,kitchen,1,2024-03-14_11h32.48.122,image_similarity_rating,2023.2.3,None,2024-03-14 11h33.00.047090 +0100,
,106,111,162,162,stimuli/own/kitchen/106_kit.jpg,stimuli/own/kitchen/111_kit.jpg,,,,,,,,,0,98,98,161,1530.3795801669999,,,,,,,,,,,1530.6630799590002,1530.826767292,1530.826767292,1530.826767292,1530.826767292,1530.826767292,1530.826767292,1530.826767292,1530.826767292,1530.826767292,1541.172762875,7,-7,2,2.0,10.006175084000006,1.0,5.7969227500000216,1530.377373459,1530.3795801669999,1530.826767292,1530.6630689170001,,,,,,,,1530.373754792,1530.3773203340002,None,,,,,,,,,,,204,kitchen,1,2024-03-14_11h32.48.122,image_similarity_rating,2023.2.3,None,2024-03-14 11h33.00.047090 +0100,
,127,131,520,520,stimuli/own/kitchen/127_kit.jpg,stimuli/own/kitchen/131_kit.jpg,,,,,,,,,0,99,99,519,1541.1783957090001,,,,,,,,,,,1541.462956292,1541.629927417,1541.629927417,1541.629927417,1541.629927417,1541.629927417,1541.629927417,1541.629927417,1541.629927417,1541.629927417,1547.6014142919998,-7,7,2,1.0,5.8721018749999985,1.0,3.038210290999814,1541.176422209,1541.1783957090001,1541.629927417,1541.4629420840001,,,,,,,,1541.172980834,1541.1763757499998,None,,,,,,,,,,,204,kitchen,1,2024-03-14_11h32.48.122,image_similarity_rating,2023.2.3,None,2024-03-14 11h33.00.047090 +0100,
,116,134,335,335,stimuli/own/kitchen/116_kit.jpg,stimuli/own/kitchen/134_kit.jpg,,,,,,,,,0,100,100,334,1547.6117224589998,,,,,,,,,,,1547.8973194999999,1548.063190542,1548.063190542,1548.063190542,1548.063190542,1548.063190542,1548.063190542,1548.063190542,1548.063190542,1548.063190542,1566.498137084,-7,7,2,5.0,18.106605124999987,3.0,12.009385541000029,1547.605101834,1547.6117224589998,1548.063190542,1547.8973043750002,,,,,,,,1547.601635209,1547.60505525,None,,,,,,,,,,,204,kitchen,1,2024-03-14_11h32.48.122,image_similarity_rating,2023.2.3,None,2024-03-14 11h33.00.047090 +0100,
,135,141,580,580,stimuli/own/kitchen/135_kit.jpg,stimuli/own/kitchen/141_kit.jpg,,,,,,,,,0,101,101,579,1566.503647167,,,,,,,,,,,1566.7970126250002,1566.9663166250002,1566.9663166250002,1566.9663166250002,1566.9663166250002,1566.9663166250002,1566.9663166250002,1566.9663166250002,1566.9663166250002,1566.9663166250002,1575.526984959,7,-7,2,3.0,5.822172624999894,2.0,3.527700500000037,1566.501891417,1566.503647167,1566.9663166250002,1566.7969954589998,,,,,,,,1566.498357334,1566.5018448750002,None,,,,,,,,,,,204,kitchen,1,2024-03-14_11h32.48.122,image_similarity_rating,2023.2.3,None,2024-03-14 11h33.00.047090 +0100,
,105,137,156,156,stimuli/own/kitchen/105_kit.jpg,stimuli/own/kitchen/137_kit.jpg,,,,,,,,,0,102,102,155,1575.532446625,,,,,,,,,,,1575.8169631669998,1575.9843167919998,1575.9843167919998,1575.9843167919998,1575.9843167919998,1575.9843167919998,1575.9843167919998,1575.9843167919998,1575.9843167919998,1575.9843167919998,1588.563951,-7,7,2,4.0,12.41721808400007,3.0,5.995084958000007,1575.5307135419998,1575.532446625,1575.9843167919998,1575.816949084,,,,,,,,1575.5272074590002,1575.530665917,None,,,,,,,,,,,204,kitchen,1,2024-03-14_11h32.48.122,image_similarity_rating,2023.2.3,None,2024-03-14 11h33.00.047090 +0100,
,126,141,517,517,stimuli/own/kitchen/126_kit.jpg,stimuli/own/kitchen/141_kit.jpg,,,,,,,,,0,103,103,516,1588.569619292,,,,,,,,,,,1588.862993542,1589.0294855000002,1589.0294855000002,1589.0294855000002,1589.0294855000002,1589.0294855000002,1589.0294855000002,1589.0294855000002,1589.0294855000002,1589.0294855000002,1596.8852378339998,-7,7,2,5.0,7.654111583000031,2.0,3.0635462919999554,1588.567697334,1588.569619292,1589.0294855000002,1588.8629795840002,,,,,,,,1588.5641678339998,1588.567650292,None,,,,,,,,,,,204,kitchen,1,2024-03-14_11h32.48.122,image_similarity_rating,2023.2.3,None,2024-03-14 11h33.00.047090 +0100,
,118,134,378,378,stimuli/own/kitchen/118_kit.jpg,stimuli/own/kitchen/134_kit.jpg,,,,,,,,,0,104,104,377,1596.894891167,,,,,,,,,,,1597.1794627919999,1597.346449875,1597.346449875,1597.346449875,1597.346449875,1597.346449875,1597.346449875,1597.346449875,1597.346449875,1597.346449875,1607.748916209,-7,7,2,5.0,6.6914207499999065,1.0,9.984034584000256,1596.8889089169998,1596.894891167,1597.346449875,1597.179447209,,,,,,,,1596.885457334,1596.8888617499997,None,,,,,,,,,,,204,kitchen,1,2024-03-14_11h32.48.122,image_similarity_rating,2023.2.3,None,2024-03-14 11h33.00.047090 +0100,
,111,121,226,226,stimuli/own/kitchen/111_kit.jpg,stimuli/own/kitchen/121_kit.jpg,,,,,,,,,0,105,105,225,1607.7548525839998,,,,,,,,,,,1608.04736425,1608.2142275,1608.2142275,1608.2142275,1608.2142275,1608.2142275,1608.2142275,1608.2142275,1608.2142275,1608.2142275,1642.451556167,-7,7,2,4.0,6.296315374999722,2.0,28.25393112499978,1607.75273325,1607.7548525839998,1608.2142275,1608.047350417,,,,,,,,1607.749148167,1607.752685542,None,,,,,,,,,,,204,kitchen,1,2024-03-14_11h32.48.122,image_similarity_rating,2023.2.3,None,2024-03-14 11h33.00.047090 +0100,
,129,137,536,536,stimuli/own/kitchen/129_kit.jpg,stimuli/own/kitchen/137_kit.jpg,,,,,,,,,0,106,106,535,1642.461402417,,,,,,,,,,,1642.7459268339999,1642.9117915419997,1642.9117915419997,1642.9117915419997,1642.9117915419997,1642.9117915419997,1642.9117915419997,1642.9117915419997,1642.9117915419997,1642.9117915419997,1649.1976448340001,7,-7,2,1.0,3.5889884580001308,1.0,6.166456667000148,1642.4552358749997,1642.461402417,1642.9117915419997,1642.7459078339998,,,,,,,,1642.4517775,1642.4551887499997,None,,,,,,,,,,,204,kitchen,1,2024-03-14_11h32.48.122,image_similarity_rating,2023.2.3,None,2024-03-14 11h33.00.047090 +0100,
,109,125,203,203,stimuli/own/kitchen/109_kit.jpg,stimuli/own/kitchen/125_kit.jpg,,,,,,,,,0,107,107,202,1649.2035245419997,,,,,,,,,,,1649.4958918339998,1649.6634827089997,1649.6634827089997,1649.6634827089997,1649.6634827089997,1649.6634827089997,1649.6634827089997,1649.6634827089997,1649.6634827089997,1649.6634827089997,1658.659959917,-7,7,2,2.0,7.041753416999654,1.0,8.875682957999743,1649.201416542,1649.2035245419997,1649.6634827089997,1649.495876125,,,,,,,,1649.197870334,1649.201369292,None,,,,,,,,,,,204,kitchen,1,2024-03-14_11h32.48.122,image_similarity_rating,2023.2.3,None,2024-03-14 11h33.00.047090 +0100,
,125,135,498,498,stimuli/own/kitchen/125_kit.jpg,stimuli/own/kitchen/135_kit.jpg,,,,,,,,,0,108,108,497,1658.66559775,,,,,,,,,,,1658.9505666249997,1659.115515042,1659.115515042,1659.115515042,1659.115515042,1659.115515042,1659.115515042,1659.115515042,1659.115515042,1659.115515042,1671.5563012089997,-7,7,2,3.0,6.8853301250001095,1.0,12.242305416999898,1658.663673084,1658.66559775,1659.115515042,1658.9505562499999,,,,,,,,1658.660187084,1658.6636263340001,None,,,,,,,,,,,204,kitchen,1,2024-03-14_11h32.48.122,image_similarity_rating,2023.2.3,None,2024-03-14 11h33.00.047090 +0100,
,132,136,562,562,stimuli/own/kitchen/132_kit.jpg,stimuli/own/kitchen/136_kit.jpg,,,,,,,,,0,109,109,561,1671.562688209,,,,,,,,,,,1671.8462236249998,1672.0112549589999,1672.0112549589999,1672.0112549589999,1672.0112549589999,1672.0112549589999,1672.0112549589999,1672.0112549589999,1672.0112549589999,1672.0112549589999,1682.2391871669997,7,-7,2,3.0,10.138733125000272,3.0,4.226264584000091,1671.560111584,1671.562688209,1672.0112549589999,1671.8462095,,,,,,,,1671.5565190419998,1671.56006175,None,,,,,,,,,,,204,kitchen,1,2024-03-14_11h32.48.122,image_similarity_rating,2023.2.3,None,2024-03-14 11h33.00.047090 +0100,
,109,131,208,208,stimuli/own/kitchen/109_kit.jpg,stimuli/own/kitchen/131_kit.jpg,,,,,,,,,0,110,110,207,1682.26168125,,,,,,,,,,,1682.5453712919998,1682.715433209,1682.715433209,1682.715433209,1682.715433209,1682.715433209,1682.715433209,1682.715433209,1682.715433209,1682.715433209,1686.363737709,-7,7,2,1.0,3.522642041999916,1.0,2.394149666999965,1682.2428626669998,1682.26168125,,1682.5453485419998,,,,,,,,1682.2394051669999,1682.2428157089998,None,,,,,,,,,,,204,kitchen,1,2024-03-14_11h32.48.122,image_similarity_rating,2023.2.3,None,2024-03-14 11h33.00.047090 +0100,
,119,127,393,393,stimuli/own/kitchen/119_kit.jpg,stimuli/own/kitchen/127_kit.jpg,,,,,,,,,0,111,111,392,1686.3692970839998,,,,,,,,,,,1686.662626709,1686.836164834,1686.836164834,1686.836164834,1686.836164834,1686.836164834,1686.836164834,1686.836164834,1686.836164834,1686.836164834,1694.6889016249997,-7,7,2,3.0,7.792218000000048,2.0,3.2904074999996737,1686.367376625,1686.3692970839998,1686.836164834,1686.6626097499998,,,,,,,,1686.3639534999998,1686.3673303339997,None,,,,,,,,,,,204,kitchen,1,2024-03-14_11h32.48.122,image_similarity_rating,2023.2.3,None,2024-03-14 11h33.00.047090 +0100,
,105,117,138,596,stimuli/own/kitchen/105_kit.jpg,stimuli/own/kitchen/117_kit.jpg,,,,,,,,,0,112,112,595,1694.711465584,,,,,,,,,,,1694.9953772499998,1695.1648997499997,1695.1648997499997,1695.1648997499997,1695.1648997499997,1695.1648997499997,1695.1648997499997,1695.1648997499997,1695.1648997499997,1695.1648997499997,1706.9224626669998,7,-7,2,5.0,11.683136250000189,4.0,8.059626165999816,1694.6929300839997,1694.711465584,,1694.9953558749999,,,,,,,,1694.6891258749997,1694.692880084,None,,,,,,,,,,,204,kitchen,1,2024-03-14_11h32.48.122,image_similarity_rating,2023.2.3,None,2024-03-14 11h33.00.047090 +0100,
,105,125,146,146,stimuli/own/kitchen/105_kit.jpg,stimuli/own/kitchen/125_kit.jpg,,,,,,,,,0,113,113,145,1706.944936667,,,,,,,,,,,1707.2288536669998,1707.3967469589998,1707.3967469589998,1707.3967469589998,1707.3967469589998,1707.3967469589998,1707.3967469589998,1707.3967469589998,1707.3967469589998,1707.3967469589998,1720.1135624589997,-7,7,2,3.0,12.589900292000038,4.0,11.59395854200011,1706.9261185,1706.944936667,,1707.2288317499997,,,,,,,,1706.9226818339998,1706.9260719999997,None,,,,,,,,,,,204,kitchen,1,2024-03-14_11h32.48.122,image_similarity_rating,2023.2.3,None,2024-03-14 11h33.00.047090 +0100,
,129,139,538,538,stimuli/own/kitchen/129_kit.jpg,stimuli/own/kitchen/139_kit.jpg,,,,,,,,,0,114,114,537,1720.119170292,,,,,,,,,,,1720.412911042,1720.5776125419998,1720.5776125419998,1720.5776125419998,1720.5776125419998,1720.5776125419998,1720.5776125419998,1720.5776125419998,1720.5776125419998,1720.5776125419998,1730.3886965839997,7,-7,2,1.0,9.672448082999836,4.0,4.218386166000073,1720.1172585,1720.119170292,1720.5776125419998,1720.412890959,,,,,,,,1720.113779334,1720.117211667,None,,,,,,,,,,,204,kitchen,1,2024-03-14_11h32.48.122,image_similarity_rating,2023.2.3,None,2024-03-14 11h33.00.047090 +0100,
,104,121,112,112,stimuli/own/kitchen/104_kit.jpg,stimuli/own/kitchen/121_kit.jpg,,,,,,,,,0,115,115,111,1730.3942137919998,,,,,,,,,,,1730.6800319999998,1730.8455119589999,1730.8455119589999,1730.8455119589999,1730.8455119589999,1730.8455119589999,1730.8455119589999,1730.8455119589999,1730.8455119589999,1730.8455119589999,1740.4468585,-7,7,2,5.0,7.728251708999778,3.0,3.4482078340001863,1730.3924607919998,1730.3942137919998,1730.8455119589999,1730.680017625,,,,,,,,1730.388912459,1730.3924138749999,None,,,,,,,,,,,204,kitchen,1,2024-03-14_11h32.48.122,image_similarity_rating,2023.2.3,None,2024-03-14 11h33.00.047090 +0100,
,105,127,148,148,stimuli/own/kitchen/105_kit.jpg,stimuli/own/kitchen/127_kit.jpg,,,,,,,,,0,116,116,147,1740.45247475,,,,,,,,,,,1740.7462622919998,1740.9119840419999,1740.9119840419999,1740.9119840419999,1740.9119840419999,1740.9119840419999,1740.9119840419999,1740.9119840419999,1740.9119840419999,1740.9119840419999,1750.405379667,-7,7,2,5.0,4.780758792000142,3.0,7.914865541999916,1740.4505464999997,1740.45247475,1740.9119840419999,1740.7462492089999,,,,,,,,1740.4470754999998,1740.4504996249998,None,,,,,,,,,,,204,kitchen,1,2024-03-14_11h32.48.122,image_similarity_rating,2023.2.3,None,2024-03-14 11h33.00.047090 +0100,
,113,130,285,285,stimuli/own/kitchen/113_kit.jpg,stimuli/own/kitchen/130_kit.jpg,,,,,,,,,0,117,117,284,1750.410890709,,,,,,,,,,,1750.695750125,1750.8611565,1750.8611565,1750.8611565,1750.8611565,1750.8611565,1750.8611565,1750.8611565,1750.8611565,1750.8611565,1761.8176654999997,-7,7,2,4.0,6.520670625000093,2.0,10.796361499999875,1750.4090797089998,1750.410890709,1750.8611565,1750.6957363339998,,,,,,,,1750.4056029170001,1750.4090326669998,None,,,,,,,,,,,204,kitchen,1,2024-03-14_11h32.48.122,image_similarity_rating,2023.2.3,None,2024-03-14 11h33.00.047090 +0100,
,109,141,217,217,stimuli/own/kitchen/109_kit.jpg,stimuli/own/kitchen/141_kit.jpg,,,,,,,,,0,118,118,216,1761.8275475,,,,,,,,,,,1762.1131464169998,1762.2773978749997,1762.2773978749997,1762.2773978749997,1762.2773978749997,1762.2773978749997,1762.2773978749997,1762.2773978749997,1762.2773978749997,1762.2773978749997,1773.5725564169998,-7,7,2,1.0,11.279849541000203,1.0,4.2153687079999145,1761.821350834,1761.8275475,1762.2773978749997,1762.113128,,,,,,,,1761.8178842919997,1761.821304917,None,,,,,,,,,,,204,kitchen,1,2024-03-14_11h32.48.122,image_similarity_rating,2023.2.3,None,2024-03-14 11h33.00.047090 +0100,
,121,125,428,428,stimuli/own/kitchen/121_kit.jpg,stimuli/own/kitchen/125_kit.jpg,,,,,,,,,0,119,119,427,1773.578825084,,,,,,,,,,,1773.862276542,1774.026876459,1774.026876459,1774.026876459,1774.026876459,1774.026876459,1774.026876459,1774.026876459,1774.026876459,1774.026876459,1790.580219084,-7,7,2,2.0,13.723525082999913,1.0,16.47894550000001,1773.5762210839998,1773.578825084,1774.026876459,1773.862261709,,,,,,,,1773.5727725419997,1773.576174334,None,,,,,,,,,,,204,kitchen,1,2024-03-14_11h32.48.122,image_similarity_rating,2023.2.3,None,2024-03-14 11h33.00.047090 +0100,
,116,122,325,325,stimuli/own/kitchen/116_kit.jpg,stimuli/own/kitchen/122_kit.jpg,,,,,,,,,0,120,120,324,1790.5860889169999,,,,,,,,,,,1790.8788691249997,1791.0443168749998,1791.0443168749998,1791.0443168749998,1791.0443168749998,1791.0443168749998,1791.0443168749998,1791.0443168749998,1791.0443168749998,1791.0443168749998,1808.5936216669998,7,-7,2,2.0,14.466859833000399,2.0,17.43568170799972,1790.584009625,1790.5860889169999,1791.0443168749998,1790.878854,,,,,,,,1790.580437,1790.583963125,None,,,,,,,,,,,204,kitchen,1,2024-03-14_11h32.48.122,image_similarity_rating,2023.2.3,None,2024-03-14 11h33.00.047090 +0100,
,102,135,61,61,stimuli/own/kitchen/102_kit.jpg,stimuli/own/kitchen/135_kit.jpg,,,,,,,,,0,121,121,60,1808.5994485420001,,,,,,,,,,,1808.88365725,1809.0491270419998,1809.0491270419998,1809.0491270419998,1809.0491270419998,1809.0491270419998,1809.0491270419998,1809.0491270419998,1809.0491270419998,1809.0491270419998,1817.7384871670001,-7,7,2,3.0,8.650513124999634,2.0,3.335357667000153,1808.5973750419998,1808.5994485420001,1809.0491270419998,1808.883643667,,,,,,,,1808.5938379999998,1808.5973279589998,None,,,,,,,,,,,204,kitchen,1,2024-03-14_11h32.48.122,image_similarity_rating,2023.2.3,None,2024-03-14 11h33.00.047090 +0100,
,127,129,518,518,stimuli/own/kitchen/127_kit.jpg,stimuli/own/kitchen/129_kit.jpg,,,,,,,,,0,122,122,517,1817.760974875,,,,,,,,,,,1818.04491275,1818.2133195839997,1818.2133195839997,1818.2133195839997,1818.2133195839997,1818.2133195839997,1818.2133195839997,1818.2133195839997,1818.2133195839997,1818.2133195839997,1822.5309713339998,-7,7,2,1.0,2.9018985409998095,1.0,3.730559957999958,1817.742363584,1817.760974875,,1818.044892667,,,,,,,,1817.738705584,1817.742314,None,,,,,,,,,,,204,kitchen,1,2024-03-14_11h32.48.122,image_similarity_rating,2023.2.3,None,2024-03-14 11h33.00.047090 +0100,
,120,132,416,416,stimuli/own/kitchen/120_kit.jpg,stimuli/own/kitchen/132_kit.jpg,,,,,,,,,0,123,123,415,1822.5371180419997,,,,,,,,,,,1822.8287047919998,1822.9930090839998,1822.9930090839998,1822.9930090839998,1822.9930090839998,1822.9930090839998,1822.9930090839998,1822.9930090839998,1822.9930090839998,1822.9930090839998,1837.713372542,-7,7,2,6.0,8.385084083000038,2.0,14.447161499999766,1822.5349218339998,1822.5371180419997,1822.9930090839998,1822.8286940419998,,,,,,,,1822.5312007499997,1822.534864667,None,,,,,,,,,,,204,kitchen,1,2024-03-14_11h32.48.122,image_similarity_rating,2023.2.3,None,2024-03-14 11h33.00.047090 +0100,
,117,122,347,347,stimuli/own/kitchen/117_kit.jpg,stimuli/own/kitchen/122_kit.jpg,,,,,,,,,0,124,124,346,1837.718938084,,,,,,,,,,,1838.0121817499999,1838.17631325,1838.17631325,1838.17631325,1838.17631325,1838.17631325,1838.17631325,1838.17631325,1838.17631325,1838.17631325,1848.9629885,-7,7,2,5.0,10.6114952920002,4.0,2.3413940000000366,1837.7171681249997,1837.718938084,1838.17631325,1838.01216725,,,,,,,,1837.7135927499999,1837.717121625,None,,,,,,,,,,,204,kitchen,1,2024-03-14_11h32.48.122,image_similarity_rating,2023.2.3,None,2024-03-14 11h33.00.047090 +0100,
,105,114,136,136,stimuli/own/kitchen/105_kit.jpg,stimuli/own/kitchen/114_kit.jpg,,,,,,,,,0,125,125,135,1848.9685868339998,,,,,,,,,,,1849.261899875,1849.4277710839997,1849.4277710839997,1849.4277710839997,1849.4277710839997,1849.4277710839997,1849.4277710839997,1849.4277710839997,1849.4277710839997,1849.4277710839997,1860.330032584,7,-7,2,4.0,7.088392332999774,4.0,10.80201575000001,1848.9666425,1848.9685868339998,1849.4277710839997,1849.261885584,,,,,,,,1848.9632068339997,1848.9665963339999,None,,,,,,,,,,,204,kitchen,1,2024-03-14_11h32.48.122,image_similarity_rating,2023.2.3,None,2024-03-14 11h33.00.047090 +0100,
,112,131,261,261,stimuli/own/kitchen/112_kit.jpg,stimuli/own/kitchen/131_kit.jpg,,,,,,,,,0,126,126,260,1860.3361944590001,,,,,,,,,,,1892.311773125,1892.4866635839999,1892.4866635839999,1892.4866635839999,1892.4866635839999,1892.4866635839999,1892.4866635839999,1892.4866635839999,1892.4866635839999,1892.4866635839999,1904.606304167,-7,7,3,1.0,9.57734391599979,1.0,11.574519458000395,1892.0192255839997,1892.0278574589997,1892.4866635839999,1892.311755584,,,,,,,,1860.3302470419999,1892.0188659169999,space,1860.3361944590001,31.682496375000028,None,,,,,,,,204,kitchen,1,2024-03-14_11h32.48.122,image_similarity_rating,2023.2.3,None,2024-03-14 11h33.00.047090 +0100,
,102,139,65,65,stimuli/own/kitchen/102_kit.jpg,stimuli/own/kitchen/139_kit.jpg,,,,,,,,,0,127,127,64,1904.612472667,,,,,,,,,,,1904.900754417,1905.068628292,1905.068628292,1905.068628292,1905.068628292,1905.068628292,1905.068628292,1905.068628292,1905.068628292,1905.068628292,1919.7212115839998,7,-7,3,2.0,8.67412591700031,2.0,14.591273917000308,1904.6105205,1904.612472667,1905.068628292,1904.900739917,,,,,,,,1904.606521625,1904.6104729589997,None,,,,,,,,,,,204,kitchen,1,2024-03-14_11h32.48.122,image_similarity_rating,2023.2.3,None,2024-03-14 11h33.00.047090 +0100,
,124,135,484,484,stimuli/own/kitchen/124_kit.jpg,stimuli/own/kitchen/135_kit.jpg,,,,,,,,,0,128,128,483,1919.7268455839999,,,,,,,,,,,1920.0124982499997,1920.179309,1920.179309,1920.179309,1920.179309,1920.179309,1920.179309,1920.179309,1920.179309,1920.179309,1925.87156,-7,7,3,2.0,5.634833708000315,4.0,3.084951000000274,1919.7249941249997,1919.7268455839999,1920.179309,1920.0124826249998,,,,,,,,1919.721434125,1919.7249472089998,None,,,,,,,,,,,204,kitchen,1,2024-03-14_11h32.48.122,image_similarity_rating,2023.2.3,None,2024-03-14 11h33.00.047090 +0100,
,102,141,67,67,stimuli/own/kitchen/102_kit.jpg,stimuli/own/kitchen/141_kit.jpg,,,,,,,,,0,129,129,66,1925.8936132499998,,,,,,,,,,,1926.178008292,1926.3444677090001,1926.3444677090001,1926.3444677090001,1926.3444677090001,1926.3444677090001,1926.3444677090001,1926.3444677090001,1926.3444677090001,1926.3444677090001,1937.388016042,-7,7,3,2.0,10.893111041999873,2.0,2.764983458000188,1925.875234959,1925.8936132499998,,1926.1779886250001,,,,,,,,1925.871776084,1925.8751884999997,None,,,,,,,,,,,204,kitchen,1,2024-03-14_11h32.48.122,image_similarity_rating,2023.2.3,None,2024-03-14 11h33.00.047090 +0100,
,113,122,278,278,stimuli/own/kitchen/113_kit.jpg,stimuli/own/kitchen/122_kit.jpg,,,,,,,,,0,130,130,277,1937.4102882500001,,,,,,,,,,,1937.694553542,1937.864408542,1937.864408542,1937.864408542,1937.864408542,1937.864408542,1937.864408542,1937.864408542,1937.864408542,1937.864408542,1950.0219456669997,7,-7,3,4.0,8.402530083000329,2.0,11.70971099999997,1937.3918265419998,1937.4102882500001,,1937.694522792,,,,,,,,1937.388234209,1937.39178025,None,,,,,,,,,,,204,kitchen,1,2024-03-14_11h32.48.122,image_similarity_rating,2023.2.3,None,2024-03-14 11h33.00.047090 +0100,
,116,130,332,332,stimuli/own/kitchen/116_kit.jpg,stimuli/own/kitchen/130_kit.jpg,,,,,,,,,0,131,131,331,1950.0281515839997,,,,,,,,,,,1950.3121784589998,1950.4761899169998,1950.4761899169998,1950.4761899169998,1950.4761899169998,1950.4761899169998,1950.4761899169998,1950.4761899169998,1950.4761899169998,1950.4761899169998,1962.7305712919997,7,-7,3,3.0,10.843176750000111,2.0,12.113308624999718,1950.025746834,1950.0281515839997,1950.4761899169998,1950.312164084,,,,,,,,1950.0221634169998,1950.0256964999999,None,,,,,,,,,,,204,kitchen,1,2024-03-14_11h32.48.122,image_similarity_rating,2023.2.3,None,2024-03-14 11h33.00.047090 +0100,
,121,123,426,426,stimuli/own/kitchen/121_kit.jpg,stimuli/own/kitchen/123_kit.jpg,,,,,,,,,0,132,132,425,1962.743517084,,,,,,,,,,,1963.0290828749999,1963.1972095840001,1963.1972095840001,1963.1972095840001,1963.1972095840001,1963.1972095840001,1963.1972095840001,1963.1972095840001,1963.1972095840001,1963.1972095840001,1973.009635542,7,-7,3,2.0,5.692425708999963,1.0,9.698915709000175,1962.7344659999999,1962.743517084,1963.1972095840001,1963.0290627089998,,,,,,,,1962.73080475,1962.734408667,None,,,,,,,,,,,204,kitchen,1,2024-03-14_11h32.48.122,image_similarity_rating,2023.2.3,None,2024-03-14 11h33.00.047090 +0100,
,118,136,380,380,stimuli/own/kitchen/118_kit.jpg,stimuli/own/kitchen/136_kit.jpg,,,,,,,,,0,133,133,379,1973.0152235,,,,,,,,,,,1973.2982245839999,1973.4626143339997,1973.4626143339997,1973.4626143339997,1973.4626143339997,1973.4626143339997,1973.4626143339997,1973.4626143339997,1973.4626143339997,1973.4626143339997,1982.7628736249999,7,-7,3,4.0,9.021692291000363,1.0,4.429072458000064,1973.013308959,1973.0152235,1973.4626143339997,1973.2982132920001,,,,,,,,1973.009851375,1973.013262334,None,,,,,,,,,,,204,kitchen,1,2024-03-14_11h32.48.122,image_similarity_rating,2023.2.3,None,2024-03-14 11h33.00.047090 +0100,
,117,137,360,360,stimuli/own/kitchen/117_kit.jpg,stimuli/own/kitchen/137_kit.jpg,,,,,,,,,0,134,134,359,1982.7684804169999,,,,,,,,,,,1983.06159725,1983.226000834,1983.226000834,1983.226000834,1983.226000834,1983.226000834,1983.226000834,1983.226000834,1983.226000834,1983.226000834,1991.362631,-7,7,3,3.0,3.839647958999649,3.0,7.250969125000211,1982.766565334,1982.7684804169999,1983.226000834,1983.0615830419997,,,,,,,,1982.7630935839998,1982.7665187919997,None,,,,,,,,,,,204,kitchen,1,2024-03-14_11h32.48.122,image_similarity_rating,2023.2.3,None,2024-03-14 11h33.00.047090 +0100,
,129,140,539,539,stimuli/own/kitchen/129_kit.jpg,stimuli/own/kitchen/140_kit.jpg,,,,,,,,,0,135,135,538,1991.3682456249999,,,,,,,,,,,1991.6622244589998,1991.828826459,1991.828826459,1991.828826459,1991.828826459,1991.828826459,1991.828826459,1991.828826459,1991.828826459,1991.828826459,1994.797421542,-7,7,3,1.0,1.888748416999988,1.0,2.6042366670003503,1991.366320792,1991.3682456249999,1991.828826459,1991.662206042,,,,,,,,1991.362860834,1991.366274417,None,,,,,,,,,,,204,kitchen,1,2024-03-14_11h32.48.122,image_similarity_rating,2023.2.3,None,2024-03-14 11h33.00.047090 +0100,
,122,130,449,449,stimuli/own/kitchen/122_kit.jpg,stimuli/own/kitchen/130_kit.jpg,,,,,,,,,0,136,136,448,1994.810039459,,,,,,,,,,,1995.095559375,1995.2619247499997,1995.2619247499997,1995.2619247499997,1995.2619247499997,1995.2619247499997,1995.2619247499997,1995.2619247499997,1995.2619247499997,1995.2619247499997,2006.5421475419998,-7,7,3,5.0,5.888293458000135,3.0,7.55382362499995,1994.8013042089997,1994.810039459,1995.2619247499997,1995.095544375,,,,,,,,1994.7976478339997,1994.8012555,None,,,,,,,,,,,204,kitchen,1,2024-03-14_11h32.48.122,image_similarity_rating,2023.2.3,None,2024-03-14 11h33.00.047090 +0100,
,120,130,414,414,stimuli/own/kitchen/120_kit.jpg,stimuli/own/kitchen/130_kit.jpg,,,,,,,,,0,137,137,413,2006.5479043749997,,,,,,,,,,,2006.8330287089998,2006.996106917,2006.996106917,2006.996106917,2006.996106917,2006.996106917,2006.996106917,2006.996106917,2006.996106917,2006.996106917,2014.667741834,7,-7,3,4.0,3.4770138750000115,2.0,7.5232273750002605,2006.545980125,2006.5479043749997,2006.996106917,2006.833014417,,,,,,,,2006.5423930419997,2006.545933459,None,,,,,,,,,,,204,kitchen,1,2024-03-14_11h32.48.122,image_similarity_rating,2023.2.3,None,2024-03-14 11h33.00.047090 +0100,
,136,141,585,585,stimuli/own/kitchen/136_kit.jpg,stimuli/own/kitchen/141_kit.jpg,,,,,,,,,0,138,138,584,2014.6765943340001,,,,,,,,,,,2014.9619427919997,2015.1274576669998,2015.1274576669998,2015.1274576669998,2015.1274576669998,2015.1274576669998,2015.1274576669998,2015.1274576669998,2015.1274576669998,2015.1274576669998,2021.9931148749997,-7,7,3,5.0,2.0759475830000156,3.0,6.693039540999962,2014.6714151669999,2014.6765943340001,2015.1274576669998,2014.9619282499998,,,,,,,,2014.667959459,2014.671369625,None,,,,,,,,,,,204,kitchen,1,2024-03-14_11h32.48.122,image_similarity_rating,2023.2.3,None,2024-03-14 11h33.00.047090 +0100,
,125,138,501,501,stimuli/own/kitchen/125_kit.jpg,stimuli/own/kitchen/138_kit.jpg,,,,,,,,,0,139,139,500,2021.998929334,,,,,,,,,,,2022.282360792,2022.4475685419998,2022.4475685419998,2022.4475685419998,2022.4475685419998,2022.4475685419998,2022.4475685419998,2022.4475685419998,2022.4475685419998,2022.4475685419998,2036.729400834,-7,7,3,4.0,6.827563583000028,2.0,14.17046845799996,2021.9968292089998,2021.998929334,2022.4475685419998,2022.282344709,,,,,,,,2021.993338584,2021.996783167,None,,,,,,,,,,,204,kitchen,1,2024-03-14_11h32.48.122,image_similarity_rating,2023.2.3,None,2024-03-14 11h33.00.047090 +0100,
,116,140,341,341,stimuli/own/kitchen/116_kit.jpg,stimuli/own/kitchen/140_kit.jpg,,,,,,,,,0,140,140,340,2036.7351951249998,,,,,,,,,,,2037.028023209,2037.1927297919997,2037.1927297919997,2037.1927297919997,2037.1927297919997,2037.1927297919997,2037.1927297919997,2037.1927297919997,2037.1927297919997,2037.1927297919997,2044.354161584,7,-7,3,3.0,3.529132458999811,2.0,7.013640291000229,2036.7331065419999,2036.7351951249998,2037.1927297919997,2037.028010167,,,,,,,,2036.7296152919998,2036.733060167,None,,,,,,,,,,,204,kitchen,1,2024-03-14_11h32.48.122,image_similarity_rating,2023.2.3,None,2024-03-14 11h33.00.047090 +0100,
,119,126,392,392,stimuli/own/kitchen/119_kit.jpg,stimuli/own/kitchen/126_kit.jpg,,,,,,,,,0,141,141,391,2044.360059959,,,,,,,,,,,2044.645277834,2044.811293834,2044.811293834,2044.811293834,2044.811293834,2044.811293834,2044.811293834,2044.811293834,2044.811293834,2044.811293834,2070.449787334,-7,7,3,2.0,21.782768792000297,1.0,24.839525291999962,2044.357829125,2044.360059959,2044.811293834,2044.6452639169997,,,,,,,,2044.3543757090001,2044.357783084,None,,,,,,,,,,,204,kitchen,1,2024-03-14_11h32.48.122,image_similarity_rating,2023.2.3,None,2024-03-14 11h33.00.047090 +0100,
,126,134,510,510,stimuli/own/kitchen/126_kit.jpg,stimuli/own/kitchen/134_kit.jpg,,,,,,,,,0,142,142,509,2070.459788792,,,,,,,,,,,2070.7444930419997,2070.908767375,2070.908767375,2070.908767375,2070.908767375,2070.908767375,2070.908767375,2070.908767375,2070.908767375,2070.908767375,2087.908553875,7,-7,3,3.0,6.4349849589998485,3.0,13.391043999999965,2070.453483334,2070.459788792,2070.908767375,2070.744482084,,,,,,,,2070.450006125,2070.453437834,None,,,,,,,,,,,204,kitchen,1,2024-03-14_11h32.48.122,image_similarity_rating,2023.2.3,None,2024-03-14 11h33.00.047090 +0100,
,120,139,422,422,stimuli/own/kitchen/120_kit.jpg,stimuli/own/kitchen/139_kit.jpg,,,,,,,,,0,143,143,421,2087.914255542,,,,,,,,,,,2088.198646292,2088.368259625,2088.368259625,2088.368259625,2088.368259625,2088.368259625,2088.368259625,2088.368259625,2088.368259625,2088.368259625,2099.529244084,-7,7,3,2.0,11.08454566599994,1.0,5.265022915999907,2087.9123019169997,2087.914255542,2088.368259625,2088.198631334,,,,,,,,2087.908796542,2087.912254709,None,,,,,,,,,,,204,kitchen,1,2024-03-14_11h32.48.122,image_similarity_rating,2023.2.3,None,2024-03-14 11h33.00.047090 +0100,
,105,138,157,157,stimuli/own/kitchen/105_kit.jpg,stimuli/own/kitchen/138_kit.jpg,,,,,,,,,0,144,144,156,2099.534855334,,,,,,,,,,,2099.827669667,2099.993291667,2099.993291667,2099.993291667,2099.993291667,2099.993291667,2099.993291667,2099.993291667,2099.993291667,2099.993291667,2109.491857375,7,-7,3,4.0,4.606338083000082,3.0,9.385569000000032,2099.53293025,2099.534855334,2099.993291667,2099.827650459,,,,,,,,2099.5294615,2099.5328839169997,None,,,,,,,,,,,204,kitchen,1,2024-03-14_11h32.48.122,image_similarity_rating,2023.2.3,None,2024-03-14 11h33.00.047090 +0100,
,118,123,369,369,stimuli/own/kitchen/118_kit.jpg,stimuli/own/kitchen/123_kit.jpg,,,,,,,,,0,145,145,368,2109.4977652499997,,,,,,,,,,,2109.78260225,2109.947013334,2109.947013334,2109.947013334,2109.947013334,2109.947013334,2109.947013334,2109.947013334,2109.947013334,2109.947013334,2118.0250930419998,-7,7,3,3.0,5.987851792000129,2.0,7.38008895899975,2109.495668167,2109.4977652499997,2109.947013334,2109.782589167,,,,,,,,2109.492098709,2109.495621167,None,,,,,,,,,,,204,kitchen,1,2024-03-14_11h32.48.122,image_similarity_rating,2023.2.3,None,2024-03-14 11h33.00.047090 +0100,
,103,116,76,76,stimuli/own/kitchen/103_kit.jpg,stimuli/own/kitchen/116_kit.jpg,,,,,,,,,0,146,146,75,2118.031107334,,,,,,,,,,,2118.314616834,2118.479900792,2118.479900792,2118.479900792,2118.479900792,2118.479900792,2118.479900792,2118.479900792,2118.479900792,2118.479900792,2136.0786990419997,7,-7,3,3.0,17.472968749999836,4.0,16.79462208399991,2118.028817375,2118.031107334,2118.479900792,2118.314602917,,,,,,,,2118.025337917,2118.028771125,None,,,,,,,,,,,204,kitchen,1,2024-03-14_11h32.48.122,image_similarity_rating,2023.2.3,None,2024-03-14 11h33.00.047090 +0100,
,114,122,302,302,stimuli/own/kitchen/114_kit.jpg,stimuli/own/kitchen/122_kit.jpg,,,,,,,,,0,147,147,301,2136.084107542,,,,,,,,,,,2136.377442834,2136.545269959,2136.545269959,2136.545269959,2136.545269959,2136.545269959,2136.545269959,2136.545269959,2136.545269959,2136.545269959,2149.059129959,-7,7,3,5.0,4.454624208000041,3.0,12.38868045800018,2136.0823474169997,2136.084107542,2136.545269959,2136.377418084,,,,,,,,2136.07891475,2136.082301625,None,,,,,,,,,,,204,kitchen,1,2024-03-14_11h32.48.122,image_similarity_rating,2023.2.3,None,2024-03-14 11h33.00.047090 +0100,
,104,132,122,122,stimuli/own/kitchen/104_kit.jpg,stimuli/own/kitchen/132_kit.jpg,,,,,,,,,0,148,148,121,2149.06493075,,,,,,,,,,,2149.348762709,2149.5135070839997,2149.5135070839997,2149.5135070839997,2149.5135070839997,2149.5135070839997,2149.5135070839997,2149.5135070839997,2149.5135070839997,2149.5135070839997,2164.282960084,-7,7,3,4.0,14.694576834000145,5.0,4.441622707999613,2149.062840792,2149.06493075,2149.5135070839997,2149.348752084,,,,,,,,2149.059340792,2149.062794042,None,,,,,,,,,,,204,kitchen,1,2024-03-14_11h32.48.122,image_similarity_rating,2023.2.3,None,2024-03-14 11h33.00.047090 +0100,
,122,137,455,455,stimuli/own/kitchen/122_kit.jpg,stimuli/own/kitchen/137_kit.jpg,,,,,,,,,0,149,149,454,2164.2929557919997,,,,,,,,,,,2164.5774042919998,2164.74422025,2164.74422025,2164.74422025,2164.74422025,2164.74422025,2164.74422025,2164.74422025,2164.74422025,2164.74422025,2181.529282167,-7,7,3,5.0,11.810782249999647,3.0,16.698316875000273,2164.286615917,2164.2929557919997,2164.74422025,2164.577388709,,,,,,,,2164.283176334,2164.286568792,None,,,,,,,,,,,204,kitchen,1,2024-03-14_11h32.48.122,image_similarity_rating,2023.2.3,None,2024-03-14 11h33.00.047090 +0100,
,111,139,242,242,stimuli/own/kitchen/111_kit.jpg,stimuli/own/kitchen/139_kit.jpg,,,,,,,,,0,150,150,241,2181.534868542,,,,,,,,,,,2181.8272899169997,2181.995436375,2181.995436375,2181.995436375,2181.995436375,2181.995436375,2181.995436375,2181.995436375,2181.995436375,2181.995436375,2192.824748917,7,-7,3,1.0,9.719009375000041,1.0,10.694427458000064,2181.53293,2181.534868542,2181.995436375,2181.827270042,,,,,,,,2181.5294988749997,2181.5328845,None,,,,,,,,,,,204,kitchen,1,2024-03-14_11h32.48.122,image_similarity_rating,2023.2.3,None,2024-03-14 11h33.00.047090 +0100,
,111,137,240,240,stimuli/own/kitchen/111_kit.jpg,stimuli/own/kitchen/137_kit.jpg,,,,,,,,,0,151,151,239,2192.830401834,,,,,,,,,,,2193.128517625,2193.2962037499997,2193.2962037499997,2193.2962037499997,2193.2962037499997,2193.2962037499997,2193.2962037499997,2193.2962037499997,2193.2962037499997,2193.2962037499997,2202.5377693339997,-7,7,3,3.0,4.876171082999917,2.0,9.128046625000025,2192.828444084,2192.830401834,2193.2962037499997,2193.128497334,,,,,,,,2192.824962625,2192.828397709,None,,,,,,,,,,,204,kitchen,1,2024-03-14_11h32.48.122,image_similarity_rating,2023.2.3,None,2024-03-14 11h33.00.047090 +0100,
,112,132,262,262,stimuli/own/kitchen/112_kit.jpg,stimuli/own/kitchen/132_kit.jpg,,,,,,,,,0,152,152,261,2202.544333042,,,,,,,,,,,2202.828158834,2202.9932370839997,2202.9932370839997,2202.9932370839997,2202.9932370839997,2202.9932370839997,2202.9932370839997,2202.9932370839997,2202.9932370839997,2202.9932370839997,2211.529137,-7,7,3,3.0,7.150367250000272,2.0,8.430570667000211,2202.541535125,2202.544333042,2202.9932370839997,2202.828143917,,,,,,,,2202.537984834,2202.54148925,None,,,,,,,,,,,204,kitchen,1,2024-03-14_11h32.48.122,image_similarity_rating,2023.2.3,None,2024-03-14 11h33.00.047090 +0100,
,117,127,352,352,stimuli/own/kitchen/117_kit.jpg,stimuli/own/kitchen/127_kit.jpg,,,,,,,,,0,153,153,351,2211.5347108339997,,,,,,,,,,,2211.827424667,2211.9913096669998,2211.9913096669998,2211.9913096669998,2211.9913096669998,2211.9913096669998,2211.9913096669998,2211.9913096669998,2211.9913096669998,2211.9913096669998,2223.0415170839997,7,-7,3,3.0,11.108775416999833,2.0,4.708516374999817,2211.53278625,2211.5347108339997,2211.9913096669998,2211.8274136249997,,,,,,,,2211.529354792,2211.532739959,None,,,,,,,,,,,204,kitchen,1,2024-03-14_11h32.48.122,image_similarity_rating,2023.2.3,None,2024-03-14 11h33.00.047090 +0100,
