sub_num,trial,block,task,is_practice,category,image,texture,duration,mask_dur,jitter,stim_time,time_of_resp,trial_response,mask_time,fix_time,jit_onset,trial_end,trial_accuracy,RT
109,1,19,categorization,0,kitchen,SHINEd_sun_abftihopvusyfakt.tif,71,0.0666666666666667,0.0666666666666667,1.48333333333333,7848.061108333,7849.025309958,9,7848.123194,7848.183894,7849.035684583,7850.512391208,1,0.964201624999987
109,2,19,categorization,0,kitchen,SHINEd_sun_aymvwlarqodbwuoc.tif,108,0.0666666666666667,0.0666666666666667,0.783333333333333,7850.530446833,7851.181365083,9,7850.596945375,7850.6631685,7851.2033415,7851.980050917,1,0.650918250000359
109,3,19,categorization,0,kitchen,SHINEd_sun_aggjlwcdjsjcaemh.tif,86,0.0666666666666667,0.0666666666666667,1.7,7851.995683792,7852.617418708,13,7852.062136792,7852.119804125,7852.621905625,7854.315288667,0,0.621734915999696
109,4,19,categorization,0,kitchen,SHINEd_sun_akcjzhbbjlbogpdi.tif,99,0.0666666666666667,0.0666666666666667,1.93333333333333,7854.332200583,7854.961724083,9,7854.398694208,7854.4648095,7854.986519,7856.91320575,1,0.629523500000687
109,5,19,categorization,0,kitchen,SHINEd_sun_aqeaevwwwjoqhzvl.tif,101,0.0666666666666667,0.0666666666666667,1.73333333333333,7856.922654542,7857.500985917,9,7856.989612875,7857.055099625,7857.528333375,7859.255036542,1,0.578331375000744
109,6,19,categorization,0,kitchen,SHINEd_sun_acwjdupvyjsugpay.tif,76,0.0666666666666667,0.0666666666666667,0.866666666666667,7859.2713695,7859.814707042,9,7859.339095833,7859.403947833,7859.84345275,7860.703459167,1,0.54333754199979
109,7,19,categorization,0,bathroom,SHINEd_sun_acgyywnybuveqsro.tif,18,0.0666666666666667,0.0666666666666667,1.85,7860.709887875,7861.385711333,13,7860.771601208,7860.833043167,7861.401599167,7863.244978333,1,0.675823457999286
109,8,19,categorization,0,kitchen,SHINEd_sun_abpwyqmlzafvklqo.tif,72,0.0666666666666667,0.0666666666666667,0.966666666666667,7863.262441417,7863.982660583,9,7863.328838167,7863.395105917,7864.001096,7864.961101792,1,0.720219165999879
109,9,19,categorization,0,bathroom,SHINEd_sun_abapwbhyhkfixyex.tif,14,0.0666666666666667,0.0666666666666667,0.733333333333333,7864.96587275,7865.673067542,9,7865.027512833,7865.088576,7865.691030792,7866.417701917,0,0.707194792000337
109,10,19,categorization,0,bathroom,SHINEd_sun_auzqhkafidnkrwmo.tif,54,0.0666666666666667,0.0666666666666667,0.733333333333333,7866.4224925,7866.992688583,13,7866.484192292,7866.5454605,7866.9971655,7867.723835875,1,0.570196083000155
109,11,19,categorization,0,bathroom,SHINEd_sun_awnqiikzaispgmwo.tif,56,0.0666666666666667,0.0666666666666667,1.93333333333333,7867.728347083,7868.849215875,13,7867.78998,7867.851565792,7868.854025792,7870.780749625,1,1.12086879199978
109,12,19,categorization,0,bathroom,SHINEd_sun_aofnryafpsjimzsb.tif,40,0.0666666666666667,0.0666666666666667,1.1,7870.798963042,7871.430657458,9,7870.865273708,7870.928523833,7871.451680208,7872.545047667,0,0.631694415999846
109,13,19,categorization,0,kitchen,SHINEd_sun_aadbddgrdsjugojn.tif,64,0.0666666666666667,0.0666666666666667,1.8,7872.553243875,7873.158668958,9,7872.61771725,7872.6861805,7873.175534542,7874.968903292,1,0.605425083000227
109,14,19,categorization,0,kitchen,SHINEd_sun_aaxxjlsuzvqlgylf.tif,68,0.0666666666666667,0.0666666666666667,0.733333333333333,7874.978728875,7875.660222042,9,7875.046928708,7875.111581542,7875.685042917,7876.411757583,1,0.681493166999644
109,15,19,categorization,0,bathroom,SHINEd_sun_acegryoqftbzowsg.tif,17,0.0666666666666667,0.0666666666666667,1.5,7876.428046625,7877.057100458,13,7876.49459,7876.5609885,7877.0629705,7878.556363042,1,0.629053832999489
109,16,19,categorization,0,bathroom,SHINEd_sun_apeeialkgkuxddgh.tif,42,0.0666666666666667,0.0666666666666667,0.8,7878.572485958,7879.274600667,13,7878.6391785,7878.706648333,7879.296130958,7880.089503375,1,0.702114709000853
109,17,19,categorization,0,kitchen,SHINEd_sun_abdenxonkemggwsq.tif,69,0.0666666666666667,0.0666666666666667,0.95,7880.105618125,7880.704997458,9,7880.168170167,7880.228400625,7880.713709083,7881.65704775,1,0.599379333000797
109,18,19,categorization,0,bathroom,SHINEd_sun_ausgutylgojavyoq.tif,53,0.0666666666666667,0.0666666666666667,1.1,7881.661975167,7882.609054083,9,7881.723689958,7881.784708917,7882.620334083,7883.713705208,0,0.947078916000464
109,19,19,categorization,0,kitchen,SHINEd_sun_aexklacwqwezaorf.tif,84,0.0666666666666667,0.0666666666666667,1.63333333333333,7883.721989417,7885.423577667,13,7883.786608292,7883.854348083,7885.446930292,7887.073650833,0,1.70158824999999
109,20,19,categorization,0,bathroom,SHINEd_sun_apkruvsevgegsdwp.tif,44,0.0666666666666667,0.0666666666666667,1.71666666666667,7887.090772708,7887.698387917,13,7887.158063167,7887.2233965,7887.71211175,7889.422157458,1,0.60761520899996
109,21,19,categorization,0,bathroom,SHINEd_sun_azqyogdvyhahyram.tif,60,0.0666666666666667,0.0666666666666667,1.43333333333333,7889.439227208,7889.986416542,13,7889.505679875,7889.571862417,7890.011722208,7891.438444833,1,0.547189333999995
109,22,19,categorization,0,kitchen,SHINEd_sun_avszsnwsbuqfgzbn.tif,105,0.0666666666666667,0.0666666666666667,0.966666666666667,7891.455345625,7892.091437042,9,7891.522006083,7891.587681,7892.110227125,7893.070272792,1,0.636091416999989
109,23,19,categorization,0,bathroom,SHINEd_sun_anhioqovhscjqqwb.tif,38,0.0666666666666667,0.0666666666666667,1.61666666666667,7893.08529625,7893.55368775,9,7893.147737375,7893.208149208,7893.559833,7895.169888792,0,0.468391499999598
109,24,19,categorization,0,bathroom,SHINEd_sun_akiytfaagpdsphgz.tif,31,0.0666666666666667,0.0666666666666667,0.866666666666667,7895.18567675,7896.030594,13,7895.252277458,7895.3185605,7896.058293167,7896.918298,1,0.844917249999526
109,25,19,categorization,0,kitchen,SHINEd_sun_abdxkyyxwfskuaqb.tif,70,0.0666666666666667,0.0666666666666667,1.25,7896.923317708,7897.481207042,9,7896.985102292,7897.046090583,7897.498166458,7898.741539708,1,0.55788933400072
109,26,19,categorization,0,bathroom,SHINEd_sun_aggnnqpdorgxpvce.tif,21,0.0666666666666667,0.0666666666666667,0.716666666666667,7898.758202833,7899.393163042,13,7898.824221708,7898.890859667,7899.413710667,7900.123759083,1,0.634960209000383
109,27,19,categorization,0,bathroom,SHINEd_sun_alotolagknyrgtsk.tif,35,0.0666666666666667,0.0666666666666667,1.71666666666667,7900.138906292,7900.737054375,9,7900.2052775,7900.271162625,7900.757051375,7902.467091375,0,0.598148083000524
109,28,19,categorization,0,bathroom,SHINEd_sun_alkosphxlxwjwgjd.tif,34,0.0666666666666667,0.0666666666666667,1.31666666666667,7902.484564208,7903.285646625,9,7902.551127708,7902.617208417,7903.307426292,7904.617459917,0,0.801082416999634
109,29,19,categorization,0,bathroom,SHINEd_sun_apjevzvycyhuqghb.tif,43,0.0666666666666667,0.0666666666666667,0.9,7904.634017167,7905.281783417,9,7904.700567958,7904.767051167,7905.306961458,7906.20034975,0,0.647766250000132
109,30,19,categorization,0,kitchen,SHINEd_sun_ahljzhgcdpomplvg.tif,91,0.0666666666666667,0.0666666666666667,1,7906.216459375,7907.089627208,9,7906.282745583,7906.342229625,7907.094136583,7908.087476125,1,0.87316783299957
109,31,19,categorization,0,kitchen,SHINEd_sun_aamedkxepzlwuxes.tif,65,0.0666666666666667,0.0666666666666667,1.15,7908.092953167,7908.832569208,13,7908.154926125,7908.215619833,7908.850880375,7909.994246125,0,0.739616040999863
109,32,19,categorization,0,kitchen,SHINEd_sun_ahpczsiumwwocjkv.tif,92,0.0666666666666667,0.0666666666666667,1.55,7910.002952375,7910.746068917,13,7910.069431417,7910.135908667,7910.775517792,7912.318900875,0,0.74311654200028
109,33,19,categorization,0,bathroom,SHINEd_sun_ahqjwnzgolcaoidx.tif,29,0.0666666666666667,0.0666666666666667,1.13333333333333,7912.334416667,7912.937688375,13,7912.40224975,7912.467037542,7912.955441375,7914.082148542,1,0.603271707999738
109,34,19,categorization,0,bathroom,SHINEd_sun_aapitsgbtktqubfy.tif,12,0.0666666666666667,0.0666666666666667,1.35,7914.099275542,7914.681399,13,7914.161934167,7914.22197275,7914.69061825,7916.034004167,1,0.582123457999842
109,35,19,categorization,0,kitchen,SHINEd_sun_afuyedyxivkhecmu.tif,85,0.0666666666666667,0.0666666666666667,0.7,7916.050879167,7916.802122833,9,7916.117654667,7916.184776125,7916.824134708,7917.517525,1,0.751243665999937
109,36,19,categorization,0,kitchen,SHINEd_sun_aenotlpyftoioydp.tif,82,0.0666666666666667,0.0666666666666667,0.916666666666667,7917.53369925,7918.057460208,9,7917.600347792,7917.666173667,7918.068688625,7918.978693333,1,0.523760957999912
109,37,19,categorization,0,kitchen,SHINEd_sun_ahspylgoovwmwvgk.tif,93,0.0666666666666667,0.0666666666666667,1.38333333333333,7918.983496125,7919.449098125,9,7919.045081333,7919.106237,7919.457935792,7920.834655625,1,0.465602000000217
109,38,19,categorization,0,kitchen,SHINEd_labelme_rykdqxenmhulbdn.tif,63,0.0666666666666667,0.0666666666666667,1.98333333333333,7920.850572042,7921.301352083,9,7920.915303042,7920.9778035,7921.316665208,7923.293373708,1,0.450780041000144
109,39,19,categorization,0,kitchen,SHINEd_sun_aehawpgmrlhlvcow.tif,81,0.0666666666666667,0.0666666666666667,1.21666666666667,7923.312055958,7923.976760042,9,7923.378449458,7923.444243208,7924.000391042,7925.210426667,1,0.664704083999823
109,40,19,categorization,0,kitchen,SHINEd_sun_agzzivivdpnawacl.tif,89,0.0666666666666667,0.0666666666666667,0.883333333333333,7925.228390125,7925.899937,9,7925.295044375,7925.361172208,7925.916895042,7926.793618792,1,0.671546874999876
109,41,19,categorization,0,bathroom,SHINEd_sun_aspsyogrekjtfozg.tif,50,0.0666666666666667,0.0666666666666667,1.36666666666667,7926.810924125,7927.401271167,13,7926.877217333,7926.938316542,7927.4076,7928.767645042,1,0.590347041999848
109,42,19,categorization,0,kitchen,SHINEd_sun_azmutvzbxypaceni.tif,110,0.0666666666666667,0.0666666666666667,1.78333333333333,7928.784007458,7929.457410167,9,7928.850402083,7928.911992208,7929.485024083,7931.261731042,1,0.673402708999674
109,43,19,categorization,0,bathroom,SHINEd_sun_ajlawzvmubibwbpy.tif,30,0.0666666666666667,0.0666666666666667,1.53333333333333,7931.279501042,7932.082305542,13,7931.3459745,7931.4120635,7932.101445083,7933.628159708,1,0.802804499999183
109,44,19,categorization,0,bathroom,SHINEd_sun_atstyziqcmkahyxk.tif,51,0.0666666666666667,0.0666666666666667,0.8,7933.646032542,7934.241389375,13,7933.712500458,7933.778956708,7934.268666833,7935.06204275,1,0.595356832999641
109,45,19,categorization,0,bathroom,SHINEd_sun_agyqfjcfkdcydepw.tif,25,0.0666666666666667,0.0666666666666667,1,7935.077638708,7936.184894625,13,7935.143782792,7935.201729625,7936.203706125,7937.197045167,1,1.10725591699975
109,46,19,categorization,0,kitchen,SHINEd_sun_akchetnepxlcxhsu.tif,98,0.0666666666666667,0.0666666666666667,1.01666666666667,7937.201775083,7938.089065917,13,7937.263517083,7937.324503125,7938.093475708,7939.103506125,0,0.887290833999941
109,47,19,categorization,0,bathroom,SHINEd_sun_abjtwfukuwddzted.tif,15,0.0666666666666667,0.0666666666666667,1.83333333333333,7939.111286625,7940.107278042,13,7939.176114875,7939.242267583,7940.132312167,7941.959025875,1,0.995991417000369
109,48,19,categorization,0,bathroom,SHINEd_sun_apynckhmoftszqoq.tif,47,0.0666666666666667,0.0666666666666667,1.03333333333333,7941.972972667,7942.595912708,13,7942.040803042,7942.105931292,7942.611475875,7943.638191042,1,0.62294004099931
109,49,19,categorization,0,kitchen,SHINEd_sun_acxkpeoqbwcxfvip.tif,77,0.0666666666666667,0.0666666666666667,1.16666666666667,7943.646597875,7944.289166625,9,7943.711112125,7943.778015458,7944.318131583,7945.47818575,1,0.642568749999555
109,50,19,categorization,0,bathroom,SHINEd_sun_acduarbnmmoglmiv.tif,16,0.0666666666666667,0.0666666666666667,1,7945.496562125,7946.081252542,9,7945.563004917,7945.629162833,7946.098400792,7947.091739292,0,0.584690416999365
