sub_num,trial,block,task,is_practice,category,image,texture,duration,mask_dur,jitter,stim_time,time_of_resp,trial_response,mask_time,fix_time,jit_onset,trial_end,trial_accuracy,RT
109,1,10,categorization,0,kitchen,SHINEd_sun_ahdycvpopffkzzsu.tif,90,0.0666666666666667,0.0666666666666667,1.61666666666667,6817.09478125,6817.805926417,13,6817.157768833,6817.217565958,6817.819458375,6819.429512417,0,0.711145166999813
109,2,10,categorization,0,bathroom,SHINEd_sun_aghyqhbptboemmoq.tif,23,0.0666666666666667,0.0666666666666667,0.833333333333333,6819.445966042,6819.969366375,13,6819.513763417,6819.578472667,6819.984098125,6820.810805958,1,0.523400333000609
109,3,10,categorization,0,bathroom,SHINEd_sun_apkxzenqapsujocq.tif,45,0.0666666666666667,0.0666666666666667,0.916666666666667,6820.826768625,6821.301658958,13,6820.889458833,6820.949634375,6821.318115833,6822.228121167,1,0.474890333000076
109,4,10,categorization,0,bathroom,SHINEd_sun_awnqiikzaispgmwo.tif,56,0.0666666666666667,0.0666666666666667,1.58333333333333,6822.232762875,6822.725493958,13,6822.294413417,6822.355436667,6822.740738,6824.317441083,1,0.492731082999853
109,5,10,categorization,0,bathroom,SHINEd_sun_aoybiabnpadelefl.tif,41,0.0666666666666667,0.0666666666666667,1.38333333333333,6824.333819042,6825.731527042,13,6824.400195417,6824.466578458,6825.759751208,6827.136451792,1,1.39770800000042
109,6,10,categorization,0,kitchen,SHINEd_sun_acwjdupvyjsugpay.tif,76,0.0666666666666667,0.0666666666666667,1.53333333333333,6827.154230833,6828.040589792,9,6827.220918667,6827.288393917,6828.061779375,6829.588485042,1,0.886358959000063
109,7,10,categorization,0,bathroom,SHINEd_sun_axyrejkiiaqiurjk.tif,59,0.0666666666666667,0.0666666666666667,0.833333333333333,6829.605477375,6830.230176333,9,6829.673439125,6829.738116333,6830.243562167,6831.070271792,0,0.624698957999499
109,8,10,categorization,0,bathroom,SHINEd_sun_apmqjbnwghzuhhzh.tif,46,0.0666666666666667,0.0666666666666667,1.88333333333333,6831.077823333,6831.765066542,13,6831.139574792,6831.200535,6831.769387375,6833.646095792,1,0.687243208999462
109,9,10,categorization,0,kitchen,SHINEd_sun_ahpczsiumwwocjkv.tif,92,0.0666666666666667,0.0666666666666667,0.833333333333333,6833.663262,6834.237485833,9,6833.730131167,6833.795901208,6834.251095458,6835.077766125,1,0.57422383300036
109,10,10,categorization,0,bathroom,SHINEd_sun_aggnnqpdorgxpvce.tif,21,0.0666666666666667,0.0666666666666667,1.4,6835.082949167,6835.981528333,9,6835.144690167,6835.205657292,6835.991274167,6837.384666042,0,0.898579165999763
109,11,10,categorization,0,kitchen,SHINEd_sun_axyyrmzcupyhlivc.tif,107,0.0666666666666667,0.0666666666666667,0.95,6837.402195708,6838.090212708,9,6837.46943275,6837.535013083,6838.108091458,6839.051470958,1,0.688016999999491
109,12,10,categorization,0,bathroom,SHINEd_labelme_sfxiulhjbhlyiyt.tif,11,0.0666666666666667,0.0666666666666667,1.16666666666667,6839.068015875,6839.861234417,13,6839.13105375,6839.191190375,6839.87692775,6841.036977792,1,0.793218541999522
109,13,10,categorization,0,kitchen,SHINEd_sun_aadbddgrdsjugojn.tif,64,0.0666666666666667,0.0666666666666667,1.8,6841.045650208,6841.648126125,9,6841.110926042,6841.177839875,6841.667233333,6843.460611917,1,0.602475917000447
109,14,10,categorization,0,bathroom,SHINEd_sun_aspsyogrekjtfozg.tif,50,0.0666666666666667,0.0666666666666667,1.53333333333333,6843.477748917,6844.119220458,13,6843.543903375,6843.610378208,6844.132147208,6845.658873042,1,0.641471541000101
109,15,10,categorization,0,bathroom,SHINEd_sun_avhrdrntsqrjzccq.tif,55,0.0666666666666667,0.0666666666666667,1.48333333333333,6845.675608542,6846.337763042,9,6845.74201375,6845.808108333,6846.364124083,6847.840831792,0,0.662154499999815
109,16,10,categorization,0,kitchen,SHINEd_sun_acxkpeoqbwcxfvip.tif,77,0.0666666666666667,0.0666666666666667,0.783333333333333,6847.857907542,6848.456897625,9,6847.924103542,6847.990597375,6848.480789625,6849.257503167,1,0.59899008299999
109,17,10,categorization,0,bathroom,SHINEd_sun_asfwthctfqerjvxr.tif,49,0.0666666666666667,0.0666666666666667,1.8,6849.273344208,6850.213473333,9,6849.339561333,6849.406180708,6850.225332667,6852.018729083,0,0.940129125000567
109,18,10,categorization,0,kitchen,SHINEd_sun_ahljzhgcdpomplvg.tif,91,0.0666666666666667,0.0666666666666667,1.76666666666667,6852.035326292,6852.617912292,9,6852.101658958,6852.167310333,6852.640269417,6854.40030875,1,0.582586000000447
109,19,10,categorization,0,kitchen,SHINEd_sun_aenotlpyftoioydp.tif,82,0.0666666666666667,0.0666666666666667,1.96666666666667,6854.416946792,6855.074545083,9,6854.483504042,6854.549681417,6855.088724583,6857.048778042,1,0.657598290999886
109,20,10,categorization,0,kitchen,SHINEd_sun_aixorpehvfykdynp.tif,95,0.0666666666666667,0.0666666666666667,0.783333333333333,6857.068756167,6857.734219375,9,6857.134765417,6857.201213833,6857.758838042,6858.535508875,1,0.665463207999892
109,21,10,categorization,0,kitchen,SHINEd_sun_auaiucuqpdausiva.tif,102,0.0666666666666667,0.0666666666666667,1.03333333333333,6858.540844708,6859.4607625,9,6858.602511708,6858.66359225,6859.465833583,6860.492543333,1,0.919917791999978
109,22,10,categorization,0,kitchen,SHINEd_sun_abpwyqmlzafvklqo.tif,72,0.0666666666666667,0.0666666666666667,0.916666666666667,6860.502745292,6861.492547292,9,6860.567333417,6860.633928542,6861.506001833,6862.416041042,1,0.989802000000054
109,23,10,categorization,0,kitchen,SHINEd_sun_ajkqhtgcbgpcwrwn.tif,97,0.0666666666666667,0.0666666666666667,1.66666666666667,6862.426674042,6862.99744425,13,6862.492974083,6862.552746292,6863.004610542,6864.664648875,0,0.570770207999885
109,24,10,categorization,0,bathroom,SHINEd_sun_afcoljnjfoxjtgja.tif,20,0.0666666666666667,0.0666666666666667,1.76666666666667,6864.684045667,6865.527198583,9,6864.750594375,6864.816539667,6865.556248333,6867.316304125,0,0.84315291600069
109,25,10,categorization,0,kitchen,SHINEd_sun_aqeaevwwwjoqhzvl.tif,101,0.0666666666666667,0.0666666666666667,1.15,6867.335084625,6868.079077542,13,6867.40134425,6867.467477458,6868.107057708,6869.250451458,0,0.743992917000469
109,26,10,categorization,0,kitchen,SHINEd_sun_acfmftudsenhrfhy.tif,74,0.0666666666666667,0.0666666666666667,0.883333333333333,6869.259214375,6870.160716292,13,6869.325908958,6869.391687708,6870.181047167,6871.057765417,0,0.901501917000132
109,27,10,categorization,0,bathroom,SHINEd_sun_amzlamotzwfkwjco.tif,37,0.0666666666666667,0.0666666666666667,0.733333333333333,6871.0732305,6871.781282958,13,6871.139785833,6871.205872375,6871.791520083,6872.518192833,1,0.708052457999656
109,28,10,categorization,0,bathroom,SHINEd_sun_acduarbnmmoglmiv.tif,16,0.0666666666666667,0.0666666666666667,1.71666666666667,6872.523016083,6873.213481542,9,6872.584751208,6872.645673125,6873.230781875,6874.940826917,0,0.690465459000734
109,29,10,categorization,0,kitchen,SHINEd_sun_aegoxogugdkwpmpj.tif,80,0.0666666666666667,0.0666666666666667,1.86666666666667,6874.949669083,6875.710766417,9,6875.014935833,6875.082227042,6875.738309958,6877.598344417,1,0.761097333999714
109,30,10,categorization,0,kitchen,SHINEd_sun_aggjlwcdjsjcaemh.tif,86,0.0666666666666667,0.0666666666666667,1.5,6877.618456833,6878.573650833,9,6877.684830375,6877.749839167,6878.588707958,6880.082079875,1,0.95519400000012
109,31,10,categorization,0,bathroom,SHINEd_sun_agrwbmhcpmfuwmsg.tif,24,0.0666666666666667,0.0666666666666667,1.61666666666667,6880.099312708,6881.48085225,13,6880.165300792,6880.229695542,6881.504738375,6883.114772792,1,1.3815395419997
109,32,10,categorization,0,kitchen,SHINEd_sun_agzzivivdpnawacl.tif,89,0.0666666666666667,0.0666666666666667,0.95,6883.134583458,6883.769546208,9,6883.201266625,6883.264197875,6883.785795833,6884.729132583,1,0.634962750000341
109,33,10,categorization,0,bathroom,SHINEd_sun_aqrpegblszgcoujh.tif,48,0.0666666666666667,0.0666666666666667,0.8,6884.734259667,6885.292818167,13,6884.795877667,6884.857053458,6885.308819083,6886.102157875,1,0.5585585000008
109,34,10,categorization,0,kitchen,SHINEd_sun_acgtpgfybqjmzeyw.tif,75,0.0666666666666667,0.0666666666666667,0.783333333333333,6886.106981,6886.748828917,9,6886.168967417,6886.229661208,6886.764671042,6887.541343167,1,0.641847916999723
109,35,10,categorization,0,bathroom,SHINEd_sun_ahqjwnzgolcaoidx.tif,29,0.0666666666666667,0.0666666666666667,1.36666666666667,6887.547321417,6888.220924958,13,6887.609178708,6887.670176958,6888.238643458,6889.598695542,1,0.673603541000375
109,36,10,categorization,0,bathroom,SHINEd_sun_alkosphxlxwjwgjd.tif,34,0.0666666666666667,0.0666666666666667,0.816666666666667,6889.617169833,6890.586938333,13,6889.682477208,6889.750452833,6890.606927667,6891.416933917,1,0.9697685000001
109,37,10,categorization,0,bathroom,SHINEd_sun_akiytfaagpdsphgz.tif,31,0.0666666666666667,0.0666666666666667,1.81666666666667,6891.42202925,6892.525612333,13,6891.483830292,6891.544819417,6892.53044025,6894.340482875,1,1.10358308299965
109,38,10,categorization,0,bathroom,SHINEd_sun_acgyywnybuveqsro.tif,18,0.0666666666666667,0.0666666666666667,0.9,6894.357535542,6894.994469875,13,6894.424308667,6894.490112375,6895.013152,6895.906491,1,0.636934332999772
109,39,10,categorization,0,kitchen,SHINEd_sun_akchetnepxlcxhsu.tif,98,0.0666666666666667,0.0666666666666667,1.48333333333333,6895.911366542,6896.357132125,13,6895.973046458,6896.034094542,6896.369296083,6897.846009083,0,0.445765583000139
109,40,10,categorization,0,kitchen,SHINEd_sun_aaxxjlsuzvqlgylf.tif,68,0.0666666666666667,0.0666666666666667,1.28333333333333,6897.862224333,6898.684501625,9,6897.92859525,6897.99478425,6898.700337958,6899.977065042,1,0.822277291999853
109,41,10,categorization,0,bathroom,SHINEd_sun_aavhrsfjbserjtht.tif,13,0.0666666666666667,0.0666666666666667,0.983333333333333,6899.988616083,6900.706924875,13,6900.055029208,6900.121160792,6900.72742,6901.704120708,1,0.718308792000244
109,42,10,categorization,0,kitchen,SHINEd_labelme_kxvouciolcpqplr.tif,62,0.0666666666666667,0.0666666666666667,1.31666666666667,6901.720445417,6902.485234875,13,6901.785958458,6901.844445083,6902.496477625,6903.806516292,0,0.76478945800045
109,43,10,categorization,0,kitchen,SHINEd_sun_ajcbwwvdlsvjyzje.tif,96,0.0666666666666667,0.0666666666666667,0.716666666666667,6903.823259833,6904.525738917,13,6903.891136208,6903.955828458,6904.545191792,6905.255229583,0,0.702479084000515
109,44,10,categorization,0,kitchen,SHINEd_sun_awcpdzzznmweyyhv.tif,106,0.0666666666666667,0.0666666666666667,1.51666666666667,6905.27148225,6905.844952083,9,6905.33798725,6905.403754792,6905.856035875,6907.366085458,1,0.573469832999763
109,45,10,categorization,0,bathroom,SHINEd_sun_abjtwfukuwddzted.tif,15,0.0666666666666667,0.0666666666666667,0.833333333333333,6907.383753375,6908.126814667,13,6907.450032042,6907.516325958,6908.155769417,6908.982448,1,0.743061291999766
109,46,10,categorization,0,kitchen,SHINEd_sun_admlmbcdswaszruo.tif,79,0.0666666666666667,0.0666666666666667,1.28333333333333,6908.988604833,6909.8047735,9,6909.050329958,6909.111329167,6909.813415417,6911.090134208,1,0.816168667000056
109,47,10,categorization,0,kitchen,SHINEd_sun_aymvwlarqodbwuoc.tif,108,0.0666666666666667,0.0666666666666667,0.783333333333333,6911.106125042,6911.847757542,9,6911.173857458,6911.238851333,6911.8610505,6912.63777575,1,0.741632500000378
109,48,10,categorization,0,bathroom,SHINEd_sun_auzqhkafidnkrwmo.tif,54,0.0666666666666667,0.0666666666666667,1.23333333333333,6912.652696375,6913.629518083,13,6912.719249625,6912.7851825,6913.637551125,6914.864259208,1,0.976821707999989
109,49,10,categorization,0,kitchen,SHINEd_sun_avszsnwsbuqfgzbn.tif,105,0.0666666666666667,0.0666666666666667,1.46666666666667,6914.884750042,6915.455384042,9,6914.949141,6915.018593417,6915.474938458,6916.934976042,1,0.570634000000609
109,50,10,categorization,0,bathroom,SHINEd_sun_ahijqszoswveeyji.tif,28,0.0666666666666667,0.0666666666666667,1.56666666666667,6916.944851167,6917.655518917,9,6917.011167083,6917.0769805,6917.682974833,6919.243030667,0,0.710667750000539
