sub_num,trial,block,task,is_practice,category,image,texture,duration,mask_dur,jitter,stim_time,time_of_resp,trial_response,mask_time,fix_time,jit_onset,trial_end,trial_accuracy,RT
104,1,7,categorization,0,kitchen,SHINEd_sun_aixorpehvfykdynp.tif,95,0.0666666666666667,0.0666666666666667,0.883333333333333,1228.937478625,1230.252938416,13,1228.999169,1229.060625166,1230.263294916,1231.139966458,0,1.31545979099997
104,2,7,categorization,0,bathroom,SHINEd_sun_anryaplzeujmzfkd.tif,39,0.0666666666666667,0.0666666666666667,1.03333333333333,1231.145556416,1231.861541208,9,1231.207355125,1231.268426041,1231.870268833,1232.8969825,0,0.715984791999972
104,3,7,categorization,0,kitchen,SHINEd_sun_azmutvzbxypaceni.tif,110,0.0666666666666667,0.0666666666666667,1.06666666666667,1232.909779291,1233.86963425,9,1232.975435333,1233.041234333,1233.897724833,1234.957782166,1,0.95985495900004
104,4,7,categorization,0,kitchen,SHINEd_sun_ahdycvpopffkzzsu.tif,90,0.0666666666666667,0.0666666666666667,0.833333333333333,1234.96900075,1235.636663083,9,1235.030917583,1235.092180083,1235.644179458,1236.470850875,1,0.667662332999953
104,5,7,categorization,0,bathroom,SHINEd_sun_ajlawzvmubibwbpy.tif,30,0.0666666666666667,0.0666666666666667,0.716666666666667,1236.475765791,1237.068936958,9,1236.537439666,1236.598577041,1237.084021375,1237.794024708,0,0.593171167000037
104,6,7,categorization,0,kitchen,SHINEd_sun_aymvwlarqodbwuoc.tif,108,0.0666666666666667,0.0666666666666667,0.733333333333333,1237.800392041,1238.573008083,13,1237.862137958,1237.92320425,1238.591706541,1239.318379875,0,0.772616042000209
104,7,7,categorization,0,bathroom,SHINEd_sun_awnqiikzaispgmwo.tif,56,0.0666666666666667,0.0666666666666667,1.38333333333333,1239.323905583,1240.885649333,13,1239.38559325,1239.446759458,1240.89942825,1242.276130958,1,1.56174375000001
104,8,7,categorization,0,bathroom,SHINEd_sun_akiytfaagpdsphgz.tif,31,0.0666666666666667,0.0666666666666667,0.9,1242.290486916,1243.174593958,13,1242.3566405,1242.423461791,1243.196705625,1244.090045708,1,0.884107042000096
104,9,7,categorization,0,kitchen,SHINEd_sun_abftihopvusyfakt.tif,71,0.0666666666666667,0.0666666666666667,0.816666666666667,1244.095796208,1245.637125,9,1244.157511958,1244.21856225,1245.654303083,1246.464306791,1,1.54132879200006
104,10,7,categorization,0,bathroom,SHINEd_sun_alotolagknyrgtsk.tif,35,0.0666666666666667,0.0666666666666667,0.85,1246.469399041,1247.596665166,9,1246.531237416,1246.592218625,1247.610866583,1248.454204875,0,1.12726612500001
104,11,7,categorization,0,kitchen,SHINEd_sun_aarfiyshqohlwkmo.tif,67,0.0666666666666667,0.0666666666666667,1.6,1248.459086,1249.43738425,13,1248.520712125,1248.581834666,1249.450892166,1251.044278625,0,0.978298249999852
104,12,7,categorization,0,bathroom,SHINEd_sun_agguqiubmwhqqunb.tif,22,0.0666666666666667,0.0666666666666667,1.75,1251.060275875,1251.999641708,9,1251.126908125,1251.193842333,1252.016165541,1253.759539041,0,0.939365833000011
104,13,7,categorization,0,bathroom,SHINEd_sun_azqyogdvyhahyram.tif,60,0.0666666666666667,0.0666666666666667,1.1,1253.776914833,1254.880091083,9,1253.843456125,1253.909973291,1254.899431916,1255.99281825,0,1.10317624999993
104,14,7,categorization,0,bathroom,SHINEd_sun_ahijqszoswveeyji.tif,28,0.0666666666666667,0.0666666666666667,1.46666666666667,1256.001793833,1256.811221208,9,1256.066910375,1256.13489125,1256.841439166,1258.301479375,0,0.809427375000041
104,15,7,categorization,0,bathroom,SHINEd_sun_aghyqhbptboemmoq.tif,23,0.0666666666666667,0.0666666666666667,1.25,1258.31167875,1259.446321875,13,1258.378145291,1258.444591,1259.467633,1260.711011166,1,1.13464312499991
104,16,7,categorization,0,bathroom,SHINEd_sun_abjtwfukuwddzted.tif,15,0.0666666666666667,0.0666666666666667,1.13333333333333,1260.724944416,1262.505874708,9,1260.791663,1260.857595708,1262.53282475,1263.659540958,0,1.78093029199999
104,17,7,categorization,0,kitchen,SHINEd_sun_aexklacwqwezaorf.tif,84,0.0666666666666667,0.0666666666666667,1.33333333333333,1263.668894625,1264.731146875,13,1263.733820333,1263.801940333,1264.758441125,1266.085163958,0,1.06225225000003
104,18,7,categorization,0,kitchen,SHINEd_sun_abdxkyyxwfskuaqb.tif,70,0.0666666666666667,0.0666666666666667,1.86666666666667,1266.101876041,1266.846802375,9,1266.168725875,1266.234729125,1266.874640708,1268.734697208,1,0.744926333999956
104,19,7,categorization,0,kitchen,SHINEd_sun_afuyedyxivkhecmu.tif,85,0.0666666666666667,0.0666666666666667,1.58333333333333,1268.751884333,1269.472574166,9,1268.818628333,1268.884696125,1269.490646333,1271.067351666,1,0.720689833000051
104,20,7,categorization,0,kitchen,SHINEd_sun_aapllqyqlykszopd.tif,66,0.0666666666666667,0.0666666666666667,1.05,1271.084997583,1272.17355675,9,1271.151458583,1271.218312,1272.191308166,1273.234686125,1,1.08855916700008
104,21,7,categorization,0,kitchen,SHINEd_sun_ahspylgoovwmwvgk.tif,93,0.0666666666666667,0.0666666666666667,0.9,1273.244962208,1273.850793625,9,1273.310386708,1273.37661775,1273.865547416,1274.758913708,1,0.60583141699999
104,22,7,categorization,0,kitchen,SHINEd_sun_axyyrmzcupyhlivc.tif,107,0.0666666666666667,0.0666666666666667,0.7,1274.775238083,1275.517019791,9,1274.841833916,1274.907915458,1275.527070541,1276.2204085,1,0.741781707999962
104,23,7,categorization,0,bathroom,SHINEd_sun_apmqjbnwghzuhhzh.tif,46,0.0666666666666667,0.0666666666666667,0.933333333333333,1276.225192875,1276.972459166,13,1276.287079875,1276.347967041,1276.983479083,1277.910151625,1,0.74726629099996
104,24,7,categorization,0,kitchen,SHINEd_sun_acxkpeoqbwcxfvip.tif,77,0.0666666666666667,0.0666666666666667,1.95,1277.916450583,1278.557170416,13,1277.978372875,1278.039272875,1278.57450075,1280.517886375,0,0.640719833000048
104,25,7,categorization,0,kitchen,SHINEd_sun_acwjdupvyjsugpay.tif,76,0.0666666666666667,0.0666666666666667,1.06666666666667,1280.535286291,1281.259039708,9,1280.601717666,1280.66791925,1281.273074083,1282.333126166,1,0.723753417000125
104,26,7,categorization,0,bathroom,SHINEd_sun_agrwbmhcpmfuwmsg.tif,24,0.0666666666666667,0.0666666666666667,1.2,1282.342285,1282.911171875,9,1282.407399291,1282.473964125,1282.930417,1284.123803,0,0.568886875000089
104,27,7,categorization,0,kitchen,SHINEd_sun_aeqdocilnnpuvuhx.tif,83,0.0666666666666667,0.0666666666666667,0.75,1284.141119791,1285.917184458,9,1284.207808333,1284.273913916,1285.926317458,1286.669656708,1,1.77606466700013
104,28,7,categorization,0,bathroom,SHINEd_sun_ahcvzmoyaycdoftf.tif,27,0.0666666666666667,0.0666666666666667,0.816666666666667,1286.675288958,1287.437290791,13,1286.736969041,1286.798268875,1287.450307,1288.26031025,1,0.762001832999886
104,29,7,categorization,0,kitchen,SHINEd_sun_agubuxuukhzyzpdp.tif,88,0.0666666666666667,0.0666666666666667,1.96666666666667,1288.266393375,1289.133072541,13,1288.328091416,1288.3892235,1289.141211041,1291.10124675,0,0.86667916600004
104,30,7,categorization,0,bathroom,SHINEd_sun_acduarbnmmoglmiv.tif,16,0.0666666666666667,0.0666666666666667,1.2,1291.118559083,1292.381179041,13,1291.185131625,1291.2515845,1292.387095875,1293.5804815,1,1.26261995799996
104,31,7,categorization,0,bathroom,SHINEd_sun_ahqjwnzgolcaoidx.tif,29,0.0666666666666667,0.0666666666666667,0.883333333333333,1293.592218458,1294.295612208,13,1293.65983475,1293.725530875,1294.31329325,1295.190013541,1,0.703393750000032
104,32,7,categorization,0,kitchen,SHINEd_sun_aqeaevwwwjoqhzvl.tif,101,0.0666666666666667,0.0666666666666667,1.33333333333333,1295.205199958,1296.252518333,13,1295.271322458,1295.338041041,1296.2571685,1297.583883125,0,1.0473183749998
104,33,7,categorization,0,bathroom,SHINEd_sun_aqrpegblszgcoujh.tif,48,0.0666666666666667,0.0666666666666667,1.45,1297.601037875,1298.558172375,13,1297.66731175,1297.733955,1298.572873916,1300.016240541,1,0.957134499999938
104,34,7,categorization,0,bathroom,SHINEd_labelme_sfxiulhjbhlyiyt.tif,11,0.0666666666666667,0.0666666666666667,1.15,1300.03453425,1300.830166625,13,1300.100978458,1300.16746175,1300.857137333,1302.000526208,1,0.795632374999968
104,35,7,categorization,0,bathroom,SHINEd_sun_axxbkopsgyouuebh.tif,58,0.0666666666666667,0.0666666666666667,0.966666666666667,1302.009834,1302.626381208,13,1302.076344291,1302.142776458,1302.64932025,1303.609352583,1,0.616547208000156
104,36,7,categorization,0,kitchen,SHINEd_sun_aegoxogugdkwpmpj.tif,80,0.0666666666666667,0.0666666666666667,1.45,1303.625312291,1304.708853125,13,1303.691695291,1303.758279708,1304.727074916,1306.170458041,0,1.0835408339999
104,37,7,categorization,0,bathroom,SHINEd_sun_aggnnqpdorgxpvce.tif,21,0.0666666666666667,0.0666666666666667,0.8,1306.186571958,1308.004411166,9,1306.253175916,1306.313338583,1308.015866666,1308.809204625,0,1.8178392079999
104,38,7,categorization,0,kitchen,SHINEd_sun_awcpdzzznmweyyhv.tif,106,0.0666666666666667,0.0666666666666667,1.45,1308.81601125,1309.388634291,9,1308.877799291,1308.938830125,1309.407456458,1310.850834291,1,0.572623041000043
104,39,7,categorization,0,bathroom,SHINEd_sun_avhrdrntsqrjzccq.tif,55,0.0666666666666667,0.0666666666666667,1.1,1310.867855166,1311.572994375,9,1310.934340458,1311.000869208,1311.590100291,1312.683465208,0,0.705139208999981
104,40,7,categorization,0,kitchen,SHINEd_sun_abpwyqmlzafvklqo.tif,72,0.0666666666666667,0.0666666666666667,1.16666666666667,1312.693443333,1313.345912875,9,1312.758156875,1312.826168,1313.366093166,1314.526127416,1,0.652469542000063
104,41,7,categorization,0,bathroom,SHINEd_sun_apynckhmoftszqoq.tif,47,0.0666666666666667,0.0666666666666667,1.31666666666667,1314.543438291,1315.285173833,9,1314.609956458,1314.675301,1315.294566666,1316.604617041,0,0.741735542000015
104,42,7,categorization,0,kitchen,SHINEd_sun_ajcbwwvdlsvjyzje.tif,96,0.0666666666666667,0.0666666666666667,1.68333333333333,1316.619816583,1317.688418958,13,1316.68612575,1316.752827791,1317.70931875,1319.386033875,0,1.06860237499995
104,43,7,categorization,0,bathroom,SHINEd_sun_agyqfjcfkdcydepw.tif,25,0.0666666666666667,0.0666666666666667,0.966666666666667,1319.399941625,1320.4151735,13,1319.466422708,1319.532709625,1320.439357958,1321.399364291,1,1.01523187499993
104,44,7,categorization,0,bathroom,SHINEd_sun_apeeialkgkuxddgh.tif,42,0.0666666666666667,0.0666666666666667,1.4,1321.405003916,1322.308478375,13,1321.466771833,1321.527797791,1322.312874541,1323.706259666,1,0.903474459000108
104,45,7,categorization,0,bathroom,SHINEd_sun_atstyziqcmkahyxk.tif,51,0.0666666666666667,0.0666666666666667,0.783333333333333,1323.722940375,1324.454505041,13,1323.789549583,1323.855757208,1324.477366833,1325.2540765,1,0.73156466599994
104,46,7,categorization,0,kitchen,SHINEd_sun_aaxxjlsuzvqlgylf.tif,68,0.0666666666666667,0.0666666666666667,1.08333333333333,1325.270016333,1326.500439083,9,1325.336676833,1325.395220916,1326.514276875,1327.590982833,1,1.23042274999989
104,47,7,categorization,0,kitchen,SHINEd_sun_ahljzhgcdpomplvg.tif,91,0.0666666666666667,0.0666666666666667,1.43333333333333,1327.601010291,1328.773593625,9,1327.666062041,1327.734020875,1328.791151208,1330.21785525,1,1.17258333400014
104,48,7,categorization,0,kitchen,SHINEd_sun_amjjdeyrggfqgmom.tif,100,0.0666666666666667,0.0666666666666667,1.75,1330.235006208,1332.084814916,9,1330.299884083,1330.365619958,1332.101501916,1333.844878458,1,1.84980870799996
104,49,7,categorization,0,bathroom,SHINEd_sun_ausgutylgojavyoq.tif,53,0.0666666666666667,0.0666666666666667,1.21666666666667,1333.86203625,1334.565348791,13,1333.928817125,1333.994924208,1334.584034,1335.794062333,1,0.703312540999832
104,50,7,categorization,0,kitchen,SHINEd_sun_ajkqhtgcbgpcwrwn.tif,97,0.0666666666666667,0.0666666666666667,1.31666666666667,1335.810011083,1336.736981125,13,1335.876602958,1335.943044708,1336.766118541,1338.076173916,0,0.926970041999994
