sub_num,trial,block,task,is_practice,category,image,texture,duration,mask_dur,jitter,stim_time,time_of_resp,trial_response,mask_time,fix_time,jit_onset,trial_end,trial_accuracy,RT
104,1,18,categorization,0,kitchen,SHINEd_sun_axyyrmzcupyhlivc.tif,107,0.0666666666666667,0.0666666666666667,0.75,2567.423039125,2568.471149875,13,2567.485639875,2567.545963333,2568.481101458,2569.22444025,0,1.04811074999998
104,2,18,categorization,0,bathroom,SHINEd_sun_alotolagknyrgtsk.tif,35,0.0666666666666667,0.0666666666666667,1.05,2569.229885083,2569.887464208,9,2569.291619375,2569.352585625,2569.9048065,2570.948171375,0,0.657579124999756
104,3,18,categorization,0,bathroom,SHINEd_sun_apynckhmoftszqoq.tif,47,0.0666666666666667,0.0666666666666667,1.08333333333333,2570.960296541,2571.677172791,9,2571.024854916,2571.091731791,2571.69815575,2572.774867791,0,0.716876250000041
104,4,18,categorization,0,kitchen,SHINEd_sun_adgqasybjyktddhj.tif,78,0.0666666666666667,0.0666666666666667,1.78333333333333,2572.790348708,2573.496115125,9,2572.856496625,2572.923172041,2573.508985375,2575.285705333,1,0.705766417000177
104,5,18,categorization,0,bathroom,SHINEd_sun_asfwthctfqerjvxr.tif,49,0.0666666666666667,0.0666666666666667,0.733333333333333,2575.296999,2575.922249708,9,2575.363440458,2575.429879833,2575.93517175,2576.661843125,0,0.62525070799984
104,6,18,categorization,0,bathroom,SHINEd_sun_axyrejkiiaqiurjk.tif,59,0.0666666666666667,0.0666666666666667,0.716666666666667,2576.667584791,2577.399254583,13,2576.729316875,2576.790484333,2577.409174666,2578.119177833,1,0.731669792000048
104,7,18,categorization,0,bathroom,SHINEd_sun_ahijqszoswveeyji.tif,28,0.0666666666666667,0.0666666666666667,1.76666666666667,2578.126890875,2578.79197325,13,2578.188615333,2578.249564375,2578.801783666,2580.561822708,1,0.665082375000111
104,8,18,categorization,0,kitchen,SHINEd_sun_ahspylgoovwmwvgk.tif,93,0.0666666666666667,0.0666666666666667,1.11666666666667,2580.579263166,2581.297395333,9,2580.645710166,2580.712382791,2581.318406333,2582.428449625,1,0.718132167000022
104,9,18,categorization,0,kitchen,SHINEd_sun_aunzlwrbjumxhwdj.tif,103,0.0666666666666667,0.0666666666666667,0.8,2582.437962375,2583.13186275,9,2582.503080375,2582.570532916,2583.16019175,2583.953563125,1,0.693900374999885
104,10,18,categorization,0,bathroom,SHINEd_sun_aleqenyvunhactkl.tif,32,0.0666666666666667,0.0666666666666667,1.53333333333333,2583.969055166,2584.719084375,13,2584.035431458,2584.1020125,2584.737850916,2586.2645505,1,0.750029208999877
104,11,18,categorization,0,kitchen,SHINEd_labelme_kxvouciolcpqplr.tif,62,0.0666666666666667,0.0666666666666667,0.966666666666667,2586.281381916,2588.07907925,13,2586.345820958,2586.414212958,2588.083578583,2589.043584208,0,1.79769733400008
104,12,18,categorization,0,bathroom,SHINEd_sun_alkosphxlxwjwgjd.tif,34,0.0666666666666667,0.0666666666666667,1.31666666666667,2589.048751083,2589.703233958,13,2589.110484666,2589.17156025,2589.707187166,2591.017226041,1,0.654482875000213
104,13,18,categorization,0,kitchen,SHINEd_sun_agubuxuukhzyzpdp.tif,88,0.0666666666666667,0.0666666666666667,1.25,2591.033993625,2591.967676041,13,2591.100607916,2591.167087916,2591.990160291,2593.233538833,0,0.933682415999556
104,14,18,categorization,0,kitchen,SHINEd_sun_aypmqwcualkenuoe.tif,109,0.0666666666666667,0.0666666666666667,0.85,2593.250587541,2594.995396416,9,2593.31624825,2593.384426541,2595.026565291,2595.869902916,1,1.74480887499976
104,15,18,categorization,0,kitchen,SHINEd_sun_aqeaevwwwjoqhzvl.tif,101,0.0666666666666667,0.0666666666666667,1.68333333333333,2595.876452291,2596.527424,9,2595.938292833,2595.999474208,2596.534556166,2598.211269,1,0.650971708999805
104,16,18,categorization,0,kitchen,SHINEd_sun_abrcnpqqhmjwekyf.tif,73,0.0666666666666667,0.0666666666666667,1.06666666666667,2598.229716291,2600.015371791,9,2598.2937905,2598.359824625,2600.029272083,2601.089317666,1,1.78565549999985
104,17,18,categorization,0,kitchen,SHINEd_sun_aehawpgmrlhlvcow.tif,81,0.0666666666666667,0.0666666666666667,1.48333333333333,2601.100832458,2601.946209708,9,2601.166027166,2601.232299125,2601.972053708,2603.448759666,1,0.845377250000183
104,18,18,categorization,0,kitchen,SHINEd_sun_agzzivivdpnawacl.tif,89,0.0666666666666667,0.0666666666666667,1.81666666666667,2603.46725225,2605.071015916,13,2603.533820208,2603.600134791,2605.092458708,2606.902508875,0,1.60376366599985
104,19,18,categorization,0,bathroom,SHINEd_sun_avhrdrntsqrjzccq.tif,55,0.0666666666666667,0.0666666666666667,0.966666666666667,2606.9198425,2608.831478083,13,2606.986635166,2607.052865291,2608.838404458,2609.798409916,1,1.91163558300013
104,20,18,categorization,0,kitchen,SHINEd_sun_aegoxogugdkwpmpj.tif,80,0.0666666666666667,0.0666666666666667,1.6,2609.803819,2610.719143083,9,2609.86564025,2609.926578916,2610.7287965,2612.322150708,1,0.915324082999632
104,21,18,categorization,0,bathroom,SHINEd_sun_akiytfaagpdsphgz.tif,31,0.0666666666666667,0.0666666666666667,1.28333333333333,2612.332535625,2613.0355485,13,2612.399488583,2612.465574708,2613.054561041,2614.331272583,1,0.703012874999786
104,22,18,categorization,0,bathroom,SHINEd_sun_aspsyogrekjtfozg.tif,50,0.0666666666666667,0.0666666666666667,0.9,2614.346337,2615.070447208,13,2614.413082583,2614.479087333,2615.084594041,2615.9779665,1,0.724110208000184
104,23,18,categorization,0,bathroom,SHINEd_sun_aoybiabnpadelefl.tif,41,0.0666666666666667,0.0666666666666667,1.41666666666667,2615.994415208,2616.838736583,13,2616.0609915,2616.127295666,2616.846405666,2618.256442083,1,0.844321374999708
104,24,18,categorization,0,kitchen,SHINEd_labelme_brsyyvweiuaazfr.tif,61,0.0666666666666667,0.0666666666666667,0.8,2618.274284416,2619.400342,9,2618.341097166,2618.407428833,2619.413517458,2620.206854791,1,1.12605758400014
104,25,18,categorization,0,kitchen,SHINEd_sun_aadbddgrdsjugojn.tif,64,0.0666666666666667,0.0666666666666667,1.05,2620.2123675,2620.855579458,9,2620.27428675,2620.335176291,2620.870685416,2621.914060916,1,0.643211958000393
104,26,18,categorization,0,kitchen,SHINEd_sun_ahpczsiumwwocjkv.tif,92,0.0666666666666667,0.0666666666666667,0.766666666666667,2621.924046333,2622.434327791,9,2621.988497041,2622.054999958,2622.461506666,2623.221550666,1,0.510281458000009
104,27,18,categorization,0,bathroom,SHINEd_sun_aggnnqpdorgxpvce.tif,21,0.0666666666666667,0.0666666666666667,0.816666666666667,2623.236238291,2624.001561125,9,2623.302397291,2623.369158666,2624.0224005,2624.832405541,0,0.765322834000017
104,28,18,categorization,0,bathroom,SHINEd_sun_aavhrsfjbserjtht.tif,13,0.0666666666666667,0.0666666666666667,0.95,2624.837179666,2625.719629791,9,2624.898901041,2624.960015375,2625.728706291,2626.672044875,0,0.882450125000105
104,29,18,categorization,0,bathroom,SHINEd_sun_ahcvzmoyaycdoftf.tif,27,0.0666666666666667,0.0666666666666667,1.46666666666667,2626.6777575,2627.38343875,13,2626.739443416,2626.800639666,2627.402850708,2628.862906166,1,0.705681249999998
104,30,18,categorization,0,kitchen,SHINEd_sun_akcjzhbbjlbogpdi.tif,99,0.0666666666666667,0.0666666666666667,0.8,2628.877758916,2629.595096125,9,2628.944300208,2629.010677666,2629.617009333,2630.410373291,1,0.717337209000107
104,31,18,categorization,0,bathroom,SHINEd_sun_auzqhkafidnkrwmo.tif,54,0.0666666666666667,0.0666666666666667,1.88333333333333,2630.421351708,2631.095601291,13,2630.483103708,2630.544295125,2631.112995583,2632.989703166,1,0.674249582999892
104,32,18,categorization,0,bathroom,SHINEd_sun_agrwbmhcpmfuwmsg.tif,24,0.0666666666666667,0.0666666666666667,1.03333333333333,2633.007045166,2633.951917208,9,2633.073145333,2633.139687625,2633.979720458,2635.006510666,0,0.944872042000043
104,33,18,categorization,0,kitchen,SHINEd_sun_ahywdevtimnqcsln.tif,94,0.0666666666666667,0.0666666666666667,0.916666666666667,2635.020958125,2635.905535625,9,2635.086750875,2635.153432166,2635.931874916,2636.841918416,1,0.884577499999978
104,34,18,categorization,0,kitchen,SHINEd_sun_agorklincwxrdtga.tif,87,0.0666666666666667,0.0666666666666667,0.883333333333333,2636.860887625,2637.743302583,9,2636.928254583,2636.994237958,2637.763580875,2638.640252166,1,0.882414958000027
104,35,18,categorization,0,kitchen,SHINEd_sun_aexklacwqwezaorf.tif,84,0.0666666666666667,0.0666666666666667,0.983333333333333,2638.644956,2640.310979541,13,2638.706794541,2638.767685083,2640.3198165,2641.296488291,0,1.66602354099996
104,36,18,categorization,0,bathroom,SHINEd_sun_ahqjwnzgolcaoidx.tif,29,0.0666666666666667,0.0666666666666667,0.933333333333333,2641.301230916,2642.111771666,13,2641.362957875,2641.424049125,2642.126280375,2643.052951833,1,0.8105407500002
104,37,18,categorization,0,kitchen,SHINEd_sun_aggjlwcdjsjcaemh.tif,86,0.0666666666666667,0.0666666666666667,0.783333333333333,2643.0596125,2643.94316175,13,2643.121299625,2643.182368708,2643.9512995,2644.727970416,0,0.88354924999976
104,38,18,categorization,0,bathroom,SHINEd_sun_aclfzgynxzxlbepz.tif,19,0.0666666666666667,0.0666666666666667,0.85,2644.7328055,2646.375624666,13,2644.7943905,2644.8555735,2646.391146791,2647.234486708,1,1.64281916600021
104,39,18,categorization,0,kitchen,SHINEd_sun_auaiucuqpdausiva.tif,102,0.0666666666666667,0.0666666666666667,1.7,2647.240103166,2647.894903375,9,2647.302037,2647.362921125,2647.898298083,2649.591670708,1,0.654800208999859
104,40,18,categorization,0,kitchen,SHINEd_sun_auticobqsbwgoppi.tif,104,0.0666666666666667,0.0666666666666667,1.31666666666667,2649.608518541,2650.235992,9,2649.6751215,2649.741857916,2650.2657155,2651.575748541,1,0.627473458999702
104,41,18,categorization,0,kitchen,SHINEd_sun_aeqdocilnnpuvuhx.tif,83,0.0666666666666667,0.0666666666666667,0.9,2651.594824375,2652.273517041,9,2651.661992916,2651.728529208,2652.300496291,2653.193860416,1,0.678692666000188
104,42,18,categorization,0,kitchen,SHINEd_sun_afuyedyxivkhecmu.tif,85,0.0666666666666667,0.0666666666666667,1.75,2653.2112885,2654.038942666,9,2653.278513541,2653.339852541,2654.058322666,2655.801710958,1,0.827654165999775
104,43,18,categorization,0,kitchen,SHINEd_sun_acxkpeoqbwcxfvip.tif,77,0.0666666666666667,0.0666666666666667,1.41666666666667,2655.819130916,2656.512439166,9,2655.885653833,2655.952159041,2656.542063583,2657.952114875,1,0.693308249999973
104,44,18,categorization,0,bathroom,SHINEd_sun_axxbkopsgyouuebh.tif,58,0.0666666666666667,0.0666666666666667,1.01666666666667,2657.96977825,2658.712171416,13,2658.036444,2658.102529291,2658.74195825,2659.752007125,1,0.742393165999601
104,45,18,categorization,0,kitchen,SHINEd_sun_awcpdzzznmweyyhv.tif,106,0.0666666666666667,0.0666666666666667,1.95,2659.763883166,2660.764476375,9,2659.829512958,2659.895759458,2660.785806875,2662.72918775,1,1.00059320899982
104,46,18,categorization,0,bathroom,SHINEd_sun_aljolscmmzydegqp.tif,33,0.0666666666666667,0.0666666666666667,0.916666666666667,2662.746769583,2664.366740833,9,2662.813530791,2662.879679208,2664.381934833,2665.291939791,0,1.61997125000016
104,47,18,categorization,0,kitchen,SHINEd_sun_aaxxjlsuzvqlgylf.tif,68,0.0666666666666667,0.0666666666666667,1.08333333333333,2665.297494125,2665.919466458,9,2665.359191416,2665.420359458,2665.939291333,2667.016008833,1,0.621972333000031
104,48,18,categorization,0,kitchen,SHINEd_sun_ajkqhtgcbgpcwrwn.tif,97,0.0666666666666667,0.0666666666666667,1.16666666666667,2667.026492208,2667.662227416,9,2667.091631333,2667.1596285,2667.682073208,2668.842128458,1,0.635735207999915
104,49,18,categorization,0,bathroom,SHINEd_sun_axldvoqbuvuggfmq.tif,57,0.0666666666666667,0.0666666666666667,1.78333333333333,2668.85915875,2669.806925416,13,2668.926102708,2668.992119791,2669.810980166,2671.587701375,1,0.947766666000007
104,50,18,categorization,0,bathroom,SHINEd_sun_anryaplzeujmzfkd.tif,39,0.0666666666666667,0.0666666666666667,1.2,2671.604744375,2672.336868375,13,2671.6714,2671.737876041,2672.360486,2673.553851166,1,0.732124000000113
