sub_num,trial,block,task,is_practice,category,image,texture,duration,mask_dur,jitter,stim_time,time_of_resp,trial_response,mask_time,fix_time,jit_onset,trial_end,trial_accuracy,RT
114,6,0,usability,1,kitchen,kitchen_practice2.tif,227,1.5,0,1.13333333333333,4846.64889375,4852.4343965,3,NaN,4852.440052625,4852.45837675,4853.585077208,NaN,NaN
114,7,0,usability,1,kitchen,kitchen_practice3.tif,228,1.5,0,0.933333333333333,4853.595773958,4860.073467042,4,NaN,4860.079771583,4860.098022833,4861.024694583,NaN,NaN
114,8,0,usability,1,kitchen,kitchen_practice1.tif,226,1.5,0,1.48333333333333,4861.029235542,4864.97809825,3,NaN,4864.984733958,4865.003172208,4866.479894417,NaN,NaN
114,9,0,usability,1,kitchen,kitchen_practice4.tif,229,1.5,0,1.33333333333333,4866.494809958,4869.633545875,5,NaN,4869.639505208,4869.657829875,4870.984528583,NaN,NaN
114,10,0,usability,1,kitchen,kitchen_practice5.tif,230,1.5,0,1.3,4870.998414583,4874.770281,7,NaN,4874.775870625,4874.794271917,4876.087641625,NaN,NaN
114,1,1,usability,0,kitchen,sun_amjjdeyrggfqgmom.tif,210,1.5,0,1.91666666666667,4881.493933333,4887.217309417,4,NaN,4887.223189,4887.241495458,4889.151536958,NaN,NaN
114,2,1,usability,0,kitchen,sun_aymvwlarqodbwuoc.tif,218,1.5,0,0.85,4889.164941667,4891.845133292,5,NaN,4891.874370667,4891.897836542,4892.741175625,NaN,NaN
114,3,1,usability,0,kitchen,labelme_rykdqxenmhulbdn.tif,173,1.5,0,0.7,4892.746888333,4896.370032125,6,NaN,4896.376927125,4896.395304875,4897.088644208,NaN,NaN
114,4,1,usability,0,kitchen,sun_adgqasybjyktddhj.tif,188,1.5,0,1.6,4897.093418,4900.3931735,7,NaN,4900.399439792,4900.417872292,4902.011250125,NaN,NaN
114,5,1,usability,0,kitchen,sun_aehawpgmrlhlvcow.tif,191,1.5,0,1.13333333333333,4902.029415583,4905.234198333,5,NaN,4905.2399815,4905.258304792,4906.385015333,NaN,NaN
114,6,1,usability,0,kitchen,sun_aadbddgrdsjugojn.tif,174,1.5,0,0.716666666666667,4906.394443167,4910.017103125,6,NaN,4910.023310792,4910.041688333,4910.751694292,NaN,NaN
114,7,1,usability,0,kitchen,sun_acwjdupvyjsugpay.tif,186,1.5,0,1.6,4910.756110458,4913.574184125,7,NaN,4913.603194042,4913.626575583,4915.219966833,NaN,NaN
114,8,1,usability,0,kitchen,sun_aixorpehvfykdynp.tif,205,1.5,0,1.68333333333333,4915.238504125,4918.050199625,7,NaN,4918.055911333,4918.07423625,4919.750950792,NaN,NaN
114,9,1,usability,0,kitchen,sun_auaiucuqpdausiva.tif,212,1.5,0,1.41666666666667,4919.768505917,4923.529152417,6,NaN,4923.535505875,4923.55395175,4924.964002917,NaN,NaN
114,10,1,usability,0,kitchen,sun_aamedkxepzlwuxes.tif,175,1.5,0,1,4924.982818042,4931.081968208,4,NaN,4931.0876255,4931.105991333,4932.09933075,NaN,NaN
114,11,1,usability,0,kitchen,sun_ahpczsiumwwocjkv.tif,202,1.5,0,1.33333333333333,4932.104716667,4937.433151958,6,NaN,4937.439340042,4937.45779025,4938.784500125,NaN,NaN
114,12,1,usability,0,kitchen,sun_aenotlpyftoioydp.tif,192,1.5,0,1.15,4938.800600708,4942.58541625,6,NaN,4942.591354125,4942.609677583,4943.753056375,NaN,NaN
114,13,1,usability,0,kitchen,sun_aexklacwqwezaorf.tif,194,1.5,0,1.86666666666667,4943.761538,4948.649311083,5,NaN,4948.655185792,4948.673630292,4950.533680292,NaN,NaN
114,14,1,usability,0,kitchen,sun_aapllqyqlykszopd.tif,176,1.5,0,1.18333333333333,4950.551045625,4954.489586417,7,NaN,4954.495316417,4954.513573625,4955.690277708,NaN,NaN
114,15,1,usability,0,kitchen,sun_ahywdevtimnqcsln.tif,204,1.5,0,1.71666666666667,4955.701963667,4959.761558375,5,NaN,4959.767304917,4959.78576125,4961.495814958,NaN,NaN
114,16,1,usability,0,kitchen,sun_aggjlwcdjsjcaemh.tif,196,1.5,0,1.1,4961.515195792,4965.578014542,7,NaN,4965.583610667,4965.601888292,4966.695277667,NaN,NaN
114,17,1,usability,0,kitchen,sun_acxkpeoqbwcxfvip.tif,187,1.5,0,0.983333333333333,4966.703940167,4970.937612458,7,NaN,4970.946452,4970.964691417,4971.94136375,NaN,NaN
114,18,1,usability,0,kitchen,sun_aeqdocilnnpuvuhx.tif,193,1.5,0,0.916666666666667,4971.946956708,4975.745579542,6,NaN,4975.751524792,4975.769772708,4976.679776583,NaN,NaN
114,19,1,usability,0,kitchen,sun_akcjzhbbjlbogpdi.tif,209,1.5,0,0.716666666666667,4976.684628333,4980.049751292,7,NaN,4980.055769708,4980.074165,4980.78417075,NaN,NaN
114,20,1,usability,0,kitchen,sun_ajcbwwvdlsvjyzje.tif,206,1.5,0,0.883333333333333,4980.789619917,4985.897508875,6,NaN,4985.90303475,4985.9215695,4986.798240958,NaN,NaN
114,21,1,usability,0,kitchen,sun_azmutvzbxypaceni.tif,220,1.5,0,1.93333333333333,4986.80282075,4989.812882125,7,NaN,4989.841875208,4989.865018875,4991.791724417,NaN,NaN
114,22,1,usability,0,kitchen,sun_awcpdzzznmweyyhv.tif,216,1.5,0,0.9,4991.810013167,4995.121725083,5,NaN,4995.127368083,4995.14584,4996.039178667,NaN,NaN
114,23,1,usability,0,kitchen,sun_aunzlwrbjumxhwdj.tif,213,1.5,0,1.13333333333333,4996.043678417,4999.289846583,4,NaN,4999.296558042,4999.314886417,5000.44160275,NaN,NaN
114,24,1,usability,0,kitchen,labelme_kxvouciolcpqplr.tif,172,1.5,0,0.766666666666667,5000.450097167,5006.60197275,5,NaN,5006.607516333,5006.625857,5007.385862417,NaN,NaN
114,25,1,usability,0,kitchen,sun_agubuxuukhzyzpdp.tif,198,1.5,0,0.966666666666667,5007.390430625,5011.609804792,5,NaN,5011.615428208,5011.633779875,5012.593783958,NaN,NaN
114,1,2,usability,0,kitchen,sun_ajkqhtgcbgpcwrwn.tif,207,1.5,0,1.56666666666667,5017.837060667,5021.704789542,1,NaN,5021.710819917,5021.7291085,5023.289156292,NaN,NaN
114,2,2,usability,0,kitchen,sun_avszsnwsbuqfgzbn.tif,215,1.5,0,1.2,5023.307808958,5027.216945208,2,NaN,5027.222869167,5027.2412305,5028.434609667,NaN,NaN
114,3,2,usability,0,kitchen,sun_admlmbcdswaszruo.tif,189,1.5,0,1.73333333333333,5028.445001583,5031.609049333,7,NaN,5031.615091917,5031.633584458,5033.360301792,NaN,NaN
114,4,2,usability,0,kitchen,sun_abdxkyyxwfskuaqb.tif,180,1.5,0,1.61666666666667,5033.375734625,5038.473080958,5,NaN,5038.478893,5038.49721825,5040.107262958,NaN,NaN
114,5,2,usability,0,kitchen,sun_aypmqwcualkenuoe.tif,219,1.5,0,1.38333333333333,5040.126692,5043.665647958,5,NaN,5043.671255625,5043.689739583,5045.066453583,NaN,NaN
114,6,2,usability,0,kitchen,sun_agzzivivdpnawacl.tif,199,1.5,0,1.73333333333333,5045.081336292,5048.089299375,6,NaN,5048.094830958,5048.113047583,5049.839755583,NaN,NaN
114,7,2,usability,0,kitchen,sun_aaxxjlsuzvqlgylf.tif,178,1.5,0,1.96666666666667,5049.858053125,5053.816753583,4,NaN,5053.822805208,5053.841105458,5055.801152042,NaN,NaN
114,8,2,usability,0,kitchen,sun_abftihopvusyfakt.tif,181,1.5,0,0.883333333333333,5055.816179542,5059.177246292,6,NaN,5059.184493208,5059.202808333,5060.079478958,NaN,NaN
114,9,2,usability,0,kitchen,sun_agorklincwxrdtga.tif,197,1.5,0,1.06666666666667,5060.084895667,5066.729015042,6,NaN,5066.734786792,5066.75324525,5067.813288333,NaN,NaN
114,10,2,usability,0,kitchen,labelme_brsyyvweiuaazfr.tif,171,1.5,0,1.06666666666667,5067.822128208,5070.697597625,7,NaN,5070.703099417,5070.72141825,5071.781453333,NaN,NaN
114,11,2,usability,0,kitchen,sun_afuyedyxivkhecmu.tif,195,1.5,0,0.966666666666667,5071.789929458,5075.497393,1,NaN,5075.503007208,5075.521534625,5076.481539458,NaN,NaN
114,12,2,usability,0,kitchen,sun_aegoxogugdkwpmpj.tif,190,1.5,0,1.78333333333333,5076.486773667,5079.792823292,7,NaN,5079.799837375,5079.818192792,5081.594892833,NaN,NaN
114,13,2,usability,0,kitchen,sun_axyyrmzcupyhlivc.tif,217,1.5,0,1.68333333333333,5081.616071,5085.256728917,7,NaN,5085.263031292,5085.28136425,5086.95806625,NaN,NaN
114,14,2,usability,0,kitchen,sun_abpwyqmlzafvklqo.tif,182,1.5,0,0.983333333333333,5086.973523833,5091.609003667,5,NaN,5091.614813417,5091.6330665,5092.609738,NaN,NaN
114,15,2,usability,0,kitchen,sun_abdenxonkemggwsq.tif,179,1.5,0,1.33333333333333,5092.615069708,5098.400966667,6,NaN,5098.406774167,5098.42526325,5099.751968833,NaN,NaN
114,16,2,usability,0,kitchen,sun_acgtpgfybqjmzeyw.tif,185,1.5,0,1.56666666666667,5099.769491917,5106.064925667,7,NaN,5106.070764792,5106.089373875,5107.649415708,NaN,NaN
114,17,2,usability,0,kitchen,sun_ahspylgoovwmwvgk.tif,203,1.5,0,1.66666666666667,5107.667629083,5110.492368167,7,NaN,5110.5215995,5110.545031958,5112.205070958,NaN,NaN
114,18,2,usability,0,kitchen,sun_auticobqsbwgoppi.tif,214,1.5,0,1.86666666666667,5112.221226167,5115.570238167,2,NaN,5115.600205125,5115.6236175,5117.483668792,NaN,NaN
114,19,2,usability,0,kitchen,sun_aqeaevwwwjoqhzvl.tif,211,1.5,0,1.95,5117.501626458,5120.669133333,1,NaN,5120.698851125,5120.722288375,5122.665663708,NaN,NaN
114,20,2,usability,0,kitchen,sun_acfmftudsenhrfhy.tif,184,1.5,0,0.966666666666667,5122.6833365,5128.096501875,3,NaN,5128.102552875,5128.12105375,5129.081057667,NaN,NaN
114,21,2,usability,0,kitchen,sun_abrcnpqqhmjwekyf.tif,183,1.5,0,1.43333333333333,5129.08585275,5132.408840917,7,NaN,5132.414895667,5132.433568042,5133.8602755,NaN,NaN
114,22,2,usability,0,kitchen,sun_ahdycvpopffkzzsu.tif,200,1.5,0,0.85,5133.875890542,5139.281413958,3,NaN,5139.287014292,5139.305335208,5140.148674042,NaN,NaN
114,23,2,usability,0,kitchen,sun_ahljzhgcdpomplvg.tif,201,1.5,0,1.53333333333333,5140.153785917,5143.457493667,7,NaN,5143.4634945,5143.481751042,5145.008488042,NaN,NaN
114,24,2,usability,0,kitchen,sun_akchetnepxlcxhsu.tif,208,1.5,0,1.18333333333333,5145.020903708,5149.11263425,7,NaN,5149.118582958,5149.136936833,5150.313627917,NaN,NaN
114,25,2,usability,0,kitchen,sun_aarfiyshqohlwkmo.tif,177,1.5,0,1.86666666666667,5150.324464458,5156.664904042,5,NaN,5156.670786,5156.689081292,5158.549120125,NaN,NaN
