sub_num,trial,block,task,is_practice,category,image,texture,duration,mask_dur,jitter,stim_time,time_of_resp,trial_response,mask_time,fix_time,jit_onset,trial_end,trial_accuracy,RT
112,1,0,categorization,1,bathroom,SHINEd_bathroom_practice4.tif,114,0.0666666666666667,0.0666666666666667,1.21666666666667,319.125155916,321.313190541,9,319.191117583,319.252031083,321.339507458,322.549877125,0,2.188034625
112,2,0,categorization,1,kitchen,SHINEd_kitchen_practice4.tif,119,0.0666666666666667,0.0666666666666667,1.36666666666667,322.610099791,323.891537791,9,322.683432875,322.74448925,323.921543625,325.281749,1,1.28143800000004
112,3,0,categorization,1,bathroom,SHINEd_bathroom_practice5.tif,115,0.0666666666666667,0.0666666666666667,1.85,325.353721291,326.345265625,13,325.527126708,325.568987333,326.378141333,328.221695583,1,0.991544334000025
112,4,0,categorization,1,kitchen,SHINEd_kitchen_practice1.tif,116,0.0666666666666667,0.0666666666666667,1.55,328.242132958,329.592928708,13,328.313719083,328.375645291,329.612019083,331.155630708,0,1.35079574999997
112,5,0,categorization,1,kitchen,SHINEd_kitchen_practice3.tif,118,0.0666666666666667,0.0666666666666667,1.48333333333333,331.189919541,332.282810833,9,331.264334458,331.32489775,332.320690833,333.798484,1,1.09289129199999
112,6,0,categorization,1,bathroom,SHINEd_bathroom_practice2.tif,112,0.0666666666666667,0.0666666666666667,1.15,333.82779225,334.987945083,9,333.896771375,333.961286083,335.019246125,336.162761,0,1.16015283299998
112,7,0,categorization,1,kitchen,SHINEd_kitchen_practice5.tif,120,0.0666666666666667,0.0666666666666667,0.733333333333333,336.176079208,339.914456666,9,336.242886208,336.305533125,339.93112825,340.657801125,1,3.738377458
112,8,0,categorization,1,bathroom,SHINEd_bathroom_practice1.tif,111,0.0666666666666667,0.0666666666666667,1.6,340.662490833,341.665116375,13,340.724280125,340.785226875,341.670825041,343.264222416,1,1.00262554200003
112,9,0,categorization,1,kitchen,SHINEd_kitchen_practice2.tif,117,0.0666666666666667,0.0666666666666667,0.716666666666667,343.285113541,344.592922416,9,343.35204125,343.418344125,344.609822083,345.31982875,1,1.30780887500003
112,10,0,categorization,1,bathroom,SHINEd_bathroom_practice3.tif,113,0.0666666666666667,0.0666666666666667,1.21666666666667,345.325401833,346.153368166,13,345.387180791,345.448170791,346.166494833,347.376526833,1,0.827966333000006
112,1,1,categorization,0,bathroom,SHINEd_sun_aggnnqpdorgxpvce.tif,21,0.0666666666666667,0.0666666666666667,1.23333333333333,385.983974791,387.384818708,9,386.046550375,386.106892875,387.392556375,388.619368,0,1.40084391700003
112,2,1,categorization,0,bathroom,SHINEd_sun_ahaulkltgpkeeemi.tif,26,0.0666666666666667,0.0666666666666667,0.783333333333333,388.636942833,389.491606083,13,388.704236875,388.76989175,389.509977333,390.286686125,1,0.854663250000044
112,3,1,categorization,0,kitchen,SHINEd_sun_aqeaevwwwjoqhzvl.tif,101,0.0666666666666667,0.0666666666666667,0.75,390.296415958,391.561146375,13,390.363322375,390.428844625,391.581433125,392.324770375,0,1.26473041700001
112,4,1,categorization,0,kitchen,SHINEd_sun_ahdycvpopffkzzsu.tif,90,0.0666666666666667,0.0666666666666667,1.23333333333333,392.329355708,393.896695666,9,392.391061166,392.452080375,393.904229,395.130950458,1,1.56733995800005
112,5,1,categorization,0,kitchen,SHINEd_sun_agubuxuukhzyzpdp.tif,88,0.0666666666666667,0.0666666666666667,1.13333333333333,395.147580541,396.040473875,9,395.215157041,395.280302166,396.0702055,397.196919708,1,0.89289333399995
112,6,1,categorization,0,kitchen,SHINEd_sun_adgqasybjyktddhj.tif,78,0.0666666666666667,0.0666666666666667,0.95,397.207443208,398.267207291,9,397.27484825,397.340248458,398.277631875,399.220976708,1,1.059764083
112,7,1,categorization,0,kitchen,SHINEd_sun_ahywdevtimnqcsln.tif,94,0.0666666666666667,0.0666666666666667,0.733333333333333,399.227023375,400.4415475,9,399.288824791,399.34972575,400.451985041,401.178655708,1,1.21452412500003
112,8,1,categorization,0,bathroom,SHINEd_sun_amzlamotzwfkwjco.tif,37,0.0666666666666667,0.0666666666666667,1.31666666666667,401.183505291,402.217358125,13,401.2452625,401.3062215,402.224653291,403.53468975,1,1.03385283399996
112,9,1,categorization,0,kitchen,SHINEd_sun_aixorpehvfykdynp.tif,95,0.0666666666666667,0.0666666666666667,0.8,403.554102083,404.380910958,9,403.620555208,403.686775625,404.410173416,405.203552958,1,0.82680887500004
112,10,1,categorization,0,bathroom,SHINEd_sun_acegryoqftbzowsg.tif,17,0.0666666666666667,0.0666666666666667,0.716666666666667,405.219424583,406.416776416,9,405.2862475,405.345646666,406.430892,407.140896458,0,1.19735183300003
112,11,1,categorization,0,kitchen,SHINEd_sun_akcjzhbbjlbogpdi.tif,99,0.0666666666666667,0.0666666666666667,0.916666666666667,407.145489875,408.528948166,9,407.207267708,407.268242791,408.537049666,409.447053583,1,1.38345829100001
112,12,1,categorization,0,kitchen,SHINEd_sun_aapllqyqlykszopd.tif,66,0.0666666666666667,0.0666666666666667,0.95,409.451778291,410.608963208,9,409.513641666,409.574508583,410.626763208,411.57010125,1,1.157184917
112,13,1,categorization,0,kitchen,SHINEd_sun_ahljzhgcdpomplvg.tif,91,0.0666666666666667,0.0666666666666667,0.833333333333333,411.5754585,412.689367375,9,411.637344666,411.698166208,412.700087541,413.526760166,1,1.11390887499999
112,14,1,categorization,0,bathroom,SHINEd_sun_atstyziqcmkahyxk.tif,51,0.0666666666666667,0.0666666666666667,0.75,413.53240775,414.633033458,13,413.594123208,413.6551105,414.640346916,415.383686083,1,1.100625708
112,15,1,categorization,0,bathroom,SHINEd_sun_abapwbhyhkfixyex.tif,14,0.0666666666666667,0.0666666666666667,1.53333333333333,415.388273166,416.408993375,9,415.45002725,415.510912833,416.412830541,417.939536958,0,1.02072020900005
112,16,1,categorization,0,kitchen,SHINEd_sun_auticobqsbwgoppi.tif,104,0.0666666666666667,0.0666666666666667,1.05,417.956133,418.862345416,9,418.022833833,418.088895791,418.878177708,419.921545833,1,0.90621241599996
112,17,1,categorization,0,bathroom,SHINEd_sun_aljolscmmzydegqp.tif,33,0.0666666666666667,0.0666666666666667,0.9,419.933490583,420.7684435,9,419.998222208,420.063284708,420.785931458,421.679305958,0,0.83495291700001
112,18,1,categorization,0,bathroom,SHINEd_sun_agrwbmhcpmfuwmsg.tif,24,0.0666666666666667,0.0666666666666667,1.18333333333333,421.695259625,423.353051583,9,421.761920625,421.827752166,423.364148083,424.540870458,0,1.65779195800002
112,19,1,categorization,0,kitchen,SHINEd_sun_acfmftudsenhrfhy.tif,74,0.0666666666666667,0.0666666666666667,0.9,424.551045583,425.901538458,9,424.618200166,424.6838615,425.926450958,426.819791041,1,1.35049287499999
112,20,1,categorization,0,kitchen,SHINEd_sun_abrcnpqqhmjwekyf.tif,73,0.0666666666666667,0.0666666666666667,1.66666666666667,426.825355291,427.785753791,13,426.887169958,426.948187208,427.800133583,429.460151875,0,0.960398499999997
112,21,1,categorization,0,kitchen,SHINEd_sun_aymvwlarqodbwuoc.tif,108,0.0666666666666667,0.0666666666666667,1.13333333333333,429.537018833,430.40482175,9,429.602919958,429.6627985,430.419324208,431.546029166,1,0.867802917000006
112,22,1,categorization,0,bathroom,SHINEd_sun_azqyogdvyhahyram.tif,60,0.0666666666666667,0.0666666666666667,1.3,431.556559666,433.012084583,13,431.622465791,431.6910745,433.03188675,434.325256958,1,1.45552491699999
112,23,1,categorization,0,kitchen,SHINEd_sun_agorklincwxrdtga.tif,87,0.0666666666666667,0.0666666666666667,1.93333333333333,434.343306708,435.307727208,9,434.410250791,434.475037458,435.333365083,437.260117208,1,0.964420500000017
112,24,1,categorization,0,kitchen,SHINEd_labelme_brsyyvweiuaazfr.tif,61,0.0666666666666667,0.0666666666666667,1,437.285030291,438.147090041,9,437.356846625,437.422391666,438.161160916,439.154499041,1,0.862059750000014
112,25,1,categorization,0,kitchen,SHINEd_sun_aunzlwrbjumxhwdj.tif,103,0.0666666666666667,0.0666666666666667,0.883333333333333,439.159859916,440.185215791,9,439.221647083,439.282674416,440.201164458,441.077834916,1,1.025355875
112,26,1,categorization,0,kitchen,SHINEd_sun_abdxkyyxwfskuaqb.tif,70,0.0666666666666667,0.0666666666666667,1.95,441.083058916,442.120851333,9,441.144907625,441.205993208,442.124555583,444.067937166,1,1.03779241699999
112,27,1,categorization,0,bathroom,SHINEd_sun_axxbkopsgyouuebh.tif,58,0.0666666666666667,0.0666666666666667,1.25,444.086125541,444.990308875,13,444.15264475,444.220485583,445.010382166,446.253769208,1,0.904183333999981
112,28,1,categorization,0,bathroom,SHINEd_sun_alotolagknyrgtsk.tif,35,0.0666666666666667,0.0666666666666667,1.95,446.265727166,447.107534916,9,446.331255041,446.399007125,447.122766625,449.066144541,0,0.841807750000044
112,29,1,categorization,0,bathroom,SHINEd_sun_apeeialkgkuxddgh.tif,42,0.0666666666666667,0.0666666666666667,1.91666666666667,449.084580208,449.89864625,13,449.152043875,449.217992041,449.925186,451.835233416,1,0.814066042000036
112,30,1,categorization,0,kitchen,SHINEd_sun_aegoxogugdkwpmpj.tif,80,0.0666666666666667,0.0666666666666667,1.41666666666667,451.853402125,452.588324083,9,451.9209245,451.986476458,452.610502041,454.020555666,1,0.734921957999973
112,31,1,categorization,0,kitchen,SHINEd_sun_admlmbcdswaszruo.tif,79,0.0666666666666667,0.0666666666666667,0.716666666666667,454.041828541,454.845940333,9,454.111922666,454.172134333,454.862983833,455.573032708,1,0.804111792000015
112,32,1,categorization,0,kitchen,SHINEd_sun_azmutvzbxypaceni.tif,110,0.0666666666666667,0.0666666666666667,1.28333333333333,455.593466708,456.456739541,9,455.662559583,455.721016708,456.473093208,457.749799416,1,0.863272832999996
112,33,1,categorization,0,kitchen,SHINEd_sun_aeqdocilnnpuvuhx.tif,83,0.0666666666666667,0.0666666666666667,0.9,457.770739,458.826160625,9,457.839946625,457.907318083,458.848994416,459.742333291,1,1.05542162500001
112,34,1,categorization,0,kitchen,SHINEd_sun_aenotlpyftoioydp.tif,82,0.0666666666666667,0.0666666666666667,0.8,459.748654166,460.600576333,13,459.810377125,459.871530833,460.606763625,461.400102625,0,0.851922166999998
112,35,1,categorization,0,bathroom,SHINEd_sun_asfwthctfqerjvxr.tif,49,0.0666666666666667,0.0666666666666667,1.01666666666667,461.4048435,462.480689666,9,461.466513833,461.527781833,462.496210125,463.506244916,0,1.07584616599996
112,36,1,categorization,0,kitchen,SHINEd_sun_aypmqwcualkenuoe.tif,109,0.0666666666666667,0.0666666666666667,0.85,463.517006291,464.493050291,9,463.582559416,463.651339041,464.507517291,465.350885291,1,0.976044000000002
112,37,1,categorization,0,kitchen,SHINEd_sun_aggjlwcdjsjcaemh.tif,86,0.0666666666666667,0.0666666666666667,1.51666666666667,465.369878625,466.42436025,9,465.438061291,465.504378333,466.439643083,467.949673625,1,1.05448162499999
112,38,1,categorization,0,kitchen,SHINEd_sun_agzzivivdpnawacl.tif,89,0.0666666666666667,0.0666666666666667,1.83333333333333,467.967504375,469.453774333,9,468.035106833,468.10135575,469.47397575,471.30068175,1,1.48626995800004
112,39,1,categorization,0,kitchen,SHINEd_sun_acgtpgfybqjmzeyw.tif,75,0.0666666666666667,0.0666666666666667,0.716666666666667,471.322097083,472.383123333,9,471.390685458,471.455671916,472.413650291,473.123656041,1,1.06102625
112,40,1,categorization,0,bathroom,SHINEd_sun_auzqhkafidnkrwmo.tif,54,0.0666666666666667,0.0666666666666667,0.9,473.128753083,473.952738291,13,473.190643041,473.251761625,473.970169958,474.863509291,1,0.823985208000011
112,41,1,categorization,0,kitchen,SHINEd_sun_awcpdzzznmweyyhv.tif,106,0.0666666666666667,0.0666666666666667,0.916666666666667,474.868856958,475.808701416,9,474.930534083,474.99176975,475.826753791,476.736759333,1,0.939844458000039
112,42,1,categorization,0,kitchen,SHINEd_sun_avszsnwsbuqfgzbn.tif,105,0.0666666666666667,0.0666666666666667,0.816666666666667,476.741585833,477.648470916,9,476.803304166,476.864484208,477.666271125,478.476277458,1,0.90688508300002
112,43,1,categorization,0,bathroom,SHINEd_sun_ambriybtogmepttm.tif,36,0.0666666666666667,0.0666666666666667,1.88333333333333,478.482003791,480.080911291,9,478.543743958,478.604916208,480.091073541,481.967769208,0,1.5989075
112,44,1,categorization,0,kitchen,SHINEd_sun_ahspylgoovwmwvgk.tif,93,0.0666666666666667,0.0666666666666667,0.9,481.991604,483.744488583,9,482.060585791,482.126882208,483.762854625,484.656195875,1,1.75288458300003
112,45,1,categorization,0,kitchen,SHINEd_sun_amjjdeyrggfqgmom.tif,100,0.0666666666666667,0.0666666666666667,1,484.661096208,485.792917416,9,484.72275475,484.783985583,485.802730875,486.796068875,1,1.13182120800002
112,46,1,categorization,0,bathroom,SHINEd_sun_anhioqovhscjqqwb.tif,38,0.0666666666666667,0.0666666666666667,0.733333333333333,486.8010105,487.52065475,13,486.86264875,486.923918708,487.525620875,488.252292708,1,0.719644249999988
112,47,1,categorization,0,bathroom,SHINEd_sun_aghyqhbptboemmoq.tif,23,0.0666666666666667,0.0666666666666667,0.883333333333333,488.257061083,490.600356958,13,488.318751208,488.380087333,490.615589083,491.492260333,1,2.34329587500002
112,48,1,categorization,0,bathroom,SHINEd_sun_ajlawzvmubibwbpy.tif,30,0.0666666666666667,0.0666666666666667,1.73333333333333,491.498862666,493.128924458,13,491.560639333,491.621481541,493.140136291,494.867004791,1,1.63006179199999
112,49,1,categorization,0,kitchen,SHINEd_sun_acxkpeoqbwcxfvip.tif,77,0.0666666666666667,0.0666666666666667,1.91666666666667,494.888373291,495.843449416,9,494.956581166,495.023447041,495.865060083,497.77512425,1,0.955076125000005
112,50,1,categorization,0,bathroom,SHINEd_labelme_sfxiulhjbhlyiyt.tif,11,0.0666666666666667,0.0666666666666667,1.35,497.799330958,498.804170125,9,497.8683855,497.935525083,498.827662333,500.171012291,0,1.004839167
112,1,2,categorization,0,kitchen,SHINEd_labelme_rykdqxenmhulbdn.tif,63,0.0666666666666667,0.0666666666666667,0.95,518.33326975,519.3932585,9,518.395831041,518.456066333,519.407840208,520.351179666,1,1.05998875
112,2,2,categorization,0,bathroom,SHINEd_sun_akiytfaagpdsphgz.tif,31,0.0666666666666667,0.0666666666666667,0.75,520.356073125,521.488932208,9,520.417794875,520.479079666,521.49740925,522.240750541,0,1.13285908300008
112,3,2,categorization,0,bathroom,SHINEd_sun_apkruvsevgegsdwp.tif,44,0.0666666666666667,0.0666666666666667,1.68333333333333,522.245342083,523.000499541,13,522.307085833,522.368274958,523.020288958,524.696999333,1,0.755157457999985
112,4,2,categorization,0,bathroom,SHINEd_sun_agyqfjcfkdcydepw.tif,25,0.0666666666666667,0.0666666666666667,0.816666666666667,524.720506083,525.462212625,9,524.788828083,524.856424125,525.4812975,526.291302875,0,0.741706541999974
112,5,2,categorization,0,kitchen,SHINEd_sun_aehawpgmrlhlvcow.tif,81,0.0666666666666667,0.0666666666666667,0.916666666666667,526.296423125,527.289150958,9,526.358178458,526.419213625,527.304317416,528.214325291,1,0.992727833000004
112,6,2,categorization,0,bathroom,SHINEd_sun_ausgutylgojavyoq.tif,53,0.0666666666666667,0.0666666666666667,1.21666666666667,528.21905025,529.168351541,13,528.280807791,528.342117916,529.177213833,530.38742475,1,0.949301290999983
112,7,2,categorization,0,kitchen,SHINEd_sun_akchetnepxlcxhsu.tif,98,0.0666666666666667,0.0666666666666667,0.9,530.403328291,531.269596333,13,530.474888833,530.542849375,531.304684166,532.198231333,0,0.866268042000002
112,8,2,categorization,0,kitchen,SHINEd_sun_afuyedyxivkhecmu.tif,85,0.0666666666666667,0.0666666666666667,1.65,532.223159916,533.09712375,9,532.285249708,532.346265583,533.114851625,534.758231125,1,0.873963834000051
112,9,2,categorization,0,kitchen,SHINEd_sun_acwjdupvyjsugpay.tif,76,0.0666666666666667,0.0666666666666667,1.15,534.781788083,535.668868958,9,535.046675916,535.0909515,535.702609,536.845984875,1,0.887080874999924
112,10,2,categorization,0,kitchen,SHINEd_labelme_kxvouciolcpqplr.tif,62,0.0666666666666667,0.0666666666666667,1.13333333333333,536.857379916,537.855739833,13,536.923629708,536.992281291,537.884170583,539.0108885,0,0.998359917000016
112,11,2,categorization,0,kitchen,SHINEd_sun_ahpczsiumwwocjkv.tif,92,0.0666666666666667,0.0666666666666667,1.76666666666667,539.024042625,539.822810125,9,539.093135208,539.158873,539.850539,541.610595541,1,0.798767500000054
112,12,2,categorization,0,bathroom,SHINEd_sun_apkxzenqapsujocq.tif,45,0.0666666666666667,0.0666666666666667,1.8,541.62954375,542.630125666,13,541.697276541,541.763390125,542.654218125,544.44759125,1,1.00058191599999
112,13,2,categorization,0,bathroom,SHINEd_sun_alkosphxlxwjwgjd.tif,34,0.0666666666666667,0.0666666666666667,0.9,544.468092083,545.422844875,13,544.535436666,544.600975791,545.442071583,546.335409666,1,0.954752792000022
112,14,2,categorization,0,bathroom,SHINEd_sun_axldvoqbuvuggfmq.tif,57,0.0666666666666667,0.0666666666666667,0.716666666666667,546.340680333,547.424232291,13,546.402368208,546.463739083,547.432154083,548.142159291,1,1.08355195799993
112,15,2,categorization,0,bathroom,SHINEd_sun_avhrdrntsqrjzccq.tif,55,0.0666666666666667,0.0666666666666667,1.36666666666667,548.147845083,549.521273125,13,548.209583666,548.270854,549.539534958,550.899562625,1,1.373428042
112,16,2,categorization,0,bathroom,SHINEd_sun_awnqiikzaispgmwo.tif,56,0.0666666666666667,0.0666666666666667,0.916666666666667,550.920331833,551.689456916,13,550.988861083,551.054886916,551.714130166,552.624146875,1,0.769125083000063
112,17,2,categorization,0,kitchen,SHINEd_sun_ajcbwwvdlsvjyzje.tif,96,0.0666666666666667,0.0666666666666667,0.716666666666667,552.631558833,553.617100125,9,552.693392125,552.754507666,553.623221,554.333225666,1,0.985541291999994
112,18,2,categorization,0,bathroom,SHINEd_sun_aunuadmjocsddsrl.tif,52,0.0666666666666667,0.0666666666666667,0.766666666666667,554.338285458,555.225178083,13,554.400019666,554.461225,555.229766,555.989772791,1,0.886892624999973
112,19,2,categorization,0,bathroom,SHINEd_sun_axyrejkiiaqiurjk.tif,59,0.0666666666666667,0.0666666666666667,1.06666666666667,555.994560958,556.784489166,9,556.05632225,556.117519791,556.802684041,557.862715958,0,0.789928207999992
112,20,2,categorization,0,bathroom,SHINEd_sun_aapitsgbtktqubfy.tif,12,0.0666666666666667,0.0666666666666667,0.8,557.873873875,558.723313416,13,557.940182,558.007656041,558.751420541,559.544790125,1,0.849439541000038
112,21,2,categorization,0,kitchen,SHINEd_sun_abftihopvusyfakt.tif,71,0.0666666666666667,0.0666666666666667,0.866666666666667,559.570760541,560.472846583,9,559.638140625,559.708829583,560.477442041,561.337446666,1,0.902086041999951
112,22,2,categorization,0,bathroom,SHINEd_sun_apynckhmoftszqoq.tif,47,0.0666666666666667,0.0666666666666667,1.48333333333333,561.342284166,562.568638,13,561.404005125,561.465172416,562.583787833,564.060482541,1,1.22635383399995
112,23,2,categorization,0,bathroom,SHINEd_sun_aoybiabnpadelefl.tif,41,0.0666666666666667,0.0666666666666667,1.1,564.081150125,564.954060041,9,564.147660291,564.212073708,564.986235125,566.079606541,0,0.872909916000026
112,24,2,categorization,0,kitchen,SHINEd_sun_aamedkxepzlwuxes.tif,65,0.0666666666666667,0.0666666666666667,0.783333333333333,566.091341875,566.998297958,13,566.156985375,566.222324208,567.036074208,567.812773583,0,0.906956082999955
112,25,2,categorization,0,bathroom,SHINEd_sun_aqrpegblszgcoujh.tif,48,0.0666666666666667,0.0666666666666667,0.866666666666667,567.834213083,568.960408041,9,567.905481583,567.972155916,568.974547458,569.834555416,0,1.12619495800004
112,26,2,categorization,0,bathroom,SHINEd_sun_afcoljnjfoxjtgja.tif,20,0.0666666666666667,0.0666666666666667,1.83333333333333,569.839349958,571.727869833,13,569.90120475,569.962428416,571.748022291,573.574724333,1,1.88851987500004
112,27,2,categorization,0,kitchen,SHINEd_sun_ajkqhtgcbgpcwrwn.tif,97,0.0666666666666667,0.0666666666666667,0.7,573.605917833,574.433416875,9,573.677291875,573.744214416,574.453374625,575.146714041,1,0.827499041999999
112,28,2,categorization,0,bathroom,SHINEd_sun_anryaplzeujmzfkd.tif,39,0.0666666666666667,0.0666666666666667,1.33333333333333,575.152239583,576.360818916,9,575.213911916,575.275175958,576.377213041,577.703910833,0,1.20857933299999
112,29,2,categorization,0,bathroom,SHINEd_sun_ahcvzmoyaycdoftf.tif,27,0.0666666666666667,0.0666666666666667,1.33333333333333,577.725026708,578.447682875,13,577.793979791,577.860094666,578.467786375,579.794491458,1,0.722656167000082
112,30,2,categorization,0,bathroom,SHINEd_sun_aspsyogrekjtfozg.tif,50,0.0666666666666667,0.0666666666666667,1.38333333333333,579.817007583,580.78873575,13,579.885669291,579.95273075,580.811480833,582.188183666,1,0.971728167000038
112,31,2,categorization,0,bathroom,SHINEd_sun_apmqjbnwghzuhhzh.tif,46,0.0666666666666667,0.0666666666666667,1.25,582.202277208,583.126040708,13,582.268266333,582.337557166,583.14630975,584.422929083,1,0.92376349999995
112,32,2,categorization,0,bathroom,SHINEd_sun_abjtwfukuwddzted.tif,15,0.0666666666666667,0.0666666666666667,1.55,584.472891791,586.109555375,13,584.543218208,584.602552583,586.129849416,587.67329275,1,1.63666358399996
112,33,2,categorization,0,bathroom,SHINEd_sun_aleqenyvunhactkl.tif,32,0.0666666666666667,0.0666666666666667,1.61666666666667,587.695511541,588.523364375,13,587.7631735,587.827917708,588.553670291,590.163685916,1,0.827852834000055
112,34,2,categorization,0,kitchen,SHINEd_sun_abpwyqmlzafvklqo.tif,72,0.0666666666666667,0.0666666666666667,1.33333333333333,590.181348208,591.228802416,9,590.247820708,590.310804083,591.253019625,592.579727166,1,1.04745420799998
112,35,2,categorization,0,kitchen,SHINEd_sun_auaiucuqpdausiva.tif,102,0.0666666666666667,0.0666666666666667,0.833333333333333,592.601351875,593.391786541,13,592.670466333,592.734387041,593.42643425,594.253124458,0,0.79043466600001
112,36,2,categorization,0,bathroom,SHINEd_sun_acgyywnybuveqsro.tif,18,0.0666666666666667,0.0666666666666667,1.45,594.2676715,595.072303291,13,594.335355583,594.396410375,595.081642791,596.525026791,1,0.80463179100002
112,37,2,categorization,0,bathroom,SHINEd_sun_ahqjwnzgolcaoidx.tif,29,0.0666666666666667,0.0666666666666667,0.933333333333333,596.544755041,597.366803,13,596.612098875,596.677890708,597.384940583,598.31161175,1,0.822047958999974
112,38,2,categorization,0,kitchen,SHINEd_sun_abdenxonkemggwsq.tif,69,0.0666666666666667,0.0666666666666667,1.65,598.316733833,599.056835708,9,598.378442916,598.439478,599.074639541,600.718012833,1,0.74010187500005
112,39,2,categorization,0,bathroom,SHINEd_sun_acduarbnmmoglmiv.tif,16,0.0666666666666667,0.0666666666666667,1.23333333333333,600.739661,601.541668208,13,600.808271333,600.87399625,601.565343666,602.792040958,1,0.802007208000077
112,40,2,categorization,0,bathroom,SHINEd_sun_aofnryafpsjimzsb.tif,40,0.0666666666666667,0.0666666666666667,0.766666666666667,602.812374833,603.587189041,13,602.880760083,602.946684791,603.603537791,604.363573916,1,0.774814207999952
112,41,2,categorization,0,bathroom,SHINEd_sun_aclfzgynxzxlbepz.tif,19,0.0666666666666667,0.0666666666666667,1.78333333333333,604.383152458,605.264494916,13,604.452016083,604.516877791,605.269466,607.0461615,1,0.881342457999949
112,42,2,categorization,0,kitchen,SHINEd_sun_aarfiyshqohlwkmo.tif,67,0.0666666666666667,0.0666666666666667,1.11666666666667,607.067309458,608.317653791,13,607.134561875,607.201730125,608.340163625,609.450208083,0,1.25034433300004
112,43,2,categorization,0,kitchen,SHINEd_sun_aexklacwqwezaorf.tif,84,0.0666666666666667,0.0666666666666667,1.85,609.466873291,610.56206675,9,609.532710416,609.601080916,610.592987625,612.436360625,1,1.09519345900003
112,44,2,categorization,0,kitchen,SHINEd_sun_axyyrmzcupyhlivc.tif,107,0.0666666666666667,0.0666666666666667,0.733333333333333,612.455946125,613.333621208,9,612.524183041,612.589553833,613.363950666,614.09062325,1,0.877675082999986
112,45,2,categorization,0,kitchen,SHINEd_sun_aaxxjlsuzvqlgylf.tif,68,0.0666666666666667,0.0666666666666667,0.783333333333333,614.098266916,614.863844291,9,614.159944708,614.220942666,614.872823416,615.649495666,1,0.765577375000021
112,46,2,categorization,0,bathroom,SHINEd_sun_aavhrsfjbserjtht.tif,13,0.0666666666666667,0.0666666666666667,1.5,615.654936958,616.448616083,9,615.716547625,615.777654125,616.462805291,617.956175791,0,0.79367912500004
112,47,2,categorization,0,bathroom,SHINEd_sun_ahijqszoswveeyji.tif,28,0.0666666666666667,0.0666666666666667,0.733333333333333,617.984104666,619.491544083,9,618.051858875,618.117940583,619.505707583,620.232378208,0,1.507439417
112,48,2,categorization,0,kitchen,SHINEd_sun_aadbddgrdsjugojn.tif,64,0.0666666666666667,0.0666666666666667,1.1,620.236949208,621.208372,9,620.298791833,620.359586208,621.227997291,622.321367625,1,0.971422791999998
112,49,2,categorization,0,bathroom,SHINEd_sun_agguqiubmwhqqunb.tif,22,0.0666666666666667,0.0666666666666667,1.6,622.335135125,623.255630708,9,622.401249291,622.466403875,623.272102166,624.86549125,0,0.920495583000047
112,50,2,categorization,0,bathroom,SHINEd_sun_apjevzvycyhuqghb.tif,43,0.0666666666666667,0.0666666666666667,1.06666666666667,624.892578,626.808692125,9,624.961156083,625.025839625,626.8280595,627.888193208,0,1.91611412500004
112,1,3,categorization,0,kitchen,SHINEd_sun_azmutvzbxypaceni.tif,110,0.0666666666666667,0.0666666666666667,0.85,633.053611541,634.847811708,9,633.115442375,633.176412,634.862518625,635.705855958,1,1.79420016699999
112,2,3,categorization,0,bathroom,SHINEd_sun_agyqfjcfkdcydepw.tif,25,0.0666666666666667,0.0666666666666667,1.65,635.710755708,636.432237083,13,635.772433791,635.833531125,636.435194458,638.078578916,1,0.721481375000053
112,3,3,categorization,0,kitchen,SHINEd_sun_aypmqwcualkenuoe.tif,109,0.0666666666666667,0.0666666666666667,0.783333333333333,638.103032833,638.910335458,9,638.167663791,638.233012041,638.940135125,639.716807833,1,0.80730262499992
112,4,3,categorization,0,kitchen,SHINEd_sun_amjjdeyrggfqgmom.tif,100,0.0666666666666667,0.0666666666666667,0.933333333333333,639.721932875,640.928715458,9,639.783561291,639.844612791,640.946932041,641.873604416,1,1.20678258300006
112,5,3,categorization,0,bathroom,SHINEd_sun_apjevzvycyhuqghb.tif,43,0.0666666666666667,0.0666666666666667,0.866666666666667,641.878542916,642.928710041,9,641.940247375,642.00111925,642.936895666,643.796900083,0,1.05016712500003
112,6,3,categorization,0,kitchen,SHINEd_sun_aymvwlarqodbwuoc.tif,108,0.0666666666666667,0.0666666666666667,1.11666666666667,643.801544041,644.504234083,9,643.863290333,643.924243708,644.509281333,645.619315625,1,0.702690041999972
112,7,3,categorization,0,bathroom,SHINEd_sun_anhioqovhscjqqwb.tif,38,0.0666666666666667,0.0666666666666667,0.966666666666667,645.63222025,646.232580416,13,645.706374083,645.765646041,646.253640458,647.213689708,1,0.600360165999973
112,8,3,categorization,0,kitchen,SHINEd_sun_aamedkxepzlwuxes.tif,65,0.0666666666666667,0.0666666666666667,1.78333333333333,647.234391166,648.303805,13,647.302215583,647.376684333,648.311865416,650.088564208,0,1.06941383399999
112,9,3,categorization,0,bathroom,SHINEd_sun_acduarbnmmoglmiv.tif,16,0.0666666666666667,0.0666666666666667,1.55,650.107831541,650.96108475,13,650.183090666,650.236384333,650.975863541,652.519234666,1,0.853253209000059
112,10,3,categorization,0,kitchen,SHINEd_labelme_kxvouciolcpqplr.tif,62,0.0666666666666667,0.0666666666666667,1.41666666666667,652.541899458,653.325177791,13,652.610793416,652.677087958,653.352347166,654.762378083,0,0.783278332999998
112,11,3,categorization,0,bathroom,SHINEd_sun_ajlawzvmubibwbpy.tif,30,0.0666666666666667,0.0666666666666667,0.8,654.787567083,655.844141166,13,654.857637375,654.924229416,655.865803083,656.65914275,1,1.05657408299999
112,12,3,categorization,0,kitchen,SHINEd_sun_aunzlwrbjumxhwdj.tif,103,0.0666666666666667,0.0666666666666667,1.28333333333333,656.66482875,658.0637485,9,656.726558333,656.787646958,658.073423625,659.350141458,1,1.39891975
112,13,3,categorization,0,kitchen,SHINEd_sun_aeqdocilnnpuvuhx.tif,83,0.0666666666666667,0.0666666666666667,1.66666666666667,659.371232625,660.168898166,9,659.438770458,659.513615666,660.185832333,661.845879666,1,0.797665541000015
112,14,3,categorization,0,bathroom,SHINEd_sun_apeeialkgkuxddgh.tif,42,0.0666666666666667,0.0666666666666667,1.81666666666667,661.875396166,662.571744333,13,661.943402208,662.009901166,662.6008835,664.410929708,1,0.696348166999996
112,15,3,categorization,0,bathroom,SHINEd_sun_agrwbmhcpmfuwmsg.tif,24,0.0666666666666667,0.0666666666666667,1.35,664.430579166,665.579675541,9,664.499123833,664.5667495,665.607841083,666.951209041,0,1.149096375
112,16,3,categorization,0,bathroom,SHINEd_sun_ambriybtogmepttm.tif,36,0.0666666666666667,0.0666666666666667,0.916666666666667,666.970758,667.933297375,9,667.038704,667.105129208,667.963393125,668.8734005,0,0.962539375000006
112,17,3,categorization,0,kitchen,SHINEd_sun_agorklincwxrdtga.tif,87,0.0666666666666667,0.0666666666666667,0.916666666666667,668.881307791,669.760375125,9,668.943039458,669.004014291,669.773359458,670.683365208,1,0.879067333999956
112,18,3,categorization,0,bathroom,SHINEd_sun_ahaulkltgpkeeemi.tif,26,0.0666666666666667,0.0666666666666667,1.31666666666667,670.688222625,671.655575416,13,670.749941875,670.810913375,671.662967416,672.973004875,1,0.967352791000053
112,19,3,categorization,0,bathroom,SHINEd_sun_avhrdrntsqrjzccq.tif,55,0.0666666666666667,0.0666666666666667,1.45,672.994951125,674.524493166,13,673.064413,673.129603541,674.567048125,676.010417375,1,1.52954204100001
112,20,3,categorization,0,bathroom,SHINEd_sun_alotolagknyrgtsk.tif,35,0.0666666666666667,0.0666666666666667,0.95,676.039392125,676.965893708,13,676.108302583,676.170269791,676.995340375,677.938678583,1,0.926501583000004
112,21,3,categorization,0,kitchen,SHINEd_sun_abrcnpqqhmjwekyf.tif,73,0.0666666666666667,0.0666666666666667,1.38333333333333,677.944558,678.784100208,9,678.006266125,678.067236125,678.802288083,680.179001541,1,0.839542208000012
112,22,3,categorization,0,bathroom,SHINEd_sun_amzlamotzwfkwjco.tif,37,0.0666666666666667,0.0666666666666667,1.16666666666667,680.192310875,681.170516041,13,680.268982666,680.321668416,681.197084333,682.357133291,1,0.978205166000066
112,23,3,categorization,0,bathroom,SHINEd_sun_apmqjbnwghzuhhzh.tif,46,0.0666666666666667,0.0666666666666667,1.61666666666667,682.370765208,683.123441708,13,682.436527,682.504715666,683.145624666,684.76305125,1,0.752676500000007
112,24,3,categorization,0,kitchen,SHINEd_sun_ahywdevtimnqcsln.tif,94,0.0666666666666667,0.0666666666666667,1.38333333333333,684.77983925,685.731947333,13,684.848039541,684.923258583,685.763829333,687.140536541,0,0.952108082999985
112,25,3,categorization,0,kitchen,SHINEd_sun_agubuxuukhzyzpdp.tif,88,0.0666666666666667,0.0666666666666667,1.78333333333333,687.160603083,687.9248685,13,687.228101125,687.305871791,687.963494333,689.740196791,0,0.764265417000047
112,26,3,categorization,0,kitchen,SHINEd_sun_ahspylgoovwmwvgk.tif,93,0.0666666666666667,0.0666666666666667,0.783333333333333,689.760056916,690.841165541,9,689.828112541,689.893406458,690.86839425,691.645067125,1,1.08110862499996
112,27,3,categorization,0,kitchen,SHINEd_sun_aexklacwqwezaorf.tif,84,0.0666666666666667,0.0666666666666667,1.65,691.650658041,692.872166458,9,691.712367916,691.773475708,692.892489375,694.535854333,1,1.221508417
112,28,3,categorization,0,bathroom,SHINEd_sun_anryaplzeujmzfkd.tif,39,0.0666666666666667,0.0666666666666667,1.86666666666667,694.554852416,695.875643666,9,694.622957208,694.688403916,695.90336525,697.763407916,0,1.32079124999996
112,29,3,categorization,0,kitchen,SHINEd_sun_auticobqsbwgoppi.tif,104,0.0666666666666667,0.0666666666666667,1.23333333333333,697.783916291,698.853714458,9,697.851547083,697.917976583,698.886429833,700.113151541,1,1.06979816700004
112,30,3,categorization,0,bathroom,SHINEd_sun_azqyogdvyhahyram.tif,60,0.0666666666666667,0.0666666666666667,0.7,700.134016791,700.883689416,13,700.199416583,700.265873083,700.90699525,701.600365083,1,0.749672625000017
112,31,3,categorization,0,bathroom,SHINEd_sun_apkxzenqapsujocq.tif,45,0.0666666666666667,0.0666666666666667,0.716666666666667,701.618531541,702.328420708,13,701.686167541,701.752569875,702.337714708,703.047719416,1,0.709889166999915
112,32,3,categorization,0,bathroom,SHINEd_sun_alkosphxlxwjwgjd.tif,34,0.0666666666666667,0.0666666666666667,1.05,703.052393166,703.743771291,13,703.114100958,703.175013083,703.760670791,704.80401975,1,0.691378125000028
112,33,3,categorization,0,kitchen,SHINEd_sun_auaiucuqpdausiva.tif,102,0.0666666666666667,0.0666666666666667,1.1,704.814933875,705.640599375,13,704.879445,704.943487583,705.66766975,706.76104,0,0.825665500000014
112,34,3,categorization,0,kitchen,SHINEd_sun_agzzivivdpnawacl.tif,89,0.0666666666666667,0.0666666666666667,1.13333333333333,706.779482458,707.8637515,9,706.842001375,706.902229541,707.870757541,708.997453,1,1.08426904200007
112,35,3,categorization,0,kitchen,SHINEd_sun_aixorpehvfykdynp.tif,95,0.0666666666666667,0.0666666666666667,1.38333333333333,709.014526166,709.917261208,9,709.081162125,709.1514445,709.942280875,711.318987916,1,0.902735042000018
112,36,3,categorization,0,kitchen,SHINEd_sun_aenotlpyftoioydp.tif,82,0.0666666666666667,0.0666666666666667,1.5,711.34462225,712.110533083,9,711.413027208,711.479972541,712.137724041,713.631102125,1,0.765910832999907
112,37,3,categorization,0,kitchen,SHINEd_sun_adgqasybjyktddhj.tif,78,0.0666666666666667,0.0666666666666667,1.61666666666667,713.657950083,714.806292791,9,713.726412791,713.79296175,714.834535916,716.444571291,1,1.14834270800009
112,38,3,categorization,0,bathroom,SHINEd_sun_aunuadmjocsddsrl.tif,52,0.0666666666666667,0.0666666666666667,0.983333333333333,716.469354875,717.52649575,9,716.535962291,716.599129791,717.537846125,718.514517291,0,1.05714087499996
112,39,3,categorization,0,bathroom,SHINEd_sun_ahcvzmoyaycdoftf.tif,27,0.0666666666666667,0.0666666666666667,1.3,718.519482875,719.216261,13,718.581081125,718.64224625,719.228235875,720.521612041,1,0.696778125000037
112,40,3,categorization,0,kitchen,SHINEd_sun_axyyrmzcupyhlivc.tif,107,0.0666666666666667,0.0666666666666667,1.03333333333333,720.542270875,722.046927625,9,720.61050375,720.675994291,722.06800075,723.094701541,1,1.50465674999998
112,41,3,categorization,0,kitchen,SHINEd_sun_awcpdzzznmweyyhv.tif,106,0.0666666666666667,0.0666666666666667,1.45,723.104020958,724.005683041,9,723.169261666,723.236458625,724.025487875,725.468856291,1,0.901662083000019
112,42,3,categorization,0,bathroom,SHINEd_sun_axxbkopsgyouuebh.tif,58,0.0666666666666667,0.0666666666666667,1.23333333333333,725.489120458,726.22806275,13,725.557094041,725.622942875,726.244446791,727.471145916,1,0.738942292000047
112,43,3,categorization,0,bathroom,SHINEd_sun_aoybiabnpadelefl.tif,41,0.0666666666666667,0.0666666666666667,1.26666666666667,727.487855625,728.326945208,9,727.555976625,727.622726333,728.346986333,729.607021333,0,0.839089583000032
112,44,3,categorization,0,kitchen,SHINEd_labelme_rykdqxenmhulbdn.tif,63,0.0666666666666667,0.0666666666666667,1.03333333333333,729.624499208,730.403263833,9,729.692272041,729.758260125,730.432400208,731.459109916,1,0.778764625000008
112,45,3,categorization,0,kitchen,SHINEd_sun_afuyedyxivkhecmu.tif,85,0.0666666666666667,0.0666666666666667,1.31666666666667,731.469878666,732.19982575,9,731.532451375,731.592789833,732.211168541,733.521207375,1,0.729947083999946
112,46,3,categorization,0,bathroom,SHINEd_sun_axldvoqbuvuggfmq.tif,57,0.0666666666666667,0.0666666666666667,1.7,733.541662375,734.421115666,13,733.609460708,733.675501416,734.450049708,736.143425666,1,0.879453291000004
112,47,3,categorization,0,kitchen,SHINEd_sun_aapllqyqlykszopd.tif,66,0.0666666666666667,0.0666666666666667,1.35,736.163229125,736.937981458,9,736.232270375,736.296847333,736.953917333,738.297299458,1,0.774752332999924
112,48,3,categorization,0,kitchen,SHINEd_sun_ajcbwwvdlsvjyzje.tif,96,0.0666666666666667,0.0666666666666667,0.8,738.317281875,739.123470083,9,738.385445833,738.451407541,739.142851958,739.93621525,1,0.80618820799998
112,49,3,categorization,0,kitchen,SHINEd_sun_aqeaevwwwjoqhzvl.tif,101,0.0666666666666667,0.0666666666666667,0.766666666666667,739.956204416,740.535327416,9,740.019028041,740.079179291,740.547623708,741.307628958,1,0.579122999999981
112,50,3,categorization,0,kitchen,SHINEd_sun_ahpczsiumwwocjkv.tif,92,0.0666666666666667,0.0666666666666667,1.38333333333333,741.313867416,742.360204416,9,741.375758458,741.4367905,742.371940583,743.748644541,1,1.04633699999999
112,1,4,categorization,0,bathroom,SHINEd_sun_aghyqhbptboemmoq.tif,23,0.0666666666666667,0.0666666666666667,1,754.781569583,755.615064166,13,754.844156833,754.90435025,755.623069333,756.616406791,1,0.833494583000061
112,2,4,categorization,0,kitchen,SHINEd_sun_aegoxogugdkwpmpj.tif,80,0.0666666666666667,0.0666666666666667,0.966666666666667,756.621350416,757.335177,9,756.683094083,756.744483625,757.3461495,758.306153458,1,0.713826584000003
112,3,4,categorization,0,bathroom,SHINEd_sun_aspsyogrekjtfozg.tif,50,0.0666666666666667,0.0666666666666667,1.75,758.311000791,759.200048333,9,758.372758,758.433767541,759.218876625,760.962245333,0,0.889047542000071
112,4,4,categorization,0,bathroom,SHINEd_sun_aljolscmmzydegqp.tif,33,0.0666666666666667,0.0666666666666667,1.68333333333333,760.982800291,762.165010291,9,761.050491291,761.11666825,762.189075125,763.865778708,0,1.18221000000005
112,5,4,categorization,0,bathroom,SHINEd_sun_aapitsgbtktqubfy.tif,12,0.0666666666666667,0.0666666666666667,1.58333333333333,763.882126041,764.735392541,13,763.95003775,764.015993333,764.756383708,766.333099041,1,0.853266500000018
112,6,4,categorization,0,kitchen,SHINEd_sun_ajkqhtgcbgpcwrwn.tif,97,0.0666666666666667,0.0666666666666667,1,766.345940708,768.151599166,9,766.414166458,766.480287666,768.165825041,769.159165208,1,1.80565845800004
112,7,4,categorization,0,kitchen,SHINEd_sun_abftihopvusyfakt.tif,71,0.0666666666666667,0.0666666666666667,1.33333333333333,769.164915791,769.912077625,9,769.226572333,769.287694791,769.922889,771.249603333,1,0.747161834000053
112,8,4,categorization,0,bathroom,SHINEd_sun_awnqiikzaispgmwo.tif,56,0.0666666666666667,0.0666666666666667,1.26666666666667,771.268040416,771.946472791,13,771.335416083,771.401959,771.975772458,773.235806291,1,0.678432375000057
112,9,4,categorization,0,kitchen,SHINEd_sun_acgtpgfybqjmzeyw.tif,75,0.0666666666666667,0.0666666666666667,0.883333333333333,773.248943458,773.937621708,9,773.316292166,773.382103041,773.953364583,774.830065916,1,0.688678250000066
112,10,4,categorization,0,bathroom,SHINEd_sun_aleqenyvunhactkl.tif,32,0.0666666666666667,0.0666666666666667,1.26666666666667,774.849694583,775.5517965,13,774.917040666,774.98295225,775.56807575,776.828119041,1,0.70210191700005
112,11,4,categorization,0,bathroom,SHINEd_sun_ausgutylgojavyoq.tif,53,0.0666666666666667,0.0666666666666667,2,776.846557791,777.834265375,13,776.914096375,776.980162125,777.853492958,779.846885666,1,0.987707583999963
112,12,4,categorization,0,kitchen,SHINEd_sun_aggjlwcdjsjcaemh.tif,86,0.0666666666666667,0.0666666666666667,0.733333333333333,779.865752791,780.845306958,9,779.932871916,779.999386,780.873553875,781.600228041,1,0.97955416700006
112,13,4,categorization,0,bathroom,SHINEd_sun_ahqjwnzgolcaoidx.tif,29,0.0666666666666667,0.0666666666666667,0.883333333333333,781.605735041,782.799640041,13,781.667409875,781.728481666,782.81358275,783.690255708,1,1.19390499999997
112,14,4,categorization,0,bathroom,SHINEd_sun_apynckhmoftszqoq.tif,47,0.0666666666666667,0.0666666666666667,0.983333333333333,783.694833625,784.503880416,13,783.756520375,783.81758025,784.519359083,785.496031125,1,0.809046791000014
112,15,4,categorization,0,kitchen,SHINEd_sun_aarfiyshqohlwkmo.tif,67,0.0666666666666667,0.0666666666666667,1.56666666666667,785.501688583,786.14338375,9,785.563243333,785.624316458,786.159368041,787.719422208,1,0.641695166999966
112,16,4,categorization,0,bathroom,SHINEd_sun_aggnnqpdorgxpvce.tif,21,0.0666666666666667,0.0666666666666667,1.08333333333333,787.738416,788.787936125,9,787.805598208,787.871937583,788.812366958,789.889064708,0,1.04952012499996
112,17,4,categorization,0,kitchen,SHINEd_sun_ahdycvpopffkzzsu.tif,90,0.0666666666666667,0.0666666666666667,0.75,789.900289166,790.65980425,9,789.965200666,790.032275833,790.688832875,791.432206375,1,0.759515083999986
112,18,4,categorization,0,bathroom,SHINEd_sun_acegryoqftbzowsg.tif,17,0.0666666666666667,0.0666666666666667,0.966666666666667,791.448819666,792.335372166,13,791.515917333,791.581945958,792.350360625,793.310366791,1,0.886552499999993
112,19,4,categorization,0,bathroom,SHINEd_sun_atstyziqcmkahyxk.tif,51,0.0666666666666667,0.0666666666666667,1.63333333333333,793.315936083,794.207273291,13,793.377621666,793.438496875,794.223533375,795.850232416,1,0.891337207999982
112,20,4,categorization,0,bathroom,SHINEd_sun_abjtwfukuwddzted.tif,15,0.0666666666666667,0.0666666666666667,1.46666666666667,795.868090958,797.136235375,9,795.935143416,796.001200666,797.158556583,798.618591666,0,1.26814441699992
112,21,4,categorization,0,kitchen,SHINEd_sun_acwjdupvyjsugpay.tif,76,0.0666666666666667,0.0666666666666667,0.933333333333333,798.6375105,799.738246208,9,798.704992375,798.770861708,799.761728041,800.688399916,1,1.100735708
112,22,4,categorization,0,kitchen,SHINEd_sun_abdxkyyxwfskuaqb.tif,70,0.0666666666666667,0.0666666666666667,1.45,800.693208125,801.415624166,9,800.754794875,800.815856875,801.43488025,802.878242125,1,0.722416041000088
112,23,4,categorization,0,kitchen,SHINEd_sun_abpwyqmlzafvklqo.tif,72,0.0666666666666667,0.0666666666666667,0.966666666666667,802.899877583,804.178333291,9,802.967020166,803.033619416,804.206631875,805.166638125,1,1.27845570799991
112,24,4,categorization,0,bathroom,SHINEd_sun_aqrpegblszgcoujh.tif,48,0.0666666666666667,0.0666666666666667,0.816666666666667,805.172450416,806.135141916,9,805.234094666,805.295144041,806.147619416,806.957623875,0,0.962691500000005
112,25,4,categorization,0,bathroom,SHINEd_sun_axyrejkiiaqiurjk.tif,59,0.0666666666666667,0.0666666666666667,1.96666666666667,806.963993625,807.823152875,9,807.025631458,807.086699166,807.838742208,809.798781291,0,0.859159250000062
112,26,4,categorization,0,kitchen,SHINEd_sun_akchetnepxlcxhsu.tif,98,0.0666666666666667,0.0666666666666667,0.916666666666667,809.818497041,811.103267125,9,809.886394666,809.952160541,811.121212,812.031218875,1,1.284770084
112,27,4,categorization,0,bathroom,SHINEd_sun_ahijqszoswveeyji.tif,28,0.0666666666666667,0.0666666666666667,1.28333333333333,812.036735708,813.487704833,13,812.098496625,812.159437458,813.495519416,814.772226791,1,1.45096912499992
112,28,4,categorization,0,bathroom,SHINEd_sun_abapwbhyhkfixyex.tif,14,0.0666666666666667,0.0666666666666667,1.8,814.783667166,815.479760208,9,814.851341625,814.917275458,815.508113291,817.301486125,0,0.69609304200003
112,29,4,categorization,0,kitchen,SHINEd_labelme_brsyyvweiuaazfr.tif,61,0.0666666666666667,0.0666666666666667,1.33333333333333,817.32218425,819.383268875,9,817.390587125,817.455614625,819.391322666,820.718037666,1,2.06108462500003
112,30,4,categorization,0,kitchen,SHINEd_sun_ahljzhgcdpomplvg.tif,91,0.0666666666666667,0.0666666666666667,1.06666666666667,820.738270166,822.291441416,9,820.8059725,820.872022291,822.315866791,823.375901166,1,1.55317124999999
112,31,4,categorization,0,kitchen,SHINEd_sun_aehawpgmrlhlvcow.tif,81,0.0666666666666667,0.0666666666666667,1.03333333333333,823.388191375,824.138081166,9,823.453582458,823.520621875,824.160555958,825.187256875,1,0.749889790999987
112,32,4,categorization,0,kitchen,SHINEd_sun_aaxxjlsuzvqlgylf.tif,68,0.0666666666666667,0.0666666666666667,0.733333333333333,825.204336666,826.15136975,9,825.271860541,825.337730875,826.156589833,826.88326075,1,0.947033083999941
112,33,4,categorization,0,bathroom,SHINEd_labelme_sfxiulhjbhlyiyt.tif,11,0.0666666666666667,0.0666666666666667,0.766666666666667,826.888364833,827.631301375,13,826.950003083,827.011110041,827.646259916,828.406265541,1,0.742936542000052
112,34,4,categorization,0,kitchen,SHINEd_sun_acxkpeoqbwcxfvip.tif,77,0.0666666666666667,0.0666666666666667,1.1,828.411190541,829.11180675,9,828.472937208,828.533905583,829.119653875,830.213038916,1,0.700616209000032
112,35,4,categorization,0,kitchen,SHINEd_sun_akcjzhbbjlbogpdi.tif,99,0.0666666666666667,0.0666666666666667,1.81666666666667,830.223984833,830.97979925,9,830.288966,830.353551583,831.010700833,832.820755958,1,0.755814417000011
112,36,4,categorization,0,bathroom,SHINEd_sun_aclfzgynxzxlbepz.tif,19,0.0666666666666667,0.0666666666666667,0.883333333333333,832.840532916,833.56168775,13,832.907905125,832.973498375,833.580037083,834.456709666,1,0.721154834000004
112,37,4,categorization,0,bathroom,SHINEd_sun_afcoljnjfoxjtgja.tif,20,0.0666666666666667,0.0666666666666667,1.7,834.463872666,835.303400291,9,834.525569458,834.586577916,835.321978,837.015347041,0,0.83952762499996
112,38,4,categorization,0,bathroom,SHINEd_sun_acgyywnybuveqsro.tif,18,0.0666666666666667,0.0666666666666667,1.58333333333333,837.035176416,838.050818625,13,837.102588458,837.168865208,838.076208333,839.652929,1,1.01564220900002
112,39,4,categorization,0,bathroom,SHINEd_sun_aavhrsfjbserjtht.tif,13,0.0666666666666667,0.0666666666666667,0.833333333333333,839.672424208,840.460479375,9,839.7400325,839.805974333,840.480075666,841.30674875,0,0.788055166999925
112,40,4,categorization,0,kitchen,SHINEd_sun_admlmbcdswaszruo.tif,79,0.0666666666666667,0.0666666666666667,0.95,841.313874958,842.223527416,9,841.375617,841.43690475,842.238634125,843.181973416,1,0.909652457999982
112,41,4,categorization,0,bathroom,SHINEd_sun_agguqiubmwhqqunb.tif,22,0.0666666666666667,0.0666666666666667,1.06666666666667,843.186955541,844.167882875,9,843.248585083,843.30965175,844.1779995,845.238036208,0,0.980927334000057
112,42,4,categorization,0,bathroom,SHINEd_sun_apkruvsevgegsdwp.tif,44,0.0666666666666667,0.0666666666666667,1.68333333333333,845.250199083,845.979479833,13,845.3150345,845.379262666,846.002969333,847.679686958,1,0.729280750000044
112,43,4,categorization,0,kitchen,SHINEd_sun_acfmftudsenhrfhy.tif,74,0.0666666666666667,0.0666666666666667,1.31666666666667,847.697983958,848.623050333,13,847.765363291,847.830965291,848.655457666,849.965507833,0,0.925066375000029
112,44,4,categorization,0,kitchen,SHINEd_sun_avszsnwsbuqfgzbn.tif,105,0.0666666666666667,0.0666666666666667,1.61666666666667,849.980492708,850.863137833,9,850.045947458,850.113519333,850.887919958,852.497973791,1,0.882645124999954
112,45,4,categorization,0,bathroom,SHINEd_sun_aofnryafpsjimzsb.tif,40,0.0666666666666667,0.0666666666666667,1.15,852.514564083,853.370237833,13,852.582365625,852.648539333,853.388967333,854.532342166,1,0.855673750000051
112,46,4,categorization,0,bathroom,SHINEd_sun_asfwthctfqerjvxr.tif,49,0.0666666666666667,0.0666666666666667,1.25,854.544083958,855.410322375,9,854.609071458,854.675491666,855.431910041,856.675295875,0,0.866238416999977
112,47,4,categorization,0,kitchen,SHINEd_sun_abdenxonkemggwsq.tif,69,0.0666666666666667,0.0666666666666667,1.1,856.689998041,857.76311975,9,856.754908,856.821529625,857.776831166,858.870205041,1,1.07312170900002
112,48,4,categorization,0,bathroom,SHINEd_sun_akiytfaagpdsphgz.tif,31,0.0666666666666667,0.0666666666666667,0.9,858.88161275,861.071237083,9,858.94724125,859.014693291,861.084141875,861.977480666,0,2.18962433299998
112,49,4,categorization,0,kitchen,SHINEd_sun_aadbddgrdsjugojn.tif,64,0.0666666666666667,0.0666666666666667,1.3,861.982804833,863.071197708,9,862.04460875,862.10553125,863.090881,864.384257083,1,1.08839287499995
112,50,4,categorization,0,bathroom,SHINEd_sun_auzqhkafidnkrwmo.tif,54,0.0666666666666667,0.0666666666666667,1.25,864.402544875,865.204072958,13,864.468399625,864.534358208,865.223714875,866.467097791,1,0.801528082999994
112,1,5,categorization,0,bathroom,SHINEd_sun_aapitsgbtktqubfy.tif,12,0.0666666666666667,0.0666666666666667,1.7,884.330444166,885.559493833,13,884.392479666,884.453645125,885.572281291,887.265651083,1,1.22904966700003
112,2,5,categorization,0,kitchen,SHINEd_sun_abrcnpqqhmjwekyf.tif,73,0.0666666666666667,0.0666666666666667,1.81666666666667,887.275431208,888.002649625,9,887.341586833,887.407392291,888.030630208,889.840680625,1,0.727218417000017
112,3,5,categorization,0,kitchen,SHINEd_sun_adgqasybjyktddhj.tif,78,0.0666666666666667,0.0666666666666667,1.23333333333333,889.850682583,891.143377625,9,889.9141395,889.976303041,891.162219416,892.388905541,1,1.29269504199999
112,4,5,categorization,0,kitchen,SHINEd_sun_aixorpehvfykdynp.tif,95,0.0666666666666667,0.0666666666666667,1.4,892.397529833,893.290618125,9,892.462602916,892.526835583,893.315125666,894.7085125,1,0.893088292000016
112,5,5,categorization,0,kitchen,SHINEd_sun_abpwyqmlzafvklqo.tif,72,0.0666666666666667,0.0666666666666667,1.03333333333333,894.721461041,895.494225375,9,894.787401208,894.852711041,895.509296416,896.536023041,1,0.772764334000044
112,6,5,categorization,0,bathroom,SHINEd_sun_apkxzenqapsujocq.tif,45,0.0666666666666667,0.0666666666666667,1.38333333333333,896.546599041,897.31826725,13,896.612107958,896.67971675,897.335970083,898.712679708,1,0.771668208999927
112,7,5,categorization,0,kitchen,SHINEd_sun_akcjzhbbjlbogpdi.tif,99,0.0666666666666667,0.0666666666666667,2,898.722671125,899.967360708,9,898.786319666,898.849244916,899.987889041,901.981243916,1,1.24468958299997
112,8,5,categorization,0,kitchen,SHINEd_labelme_brsyyvweiuaazfr.tif,61,0.0666666666666667,0.0666666666666667,1.85,901.990822208,902.904698541,9,902.054795583,902.117348875,902.923075083,904.76645675,1,0.913876332999962
112,9,5,categorization,0,bathroom,SHINEd_sun_apjevzvycyhuqghb.tif,43,0.0666666666666667,0.0666666666666667,0.816666666666667,904.781687208,906.038720208,9,904.847359833,904.913613583,906.049211208,906.859215083,0,1.25703299999998
112,10,5,categorization,0,kitchen,SHINEd_sun_abdenxonkemggwsq.tif,69,0.0666666666666667,0.0666666666666667,1.85,906.864160416,907.678353666,9,906.926151041,906.987132041,907.688902791,909.5322655,1,0.814193250000017
112,11,5,categorization,0,bathroom,SHINEd_sun_aclfzgynxzxlbepz.tif,19,0.0666666666666667,0.0666666666666667,0.733333333333333,909.547792166,910.26539925,13,909.613682833,909.679867791,910.285088666,911.011763083,1,0.717607083999951
112,12,5,categorization,0,kitchen,SHINEd_sun_aapllqyqlykszopd.tif,66,0.0666666666666667,0.0666666666666667,0.716666666666667,911.017019666,911.846514,9,911.078848708,911.140112291,911.85862075,912.568626458,1,0.829494333999946
112,13,5,categorization,0,kitchen,SHINEd_sun_agzzivivdpnawacl.tif,89,0.0666666666666667,0.0666666666666667,0.833333333333333,912.573674,913.382587791,9,912.635439458,912.696696583,913.398594458,914.225265875,1,0.808913791000009
112,14,5,categorization,0,bathroom,SHINEd_sun_amzlamotzwfkwjco.tif,37,0.0666666666666667,0.0666666666666667,0.95,914.230449875,915.319371416,9,914.292322458,914.353450166,915.339015125,916.282353458,0,1.08892154099999
112,15,5,categorization,0,kitchen,SHINEd_sun_ahpczsiumwwocjkv.tif,92,0.0666666666666667,0.0666666666666667,1.96666666666667,916.287357625,917.574701458,9,916.349345875,916.410414208,917.579273583,919.539318833,1,1.28734383300002
112,16,5,categorization,0,bathroom,SHINEd_sun_aqrpegblszgcoujh.tif,48,0.0666666666666667,0.0666666666666667,1.86666666666667,919.553153083,920.313155416,9,919.619908666,919.684811666,920.340949041,922.200996666,0,0.760002332999989
112,17,5,categorization,0,kitchen,SHINEd_sun_ahywdevtimnqcsln.tif,94,0.0666666666666667,0.0666666666666667,1.51666666666667,922.213704875,923.0201445,9,922.277966583,922.345752125,923.034596208,924.544626041,1,0.806439625000053
112,18,5,categorization,0,bathroom,SHINEd_sun_aggnnqpdorgxpvce.tif,21,0.0666666666666667,0.0666666666666667,1.3,924.559042708,925.408781375,9,924.624947,924.690530541,925.430033583,926.723414833,0,0.849738666999997
112,19,5,categorization,0,bathroom,SHINEd_sun_ambriybtogmepttm.tif,36,0.0666666666666667,0.0666666666666667,1.91666666666667,926.738806,927.625272333,13,926.804655958,926.870590291,927.643024166,929.553076208,1,0.886466333000044
112,20,5,categorization,0,bathroom,SHINEd_sun_aofnryafpsjimzsb.tif,40,0.0666666666666667,0.0666666666666667,1.23333333333333,929.566356416,931.038359458,13,929.631900458,929.698291541,931.050669791,932.277375875,1,1.47200304199998
112,21,5,categorization,0,kitchen,SHINEd_sun_agorklincwxrdtga.tif,87,0.0666666666666667,0.0666666666666667,0.866666666666667,932.287422583,932.937518166,9,932.353446125,932.418733708,932.9567475,933.81678275,1,0.650095583000052
112,22,5,categorization,0,kitchen,SHINEd_sun_ahljzhgcdpomplvg.tif,91,0.0666666666666667,0.0666666666666667,0.8,933.829922625,934.511310333,9,933.895589833,933.956651833,934.525261583,935.318599958,1,0.681387707999988
112,23,5,categorization,0,bathroom,SHINEd_sun_aljolscmmzydegqp.tif,33,0.0666666666666667,0.0666666666666667,1.51666666666667,935.323735666,936.054665541,9,935.385658375,935.446761458,936.065320958,937.575360125,0,0.730929875000015
112,24,5,categorization,0,bathroom,SHINEd_sun_asfwthctfqerjvxr.tif,49,0.0666666666666667,0.0666666666666667,1.18333333333333,937.587739875,938.783037291,13,937.654136833,937.719646833,938.809507583,939.986196666,1,1.19529741600002
112,25,5,categorization,0,kitchen,SHINEd_sun_ahdycvpopffkzzsu.tif,90,0.0666666666666667,0.0666666666666667,1.6,939.994084791,940.736545708,9,940.060000625,940.125586291,940.7650965,942.358472,1,0.742460917000017
112,26,5,categorization,0,bathroom,SHINEd_sun_axxbkopsgyouuebh.tif,58,0.0666666666666667,0.0666666666666667,1.56666666666667,942.373839416,943.136122708,13,942.439613208,942.505291208,943.161341833,944.721387833,1,0.762283292000006
112,27,5,categorization,0,bathroom,SHINEd_sun_aunuadmjocsddsrl.tif,52,0.0666666666666667,0.0666666666666667,1.36666666666667,944.736377791,946.303374041,9,944.80233075,944.867679125,946.320204666,947.6802565,0,1.56699624999999
112,28,5,categorization,0,bathroom,SHINEd_sun_apkruvsevgegsdwp.tif,44,0.0666666666666667,0.0666666666666667,1.53333333333333,947.6957995,948.407740833,13,947.762436666,947.827154875,948.433264291,949.959963625,1,0.711941333000027
112,29,5,categorization,0,kitchen,SHINEd_sun_abdxkyyxwfskuaqb.tif,70,0.0666666666666667,0.0666666666666667,1.4,949.975671041,950.839926291,9,950.041425541,950.106911083,950.863013083,952.256394958,1,0.864255249999928
112,30,5,categorization,0,kitchen,SHINEd_sun_aaxxjlsuzvqlgylf.tif,68,0.0666666666666667,0.0666666666666667,1.06666666666667,952.266704166,953.116134666,9,952.332566916,952.398253916,953.137809666,954.197840791,1,0.84943050000004
112,31,5,categorization,0,kitchen,SHINEd_sun_amjjdeyrggfqgmom.tif,100,0.0666666666666667,0.0666666666666667,1.63333333333333,954.206848791,954.927980458,9,954.27060675,954.336948666,954.942583416,956.569290416,1,0.721131667000009
112,32,5,categorization,0,bathroom,SHINEd_sun_ahijqszoswveeyji.tif,28,0.0666666666666667,0.0666666666666667,1.8,956.584100791,957.563405333,9,956.649545458,956.71515625,957.587962625,959.381330833,0,0.979304542000023
112,33,5,categorization,0,bathroom,SHINEd_sun_acduarbnmmoglmiv.tif,16,0.0666666666666667,0.0666666666666667,1.53333333333333,959.398657041,960.387287125,9,959.464621333,959.530243833,960.402649458,961.929359458,0,0.988630083999965
112,34,5,categorization,0,bathroom,SHINEd_sun_aoybiabnpadelefl.tif,41,0.0666666666666667,0.0666666666666667,0.766666666666667,961.948033125,962.772606291,9,962.014970166,962.080020708,962.785169416,963.545177291,0,0.824573165999936
112,35,5,categorization,0,bathroom,SHINEd_sun_aavhrsfjbserjtht.tif,13,0.0666666666666667,0.0666666666666667,1.86666666666667,963.550649041,964.782887166,13,963.612569083,963.6737395,964.792576625,966.652622333,1,1.23223812499998
112,36,5,categorization,0,bathroom,SHINEd_sun_agrwbmhcpmfuwmsg.tif,24,0.0666666666666667,0.0666666666666667,1.13333333333333,966.668340541,967.451937833,9,966.734075166,966.800610625,967.473409916,968.600133291,0,0.783597291999968
112,37,5,categorization,0,kitchen,SHINEd_sun_acxkpeoqbwcxfvip.tif,77,0.0666666666666667,0.0666666666666667,1.73333333333333,968.60837175,969.401041291,9,968.672590291,968.739924541,969.429457541,971.156166166,1,0.792669541000009
112,38,5,categorization,0,bathroom,SHINEd_sun_ahaulkltgpkeeemi.tif,26,0.0666666666666667,0.0666666666666667,0.766666666666667,971.171463958,972.263783458,13,971.237185291,971.303081291,972.273694708,973.033703208,1,1.09231950000003
112,39,5,categorization,0,bathroom,SHINEd_sun_agguqiubmwhqqunb.tif,22,0.0666666666666667,0.0666666666666667,1.85,973.039003166,974.11021375,13,973.101013666,973.162085208,974.113879166,975.957242375,1,1.07121058399991
112,40,5,categorization,0,kitchen,SHINEd_sun_ahspylgoovwmwvgk.tif,93,0.0666666666666667,0.0666666666666667,0.966666666666667,975.970810541,976.649905625,9,976.036493,976.102877041,976.675259625,977.635266291,1,0.679095083999982
112,41,5,categorization,0,kitchen,SHINEd_sun_auticobqsbwgoppi.tif,104,0.0666666666666667,0.0666666666666667,1.06666666666667,977.640549625,978.511162375,9,977.702485583,977.763479791,978.515367,979.575404041,1,0.870612750000078
112,42,5,categorization,0,bathroom,SHINEd_sun_acegryoqftbzowsg.tif,17,0.0666666666666667,0.0666666666666667,1.38333333333333,979.583691833,980.627261916,9,979.647563875,979.713649291,980.653077041,982.02978,0,1.04357008299996
112,43,5,categorization,0,bathroom,SHINEd_sun_aspsyogrekjtfozg.tif,50,0.0666666666666667,0.0666666666666667,0.766666666666667,982.042678666,982.919381166,9,982.108277625,982.169656083,982.942306083,983.702335916,0,0.876702499999965
112,44,5,categorization,0,kitchen,SHINEd_sun_axyyrmzcupyhlivc.tif,107,0.0666666666666667,0.0666666666666667,0.866666666666667,983.714323125,984.598169958,9,983.776568416,983.83727575,984.605915791,985.465921666,1,0.883846833000007
112,45,5,categorization,0,bathroom,SHINEd_sun_ajlawzvmubibwbpy.tif,30,0.0666666666666667,0.0666666666666667,1.25,985.471032458,986.286076875,9,985.532928958,985.594054875,986.295879958,987.539241958,0,0.815044417000081
112,46,5,categorization,0,kitchen,SHINEd_sun_aegoxogugdkwpmpj.tif,80,0.0666666666666667,0.0666666666666667,1.03333333333333,987.554441333,988.374613291,9,987.62052375,987.685829958,988.391387,989.418088916,1,0.820171957999946
112,47,5,categorization,0,bathroom,SHINEd_sun_acgyywnybuveqsro.tif,18,0.0666666666666667,0.0666666666666667,0.783333333333333,989.430117541,990.132469958,13,989.494747583,989.561802708,990.151374625,990.928075583,1,0.702352417000043
112,48,5,categorization,0,bathroom,SHINEd_sun_anryaplzeujmzfkd.tif,39,0.0666666666666667,0.0666666666666667,0.7,990.94204825,992.022140458,9,991.007549583,991.073692291,992.0255975,992.71893475,0,1.080092208
112,49,5,categorization,0,bathroom,SHINEd_sun_aleqenyvunhactkl.tif,32,0.0666666666666667,0.0666666666666667,1.75,992.72405375,993.5100615,13,992.785983666,992.847045833,993.515521208,995.258888583,1,0.786007749999953
112,50,5,categorization,0,kitchen,SHINEd_sun_aggjlwcdjsjcaemh.tif,86,0.0666666666666667,0.0666666666666667,1.36666666666667,995.272995666,996.098549875,9,995.338427,995.404685166,996.1277085,997.487774,1,0.825554208999961
112,1,6,categorization,0,bathroom,SHINEd_sun_agyqfjcfkdcydepw.tif,25,0.0666666666666667,0.0666666666666667,0.966666666666667,1032.307758958,1033.885826541,9,1032.369738083,1032.431068541,1033.900039708,1034.860045708,0,1.57806758299989
112,2,6,categorization,0,kitchen,SHINEd_sun_agubuxuukhzyzpdp.tif,88,0.0666666666666667,0.0666666666666667,1.73333333333333,1034.865181708,1035.607023833,9,1034.927121041,1034.988130041,1035.623229541,1037.349927416,1,0.741842125000176
112,3,6,categorization,0,kitchen,SHINEd_sun_aarfiyshqohlwkmo.tif,67,0.0666666666666667,0.0666666666666667,1.91666666666667,1037.366059,1038.041792458,9,1037.431742791,1037.498065416,1038.070422458,1039.980476666,1,0.675733457999968
112,4,6,categorization,0,kitchen,SHINEd_sun_aypmqwcualkenuoe.tif,109,0.0666666666666667,0.0666666666666667,0.766666666666667,1039.997178666,1040.719038708,9,1040.063228791,1040.129332166,1040.735125291,1041.495129833,1,0.721860041999889
112,5,6,categorization,0,bathroom,SHINEd_sun_ahcvzmoyaycdoftf.tif,27,0.0666666666666667,0.0666666666666667,0.916666666666667,1041.500367416,1042.414555791,13,1041.562369916,1041.623413041,1042.425191916,1043.335195833,1,0.914188375000094
112,6,6,categorization,0,kitchen,SHINEd_sun_awcpdzzznmweyyhv.tif,106,0.0666666666666667,0.0666666666666667,1.18333333333333,1043.340240166,1044.053797458,9,1043.402063458,1043.463264583,1044.065028791,1045.241729291,1,0.713557291999905
112,7,6,categorization,0,bathroom,SHINEd_sun_apeeialkgkuxddgh.tif,42,0.0666666666666667,0.0666666666666667,1.8,1045.250129333,1046.56427425,13,1045.315793083,1045.38198625,1046.589691041,1048.383057541,1,1.31414491700002
112,8,6,categorization,0,bathroom,SHINEd_sun_alotolagknyrgtsk.tif,35,0.0666666666666667,0.0666666666666667,0.883333333333333,1048.399086708,1049.000428791,9,1048.46478225,1048.53105475,1049.020235041,1049.896907208,0,0.601342083000191
112,9,6,categorization,0,kitchen,SHINEd_sun_aymvwlarqodbwuoc.tif,108,0.0666666666666667,0.0666666666666667,1.83333333333333,1049.902238291,1050.645932083,9,1049.964186541,1050.0252915,1050.660499875,1052.48721625,1,0.743693791999931
112,10,6,categorization,0,bathroom,SHINEd_sun_anhioqovhscjqqwb.tif,38,0.0666666666666667,0.0666666666666667,1.76666666666667,1052.502389208,1053.183001125,13,1052.568314,1052.633731666,1053.207259041,1054.96729975,1,0.680611916999851
112,11,6,categorization,0,bathroom,SHINEd_sun_atstyziqcmkahyxk.tif,51,0.0666666666666667,0.0666666666666667,0.983333333333333,1054.982847,1056.454419041,9,1055.048653833,1055.114647833,1056.467061041,1057.443732208,0,1.47157204099994
112,12,6,categorization,0,kitchen,SHINEd_sun_aenotlpyftoioydp.tif,82,0.0666666666666667,0.0666666666666667,0.883333333333333,1057.448799083,1058.14217925,9,1057.510685708,1057.571830791,1058.157028291,1059.033701541,1,0.693380166999987
112,13,6,categorization,0,kitchen,SHINEd_sun_auaiucuqpdausiva.tif,102,0.0666666666666667,0.0666666666666667,0.85,1059.038794,1060.030932833,9,1059.100776791,1059.161810041,1060.0469875,1060.890325583,1,0.992138832999899
112,14,6,categorization,0,kitchen,SHINEd_sun_aeqdocilnnpuvuhx.tif,83,0.0666666666666667,0.0666666666666667,0.733333333333333,1060.896091541,1062.08669175,9,1060.958040541,1061.019070291,1062.104475666,1062.831148083,1,1.19060020899997
112,15,6,categorization,0,kitchen,SHINEd_sun_abftihopvusyfakt.tif,71,0.0666666666666667,0.0666666666666667,1.88333333333333,1062.83595875,1063.558809375,9,1062.897939333,1062.958974833,1063.577580958,1065.454299375,1,0.722850625000092
112,16,6,categorization,0,bathroom,SHINEd_sun_apmqjbnwghzuhhzh.tif,46,0.0666666666666667,0.0666666666666667,0.816666666666667,1065.469769,1066.144682708,13,1065.535822083,1065.601217916,1066.156427041,1066.9664335,1,0.674913707999849
112,17,6,categorization,0,bathroom,SHINEd_sun_akiytfaagpdsphgz.tif,31,0.0666666666666667,0.0666666666666667,1.9,1066.971619458,1068.429902125,9,1067.033470166,1067.094572458,1068.447014,1070.3403905,0,1.45828266699982
112,18,6,categorization,0,bathroom,SHINEd_sun_auzqhkafidnkrwmo.tif,54,0.0666666666666667,0.0666666666666667,0.983333333333333,1070.3525595,1071.379547583,13,1070.419363125,1070.484404458,1071.407170375,1072.383843833,1,1.02698808299988
112,19,6,categorization,0,bathroom,SHINEd_sun_ausgutylgojavyoq.tif,53,0.0666666666666667,0.0666666666666667,0.75,1072.389037708,1073.478660541,13,1072.450909166,1072.512062458,1073.497096625,1074.240435833,1,1.08962283300002
112,20,6,categorization,0,kitchen,SHINEd_sun_aamedkxepzlwuxes.tif,65,0.0666666666666667,0.0666666666666667,1.6,1074.245871416,1075.078786041,9,1074.307793875,1074.36888725,1075.087444375,1076.680817166,1,0.832914625000058
112,21,6,categorization,0,bathroom,SHINEd_sun_axldvoqbuvuggfmq.tif,57,0.0666666666666667,0.0666666666666667,1.58333333333333,1076.697215416,1077.899419083,13,1076.762895958,1076.828763333,1077.917987166,1079.494684,1,1.20220366700005
112,22,6,categorization,0,bathroom,SHINEd_sun_afcoljnjfoxjtgja.tif,20,0.0666666666666667,0.0666666666666667,1.11666666666667,1079.509603833,1080.979955458,13,1079.576332708,1079.641446875,1080.997759458,1082.107791666,1,1.47035162499992
112,23,6,categorization,0,bathroom,SHINEd_sun_apynckhmoftszqoq.tif,47,0.0666666666666667,0.0666666666666667,1.53333333333333,1082.118372291,1084.174849583,9,1082.18235425,1082.245988791,1084.181870375,1085.708591583,0,2.05647729199995
112,24,6,categorization,0,bathroom,SHINEd_sun_azqyogdvyhahyram.tif,60,0.0666666666666667,0.0666666666666667,1.48333333333333,1085.7246755,1086.475664083,13,1085.79060575,1085.8565235,1086.495757666,1087.972543166,1,0.75098858299998
112,25,6,categorization,0,kitchen,SHINEd_labelme_rykdqxenmhulbdn.tif,63,0.0666666666666667,0.0666666666666667,1.1,1087.988450291,1088.653609291,9,1088.054405583,1088.120567416,1088.676522333,1089.769892916,1,0.665159000000131
112,26,6,categorization,0,bathroom,SHINEd_sun_axyrejkiiaqiurjk.tif,59,0.0666666666666667,0.0666666666666667,0.933333333333333,1089.779691958,1090.746143416,9,1089.844290375,1089.911507083,1090.767855166,1091.694550166,0,0.966451457999938
112,27,6,categorization,0,kitchen,SHINEd_sun_aunzlwrbjumxhwdj.tif,103,0.0666666666666667,0.0666666666666667,0.816666666666667,1091.708164,1092.550174708,9,1091.774142916,1091.83137325,1092.566503875,1093.376510416,1,0.842010708000089
112,28,6,categorization,0,kitchen,SHINEd_sun_azmutvzbxypaceni.tif,110,0.0666666666666667,0.0666666666666667,1.78333333333333,1093.38163425,1094.142471416,9,1093.443533791,1093.50462575,1094.156402708,1095.933101916,1,0.760837166000101
112,29,6,categorization,0,bathroom,SHINEd_sun_avhrdrntsqrjzccq.tif,55,0.0666666666666667,0.0666666666666667,0.766666666666667,1095.947853,1097.031559333,9,1096.013767833,1096.079948291,1097.052780625,1097.812790666,0,1.08370633300001
112,30,6,categorization,0,kitchen,SHINEd_sun_afuyedyxivkhecmu.tif,85,0.0666666666666667,0.0666666666666667,1.45,1097.818098833,1098.693674583,9,1097.880014875,1097.941050541,1098.709577416,1100.152947791,1,0.875575750000053
112,31,6,categorization,0,kitchen,SHINEd_sun_aehawpgmrlhlvcow.tif,81,0.0666666666666667,0.0666666666666667,0.75,1100.166410375,1101.194388333,9,1100.232611125,1100.298557625,1101.221197916,1101.964536458,1,1.02797795800006
112,32,6,categorization,0,bathroom,SHINEd_sun_alkosphxlxwjwgjd.tif,34,0.0666666666666667,0.0666666666666667,1.36666666666667,1101.969880791,1102.750490125,13,1102.031760125,1102.092918916,1102.761566333,1104.121605125,1,0.780609334000019
112,33,6,categorization,0,bathroom,SHINEd_labelme_sfxiulhjbhlyiyt.tif,11,0.0666666666666667,0.0666666666666667,0.75,1104.134590916,1104.975809666,13,1104.199657416,1104.262789208,1105.002183833,1105.745553958,1,0.841218750000053
112,34,6,categorization,0,kitchen,SHINEd_sun_aadbddgrdsjugojn.tif,64,0.0666666666666667,0.0666666666666667,0.783333333333333,1105.759498416,1107.13466575,13,1105.825598916,1105.882703125,1107.151608208,1107.928280166,0,1.37516733400003
112,35,6,categorization,0,kitchen,SHINEd_labelme_kxvouciolcpqplr.tif,62,0.0666666666666667,0.0666666666666667,1.11666666666667,1107.933024833,1108.878287666,9,1107.99488725,1108.055992583,1108.891094291,1110.001125333,1,0.945262833000015
112,36,6,categorization,0,kitchen,SHINEd_sun_akchetnepxlcxhsu.tif,98,0.0666666666666667,0.0666666666666667,0.766666666666667,1110.012760083,1111.121898541,13,1110.076113208,1110.142193166,1111.14876825,1111.908800625,0,1.10913845799996
112,37,6,categorization,0,bathroom,SHINEd_sun_aghyqhbptboemmoq.tif,23,0.0666666666666667,0.0666666666666667,0.716666666666667,1111.922563625,1112.806596041,13,1111.984640541,1112.045579291,1112.813996625,1113.524003416,1,0.884032415999854
112,38,6,categorization,0,bathroom,SHINEd_sun_abapwbhyhkfixyex.tif,14,0.0666666666666667,0.0666666666666667,1.33333333333333,1113.529255166,1114.206655666,9,1113.591147041,1113.652380833,1114.220859708,1115.547579208,0,0.677400499999976
112,39,6,categorization,0,bathroom,SHINEd_sun_abjtwfukuwddzted.tif,15,0.0666666666666667,0.0666666666666667,1.75,1115.563790583,1117.001587416,9,1115.629415833,1115.696475958,1117.020151333,1118.763514041,0,1.43779683299999
112,40,6,categorization,0,kitchen,SHINEd_sun_acgtpgfybqjmzeyw.tif,75,0.0666666666666667,0.0666666666666667,1.13333333333333,1118.778230208,1119.496077041,9,1118.843851083,1118.910495375,1119.51651275,1120.64322425,1,0.717846833000067
112,41,6,categorization,0,kitchen,SHINEd_sun_acwjdupvyjsugpay.tif,76,0.0666666666666667,0.0666666666666667,1.63333333333333,1120.653045791,1121.317713041,9,1120.717265625,1120.784405625,1121.34025375,1122.966956083,1,0.664667249999866
112,42,6,categorization,0,kitchen,SHINEd_sun_avszsnwsbuqfgzbn.tif,105,0.0666666666666667,0.0666666666666667,1.43333333333333,1122.983735,1123.657929916,9,1123.049567041,1123.115414791,1123.670304416,1125.097026125,1,0.674194916000033
112,43,6,categorization,0,bathroom,SHINEd_sun_awnqiikzaispgmwo.tif,56,0.0666666666666667,0.0666666666666667,1.83333333333333,1125.113779541,1125.82373025,13,1125.17949025,1125.245921625,1125.852123041,1127.678836625,1,0.709950708999941
112,44,6,categorization,0,kitchen,SHINEd_sun_acfmftudsenhrfhy.tif,74,0.0666666666666667,0.0666666666666667,1.93333333333333,1127.697039625,1128.466667458,9,1127.762676625,1127.829308333,1128.48537525,1130.412077,1,0.769627833000186
112,45,6,categorization,0,kitchen,SHINEd_sun_ajkqhtgcbgpcwrwn.tif,97,0.0666666666666667,0.0666666666666667,1.26666666666667,1130.430458125,1131.247759,9,1130.496107291,1130.562702125,1131.268774625,1132.52882925,1,0.817300875000001
112,46,6,categorization,0,kitchen,SHINEd_sun_ajcbwwvdlsvjyzje.tif,96,0.0666666666666667,0.0666666666666667,1.86666666666667,1132.542844791,1133.390115875,9,1132.6087455,1132.675111083,1133.414959416,1135.274986708,1,0.847271083999885
112,47,6,categorization,0,kitchen,SHINEd_sun_aexklacwqwezaorf.tif,84,0.0666666666666667,0.0666666666666667,1.41666666666667,1135.28843875,1136.091396833,9,1135.354094041,1135.420347833,1136.109430125,1137.519489291,1,0.802958083000021
112,48,6,categorization,0,kitchen,SHINEd_sun_admlmbcdswaszruo.tif,79,0.0666666666666667,0.0666666666666667,1.11666666666667,1137.534866291,1138.22625,9,1137.601716,1137.666258208,1138.236936625,1139.346986208,1,0.691383708999865
112,49,6,categorization,0,bathroom,SHINEd_sun_ahqjwnzgolcaoidx.tif,29,0.0666666666666667,0.0666666666666667,1.8,1139.355536875,1140.346119791,9,1139.419457125,1139.487351666,1140.359215666,1142.152589041,0,0.990582915999994
112,50,6,categorization,0,kitchen,SHINEd_sun_aqeaevwwwjoqhzvl.tif,101,0.0666666666666667,0.0666666666666667,1.25,1142.165182583,1142.89119875,9,1142.230639333,1142.29701675,1142.919885833,1144.163237625,1,0.726016167000125
112,1,7,categorization,0,kitchen,SHINEd_sun_ahspylgoovwmwvgk.tif,93,0.0666666666666667,0.0666666666666667,0.883333333333333,1150.929191791,1151.582294875,9,1150.991003208,1151.052123541,1151.587214208,1152.463886166,1,0.653103083999895
112,2,7,categorization,0,kitchen,SHINEd_sun_abdenxonkemggwsq.tif,69,0.0666666666666667,0.0666666666666667,1.03333333333333,1152.468869541,1153.374060125,9,1152.530723166,1152.59198275,1153.393877041,1154.420565333,1,0.905190583999911
112,3,7,categorization,0,bathroom,SHINEd_sun_aghyqhbptboemmoq.tif,23,0.0666666666666667,0.0666666666666667,1.06666666666667,1154.428917708,1155.510881208,13,1154.492394583,1154.55561025,1155.5262775,1156.586288958,1,1.08196350000003
112,4,7,categorization,0,bathroom,SHINEd_sun_abjtwfukuwddzted.tif,15,0.0666666666666667,0.0666666666666667,0.833333333333333,1156.595403125,1157.576610583,13,1156.659099125,1156.72162025,1157.59302925,1158.419716833,1,0.981207457999972
112,5,7,categorization,0,kitchen,SHINEd_sun_acfmftudsenhrfhy.tif,74,0.0666666666666667,0.0666666666666667,0.716666666666667,1158.42927375,1159.38195275,9,1158.493381958,1158.556060625,1159.391516041,1160.10152025,1,0.952678999999989
112,6,7,categorization,0,bathroom,SHINEd_sun_agrwbmhcpmfuwmsg.tif,24,0.0666666666666667,0.0666666666666667,0.733333333333333,1160.106419458,1161.005412625,9,1160.168154708,1160.229272041,1161.01442025,1161.7410915,0,0.898993167000071
112,7,7,categorization,0,kitchen,SHINEd_sun_aypmqwcualkenuoe.tif,109,0.0666666666666667,0.0666666666666667,1.38333333333333,1161.746156625,1162.766413708,9,1161.808046208,1161.869054208,1162.770835666,1164.147839375,1,1.02025708300016
112,8,7,categorization,0,bathroom,SHINEd_sun_atstyziqcmkahyxk.tif,51,0.0666666666666667,0.0666666666666667,0.9,1164.158752083,1165.327998166,9,1164.222355041,1164.285575708,1165.338974875,1166.232317041,0,1.16924608299996
112,9,7,categorization,0,kitchen,SHINEd_sun_akcjzhbbjlbogpdi.tif,99,0.0666666666666667,0.0666666666666667,0.816666666666667,1166.237213875,1166.925672333,9,1166.299079541,1166.360198125,1166.945417625,1167.7554225,1,0.688458458000014
112,10,7,categorization,0,bathroom,SHINEd_sun_acgyywnybuveqsro.tif,18,0.0666666666666667,0.0666666666666667,0.85,1167.762302583,1168.493589958,13,1167.82421475,1167.885282,1168.503723875,1169.347062916,1,0.731287374999965
112,11,7,categorization,0,bathroom,SHINEd_sun_ajlawzvmubibwbpy.tif,30,0.0666666666666667,0.0666666666666667,1.6,1169.352022166,1170.245716291,9,1169.413780333,1169.47492775,1170.260067375,1171.853454625,0,0.893694124999911
112,12,7,categorization,0,kitchen,SHINEd_sun_ahdycvpopffkzzsu.tif,90,0.0666666666666667,0.0666666666666667,1.75,1171.868350125,1172.685901916,9,1171.933010083,1171.999796916,1172.705665208,1174.449030416,1,0.817551790999914
112,13,7,categorization,0,kitchen,SHINEd_sun_admlmbcdswaszruo.tif,79,0.0666666666666667,0.0666666666666667,1.1,1174.463906416,1175.253880458,9,1174.530053583,1174.595354791,1175.266781458,1176.360158416,1,0.789974041999812
112,14,7,categorization,0,kitchen,SHINEd_labelme_kxvouciolcpqplr.tif,62,0.0666666666666667,0.0666666666666667,1.46666666666667,1176.370759541,1177.301521791,9,1176.435281208,1176.502481875,1177.323921375,1178.783952208,1,0.930762249999816
112,15,7,categorization,0,bathroom,SHINEd_sun_aqrpegblszgcoujh.tif,48,0.0666666666666667,0.0666666666666667,1.25,1178.799298291,1179.610908833,9,1178.864987791,1178.931593416,1179.637676166,1180.881059875,0,0.811610541999926
112,16,7,categorization,0,bathroom,SHINEd_sun_afcoljnjfoxjtgja.tif,20,0.0666666666666667,0.0666666666666667,1.13333333333333,1180.89712925,1181.830951458,9,1180.962079833,1181.030559166,1181.852697791,1182.979393625,0,0.933822208000038
112,17,7,categorization,0,bathroom,SHINEd_sun_ambriybtogmepttm.tif,36,0.0666666666666667,0.0666666666666667,1.33333333333333,1182.988443541,1183.865388625,9,1183.053071208,1183.120266125,1183.8928875,1185.219593416,0,0.876945083999999
112,18,7,categorization,0,kitchen,SHINEd_sun_auaiucuqpdausiva.tif,102,0.0666666666666667,0.0666666666666667,1.86666666666667,1185.23447325,1186.053783583,9,1185.298148666,1185.366231666,1186.071572708,1187.931610208,1,0.819310332999976
112,19,7,categorization,0,bathroom,SHINEd_sun_apjevzvycyhuqghb.tif,43,0.0666666666666667,0.0666666666666667,1.58333333333333,1187.946508041,1188.761203041,9,1188.011725208,1188.078114791,1188.78353075,1190.36024775,0,0.814695000000029
112,20,7,categorization,0,kitchen,SHINEd_sun_acgtpgfybqjmzeyw.tif,75,0.0666666666666667,0.0666666666666667,1.05,1190.375955833,1191.282303041,9,1190.441820625,1190.506825791,1191.295489666,1192.338850083,1,0.906347207999943
112,21,7,categorization,0,kitchen,SHINEd_sun_agzzivivdpnawacl.tif,89,0.0666666666666667,0.0666666666666667,0.9,1192.349511458,1193.346415916,9,1192.414140541,1192.479213791,1193.369122125,1194.262471125,1,0.996904458000017
112,22,7,categorization,0,kitchen,SHINEd_sun_abdxkyyxwfskuaqb.tif,70,0.0666666666666667,0.0666666666666667,0.7,1194.271764208,1195.094181458,9,1194.33435625,1194.395088208,1195.113779916,1195.807120375,1,0.822417250000171
112,23,7,categorization,0,bathroom,SHINEd_sun_ahqjwnzgolcaoidx.tif,29,0.0666666666666667,0.0666666666666667,0.933333333333333,1195.81226925,1196.981934958,13,1195.874127208,1195.935333166,1196.987389416,1197.914061666,1,1.16966570799991
112,24,7,categorization,0,kitchen,SHINEd_sun_aarfiyshqohlwkmo.tif,67,0.0666666666666667,0.0666666666666667,1.95,1197.918949375,1198.534172833,9,1197.980842125,1198.041773041,1198.543558875,1200.486919916,1,0.615223457999946
112,25,7,categorization,0,bathroom,SHINEd_sun_asfwthctfqerjvxr.tif,49,0.0666666666666667,0.0666666666666667,1.06666666666667,1200.49928325,1201.193114875,9,1200.564936666,1200.630802583,1201.2201155,1202.280157708,0,0.69383162500003
112,26,7,categorization,0,kitchen,SHINEd_sun_aenotlpyftoioydp.tif,82,0.0666666666666667,0.0666666666666667,1.2,1202.291387208,1203.000093708,9,1202.35513675,1202.421967708,1203.028013708,1204.22138125,1,0.708706499999835
112,27,7,categorization,0,bathroom,SHINEd_sun_amzlamotzwfkwjco.tif,37,0.0666666666666667,0.0666666666666667,0.75,1204.233057708,1205.31748725,9,1204.295195166,1204.35598075,1205.324514208,1206.0678535,0,1.08442954200018
112,28,7,categorization,0,bathroom,SHINEd_sun_aofnryafpsjimzsb.tif,40,0.0666666666666667,0.0666666666666667,0.816666666666667,1206.072952166,1207.445108583,13,1206.134731208,1206.195896041,1207.465180541,1208.275186041,1,1.37215641700004
112,29,7,categorization,0,kitchen,SHINEd_sun_amjjdeyrggfqgmom.tif,100,0.0666666666666667,0.0666666666666667,1.96666666666667,1208.280228625,1209.046103958,9,1208.342225375,1208.40315325,1209.054962625,1211.0149995,1,0.76587533299994
112,30,7,categorization,0,kitchen,SHINEd_sun_azmutvzbxypaceni.tif,110,0.0666666666666667,0.0666666666666667,1.2,1211.029886083,1211.744805333,9,1211.095476625,1211.161645791,1211.767768041,1212.961128791,1,0.714919249999866
112,31,7,categorization,0,bathroom,SHINEd_sun_aavhrsfjbserjtht.tif,13,0.0666666666666667,0.0666666666666667,0.883333333333333,1212.973273541,1213.747345041,9,1213.038874083,1213.104694458,1213.759860208,1214.636562541,0,0.774071499999991
112,32,7,categorization,0,bathroom,SHINEd_sun_akiytfaagpdsphgz.tif,31,0.0666666666666667,0.0666666666666667,1.33333333333333,1214.648479791,1215.366040958,13,1214.714068083,1214.779063791,1215.380928,1216.707622875,1,0.717561166999985
112,33,7,categorization,0,kitchen,SHINEd_sun_avszsnwsbuqfgzbn.tif,105,0.0666666666666667,0.0666666666666667,1.45,1216.723995375,1217.3695305,9,1216.789771333,1216.855509833,1217.393351708,1218.836725541,1,0.645535125000151
112,34,7,categorization,0,kitchen,SHINEd_sun_aadbddgrdsjugojn.tif,64,0.0666666666666667,0.0666666666666667,1.15,1218.8505085,1219.586659041,9,1218.916556458,1218.982179208,1219.604624958,1220.747993125,1,0.736150541000143
112,35,7,categorization,0,bathroom,SHINEd_sun_acegryoqftbzowsg.tif,17,0.0666666666666667,0.0666666666666667,0.966666666666667,1220.758100291,1222.378221291,13,1220.824317083,1220.889839333,1222.396885541,1223.356889458,1,1.62012100000015
112,36,7,categorization,0,kitchen,SHINEd_sun_ahljzhgcdpomplvg.tif,91,0.0666666666666667,0.0666666666666667,1.45,1223.362163,1224.045223125,9,1223.423995,1223.485064791,1224.053544708,1225.496914666,1,0.683060124999884
112,37,7,categorization,0,bathroom,SHINEd_sun_auzqhkafidnkrwmo.tif,54,0.0666666666666667,0.0666666666666667,0.8,1225.514652041,1227.533003875,9,1225.580817041,1225.643652333,1227.545829958,1228.3391695,0,2.01835183399999
112,38,7,categorization,0,bathroom,SHINEd_sun_awnqiikzaispgmwo.tif,56,0.0666666666666667,0.0666666666666667,1.45,1228.34465825,1229.118022125,13,1228.406398916,1228.467633458,1229.136175291,1230.579544416,1,0.773363874999859
112,39,7,categorization,0,kitchen,SHINEd_sun_aymvwlarqodbwuoc.tif,108,0.0666666666666667,0.0666666666666667,1.1,1230.593342083,1231.241331625,9,1230.659569541,1230.724959916,1231.264665208,1232.358040708,1,0.647989542000005
112,40,7,categorization,0,kitchen,SHINEd_sun_axyyrmzcupyhlivc.tif,107,0.0666666666666667,0.0666666666666667,1.16666666666667,1232.368609416,1233.134093833,9,1232.43316875,1232.500042166,1233.156495083,1234.316520875,1,0.765484416999925
112,41,7,categorization,0,bathroom,SHINEd_sun_ahcvzmoyaycdoftf.tif,27,0.0666666666666667,0.0666666666666667,1.31666666666667,1234.328742291,1235.085543291,13,1234.390919625,1234.451741875,1235.103500083,1236.413532625,1,0.756800999999996
112,42,7,categorization,0,bathroom,SHINEd_sun_ahaulkltgpkeeemi.tif,26,0.0666666666666667,0.0666666666666667,1.68333333333333,1236.429793375,1237.632148083,9,1236.495667291,1236.561376083,1237.651791541,1239.328488875,0,1.20235470800003
112,43,7,categorization,0,bathroom,SHINEd_sun_aunuadmjocsddsrl.tif,52,0.0666666666666667,0.0666666666666667,0.966666666666667,1239.343287708,1240.077698458,9,1239.4088105,1239.47446725,1240.097529083,1241.057533458,0,0.734410750000052
112,44,7,categorization,0,kitchen,SHINEd_sun_aggjlwcdjsjcaemh.tif,86,0.0666666666666667,0.0666666666666667,1.4,1241.062916416,1242.005645833,9,1241.124805041,1241.185997375,1242.021165166,1243.414531666,1,0.94272941700001
112,45,7,categorization,0,bathroom,SHINEd_sun_aljolscmmzydegqp.tif,33,0.0666666666666667,0.0666666666666667,0.783333333333333,1243.42635975,1244.33018675,9,1243.491787041,1243.55780375,1244.346867458,1245.123540125,0,0.903826999999865
112,46,7,categorization,0,bathroom,SHINEd_sun_ausgutylgojavyoq.tif,53,0.0666666666666667,0.0666666666666667,1.08333333333333,1245.128676666,1245.917559541,13,1245.190338958,1245.251613583,1245.936727791,1247.013431625,1,0.788882874999899
112,47,7,categorization,0,kitchen,SHINEd_sun_aamedkxepzlwuxes.tif,65,0.0666666666666667,0.0666666666666667,1.43333333333333,1247.023324666,1249.197345833,13,1247.08798025,1247.153653666,1249.206125958,1250.632826125,0,2.17402116700009
112,48,7,categorization,0,bathroom,SHINEd_sun_apmqjbnwghzuhhzh.tif,46,0.0666666666666667,0.0666666666666667,1.75,1250.648361958,1251.501290416,13,1250.714493458,1250.780091208,1251.519159875,1253.262541666,1,0.852928458000179
112,49,7,categorization,0,kitchen,SHINEd_sun_aehawpgmrlhlvcow.tif,81,0.0666666666666667,0.0666666666666667,1.21666666666667,1253.275031083,1253.943199208,9,1253.341068041,1253.406451541,1253.962069791,1255.172118708,1,0.668168124999966
112,50,7,categorization,0,kitchen,SHINEd_sun_afuyedyxivkhecmu.tif,85,0.0666666666666667,0.0666666666666667,1.31666666666667,1255.187492791,1256.41598025,13,1255.253648166,1255.319034166,1256.444169916,1257.754208291,0,1.22848745900001
112,1,8,categorization,0,bathroom,SHINEd_sun_axxbkopsgyouuebh.tif,58,0.0666666666666667,0.0666666666666667,1.18333333333333,1263.855545583,1264.885564708,13,1263.91758825,1263.978682583,1264.897137666,1266.073836125,1,1.03001912499985
112,2,8,categorization,0,kitchen,SHINEd_sun_acxkpeoqbwcxfvip.tif,77,0.0666666666666667,0.0666666666666667,0.983333333333333,1266.082942958,1266.94755075,9,1266.148459875,1266.215070666,1266.971318916,1267.94803175,1,0.864607791999788
112,3,8,categorization,0,bathroom,SHINEd_sun_alkosphxlxwjwgjd.tif,34,0.0666666666666667,0.0666666666666667,1.65,1267.962951125,1269.020872791,9,1268.025083541,1268.085822166,1269.037597708,1270.680980125,0,1.05792166600008
112,4,8,categorization,0,bathroom,SHINEd_sun_ahijqszoswveeyji.tif,28,0.0666666666666667,0.0666666666666667,1.23333333333333,1270.696170875,1271.722393041,9,1270.76180975,1270.827564458,1271.750578625,1272.977289583,0,1.02622216600003
112,5,8,categorization,0,kitchen,SHINEd_sun_aapllqyqlykszopd.tif,66,0.0666666666666667,0.0666666666666667,0.916666666666667,1272.992738,1274.366170833,9,1273.0582365,1273.124442625,1274.381323583,1275.291328833,1,1.37343283300015
112,6,8,categorization,0,kitchen,SHINEd_sun_aeqdocilnnpuvuhx.tif,83,0.0666666666666667,0.0666666666666667,1.56666666666667,1275.296771083,1276.197064458,9,1275.358869583,1275.419722833,1276.20479475,1277.764832041,1,0.900293375000047
112,7,8,categorization,0,bathroom,SHINEd_sun_apeeialkgkuxddgh.tif,42,0.0666666666666667,0.0666666666666667,1.63333333333333,1277.7785145,1278.796506291,13,1277.8442695,1277.910799458,1278.816927833,1280.443640875,1,1.01799179099999
112,8,8,categorization,0,kitchen,SHINEd_sun_aqeaevwwwjoqhzvl.tif,101,0.0666666666666667,0.0666666666666667,1.1,1280.4572105,1281.343002,9,1280.523231458,1280.589158,1281.36157825,1282.454960125,1,0.885791500000096
112,9,8,categorization,0,kitchen,SHINEd_sun_agubuxuukhzyzpdp.tif,88,0.0666666666666667,0.0666666666666667,1.38333333333333,1282.463897958,1283.406839875,9,1282.528345791,1282.594779791,1283.434182625,1284.810886208,1,0.942941917000098
112,10,8,categorization,0,kitchen,SHINEd_sun_aunzlwrbjumxhwdj.tif,103,0.0666666666666667,0.0666666666666667,0.766666666666667,1284.825895791,1285.801346791,9,1284.891194041,1284.957323208,1285.830435708,1286.590450875,1,0.975451000000021
112,11,8,categorization,0,kitchen,SHINEd_sun_adgqasybjyktddhj.tif,78,0.0666666666666667,0.0666666666666667,1.45,1286.596566875,1287.42098975,9,1286.658507416,1286.719599875,1287.438127208,1288.881492958,1,0.824422874999982
112,12,8,categorization,0,kitchen,SHINEd_sun_awcpdzzznmweyyhv.tif,106,0.0666666666666667,0.0666666666666667,0.983333333333333,1288.895185125,1289.839010708,9,1288.961044458,1289.026612833,1289.866187458,1290.842858875,1,0.943825583000034
112,13,8,categorization,0,bathroom,SHINEd_sun_aclfzgynxzxlbepz.tif,19,0.0666666666666667,0.0666666666666667,0.716666666666667,1290.848084583,1291.549223125,13,1290.909895125,1290.97095975,1291.556055458,1292.266059166,1,0.701138542000081
112,14,8,categorization,0,bathroom,SHINEd_sun_alotolagknyrgtsk.tif,35,0.0666666666666667,0.0666666666666667,1.41666666666667,1292.271192666,1293.23770325,13,1292.333234125,1292.394441,1293.246341291,1294.656375583,1,0.966510584000162
112,15,8,categorization,0,bathroom,SHINEd_sun_agyqfjcfkdcydepw.tif,25,0.0666666666666667,0.0666666666666667,1.21666666666667,1294.671858583,1296.046267083,9,1294.738005458,1294.803580708,1296.078405166,1297.288440875,0,1.37440850000007
112,16,8,categorization,0,bathroom,SHINEd_sun_azqyogdvyhahyram.tif,60,0.0666666666666667,0.0666666666666667,1.61666666666667,1297.303918333,1298.127446333,13,1297.370266291,1297.430034791,1298.152272333,1299.762293083,1,0.823528000000124
112,17,8,categorization,0,kitchen,SHINEd_sun_aixorpehvfykdynp.tif,95,0.0666666666666667,0.0666666666666667,0.783333333333333,1299.771840541,1300.55949025,9,1299.835368041,1299.903727958,1300.5740705,1301.350776833,1,0.787649708999879
112,18,8,categorization,0,kitchen,SHINEd_sun_ajcbwwvdlsvjyzje.tif,96,0.0666666666666667,0.0666666666666667,1.98333333333333,1301.36384225,1302.941322541,9,1301.425811125,1301.486794041,1302.955946875,1304.9326305,1,1.57748029100003
112,19,8,categorization,0,kitchen,SHINEd_sun_agorklincwxrdtga.tif,87,0.0666666666666667,0.0666666666666667,0.983333333333333,1304.948760708,1305.654507958,9,1305.013579083,1305.0767555,1305.683044541,1306.659718458,1,0.705747250000059
112,20,8,categorization,0,bathroom,SHINEd_sun_aspsyogrekjtfozg.tif,50,0.0666666666666667,0.0666666666666667,0.8,1306.665016166,1307.468891708,13,1306.726824708,1306.787841583,1307.473250666,1308.266588166,1,0.803875542000014
112,21,8,categorization,0,kitchen,SHINEd_sun_aaxxjlsuzvqlgylf.tif,68,0.0666666666666667,0.0666666666666667,0.733333333333333,1308.27176625,1308.964727291,9,1308.333713125,1308.395072166,1308.980390041,1309.707062833,1,0.69296104099999
112,22,8,categorization,0,kitchen,SHINEd_sun_abrcnpqqhmjwekyf.tif,73,0.0666666666666667,0.0666666666666667,0.966666666666667,1309.71210775,1310.373605333,13,1309.774097958,1309.835192416,1310.387118833,1311.347124208,0,0.6614975829998
112,23,8,categorization,0,kitchen,SHINEd_sun_abftihopvusyfakt.tif,71,0.0666666666666667,0.0666666666666667,0.866666666666667,1311.352273125,1312.196997083,9,1311.414220458,1311.475545416,1312.210662083,1313.07066775,1,0.844723958000031
112,24,8,categorization,0,kitchen,SHINEd_sun_aegoxogugdkwpmpj.tif,80,0.0666666666666667,0.0666666666666667,1.23333333333333,1313.075742958,1313.6773185,9,1313.137958791,1313.198865,1313.684035375,1314.91075325,1,0.601575541999864
112,25,8,categorization,0,kitchen,SHINEd_sun_abpwyqmlzafvklqo.tif,72,0.0666666666666667,0.0666666666666667,1.9,1314.925909083,1315.644912791,9,1314.991263625,1315.053844625,1315.658762791,1317.552155875,1,0.719003707999946
112,26,8,categorization,0,bathroom,SHINEd_sun_apkxzenqapsujocq.tif,45,0.0666666666666667,0.0666666666666667,0.866666666666667,1317.564840458,1318.301753,13,1317.6289145,1317.693125291,1318.313943291,1319.173948916,1,0.736912542000027
112,27,8,categorization,0,bathroom,SHINEd_sun_aapitsgbtktqubfy.tif,12,0.0666666666666667,0.0666666666666667,0.966666666666667,1319.179254083,1320.357510125,13,1319.24128825,1319.302437666,1320.371580916,1321.331585041,1,1.17825604200016
112,28,8,categorization,0,bathroom,SHINEd_sun_aleqenyvunhactkl.tif,32,0.0666666666666667,0.0666666666666667,0.916666666666667,1321.336471791,1322.061243708,13,1321.398236958,1321.459329291,1322.077825916,1322.987830125,1,0.724771916999998
112,29,8,categorization,0,bathroom,SHINEd_sun_aoybiabnpadelefl.tif,41,0.0666666666666667,0.0666666666666667,0.916666666666667,1322.992688291,1323.92562775,13,1323.054458875,1323.115531083,1323.933850041,1324.843855208,1,0.932939459000181
112,30,8,categorization,0,kitchen,SHINEd_sun_ahpczsiumwwocjkv.tif,92,0.0666666666666667,0.0666666666666667,1.4,1324.848654916,1325.56523175,9,1324.910305041,1324.971476166,1325.57315475,1326.96652375,1,0.71657683400008
112,31,8,categorization,0,kitchen,SHINEd_sun_auticobqsbwgoppi.tif,104,0.0666666666666667,0.0666666666666667,1.75,1326.982472333,1329.165527125,9,1327.048227625,1327.109104166,1329.178375875,1330.921727833,1,2.18305479199989
112,32,8,categorization,0,kitchen,SHINEd_labelme_brsyyvweiuaazfr.tif,61,0.0666666666666667,0.0666666666666667,1.25,1330.929981208,1331.942488666,9,1330.993066083,1331.056172708,1331.960250541,1333.203598333,1,1.01250745799985
112,33,8,categorization,0,bathroom,SHINEd_sun_axyrejkiiaqiurjk.tif,59,0.0666666666666667,0.0666666666666667,1.05,1333.211504166,1334.479093583,13,1333.275574416,1333.337394416,1334.492009958,1335.535361333,1,1.26758941699995
112,34,8,categorization,0,kitchen,SHINEd_sun_akchetnepxlcxhsu.tif,98,0.0666666666666667,0.0666666666666667,1.06666666666667,1335.542420375,1336.262378375,13,1335.605945291,1335.667828833,1336.270937166,1337.330956125,0,0.719958000000133
112,35,8,categorization,0,bathroom,SHINEd_sun_apkruvsevgegsdwp.tif,44,0.0666666666666667,0.0666666666666667,1.21666666666667,1337.338496375,1338.285348208,13,1337.402127458,1337.464870041,1338.3002235,1339.510242291,1,0.946851832999982
112,36,8,categorization,0,bathroom,SHINEd_sun_anhioqovhscjqqwb.tif,38,0.0666666666666667,0.0666666666666667,0.95,1339.519127916,1340.221234416,13,1339.582946125,1339.644746875,1340.231517583,1341.174886166,1,0.702106500000127
112,37,8,categorization,0,kitchen,SHINEd_sun_acwjdupvyjsugpay.tif,76,0.0666666666666667,0.0666666666666667,0.9,1341.186851666,1341.813092708,9,1341.252966291,1341.317217875,1341.819172916,1342.712512291,1,0.626241042000174
112,38,8,categorization,0,bathroom,SHINEd_labelme_sfxiulhjbhlyiyt.tif,11,0.0666666666666667,0.0666666666666667,1.78333333333333,1342.717531708,1343.557754541,13,1342.779560833,1342.840641166,1343.575942333,1345.352674125,1,0.840222832999871
112,39,8,categorization,0,bathroom,SHINEd_sun_agguqiubmwhqqunb.tif,22,0.0666666666666667,0.0666666666666667,1.16666666666667,1345.368176375,1346.478363125,13,1345.433320125,1345.498844916,1346.485372708,1347.645411125,1,1.11018674999991
112,40,8,categorization,0,kitchen,SHINEd_sun_aexklacwqwezaorf.tif,84,0.0666666666666667,0.0666666666666667,0.783333333333333,1347.653366666,1348.4284785,9,1347.718715416,1347.785213666,1348.43828175,1349.214967416,1,0.775111833999972
112,41,8,categorization,0,bathroom,SHINEd_sun_apynckhmoftszqoq.tif,47,0.0666666666666667,0.0666666666666667,1.23333333333333,1349.225091125,1350.141550416,13,1349.288714041,1349.350964291,1350.152995833,1351.379701291,1,0.91645929099991
112,42,8,categorization,0,bathroom,SHINEd_sun_abapwbhyhkfixyex.tif,14,0.0666666666666667,0.0666666666666667,0.9,1351.396097833,1352.263992625,9,1351.462077166,1351.528253708,1352.282658083,1353.176018708,0,0.867894791999788
112,43,8,categorization,0,kitchen,SHINEd_sun_ajkqhtgcbgpcwrwn.tif,97,0.0666666666666667,0.0666666666666667,0.7,1353.188080916,1354.332751125,9,1353.250243833,1353.311078625,1354.346402833,1355.039742625,1,1.14467020899997
112,44,8,categorization,0,bathroom,SHINEd_sun_acduarbnmmoglmiv.tif,16,0.0666666666666667,0.0666666666666667,1.23333333333333,1355.044679166,1355.933544583,9,1355.106708708,1355.167853291,1355.953127791,1357.179830458,0,0.888865417000034
112,45,8,categorization,0,bathroom,SHINEd_sun_avhrdrntsqrjzccq.tif,55,0.0666666666666667,0.0666666666666667,1,1357.195998333,1358.315035541,9,1357.261428833,1357.327496166,1358.333639791,1359.326980625,0,1.11903720800001
112,46,8,categorization,0,bathroom,SHINEd_sun_axldvoqbuvuggfmq.tif,57,0.0666666666666667,0.0666666666666667,1.38333333333333,1359.33198925,1360.404606041,13,1359.393709458,1359.454968833,1360.423523416,1361.800234125,1,1.07261679099997
112,47,8,categorization,0,bathroom,SHINEd_sun_aggnnqpdorgxpvce.tif,21,0.0666666666666667,0.0666666666666667,1.3,1361.816216541,1363.286446041,9,1361.88180325,1361.94770225,1363.305608125,1364.59897425,0,1.47022950000019
112,48,8,categorization,0,kitchen,SHINEd_labelme_rykdqxenmhulbdn.tif,63,0.0666666666666667,0.0666666666666667,0.833333333333333,1364.613997375,1365.736597583,9,1364.679403166,1364.745762166,1365.7509295,1366.577603,1,1.12260020799999
112,49,8,categorization,0,kitchen,SHINEd_sun_ahywdevtimnqcsln.tif,94,0.0666666666666667,0.0666666666666667,0.95,1366.582585666,1367.36554525,9,1366.644471958,1366.705595583,1367.374088958,1368.317428291,1,0.782959583999855
112,50,8,categorization,0,bathroom,SHINEd_sun_anryaplzeujmzfkd.tif,39,0.0666666666666667,0.0666666666666667,1.43333333333333,1368.32242575,1369.36479025,9,1368.384196666,1368.445203875,1369.380365708,1370.807069791,0,1.04236449999985
112,1,9,categorization,0,kitchen,SHINEd_sun_ajkqhtgcbgpcwrwn.tif,97,0.0666666666666667,0.0666666666666667,1.08333333333333,1377.378992958,1383.037255583,13,1377.441078458,1377.501851333,1383.054029208,1384.13073925,0,5.65826262499991
112,2,9,categorization,0,bathroom,SHINEd_sun_ahaulkltgpkeeemi.tif,26,0.0666666666666667,0.0666666666666667,0.8,1384.138804416,1388.692986416,13,1384.203218416,1384.268666791,1388.709620166,1389.502958333,1,4.55418199999986
112,3,9,categorization,0,kitchen,SHINEd_sun_aegoxogugdkwpmpj.tif,80,0.0666666666666667,0.0666666666666667,0.833333333333333,1389.507647875,1390.5245465,9,1389.569445875,1389.630275208,1390.532075416,1391.35874725,1,1.01689862500007
112,4,9,categorization,0,kitchen,SHINEd_sun_acgtpgfybqjmzeyw.tif,75,0.0666666666666667,0.0666666666666667,1.45,1391.36370725,1392.548602833,9,1391.425370791,1391.4863895,1392.555643958,1393.999020625,1,1.18489558299984
112,5,9,categorization,0,bathroom,SHINEd_sun_anhioqovhscjqqwb.tif,38,0.0666666666666667,0.0666666666666667,1.3,1394.017045625,1394.823408208,13,1394.083510916,1394.146283666,1394.853422291,1396.146783708,1,0.806362583000009
112,6,9,categorization,0,kitchen,SHINEd_sun_auticobqsbwgoppi.tif,104,0.0666666666666667,0.0666666666666667,1.21666666666667,1396.162099916,1397.73031775,9,1396.229254625,1396.29390325,1397.753985541,1398.964018041,1,1.56821783400005
112,7,9,categorization,0,bathroom,SHINEd_sun_anryaplzeujmzfkd.tif,39,0.0666666666666667,0.0666666666666667,0.733333333333333,1398.980647958,1400.142756541,13,1399.048154,1399.113836416,1400.169978041,1400.896651541,1,1.16210858299996
112,8,9,categorization,0,bathroom,SHINEd_sun_apynckhmoftszqoq.tif,47,0.0666666666666667,0.0666666666666667,1.03333333333333,1400.9021075,1401.661002541,13,1400.963944125,1401.024898,1401.677217958,1402.703924208,1,0.75889504099996
112,9,9,categorization,0,kitchen,SHINEd_sun_akchetnepxlcxhsu.tif,98,0.0666666666666667,0.0666666666666667,1.1,1402.714336208,1403.804542,13,1402.779172583,1402.845991958,1403.818302416,1404.91167975,0,1.09020579200001
112,10,9,categorization,0,bathroom,SHINEd_sun_abapwbhyhkfixyex.tif,14,0.0666666666666667,0.0666666666666667,1.25,1404.921986041,1405.905824125,9,1404.9875365,1405.057932833,1405.931048125,1407.1744125,0,0.983838083999899
112,11,9,categorization,0,bathroom,SHINEd_sun_acduarbnmmoglmiv.tif,16,0.0666666666666667,0.0666666666666667,1.4,1407.189082458,1408.348540666,13,1407.255762166,1407.321653,1408.378445166,1409.7718285,1,1.15945820799993
112,12,9,categorization,0,bathroom,SHINEd_sun_acgyywnybuveqsro.tif,18,0.0666666666666667,0.0666666666666667,1.43333333333333,1409.788506416,1410.615374291,13,1409.855651791,1409.92121825,1410.626123875,1412.052824666,1,0.826867875000062
112,13,9,categorization,0,kitchen,SHINEd_labelme_brsyyvweiuaazfr.tif,61,0.0666666666666667,0.0666666666666667,1.26666666666667,1412.070135875,1412.735026875,13,1412.137261791,1412.200980083,1412.757821333,1414.017863625,0,0.664890999999898
112,14,9,categorization,0,kitchen,SHINEd_sun_aenotlpyftoioydp.tif,82,0.0666666666666667,0.0666666666666667,0.916666666666667,1414.035551333,1414.880440541,9,1414.102462791,1414.165482833,1414.905553083,1415.815591291,1,0.844889208000041
112,15,9,categorization,0,bathroom,SHINEd_sun_axyrejkiiaqiurjk.tif,59,0.0666666666666667,0.0666666666666667,1.05,1415.823034875,1416.94037625,9,1415.884785208,1415.945805125,1416.948060916,1417.991445833,0,1.11734137500002
112,16,9,categorization,0,bathroom,SHINEd_sun_agguqiubmwhqqunb.tif,22,0.0666666666666667,0.0666666666666667,1.53333333333333,1418.002635833,1419.50601075,13,1418.067400583,1418.134230458,1419.526488375,1421.0532025,1,1.50337491699997
112,17,9,categorization,0,kitchen,SHINEd_sun_abftihopvusyfakt.tif,71,0.0666666666666667,0.0666666666666667,1.11666666666667,1421.065608541,1422.1598725,9,1421.132700375,1421.19861575,1422.169673041,1423.279712583,1,1.09426395899982
112,18,9,categorization,0,kitchen,SHINEd_sun_acfmftudsenhrfhy.tif,74,0.0666666666666667,0.0666666666666667,1.05,1423.291027541,1424.264188166,9,1423.356804875,1423.4239005,1424.27829925,1425.321672583,1,0.973160624999991
112,19,9,categorization,0,kitchen,SHINEd_sun_agubuxuukhzyzpdp.tif,88,0.0666666666666667,0.0666666666666667,1.66666666666667,1425.333887458,1426.1371,9,1425.398807625,1425.4666515,1426.155349875,1427.815385125,1,0.803212541999983
112,20,9,categorization,0,kitchen,SHINEd_sun_abpwyqmlzafvklqo.tif,72,0.0666666666666667,0.0666666666666667,1.98333333333333,1427.83405675,1428.925259666,9,1427.900938791,1427.966798125,1428.93961975,1430.916401666,1,1.09120291600016
112,21,9,categorization,0,kitchen,SHINEd_sun_aaxxjlsuzvqlgylf.tif,68,0.0666666666666667,0.0666666666666667,1.06666666666667,1430.933738833,1431.903872875,9,1431.000947083,1431.066450125,1431.922736333,1432.982789791,1,0.970134041999927
112,22,9,categorization,0,bathroom,SHINEd_sun_apmqjbnwghzuhhzh.tif,46,0.0666666666666667,0.0666666666666667,1.31666666666667,1432.994686625,1433.681819625,13,1433.059962958,1433.12605175,1433.699041875,1435.009080041,1,0.687132999999903
112,23,9,categorization,0,kitchen,SHINEd_sun_ahpczsiumwwocjkv.tif,92,0.0666666666666667,0.0666666666666667,1.78333333333333,1435.030093041,1436.007131916,9,1435.097419541,1435.162955791,1436.036490583,1437.813199083,1,0.977038874999835
112,24,9,categorization,0,bathroom,SHINEd_sun_aghyqhbptboemmoq.tif,23,0.0666666666666667,0.0666666666666667,0.816666666666667,1437.831509708,1438.775335458,13,1437.898673,1437.964371291,1438.804682791,1439.614686916,1,0.94382574999986
112,25,9,categorization,0,kitchen,SHINEd_sun_aymvwlarqodbwuoc.tif,108,0.0666666666666667,0.0666666666666667,0.933333333333333,1439.6198575,1440.404452125,9,1439.681650041,1439.742676958,1440.4112305,1441.33790175,1,0.784594624999954
112,26,9,categorization,0,kitchen,SHINEd_sun_aehawpgmrlhlvcow.tif,81,0.0666666666666667,0.0666666666666667,1.33333333333333,1441.344425916,1442.237065666,9,1441.406178666,1441.46707175,1442.25226675,1443.578974458,1,0.892639749999944
112,27,9,categorization,0,kitchen,SHINEd_sun_acxkpeoqbwcxfvip.tif,77,0.0666666666666667,0.0666666666666667,0.833333333333333,1443.597783083,1444.51857,9,1443.664404541,1443.730336208,1444.536203583,1445.36287425,1,0.920786916999987
112,28,9,categorization,0,bathroom,SHINEd_sun_agrwbmhcpmfuwmsg.tif,24,0.0666666666666667,0.0666666666666667,0.933333333333333,1445.368413333,1446.668553,9,1445.4301075,1445.491144416,1446.676909333,1447.603581666,0,1.30013966699994
112,29,9,categorization,0,bathroom,SHINEd_sun_azqyogdvyhahyram.tif,60,0.0666666666666667,0.0666666666666667,1.85,1447.608273625,1449.188615916,9,1447.670007625,1447.730918041,1449.20014075,1451.0435075,0,1.58034229099985
