sub_num,trial,block,task,is_practice,category,image,texture,duration,mask_dur,jitter,stim_time,time_of_resp,trial_response,mask_time,fix_time,jit_onset,trial_end,trial_accuracy,RT
112,1,14,categorization,0,kitchen,SHINEd_sun_abpwyqmlzafvklqo.tif,72,0.0666666666666667,0.0666666666666667,1.38333333333333,2268.487941708,2269.481668291,13,2268.550503375,2268.610674458,2269.495771166,2270.872485333,0,0.993726582999898
112,2,14,categorization,0,bathroom,SHINEd_sun_aavhrsfjbserjtht.tif,13,0.0666666666666667,0.0666666666666667,1.48333333333333,2270.894935125,2271.724648083,13,2270.961942041,2271.027554625,2271.751080416,2273.227780041,1,0.829712958000073
112,3,14,categorization,0,kitchen,SHINEd_labelme_kxvouciolcpqplr.tif,62,0.0666666666666667,0.0666666666666667,0.966666666666667,2273.246032416,2273.979523208,13,2273.312868166,2273.379100666,2274.002968,2274.962974083,0,0.733490791999884
112,4,14,categorization,0,bathroom,SHINEd_sun_acduarbnmmoglmiv.tif,16,0.0666666666666667,0.0666666666666667,0.916666666666667,2274.968680791,2275.721748125,13,2275.030614,2275.091495458,2275.726677666,2276.6366845,1,0.753067333999752
112,5,14,categorization,0,bathroom,SHINEd_sun_aofnryafpsjimzsb.tif,40,0.0666666666666667,0.0666666666666667,1.6,2276.641732083,2277.345558333,13,2276.703496416,2276.764437625,2277.350085833,2278.9434585,1,0.70382625000002
112,6,14,categorization,0,bathroom,SHINEd_sun_afcoljnjfoxjtgja.tif,20,0.0666666666666667,0.0666666666666667,0.7,2278.96104225,2279.865725166,13,2279.02793725,2279.094025291,2279.883940958,2280.577281208,1,0.904682916000183
112,7,14,categorization,0,kitchen,SHINEd_sun_aymvwlarqodbwuoc.tif,108,0.0666666666666667,0.0666666666666667,1.7,2280.5831505,2281.337058416,9,2280.644779666,2280.705839458,2281.341241583,2283.034606458,1,0.753907916000117
112,8,14,categorization,0,kitchen,SHINEd_sun_adgqasybjyktddhj.tif,78,0.0666666666666667,0.0666666666666667,1.05,2283.053092833,2283.926277458,9,2283.119435166,2283.1858095,2283.941947375,2284.98531825,1,0.873184625000249
112,9,14,categorization,0,kitchen,SHINEd_sun_admlmbcdswaszruo.tif,79,0.0666666666666667,0.0666666666666667,1.15,2284.996160166,2285.870858041,9,2285.061159083,2285.127670541,2285.90129425,2287.044664,1,0.874697874999583
112,10,14,categorization,0,bathroom,SHINEd_sun_agguqiubmwhqqunb.tif,22,0.0666666666666667,0.0666666666666667,1.85,2287.055495208,2288.102945958,9,2287.120929291,2287.188295125,2288.128406375,2289.97178225,0,1.04745074999983
112,11,14,categorization,0,bathroom,SHINEd_sun_ahaulkltgpkeeemi.tif,26,0.0666666666666667,0.0666666666666667,1.2,2289.990062708,2290.667701916,13,2290.058193708,2290.1232325,2290.696576708,2291.889952666,1,0.677639208000073
112,12,14,categorization,0,kitchen,SHINEd_sun_acfmftudsenhrfhy.tif,74,0.0666666666666667,0.0666666666666667,1.11666666666667,2291.901625625,2292.694891583,13,2291.968478916,2292.034577291,2292.724766,2293.834808708,0,0.793265957999665
112,13,14,categorization,0,kitchen,SHINEd_sun_abdxkyyxwfskuaqb.tif,70,0.0666666666666667,0.0666666666666667,1.41666666666667,2293.847568958,2294.75705,9,2293.912739041,2293.980746833,2294.788917583,2296.198962208,1,0.909481042000152
112,14,14,categorization,0,bathroom,SHINEd_sun_aclfzgynxzxlbepz.tif,19,0.0666666666666667,0.0666666666666667,1.05,2296.210771416,2296.969161,13,2296.275768,2296.343888166,2296.983031291,2298.026415791,1,0.758389583999815
112,15,14,categorization,0,kitchen,SHINEd_sun_ahspylgoovwmwvgk.tif,93,0.0666666666666667,0.0666666666666667,1.26666666666667,2298.036463541,2298.737267041,9,2298.099004791,2298.159201875,2298.7443005,2300.004347041,1,0.700803499999893
112,16,14,categorization,0,bathroom,SHINEd_sun_aunuadmjocsddsrl.tif,52,0.0666666666666667,0.0666666666666667,1.46666666666667,2300.022785375,2300.718531458,9,2300.089871541,2300.149742625,2300.739475083,2302.199517,0,0.695746083000358
112,17,14,categorization,0,kitchen,SHINEd_sun_aadbddgrdsjugojn.tif,64,0.0666666666666667,0.0666666666666667,0.8,2302.212011083,2302.849510583,9,2302.276892041,2302.345068583,2302.867428208,2303.660801291,1,0.637499500000104
112,18,14,categorization,0,bathroom,SHINEd_sun_ausgutylgojavyoq.tif,53,0.0666666666666667,0.0666666666666667,1.4,2303.676593291,2304.409849,13,2303.7434805,2303.809396833,2304.427996041,2305.821372708,1,0.733255709000332
112,19,14,categorization,0,bathroom,SHINEd_sun_apjevzvycyhuqghb.tif,43,0.0666666666666667,0.0666666666666667,0.966666666666667,2305.838759208,2307.018776208,13,2305.905317791,2305.971726083,2307.04481775,2308.004822791,1,1.18001700000013
112,20,14,categorization,0,kitchen,SHINEd_sun_agorklincwxrdtga.tif,87,0.0666666666666667,0.0666666666666667,0.916666666666667,2308.010164416,2308.945964333,9,2308.071933208,2308.132893583,2308.951799916,2309.861804208,1,0.935799917000168
112,21,14,categorization,0,bathroom,SHINEd_sun_ambriybtogmepttm.tif,36,0.0666666666666667,0.0666666666666667,1.11666666666667,2309.866777333,2310.897773791,9,2309.92854375,2309.989550958,2310.908249333,2312.018296666,0,1.03099645800012
112,22,14,categorization,0,bathroom,SHINEd_sun_abjtwfukuwddzted.tif,15,0.0666666666666667,0.0666666666666667,0.85,2312.030062041,2313.1643295,13,2312.094736833,2312.159232708,2313.181938458,2314.025289375,1,1.13426745900006
112,23,14,categorization,0,bathroom,SHINEd_sun_ajlawzvmubibwbpy.tif,30,0.0666666666666667,0.0666666666666667,1.81666666666667,2314.031201833,2314.777854833,13,2314.092895166,2314.154000333,2314.789431041,2316.599467041,1,0.746653000000151
112,24,14,categorization,0,kitchen,SHINEd_sun_abftihopvusyfakt.tif,71,0.0666666666666667,0.0666666666666667,1.81666666666667,2316.617554833,2317.694884916,13,2316.684415875,2316.750497625,2317.723930625,2319.533965125,0,1.07733008299965
112,25,14,categorization,0,bathroom,SHINEd_sun_agrwbmhcpmfuwmsg.tif,24,0.0666666666666667,0.0666666666666667,1.33333333333333,2319.552442083,2320.698281166,13,2319.619207583,2319.685463833,2320.726321125,2322.053024708,1,1.14583908299983
112,26,14,categorization,0,kitchen,SHINEd_sun_ahywdevtimnqcsln.tif,94,0.0666666666666667,0.0666666666666667,1,2322.073253583,2322.794515708,9,2322.140860958,2322.205660166,2322.8127295,2323.806104583,1,0.721262124999612
112,27,14,categorization,0,kitchen,SHINEd_sun_avszsnwsbuqfgzbn.tif,105,0.0666666666666667,0.0666666666666667,1.13333333333333,2323.825187666,2324.369464708,9,2323.887361625,2323.947961416,2324.383221625,2325.509946625,1,0.544277041999976
112,28,14,categorization,0,kitchen,SHINEd_sun_ahpczsiumwwocjkv.tif,92,0.0666666666666667,0.0666666666666667,1.16666666666667,2325.519837958,2326.419467,9,2325.584279333,2325.652402125,2326.441762708,2327.601798416,1,0.899629042000015
112,29,14,categorization,0,kitchen,SHINEd_sun_aehawpgmrlhlvcow.tif,81,0.0666666666666667,0.0666666666666667,0.75,2327.620246083,2328.315490708,9,2327.687307125,2327.752628541,2328.343191166,2329.086577708,1,0.695244625000214
112,30,14,categorization,0,bathroom,SHINEd_sun_azqyogdvyhahyram.tif,60,0.0666666666666667,0.0666666666666667,0.85,2329.106706708,2329.721784541,13,2329.17383375,2329.239542041,2329.74207525,2330.5854145,1,0.615077833000214
112,31,14,categorization,0,kitchen,SHINEd_sun_aixorpehvfykdynp.tif,95,0.0666666666666667,0.0666666666666667,1.28333333333333,2330.590491708,2331.225639916,9,2330.652156083,2330.713183708,2331.231680458,2332.508382041,1,0.635148207999919
112,32,14,categorization,0,bathroom,SHINEd_sun_aapitsgbtktqubfy.tif,12,0.0666666666666667,0.0666666666666667,0.9,2332.525295083,2333.3714515,9,2332.591901208,2332.658009833,2333.398111875,2334.291455208,0,0.846156417000202
112,33,14,categorization,0,kitchen,SHINEd_sun_ahdycvpopffkzzsu.tif,90,0.0666666666666667,0.0666666666666667,0.766666666666667,2334.305261458,2335.369216833,9,2334.36697125,2334.428090791,2335.380014208,2336.140019375,1,1.06395537499975
112,34,14,categorization,0,bathroom,SHINEd_sun_anryaplzeujmzfkd.tif,39,0.0666666666666667,0.0666666666666667,1.5,2336.144712,2337.113576333,13,2336.20648825,2336.267454708,2337.11942325,2338.612795875,1,0.968864333000056
112,35,14,categorization,0,kitchen,SHINEd_sun_ajcbwwvdlsvjyzje.tif,96,0.0666666666666667,0.0666666666666667,0.8,2338.630958416,2339.469367666,9,2338.698079,2338.76433175,2339.487894875,2340.281232208,1,0.838409250000041
112,36,14,categorization,0,bathroom,SHINEd_sun_amzlamotzwfkwjco.tif,37,0.0666666666666667,0.0666666666666667,0.75,2340.286239375,2341.009101416,13,2340.347895583,2340.408969875,2341.027530666,2341.770868291,1,0.722862040999644
112,37,14,categorization,0,kitchen,SHINEd_sun_aqeaevwwwjoqhzvl.tif,101,0.0666666666666667,0.0666666666666667,1.83333333333333,2341.776000541,2342.513071333,9,2341.837664833,2341.898733583,2342.517273875,2344.343971708,1,0.73707079199994
112,38,14,categorization,0,kitchen,SHINEd_sun_aapllqyqlykszopd.tif,66,0.0666666666666667,0.0666666666666667,0.933333333333333,2344.362984833,2345.242562458,9,2344.429622916,2344.4958845,2345.269153166,2346.195824291,1,0.879577624999911
112,39,14,categorization,0,bathroom,SHINEd_sun_avhrdrntsqrjzccq.tif,55,0.0666666666666667,0.0666666666666667,1.61666666666667,2346.200722375,2347.177112958,9,2346.26238075,2346.3234455,2347.191917458,2348.801959875,0,0.976390583000011
112,40,14,categorization,0,bathroom,SHINEd_sun_ahijqszoswveeyji.tif,28,0.0666666666666667,0.0666666666666667,0.883333333333333,2348.820868291,2349.78860525,13,2348.887479708,2348.953785791,2349.810741375,2350.6874145,1,0.967736958999922
112,41,14,categorization,0,kitchen,SHINEd_sun_ajkqhtgcbgpcwrwn.tif,97,0.0666666666666667,0.0666666666666667,1.35,2350.704621333,2351.401089916,9,2350.766384583,2350.82783275,2351.412891625,2352.756274083,1,0.696468582999842
112,42,14,categorization,0,kitchen,SHINEd_sun_abrcnpqqhmjwekyf.tif,73,0.0666666666666667,0.0666666666666667,1.35,2352.775791333,2353.662105458,9,2352.842896708,2352.908977916,2353.68309925,2355.026484416,1,0.886314124999899
112,43,14,categorization,0,kitchen,SHINEd_sun_aarfiyshqohlwkmo.tif,67,0.0666666666666667,0.0666666666666667,1.66666666666667,2355.047437416,2356.034244458,9,2355.114463458,2355.180715708,2356.054415,2357.714451125,1,0.986807042000237
112,44,14,categorization,0,bathroom,SHINEd_sun_apmqjbnwghzuhhzh.tif,46,0.0666666666666667,0.0666666666666667,0.766666666666667,2357.732018916,2358.457003625,13,2357.799224208,2357.865014583,2358.4897235,2359.249732291,1,0.724984709000182
112,45,14,categorization,0,bathroom,SHINEd_sun_aghyqhbptboemmoq.tif,23,0.0666666666666667,0.0666666666666667,1.18333333333333,2359.256501458,2360.064864166,13,2359.318442166,2359.379236583,2360.0811955,2361.257908458,1,0.808362708000004
112,46,14,categorization,0,bathroom,SHINEd_sun_aljolscmmzydegqp.tif,33,0.0666666666666667,0.0666666666666667,1.43333333333333,2361.269293,2362.236991666,13,2361.336449166,2361.402050583,2362.257129208,2363.683840666,1,0.96769866600016
112,47,14,categorization,0,bathroom,SHINEd_sun_axxbkopsgyouuebh.tif,58,0.0666666666666667,0.0666666666666667,0.933333333333333,2363.702922958,2364.491922375,13,2363.769809541,2363.83552025,2364.508445625,2365.4351225,1,0.788999417000014
112,48,14,categorization,0,bathroom,SHINEd_sun_aspsyogrekjtfozg.tif,50,0.0666666666666667,0.0666666666666667,1.23333333333333,2365.440922875,2366.104836666,9,2365.502612041,2365.56355675,2366.115509208,2367.34222425,0,0.663913791000141
112,49,14,categorization,0,bathroom,SHINEd_sun_apynckhmoftszqoq.tif,47,0.0666666666666667,0.0666666666666667,0.783333333333333,2367.360763708,2368.299101375,13,2367.427361958,2367.493714958,2368.317500375,2369.0942095,1,0.938337667000269
112,50,14,categorization,0,kitchen,SHINEd_sun_afuyedyxivkhecmu.tif,85,0.0666666666666667,0.0666666666666667,1.05,2369.110512291,2370.017102541,9,2369.1732155,2369.233388291,2370.035265875,2371.078637375,1,0.906590250000136
