sub_num,trial,block,task,is_practice,category,image,texture,duration,mask_dur,jitter,stim_time,time_of_resp,trial_response,mask_time,fix_time,jit_onset,trial_end,trial_accuracy,RT
136,6,0,aesthetic,1,kitchen,kitchen_practice2.tif,227,1.5,0,1.08333333333333,3126.181824333,3129.441141833,5,NaN,3129.447305666,3129.465795291,3130.542528916,NaN,NaN
136,7,0,aesthetic,1,kitchen,kitchen_practice1.tif,226,1.5,0,1.06666666666667,3130.550890208,3133.025151875,3,NaN,3133.030695,3133.049087833,3134.109180166,NaN,NaN
136,8,0,aesthetic,1,kitchen,kitchen_practice4.tif,229,1.5,0,1.11666666666667,3134.122128791,3136.872894375,4,NaN,3136.878697625,3136.897003333,3138.007082833,NaN,NaN
136,9,0,aesthetic,1,kitchen,kitchen_practice3.tif,228,1.5,0,0.95,3138.016674875,3140.712826708,5,NaN,3140.718582208,3140.736917,3141.680261041,NaN,NaN
136,10,0,aesthetic,1,kitchen,kitchen_practice5.tif,230,1.5,0,0.9,3141.685964208,3145.361240708,4,NaN,3145.36679225,3145.385740916,3146.279082416,NaN,NaN
136,1,1,aesthetic,0,kitchen,sun_ahljzhgcdpomplvg.tif,201,1.5,0,1.48333333333333,3150.36490375,3153.23456475,4,NaN,3153.263066458,3153.286590416,3154.763346041,NaN,NaN
136,2,1,aesthetic,0,kitchen,sun_afuyedyxivkhecmu.tif,195,1.5,0,1.46666666666667,3154.783564208,3157.648649333,3,NaN,3157.654610083,3157.673087708,3159.133150958,NaN,NaN
136,3,1,aesthetic,0,kitchen,sun_adgqasybjyktddhj.tif,188,1.5,0,0.766666666666667,3159.152155375,3163.112969916,5,NaN,3163.118578583,3163.136917541,3163.896924375,NaN,NaN
136,4,1,aesthetic,0,kitchen,sun_ahpczsiumwwocjkv.tif,202,1.5,0,1.16666666666667,3163.902417,3166.709907583,6,NaN,3166.739035166,3166.762624583,3167.922721833,NaN,NaN
136,5,1,aesthetic,0,kitchen,sun_agorklincwxrdtga.tif,197,1.5,0,1.6,3167.933489791,3170.704329916,6,NaN,3170.710258083,3170.728604791,3172.322042375,NaN,NaN
136,6,1,aesthetic,0,kitchen,sun_auaiucuqpdausiva.tif,212,1.5,0,1.68333333333333,3172.338390333,3174.865255958,6,NaN,3174.870762333,3174.889181666,3176.565941458,NaN,NaN
136,7,1,aesthetic,0,kitchen,sun_aapllqyqlykszopd.tif,176,1.5,0,1.5,3176.585529416,3179.137775041,3,NaN,3179.166903625,3179.190178708,3180.683594416,NaN,NaN
136,8,1,aesthetic,0,kitchen,sun_awcpdzzznmweyyhv.tif,216,1.5,0,0.833333333333333,3180.700146708,3183.20877575,3,NaN,3183.214247208,3183.232619666,3184.059293291,NaN,NaN
136,9,1,aesthetic,0,kitchen,sun_aadbddgrdsjugojn.tif,174,1.5,0,0.9,3184.063840625,3186.711545291,3,NaN,3186.740683333,3186.76427975,3187.65762225,NaN,NaN
136,10,1,aesthetic,0,kitchen,sun_aegoxogugdkwpmpj.tif,190,1.5,0,0.933333333333333,3187.66230825,3190.43375375,3,NaN,3190.46215325,3190.485985666,3191.41266325,NaN,NaN
136,11,1,aesthetic,0,kitchen,sun_abrcnpqqhmjwekyf.tif,183,1.5,0,0.9,3191.41878575,3193.984216375,4,NaN,3194.009138291,3194.0333255,3194.92666825,NaN,NaN
136,12,1,aesthetic,0,kitchen,sun_avszsnwsbuqfgzbn.tif,215,1.5,0,0.85,3194.931577958,3197.515656958,4,NaN,3197.533056208,3197.554760416,3198.398100625,NaN,NaN
136,13,1,aesthetic,0,kitchen,labelme_kxvouciolcpqplr.tif,172,1.5,0,1.83333333333333,3198.402874333,3200.93997975,2,NaN,3200.969968958,3200.9936085,3202.820381833,NaN,NaN
136,14,1,aesthetic,0,kitchen,sun_agzzivivdpnawacl.tif,199,1.5,0,0.733333333333333,3202.838637166,3205.68797175,2,NaN,3205.714504166,3205.736304416,3206.462979083,NaN,NaN
136,15,1,aesthetic,0,kitchen,sun_aunzlwrbjumxhwdj.tif,213,1.5,0,1.63333333333333,3206.469005333,3209.713060083,5,NaN,3209.719068416,3209.737401166,3211.364167333,NaN,NaN
136,16,1,aesthetic,0,kitchen,sun_aymvwlarqodbwuoc.tif,218,1.5,0,0.766666666666667,3211.38302025,3213.972691625,3,NaN,3213.996408708,3214.020179666,3214.780287875,NaN,NaN
136,17,1,aesthetic,0,kitchen,sun_abpwyqmlzafvklqo.tif,182,1.5,0,1.71666666666667,3214.797225166,3217.185043916,3,NaN,3217.209586958,3217.233133625,3218.943230083,NaN,NaN
136,18,1,aesthetic,0,kitchen,sun_abdxkyyxwfskuaqb.tif,180,1.5,0,1.51666666666667,3218.962534541,3222.76863925,4,NaN,3222.774268666,3222.792783541,3224.30286275,NaN,NaN
136,19,1,aesthetic,0,kitchen,sun_aaxxjlsuzvqlgylf.tif,178,1.5,0,1.25,3224.319580625,3227.488827666,6,NaN,3227.494550541,3227.513072833,3228.756466083,NaN,NaN
136,20,1,aesthetic,0,kitchen,sun_azmutvzbxypaceni.tif,220,1.5,0,1.41666666666667,3228.775708916,3231.8004535,5,NaN,3231.806267666,3231.824619916,3233.234712666,NaN,NaN
136,21,1,aesthetic,0,kitchen,sun_axyyrmzcupyhlivc.tif,217,1.5,0,1.1,3233.254355625,3236.311982125,6,NaN,3236.317986291,3236.3361185,3237.429534208,NaN,NaN
136,22,1,aesthetic,0,kitchen,sun_ajkqhtgcbgpcwrwn.tif,207,1.5,0,0.95,3237.438616,3240.104423791,3,NaN,3240.1101495,3240.128438541,3241.071779416,NaN,NaN
136,23,1,aesthetic,0,kitchen,sun_aamedkxepzlwuxes.tif,175,1.5,0,1.45,3241.076618,3244.039784416,2,NaN,3244.06662875,3244.090303333,3245.533694666,NaN,NaN
136,24,1,aesthetic,0,kitchen,sun_akcjzhbbjlbogpdi.tif,209,1.5,0,0.883333333333333,3245.546460916,3248.391919416,2,NaN,3248.398087583,3248.416660833,3249.29333725,NaN,NaN
136,25,1,aesthetic,0,kitchen,sun_ahywdevtimnqcsln.tif,204,1.5,0,1.23333333333333,3249.297559333,3252.3083545,3,NaN,3252.337929,3252.361648333,3253.588410416,NaN,NaN
136,1,2,aesthetic,0,kitchen,sun_aeqdocilnnpuvuhx.tif,193,1.5,0,1.78333333333333,3257.49737875,3260.088664,1,NaN,3260.120209333,3260.143730583,3261.920490291,NaN,NaN
136,2,2,aesthetic,0,kitchen,sun_aggjlwcdjsjcaemh.tif,196,1.5,0,1.8,3261.940064458,3264.460727625,1,NaN,3264.490370083,3264.514365291,3266.307798208,NaN,NaN
136,3,2,aesthetic,0,kitchen,sun_aixorpehvfykdynp.tif,205,1.5,0,0.8,3266.3278005,3268.810064333,3,NaN,3268.837389666,3268.861354625,3269.654757791,NaN,NaN
136,4,2,aesthetic,0,kitchen,sun_acfmftudsenhrfhy.tif,184,1.5,0,1.01666666666667,3269.6691145,3272.399614291,4,NaN,3272.4309195,3272.454854,3273.464929958,NaN,NaN
136,5,2,aesthetic,0,kitchen,sun_acxkpeoqbwcxfvip.tif,187,1.5,0,0.85,3273.474947708,3276.208032041,6,NaN,3276.213919125,3276.232333,3277.075672625,NaN,NaN
136,6,2,aesthetic,0,kitchen,sun_admlmbcdswaszruo.tif,189,1.5,0,1.83333333333333,3277.080103791,3279.503222416,6,NaN,3279.528554083,3279.55216975,3281.378942166,NaN,NaN
136,7,2,aesthetic,0,kitchen,sun_aexklacwqwezaorf.tif,194,1.5,0,1.11666666666667,3281.398943041,3284.058259541,6,NaN,3284.086636458,3284.11045025,3285.220541791,NaN,NaN
136,8,2,aesthetic,0,kitchen,sun_agubuxuukhzyzpdp.tif,198,1.5,0,1.88333333333333,3285.232681708,3287.624518916,2,NaN,3287.630045916,3287.648463541,3289.525188583,NaN,NaN
136,9,2,aesthetic,0,kitchen,sun_aypmqwcualkenuoe.tif,219,1.5,0,0.916666666666667,3289.536191625,3292.251918791,5,NaN,3292.280935208,3292.304701,3293.214709666,NaN,NaN
136,10,2,aesthetic,0,kitchen,labelme_rykdqxenmhulbdn.tif,173,1.5,0,1.05,3293.219827625,3295.691933916,3,NaN,3295.714795666,3295.735710875,3296.779475416,NaN,NaN
136,11,2,aesthetic,0,kitchen,sun_aqeaevwwwjoqhzvl.tif,211,1.5,0,1.35,3296.790908208,3299.687681916,2,NaN,3299.694106625,3299.7124665,3301.055895583,NaN,NaN
136,12,2,aesthetic,0,kitchen,sun_ahspylgoovwmwvgk.tif,203,1.5,0,1.01666666666667,3301.072061416,3303.632448666,6,NaN,3303.637937416,3303.656283291,3304.666478666,NaN,NaN
136,13,2,aesthetic,0,kitchen,sun_aehawpgmrlhlvcow.tif,191,1.5,0,2,3304.677177291,3307.296711291,4,NaN,3307.302324708,3307.320703458,3309.314117166,NaN,NaN
136,14,2,aesthetic,0,kitchen,sun_ahdycvpopffkzzsu.tif,200,1.5,0,0.9,3309.334248125,3312.728477791,2,NaN,3312.734254833,3312.752566458,3313.64590925,NaN,NaN
136,15,2,aesthetic,0,kitchen,sun_akchetnepxlcxhsu.tif,208,1.5,0,1.15,3313.651756916,3317.032423541,4,NaN,3317.038256666,3317.056531291,3318.199925041,NaN,NaN
136,16,2,aesthetic,0,kitchen,sun_abdenxonkemggwsq.tif,179,1.5,0,1.23333333333333,3318.210376791,3321.776307708,5,NaN,3321.781936666,3321.800316708,3323.027082833,NaN,NaN
136,17,2,aesthetic,0,kitchen,sun_ajcbwwvdlsvjyzje.tif,206,1.5,0,1.03333333333333,3323.045473583,3325.8639765,5,NaN,3325.869886208,3325.88831825,3326.915070291,NaN,NaN
136,18,2,aesthetic,0,kitchen,sun_acgtpgfybqjmzeyw.tif,185,1.5,0,0.783333333333333,3326.924305208,3329.560206208,4,NaN,3329.565828583,3329.584690875,3330.361365583,NaN,NaN
136,19,2,aesthetic,0,kitchen,sun_acwjdupvyjsugpay.tif,186,1.5,0,0.766666666666667,3330.366012458,3333.097090416,3,NaN,3333.120593083,3333.144179291,3333.904189708,NaN,NaN
136,20,2,aesthetic,0,kitchen,sun_auticobqsbwgoppi.tif,214,1.5,0,1.18333333333333,3333.909083791,3337.535914625,3,NaN,3337.542014625,3337.560217833,3338.736920708,NaN,NaN
136,21,2,aesthetic,0,kitchen,sun_aenotlpyftoioydp.tif,192,1.5,0,0.7,3338.746333208,3341.407536625,3,NaN,3341.41355275,3341.431901416,3342.12524375,NaN,NaN
136,22,2,aesthetic,0,kitchen,labelme_brsyyvweiuaazfr.tif,171,1.5,0,0.7,3342.129732791,3345.472560166,6,NaN,3345.478113375,3345.496318875,3346.189658708,NaN,NaN
136,23,2,aesthetic,0,kitchen,sun_abftihopvusyfakt.tif,181,1.5,0,1.55,3346.194162541,3349.099780208,6,NaN,3349.129927375,3349.153788208,3350.6972205,NaN,NaN
136,24,2,aesthetic,0,kitchen,sun_aarfiyshqohlwkmo.tif,177,1.5,0,1.16666666666667,3350.716086458,3353.408994916,5,NaN,3353.439114583,3353.462835875,3354.622940416,NaN,NaN
136,25,2,aesthetic,0,kitchen,sun_amjjdeyrggfqgmom.tif,210,1.5,0,1.68333333333333,3354.635332,3357.168133083,3,NaN,3357.173745375,3357.192115916,3358.868870166,NaN,NaN
