sub_num,trial,block,task,is_practice,category,image,texture,duration,mask_dur,jitter,stim_time,time_of_resp,trial_response,mask_time,fix_time,jit_onset,trial_end,trial_accuracy,RT
125,6,0,complexity,1,kitchen,kitchen_practice5.tif,230,1.5,0,1.46666666666667,3275.180956333,3278.1039325,3,NaN,3278.132728833,3278.155812833,3279.615893166,NaN,NaN
125,7,0,complexity,1,kitchen,kitchen_practice2.tif,227,1.5,0,1.31666666666667,3279.6306925,3282.583281375,6,NaN,3282.58884975,3282.607247083,3283.91730625,NaN,NaN
125,8,0,complexity,1,kitchen,kitchen_practice4.tif,229,1.5,0,1.76666666666667,3283.929967083,3286.871923833,6,NaN,3286.877377041,3286.895701083,3288.6557685,NaN,NaN
125,9,0,complexity,1,kitchen,kitchen_practice1.tif,226,1.5,0,0.816666666666667,3288.67118475,3291.510401416,7,NaN,3291.538934416,3291.562151041,3292.372157208,NaN,NaN
125,10,0,complexity,1,kitchen,kitchen_practice3.tif,228,1.5,0,0.9,3292.3766475,3295.502973291,5,NaN,3295.509607666,3295.527955166,3296.421296458,NaN,NaN
125,1,1,complexity,0,kitchen,sun_avszsnwsbuqfgzbn.tif,215,1.5,0,1.15,3301.258817791,3304.423553,7,NaN,3304.431162,3304.449662208,3305.593066041,NaN,NaN
125,2,1,complexity,0,kitchen,sun_ahpczsiumwwocjkv.tif,202,1.5,0,1.33333333333333,3305.603456708,3308.7912215,4,NaN,3308.79702,3308.815347875,3310.142123291,NaN,NaN
125,3,1,complexity,0,kitchen,sun_aeqdocilnnpuvuhx.tif,193,1.5,0,1.75,3310.160601708,3312.870805916,3,NaN,3312.876935,3312.895515875,3314.638930708,NaN,NaN
125,4,1,complexity,0,kitchen,sun_ahywdevtimnqcsln.tif,204,1.5,0,1.2,3314.656492083,3317.682830958,4,NaN,3317.711956541,3317.735619125,3318.929013958,NaN,NaN
125,5,1,complexity,0,kitchen,sun_aqeaevwwwjoqhzvl.tif,211,1.5,0,1.46666666666667,3318.948619833,3321.783697583,6,NaN,3321.789175166,3321.807585833,3323.267672291,NaN,NaN
125,6,1,complexity,0,kitchen,sun_aehawpgmrlhlvcow.tif,191,1.5,0,1.01666666666667,3323.285939791,3326.350953708,4,NaN,3326.356714541,3326.375004958,3327.385095916,NaN,NaN
125,7,1,complexity,0,kitchen,sun_agorklincwxrdtga.tif,197,1.5,0,1.18333333333333,3327.393159125,3330.183523666,5,NaN,3330.18914625,3330.207695375,3331.384460708,NaN,NaN
125,8,1,complexity,0,kitchen,sun_agzzivivdpnawacl.tif,199,1.5,0,1.03333333333333,3331.393203625,3334.639605416,3,NaN,3334.645104916,3334.663467166,3335.690235791,NaN,NaN
125,9,1,complexity,0,kitchen,sun_acfmftudsenhrfhy.tif,184,1.5,0,1.25,3335.698540375,3338.495574208,4,NaN,3338.501238916,3338.519600291,3339.763013583,NaN,NaN
125,10,1,complexity,0,kitchen,sun_aarfiyshqohlwkmo.tif,177,1.5,0,0.733333333333333,3339.781228375,3342.695475458,4,NaN,3342.700935125,3342.71915475,3343.445832708,NaN,NaN
125,11,1,complexity,0,kitchen,labelme_rykdqxenmhulbdn.tif,173,1.5,0,1.01666666666667,3343.450671875,3347.343800791,3,NaN,3347.349307041,3347.367601166,3348.377675083,NaN,NaN
125,12,1,complexity,0,kitchen,sun_aexklacwqwezaorf.tif,194,1.5,0,1.53333333333333,3348.385246666,3355.319872208,7,NaN,3355.326202708,3355.344435708,3356.871187416,NaN,NaN
125,13,1,complexity,0,kitchen,sun_aunzlwrbjumxhwdj.tif,213,1.5,0,1.33333333333333,3356.889239041,3360.415291833,5,NaN,3360.420924583,3360.43929525,3361.766019458,NaN,NaN
125,14,1,complexity,0,kitchen,sun_ahljzhgcdpomplvg.tif,201,1.5,0,1.53333333333333,3361.785600208,3365.239488583,2,NaN,3365.245053875,3365.263361958,3366.790112125,NaN,NaN
125,15,1,complexity,0,kitchen,labelme_kxvouciolcpqplr.tif,172,1.5,0,1.01666666666667,3366.808972125,3369.903442375,1,NaN,3369.908930333,3369.927313958,3370.937375125,NaN,NaN
125,16,1,complexity,0,kitchen,sun_awcpdzzznmweyyhv.tif,216,1.5,0,1.23333333333333,3370.945661958,3373.918719333,5,NaN,3373.924673166,3373.942936583,3375.169687,NaN,NaN
125,17,1,complexity,0,kitchen,sun_aaxxjlsuzvqlgylf.tif,178,1.5,0,1.18333333333333,3375.1878365,3378.375608333,6,NaN,3378.381203166,3378.399509041,3379.576234375,NaN,NaN
125,18,1,complexity,0,kitchen,sun_aamedkxepzlwuxes.tif,175,1.5,0,0.783333333333333,3379.587107208,3383.310686958,6,NaN,3383.316674875,3383.334877416,3384.111555125,NaN,NaN
125,19,1,complexity,0,kitchen,sun_ajcbwwvdlsvjyzje.tif,206,1.5,0,1.73333333333333,3384.116582,3387.158690458,6,NaN,3387.178659166,3387.200095833,3388.9268295,NaN,NaN
125,20,1,complexity,0,kitchen,sun_azmutvzbxypaceni.tif,220,1.5,0,1.21666666666667,3388.945705,3391.956345958,2,NaN,3391.98128275,3392.003452291,3393.213524625,NaN,NaN
125,21,1,complexity,0,kitchen,sun_acxkpeoqbwcxfvip.tif,187,1.5,0,1.26666666666667,3393.232465583,3396.3433975,4,NaN,3396.348872666,3396.367166458,3397.627239083,NaN,NaN
125,22,1,complexity,0,kitchen,sun_aggjlwcdjsjcaemh.tif,196,1.5,0,0.783333333333333,3397.64201375,3400.462949291,3,NaN,3400.4690025,3400.487337208,3401.264014125,NaN,NaN
125,23,1,complexity,0,kitchen,sun_aadbddgrdsjugojn.tif,174,1.5,0,1.48333333333333,3401.268638708,3405.238572375,3,NaN,3405.244552333,3405.2628675,3406.739618583,NaN,NaN
125,24,1,complexity,0,kitchen,sun_acwjdupvyjsugpay.tif,186,1.5,0,1.36666666666667,3406.756133208,3410.01489375,1,NaN,3410.020677875,3410.039035333,3411.399140791,NaN,NaN
125,25,1,complexity,0,kitchen,sun_auticobqsbwgoppi.tif,214,1.5,0,0.983333333333333,3411.420317208,3414.671570666,3,NaN,3414.677009458,3414.695357416,3415.672033291,NaN,NaN
125,1,2,complexity,0,kitchen,sun_aixorpehvfykdynp.tif,205,1.5,0,1.26666666666667,3419.794813041,3422.720444333,4,NaN,3422.751474083,3422.775294708,3424.03539875,NaN,NaN
125,2,2,complexity,0,kitchen,sun_aypmqwcualkenuoe.tif,219,1.5,0,1.11666666666667,3424.054289125,3427.11139925,7,NaN,3427.116992166,3427.135296208,3428.245350583,NaN,NaN
125,3,2,complexity,0,kitchen,sun_aymvwlarqodbwuoc.tif,218,1.5,0,1.43333333333333,3428.2539745,3431.158966583,4,NaN,3431.164561583,3431.183534458,3432.610266875,NaN,NaN
125,4,2,complexity,0,kitchen,sun_amjjdeyrggfqgmom.tif,210,1.5,0,0.8,3432.628952958,3435.974485875,2,NaN,3435.980527583,3435.998695958,3436.792040458,NaN,NaN
125,5,2,complexity,0,kitchen,sun_akcjzhbbjlbogpdi.tif,209,1.5,0,0.733333333333333,3436.796381125,3441.527486833,3,NaN,3441.533029666,3441.551276166,3442.277953875,NaN,NaN
125,6,2,complexity,0,kitchen,sun_abdxkyyxwfskuaqb.tif,180,1.5,0,1.03333333333333,3442.282922666,3446.431431833,7,NaN,3446.437660458,3446.455958333,3447.482684708,NaN,NaN
125,7,2,complexity,0,kitchen,sun_acgtpgfybqjmzeyw.tif,185,1.5,0,1.56666666666667,3447.491628041,3450.335487083,3,NaN,3450.341055791,3450.35938225,3451.919487458,NaN,NaN
125,8,2,complexity,0,kitchen,sun_ahdycvpopffkzzsu.tif,200,1.5,0,0.866666666666667,3451.93614925,3455.126457208,2,NaN,3455.132365791,3455.150651625,3456.010662541,NaN,NaN
125,9,2,complexity,0,kitchen,sun_ajkqhtgcbgpcwrwn.tif,207,1.5,0,0.716666666666667,3456.016705,3459.366904625,5,NaN,3459.372435208,3459.390740208,3460.100747708,NaN,NaN
125,10,2,complexity,0,kitchen,sun_agubuxuukhzyzpdp.tif,198,1.5,0,1.33333333333333,3460.105180041,3463.719142041,5,NaN,3463.724588541,3463.743005708,3465.069765,NaN,NaN
125,11,2,complexity,0,kitchen,sun_aegoxogugdkwpmpj.tif,190,1.5,0,1.01666666666667,3465.087681791,3467.998304666,6,NaN,3468.004338958,3468.0226785,3469.032781,NaN,NaN
125,12,2,complexity,0,kitchen,sun_aenotlpyftoioydp.tif,192,1.5,0,0.733333333333333,3469.040144125,3472.399196333,1,NaN,3472.404683291,3472.423082958,3473.149760083,NaN,NaN
125,13,2,complexity,0,kitchen,sun_auaiucuqpdausiva.tif,212,1.5,0,1.38333333333333,3473.153991041,3476.350553125,5,NaN,3476.356453208,3476.374793541,3477.751543375,NaN,NaN
125,14,2,complexity,0,kitchen,sun_aapllqyqlykszopd.tif,176,1.5,0,1.06666666666667,3477.769470416,3480.782949291,4,NaN,3480.788553,3480.80697775,3481.867037291,NaN,NaN
125,15,2,complexity,0,kitchen,sun_adgqasybjyktddhj.tif,188,1.5,0,0.85,3481.875995791,3485.039118958,3,NaN,3485.044630666,3485.063025375,3485.906367666,NaN,NaN
125,16,2,complexity,0,kitchen,labelme_brsyyvweiuaazfr.tif,171,1.5,0,0.9,3485.910939125,3489.095258791,6,NaN,3489.101188833,3489.119601125,3490.012945708,NaN,NaN
125,17,2,complexity,0,kitchen,sun_admlmbcdswaszruo.tif,189,1.5,0,1.55,3490.017355791,3493.343185875,3,NaN,3493.348684625,3493.366890541,3494.910331791,NaN,NaN
125,18,2,complexity,0,kitchen,sun_abrcnpqqhmjwekyf.tif,183,1.5,0,0.7,3494.927675666,3497.815208208,2,NaN,3497.820666833,3497.838945708,3498.532286791,NaN,NaN
125,19,2,complexity,0,kitchen,sun_abdenxonkemggwsq.tif,179,1.5,0,0.716666666666667,3498.536633916,3501.359781708,7,NaN,3501.389024791,3501.412864666,3502.122872416,NaN,NaN
125,20,2,complexity,0,kitchen,sun_akchetnepxlcxhsu.tif,208,1.5,0,0.85,3502.127683958,3505.010564083,5,NaN,3505.039295458,3505.062692958,3505.906036625,NaN,NaN
125,21,2,complexity,0,kitchen,sun_axyyrmzcupyhlivc.tif,217,1.5,0,1.35,3505.910763583,3508.551411791,6,NaN,3508.57909975,3508.60261475,3509.946010333,NaN,NaN
125,22,2,complexity,0,kitchen,sun_abftihopvusyfakt.tif,181,1.5,0,1.96666666666667,3509.964811458,3513.014219875,4,NaN,3513.020118375,3513.038408583,3514.998508916,NaN,NaN
125,23,2,complexity,0,kitchen,sun_afuyedyxivkhecmu.tif,195,1.5,0,0.933333333333333,3515.017945291,3518.255489875,7,NaN,3518.264059916,3518.283171916,3519.209847583,NaN,NaN
125,24,2,complexity,0,kitchen,sun_ahspylgoovwmwvgk.tif,203,1.5,0,1.33333333333333,3519.214388875,3521.991474791,4,NaN,3522.010899208,3522.033872958,3523.36064075,NaN,NaN
125,25,2,complexity,0,kitchen,sun_abpwyqmlzafvklqo.tif,182,1.5,0,1.16666666666667,3523.380506875,3525.998859791,3,NaN,3526.004317416,3526.02270075,3527.182763791,NaN,NaN
