sub_num,trial,block,task,is_practice,category,image,texture,duration,mask_dur,jitter,stim_time,time_of_resp,trial_response,mask_time,fix_time,jit_onset,trial_end,trial_accuracy,RT
140,1,0,usability,1,bathroom,bathroom_practice3.tif,223,1.5,0,0.983333333333333,1820.143380041,1827.350439875,7,NaN,1827.356841708,1827.375697791,1828.352426708,NaN,NaN
140,2,0,usability,1,bathroom,bathroom_practice4.tif,224,1.5,0,1.78333333333333,1828.357562458,1830.930014833,5,NaN,1830.959811083,1830.983966625,1832.760844083,NaN,NaN
140,3,0,usability,1,bathroom,bathroom_practice5.tif,225,1.5,0,1.78333333333333,1832.780416916,1835.478853916,6,NaN,1835.503342125,1835.525421416,1837.302127375,NaN,NaN
140,4,0,usability,1,bathroom,bathroom_practice2.tif,222,1.5,0,1.26666666666667,1837.32208975,1843.110373958,4,NaN,1843.115948458,1843.134295541,1844.394334916,NaN,NaN
140,5,0,usability,1,bathroom,bathroom_practice1.tif,221,1.5,0,1.05,1844.405758583,1848.334735958,4,NaN,1848.340270958,1848.358487,1849.401851666,NaN,NaN
140,1,1,usability,0,bathroom,sun_apynckhmoftszqoq.tif,157,1.5,0,1.01666666666667,1853.916723041,1856.481707166,1,NaN,1856.5083955,1856.532346416,1857.54238675,NaN,NaN
140,2,1,usability,0,bathroom,sun_avhrdrntsqrjzccq.tif,165,1.5,0,1.61666666666667,1857.563300541,1861.798260916,4,NaN,1861.8041475,1861.822497666,1863.432546166,NaN,NaN
140,3,1,usability,0,bathroom,sun_apkxzenqapsujocq.tif,155,1.5,0,1.16666666666667,1863.450496041,1869.294465166,3,NaN,1869.300100416,1869.318439083,1870.478456625,NaN,NaN
140,4,1,usability,0,bathroom,sun_aoybiabnpadelefl.tif,151,1.5,0,0.983333333333333,1870.487382958,1874.141767583,2,NaN,1874.147733083,1874.166007083,1875.14267825,NaN,NaN
140,5,1,usability,0,bathroom,sun_aggnnqpdorgxpvce.tif,131,1.5,0,0.783333333333333,1875.148089166,1881.005556208,4,NaN,1881.01184875,1881.030264666,1881.806935416,NaN,NaN
140,6,1,usability,0,bathroom,sun_ambriybtogmepttm.tif,146,1.5,0,0.816666666666667,1881.811509208,1887.693534333,1,NaN,1887.699919791,1887.718250916,1888.528256708,NaN,NaN
140,7,1,usability,0,bathroom,sun_agrwbmhcpmfuwmsg.tif,134,1.5,0,1.1,1888.545993208,1894.262530458,4,NaN,1894.268180833,1894.28659675,1895.379967583,NaN,NaN
140,8,1,usability,0,bathroom,sun_amzlamotzwfkwjco.tif,147,1.5,0,1.65,1895.38777975,1900.222424375,2,NaN,1900.228872041,1900.248764125,1901.892137541,NaN,NaN
140,9,1,usability,0,bathroom,sun_afcoljnjfoxjtgja.tif,130,1.5,0,1.13333333333333,1901.909458125,1905.725947583,5,NaN,1905.732716541,1905.751059333,1906.877777583,NaN,NaN
140,10,1,usability,0,bathroom,sun_aofnryafpsjimzsb.tif,150,1.5,0,0.766666666666667,1906.886198958,1911.110263208,6,NaN,1911.115979958,1911.134609541,1911.894614166,NaN,NaN
140,11,1,usability,0,bathroom,sun_apeeialkgkuxddgh.tif,152,1.5,0,1.25,1911.91264575,1917.606453625,5,NaN,1917.6133865,1917.631872833,1918.875260666,NaN,NaN
140,12,1,usability,0,bathroom,sun_aavhrsfjbserjtht.tif,123,1.5,0,1.5,1918.891655291,1922.189983,7,NaN,1922.195479708,1922.21439775,1923.707778166,NaN,NaN
140,13,1,usability,0,bathroom,labelme_sfxiulhjbhlyiyt.tif,121,1.5,0,1.56666666666667,1923.725676208,1927.94192375,5,NaN,1927.947947166,1927.966162666,1929.526200541,NaN,NaN
140,14,1,usability,0,bathroom,sun_alkosphxlxwjwgjd.tif,144,1.5,0,1.45,1929.545709875,1934.702305416,6,NaN,1934.707834,1934.726224875,1936.169595291,NaN,NaN
140,15,1,usability,0,bathroom,sun_atstyziqcmkahyxk.tif,161,1.5,0,1.53333333333333,1936.186185208,1939.949932875,4,NaN,1939.955478583,1939.973883208,1941.500597583,NaN,NaN
140,16,1,usability,0,bathroom,sun_aleqenyvunhactkl.tif,142,1.5,0,0.8,1941.519119458,1946.57408125,1,NaN,1946.579589333,1946.597757458,1947.391096583,NaN,NaN
140,17,1,usability,0,bathroom,sun_ahaulkltgpkeeemi.tif,136,1.5,0,0.933333333333333,1947.395314291,1952.861402708,3,NaN,1952.867264916,1952.885656791,1953.812328083,NaN,NaN
140,18,1,usability,0,bathroom,sun_aljolscmmzydegqp.tif,143,1.5,0,1.75,1953.816528083,1961.309410208,3,NaN,1961.315307583,1961.333599916,1963.076989625,NaN,NaN
140,19,1,usability,0,bathroom,sun_ahijqszoswveeyji.tif,138,1.5,0,1.48333333333333,1963.096195791,1969.493721208,5,NaN,1969.499318166,1969.517601833,1970.994323333,NaN,NaN
140,20,1,usability,0,bathroom,sun_aclfzgynxzxlbepz.tif,129,1.5,0,1.03333333333333,1971.017289708,1975.229415833,4,NaN,1975.235052291,1975.253494291,1976.280208625,NaN,NaN
140,21,1,usability,0,bathroom,sun_alotolagknyrgtsk.tif,145,1.5,0,1.23333333333333,1976.287559458,1981.461403208,4,NaN,1981.467162291,1981.485484541,1982.712189625,NaN,NaN
140,22,1,usability,0,bathroom,sun_axxbkopsgyouuebh.tif,168,1.5,0,1.28333333333333,1982.729743666,1986.04626625,3,NaN,1986.052222458,1986.070512666,1987.347224583,NaN,NaN
140,23,1,usability,0,bathroom,sun_ahcvzmoyaycdoftf.tif,137,1.5,0,1.66666666666667,1987.366024041,1993.837497875,3,NaN,1993.843911958,1993.862226166,1995.522242625,NaN,NaN
140,24,1,usability,0,bathroom,sun_aghyqhbptboemmoq.tif,133,1.5,0,1.26666666666667,1995.534008083,1998.585914708,2,NaN,1998.610554666,1998.633988708,1999.894026458,NaN,NaN
140,25,1,usability,0,bathroom,sun_awnqiikzaispgmwo.tif,166,1.5,0,1.4,1999.912310041,2003.141125166,2,NaN,2003.147124875,2003.165280458,2004.5586665,NaN,NaN
140,1,2,usability,0,bathroom,sun_abjtwfukuwddzted.tif,125,1.5,0,1.66666666666667,2009.833794708,2013.957830125,1,NaN,2013.963388333,2013.981550125,2015.641605458,NaN,NaN
140,2,2,usability,0,bathroom,sun_aqrpegblszgcoujh.tif,158,1.5,0,1.85,2015.657691125,2021.813055875,2,NaN,2021.819326291,2021.837701125,2023.6810875,NaN,NaN
140,3,2,usability,0,bathroom,sun_acgyywnybuveqsro.tif,128,1.5,0,1.65,2023.699194416,2027.373993208,4,NaN,2027.380177375,2027.398408708,2029.041790791,NaN,NaN
140,4,2,usability,0,bathroom,sun_azqyogdvyhahyram.tif,170,1.5,0,0.95,2029.058671625,2036.604977666,3,NaN,2036.611582916,2036.631127416,2037.574465125,NaN,NaN
140,5,2,usability,0,bathroom,sun_apmqjbnwghzuhhzh.tif,156,1.5,0,0.783333333333333,2037.578948375,2041.661348375,4,NaN,2041.66798625,2041.68628575,2042.462956875,NaN,NaN
140,6,2,usability,0,bathroom,sun_ajlawzvmubibwbpy.tif,140,1.5,0,1.13333333333333,2042.467478541,2046.437518916,3,NaN,2046.443222208,2046.461784416,2047.588501333,NaN,NaN
140,7,2,usability,0,bathroom,sun_akiytfaagpdsphgz.tif,141,1.5,0,1.63333333333333,2047.597777958,2052.637169666,5,NaN,2052.643199125,2052.66162525,2054.288312041,NaN,NaN
140,8,2,usability,0,bathroom,sun_acduarbnmmoglmiv.tif,126,1.5,0,1.2,2054.297551375,2058.557313708,3,NaN,2058.563729791,2058.582023416,2059.775403291,NaN,NaN
140,9,2,usability,0,bathroom,sun_ahqjwnzgolcaoidx.tif,139,1.5,0,1.71666666666667,2059.787397,2063.229871458,5,NaN,2063.235667166,2063.254053125,2064.964095833,NaN,NaN
140,10,2,usability,0,bathroom,sun_asfwthctfqerjvxr.tif,159,1.5,0,0.9,2064.982412083,2068.255720541,6,NaN,2068.280501166,2068.301682791,2069.195024,NaN,NaN
140,11,2,usability,0,bathroom,sun_apjevzvycyhuqghb.tif,153,1.5,0,0.9,2069.199876958,2074.357558958,7,NaN,2074.364023375,2074.382374083,2075.275712416,NaN,NaN
140,12,2,usability,0,bathroom,sun_agguqiubmwhqqunb.tif,132,1.5,0,0.766666666666667,2075.280499375,2080.085461791,4,NaN,2080.091219083,2080.109584291,2080.869589083,NaN,NaN
140,13,2,usability,0,bathroom,sun_acegryoqftbzowsg.tif,127,1.5,0,0.966666666666667,2080.873963583,2087.605490458,4,NaN,2087.611103333,2087.629570708,2088.589577041,NaN,NaN
140,14,2,usability,0,bathroom,sun_apkruvsevgegsdwp.tif,154,1.5,0,0.7,2088.59414875,2096.445387375,3,NaN,2096.451513708,2096.469874666,2097.163212208,NaN,NaN
140,15,2,usability,0,bathroom,sun_aunuadmjocsddsrl.tif,162,1.5,0,1.1,2097.167805791,2099.76103675,1,NaN,2099.783619875,2099.807192208,2100.900577375,NaN,NaN
140,16,2,usability,0,bathroom,sun_axyrejkiiaqiurjk.tif,169,1.5,0,1.33333333333333,2100.908576291,2103.892823625,3,NaN,2103.898737833,2103.91711125,2105.243814291,NaN,NaN
140,17,2,usability,0,bathroom,sun_ausgutylgojavyoq.tif,163,1.5,0,1.15,2105.258555,2108.069342416,3,NaN,2108.07480775,2108.093148583,2109.236536833,NaN,NaN
140,18,2,usability,0,bathroom,sun_aapitsgbtktqubfy.tif,122,1.5,0,1.28333333333333,2109.245208291,2112.429514583,5,NaN,2112.435263666,2112.453606166,2113.730330166,NaN,NaN
140,19,2,usability,0,bathroom,sun_agyqfjcfkdcydepw.tif,135,1.5,0,1.35,2113.74894025,2118.700995416,2,NaN,2118.706763541,2118.72506825,2120.068441791,NaN,NaN
140,20,2,usability,0,bathroom,sun_abapwbhyhkfixyex.tif,124,1.5,0,1.43333333333333,2120.082629875,2124.989188916,3,NaN,2124.994851916,2125.013444583,2126.440165375,NaN,NaN
140,21,2,usability,0,bathroom,sun_auzqhkafidnkrwmo.tif,164,1.5,0,0.916666666666667,2126.4508935,2129.868804333,6,NaN,2129.874592708,2129.892918416,2130.802924791,NaN,NaN
140,22,2,usability,0,bathroom,sun_anryaplzeujmzfkd.tif,149,1.5,0,0.766666666666667,2130.807220083,2137.069177,7,NaN,2137.075007166,2137.093460333,2137.853466291,NaN,NaN
140,23,2,usability,0,bathroom,sun_anhioqovhscjqqwb.tif,148,1.5,0,0.866666666666667,2137.861531583,2142.740708208,3,NaN,2142.746572958,2142.764773541,2143.624779708,NaN,NaN
140,24,2,usability,0,bathroom,sun_axldvoqbuvuggfmq.tif,167,1.5,0,0.833333333333333,2143.630123958,2148.605232041,3,NaN,2148.610911833,2148.629266583,2149.455938916,NaN,NaN
140,25,2,usability,0,bathroom,sun_aspsyogrekjtfozg.tif,160,1.5,0,0.75,2149.460495125,2154.981456291,3,NaN,2154.98763575,2155.006003958,2155.749343625,NaN,NaN
