sub_num,trial,block,task,is_practice,category,image,texture,duration,mask_dur,jitter,stim_time,time_of_resp,trial_response,mask_time,fix_time,jit_onset,trial_end,trial_accuracy,RT
124,6,0,complexity,1,kitchen,kitchen_practice5.tif,230,1.5,0,1.46666666666667,8949.917160833,8954.01537025,6,NaN,8954.021312875,8954.03957375,8955.4996495,NaN,NaN
124,7,0,complexity,1,kitchen,kitchen_practice2.tif,227,1.5,0,1.31666666666667,8955.518231917,8962.375346958,6,NaN,8962.381249667,8962.399447583,8963.709523708,NaN,NaN
124,8,0,complexity,1,kitchen,kitchen_practice4.tif,229,1.5,0,1.76666666666667,8963.727769333,8966.39131325,5,NaN,8966.402041958,8966.420341042,8968.180409625,NaN,NaN
124,9,0,complexity,1,kitchen,kitchen_practice1.tif,226,1.5,0,0.816666666666667,8968.197951375,8972.663924042,7,NaN,8972.669617417,8972.688032167,8973.498042958,NaN,NaN
124,10,0,complexity,1,kitchen,kitchen_practice3.tif,228,1.5,0,0.9,8973.503902917,8978.063384125,3,NaN,8978.069188042,8978.087375125,8978.9807195,NaN,NaN
124,1,1,complexity,0,kitchen,sun_avszsnwsbuqfgzbn.tif,215,1.5,0,1.15,8985.224660042,8988.967420042,6,NaN,8988.973240875,8988.991678208,8990.135092958,NaN,NaN
124,2,1,complexity,0,kitchen,sun_ahpczsiumwwocjkv.tif,202,1.5,0,1.33333333333333,8990.144258833,8993.536141542,3,NaN,8993.5416195,8993.560012208,8994.886739042,NaN,NaN
124,3,1,complexity,0,kitchen,sun_aeqdocilnnpuvuhx.tif,193,1.5,0,1.75,8994.905946,8998.999258208,5,NaN,8999.005254875,8999.023659792,9000.767085292,NaN,NaN
124,4,1,complexity,0,kitchen,sun_ahywdevtimnqcsln.tif,204,1.5,0,1.2,9000.78492875,9009.191353958,3,NaN,9009.197215375,9009.215668708,9010.409061333,NaN,NaN
124,5,1,complexity,0,kitchen,sun_aqeaevwwwjoqhzvl.tif,211,1.5,0,1.46666666666667,9010.421141333,9013.464210208,6,NaN,9013.469696917,9013.487900958,9014.948000125,NaN,NaN
124,6,1,complexity,0,kitchen,sun_aehawpgmrlhlvcow.tif,191,1.5,0,1.01666666666667,9014.968039917,9018.10340025,6,NaN,9018.109181292,9018.12749475,9019.141973458,NaN,NaN
124,7,1,complexity,0,kitchen,sun_agorklincwxrdtga.tif,197,1.5,0,1.18333333333333,9019.1562635,9022.751600583,5,NaN,9022.757776083,9022.775992083,9023.952726125,NaN,NaN
124,8,1,complexity,0,kitchen,sun_agzzivivdpnawacl.tif,199,1.5,0,1.03333333333333,9023.9648255,9027.160036917,2,NaN,9027.165496792,9027.183882708,9028.210611917,NaN,NaN
124,9,1,complexity,0,kitchen,sun_acfmftudsenhrfhy.tif,184,1.5,0,1.25,9028.221210792,9032.295571167,3,NaN,9032.301230542,9032.319448,9033.56285875,NaN,NaN
124,10,1,complexity,0,kitchen,sun_aarfiyshqohlwkmo.tif,177,1.5,0,0.733333333333333,9033.578484458,9037.439362875,5,NaN,9037.445325792,9037.46357825,9038.190252958,NaN,NaN
124,11,1,complexity,0,kitchen,labelme_rykdqxenmhulbdn.tif,173,1.5,0,1.01666666666667,9038.194574375,9041.6636345,3,NaN,9041.669082667,9041.687398833,9042.69745825,NaN,NaN
124,12,1,complexity,0,kitchen,sun_aexklacwqwezaorf.tif,194,1.5,0,1.53333333333333,9042.705949833,9046.927607208,5,NaN,9046.933200333,9046.951585417,9048.478318875,NaN,NaN
124,13,1,complexity,0,kitchen,sun_aunzlwrbjumxhwdj.tif,213,1.5,0,1.33333333333333,9048.4966845,9052.703641458,3,NaN,9052.709215417,9052.727573583,9054.054298375,NaN,NaN
124,14,1,complexity,0,kitchen,sun_ahljzhgcdpomplvg.tif,201,1.5,0,1.53333333333333,9054.071211625,9058.463529625,3,NaN,9058.469178583,9058.487451792,9060.014212833,NaN,NaN
124,15,1,complexity,0,kitchen,labelme_kxvouciolcpqplr.tif,172,1.5,0,1.01666666666667,9060.03327575,9066.127589083,2,NaN,9066.133132958,9066.151498875,9067.161569875,NaN,NaN
124,16,1,complexity,0,kitchen,sun_awcpdzzznmweyyhv.tif,216,1.5,0,1.23333333333333,9067.170504292,9070.855704208,5,NaN,9070.861187167,9070.879517667,9072.106265792,NaN,NaN
124,17,1,complexity,0,kitchen,sun_aaxxjlsuzvqlgylf.tif,178,1.5,0,1.18333333333333,9072.122011833,9074.871917792,6,NaN,9074.877439917,9074.895711542,9076.072455708,NaN,NaN
124,18,1,complexity,0,kitchen,sun_aamedkxepzlwuxes.tif,175,1.5,0,0.783333333333333,9076.0821,9079.031237208,3,NaN,9079.037031583,9079.055352583,9079.832028167,NaN,NaN
124,19,1,complexity,0,kitchen,sun_ajcbwwvdlsvjyzje.tif,206,1.5,0,1.73333333333333,9079.836874333,9082.935981792,5,NaN,9082.943680792,9082.962203125,9084.688942417,NaN,NaN
124,20,1,complexity,0,kitchen,sun_azmutvzbxypaceni.tif,220,1.5,0,1.21666666666667,9084.708048417,9088.655304208,2,NaN,9088.662255625,9088.680525708,9089.890634042,NaN,NaN
124,21,1,complexity,0,kitchen,sun_acxkpeoqbwcxfvip.tif,187,1.5,0,1.26666666666667,9089.909879333,9099.030867292,3,NaN,9099.036904042,9099.055129208,9100.315219667,NaN,NaN
124,22,1,complexity,0,kitchen,sun_aggjlwcdjsjcaemh.tif,196,1.5,0,0.783333333333333,9100.329672,9103.158941917,2,NaN,9103.16510575,9103.183442833,9103.960121125,NaN,NaN
124,23,1,complexity,0,kitchen,sun_aadbddgrdsjugojn.tif,174,1.5,0,1.48333333333333,9103.964492708,9106.523362875,2,NaN,9106.547962542,9106.57172075,9108.048452292,NaN,NaN
124,24,1,complexity,0,kitchen,sun_acwjdupvyjsugpay.tif,186,1.5,0,1.36666666666667,9108.068084792,9112.4789885,1,NaN,9112.48494075,9112.50327475,9113.86335175,NaN,NaN
124,25,1,complexity,0,kitchen,sun_auticobqsbwgoppi.tif,214,1.5,0,0.983333333333333,9113.883541292,9116.543074208,3,NaN,9116.54902475,9116.567364417,9117.544040583,NaN,NaN
124,1,2,complexity,0,kitchen,sun_aixorpehvfykdynp.tif,205,1.5,0,1.26666666666667,9122.500800167,9136.271671292,3,NaN,9136.27743825,9136.295745667,9137.555821708,NaN,NaN
124,2,2,complexity,0,kitchen,sun_aypmqwcualkenuoe.tif,219,1.5,0,1.11666666666667,9137.57047725,9140.375243208,7,NaN,9140.380863792,9140.399213667,9141.509298167,NaN,NaN
124,3,2,complexity,0,kitchen,sun_aymvwlarqodbwuoc.tif,218,1.5,0,1.43333333333333,9141.517391792,9144.063088583,5,NaN,9144.068667042,9144.086860833,9145.513607417,NaN,NaN
124,4,2,complexity,0,kitchen,sun_amjjdeyrggfqgmom.tif,210,1.5,0,0.8,9145.531713542,9148.679356042,5,NaN,9148.685150958,9148.703329625,9149.496672,NaN,NaN
124,5,2,complexity,0,kitchen,sun_akcjzhbbjlbogpdi.tif,209,1.5,0,0.733333333333333,9149.501161042,9152.287808833,2,NaN,9152.315738458,9152.339202125,9153.065877167,NaN,NaN
124,6,2,complexity,0,kitchen,sun_abdxkyyxwfskuaqb.tif,180,1.5,0,1.03333333333333,9153.070446958,9156.255408667,5,NaN,9156.2621925,9156.280589625,9157.307341375,NaN,NaN
124,7,2,complexity,0,kitchen,sun_acgtpgfybqjmzeyw.tif,185,1.5,0,1.56666666666667,9157.318444792,9167.830670708,4,NaN,9167.837573542,9167.855956583,9169.416057458,NaN,NaN
124,8,2,complexity,0,kitchen,sun_ahdycvpopffkzzsu.tif,200,1.5,0,0.866666666666667,9169.429608583,9172.822147375,2,NaN,9172.851728417,9172.874723042,9173.734733375,NaN,NaN
124,9,2,complexity,0,kitchen,sun_ajkqhtgcbgpcwrwn.tif,207,1.5,0,0.716666666666667,9173.739522375,9177.414820625,3,NaN,9177.420698875,9177.439068042,9178.149078792,NaN,NaN
124,10,2,complexity,0,kitchen,sun_agubuxuukhzyzpdp.tif,198,1.5,0,1.33333333333333,9178.153383375,9181.184046208,5,NaN,9181.196587958,9181.214953708,9182.541718625,NaN,NaN
124,11,2,complexity,0,kitchen,sun_aegoxogugdkwpmpj.tif,190,1.5,0,1.01666666666667,9182.556478167,9185.23888175,6,NaN,9185.244734042,9185.263038833,9186.273101875,NaN,NaN
124,12,2,complexity,0,kitchen,sun_aenotlpyftoioydp.tif,192,1.5,0,0.733333333333333,9186.281599333,9189.903356583,2,NaN,9189.908754833,9189.927063208,9190.653737833,NaN,NaN
124,13,2,complexity,0,kitchen,sun_auaiucuqpdausiva.tif,212,1.5,0,1.38333333333333,9190.658029042,9203.175388042,2,NaN,9203.180908708,9203.199089042,9204.575816125,NaN,NaN
124,14,2,complexity,0,kitchen,sun_aapllqyqlykszopd.tif,176,1.5,0,1.06666666666667,9204.595262583,9208.966889958,3,NaN,9208.972588958,9208.99096425,9210.051035708,NaN,NaN
124,15,2,complexity,0,kitchen,sun_adgqasybjyktddhj.tif,188,1.5,0,0.85,9210.059092875,9212.791051792,4,NaN,9212.796585292,9212.814974375,9213.658315208,NaN,NaN
124,16,2,complexity,0,kitchen,labelme_brsyyvweiuaazfr.tif,171,1.5,0,0.9,9213.662565042,9216.563799458,5,NaN,9216.592470667,9216.616005125,9217.509345917,NaN,NaN
124,17,2,complexity,0,kitchen,sun_admlmbcdswaszruo.tif,189,1.5,0,1.55,9217.514021833,9220.70325475,5,NaN,9220.709166667,9220.727524292,9222.270947625,NaN,NaN
124,18,2,complexity,0,kitchen,sun_abrcnpqqhmjwekyf.tif,183,1.5,0,0.7,9222.288810083,9226.318488208,6,NaN,9226.324534042,9226.342832708,9227.036174542,NaN,NaN
124,19,2,complexity,0,kitchen,sun_abdenxonkemggwsq.tif,179,1.5,0,0.716666666666667,9227.040516167,9230.814421875,6,NaN,9230.820435167,9230.838774375,9231.548781333,NaN,NaN
124,20,2,complexity,0,kitchen,sun_akchetnepxlcxhsu.tif,208,1.5,0,0.85,9231.553100375,9234.711133125,4,NaN,9234.716502708,9234.73482775,9235.578171375,NaN,NaN
124,21,2,complexity,0,kitchen,sun_axyyrmzcupyhlivc.tif,217,1.5,0,1.35,9235.582588875,9238.378593917,4,NaN,9238.408127875,9238.431180417,9239.7745945,NaN,NaN
124,22,2,complexity,0,kitchen,sun_abftihopvusyfakt.tif,181,1.5,0,1.96666666666667,9239.793612625,9242.959561333,6,NaN,9242.965352792,9242.983830417,9244.943935958,NaN,NaN
124,23,2,complexity,0,kitchen,sun_afuyedyxivkhecmu.tif,195,1.5,0,0.933333333333333,9244.964544625,9248.176106167,7,NaN,9248.187549458,9248.206814333,9249.133488583,NaN,NaN
124,24,2,complexity,0,kitchen,sun_ahspylgoovwmwvgk.tif,203,1.5,0,1.33333333333333,9249.137992042,9252.694768917,4,NaN,9252.700315667,9252.71912625,9254.045848625,NaN,NaN
124,25,2,complexity,0,kitchen,sun_abpwyqmlzafvklqo.tif,182,1.5,0,1.16666666666667,9254.059754458,9257.006707208,3,NaN,9257.012296,9257.030863208,9258.190930792,NaN,NaN
