sub_num,trial,block,task,is_practice,category,image,texture,duration,mask_dur,jitter,stim_time,time_of_resp,trial_response,mask_time,fix_time,jit_onset,trial_end,trial_accuracy,RT
127,1,0,familiarity,1,bathroom,bathroom_practice1.tif,221,1.5,0,0.916666666666667,6103.436605208,6107.796741625,4,NaN,6107.802720041,6107.821111291,6108.731115916,NaN,NaN
127,2,0,familiarity,1,bathroom,bathroom_practice2.tif,222,1.5,0,0.85,6108.73579625,6111.412620208,1,NaN,6111.439929,6111.46331375,6112.306651083,NaN,NaN
127,3,0,familiarity,1,bathroom,bathroom_practice3.tif,223,1.5,0,0.883333333333333,6112.3113675,6115.580666291,3,NaN,6115.586589333,6115.60496575,6116.481636541,NaN,NaN
127,4,0,familiarity,1,bathroom,bathroom_practice5.tif,225,1.5,0,1.43333333333333,6116.486278083,6120.908649916,5,NaN,6120.914336166,6120.932681916,6122.359388833,NaN,NaN
127,5,0,familiarity,1,bathroom,bathroom_practice4.tif,224,1.5,0,1.53333333333333,6122.377434083,6125.7805395,2,NaN,6125.786270791,6125.804538625,6127.331255583,NaN,NaN
127,1,1,familiarity,0,bathroom,sun_ahcvzmoyaycdoftf.tif,137,1.5,0,1.26666666666667,6133.412991208,6136.238662291,6,NaN,6136.264269708,6136.28764825,6137.547673291,NaN,NaN
127,2,1,familiarity,0,bathroom,sun_aggnnqpdorgxpvce.tif,131,1.5,0,1.76666666666667,6137.560748458,6141.556706083,2,NaN,6141.562248416,6141.580669166,6143.340820833,NaN,NaN
127,3,1,familiarity,0,bathroom,sun_aclfzgynxzxlbepz.tif,129,1.5,0,1.46666666666667,6143.361004041,6146.341697291,6,NaN,6146.3704315,6146.394193208,6147.854241166,NaN,NaN
127,4,1,familiarity,0,bathroom,sun_apmqjbnwghzuhhzh.tif,156,1.5,0,1.28333333333333,6147.873954916,6151.26004675,6,NaN,6151.26603425,6151.284308541,6152.561016166,NaN,NaN
127,5,1,familiarity,0,bathroom,sun_acegryoqftbzowsg.tif,127,1.5,0,0.966666666666667,6152.5806795,6156.492126375,7,NaN,6156.4982685,6156.516700208,6157.476704916,NaN,NaN
127,6,1,familiarity,0,bathroom,sun_alkosphxlxwjwgjd.tif,144,1.5,0,0.783333333333333,6157.481170208,6160.844248333,3,NaN,6160.850181333,6160.868507708,6161.645179333,NaN,NaN
127,7,1,familiarity,0,bathroom,sun_acgyywnybuveqsro.tif,128,1.5,0,1.21666666666667,6161.649995708,6165.372184041,3,NaN,6165.378051583,6165.396327083,6166.606380916,NaN,NaN
127,8,1,familiarity,0,bathroom,sun_anhioqovhscjqqwb.tif,148,1.5,0,1.4,6166.623472416,6172.060266416,2,NaN,6172.065990458,6172.08461925,6173.477968208,NaN,NaN
127,9,1,familiarity,0,bathroom,sun_aspsyogrekjtfozg.tif,160,1.5,0,1.3,6173.488753416,6176.300081125,1,NaN,6176.306021125,6176.324419208,6177.617788375,NaN,NaN
127,10,1,familiarity,0,bathroom,sun_ahqjwnzgolcaoidx.tif,139,1.5,0,0.95,6177.637030583,6183.668568416,1,NaN,6183.674862125,6183.69311825,6184.636456458,NaN,NaN
127,11,1,familiarity,0,bathroom,sun_ausgutylgojavyoq.tif,163,1.5,0,1.96666666666667,6184.642334833,6188.452988,4,NaN,6188.458703583,6188.476920166,6190.436973583,NaN,NaN
127,12,1,familiarity,0,bathroom,sun_axyrejkiiaqiurjk.tif,169,1.5,0,1.13333333333333,6190.456687916,6194.260701083,3,NaN,6194.26636975,6194.28472975,6195.411450625,NaN,NaN
127,13,1,familiarity,0,bathroom,sun_agrwbmhcpmfuwmsg.tif,134,1.5,0,0.933333333333333,6195.421401375,6199.348108375,2,NaN,6199.354051041,6199.372674541,6200.29934475,NaN,NaN
127,14,1,familiarity,0,bathroom,sun_axxbkopsgyouuebh.tif,168,1.5,0,1.6,6200.303852625,6203.267558791,6,NaN,6203.295011333,6203.318395916,6204.911787791,NaN,NaN
127,15,1,familiarity,0,bathroom,sun_akiytfaagpdsphgz.tif,141,1.5,0,1.38333333333333,6204.929903875,6208.056533458,2,NaN,6208.085635125,6208.109452416,6209.486162625,NaN,NaN
127,16,1,familiarity,0,bathroom,sun_aavhrsfjbserjtht.tif,123,1.5,0,1.58333333333333,6209.496189541,6212.580083458,5,NaN,6212.585872708,6212.604370208,6214.181078708,NaN,NaN
127,17,1,familiarity,0,bathroom,sun_auzqhkafidnkrwmo.tif,164,1.5,0,0.966666666666667,6214.200210083,6217.428324333,3,NaN,6217.460973666,6217.483164,6218.44316775,NaN,NaN
127,18,1,familiarity,0,bathroom,sun_amzlamotzwfkwjco.tif,147,1.5,0,0.983333333333333,6218.447951666,6222.180148583,3,NaN,6222.185848916,6222.2041525,6223.180823166,NaN,NaN
127,19,1,familiarity,0,bathroom,sun_asfwthctfqerjvxr.tif,159,1.5,0,0.8,6223.1854495,6226.316539208,1,NaN,6226.322619166,6226.342063541,6227.135401333,NaN,NaN
127,20,1,familiarity,0,bathroom,sun_apkxzenqapsujocq.tif,155,1.5,0,0.7,6227.140094208,6229.608171125,7,NaN,6229.636781208,6229.66030775,6230.353645958,NaN,NaN
127,21,1,familiarity,0,bathroom,sun_anryaplzeujmzfkd.tif,149,1.5,0,0.716666666666667,6230.358743291,6233.289134041,5,NaN,6233.308464375,6233.330938791,6234.040942083,NaN,NaN
127,22,1,familiarity,0,bathroom,sun_atstyziqcmkahyxk.tif,161,1.5,0,1.76666666666667,6234.046022875,6237.708628541,7,NaN,6237.714349166,6237.732527083,6239.492547541,NaN,NaN
127,23,1,familiarity,0,bathroom,sun_ajlawzvmubibwbpy.tif,140,1.5,0,1.7,6239.5022515,6242.720948916,2,NaN,6242.750369791,6242.773725166,6244.467121375,NaN,NaN
127,24,1,familiarity,0,bathroom,sun_aljolscmmzydegqp.tif,143,1.5,0,1.38333333333333,6244.486397083,6247.261280041,1,NaN,6247.29059175,6247.313969375,6248.690670666,NaN,NaN
127,25,1,familiarity,0,bathroom,sun_afcoljnjfoxjtgja.tif,130,1.5,0,0.766666666666667,6248.705242208,6256.372349041,2,NaN,6256.378169541,6256.396400208,6257.156405958,NaN,NaN
127,1,2,familiarity,0,bathroom,sun_azqyogdvyhahyram.tif,170,1.5,0,0.85,6261.664535166,6265.220741833,6,NaN,6265.226379458,6265.244730541,6266.088067833,NaN,NaN
127,2,2,familiarity,0,bathroom,sun_agguqiubmwhqqunb.tif,132,1.5,0,1.53333333333333,6266.092706583,6269.084119791,3,NaN,6269.111296708,6269.134650375,6270.661372208,NaN,NaN
127,3,2,familiarity,0,bathroom,sun_avhrdrntsqrjzccq.tif,165,1.5,0,0.7,6270.677766875,6273.300710916,1,NaN,6273.306396333,6273.324793875,6274.018131291,NaN,NaN
127,4,2,familiarity,0,bathroom,sun_aunuadmjocsddsrl.tif,162,1.5,0,1.36666666666667,6274.022582708,6277.188178208,5,NaN,6277.194344666,6277.212780833,6278.572839875,NaN,NaN
127,5,2,familiarity,0,bathroom,sun_abapwbhyhkfixyex.tif,124,1.5,0,0.716666666666667,6278.593328666,6282.516231875,4,NaN,6282.522243541,6282.541763708,6283.251768666,NaN,NaN
127,6,2,familiarity,0,bathroom,sun_alotolagknyrgtsk.tif,145,1.5,0,1.38333333333333,6283.256012041,6285.984090083,2,NaN,6286.006217333,6286.028845291,6287.40556525,NaN,NaN
127,7,2,familiarity,0,bathroom,labelme_sfxiulhjbhlyiyt.tif,121,1.5,0,0.916666666666667,6287.424493291,6290.268590833,6,NaN,6290.275568791,6290.293914375,6291.203918166,NaN,NaN
127,8,2,familiarity,0,bathroom,sun_aqrpegblszgcoujh.tif,158,1.5,0,1.58333333333333,6291.208709041,6294.740195541,4,NaN,6294.745809208,6294.764218291,6296.340929375,NaN,NaN
127,9,2,familiarity,0,bathroom,sun_ahijqszoswveeyji.tif,138,1.5,0,1.25,6296.35964425,6299.712808375,2,NaN,6299.7426495,6299.766027958,6301.009403333,NaN,NaN
127,10,2,familiarity,0,bathroom,sun_axldvoqbuvuggfmq.tif,167,1.5,0,0.95,6301.027860916,6303.868596166,5,NaN,6303.8741215,6303.892368625,6304.835706833,NaN,NaN
127,11,2,familiarity,0,bathroom,sun_ahaulkltgpkeeemi.tif,136,1.5,0,1.4,6304.841434458,6307.93260125,6,NaN,6307.939609583,6307.958033875,6309.351423916,NaN,NaN
127,12,2,familiarity,0,bathroom,sun_aghyqhbptboemmoq.tif,133,1.5,0,0.766666666666667,6309.370534541,6312.443882916,7,NaN,6312.449733041,6312.468014416,6313.228019625,NaN,NaN
127,13,2,familiarity,0,bathroom,sun_apynckhmoftszqoq.tif,157,1.5,0,0.733333333333333,6313.232461916,6316.612046708,6,NaN,6316.617692333,6316.636071458,6317.362742083,NaN,NaN
127,14,2,familiarity,0,bathroom,sun_apeeialkgkuxddgh.tif,152,1.5,0,1.06666666666667,6317.367514166,6320.547675875,6,NaN,6320.55414925,6320.572622458,6321.632670958,NaN,NaN
127,15,2,familiarity,0,bathroom,sun_agyqfjcfkdcydepw.tif,135,1.5,0,1.33333333333333,6321.641623166,6324.140573375,1,NaN,6324.146075166,6324.164381333,6325.491101333,NaN,NaN
127,16,2,familiarity,0,bathroom,sun_aleqenyvunhactkl.tif,142,1.5,0,1.41666666666667,6325.50056725,6328.227667125,4,NaN,6328.233446291,6328.251857041,6329.661915458,NaN,NaN
127,17,2,familiarity,0,bathroom,sun_aapitsgbtktqubfy.tif,122,1.5,0,1.95,6329.681413208,6332.5883265,7,NaN,6332.594004875,6332.612488708,6334.555859708,NaN,NaN
127,18,2,familiarity,0,bathroom,sun_ambriybtogmepttm.tif,146,1.5,0,0.866666666666667,6334.573827375,6337.704174,2,NaN,6337.731401583,6337.754958708,6338.614962583,NaN,NaN
127,19,2,familiarity,0,bathroom,sun_apkruvsevgegsdwp.tif,154,1.5,0,0.983333333333333,6338.61969925,6342.323654291,7,NaN,6342.329594708,6342.347958958,6343.324631541,NaN,NaN
127,20,2,familiarity,0,bathroom,sun_awnqiikzaispgmwo.tif,166,1.5,0,0.983333333333333,6343.329209708,6346.303633125,2,NaN,6346.32911625,6346.3525075,6347.329179666,NaN,NaN
127,21,2,familiarity,0,bathroom,sun_abjtwfukuwddzted.tif,125,1.5,0,0.766666666666667,6347.333829291,6350.6278705,6,NaN,6350.633757375,6350.652188208,6351.412192208,NaN,NaN
127,22,2,familiarity,0,bathroom,sun_acduarbnmmoglmiv.tif,126,1.5,0,0.833333333333333,6351.4224055,6354.167818,2,NaN,6354.19622275,6354.219890041,6355.046559875,NaN,NaN
127,23,2,familiarity,0,bathroom,sun_apjevzvycyhuqghb.tif,153,1.5,0,0.833333333333333,6355.051429541,6358.659841333,2,NaN,6358.66544875,6358.683712541,6359.51038525,NaN,NaN
127,24,2,familiarity,0,bathroom,sun_aofnryafpsjimzsb.tif,150,1.5,0,0.716666666666667,6359.514670541,6362.828405291,2,NaN,6362.833903125,6362.85238725,6363.562392083,NaN,NaN
127,25,2,familiarity,0,bathroom,sun_aoybiabnpadelefl.tif,151,1.5,0,1.71666666666667,6363.567103708,6366.9553875,2,NaN,6366.961555125,6366.980017583,6368.690057541,NaN,NaN
