sub_num,trial,block,task,is_practice,category,image,texture,duration,mask_dur,jitter,stim_time,time_of_resp,trial_response,mask_time,fix_time,jit_onset,trial_end,trial_accuracy,RT
115,1,0,typicality,1,bathroom,bathroom_practice2.tif,222,1.5,0,1.48333333333333,11139.353096834,11148.092047292,5,NaN,11148.116112042,11148.13781475,11149.615435584,NaN,NaN
115,2,0,typicality,1,bathroom,bathroom_practice4.tif,224,1.5,0,0.75,11149.690087375,11158.027657834,5,NaN,11158.037219334,11158.056116459,11158.799472875,NaN,NaN
115,3,0,typicality,1,bathroom,bathroom_practice1.tif,221,1.5,0,1.93333333333333,11158.805401709,11166.227782667,4,NaN,11166.235225542,11166.253660292,11168.180360125,NaN,NaN
115,4,0,typicality,1,bathroom,bathroom_practice5.tif,225,1.5,0,0.983333333333333,11168.208279292,11176.891491709,3,NaN,11176.899964709,11176.918518709,11177.895189917,NaN,NaN
115,5,0,typicality,1,bathroom,bathroom_practice3.tif,223,1.5,0,0.883333333333333,11177.902782542,11183.187465625,4,NaN,11183.19766025,11183.216071625,11184.092741709,NaN,NaN
115,1,1,typicality,0,bathroom,sun_aapitsgbtktqubfy.tif,122,1.5,0,0.866666666666667,11193.235574292,11198.251422167,4,NaN,11198.2586285,11198.276982417,11199.136987959,NaN,NaN
115,2,1,typicality,0,bathroom,sun_aleqenyvunhactkl.tif,142,1.5,0,1.03333333333333,11199.14152575,11204.467125125,3,NaN,11204.473011542,11204.491376042,11205.518084042,NaN,NaN
115,3,1,typicality,0,bathroom,sun_ajlawzvmubibwbpy.tif,140,1.5,0,0.866666666666667,11205.529859125,11209.54786025,4,NaN,11209.553843167,11209.57210625,11210.432110709,NaN,NaN
115,4,1,typicality,0,bathroom,sun_alkosphxlxwjwgjd.tif,144,1.5,0,1.61666666666667,11210.437582209,11215.106935584,3,NaN,11215.113668042,11215.132056542,11216.742096125,NaN,NaN
115,5,1,typicality,0,bathroom,sun_anhioqovhscjqqwb.tif,148,1.5,0,0.883333333333333,11216.756335917,11222.57906075,4,NaN,11222.585212,11222.604195125,11223.480867084,NaN,NaN
115,6,1,typicality,0,bathroom,sun_alotolagknyrgtsk.tif,145,1.5,0,0.933333333333333,11223.485572042,11227.963663125,3,NaN,11227.969437709,11227.987675834,11228.914347417,NaN,NaN
115,7,1,typicality,0,bathroom,sun_aghyqhbptboemmoq.tif,133,1.5,0,1.5,11228.921306167,11233.547222875,6,NaN,11233.552994167,11233.571274,11235.064647875,NaN,NaN
115,8,1,typicality,0,bathroom,sun_asfwthctfqerjvxr.tif,159,1.5,0,1.36666666666667,11235.080957875,11238.667556334,3,NaN,11238.673143625,11238.691492625,11240.051529542,NaN,NaN
115,9,1,typicality,0,bathroom,sun_agyqfjcfkdcydepw.tif,135,1.5,0,0.85,11240.07341725,11244.46757075,2,NaN,11244.473839792,11244.492551792,11245.335891167,NaN,NaN
115,10,1,typicality,0,bathroom,sun_apeeialkgkuxddgh.tif,152,1.5,0,1.81666666666667,11245.340826709,11249.48336,5,NaN,11249.489238459,11249.507548292,11251.317577667,NaN,NaN
115,11,1,typicality,0,bathroom,sun_acegryoqftbzowsg.tif,127,1.5,0,1.28333333333333,11251.329655709,11255.866747,4,NaN,11255.872858459,11255.891350584,11257.168053625,NaN,NaN
115,12,1,typicality,0,bathroom,sun_anryaplzeujmzfkd.tif,149,1.5,0,1.23333333333333,11257.19109375,11261.826708792,3,NaN,11261.832920542,11261.851383334,11263.078084917,NaN,NaN
115,13,1,typicality,0,bathroom,sun_amzlamotzwfkwjco.tif,147,1.5,0,0.883333333333333,11263.088580292,11267.57891875,3,NaN,11267.58490425,11267.603216,11268.479888792,NaN,NaN
115,14,1,typicality,0,bathroom,sun_afcoljnjfoxjtgja.tif,130,1.5,0,0.866666666666667,11268.485117084,11274.283352084,3,NaN,11274.289012792,11274.307365625,11275.167370417,NaN,NaN
115,15,1,typicality,0,bathroom,sun_aclfzgynxzxlbepz.tif,129,1.5,0,1.36666666666667,11275.172040084,11279.258876584,6,NaN,11279.264854542,11279.283130542,11280.643161042,NaN,NaN
115,16,1,typicality,0,bathroom,sun_acduarbnmmoglmiv.tif,126,1.5,0,1.05,11280.661445417,11284.123393084,6,NaN,11284.1289575,11284.147241709,11285.190611292,NaN,NaN
115,17,1,typicality,0,bathroom,sun_auzqhkafidnkrwmo.tif,164,1.5,0,1.21666666666667,11285.20483725,11289.403637584,5,NaN,11289.409260375,11289.427625042,11290.637677542,NaN,NaN
115,18,1,typicality,0,bathroom,sun_aofnryafpsjimzsb.tif,150,1.5,0,0.816666666666667,11290.656158875,11294.954999125,4,NaN,11294.96099275,11294.979502584,11295.789509,NaN,NaN
115,19,1,typicality,0,bathroom,sun_apmqjbnwghzuhhzh.tif,156,1.5,0,1,11295.794973042,11300.355049,3,NaN,11300.361074792,11300.379606292,11301.37294475,NaN,NaN
115,20,1,typicality,0,bathroom,sun_abjtwfukuwddzted.tif,125,1.5,0,1.21666666666667,11301.377623375,11307.954855417,5,NaN,11307.961344,11307.979670667,11309.189723167,NaN,NaN
115,21,1,typicality,0,bathroom,sun_awnqiikzaispgmwo.tif,166,1.5,0,1.46666666666667,11309.199496292,11312.435307125,6,NaN,11312.440967459,11312.45939675,11313.919446834,NaN,NaN
115,22,1,typicality,0,bathroom,sun_aljolscmmzydegqp.tif,143,1.5,0,1.4,11313.939655625,11317.618947709,5,NaN,11317.624887875,11317.643241917,11319.036611334,NaN,NaN
115,23,1,typicality,0,bathroom,sun_abapwbhyhkfixyex.tif,124,1.5,0,0.783333333333333,11319.055945042,11322.40321825,4,NaN,11322.408862459,11322.4272405,11323.203911834,NaN,NaN
115,24,1,typicality,0,bathroom,labelme_sfxiulhjbhlyiyt.tif,121,1.5,0,1.21666666666667,11323.208440375,11326.835188209,7,NaN,11326.840811125,11326.85922075,11328.069258959,NaN,NaN
115,25,1,typicality,0,bathroom,sun_axldvoqbuvuggfmq.tif,167,1.5,0,1.35,11328.085245209,11331.218986292,5,NaN,11331.22468275,11331.243163584,11332.586557875,NaN,NaN
115,1,2,typicality,0,bathroom,sun_aoybiabnpadelefl.tif,151,1.5,0,1.65,11352.296384042,11357.46673625,2,NaN,11357.473237417,11357.491911209,11359.135289667,NaN,NaN
115,2,2,typicality,0,bathroom,sun_apkruvsevgegsdwp.tif,154,1.5,0,1.01666666666667,11359.147178625,11362.319413042,7,NaN,11362.348615917,11362.372357375,11363.382406584,NaN,NaN
115,3,2,typicality,0,bathroom,sun_ahijqszoswveeyji.tif,138,1.5,0,1.58333333333333,11363.392450084,11366.4030825,5,NaN,11366.4087055,11366.427175667,11368.0038735,NaN,NaN
115,4,2,typicality,0,bathroom,sun_aunuadmjocsddsrl.tif,162,1.5,0,0.7,11368.016149959,11371.458509709,7,NaN,11371.464621334,11371.483201417,11372.176539209,NaN,NaN
115,5,2,typicality,0,bathroom,sun_apkxzenqapsujocq.tif,155,1.5,0,1.23333333333333,11372.181667792,11375.546441709,6,NaN,11375.552461625,11375.570769375,11376.797486375,NaN,NaN
115,6,2,typicality,0,bathroom,sun_akiytfaagpdsphgz.tif,141,1.5,0,0.816666666666667,11376.815852375,11380.642475042,4,NaN,11380.648230209,11380.666562209,11381.476565875,NaN,NaN
115,7,2,typicality,0,bathroom,sun_agrwbmhcpmfuwmsg.tif,134,1.5,0,0.733333333333333,11381.481301334,11384.58740575,5,NaN,11384.600262959,11384.619674209,11385.34634525,NaN,NaN
115,8,2,typicality,0,bathroom,sun_agguqiubmwhqqunb.tif,132,1.5,0,1.15,11385.351044209,11388.093936334,4,NaN,11388.122887167,11388.146524834,11389.289887875,NaN,NaN
115,9,2,typicality,0,bathroom,sun_axyrejkiiaqiurjk.tif,169,1.5,0,0.933333333333333,11389.298417625,11392.970748167,4,NaN,11392.976301375,11392.994702125,11393.921372542,NaN,NaN
115,10,2,typicality,0,bathroom,sun_aavhrsfjbserjtht.tif,123,1.5,0,0.916666666666667,11393.926520417,11397.938400292,4,NaN,11397.944380875,11397.962693917,11398.872697709,NaN,NaN
115,11,2,typicality,0,bathroom,sun_avhrdrntsqrjzccq.tif,165,1.5,0,1.26666666666667,11398.878205959,11402.378686959,1,NaN,11402.384575875,11402.402973167,11403.663015959,NaN,NaN
115,12,2,typicality,0,bathroom,sun_aqrpegblszgcoujh.tif,158,1.5,0,0.933333333333333,11403.680305667,11406.971108334,4,NaN,11406.976705875,11406.9950285,11407.921700792,NaN,NaN
115,13,2,typicality,0,bathroom,sun_ambriybtogmepttm.tif,146,1.5,0,1,11407.926169834,11410.987198125,3,NaN,11410.997855334,11411.017152167,11412.010491334,NaN,NaN
115,14,2,typicality,0,bathroom,sun_acgyywnybuveqsro.tif,128,1.5,0,1,11412.016123709,11415.834021167,3,NaN,11415.840076459,11415.858615417,11416.851954125,NaN,NaN
115,15,2,typicality,0,bathroom,sun_aggnnqpdorgxpvce.tif,131,1.5,0,1.21666666666667,11416.856487875,11419.84995925,6,NaN,11419.879757167,11419.901025459,11421.1110725,NaN,NaN
115,16,2,typicality,0,bathroom,sun_apjevzvycyhuqghb.tif,153,1.5,0,1.85,11421.120848417,11424.386245959,4,NaN,11424.391890542,11424.410280625,11426.253653209,NaN,NaN
115,17,2,typicality,0,bathroom,sun_aspsyogrekjtfozg.tif,160,1.5,0,0.766666666666667,11426.273686,11429.196341,3,NaN,11429.216108667,11429.23910275,11429.999107292,NaN,NaN
115,18,2,typicality,0,bathroom,sun_axxbkopsgyouuebh.tif,168,1.5,0,0.966666666666667,11430.005030667,11433.022343709,4,NaN,11433.049226834,11433.073004625,11434.033010667,NaN,NaN
115,19,2,typicality,0,bathroom,sun_ahaulkltgpkeeemi.tif,136,1.5,0,1.4,11434.051302375,11436.984261875,6,NaN,11437.009002084,11437.030933792,11438.424309625,NaN,NaN
115,20,2,typicality,0,bathroom,sun_apynckhmoftszqoq.tif,157,1.5,0,0.933333333333333,11438.445048334,11441.490768,7,NaN,11441.496398959,11441.514727959,11442.441398959,NaN,NaN
115,21,2,typicality,0,bathroom,sun_ahqjwnzgolcaoidx.tif,139,1.5,0,1.7,11442.446463667,11445.299543125,6,NaN,11445.316527834,11445.337645375,11447.031029625,NaN,NaN
115,22,2,typicality,0,bathroom,sun_ahcvzmoyaycdoftf.tif,137,1.5,0,0.916666666666667,11447.0508005,11451.362923709,6,NaN,11451.36863,11451.386894125,11452.296900542,NaN,NaN
115,23,2,typicality,0,bathroom,sun_ausgutylgojavyoq.tif,163,1.5,0,0.833333333333333,11452.302629709,11456.066223667,4,NaN,11456.072036542,11456.090418,11456.917091084,NaN,NaN
115,24,2,typicality,0,bathroom,sun_azqyogdvyhahyram.tif,170,1.5,0,0.783333333333333,11456.922183875,11459.781729459,7,NaN,11459.810645209,11459.834232875,11460.610903834,NaN,NaN
115,25,2,typicality,0,bathroom,sun_atstyziqcmkahyxk.tif,161,1.5,0,1.4,11460.61572025,11464.289879375,7,NaN,11464.296314125,11464.314776167,11465.708153709,NaN,NaN
