slide,sub1,sub2,pairID,trialID,stim1,stim2,instructionsLoop.thisRepN,instructionsLoop.thisTrialN,instructionsLoop.thisN,instructionsLoop.thisIndex,practice.thisRepN,practice.thisTrialN,practice.thisN,practice.thisIndex,trials.thisRepN,trials.thisTrialN,trials.thisN,trials.thisIndex,thisRow.t,notes,preparation.started,preparation.stopped,instructions.started,startResponse.started,slide_img.started,instructions.stopped,startResponse.keys,startResponse.rt,startResponse.duration,trial.started,polygon.started,polygon_2.started,image1.started,image2.started,rating_1.started,question.started,rating_2.started,question_2.started,block_text.started,trial.stopped,stim1pos,stim2pos,block,rating_1.response,rating_1.rt,rating_2.response,rating_2.rt,ITI.started,text.started,text.stopped,ITI.stopped,practice_over.started,text_2.started,space_practice_over.started,practice_over.stopped,space_practice_over.keys,space_practice_over.rt,space_practice_over.duration,breakBlocks.started,breakBlocks.stopped,startBlock.keys,startBlock.started,startBlock.rt,startBlock.duration,end.started,message_end.started,key_resp.started,participant,session,session_number,date,expName,psychopyVersion,frameRate,expStart,
instructions/Slide2.jpg,,,,,,,0,0,0,0,,,,,,,,,0.023209834000226692,,0.0018804170013027033,0.002004125000894419,0.007533542000601301,0.023209834000226692,0.023209834000226692,20.098088124999776,space,20.074505083000986,None,,,,,,,,,,,,,,,,,,,,,,,,,,,,,,,,,,,,,,,207,kitchen,2,2024-03-18_15h07.59.039,image_similarity_rating,2023.2.3,None,2024-03-18 15h08.31.707708 +0100,
instructions/Slide3.jpg,,,,,,,0,1,1,1,,,,,,,,,20.128459084000497,,,,20.099568792000355,20.128459084000497,20.128459084000497,29.558374959000503,space,9.429716417000236,None,,,,,,,,,,,,,,,,,,,,,,,,,,,,,,,,,,,,,,,207,kitchen,2,2024-03-18_15h07.59.039,image_similarity_rating,2023.2.3,None,2024-03-18 15h08.31.707708 +0100,
instructions/Slide4.jpg,,,,,,,0,2,2,2,,,,,,,,,29.578793583999868,,,,29.558928166999976,29.578793583999868,29.578793583999868,37.28082420899955,space,7.701748500001486,None,,,,,,,,,,,,,,,,,,,,,,,,,,,,,,,,,,,,,,,207,kitchen,2,2024-03-18_15h07.59.039,image_similarity_rating,2023.2.3,None,2024-03-18 15h08.31.707708 +0100,
instructions/Slide5.jpg,,,,,,,0,3,3,3,,,,,,,,,37.30682020899985,,,,37.28160166700036,37.30682020899985,37.30682020899985,48.72576033400037,space,11.418575542000326,None,,,,,,,,,,,,,,,,,,,,,,,,,,,,,,,,,,,,,,,207,kitchen,2,2024-03-18_15h07.59.039,image_similarity_rating,2023.2.3,None,2024-03-18 15h08.31.707708 +0100,
,128,108,practice,3,stimuli/own/kitchen/128_kit.jpg,stimuli/own/kitchen/108_kit.jpg,,,,,0,0,0,2,,,,,48.92436345900023,,,,,,,,,,,48.74378370900013,48.92436345900023,48.92436345900023,48.92436345900023,48.92436345900023,48.92436345900023,48.92436345900023,48.92436345900023,48.92436345900023,48.92436345900023,61.29408383400005,7,-7,0,3.0,10.141220542000156,6.0,12.214905083999838,61.29430487500031,61.30406258400035,61.75813837500027,61.58875945900036,,,,,,,,,,,,,,,,,207,kitchen,2,2024-03-18_15h07.59.039,image_similarity_rating,2023.2.3,None,2024-03-18 15h08.31.707708 +0100,
,107,128,practice,7,stimuli/own/kitchen/107_kit.jpg,stimuli/own/kitchen/128_kit.jpg,,,,,0,1,1,6,,,,,61.75813837500027,,,,,,,,,,,61.58927141700042,61.75813837500027,61.75813837500027,61.75813837500027,61.75813837500027,61.75813837500027,61.75813837500027,61.75813837500027,61.75813837500027,61.75813837500027,70.82311087500057,7,-7,0,4.0,4.611497249999957,5.0,8.8534939580004,70.82325258400124,70.82515887500085,71.27259687500009,71.10901966700112,,,,,,,,,,,,,,,,,207,kitchen,2,2024-03-18_15h07.59.039,image_similarity_rating,2023.2.3,None,2024-03-18 15h08.31.707708 +0100,
,110,128,practice,2,stimuli/own/kitchen/110_kit.jpg,stimuli/own/kitchen/128_kit.jpg,,,,,0,2,2,1,,,,,71.27259687500009,,,,,,,,,,,71.10934591700061,71.27259687500009,71.27259687500009,71.27259687500009,71.27259687500009,71.27259687500009,71.27259687500009,71.27259687500009,71.27259687500009,71.27259687500009,78.45274808400063,-7,7,0,3.0,4.86638108400075,4.0,6.593131457999334,78.45289237500037,78.45571383400056,78.91025779200027,78.73870087500109,,,,,,,,,,,,,,,,,207,kitchen,2,2024-03-18_15h07.59.039,image_similarity_rating,2023.2.3,None,2024-03-18 15h08.31.707708 +0100,
,128,133,practice,6,stimuli/own/kitchen/128_kit.jpg,stimuli/own/kitchen/133_kit.jpg,,,,,0,3,3,5,,,,,78.91025779200027,,,,,,,,,,,78.73919491699962,78.91025779200027,78.91025779200027,78.91025779200027,78.91025779200027,78.91025779200027,78.91025779200027,78.91025779200027,78.91025779200027,78.91025779200027,88.01480862500102,-7,7,0,6.0,8.286446666999836,2.0,3.3412453750006534,88.01494929200089,88.02079808400049,88.4703325419996,88.30542712500028,,,,,,,,,,,,,,,,,207,kitchen,2,2024-03-18_15h07.59.039,image_similarity_rating,2023.2.3,None,2024-03-18 15h08.31.707708 +0100,
,110,107,practice,4,stimuli/own/kitchen/110_kit.jpg,stimuli/own/kitchen/107_kit.jpg,,,,,0,4,4,3,,,,,88.4703325419996,,,,,,,,,,,88.30589383400002,88.4703325419996,88.4703325419996,88.4703325419996,88.4703325419996,88.4703325419996,88.4703325419996,88.4703325419996,88.4703325419996,88.4703325419996,96.02310104200114,7,-7,0,5.0,7.037944125000649,3.0,6.114344957999492,96.02324062499974,96.02515245900031,96.47813150000002,96.3098790840013,,,,,,,,,,,,,,,,,207,kitchen,2,2024-03-18_15h07.59.039,image_similarity_rating,2023.2.3,None,2024-03-18 15h08.31.707708 +0100,
,110,133,practice,1,stimuli/own/kitchen/110_kit.jpg,stimuli/own/kitchen/133_kit.jpg,,,,,0,5,5,0,,,,,96.47813150000002,,,,,,,,,,,96.31033912500061,96.47813150000002,96.47813150000002,96.47813150000002,96.47813150000002,96.47813150000002,96.47813150000002,96.47813150000002,96.47813150000002,96.47813150000002,102.40625195900066,-7,7,0,4.0,5.777561541999603,2.0,4.8542046250004205,102.40639166700021,102.40829525000117,102.86427016699963,102.69321558400043,,,,,,,,,,,,,,,,,207,kitchen,2,2024-03-18_15h07.59.039,image_similarity_rating,2023.2.3,None,2024-03-18 15h08.31.707708 +0100,
,107,108,practice,5,stimuli/own/kitchen/107_kit.jpg,stimuli/own/kitchen/108_kit.jpg,,,,,0,6,6,4,,,,,102.86427016699963,,,,,,,,,,,102.69366437499957,102.86427016699963,102.86427016699963,102.86427016699963,102.86427016699963,102.86427016699963,102.86427016699963,102.86427016699963,102.86427016699963,102.86427016699963,109.43964479200076,-7,7,0,4.0,6.036799749999773,3.0,4.140453500000149,109.43978383400099,109.44169929199961,109.89152495900089,109.72578245899967,,,,,,,,,,,,,,,,,207,kitchen,2,2024-03-18_15h07.59.039,image_similarity_rating,2023.2.3,None,2024-03-18 15h08.31.707708 +0100,
,108,110,practice,8,stimuli/own/kitchen/108_kit.jpg,stimuli/own/kitchen/110_kit.jpg,,,,,0,7,7,7,,,,,109.89152495900089,,,,,,,,,,,109.72619479199966,109.89152495900089,109.89152495900089,109.89152495900089,109.89152495900089,109.89152495900089,109.89152495900089,109.89152495900089,109.89152495900089,109.89152495900089,119.08587354200063,-7,7,0,3.0,8.80501408300006,3.0,3.6288824579987704,119.0860146670002,119.08882204200017,119.53824945900124,119.37540466700011,,,,,,,,,,,,,,,,,207,kitchen,2,2024-03-18_15h07.59.039,image_similarity_rating,2023.2.3,None,2024-03-18 15h08.31.707708 +0100,
,108,133,practice,10,stimuli/own/kitchen/108_kit.jpg,stimuli/own/kitchen/133_kit.jpg,,,,,0,8,8,9,,,,,119.53824945900124,,,,,,,,,,,119.37571408400072,119.53824945900124,119.53824945900124,119.53824945900124,119.53824945900124,119.53824945900124,119.53824945900124,119.53824945900124,119.53824945900124,119.53824945900124,126.69817195900032,7,-7,0,4.0,7.080597624999427,2.0,3.473808791999545,126.6983103750008,126.70381987499968,127.1606865419999,126.9884705000004,,,,,,,,,,,,,,,,,207,kitchen,2,2024-03-18_15h07.59.039,image_similarity_rating,2023.2.3,None,2024-03-18 15h08.31.707708 +0100,
,107,133,practice,9,stimuli/own/kitchen/107_kit.jpg,stimuli/own/kitchen/133_kit.jpg,,,,,0,9,9,8,,,,,127.1606865419999,,,,,,,,,,,126.98897337500057,127.1606865419999,127.1606865419999,127.1606865419999,127.1606865419999,127.1606865419999,127.1606865419999,127.1606865419999,127.1606865419999,127.1606865419999,133.11014050000085,7,-7,0,4.0,5.783004417000484,2.0,4.755814125001052,133.11027820900017,133.12042266699973,133.41053695899973,133.4049171250008,,,,,,,,,,,,,,,,,207,kitchen,2,2024-03-18_15h07.59.039,image_similarity_rating,2023.2.3,None,2024-03-18 15h08.31.707708 +0100,
,,,,,,,,,,,,,,,,,,,,,,,,,,,,,,,,,,,,,,,,,,,,,,,,,,,,133.4050417920007,133.41053695899973,133.41053695899973,137.77850987500096,space,4.36760358399988,None,,,,,,,,,,207,kitchen,2,2024-03-18_15h07.59.039,image_similarity_rating,2023.2.3,None,2024-03-18 15h08.31.707708 +0100,
,136,138,582,582,stimuli/own/kitchen/136_kit.jpg,stimuli/own/kitchen/138_kit.jpg,,,,,,,,,0,0,0,581,137.83015516700107,,,,,,,,,,,138.12166012499983,138.30104820900124,138.30104820900124,138.30104820900124,138.30104820900124,138.30104820900124,138.30104820900124,138.30104820900124,138.30104820900124,138.30104820900124,145.58155216700106,7,-7,1,2.0,7.127534625000408,3.0,6.277962874999503,137.8279451670005,137.83015516700107,138.30104820900124,138.1216426250012,,,,,,,,137.8139053750001,137.8276464999999,None,,,,,,,207,kitchen,2,2024-03-18_15h07.59.039,image_similarity_rating,2023.2.3,None,2024-03-18 15h08.31.707708 +0100,
,101,121,16,16,stimuli/own/kitchen/101_kit.jpg,stimuli/own/kitchen/121_kit.jpg,,,,,,,,,0,1,1,15,145.58981700000004,,,,,,,,,,,145.87602916700052,146.04416712500097,146.04416712500097,146.04416712500097,146.04416712500097,146.04416712500097,146.04416712500097,146.04416712500097,146.04416712500097,146.04416712500097,153.05259262500113,7,-7,1,2.0,6.871040792000713,1.0,2.2901198340005067,145.58818254200014,145.58981700000004,146.04416712500097,145.87601358400025,,,,,,,,145.58211891700012,145.58813100000043,None,,,,,,,207,kitchen,2,2024-03-18_15h07.59.039,image_similarity_rating,2023.2.3,None,2024-03-18 15h08.31.707708 +0100,
,105,117,138,138,stimuli/own/kitchen/105_kit.jpg,stimuli/own/kitchen/117_kit.jpg,,,,,,,,,0,2,2,137,153.05834541700096,,,,,,,,,,,153.3426177500005,153.5108427920004,153.5108427920004,153.5108427920004,153.5108427920004,153.5108427920004,153.5108427920004,153.5108427920004,153.5108427920004,153.5108427920004,161.33176158400056,-7,7,1,6.0,7.4110171669999545,6.0,3.3255556660005823,153.05643125000097,153.05834541700096,153.5108427920004,153.3426025000008,,,,,,,,153.05284004200075,153.05638266700043,None,,,,,,,207,kitchen,2,2024-03-18_15h07.59.039,image_similarity_rating,2023.2.3,None,2024-03-18 15h08.31.707708 +0100,
,139,140,593,593,stimuli/own/kitchen/139_kit.jpg,stimuli/own/kitchen/140_kit.jpg,,,,,,,,,0,3,3,592,161.35367054200105,,,,,,,,,,,161.63795791700068,161.8041919999996,161.8041919999996,161.8041919999996,161.8041919999996,161.8041919999996,161.8041919999996,161.8041919999996,161.8041919999996,161.8041919999996,170.36485729200103,-7,7,1,3.0,8.444703291999758,1.0,3.1992657920000056,161.33542337499966,161.35367054200105,,161.63793475000057,,,,,,,,161.33198212500065,161.33537562499987,None,,,,,,,207,kitchen,2,2024-03-18_15h07.59.039,image_similarity_rating,2023.2.3,None,2024-03-18 15h08.31.707708 +0100,
,103,114,75,75,stimuli/own/kitchen/103_kit.jpg,stimuli/own/kitchen/114_kit.jpg,,,,,,,,,0,4,4,74,170.3871987090006,,,,,,,,,,,170.6711952500009,170.84352616700016,170.84352616700016,170.84352616700016,170.84352616700016,170.84352616700016,170.84352616700016,170.84352616700016,170.84352616700016,170.84352616700016,179.35607512500064,7,-7,1,4.0,7.9754575839997415,3.0,2.740815125000154,170.3685301250007,170.3871987090006,,170.67117487500036,,,,,,,,170.3650807089998,170.36848250000003,None,,,,,,,207,kitchen,2,2024-03-18_15h07.59.039,image_similarity_rating,2023.2.3,None,2024-03-18 15h08.31.707708 +0100,
,123,131,466,466,stimuli/own/kitchen/123_kit.jpg,stimuli/own/kitchen/131_kit.jpg,,,,,,,,,0,5,5,465,179.3616922500005,,,,,,,,,,,179.65506916699997,179.81952854200063,179.81952854200063,179.81952854200063,179.81952854200063,179.81952854200063,179.81952854200063,179.81952854200063,179.81952854200063,179.81952854200063,190.3059219170009,-7,7,1,1.0,10.183441707999009,2.0,4.9256523750009364,179.35976712500087,179.3616922500005,179.81952854200063,179.65505520900115,,,,,,,,179.35629712500122,179.35971941699972,None,,,,,,,207,kitchen,2,2024-03-18_15h07.59.039,image_similarity_rating,2023.2.3,None,2024-03-18 15h08.31.707708 +0100,
,106,116,166,166,stimuli/own/kitchen/106_kit.jpg,stimuli/own/kitchen/116_kit.jpg,,,,,,,,,0,6,6,165,190.31153274999997,,,,,,,,,,,190.60478587500074,190.7715694590006,190.7715694590006,190.7715694590006,190.7715694590006,190.7715694590006,190.7715694590006,190.7715694590006,190.7715694590006,190.7715694590006,202.63530583400097,-7,7,1,3.0,10.2359126249994,2.0,5.824317667000287,190.30960858400067,190.31153274999997,190.7715694590006,190.60477100000026,,,,,,,,190.30614533399967,190.30956083400088,None,,,,,,,207,kitchen,2,2024-03-18_15h07.59.039,image_similarity_rating,2023.2.3,None,2024-03-18 15h08.31.707708 +0100,
,123,132,467,467,stimuli/own/kitchen/123_kit.jpg,stimuli/own/kitchen/132_kit.jpg,,,,,,,,,0,7,7,466,202.641055125001,,,,,,,,,,,202.9258362090004,203.09399283400126,203.09399283400126,203.09399283400126,203.09399283400126,203.09399283400126,203.09399283400126,203.09399283400126,203.09399283400126,203.09399283400126,214.13102866699955,-7,7,1,2.0,10.86359333299879,1.0,3.949071584000194,202.63910370899976,202.641055125001,203.09399283400126,202.9258206249997,,,,,,,,202.6355301250005,202.63905658400108,None,,,,,,,207,kitchen,2,2024-03-18_15h07.59.039,image_similarity_rating,2023.2.3,None,2024-03-18 15h08.31.707708 +0100,
,117,138,361,361,stimuli/own/kitchen/117_kit.jpg,stimuli/own/kitchen/138_kit.jpg,,,,,,,,,0,8,8,360,214.13654391700038,,,,,,,,,,,214.42146975000105,214.5884189999997,214.5884189999997,214.5884189999997,214.5884189999997,214.5884189999997,214.5884189999997,214.5884189999997,214.5884189999997,214.5884189999997,223.31472220900105,-7,7,1,4.0,5.17136437499903,3.0,8.513297666000653,214.1346975840006,214.13654391700038,214.5884189999997,214.42144183399978,,,,,,,,214.1312496669998,214.13465041699965,None,,,,,,,207,kitchen,2,2024-03-18_15h07.59.039,image_similarity_rating,2023.2.3,None,2024-03-18 15h08.31.707708 +0100,
,103,120,80,80,stimuli/own/kitchen/103_kit.jpg,stimuli/own/kitchen/120_kit.jpg,,,,,,,,,0,9,9,79,223.33698608400118,,,,,,,,,,,223.62087950000023,223.79265208400102,223.79265208400102,223.79265208400102,223.79265208400102,223.79265208400102,223.79265208400102,223.79265208400102,223.79265208400102,223.79265208400102,234.28519516699998,7,-7,1,1.0,10.067916958998467,3.0,4.0914668749992416,223.31852679199983,223.33698608400118,,223.6208517920004,,,,,,,,223.3149429590012,223.31847920899963,None,,,,,,,207,kitchen,2,2024-03-18_15h07.59.039,image_similarity_rating,2023.2.3,None,2024-03-18 15h08.31.707708 +0100,
,117,125,350,350,stimuli/own/kitchen/117_kit.jpg,stimuli/own/kitchen/125_kit.jpg,,,,,,,,,0,10,10,349,234.2909321670013,,,,,,,,,,,234.57506208400082,234.73774250000133,234.73774250000133,234.73774250000133,234.73774250000133,234.73774250000133,234.73774250000133,234.73774250000133,234.73774250000133,234.73774250000133,245.5263280420004,7,-7,1,3.0,6.461144791999686,6.0,9.976973291999457,234.28900950000025,234.2909321670013,234.73774250000133,234.57504845900075,,,,,,,,234.2854166670004,234.28896162500132,None,,,,,,,207,kitchen,2,2024-03-18_15h07.59.039,image_similarity_rating,2023.2.3,None,2024-03-18 15h08.31.707708 +0100,
,103,126,86,86,stimuli/own/kitchen/103_kit.jpg,stimuli/own/kitchen/126_kit.jpg,,,,,,,,,0,11,11,85,245.53680316700047,,,,,,,,,,,245.82233795899992,245.98583933400005,245.98583933400005,245.98583933400005,245.98583933400005,245.98583933400005,245.98583933400005,245.98583933400005,245.98583933400005,245.98583933400005,253.09353245900093,7,-7,1,3.0,6.572601958001542,4.0,2.237545707999743,245.53000333400087,245.53680316700047,245.98583933400005,245.82232475000092,,,,,,,,245.52655075000075,245.52995516699957,None,,,,,,,207,kitchen,2,2024-03-18_15h07.59.039,image_similarity_rating,2023.2.3,None,2024-03-18 15h08.31.707708 +0100,
,127,135,523,523,stimuli/own/kitchen/127_kit.jpg,stimuli/own/kitchen/135_kit.jpg,,,,,,,,,0,12,12,522,253.1034248750002,,,,,,,,,,,253.38787958400098,253.55802758400023,253.55802758400023,253.55802758400023,253.55802758400023,253.55802758400023,253.55802758400023,253.55802758400023,253.55802758400023,253.55802758400023,263.68903775000035,-7,7,1,2.0,9.24296887499986,3.0,7.54249691699988,253.0971807090009,253.1034248750002,253.55802758400023,253.3878576670013,,,,,,,,253.0937542089996,253.09713312500025,None,,,,,,,207,kitchen,2,2024-03-18_15h07.59.039,image_similarity_rating,2023.2.3,None,2024-03-18 15h08.31.707708 +0100,
,124,125,476,476,stimuli/own/kitchen/124_kit.jpg,stimuli/own/kitchen/125_kit.jpg,,,,,,,,,0,13,13,475,263.6947316250007,,,,,,,,,,,263.98788345899993,264.158524167,264.158524167,264.158524167,264.158524167,264.158524167,264.158524167,264.158524167,264.158524167,264.158524167,274.93888741699993,7,-7,1,3.0,10.392599790999157,3.0,4.077795708999474,263.69281175000106,263.6947316250007,264.158524167,263.9878665840006,,,,,,,,263.6892592920012,263.6927640840004,None,,,,,,,207,kitchen,2,2024-03-18_15h07.59.039,image_similarity_rating,2023.2.3,None,2024-03-18 15h08.31.707708 +0100,
,118,124,370,370,stimuli/own/kitchen/118_kit.jpg,stimuli/own/kitchen/124_kit.jpg,,,,,,,,,0,14,14,369,274.9445786670003,,,,,,,,,,,275.2377005840008,275.40125066700057,275.40125066700057,275.40125066700057,275.40125066700057,275.40125066700057,275.40125066700057,275.40125066700057,275.40125066700057,275.40125066700057,287.3473973750006,-7,7,1,6.0,9.647916583000551,2.0,11.000873541001056,274.9426661670004,274.9445786670003,275.40125066700057,275.2376867920011,,,,,,,,274.9391098750002,274.94261800000095,None,,,,,,,207,kitchen,2,2024-03-18_15h07.59.039,image_similarity_rating,2023.2.3,None,2024-03-18 15h08.31.707708 +0100,
,104,134,123,123,stimuli/own/kitchen/104_kit.jpg,stimuli/own/kitchen/134_kit.jpg,,,,,,,,,0,15,15,122,287.35302816700096,,,,,,,,,,,287.63773858400054,287.8074795419998,287.8074795419998,287.8074795419998,287.8074795419998,287.8074795419998,287.8074795419998,287.8074795419998,287.8074795419998,287.8074795419998,294.14771887499955,7,-7,1,5.0,3.8365977089997614,4.0,6.001511333999588,287.3511737919998,287.35302816700096,287.8074795419998,287.63772162500027,,,,,,,,287.34762429200055,287.3511259170009,None,,,,,,,207,kitchen,2,2024-03-18_15h07.59.039,image_similarity_rating,2023.2.3,None,2024-03-18 15h08.31.707708 +0100,
,113,140,294,294,stimuli/own/kitchen/113_kit.jpg,stimuli/own/kitchen/140_kit.jpg,,,,,,,,,0,16,16,293,294.1698541670012,,,,,,,,,,,294.4542058340012,294.62010670900054,294.62010670900054,294.62010670900054,294.62010670900054,294.62010670900054,294.62010670900054,294.62010670900054,294.62010670900054,294.62010670900054,311.73102945900064,-7,7,1,6.0,16.03303925,3.0,2.974745500001518,294.15153199999986,294.1698541670012,,294.45418804200017,,,,,,,,294.14794316700136,294.1514757920013,None,,,,,,,207,kitchen,2,2024-03-18_15h07.59.039,image_similarity_rating,2023.2.3,None,2024-03-18 15h08.31.707708 +0100,
,114,123,303,303,stimuli/own/kitchen/114_kit.jpg,stimuli/own/kitchen/123_kit.jpg,,,,,,,,,0,17,17,302,311.75308954200045,,,,,,,,,,,312.0373102499998,312.20979670900124,312.20979670900124,312.20979670900124,312.20979670900124,312.20979670900124,312.20979670900124,312.20979670900124,312.20979670900124,312.20979670900124,325.31400691700037,-7,7,1,3.0,12.980445208000674,4.0,7.355198875000497,311.7348694169996,311.75308954200045,,312.0372898750011,,,,,,,,311.73126195900113,311.73482112500096,None,,,,,,,207,kitchen,2,2024-03-18_15h07.59.039,image_similarity_rating,2023.2.3,None,2024-03-18 15h08.31.707708 +0100,
,127,130,519,519,stimuli/own/kitchen/127_kit.jpg,stimuli/own/kitchen/130_kit.jpg,,,,,,,,,0,18,18,518,325.3194337500008,,,,,,,,,,,325.60444762500083,325.77632466700015,325.77632466700015,325.77632466700015,325.77632466700015,325.77632466700015,325.77632466700015,325.77632466700015,325.77632466700015,325.77632466700015,332.6971586670006,-7,7,1,5.0,2.804988500000036,4.0,6.69568445799996,325.3176808750013,325.3194337500008,325.77632466700015,325.60443074999966,,,,,,,,325.314227750001,325.31763237500127,None,,,,,,,207,kitchen,2,2024-03-18_15h07.59.039,image_similarity_rating,2023.2.3,None,2024-03-18 15h08.31.707708 +0100,
,105,113,135,135,stimuli/own/kitchen/105_kit.jpg,stimuli/own/kitchen/113_kit.jpg,,,,,,,,,0,19,19,134,332.7026303340008,,,,,,,,,,,332.9877119169996,333.1550731670013,333.1550731670013,333.1550731670013,333.1550731670013,333.1550731670013,333.1550731670013,333.1550731670013,333.1550731670013,333.1550731670013,344.86443079200035,-7,7,1,4.0,11.05788741700053,1.0,3.533506583000417,332.7008546670004,332.7026303340008,333.1550731670013,332.98769054200056,,,,,,,,332.6973823340013,332.7008065000009,None,,,,,,,207,kitchen,2,2024-03-18_15h07.59.039,image_similarity_rating,2023.2.3,None,2024-03-18 15h08.31.707708 +0100,
,123,125,461,461,stimuli/own/kitchen/123_kit.jpg,stimuli/own/kitchen/125_kit.jpg,,,,,,,,,0,20,20,460,344.8863143340004,,,,,,,,,,,345.1705506670005,345.3349599590001,345.3349599590001,345.3349599590001,345.3349599590001,345.3349599590001,345.3349599590001,345.3349599590001,345.3349599590001,345.3349599590001,359.68022349999956,-7,7,1,4.0,13.990909709000334,6.0,11.992403083000681,344.86810929199964,344.8863143340004,,345.1705244170007,,,,,,,,344.864651625001,344.8680617500013,None,,,,,,,207,kitchen,2,2024-03-18_15h07.59.039,image_similarity_rating,2023.2.3,None,2024-03-18 15h08.31.707708 +0100,
,104,136,125,125,stimuli/own/kitchen/104_kit.jpg,stimuli/own/kitchen/136_kit.jpg,,,,,,,,,0,21,21,124,359.68613483400077,,,,,,,,,,,359.97116016700056,360.14435683400006,360.14435683400006,360.14435683400006,360.14435683400006,360.14435683400006,360.14435683400006,360.14435683400006,360.14435683400006,360.14435683400006,366.8551975419996,7,-7,1,3.0,6.574237333999918,5.0,3.963969083999473,359.6838940840007,359.68613483400077,360.14435683400006,359.97113829200134,,,,,,,,359.68044825000106,359.6838468750011,None,,,,,,,207,kitchen,2,2024-03-18_15h07.59.039,image_similarity_rating,2023.2.3,None,2024-03-18 15h08.31.707708 +0100,
,109,113,192,192,stimuli/own/kitchen/109_kit.jpg,stimuli/own/kitchen/113_kit.jpg,,,,,,,,,0,22,22,191,366.8605905000004,,,,,,,,,,,367.15428987500127,367.3257640000011,367.3257640000011,367.3257640000011,367.3257640000011,367.3257640000011,367.3257640000011,367.3257640000011,367.3257640000011,367.3257640000011,378.405279042001,-7,7,1,1.0,10.566550624998854,2.0,6.193252334000135,366.85885583399977,366.8605905000004,367.3257640000011,367.154270084,,,,,,,,366.85541787500006,366.85880862500017,None,,,,,,,207,kitchen,2,2024-03-18_15h07.59.039,image_similarity_rating,2023.2.3,None,2024-03-18 15h08.31.707708 +0100,
,137,139,587,587,stimuli/own/kitchen/137_kit.jpg,stimuli/own/kitchen/139_kit.jpg,,,,,,,,,0,23,23,586,378.41069891700135,,,,,,,,,,,378.70407833399986,378.8690115420013,378.8690115420013,378.8690115420013,378.8690115420013,378.8690115420013,378.8690115420013,378.8690115420013,378.8690115420013,378.8690115420013,389.7393140000004,-7,7,1,2.0,10.766940333000093,4.0,5.1028255420005735,378.40894729200045,378.41069891700135,378.8690115420013,378.704062959001,,,,,,,,378.4055005000009,378.40889970900025,None,,,,,,,207,kitchen,2,2024-03-18_15h07.59.039,image_similarity_rating,2023.2.3,None,2024-03-18 15h08.31.707708 +0100,
,109,126,204,204,stimuli/own/kitchen/109_kit.jpg,stimuli/own/kitchen/126_kit.jpg,,,,,,,,,0,24,24,203,389.7449990839996,,,,,,,,,,,390.0374379170007,390.2012798750002,390.2012798750002,390.2012798750002,390.2012798750002,390.2012798750002,390.2012798750002,390.2012798750002,390.2012798750002,390.2012798750002,402.93021191700063,-7,7,1,2.0,11.137362624998786,1.0,2.7323384159990383,389.74298012500003,389.7449990839996,390.2012798750002,390.03742450000027,,,,,,,,389.7395364590011,389.7429326670008,None,,,,,,,207,kitchen,2,2024-03-18_15h07.59.039,image_similarity_rating,2023.2.3,None,2024-03-18 15h08.31.707708 +0100,
,123,137,471,471,stimuli/own/kitchen/123_kit.jpg,stimuli/own/kitchen/137_kit.jpg,,,,,,,,,0,25,25,470,402.935858584,,,,,,,,,,,403.22061608399963,403.3844902920009,403.3844902920009,403.3844902920009,403.3844902920009,403.3844902920009,403.3844902920009,403.3844902920009,403.3844902920009,403.3844902920009,410.8138280840012,7,-7,1,4.0,7.077232166000613,4.0,2.751721999999063,402.93388100000084,402.935858584,403.3844902920009,403.2205985420005,,,,,,,,402.9304377090011,402.9338335419998,None,,,,,,,207,kitchen,2,2024-03-18_15h07.59.039,image_similarity_rating,2023.2.3,None,2024-03-18 15h08.31.707708 +0100,
,111,140,243,243,stimuli/own/kitchen/111_kit.jpg,stimuli/own/kitchen/140_kit.jpg,,,,,,,,,0,26,26,242,410.81933475000005,,,,,,,,,,,411.10414091700113,411.2685434169998,411.2685434169998,411.2685434169998,411.2685434169998,411.2685434169998,411.2685434169998,411.2685434169998,411.2685434169998,411.2685434169998,426.22204450000027,-7,7,1,4.0,11.114640874999168,7.0,4.05354616600016,410.8175086250012,410.81933475000005,411.2685434169998,411.1041278339999,,,,,,,,410.8140535420007,410.81746141700023,None,,,,,,,207,kitchen,2,2024-03-18_15h07.59.039,image_similarity_rating,2023.2.3,None,2024-03-18 15h08.31.707708 +0100,
,123,134,468,468,stimuli/own/kitchen/123_kit.jpg,stimuli/own/kitchen/134_kit.jpg,,,,,,,,,0,27,27,467,426.2276490840013,,,,,,,,,,,426.5206062090001,426.6918354999998,426.6918354999998,426.6918354999998,426.6918354999998,426.6918354999998,426.6918354999998,426.6918354999998,426.6918354999998,426.6918354999998,439.213512792001,-7,7,1,3.0,12.409174334001364,4.0,9.432863207999617,426.22572233400024,426.2276490840013,426.6918354999998,426.52058933400076,,,,,,,,426.22226808400046,426.2256741250003,None,,,,,,,207,kitchen,2,2024-03-18_15h07.59.039,image_similarity_rating,2023.2.3,None,2024-03-18 15h08.31.707708 +0100,
,122,129,448,448,stimuli/own/kitchen/122_kit.jpg,stimuli/own/kitchen/129_kit.jpg,,,,,,,,,0,28,28,447,439.2189230420008,,,,,,,,,,,439.50394137500007,439.6714301669999,439.6714301669999,439.6714301669999,439.6714301669999,439.6714301669999,439.6714301669999,439.6714301669999,439.6714301669999,439.6714301669999,448.275698292,7,-7,1,1.0,8.380552916998568,2.0,6.979903082999954,439.2171772090005,439.2189230420008,439.6714301669999,439.50392600000123,,,,,,,,439.2137361670011,439.21712983399993,None,,,,,,,207,kitchen,2,2024-03-18_15h07.59.039,image_similarity_rating,2023.2.3,None,2024-03-18 15h08.31.707708 +0100,
,103,140,98,98,stimuli/own/kitchen/103_kit.jpg,stimuli/own/kitchen/140_kit.jpg,,,,,,,,,0,29,29,97,448.2859369170001,,,,,,,,,,,448.57046679199993,448.7392584999998,448.7392584999998,448.7392584999998,448.7392584999998,448.7392584999998,448.7392584999998,448.7392584999998,448.7392584999998,448.7392584999998,458.8758096670008,-7,7,1,1.0,8.651110916000107,5.0,3.677183874999173,448.27945758399983,448.2859369170001,448.7392584999998,448.5704380420011,,,,,,,,448.27591883400055,448.27941020900107,None,,,,,,,207,kitchen,2,2024-03-18_15h07.59.039,image_similarity_rating,2023.2.3,None,2024-03-18 15h08.31.707708 +0100,
,102,139,65,607,stimuli/own/kitchen/102_kit.jpg,stimuli/own/kitchen/139_kit.jpg,,,,,,,,,0,30,30,606,458.88616254200133,,,,,,,,,,,459.17048129199975,459.34213249999993,459.34213249999993,459.34213249999993,459.34213249999993,459.34213249999993,459.34213249999993,459.34213249999993,459.34213249999993,459.34213249999993,469.57177737500024,-7,7,1,4.0,7.352071458000864,3.0,9.25635704099841,458.8794925840011,458.88616254200133,459.34213249999993,459.1704642090008,,,,,,,,458.87603175000004,458.8794429589998,None,,,,,,,207,kitchen,2,2024-03-18_15h07.59.039,image_similarity_rating,2023.2.3,None,2024-03-18 15h08.31.707708 +0100,
,101,117,12,12,stimuli/own/kitchen/101_kit.jpg,stimuli/own/kitchen/117_kit.jpg,,,,,,,,,0,31,31,11,469.5773617920004,,,,,,,,,,,469.87040241700015,470.0354204590003,470.0354204590003,470.0354204590003,470.0354204590003,470.0354204590003,470.0354204590003,470.0354204590003,470.0354204590003,470.0354204590003,480.48434408400135,-7,7,1,5.0,8.136426083001425,4.0,10.324045625000508,469.5754402090006,469.5773617920004,470.0354204590003,469.8703867920012,,,,,,,,469.571999709,469.5753931250001,None,,,,,,,207,kitchen,2,2024-03-18_15h07.59.039,image_similarity_rating,2023.2.3,None,2024-03-18 15h08.31.707708 +0100,
,101,109,6,6,stimuli/own/kitchen/101_kit.jpg,stimuli/own/kitchen/109_kit.jpg,,,,,,,,,0,32,32,5,480.4901154170002,,,,,,,,,,,480.7748279589996,480.94334900000104,480.94334900000104,480.94334900000104,480.94334900000104,480.94334900000104,480.94334900000104,480.94334900000104,480.94334900000104,480.94334900000104,490.6092379590009,-7,7,1,1.0,8.892084458999307,2.0,2.95380754100006,480.48818866700094,480.4901154170002,480.94334900000104,480.7748122089997,,,,,,,,480.4845648749997,480.488138834,None,,,,,,,207,kitchen,2,2024-03-18_15h07.59.039,image_similarity_rating,2023.2.3,None,2024-03-18 15h08.31.707708 +0100,
,111,126,231,231,stimuli/own/kitchen/111_kit.jpg,stimuli/own/kitchen/126_kit.jpg,,,,,,,,,0,33,33,230,490.6191950419998,,,,,,,,,,,490.90369354200084,491.0750945,491.0750945,491.0750945,491.0750945,491.0750945,491.0750945,491.0750945,491.0750945,491.0750945,499.8047819170006,7,-7,1,6.0,7.194059249999555,4.0,8.081007999999201,490.6129263750008,490.6191950419998,491.0750945,490.90367454199986,,,,,,,,490.60946154200064,490.6128789590002,None,,,,,,,207,kitchen,2,2024-03-18_15h07.59.039,image_similarity_rating,2023.2.3,None,2024-03-18 15h08.31.707708 +0100,
,113,124,280,280,stimuli/own/kitchen/113_kit.jpg,stimuli/own/kitchen/124_kit.jpg,,,,,,,,,0,34,34,279,499.81044979200124,,,,,,,,,,,500.1036565840004,500.27235233400097,500.27235233400097,500.27235233400097,500.27235233400097,500.27235233400097,500.27235233400097,500.27235233400097,500.27235233400097,500.27235233400097,511.229890042001,-7,7,1,4.0,7.868462792001083,1.0,2.3647204999997484,499.8085287089998,499.81044979200124,500.27235233400097,500.1036347500012,,,,,,,,499.80500287500035,499.80848158400113,None,,,,,,,207,kitchen,2,2024-03-18_15h07.59.039,image_similarity_rating,2023.2.3,None,2024-03-18 15h08.31.707708 +0100,
,104,105,100,100,stimuli/own/kitchen/104_kit.jpg,stimuli/own/kitchen/105_kit.jpg,,,,,,,,,0,35,35,99,511.2357389170011,,,,,,,,,,,511.5202791669999,511.6860581250003,511.6860581250003,511.6860581250003,511.6860581250003,511.6860581250003,511.6860581250003,511.6860581250003,511.6860581250003,511.6860581250003,519.5297880420003,-7,7,1,4.0,4.450151375000132,2.0,7.6210418330010725,511.2335469999998,511.2357389170011,511.6860581250003,511.5202651670006,,,,,,,,511.2301118340001,511.233499375001,None,,,,,,,207,kitchen,2,2024-03-18_15h07.59.039,image_similarity_rating,2023.2.3,None,2024-03-18 15h08.31.707708 +0100,
,131,134,552,552,stimuli/own/kitchen/131_kit.jpg,stimuli/own/kitchen/134_kit.jpg,,,,,,,,,0,36,36,551,519.5353670840013,,,,,,,,,,,519.8209071670008,519.9855688750013,519.9855688750013,519.9855688750013,519.9855688750013,519.9855688750013,519.9855688750013,519.9855688750013,519.9855688750013,519.9855688750013,530.3346782500012,-7,7,1,2.0,9.288132499999847,1.0,3.5169670000013866,519.5335685000009,519.5353670840013,519.9855688750013,519.8208932500002,,,,,,,,519.5300124170008,519.5335207090011,None,,,,,,,207,kitchen,2,2024-03-18_15h07.59.039,image_similarity_rating,2023.2.3,None,2024-03-18 15h08.31.707708 +0100,
,132,140,566,566,stimuli/own/kitchen/132_kit.jpg,stimuli/own/kitchen/140_kit.jpg,,,,,,,,,0,37,37,565,530.3404572920008,,,,,,,,,,,530.6253319589996,530.7946924589996,530.7946924589996,530.7946924589996,530.7946924589996,530.7946924589996,530.7946924589996,530.7946924589996,530.7946924589996,530.7946924589996,542.192603417001,-7,7,1,3.0,11.279306250000445,7.0,2.874373291999291,530.3383809999996,530.3404572920008,530.7946924589996,530.6253163750007,,,,,,,,530.3349114590001,530.338330292001,None,,,,,,,207,kitchen,2,2024-03-18_15h07.59.039,image_similarity_rating,2023.2.3,None,2024-03-18 15h08.31.707708 +0100,
,131,140,558,558,stimuli/own/kitchen/131_kit.jpg,stimuli/own/kitchen/140_kit.jpg,,,,,,,,,0,38,38,557,542.202238584001,,,,,,,,,,,542.4877956250002,542.6518864999998,542.6518864999998,542.6518864999998,542.6518864999998,542.6518864999998,542.6518864999998,542.6518864999998,542.6518864999998,542.6518864999998,557.7297474170009,7,-7,1,4.0,15.006441874998927,2.0,6.296261917001175,542.1965474589997,542.202238584001,542.6518864999998,542.487777792001,,,,,,,,542.1928334590011,542.1964970839999,None,,,,,,,207,kitchen,2,2024-03-18_15h07.59.039,image_similarity_rating,2023.2.3,None,2024-03-18 15h08.31.707708 +0100,
,112,132,262,610,stimuli/own/kitchen/112_kit.jpg,stimuli/own/kitchen/132_kit.jpg,,,,,,,,,0,39,39,609,557.7352166250002,,,,,,,,,,,558.0200570420002,558.185450125,558.185450125,558.185450125,558.185450125,558.185450125,558.185450125,558.185450125,558.185450125,558.185450125,567.9093901249998,-7,7,1,3.0,7.6077425830008,1.0,4.486856291998265,557.7334421249998,557.7352166250002,558.185450125,558.020043292001,,,,,,,,557.7299690420004,557.733394709001,None,,,,,,,207,kitchen,2,2024-03-18_15h07.59.039,image_similarity_rating,2023.2.3,None,2024-03-18 15h08.31.707708 +0100,
,119,136,400,400,stimuli/own/kitchen/119_kit.jpg,stimuli/own/kitchen/136_kit.jpg,,,,,,,,,0,40,40,399,567.9188901670004,,,,,,,,,,,568.2032360840003,568.3665484169996,568.3665484169996,568.3665484169996,568.3665484169996,568.3665484169996,568.3665484169996,568.3665484169996,568.3665484169996,568.3665484169996,576.4378945000008,7,-7,1,1.0,7.5540012499986915,2.0,3.419400916998711,567.9130612500012,567.9188901670004,568.3665484169996,568.2032229590004,,,,,,,,567.9096120000013,567.9130134170009,None,,,,,,,207,kitchen,2,2024-03-18_15h07.59.039,image_similarity_rating,2023.2.3,None,2024-03-18 15h08.31.707708 +0100,
,129,130,530,530,stimuli/own/kitchen/129_kit.jpg,stimuli/own/kitchen/130_kit.jpg,,,,,,,,,0,41,41,529,576.443466875,,,,,,,,,,,576.7367443340008,576.9084214590002,576.9084214590002,576.9084214590002,576.9084214590002,576.9084214590002,576.9084214590002,576.9084214590002,576.9084214590002,576.9084214590002,584.4753060000003,-7,7,1,3.0,7.209507833000316,6.0,6.144281666998722,576.4415616250008,576.443466875,576.9084214590002,576.7367290840011,,,,,,,,576.4381184590002,576.4415142500002,None,,,,,,,207,kitchen,2,2024-03-18_15h07.59.039,image_similarity_rating,2023.2.3,None,2024-03-18 15h08.31.707708 +0100,
,120,139,422,422,stimuli/own/kitchen/120_kit.jpg,stimuli/own/kitchen/139_kit.jpg,,,,,,,,,0,42,42,421,584.4855165420013,,,,,,,,,,,584.7700005000006,584.9401135000007,584.9401135000007,584.9401135000007,584.9401135000007,584.9401135000007,584.9401135000007,584.9401135000007,584.9401135000007,584.9401135000007,592.3081916250012,-7,7,1,4.0,5.814272167001036,3.0,7.168354792000173,584.4789899999996,584.4855165420013,584.9401135000007,584.7699795420012,,,,,,,,584.4755288750002,584.4789424170012,None,,,,,,,207,kitchen,2,2024-03-18_15h07.59.039,image_similarity_rating,2023.2.3,None,2024-03-18 15h08.31.707708 +0100,
,112,125,256,256,stimuli/own/kitchen/112_kit.jpg,stimuli/own/kitchen/125_kit.jpg,,,,,,,,,0,43,43,255,592.3187209999996,,,,,,,,,,,592.6038319590007,592.7678921250008,592.7678921250008,592.7678921250008,592.7678921250008,592.7678921250008,592.7678921250008,592.7678921250008,592.7678921250008,592.7678921250008,603.9588240840003,7,-7,1,2.0,11.112815958000283,1.0,3.065716541999791,592.3119417090002,592.3187209999996,592.7678921250008,592.603814084001,,,,,,,,592.3084127500006,592.3118943339996,None,,,,,,,207,kitchen,2,2024-03-18_15h07.59.039,image_similarity_rating,2023.2.3,None,2024-03-18 15h08.31.707708 +0100,
,121,136,437,437,stimuli/own/kitchen/121_kit.jpg,stimuli/own/kitchen/136_kit.jpg,,,,,,,,,0,44,44,436,603.9687577090008,,,,,,,,,,,604.2534527919997,604.4184285840001,604.4184285840001,604.4184285840001,604.4184285840001,604.4184285840001,604.4184285840001,604.4184285840001,604.4184285840001,604.4184285840001,611.9466139590004,7,-7,1,3.0,5.077933333001056,2.0,7.29069808299937,603.9626970000008,603.9687577090008,604.4184285840001,604.2534388750009,,,,,,,,603.9590445419999,603.9626464590001,None,,,,,,,207,kitchen,2,2024-03-18_15h07.59.039,image_similarity_rating,2023.2.3,None,2024-03-18 15h08.31.707708 +0100,
,120,122,407,407,stimuli/own/kitchen/120_kit.jpg,stimuli/own/kitchen/122_kit.jpg,,,,,,,,,0,45,45,406,611.9689397090006,,,,,,,,,,,612.2528232500008,612.4214136250012,612.4214136250012,612.4214136250012,612.4214136250012,612.4214136250012,612.4214136250012,612.4214136250012,612.4214136250012,612.4214136250012,623.4506099999999,7,-7,1,4.0,10.803539624999758,7.0,2.384197208999467,611.9502380000013,611.9689397090006,,612.2527708750004,,,,,,,,611.9468353339998,611.9501903750006,None,,,,,,,207,kitchen,2,2024-03-18_15h07.59.039,image_similarity_rating,2023.2.3,None,2024-03-18 15h08.31.707708 +0100,
,130,131,541,541,stimuli/own/kitchen/130_kit.jpg,stimuli/own/kitchen/131_kit.jpg,,,,,,,,,0,46,46,540,623.4564275000012,,,,,,,,,,,623.7409353340008,623.9078357920007,623.9078357920007,623.9078357920007,623.9078357920007,623.9078357920007,623.9078357920007,623.9078357920007,623.9078357920007,623.9078357920007,629.4512886250013,7,-7,1,4.0,5.328652875001353,2.0,4.313868125000226,623.4546568750011,623.4564275000012,623.9078357920007,623.7409164170003,,,,,,,,623.4508381249998,623.4546076670013,None,,,,,,,207,kitchen,2,2024-03-18_15h07.59.039,image_similarity_rating,2023.2.3,None,2024-03-18 15h08.31.707708 +0100,
,106,132,181,181,stimuli/own/kitchen/106_kit.jpg,stimuli/own/kitchen/132_kit.jpg,,,,,,,,,0,47,47,180,629.4568043340005,,,,,,,,,,,629.7404967920011,629.9039161250003,629.9039161250003,629.9039161250003,629.9039161250003,629.9039161250003,629.9039161250003,629.9039161250003,629.9039161250003,629.9039161250003,637.7345606250001,-7,7,1,1.0,7.092506000000867,1.0,4.9065437499994005,629.4549566670012,629.4568043340005,629.9039161250003,629.7404857090005,,,,,,,,629.4515072089998,629.4549085420003,None,,,,,,,207,kitchen,2,2024-03-18_15h07.59.039,image_similarity_rating,2023.2.3,None,2024-03-18 15h08.31.707708 +0100,
,106,114,165,165,stimuli/own/kitchen/106_kit.jpg,stimuli/own/kitchen/114_kit.jpg,,,,,,,,,0,48,48,164,637.7402917920008,,,,,,,,,,,638.0247775000007,638.1887607090011,638.1887607090011,638.1887607090011,638.1887607090011,638.1887607090011,638.1887607090011,638.1887607090011,638.1887607090011,638.1887607090011,645.0466582090012,7,-7,1,3.0,6.71690000000126,2.0,2.0310336660004396,637.738375334,637.7402917920008,638.1887607090011,638.0247639170011,,,,,,,,637.7347815000012,637.7383210839998,None,,,,,,,207,kitchen,2,2024-03-18_15h07.59.039,image_similarity_rating,2023.2.3,None,2024-03-18 15h08.31.707708 +0100,
,102,132,59,59,stimuli/own/kitchen/102_kit.jpg,stimuli/own/kitchen/132_kit.jpg,,,,,,,,,0,49,49,58,645.0688142500003,,,,,,,,,,,645.3527231250009,645.5189885,645.5189885,645.5189885,645.5189885,645.5189885,645.5189885,645.5189885,645.5189885,645.5189885,654.0968742090008,7,-7,1,1.0,8.449946875000023,2.0,4.015635375000784,645.0502782500007,645.0688142500003,,645.3526757500003,,,,,,,,645.0468793340006,645.0502312919998,None,,,,,,,207,kitchen,2,2024-03-18_15h07.59.039,image_similarity_rating,2023.2.3,None,2024-03-18 15h08.31.707708 +0100,
,103,127,87,87,stimuli/own/kitchen/103_kit.jpg,stimuli/own/kitchen/127_kit.jpg,,,,,,,,,0,50,50,86,654.1032855000012,,,,,,,,,,,654.3864507500002,654.5525658750012,654.5525658750012,654.5525658750012,654.5525658750012,654.5525658750012,654.5525658750012,654.5525658750012,654.5525658750012,654.5525658750012,664.0128802500003,7,-7,1,4.0,9.344622000000527,3.0,2.3691616249998333,654.100494667,654.1032855000012,654.5525658750012,654.3864351250013,,,,,,,,654.0970951250001,654.100447584,None,,,,,,,207,kitchen,2,2024-03-18_15h07.59.039,image_similarity_rating,2023.2.3,None,2024-03-18 15h08.31.707708 +0100,
,113,138,292,292,stimuli/own/kitchen/113_kit.jpg,stimuli/own/kitchen/138_kit.jpg,,,,,,,,,0,51,51,291,664.0183416670006,,,,,,,,,,,664.3031253339996,664.4677271250002,664.4677271250002,664.4677271250002,664.4677271250002,664.4677271250002,664.4677271250002,664.4677271250002,664.4677271250002,664.4677271250002,672.367660209,7,-7,1,4.0,7.6956782919987745,3.0,6.899600624999948,664.0164934590011,664.0183416670006,664.4677271250002,664.3031072499998,,,,,,,,664.0130997920005,664.0164460840006,None,,,,,,,207,kitchen,2,2024-03-18_15h07.59.039,image_similarity_rating,2023.2.3,None,2024-03-18 15h08.31.707708 +0100,
,138,140,591,591,stimuli/own/kitchen/138_kit.jpg,stimuli/own/kitchen/140_kit.jpg,,,,,,,,,0,52,52,590,672.3734380839996,,,,,,,,,,,672.6569663749997,672.8201119590012,672.8201119590012,672.8201119590012,672.8201119590012,672.8201119590012,672.8201119590012,672.8201119590012,672.8201119590012,672.8201119590012,685.4412677500004,7,-7,1,4.0,12.43106762500065,2.0,11.567355708000832,672.3713427920011,672.3734380839996,672.8201119590012,672.656955167,,,,,,,,672.3678790419999,672.3712954170005,None,,,,,,,207,kitchen,2,2024-03-18_15h07.59.039,image_similarity_rating,2023.2.3,None,2024-03-18 15h08.31.707708 +0100,
,105,120,141,141,stimuli/own/kitchen/105_kit.jpg,stimuli/own/kitchen/120_kit.jpg,,,,,,,,,0,53,53,140,685.4518094169998,,,,,,,,,,,685.7363224170003,685.9060181670011,685.9060181670011,685.9060181670011,685.9060181670011,685.9060181670011,685.9060181670011,685.9060181670011,685.9060181670011,685.9060181670011,694.3257393340009,-7,7,1,3.0,8.231162583000696,7.0,2.842888041999686,685.4450100840004,685.4518094169998,685.9060181670011,685.736305542001,,,,,,,,685.441490792,685.4449619589996,None,,,,,,,207,kitchen,2,2024-03-18_15h07.59.039,image_similarity_rating,2023.2.3,None,2024-03-18 15h08.31.707708 +0100,
,111,139,242,242,stimuli/own/kitchen/111_kit.jpg,stimuli/own/kitchen/139_kit.jpg,,,,,,,,,0,54,54,241,694.3349879590005,,,,,,,,,,,694.6203156250012,694.7846336670009,694.7846336670009,694.7846336670009,694.7846336670009,694.7846336670009,694.7846336670009,694.7846336670009,694.7846336670009,694.7846336670009,701.6208035420004,-7,7,1,3.0,6.433109666000746,5.0,3.6561743749989546,694.3293883340011,694.3349879590005,694.7846336670009,694.6203007920012,,,,,,,,694.3259694589997,694.3293408749996,None,,,,,,,207,kitchen,2,2024-03-18_15h07.59.039,image_similarity_rating,2023.2.3,None,2024-03-18 15h08.31.707708 +0100,
,114,124,304,304,stimuli/own/kitchen/114_kit.jpg,stimuli/own/kitchen/124_kit.jpg,,,,,,,,,0,55,55,303,701.6263712920008,,,,,,,,,,,701.9193243749996,702.0828101670013,702.0828101670013,702.0828101670013,702.0828101670013,702.0828101670013,702.0828101670013,702.0828101670013,702.0828101670013,702.0828101670013,713.4460433340009,7,-7,1,6.0,8.192214791000879,5.0,9.025749542000995,701.6244394590012,701.6263712920008,702.0828101670013,701.9193034590007,,,,,,,,701.6210372090009,701.6243921670011,None,,,,,,,207,kitchen,2,2024-03-18_15h07.59.039,image_similarity_rating,2023.2.3,None,2024-03-18 15h08.31.707708 +0100,
,106,123,173,173,stimuli/own/kitchen/106_kit.jpg,stimuli/own/kitchen/123_kit.jpg,,,,,,,,,0,56,56,172,713.4514717090005,,,,,,,,,,,713.7362002500013,713.9080127090001,713.9080127090001,713.9080127090001,713.9080127090001,713.9080127090001,713.9080127090001,713.9080127090001,713.9080127090001,713.9080127090001,723.3374593750013,-7,7,1,2.0,9.356979707999926,3.0,5.577458750000005,713.4496847500013,713.4514717090005,713.9080127090001,713.736183084,,,,,,,,713.4462675840005,713.4496373340007,None,,,,,,,207,kitchen,2,2024-03-18_15h07.59.039,image_similarity_rating,2023.2.3,None,2024-03-18 15h08.31.707708 +0100,
,120,138,421,421,stimuli/own/kitchen/120_kit.jpg,stimuli/own/kitchen/138_kit.jpg,,,,,,,,,0,57,57,420,723.342876875,,,,,,,,,,,723.6369345000003,723.8025245839999,723.8025245839999,723.8025245839999,723.8025245839999,723.8025245839999,723.8025245839999,723.8025245839999,723.8025245839999,723.8025245839999,732.6166546250006,7,-7,1,3.0,8.214070541998808,6.0,4.024724250000872,723.3411045000012,723.342876875,723.8025245839999,723.6369209170007,,,,,,,,723.3376799590005,723.3410570420001,None,,,,,,,207,kitchen,2,2024-03-18_15h07.59.039,image_similarity_rating,2023.2.3,None,2024-03-18 15h08.31.707708 +0100,
,102,139,65,606,stimuli/own/kitchen/102_kit.jpg,stimuli/own/kitchen/139_kit.jpg,,,,,,,,,0,58,58,605,732.6222755840008,,,,,,,,,,,732.9074541669997,733.0748419170013,733.0748419170013,733.0748419170013,733.0748419170013,733.0748419170013,733.0748419170013,733.0748419170013,733.0748419170013,733.0748419170013,740.6179123750007,-7,7,1,3.0,7.428345583000919,3.0,5.892120665999755,732.6203496670005,732.6222755840008,733.0748419170013,732.9074396249998,,,,,,,,732.6168799999996,732.6203031250006,None,,,,,,,207,kitchen,2,2024-03-18_15h07.59.039,image_similarity_rating,2023.2.3,None,2024-03-18 15h08.31.707708 +0100,
,101,134,27,27,stimuli/own/kitchen/101_kit.jpg,stimuli/own/kitchen/134_kit.jpg,,,,,,,,,0,59,59,26,740.6239344170008,,,,,,,,,,,740.9066192500013,741.0704336670005,741.0704336670005,741.0704336670005,741.0704336670005,741.0704336670005,741.0704336670005,741.0704336670005,741.0704336670005,741.0704336670005,748.4123674170005,-7,7,1,4.0,4.263412832999165,5.0,7.156335499999841,740.6217697089996,740.6239344170008,741.0704336670005,740.9066055840012,,,,,,,,740.6181323340006,740.6217222920004,None,,,,,,,207,kitchen,2,2024-03-18_15h07.59.039,image_similarity_rating,2023.2.3,None,2024-03-18 15h08.31.707708 +0100,
,123,124,460,460,stimuli/own/kitchen/123_kit.jpg,stimuli/own/kitchen/124_kit.jpg,,,,,,,,,0,60,60,459,748.4178752500011,,,,,,,,,,,748.7027823340013,748.8681307919996,748.8681307919996,748.8681307919996,748.8681307919996,748.8681307919996,748.8681307919996,748.8681307919996,748.8681307919996,748.8681307919996,758.2166796250003,-7,7,1,2.0,6.027568167000936,4.0,9.213955667000846,748.4159951250003,748.4178752500011,748.8681307919996,748.7027599169996,,,,,,,,748.412587584,748.4159480420003,None,,,,,,,207,kitchen,2,2024-03-18_15h07.59.039,image_similarity_rating,2023.2.3,None,2024-03-18 15h08.31.707708 +0100,
,113,119,275,275,stimuli/own/kitchen/113_kit.jpg,stimuli/own/kitchen/119_kit.jpg,,,,,,,,,0,61,61,274,758.2223835000004,,,,,,,,,,,758.5066624589999,758.6703206670009,758.6703206670009,758.6703206670009,758.6703206670009,758.6703206670009,758.6703206670009,758.6703206670009,758.6703206670009,758.6703206670009,768.6583574590004,7,-7,1,1.0,9.933383583998875,1.0,3.382662416999665,758.2204557500008,758.2223835000004,758.6703206670009,758.5066496670006,,,,,,,,758.2169036249998,758.2204080840002,None,,,,,,,207,kitchen,2,2024-03-18_15h07.59.039,image_similarity_rating,2023.2.3,None,2024-03-18 15h08.31.707708 +0100,
,105,109,132,132,stimuli/own/kitchen/105_kit.jpg,stimuli/own/kitchen/109_kit.jpg,,,,,,,,,0,62,62,131,768.668113709,,,,,,,,,,,768.9527107089998,769.1183710839996,769.1183710839996,769.1183710839996,769.1183710839996,769.1183710839996,769.1183710839996,769.1183710839996,769.1183710839996,769.1183710839996,780.7627900420011,-7,7,1,2.0,10.436273624998648,4.0,7.29430583300018,768.6619977090013,768.668113709,769.1183710839996,768.9526949170013,,,,,,,,768.6585764170013,768.6619508340009,None,,,,,,,207,kitchen,2,2024-03-18_15h07.59.039,image_similarity_rating,2023.2.3,None,2024-03-18 15h08.31.707708 +0100,
,114,127,307,307,stimuli/own/kitchen/114_kit.jpg,stimuli/own/kitchen/127_kit.jpg,,,,,,,,,0,63,63,306,780.7849767090011,,,,,,,,,,,782.5694522920003,782.7425697090002,782.7425697090002,782.7425697090002,782.7425697090002,782.7425697090002,782.7425697090002,782.7425697090002,782.7425697090002,782.7425697090002,790.1537885420003,-7,7,2,5.0,5.549765624999054,4.0,7.21218645800036,782.2782975419996,782.2853017920006,782.7425697090002,782.5694275000005,,,,,,,,780.7630088340011,782.2769707919997,space,780.7849767090011,1.4918325409998943,None,,,,207,kitchen,2,2024-03-18_15h07.59.039,image_similarity_rating,2023.2.3,None,2024-03-18 15h08.31.707708 +0100,
,129,131,531,531,stimuli/own/kitchen/129_kit.jpg,stimuli/own/kitchen/131_kit.jpg,,,,,,,,,0,64,64,530,790.159793750001,,,,,,,,,,,790.4527000420003,790.6242698750011,790.6242698750011,790.6242698750011,790.6242698750011,790.6242698750011,790.6242698750011,790.6242698750011,790.6242698750011,790.6242698750011,797.2832342500005,7,-7,2,1.0,5.791016375000254,2.0,6.434017499999754,790.158004334,790.159793750001,790.6242698750011,790.4526750839996,,,,,,,,790.1540073340002,790.1579562919997,None,,,,,,,207,kitchen,2,2024-03-18_15h07.59.039,image_similarity_rating,2023.2.3,None,2024-03-18 15h08.31.707708 +0100,
,104,138,127,127,stimuli/own/kitchen/104_kit.jpg,stimuli/own/kitchen/138_kit.jpg,,,,,,,,,0,65,65,126,797.2888712500007,,,,,,,,,,,797.5731962090013,797.7364364590012,797.7364364590012,797.7364364590012,797.7364364590012,797.7364364590012,797.7364364590012,797.7364364590012,797.7364364590012,797.7364364590012,808.9456535000008,-7,7,2,6.0,6.8054298749993904,5.0,10.583574333999422,797.2869400420004,797.2888712500007,797.7364364590012,797.573184334,,,,,,,,797.2834650839995,797.2868918340009,None,,,,,,,207,kitchen,2,2024-03-18_15h07.59.039,image_similarity_rating,2023.2.3,None,2024-03-18 15h08.31.707708 +0100,
,119,127,393,393,stimuli/own/kitchen/119_kit.jpg,stimuli/own/kitchen/127_kit.jpg,,,,,,,,,0,66,66,392,808.9511125420013,,,,,,,,,,,809.2360937920002,809.4009851669998,809.4009851669998,809.4009851669998,809.4009851669998,809.4009851669998,809.4009851669998,809.4009851669998,809.4009851669998,809.4009851669998,815.1882651249998,7,-7,2,3.0,4.514229542000976,2.0,5.532052917000328,808.9493078750002,808.9511125420013,809.4009851669998,809.2360785420005,,,,,,,,808.9458772090002,808.9492612920003,None,,,,,,,207,kitchen,2,2024-03-18_15h07.59.039,image_similarity_rating,2023.2.3,None,2024-03-18 15h08.31.707708 +0100,
,130,132,542,542,stimuli/own/kitchen/130_kit.jpg,stimuli/own/kitchen/132_kit.jpg,,,,,,,,,0,67,67,541,815.2013077920001,,,,,,,,,,,815.4859967920002,815.6571052500003,815.6571052500003,815.6571052500003,815.6571052500003,815.6571052500003,815.6571052500003,815.6571052500003,815.6571052500003,815.6571052500003,825.7290137920008,7,-7,2,3.0,8.725671707999936,4.0,2.447386040999845,815.1921214590002,815.2013077920001,815.6571052500003,815.4859680420013,,,,,,,,815.1885002500003,815.1920723750009,None,,,,,,,207,kitchen,2,2024-03-18_15h07.59.039,image_similarity_rating,2023.2.3,None,2024-03-18 15h08.31.707708 +0100,
,121,129,431,431,stimuli/own/kitchen/121_kit.jpg,stimuli/own/kitchen/129_kit.jpg,,,,,,,,,0,68,68,430,825.7345583340011,,,,,,,,,,,826.0192411669996,826.1896468750001,826.1896468750001,826.1896468750001,826.1896468750001,826.1896468750001,826.1896468750001,826.1896468750001,826.1896468750001,826.1896468750001,833.2073747499999,7,-7,2,2.0,5.127521332999095,2.0,6.862773999999263,825.732664000001,825.7345583340011,826.1896468750001,826.0192240840006,,,,,,,,825.7292330420005,825.7326171670011,None,,,,,,,207,kitchen,2,2024-03-18_15h07.59.039,image_similarity_rating,2023.2.3,None,2024-03-18 15h08.31.707708 +0100,
,132,141,567,567,stimuli/own/kitchen/132_kit.jpg,stimuli/own/kitchen/141_kit.jpg,,,,,,,,,0,69,69,566,833.2180523340012,,,,,,,,,,,833.5024794170004,833.6662935420009,833.6662935420009,833.6662935420009,833.6662935420009,833.6662935420009,833.6662935420009,833.6662935420009,833.6662935420009,833.6662935420009,840.8414402500002,-7,7,2,2.0,7.034231458999784,1.0,3.915694875000554,833.2110050419997,833.2180523340012,833.6662935420009,833.5024645000012,,,,,,,,833.207595459,833.2109586250008,None,,,,,,,207,kitchen,2,2024-03-18_15h07.59.039,image_similarity_rating,2023.2.3,None,2024-03-18 15h08.31.707708 +0100,
,103,134,92,92,stimuli/own/kitchen/103_kit.jpg,stimuli/own/kitchen/134_kit.jpg,,,,,,,,,0,70,70,91,840.851167584,,,,,,,,,,,841.1370211249996,841.3011422090003,841.3011422090003,841.3011422090003,841.3011422090003,841.3011422090003,841.3011422090003,841.3011422090003,841.3011422090003,841.3011422090003,846.9209052919996,7,-7,2,3.0,3.9413491249997605,3.0,5.448066832999757,840.8451872500009,840.851167584,841.3011422090003,841.1370070419998,,,,,,,,840.841662584,840.845140292,None,,,,,,,207,kitchen,2,2024-03-18_15h07.59.039,image_similarity_rating,2023.2.3,None,2024-03-18 15h08.31.707708 +0100,
,113,139,293,293,stimuli/own/kitchen/113_kit.jpg,stimuli/own/kitchen/139_kit.jpg,,,,,,,,,0,71,71,292,846.9349689170012,,,,,,,,,,,847.2191144589997,847.3820218750006,847.3820218750006,847.3820218750006,847.3820218750006,847.3820218750006,847.3820218750006,847.3820218750006,847.3820218750006,847.3820218750006,853.2248497500004,-7,7,2,2.0,5.789263125001526,2.0,2.930590124999071,846.9248884589997,846.9349689170012,847.3820218750006,847.2191035840005,,,,,,,,846.9211414590009,846.9248393340004,None,,,,,,,207,kitchen,2,2024-03-18_15h07.59.039,image_similarity_rating,2023.2.3,None,2024-03-18 15h08.31.707708 +0100,
,138,141,592,592,stimuli/own/kitchen/138_kit.jpg,stimuli/own/kitchen/141_kit.jpg,,,,,,,,,0,72,72,591,853.2344002919999,,,,,,,,,,,853.5198490420007,853.6837222499998,853.6837222499998,853.6837222499998,853.6837222499998,853.6837222499998,853.6837222499998,853.6837222499998,853.6837222499998,853.6837222499998,860.9505081670013,7,-7,2,3.0,3.8890717920003226,4.0,5.1670777079998516,853.2286623750006,853.2344002919999,853.6837222499998,853.519835000001,,,,,,,,853.2250700840013,853.2286151250009,None,,,,,,,207,kitchen,2,2024-03-18_15h07.59.039,image_similarity_rating,2023.2.3,None,2024-03-18 15h08.31.707708 +0100,
,116,130,332,332,stimuli/own/kitchen/116_kit.jpg,stimuli/own/kitchen/130_kit.jpg,,,,,,,,,0,73,73,331,860.9562004170002,,,,,,,,,,,861.2398868750006,861.406193584,861.406193584,861.406193584,861.406193584,861.406193584,861.406193584,861.406193584,861.406193584,861.406193584,870.2168009590005,-7,7,2,3.0,8.685026584000298,1.0,2.275422000000617,860.9542727090011,860.9562004170002,861.406193584,861.2398727920008,,,,,,,,860.9507282089999,860.954225417001,None,,,,,,,207,kitchen,2,2024-03-18_15h07.59.039,image_similarity_rating,2023.2.3,None,2024-03-18 15h08.31.707708 +0100,
,109,130,207,207,stimuli/own/kitchen/109_kit.jpg,stimuli/own/kitchen/130_kit.jpg,,,,,,,,,0,74,74,206,870.2226175420001,,,,,,,,,,,870.5065347500004,870.6705563750002,870.6705563750002,870.6705563750002,870.6705563750002,870.6705563750002,870.6705563750002,870.6705563750002,870.6705563750002,870.6705563750002,876.6743056249998,-7,7,2,1.0,5.9253213749998395,1.0,2.5280223749996367,870.220543667001,870.2226175420001,870.6705563750002,870.5065210840003,,,,,,,,870.2170453750005,870.2204968750011,None,,,,,,,207,kitchen,2,2024-03-18_15h07.59.039,image_similarity_rating,2023.2.3,None,2024-03-18 15h08.31.707708 +0100,
,112,137,266,266,stimuli/own/kitchen/112_kit.jpg,stimuli/own/kitchen/137_kit.jpg,,,,,,,,,0,75,75,265,876.6843604170008,,,,,,,,,,,876.9689777090007,877.1341032090004,877.1341032090004,877.1341032090004,877.1341032090004,877.1341032090004,877.1341032090004,877.1341032090004,877.1341032090004,877.1341032090004,886.3711253340007,-7,7,2,3.0,6.024579208000432,2.0,9.088603833000889,876.6779466250009,876.6843604170008,877.1341032090004,876.9689642499998,,,,,,,,876.6745259170002,876.6779004170003,None,,,,,,,207,kitchen,2,2024-03-18_15h07.59.039,image_similarity_rating,2023.2.3,None,2024-03-18 15h08.31.707708 +0100,
,120,137,420,420,stimuli/own/kitchen/120_kit.jpg,stimuli/own/kitchen/137_kit.jpg,,,,,,,,,0,76,76,419,886.376741334001,,,,,,,,,,,886.669139959,886.8334572090007,886.8334572090007,886.8334572090007,886.8334572090007,886.8334572090007,886.8334572090007,886.8334572090007,886.8334572090007,886.8334572090007,895.383032959,7,-7,2,3.0,8.47227808399839,5.0,3.615659291999691,886.3747952920003,886.376741334001,886.8334572090007,886.6691297500001,,,,,,,,886.3713587500006,886.3747487920009,None,,,,,,,207,kitchen,2,2024-03-18_15h07.59.039,image_similarity_rating,2023.2.3,None,2024-03-18 15h08.31.707708 +0100,
,126,132,509,509,stimuli/own/kitchen/126_kit.jpg,stimuli/own/kitchen/132_kit.jpg,,,,,,,,,0,77,77,508,895.3888125419999,,,,,,,,,,,895.6731366250006,895.8402049590004,895.8402049590004,895.8402049590004,895.8402049590004,895.8402049590004,895.8402049590004,895.8402049590004,895.8402049590004,895.8402049590004,907.578807625001,7,-7,2,5.0,5.963918790999742,3.0,11.588875959001598,895.3868701669999,895.3888125419999,895.8402049590004,895.6731227920009,,,,,,,,895.3832528340008,895.3868230000007,None,,,,,,,207,kitchen,2,2024-03-18_15h07.59.039,image_similarity_rating,2023.2.3,None,2024-03-18 15h08.31.707708 +0100,
,113,141,295,295,stimuli/own/kitchen/113_kit.jpg,stimuli/own/kitchen/141_kit.jpg,,,,,,,,,0,78,78,294,907.5842297920008,,,,,,,,,,,907.8690741669998,908.0333305840013,908.0333305840013,908.0333305840013,908.0333305840013,908.0333305840013,908.0333305840013,908.0333305840013,908.0333305840013,908.0333305840013,914.4002963750008,7,-7,2,3.0,5.701456916998723,2.0,2.6659526660005213,907.5824548750006,907.5842297920008,908.0333305840013,907.8690636669999,,,,,,,,907.5790272920003,907.5824074169996,None,,,,,,,207,kitchen,2,2024-03-18_15h07.59.039,image_similarity_rating,2023.2.3,None,2024-03-18 15h08.31.707708 +0100,
,109,117,195,195,stimuli/own/kitchen/109_kit.jpg,stimuli/own/kitchen/117_kit.jpg,,,,,,,,,0,79,79,194,914.406028667001,,,,,,,,,,,914.6899200420012,914.8568522090009,914.8568522090009,914.8568522090009,914.8568522090009,914.8568522090009,914.8568522090009,914.8568522090009,914.8568522090009,914.8568522090009,923.3117842499996,7,-7,2,2.0,8.340802457998507,2.0,5.143409832999168,914.4040931670006,914.406028667001,914.8568522090009,914.6899067920003,,,,,,,,914.4005155000013,914.4040468340008,None,,,,,,,207,kitchen,2,2024-03-18_15h07.59.039,image_similarity_rating,2023.2.3,None,2024-03-18 15h08.31.707708 +0100,
,103,130,89,89,stimuli/own/kitchen/103_kit.jpg,stimuli/own/kitchen/130_kit.jpg,,,,,,,,,0,80,80,88,923.3173051670001,,,,,,,,,,,923.6022389170012,923.7668542089996,923.7668542089996,923.7668542089996,923.7668542089996,923.7668542089996,923.7668542089996,923.7668542089996,923.7668542089996,923.7668542089996,932.0828348750001,7,-7,2,4.0,6.725494166999852,4.0,8.192420833000142,923.3154045840001,923.3173051670001,923.7668542089996,923.6022228750007,,,,,,,,923.3120022920011,923.3153577499997,None,,,,,,,207,kitchen,2,2024-03-18_15h07.59.039,image_similarity_rating,2023.2.3,None,2024-03-18 15h08.31.707708 +0100,
,105,123,144,144,stimuli/own/kitchen/105_kit.jpg,stimuli/own/kitchen/123_kit.jpg,,,,,,,,,0,81,81,143,932.0884607919998,,,,,,,,,,,932.3729379590004,932.5369031250011,932.5369031250011,932.5369031250011,932.5369031250011,932.5369031250011,932.5369031250011,932.5369031250011,932.5369031250011,932.5369031250011,940.6199497090001,7,-7,2,3.0,5.6516899170001125,5.0,7.471626749998904,932.0866499170006,932.0884607919998,932.5369031250011,932.3729276249996,,,,,,,,932.0830648749998,932.0866027920001,None,,,,,,,207,kitchen,2,2024-03-18_15h07.59.039,image_similarity_rating,2023.2.3,None,2024-03-18 15h08.31.707708 +0100,
,105,111,133,133,stimuli/own/kitchen/105_kit.jpg,stimuli/own/kitchen/111_kit.jpg,,,,,,,,,0,82,82,132,940.6255221250012,,,,,,,,,,,940.9191582920012,941.0916349170002,941.0916349170002,941.0916349170002,941.0916349170002,941.0916349170002,941.0916349170002,941.0916349170002,941.0916349170002,941.0916349170002,948.3532827920008,7,-7,2,5.0,7.001785667000149,4.0,3.9815619159999187,940.6235956250002,940.6255221250012,941.0916349170002,940.9191365839997,,,,,,,,940.6201692499999,940.6235488340008,None,,,,,,,207,kitchen,2,2024-03-18_15h07.59.039,image_similarity_rating,2023.2.3,None,2024-03-18 15h08.31.707708 +0100,
,113,135,289,289,stimuli/own/kitchen/113_kit.jpg,stimuli/own/kitchen/135_kit.jpg,,,,,,,,,0,83,83,288,948.3588490420007,,,,,,,,,,,948.6519957500004,948.8165892920006,948.8165892920006,948.8165892920006,948.8165892920006,948.8165892920006,948.8165892920006,948.8165892920006,948.8165892920006,948.8165892920006,957.916431959,7,-7,2,4.0,7.636857166000482,3.0,8.47382695899978,948.3569240840006,948.3588490420007,948.8165892920006,948.6519801249997,,,,,,,,948.3535007090013,948.3568765840009,None,,,,,,,207,kitchen,2,2024-03-18_15h07.59.039,image_similarity_rating,2023.2.3,None,2024-03-18 15h08.31.707708 +0100,
,131,139,557,557,stimuli/own/kitchen/131_kit.jpg,stimuli/own/kitchen/139_kit.jpg,,,,,,,,,0,84,84,556,957.9222577090004,,,,,,,,,,,958.2063231250013,958.3776507090006,958.3776507090006,958.3776507090006,958.3776507090006,958.3776507090006,958.3776507090006,958.3776507090006,958.3776507090006,958.3776507090006,963.3619127090005,-7,7,2,2.0,4.272119332999864,1.0,3.1676022079991526,957.9201666669996,957.9222577090004,958.3776507090006,958.2063044170009,,,,,,,,957.9166694590003,957.9201202920012,None,,,,,,,207,kitchen,2,2024-03-18_15h07.59.039,image_similarity_rating,2023.2.3,None,2024-03-18 15h08.31.707708 +0100,
,132,135,561,561,stimuli/own/kitchen/132_kit.jpg,stimuli/own/kitchen/135_kit.jpg,,,,,,,,,0,85,85,560,963.367322125001,,,,,,,,,,,963.6520151250006,963.8193302920008,963.8193302920008,963.8193302920008,963.8193302920008,963.8193302920008,963.8193302920008,963.8193302920008,963.8193302920008,963.8193302920008,970.8615102920012,7,-7,2,3.0,4.0548471660004,4.0,6.780292125000415,963.3655612090006,963.367322125001,963.8193302920008,963.6519989999997,,,,,,,,963.3621329590005,963.365514000001,None,,,,,,,207,kitchen,2,2024-03-18_15h07.59.039,image_similarity_rating,2023.2.3,None,2024-03-18 15h08.31.707708 +0100,
,112,131,261,261,stimuli/own/kitchen/112_kit.jpg,stimuli/own/kitchen/131_kit.jpg,,,,,,,,,0,86,86,260,970.8671093749999,,,,,,,,,,,971.1519762500011,971.3163926249999,971.3163926249999,971.3163926249999,971.3163926249999,971.3163926249999,971.3163926249999,971.3163926249999,971.3163926249999,971.3163926249999,981.5161123340004,-7,7,2,1.0,8.028030875000695,2.0,9.54940862500007,970.8651527500006,970.8671093749999,971.3163926249999,971.1519615420002,,,,,,,,970.8617269170009,970.8651057919997,None,,,,,,,207,kitchen,2,2024-03-18_15h07.59.039,image_similarity_rating,2023.2.3,None,2024-03-18 15h08.31.707708 +0100,
,126,138,514,514,stimuli/own/kitchen/126_kit.jpg,stimuli/own/kitchen/138_kit.jpg,,,,,,,,,0,87,87,513,981.5216819590005,,,,,,,,,,,981.806365417,981.9742646249997,981.9742646249997,981.9742646249997,981.9742646249997,981.9742646249997,981.9742646249997,981.9742646249997,981.9742646249997,981.9742646249997,988.6160934590007,7,-7,2,3.0,4.74202858299941,4.0,6.492939124998884,981.5199176670012,981.5216819590005,981.9742646249997,981.8063499170003,,,,,,,,981.5163483340002,981.5198705000003,None,,,,,,,207,kitchen,2,2024-03-18_15h07.59.039,image_similarity_rating,2023.2.3,None,2024-03-18 15h08.31.707708 +0100,
,135,140,579,579,stimuli/own/kitchen/135_kit.jpg,stimuli/own/kitchen/140_kit.jpg,,,,,,,,,0,88,88,578,988.6218602919998,,,,,,,,,,,988.9063205000002,989.0735430000004,989.0735430000004,989.0735430000004,989.0735430000004,989.0735430000004,989.0735430000004,989.0735430000004,989.0735430000004,989.0735430000004,998.1660874170011,-7,7,2,2.0,7.0027170830016985,4.0,8.92846154200015,988.619890375001,988.6218602919998,989.0735430000004,988.9063013750001,,,,,,,,988.616324042001,988.619840667001,None,,,,,,,207,kitchen,2,2024-03-18_15h07.59.039,image_similarity_rating,2023.2.3,None,2024-03-18 15h08.31.707708 +0100,
,104,129,119,119,stimuli/own/kitchen/104_kit.jpg,stimuli/own/kitchen/129_kit.jpg,,,,,,,,,0,89,89,118,998.1715112500005,,,,,,,,,,,998.4560569590012,998.6209282500004,998.6209282500004,998.6209282500004,998.6209282500004,998.6209282500004,998.6209282500004,998.6209282500004,998.6209282500004,998.6209282500004,1010.4904711250001,7,-7,2,1.0,9.062986541999635,3.0,11.645620624998628,998.1697737920003,998.1715112500005,998.6209282500004,998.4560445000006,,,,,,,,998.1663170840002,998.1697251250007,None,,,,,,,207,kitchen,2,2024-03-18_15h07.59.039,image_similarity_rating,2023.2.3,None,2024-03-18 15h08.31.707708 +0100,
,131,137,555,555,stimuli/own/kitchen/131_kit.jpg,stimuli/own/kitchen/137_kit.jpg,,,,,,,,,0,90,90,554,1010.5006672500003,,,,,,,,,,,1010.7851580420011,1010.9564750000009,1010.9564750000009,1010.9564750000009,1010.9564750000009,1010.9564750000009,1010.9564750000009,1010.9564750000009,1010.9564750000009,1010.9564750000009,1018.0327343339995,7,-7,2,2.0,6.301526499999454,3.0,5.426872459000151,1010.4941120420008,1010.5006672500003,1010.9564750000009,1010.7851398340008,,,,,,,,1010.4906923340004,1010.494065584,None,,,,,,,207,kitchen,2,2024-03-18_15h07.59.039,image_similarity_rating,2023.2.3,None,2024-03-18 15h08.31.707708 +0100,
,103,137,95,95,stimuli/own/kitchen/103_kit.jpg,stimuli/own/kitchen/137_kit.jpg,,,,,,,,,0,91,91,94,1018.0382908339998,,,,,,,,,,,1018.322924084001,1018.4907158340011,1018.4907158340011,1018.4907158340011,1018.4907158340011,1018.4907158340011,1018.4907158340011,1018.4907158340011,1018.4907158340011,1018.4907158340011,1024.5828330420009,7,-7,2,3.0,4.591321457999584,2.0,5.179680916000507,1018.0365356250004,1018.0382908339998,1018.4907158340011,1018.322908917,,,,,,,,1018.0329833750002,1018.0364889169996,None,,,,,,,207,kitchen,2,2024-03-18_15h07.59.039,image_similarity_rating,2023.2.3,None,2024-03-18 15h08.31.707708 +0100,
,104,140,129,129,stimuli/own/kitchen/104_kit.jpg,stimuli/own/kitchen/140_kit.jpg,,,,,,,,,0,92,92,128,1024.5884426250013,,,,,,,,,,,1024.8725126669997,1025.036826417001,1025.036826417001,1025.036826417001,1025.036826417001,1025.036826417001,1025.036826417001,1025.036826417001,1025.036826417001,1025.036826417001,1034.4616465420004,-7,7,2,3.0,9.297025875001054,5.0,3.1412342920011724,1024.586519542001,1024.5884426250013,1025.036826417001,1024.8724969169998,,,,,,,,1024.5830837089998,1024.5864732090013,None,,,,,,,207,kitchen,2,2024-03-18_15h07.59.039,image_similarity_rating,2023.2.3,None,2024-03-18 15h08.31.707708 +0100,
,102,118,46,46,stimuli/own/kitchen/102_kit.jpg,stimuli/own/kitchen/118_kit.jpg,,,,,,,,,0,93,93,45,1034.4841340840012,,,,,,,,,,,1034.7681026250011,1034.932554459001,1034.932554459001,1034.932554459001,1034.932554459001,1034.932554459001,1034.932554459001,1034.932554459001,1034.932554459001,1034.932554459001,1043.7830483340003,-7,7,2,3.0,8.42127229200014,6.0,5.350871791000827,1034.4653955840004,1034.4841340840012,,1034.7680821249996,,,,,,,,1034.461867125001,1034.4653483340007,None,,,,,,,207,kitchen,2,2024-03-18_15h07.59.039,image_similarity_rating,2023.2.3,None,2024-03-18 15h08.31.707708 +0100,
,120,135,418,418,stimuli/own/kitchen/120_kit.jpg,stimuli/own/kitchen/135_kit.jpg,,,,,,,,,0,94,94,417,1043.7886684590012,,,,,,,,,,,1044.085026875,1044.248265667,1044.248265667,1044.248265667,1044.248265667,1044.248265667,1044.248265667,1044.248265667,1044.248265667,1044.248265667,1056.069503042001,7,-7,2,4.0,11.644008582999959,3.0,7.130434624999907,1043.786733584,1043.7886684590012,1044.248265667,1044.0850137090001,,,,,,,,1043.7832667500006,1043.7866867920002,None,,,,,,,207,kitchen,2,2024-03-18_15h07.59.039,image_similarity_rating,2023.2.3,None,2024-03-18 15h08.31.707708 +0100,
,112,122,253,253,stimuli/own/kitchen/112_kit.jpg,stimuli/own/kitchen/122_kit.jpg,,,,,,,,,0,95,95,252,1056.0750675840009,,,,,,,,,,,1056.368380459,1056.5370204170013,1056.5370204170013,1056.5370204170013,1056.5370204170013,1056.5370204170013,1056.5370204170013,1056.5370204170013,1056.5370204170013,1056.5370204170013,1062.461555834001,-7,7,2,4.0,4.515213208000205,3.0,5.761704042000929,1056.073136500001,1056.0750675840009,1056.5370204170013,1056.368364209,,,,,,,,1056.0697219590002,1056.0730895420002,None,,,,,,,207,kitchen,2,2024-03-18_15h07.59.039,image_similarity_rating,2023.2.3,None,2024-03-18 15h08.31.707708 +0100,
,123,126,462,462,stimuli/own/kitchen/123_kit.jpg,stimuli/own/kitchen/126_kit.jpg,,,,,,,,,0,96,96,461,1062.4670753749997,,,,,,,,,,,1062.751747792001,1062.9160702090012,1062.9160702090012,1062.9160702090012,1062.9160702090012,1062.9160702090012,1062.9160702090012,1062.9160702090012,1062.9160702090012,1062.9160702090012,1071.0694912500003,7,-7,2,2.0,8.064352874998804,4.0,5.881597875000807,1062.4652803749996,1062.4670753749997,1062.9160702090012,1062.7517326670004,,,,,,,,1062.4617740840004,1062.465233459001,None,,,,,,,207,kitchen,2,2024-03-18_15h07.59.039,image_similarity_rating,2023.2.3,None,2024-03-18 15h08.31.707708 +0100,
,117,129,353,353,stimuli/own/kitchen/117_kit.jpg,stimuli/own/kitchen/129_kit.jpg,,,,,,,,,0,97,97,352,1071.0750418340012,,,,,,,,,,,1071.368410459001,1071.5386304170006,1071.5386304170006,1071.5386304170006,1071.5386304170006,1071.5386304170006,1071.5386304170006,1071.5386304170006,1071.5386304170006,1071.5386304170006,1079.3946771669998,7,-7,2,1.0,3.61378145800154,2.0,7.63012020899987,1071.073114334,1071.0750418340012,1071.5386304170006,1071.3683931670002,,,,,,,,1071.0697073749998,1071.0730672090012,None,,,,,,,207,kitchen,2,2024-03-18_15h07.59.039,image_similarity_rating,2023.2.3,None,2024-03-18 15h08.31.707708 +0100,
,105,130,150,150,stimuli/own/kitchen/105_kit.jpg,stimuli/own/kitchen/130_kit.jpg,,,,,,,,,0,98,98,149,1079.400338417001,,,,,,,,,,,1079.6850791670004,1079.8512157500008,1079.8512157500008,1079.8512157500008,1079.8512157500008,1079.8512157500008,1079.8512157500008,1079.8512157500008,1079.8512157500008,1079.8512157500008,1088.0491831250001,-7,7,2,3.0,3.966185833000054,3.0,7.6615175000006275,1079.3984755420006,1079.400338417001,1079.8512157500008,1079.6850593750005,,,,,,,,1079.3948994170005,1079.3984276669999,None,,,,,,,207,kitchen,2,2024-03-18_15h07.59.039,image_similarity_rating,2023.2.3,None,2024-03-18 15h08.31.707708 +0100,
,101,106,5,5,stimuli/own/kitchen/101_kit.jpg,stimuli/own/kitchen/106_kit.jpg,,,,,,,,,0,99,99,4,1088.0548212920003,,,,,,,,,,,1088.3391921250004,1088.5069083750004,1088.5069083750004,1088.5069083750004,1088.5069083750004,1088.5069083750004,1088.5069083750004,1088.5069083750004,1088.5069083750004,1088.5069083750004,1097.3779350000004,-7,7,2,2.0,6.378097374999925,4.0,8.30871633300012,1088.052877084001,1088.0548212920003,1088.5069083750004,1088.3391771250008,,,,,,,,1088.0494325420004,1088.0528300839997,None,,,,,,,207,kitchen,2,2024-03-18_15h07.59.039,image_similarity_rating,2023.2.3,None,2024-03-18 15h08.31.707708 +0100,
,109,140,216,216,stimuli/own/kitchen/109_kit.jpg,stimuli/own/kitchen/140_kit.jpg,,,,,,,,,0,100,100,215,1097.383325834,,,,,,,,,,,1097.668318084001,1097.8338564170008,1097.8338564170008,1097.8338564170008,1097.8338564170008,1097.8338564170008,1097.8338564170008,1097.8338564170008,1097.8338564170008,1097.8338564170008,1103.9322820840007,-7,7,2,2.0,5.902849291998791,4.0,4.627457874999891,1097.3815829590003,1097.383325834,1097.8338564170008,1097.668303542001,,,,,,,,1097.3781540420005,1097.3815358749998,None,,,,,,,207,kitchen,2,2024-03-18_15h07.59.039,image_similarity_rating,2023.2.3,None,2024-03-18 15h08.31.707708 +0100,
,118,120,366,366,stimuli/own/kitchen/118_kit.jpg,stimuli/own/kitchen/120_kit.jpg,,,,,,,,,0,101,101,365,1103.938032125001,,,,,,,,,,,1104.2222778340001,1104.3866244170003,1104.3866244170003,1104.3866244170003,1104.3866244170003,1104.3866244170003,1104.3866244170003,1104.3866244170003,1104.3866244170003,1104.3866244170003,1111.1444607920002,-7,7,2,3.0,6.6414548749999085,2.0,4.605508082999222,1103.9361072499996,1103.938032125001,1104.3866244170003,1104.2222657500006,,,,,,,,1103.932508459,1103.936060125001,None,,,,,,,207,kitchen,2,2024-03-18_15h07.59.039,image_similarity_rating,2023.2.3,None,2024-03-18 15h08.31.707708 +0100,
,113,114,271,271,stimuli/own/kitchen/113_kit.jpg,stimuli/own/kitchen/114_kit.jpg,,,,,,,,,0,102,102,270,1111.1500022090004,,,,,,,,,,,1111.4359166249997,1111.6003158340009,1111.6003158340009,1111.6003158340009,1111.6003158340009,1111.6003158340009,1111.6003158340009,1111.6003158340009,1111.6003158340009,1111.6003158340009,1119.9072227920005,7,-7,2,3.0,7.727504959000726,1.0,3.414965083000425,1111.1480947920008,1111.1500022090004,1111.6003158340009,1111.4359029589996,,,,,,,,1111.1446816670014,1111.1480483340001,None,,,,,,,207,kitchen,2,2024-03-18_15h07.59.039,image_similarity_rating,2023.2.3,None,2024-03-18 15h08.31.707708 +0100,
,119,141,405,405,stimuli/own/kitchen/119_kit.jpg,stimuli/own/kitchen/141_kit.jpg,,,,,,,,,0,103,103,404,1119.9169025419997,,,,,,,,,,,1120.2015575839996,1120.366259792001,1120.366259792001,1120.366259792001,1120.366259792001,1120.366259792001,1120.366259792001,1120.366259792001,1120.366259792001,1120.366259792001,1124.8489632500005,7,-7,2,1.0,3.664402083000823,1.0,4.33202458300002,1119.9108755420002,1119.9169025419997,1120.366259792001,1120.2015425420013,,,,,,,,1119.9074555000007,1119.9108291250013,None,,,,,,,207,kitchen,2,2024-03-18_15h07.59.039,image_similarity_rating,2023.2.3,None,2024-03-18 15h08.31.707708 +0100,
,136,139,583,583,stimuli/own/kitchen/136_kit.jpg,stimuli/own/kitchen/139_kit.jpg,,,,,,,,,0,104,104,582,1124.8545908750002,,,,,,,,,,,1125.1397616670001,1125.3040539169997,1125.3040539169997,1125.3040539169997,1125.3040539169997,1125.3040539169997,1125.3040539169997,1125.3040539169997,1125.3040539169997,1125.3040539169997,1136.4525458750013,7,-7,2,2.0,9.434655541999746,2.0,11.000573082999836,1124.8526551249997,1124.8545908750002,1125.3040539169997,1125.1397516670004,,,,,,,,1124.8491977089998,1124.8526077919996,None,,,,,,,207,kitchen,2,2024-03-18_15h07.59.039,image_similarity_rating,2023.2.3,None,2024-03-18 15h08.31.707708 +0100,
,112,132,262,611,stimuli/own/kitchen/112_kit.jpg,stimuli/own/kitchen/132_kit.jpg,,,,,,,,,0,105,105,610,1136.4583682499997,,,,,,,,,,,1136.751500417,1136.9203683750002,1136.9203683750002,1136.9203683750002,1136.9203683750002,1136.9203683750002,1136.9203683750002,1136.9203683750002,1136.9203683750002,1136.9203683750002,1144.9236131670004,7,-7,2,2.0,7.86486695900021,1.0,2.765865125000346,1136.4565576250006,1136.4583682499997,1136.9203683750002,1136.7514831669996,,,,,,,,1136.452765584001,1136.4565083340003,None,,,,,,,207,kitchen,2,2024-03-18_15h07.59.039,image_similarity_rating,2023.2.3,None,2024-03-18 15h08.31.707708 +0100,
,114,139,317,317,stimuli/own/kitchen/114_kit.jpg,stimuli/own/kitchen/139_kit.jpg,,,,,,,,,0,106,106,316,1144.9336284590008,,,,,,,,,,,1145.2182009999997,1145.3850709590006,1145.3850709590006,1145.3850709590006,1145.3850709590006,1145.3850709590006,1145.3850709590006,1145.3850709590006,1145.3850709590006,1145.3850709590006,1153.306265000001,7,-7,2,2.0,6.093846457999462,3.0,5.195860666999579,1144.927234625,1144.9336284590008,1145.3850709590006,1145.2181837500011,,,,,,,,1144.9238326249997,1144.9271872500012,None,,,,,,,207,kitchen,2,2024-03-18_15h07.59.039,image_similarity_rating,2023.2.3,None,2024-03-18 15h08.31.707708 +0100,
,119,140,404,404,stimuli/own/kitchen/119_kit.jpg,stimuli/own/kitchen/140_kit.jpg,,,,,,,,,0,107,107,403,1153.3167885000003,,,,,,,,,,,1153.6014674590006,1153.7724700840008,1153.7724700840008,1153.7724700840008,1153.7724700840008,1153.7724700840008,1153.7724700840008,1153.7724700840008,1153.7724700840008,1153.7724700840008,1162.0156714590012,-7,7,2,3.0,6.204896417000782,2.0,7.79296904200055,1153.3098983340005,1153.3167885000003,1153.7724700840008,1153.6014452920008,,,,,,,,1153.3064879169997,1153.309851375001,None,,,,,,,207,kitchen,2,2024-03-18_15h07.59.039,image_similarity_rating,2023.2.3,None,2024-03-18 15h08.31.707708 +0100,
,119,121,387,387,stimuli/own/kitchen/119_kit.jpg,stimuli/own/kitchen/121_kit.jpg,,,,,,,,,0,108,108,386,1162.021298959,,,,,,,,,,,1162.3057022089997,1162.473595417001,1162.473595417001,1162.473595417001,1162.473595417001,1162.473595417001,1162.473595417001,1162.473595417001,1162.473595417001,1162.473595417001,1171.602515292001,7,-7,2,3.0,6.764025041999048,3.0,9.004784875000041,1162.0193638340006,1162.021298959,1162.473595417001,1162.3056866670013,,,,,,,,1162.0159198750007,1162.019316834001,None,,,,,,,207,kitchen,2,2024-03-18_15h07.59.039,image_similarity_rating,2023.2.3,None,2024-03-18 15h08.31.707708 +0100,
,126,137,513,513,stimuli/own/kitchen/126_kit.jpg,stimuli/own/kitchen/137_kit.jpg,,,,,,,,,0,109,109,512,1171.608077625,,,,,,,,,,,1171.90129075,1172.067255625001,1172.067255625001,1172.067255625001,1172.067255625001,1172.067255625001,1172.067255625001,1172.067255625001,1172.067255625001,1172.067255625001,1181.594494250001,-7,7,2,3.0,4.149759791998804,4.0,8.98391887499929,1171.6061337089996,1171.608077625,1172.067255625001,1171.9012751250011,,,,,,,,1171.602734375001,1171.6060873750012,None,,,,,,,207,kitchen,2,2024-03-18_15h07.59.039,image_similarity_rating,2023.2.3,None,2024-03-18 15h08.31.707708 +0100,
,114,141,319,319,stimuli/own/kitchen/114_kit.jpg,stimuli/own/kitchen/141_kit.jpg,,,,,,,,,0,110,110,318,1181.5999488750003,,,,,,,,,,,1181.8848091670006,1182.0555424169997,1182.0555424169997,1182.0555424169997,1182.0555424169997,1182.0555424169997,1182.0555424169997,1182.0555424169997,1182.0555424169997,1182.0555424169997,1190.0228996670012,-7,7,2,5.0,5.694081375000678,4.0,7.029358709000007,1181.5981447089998,1181.5999488750003,1182.0555424169997,1181.884792375,,,,,,,,1181.5947139590007,1181.5980978750013,None,,,,,,,207,kitchen,2,2024-03-18_15h07.59.039,image_similarity_rating,2023.2.3,None,2024-03-18 15h08.31.707708 +0100,
,116,140,341,341,stimuli/own/kitchen/116_kit.jpg,stimuli/own/kitchen/140_kit.jpg,,,,,,,,,0,111,111,340,1190.0333260420011,,,,,,,,,,,1190.31854475,1190.4823474590012,1190.4823474590012,1190.4823474590012,1190.4823474590012,1190.4823474590012,1190.4823474590012,1190.4823474590012,1190.4823474590012,1190.4823474590012,1197.810533209,-7,7,2,2.0,7.223326166998959,2.0,2.7149299590000737,1190.0266407920008,1190.0333260420011,1190.4823474590012,1190.3185309590008,,,,,,,,1190.0231203340009,1190.0265939170004,None,,,,,,,207,kitchen,2,2024-03-18_15h07.59.039,image_similarity_rating,2023.2.3,None,2024-03-18 15h08.31.707708 +0100,
,122,137,455,455,stimuli/own/kitchen/122_kit.jpg,stimuli/own/kitchen/137_kit.jpg,,,,,,,,,0,112,112,454,1197.8163745420006,,,,,,,,,,,1198.1019053750006,1198.2658424590009,1198.2658424590009,1198.2658424590009,1198.2658424590009,1198.2658424590009,1198.2658424590009,1198.2658424590009,1198.2658424590009,1198.2658424590009,1204.982403334001,7,-7,2,4.0,5.202470416999859,3.0,6.217903791999561,1197.8141601250009,1197.8163745420006,1198.2658424590009,1198.1018867500006,,,,,,,,1197.810755292001,1197.8141129169999,None,,,,,,,207,kitchen,2,2024-03-18_15h07.59.039,image_similarity_rating,2023.2.3,None,2024-03-18 15h08.31.707708 +0100,
,113,123,279,279,stimuli/own/kitchen/113_kit.jpg,stimuli/own/kitchen/123_kit.jpg,,,,,,,,,0,113,113,278,1204.9878529590005,,,,,,,,,,,1205.2719619170002,1205.437663584,1205.437663584,1205.437663584,1205.437663584,1205.437663584,1205.437663584,1205.437663584,1205.437663584,1205.437663584,1212.0819308749997,7,-7,2,3.0,4.2402347499992175,1.0,6.471552291999615,1204.9860443750003,1204.9878529590005,1205.437663584,1205.271944375001,,,,,,,,1204.982620709001,1204.9859975,None,,,,,,,207,kitchen,2,2024-03-18_15h07.59.039,image_similarity_rating,2023.2.3,None,2024-03-18 15h08.31.707708 +0100,
,117,139,362,362,stimuli/own/kitchen/117_kit.jpg,stimuli/own/kitchen/139_kit.jpg,,,,,,,,,0,114,114,361,1212.0875127090003,,,,,,,,,,,1212.3715227499997,1212.5337469590013,1212.5337469590013,1212.5337469590013,1212.5337469590013,1212.5337469590013,1212.5337469590013,1212.5337469590013,1212.5337469590013,1212.5337469590013,1221.5032017920003,-7,7,2,2.0,6.31263829099953,2.0,8.682311458000186,1212.0855954590006,1212.0875127090003,1212.5337469590013,1212.3715125420003,,,,,,,,1212.0821502500003,1212.085548250001,None,,,,,,,207,kitchen,2,2024-03-18_15h07.59.039,image_similarity_rating,2023.2.3,None,2024-03-18 15h08.31.707708 +0100,
,131,132,551,551,stimuli/own/kitchen/131_kit.jpg,stimuli/own/kitchen/132_kit.jpg,,,,,,,,,0,115,115,550,1221.508834667,,,,,,,,,,,1221.8021105839998,1221.967809959,1221.967809959,1221.967809959,1221.967809959,1221.967809959,1221.967809959,1221.967809959,1221.967809959,1221.967809959,1232.460819459,7,-7,2,3.0,9.173635791999914,2.0,10.25543291699978,1221.5069071670005,1221.508834667,1221.967809959,1221.8020965840005,,,,,,,,1221.5034241249996,1221.5068601250005,None,,,,,,,207,kitchen,2,2024-03-18_15h07.59.039,image_similarity_rating,2023.2.3,None,2024-03-18 15h08.31.707708 +0100,
,102,136,62,62,stimuli/own/kitchen/102_kit.jpg,stimuli/own/kitchen/136_kit.jpg,,,,,,,,,0,116,116,61,1232.466345834,,,,,,,,,,,1232.7512537500006,1232.921625375,1232.921625375,1232.921625375,1232.921625375,1232.921625375,1232.921625375,1232.921625375,1232.921625375,1232.921625375,1240.227826667,-7,7,2,2.0,7.167787250000401,4.0,2.1985450829997717,1232.4644628750011,1232.466345834,1232.921625375,1232.7512361669997,,,,,,,,1232.4610417090007,1232.4644164170004,None,,,,,,,207,kitchen,2,2024-03-18_15h07.59.039,image_similarity_rating,2023.2.3,None,2024-03-18 15h08.31.707708 +0100,
,104,125,116,116,stimuli/own/kitchen/104_kit.jpg,stimuli/own/kitchen/125_kit.jpg,,,,,,,,,0,117,117,115,1240.2501119999997,,,,,,,,,,,1240.5340502920008,1240.6998655420011,1240.6998655420011,1240.6998655420011,1240.6998655420011,1240.6998655420011,1240.6998655420011,1240.6998655420011,1240.6998655420011,1240.6998655420011,1245.948556542,7,-7,2,3.0,3.4638604170013423,4.0,4.648230000000694,1240.2315585420001,1240.2501119999997,,1240.5340312090011,,,,,,,,1240.2280479170004,1240.2315111669996,None,,,,,,,207,kitchen,2,2024-03-18_15h07.59.039,image_similarity_rating,2023.2.3,None,2024-03-18 15h08.31.707708 +0100,
,114,126,306,306,stimuli/own/kitchen/114_kit.jpg,stimuli/own/kitchen/126_kit.jpg,,,,,,,,,0,118,118,305,1245.9541642090007,,,,,,,,,,,1246.2389095420003,1246.4098325840005,1246.4098325840005,1246.4098325840005,1246.4098325840005,1246.4098325840005,1246.4098325840005,1246.4098325840005,1246.4098325840005,1246.4098325840005,1255.3274505000009,-7,7,2,4.0,8.24950354199973,6.0,4.09534050000002,1245.9522270840007,1245.9541642090007,1246.4098325840005,1246.238893875001,,,,,,,,1245.9487765840004,1245.952179584001,None,,,,,,,207,kitchen,2,2024-03-18_15h07.59.039,image_similarity_rating,2023.2.3,None,2024-03-18 15h08.31.707708 +0100,
,121,122,425,425,stimuli/own/kitchen/121_kit.jpg,stimuli/own/kitchen/122_kit.jpg,,,,,,,,,0,119,119,424,1255.3333281670002,,,,,,,,,,,1255.6178694589998,1255.7823749170002,1255.7823749170002,1255.7823749170002,1255.7823749170002,1255.7823749170002,1255.7823749170002,1255.7823749170002,1255.7823749170002,1255.7823749170002,1262.4356002920013,7,-7,2,5.0,6.531128874999922,3.0,2.089547499999753,1255.331101875001,1255.3333281670002,1255.7823749170002,1255.6178530420002,,,,,,,,1255.3276729999998,1255.331055042001,None,,,,,,,207,kitchen,2,2024-03-18_15h07.59.039,image_similarity_rating,2023.2.3,None,2024-03-18 15h08.31.707708 +0100,
,114,134,312,312,stimuli/own/kitchen/114_kit.jpg,stimuli/own/kitchen/134_kit.jpg,,,,,,,,,0,120,120,311,1262.4411552090005,,,,,,,,,,,1262.7343684999996,1262.8984388340014,1262.8984388340014,1262.8984388340014,1262.8984388340014,1262.8984388340014,1262.8984388340014,1262.8984388340014,1262.8984388340014,1262.8984388340014,1270.9732497920013,-7,7,2,5.0,5.700183250000919,4.0,6.485958958000992,1262.4392295840007,1262.4411552090005,1262.8984388340014,1262.7343543340012,,,,,,,,1262.4358192090003,1262.4391826250012,None,,,,,,,207,kitchen,2,2024-03-18_15h07.59.039,image_similarity_rating,2023.2.3,None,2024-03-18 15h08.31.707708 +0100,
,135,136,575,575,stimuli/own/kitchen/135_kit.jpg,stimuli/own/kitchen/136_kit.jpg,,,,,,,,,0,121,121,574,1270.9831200000008,,,,,,,,,,,1271.2676955000006,1271.433248292,1271.433248292,1271.433248292,1271.433248292,1271.433248292,1271.433248292,1271.433248292,1271.433248292,1271.433248292,1278.8560843750001,7,-7,2,4.0,6.133652250000523,3.0,5.40539600000011,1270.9768977920012,1270.9831200000008,1271.433248292,1271.2676708340005,,,,,,,,1270.973470125,1270.9768513340005,None,,,,,,,207,kitchen,2,2024-03-18_15h07.59.039,image_similarity_rating,2023.2.3,None,2024-03-18 15h08.31.707708 +0100,
,120,127,412,412,stimuli/own/kitchen/120_kit.jpg,stimuli/own/kitchen/127_kit.jpg,,,,,,,,,0,122,122,411,1278.8663005840008,,,,,,,,,,,1279.1508520000007,1279.315884042,1279.315884042,1279.315884042,1279.315884042,1279.315884042,1279.315884042,1279.315884042,1279.315884042,1279.315884042,1286.7439634170005,-7,7,2,3.0,4.703088000000207,4.0,6.729085167000449,1278.8597161670004,1278.8663005840008,1279.315884042,1279.1508372919998,,,,,,,,1278.8563078750012,1278.859669167001,None,,,,,,,207,kitchen,2,2024-03-18_15h07.59.039,image_similarity_rating,2023.2.3,None,2024-03-18 15h08.31.707708 +0100,
,113,121,277,277,stimuli/own/kitchen/113_kit.jpg,stimuli/own/kitchen/121_kit.jpg,,,,,,,,,0,123,123,276,1286.7493752500013,,,,,,,,,,,1287.0343594170008,1287.204327542,1287.204327542,1287.204327542,1287.204327542,1287.204327542,1287.204327542,1287.204327542,1287.204327542,1287.204327542,1296.0653799170013,7,-7,2,3.0,7.984232875000089,4.0,4.92680208299862,1286.7476003339998,1286.7493752500013,1287.204327542,1287.0343431250003,,,,,,,,1286.7441885839999,1286.747554042,None,,,,,,,207,kitchen,2,2024-03-18_15h07.59.039,image_similarity_rating,2023.2.3,None,2024-03-18 15h08.31.707708 +0100,
,125,137,500,500,stimuli/own/kitchen/125_kit.jpg,stimuli/own/kitchen/137_kit.jpg,,,,,,,,,0,124,124,499,1296.071086334001,,,,,,,,,,,1296.3552068749996,1296.5219807499998,1296.5219807499998,1296.5219807499998,1296.5219807499998,1296.5219807499998,1296.5219807499998,1296.5219807499998,1296.5219807499998,1296.5219807499998,1306.6694004590008,7,-7,2,2.0,10.054665499999828,6.0,3.2296800419990177,1296.069161042,1296.071086334001,1296.5219807499998,1296.3551907500005,,,,,,,,1296.0656033340001,1296.0691137920003,None,,,,,,,207,kitchen,2,2024-03-18_15h07.59.039,image_similarity_rating,2023.2.3,None,2024-03-18 15h08.31.707708 +0100,
,102,111,40,40,stimuli/own/kitchen/102_kit.jpg,stimuli/own/kitchen/111_kit.jpg,,,,,,,,,0,125,125,39,1306.6828805000005,,,,,,,,,,,1306.9677620840012,1307.1310835000004,1307.1310835000004,1307.1310835000004,1307.1310835000004,1307.1310835000004,1307.1310835000004,1307.1310835000004,1307.1310835000004,1307.1310835000004,1314.1697815839998,7,-7,2,3.0,6.660229041999628,2.0,3.5932821670012345,1306.6733765000008,1306.6828805000005,1307.1310835000004,1306.9677488340003,,,,,,,,1306.6696283750007,1306.6733247499997,None,,,,,,,207,kitchen,2,2024-03-18_15h07.59.039,image_similarity_rating,2023.2.3,None,2024-03-18 15h08.31.707708 +0100,
,116,124,327,327,stimuli/own/kitchen/116_kit.jpg,stimuli/own/kitchen/124_kit.jpg,,,,,,,,,0,126,126,326,1314.175616542001,,,,,,,,,,,1316.900896000001,1317.0746400420012,1317.0746400420012,1317.0746400420012,1317.0746400420012,1317.0746400420012,1317.0746400420012,1317.0746400420012,1317.0746400420012,1317.0746400420012,1324.077179875001,-7,7,3,4.0,3.7296704999989743,2.0,6.742788499999733,1316.6076253339997,1316.6169140000002,1317.0746400420012,1316.900878542001,,,,,,,,1314.1700038750005,1316.607131625,space,1314.175616542001,2.431262833000801,None,,,,207,kitchen,2,2024-03-18_15h07.59.039,image_similarity_rating,2023.2.3,None,2024-03-18 15h08.31.707708 +0100,
,125,127,492,492,stimuli/own/kitchen/125_kit.jpg,stimuli/own/kitchen/127_kit.jpg,,,,,,,,,0,127,127,491,1324.0997595420013,,,,,,,,,,,1324.3837739170012,1324.5514802500002,1324.5514802500002,1324.5514802500002,1324.5514802500002,1324.5514802500002,1324.5514802500002,1324.5514802500002,1324.5514802500002,1324.5514802500002,1331.0727097090003,-7,7,3,4.0,5.302193084000464,6.0,3.309457208000822,1324.0814544170007,1324.0997595420013,,1324.3837455419998,,,,,,,,1324.0774010839996,1324.081406792,None,,,,,,,207,kitchen,2,2024-03-18_15h07.59.039,image_similarity_rating,2023.2.3,None,2024-03-18 15h08.31.707708 +0100,
,136,139,583,603,stimuli/own/kitchen/136_kit.jpg,stimuli/own/kitchen/139_kit.jpg,,,,,,,,,0,128,128,602,1331.082986042,,,,,,,,,,,1331.3674202090006,1331.539646000001,1331.539646000001,1331.539646000001,1331.539646000001,1331.539646000001,1331.539646000001,1331.539646000001,1331.539646000001,1331.539646000001,1341.431489875,7,-7,3,4.0,6.584093624998786,3.0,4.72366408400012,1331.0763361669997,1331.082986042,1331.539646000001,1331.3674041249997,,,,,,,,1331.0729317500009,1331.0762895839998,None,,,,,,,207,kitchen,2,2024-03-18_15h07.59.039,image_similarity_rating,2023.2.3,None,2024-03-18 15h08.31.707708 +0100,
,113,136,290,290,stimuli/own/kitchen/113_kit.jpg,stimuli/own/kitchen/136_kit.jpg,,,,,,,,,0,129,129,289,1341.4369500000012,,,,,,,,,,,1341.7212987500006,1341.8859948749996,1341.8859948749996,1341.8859948749996,1341.8859948749996,1341.8859948749996,1341.8859948749996,1341.8859948749996,1341.8859948749996,1341.8859948749996,1347.3895950839997,7,-7,3,3.0,5.088813332999052,2.0,2.7660917909997806,1341.435184125001,1341.4369500000012,1341.8859948749996,1341.721286,,,,,,,,1341.4317096670002,1341.4351367090003,None,,,,,,,207,kitchen,2,2024-03-18_15h07.59.039,image_similarity_rating,2023.2.3,None,2024-03-18 15h08.31.707708 +0100,
,102,126,54,54,stimuli/own/kitchen/102_kit.jpg,stimuli/own/kitchen/126_kit.jpg,,,,,,,,,0,130,130,53,1347.3994831670007,,,,,,,,,,,1347.6843696249998,1347.8535658750006,1347.8535658750006,1347.8535658750006,1347.8535658750006,1347.8535658750006,1347.8535658750006,1347.8535658750006,1347.8535658750006,1347.8535658750006,1354.8391997920007,-7,7,3,2.0,5.29634199999964,1.0,4.440875667,1347.3932255,1347.3994831670007,1347.8535658750006,1347.6843520840011,,,,,,,,1347.389814125001,1347.3931785839995,None,,,,,,,207,kitchen,2,2024-03-18_15h07.59.039,image_similarity_rating,2023.2.3,None,2024-03-18 15h08.31.707708 +0100,
,119,130,395,395,stimuli/own/kitchen/119_kit.jpg,stimuli/own/kitchen/130_kit.jpg,,,,,,,,,0,131,131,394,1354.8495089589996,,,,,,,,,,,1355.134059334001,1355.3033897920013,1355.3033897920013,1355.3033897920013,1355.3033897920013,1355.3033897920013,1355.3033897920013,1355.3033897920013,1355.3033897920013,1355.3033897920013,1364.7270195420006,-7,7,3,2.0,6.651196333999906,2.0,9.286825041001066,1354.842840542,1354.8495089589996,1355.3033897920013,1355.134041542,,,,,,,,1354.8394229170008,1354.8427936669996,None,,,,,,,207,kitchen,2,2024-03-18_15h07.59.039,image_similarity_rating,2023.2.3,None,2024-03-18 15h08.31.707708 +0100,
,116,123,326,326,stimuli/own/kitchen/116_kit.jpg,stimuli/own/kitchen/123_kit.jpg,,,,,,,,,0,132,132,325,1364.732621250001,,,,,,,,,,,1365.0174900420006,1365.1846352089997,1365.1846352089997,1365.1846352089997,1365.1846352089997,1365.1846352089997,1365.1846352089997,1365.1846352089997,1365.1846352089997,1365.1846352089997,1373.6985210000003,7,-7,3,1.0,7.515361249999842,5.0,5.989118082999994,1364.7307730419998,1364.732621250001,1365.1846352089997,1365.0174670840006,,,,,,,,1364.7272377090012,1364.730726625001,None,,,,,,,207,kitchen,2,2024-03-18_15h07.59.039,image_similarity_rating,2023.2.3,None,2024-03-18 15h08.31.707708 +0100,
,125,141,504,504,stimuli/own/kitchen/125_kit.jpg,stimuli/own/kitchen/141_kit.jpg,,,,,,,,,0,133,133,503,1373.7042600839995,,,,,,,,,,,1373.9885348340013,1374.1591832920003,1374.1591832920003,1374.1591832920003,1374.1591832920003,1374.1591832920003,1374.1591832920003,1374.1591832920003,1374.1591832920003,1374.1591832920003,1382.9190556249996,-7,7,3,4.0,8.695525082999666,4.0,3.0710077500007174,1373.7023197500002,1373.7042600839995,1374.1591832920003,1373.9885195000006,,,,,,,,1373.6987386670007,1373.702273459001,None,,,,,,,207,kitchen,2,2024-03-18_15h07.59.039,image_similarity_rating,2023.2.3,None,2024-03-18 15h08.31.707708 +0100,
,121,127,430,430,stimuli/own/kitchen/121_kit.jpg,stimuli/own/kitchen/127_kit.jpg,,,,,,,,,0,134,134,429,1382.9326573340004,,,,,,,,,,,1383.2173105420006,1383.3804545420007,1383.3804545420007,1383.3804545420007,1383.3804545420007,1383.3804545420007,1383.3804545420007,1383.3804545420007,1383.3804545420007,1383.3804545420007,1389.1696170840005,7,-7,3,4.0,5.023813375000827,2.0,1.9516898330002732,1382.9231067500004,1382.9326573340004,1383.3804545420007,1383.2172971250002,,,,,,,,1382.919294792,1382.9230555840004,None,,,,,,,207,kitchen,2,2024-03-18_15h07.59.039,image_similarity_rating,2023.2.3,None,2024-03-18 15h08.31.707708 +0100,
,122,130,449,449,stimuli/own/kitchen/122_kit.jpg,stimuli/own/kitchen/130_kit.jpg,,,,,,,,,0,135,135,448,1389.1751842499998,,,,,,,,,,,1389.4673924590006,1389.6354958339998,1389.6354958339998,1389.6354958339998,1389.6354958339998,1389.6354958339998,1389.6354958339998,1389.6354958339998,1389.6354958339998,1389.6354958339998,1396.752549959001,-7,7,3,6.0,5.125859416999447,5.0,6.428489708001507,1389.1732497499997,1389.1751842499998,1389.6354958339998,1389.467374209,,,,,,,,1389.1698393750012,1389.1732030840012,None,,,,,,,207,kitchen,2,2024-03-18_15h07.59.039,image_similarity_rating,2023.2.3,None,2024-03-18 15h08.31.707708 +0100,
,125,138,501,501,stimuli/own/kitchen/125_kit.jpg,stimuli/own/kitchen/138_kit.jpg,,,,,,,,,0,136,136,500,1396.7579384170003,,,,,,,,,,,1397.0506677920002,1397.215357459001,1397.215357459001,1397.215357459001,1397.215357459001,1397.215357459001,1397.215357459001,1397.215357459001,1397.215357459001,1397.215357459001,1404.4480754590004,-7,7,3,4.0,4.988499082999624,4.0,6.521062708001409,1396.7561962500004,1396.7579384170003,1397.215357459001,1397.0506521250009,,,,,,,,1396.7527725420005,1396.7561504590012,None,,,,,,,207,kitchen,2,2024-03-18_15h07.59.039,image_similarity_rating,2023.2.3,None,2024-03-18 15h08.31.707708 +0100,
,106,127,177,177,stimuli/own/kitchen/106_kit.jpg,stimuli/own/kitchen/127_kit.jpg,,,,,,,,,0,137,137,176,1404.453691834,,,,,,,,,,,1404.738191542001,1404.907419792,1404.907419792,1404.907419792,1404.907419792,1404.907419792,1404.907419792,1404.907419792,1404.907419792,1404.907419792,1412.7109865000002,7,-7,3,2.0,7.642098750000514,3.0,6.267447500000344,1404.4517716250011,1404.453691834,1404.907419792,1404.7381715840002,,,,,,,,1404.4483131670004,1404.451725125,None,,,,,,,207,kitchen,2,2024-03-18_15h07.59.039,image_similarity_rating,2023.2.3,None,2024-03-18 15h08.31.707708 +0100,
,122,138,456,456,stimuli/own/kitchen/122_kit.jpg,stimuli/own/kitchen/138_kit.jpg,,,,,,,,,0,138,138,455,1412.7172440000013,,,,,,,,,,,1413.0004637500006,1413.1646741250006,1413.1646741250006,1413.1646741250006,1413.1646741250006,1413.1646741250006,1413.1646741250006,1413.1646741250006,1413.1646741250006,1413.1646741250006,1420.6103469999998,7,-7,3,4.0,4.286551167000653,3.0,7.233557333000135,1412.7147139999997,1412.7172440000013,1413.1646741250006,1413.0004413340012,,,,,,,,1412.7112053750006,1412.7146681249997,None,,,,,,,207,kitchen,2,2024-03-18_15h07.59.039,image_similarity_rating,2023.2.3,None,2024-03-18 15h08.31.707708 +0100,
,122,132,451,451,stimuli/own/kitchen/122_kit.jpg,stimuli/own/kitchen/132_kit.jpg,,,,,,,,,0,139,139,450,1420.615782959001,,,,,,,,,,,1420.9005343340013,1421.066736375,1421.066736375,1421.066736375,1421.066736375,1421.066736375,1421.066736375,1421.066736375,1421.066736375,1421.066736375,1429.6183861669997,-7,7,3,3.0,7.636280415999863,1.0,3.163196333000087,1420.6139728340004,1420.615782959001,1421.066736375,1420.9005186249997,,,,,,,,1420.6105638339995,1420.6139265420006,None,,,,,,,207,kitchen,2,2024-03-18_15h07.59.039,image_similarity_rating,2023.2.3,None,2024-03-18 15h08.31.707708 +0100,
,123,141,475,475,stimuli/own/kitchen/123_kit.jpg,stimuli/own/kitchen/141_kit.jpg,,,,,,,,,0,140,140,474,1429.6239314169998,,,,,,,,,,,1429.916902500001,1430.0834881250012,1430.0834881250012,1430.0834881250012,1430.0834881250012,1430.0834881250012,1430.0834881250012,1430.0834881250012,1430.0834881250012,1430.0834881250012,1437.3150723340004,-7,7,3,3.0,5.077665959001024,2.0,4.00142062499981,1429.622015709001,1429.6239314169998,1430.0834881250012,1429.916883875001,,,,,,,,1429.618603584,1429.62196975,None,,,,,,,207,kitchen,2,2024-03-18_15h07.59.039,image_similarity_rating,2023.2.3,None,2024-03-18 15h08.31.707708 +0100,
,103,121,81,81,stimuli/own/kitchen/103_kit.jpg,stimuli/own/kitchen/121_kit.jpg,,,,,,,,,0,141,141,80,1437.3207833340002,,,,,,,,,,,1437.6048456669996,1437.7705350420001,1437.7705350420001,1437.7705350420001,1437.7705350420001,1437.7705350420001,1437.7705350420001,1437.7705350420001,1437.7705350420001,1437.7705350420001,1444.4555747089998,-7,7,3,5.0,5.15907070799949,4.0,6.511319959001412,1437.318872709,1437.3207833340002,1437.7705350420001,1437.604832209001,,,,,,,,1437.3152908339998,1437.318826042001,None,,,,,,,207,kitchen,2,2024-03-18_15h07.59.039,image_similarity_rating,2023.2.3,None,2024-03-18 15h08.31.707708 +0100,
,119,139,403,403,stimuli/own/kitchen/119_kit.jpg,stimuli/own/kitchen/139_kit.jpg,,,,,,,,,0,142,142,402,1444.465960167001,,,,,,,,,,,1444.7513245419996,1444.9172765840012,1444.9172765840012,1444.9172765840012,1444.9172765840012,1444.9172765840012,1444.9172765840012,1444.9172765840012,1444.9172765840012,1444.9172765840012,1453.7525693750013,-7,7,3,3.0,7.119564167000135,3.0,2.6733408750005765,1444.4591955840006,1444.465960167001,1444.9172765840012,1444.751309792,,,,,,,,1444.455790125001,1444.4591490840012,None,,,,,,,207,kitchen,2,2024-03-18_15h07.59.039,image_similarity_rating,2023.2.3,None,2024-03-18 15h08.31.707708 +0100,
,112,123,254,254,stimuli/own/kitchen/112_kit.jpg,stimuli/own/kitchen/123_kit.jpg,,,,,,,,,0,143,143,253,1453.7584561250005,,,,,,,,,,,1454.0504636250007,1454.2173695000001,1454.2173695000001,1454.2173695000001,1454.2173695000001,1454.2173695000001,1454.2173695000001,1454.2173695000001,1454.2173695000001,1454.2173695000001,1461.739192459001,-7,7,3,4.0,6.681942707999042,2.0,3.70664774999932,1453.7563425839999,1453.7584561250005,1454.2173695000001,1454.050445959001,,,,,,,,1453.7527909590008,1453.7562963750006,None,,,,,,,207,kitchen,2,2024-03-18_15h07.59.039,image_similarity_rating,2023.2.3,None,2024-03-18 15h08.31.707708 +0100,
,127,138,526,526,stimuli/own/kitchen/127_kit.jpg,stimuli/own/kitchen/138_kit.jpg,,,,,,,,,0,144,144,525,1461.749203417001,,,,,,,,,,,1462.0336940840007,1462.2025337920004,1462.2025337920004,1462.2025337920004,1462.2025337920004,1462.2025337920004,1462.2025337920004,1462.2025337920004,1462.2025337920004,1462.2025337920004,1468.7978537500003,7,-7,3,5.0,3.968000333999953,5.0,5.7846899579999445,1461.742829959001,1461.749203417001,1462.2025337920004,1462.033665750001,,,,,,,,1461.7394083750005,1461.7427833340007,None,,,,,,,207,kitchen,2,2024-03-18_15h07.59.039,image_similarity_rating,2023.2.3,None,2024-03-18 15h08.31.707708 +0100,
,102,131,58,58,stimuli/own/kitchen/102_kit.jpg,stimuli/own/kitchen/131_kit.jpg,,,,,,,,,0,145,145,57,1468.803733625,,,,,,,,,,,1469.0876351670013,1469.2527432919996,1469.2527432919996,1469.2527432919996,1469.2527432919996,1469.2527432919996,1469.2527432919996,1469.2527432919996,1469.2527432919996,1469.2527432919996,1478.8434000420002,7,-7,3,3.0,9.277262874998996,5.0,3.2125763749991165,1468.8016293750006,1468.803733625,1469.2527432919996,1469.0876166670005,,,,,,,,1468.7980821250003,1468.8015830420009,None,,,,,,,207,kitchen,2,2024-03-18_15h07.59.039,image_similarity_rating,2023.2.3,None,2024-03-18 15h08.31.707708 +0100,
,117,124,349,349,stimuli/own/kitchen/117_kit.jpg,stimuli/own/kitchen/124_kit.jpg,,,,,,,,,0,146,146,348,1478.848964875,,,,,,,,,,,1479.133583375,1479.2994857089998,1479.2994857089998,1479.2994857089998,1479.2994857089998,1479.2994857089998,1479.2994857089998,1479.2994857089998,1479.2994857089998,1479.2994857089998,1488.9313142499996,-7,7,3,6.0,7.845305290999022,4.0,2.4822429999985616,1478.847155667001,1478.848964875,1479.2994857089998,1479.1335638340006,,,,,,,,1478.8436162500002,1478.8471088750011,None,,,,,,,207,kitchen,2,2024-03-18_15h07.59.039,image_similarity_rating,2023.2.3,None,2024-03-18 15h08.31.707708 +0100,
,113,126,282,282,stimuli/own/kitchen/113_kit.jpg,stimuli/own/kitchen/126_kit.jpg,,,,,,,,,0,147,147,281,1488.9370229590004,,,,,,,,,,,1489.2214721250002,1489.3887434589997,1489.3887434589997,1489.3887434589997,1489.3887434589997,1489.3887434589997,1489.3887434589997,1489.3887434589997,1489.3887434589997,1489.3887434589997,1495.9438205839997,7,-7,3,4.0,6.480518458000006,4.0,4.6189761249988806,1488.935016667001,1488.9370229590004,1489.3887434589997,1489.2214591250013,,,,,,,,1488.9315495419996,1488.934969584001,None,,,,,,,207,kitchen,2,2024-03-18_15h07.59.039,image_similarity_rating,2023.2.3,None,2024-03-18 15h08.31.707708 +0100,
