sub_num,trial,block,task,is_practice,category,image,texture,duration,mask_dur,jitter,stim_time,time_of_resp,trial_response,mask_time,fix_time,jit_onset,trial_end,trial_accuracy,RT
102,1,6,categorization,0,kitchen,SHINEd_sun_aunzlwrbjumxhwdj.tif,103,0.0666666666666667,0.0666666666666667,0.966666666666667,15868.689051167,15869.555255125,9,15868.751502292,15868.811676292,15869.563624959,15870.523631167,1,0.86620395799946
102,2,6,categorization,0,bathroom,SHINEd_sun_ahaulkltgpkeeemi.tif,26,0.0666666666666667,0.0666666666666667,1.73333333333333,15870.529436084,15871.275193959,13,15870.5912095,15870.652193667,15871.287289542,15873.013999709,1,0.745757874999981
102,3,6,categorization,0,bathroom,SHINEd_sun_aleqenyvunhactkl.tif,32,0.0666666666666667,0.0666666666666667,1.91666666666667,15873.03230225,15873.773012417,13,15873.099119792,15873.165145167,15873.787712709,15875.697766709,1,0.740710166999634
102,4,6,categorization,0,kitchen,SHINEd_sun_adgqasybjyktddhj.tif,78,0.0666666666666667,0.0666666666666667,0.766666666666667,15875.715903917,15877.955195667,13,15875.78323275,15875.848666375,15877.967919875,15878.727925459,0,2.23929175000012
102,5,6,categorization,0,bathroom,SHINEd_sun_apkruvsevgegsdwp.tif,44,0.0666666666666667,0.0666666666666667,0.916666666666667,15878.733339834,15879.371352042,9,15878.795136542,15878.856059792,15879.3746735,15880.284677417,0,0.638012208000873
102,6,6,categorization,0,bathroom,SHINEd_sun_agyqfjcfkdcydepw.tif,25,0.0666666666666667,0.0666666666666667,1.18333333333333,15880.289425625,15880.97154425,9,15880.351232375,15880.412112834,15880.980470792,15882.157174167,0,0.68211862499993
102,7,6,categorization,0,kitchen,SHINEd_sun_agubuxuukhzyzpdp.tif,88,0.0666666666666667,0.0666666666666667,1.8,15882.166133084,15882.878077084,9,15882.232939,15882.2932375,15882.899887667,15884.693270084,1,0.711944000000585
102,8,6,categorization,0,bathroom,SHINEd_sun_aspsyogrekjtfozg.tif,50,0.0666666666666667,0.0666666666666667,0.883333333333333,15884.71178025,15885.988621125,13,15884.778475834,15884.844602959,15886.020387084,15886.897059917,1,1.27684087499983
102,9,6,categorization,0,kitchen,SHINEd_sun_abrcnpqqhmjwekyf.tif,73,0.0666666666666667,0.0666666666666667,1.83333333333333,15886.90447975,15889.003027417,9,15886.966377792,15887.027397334,15889.013334625,15890.840048417,1,2.09854766700118
102,10,6,categorization,0,kitchen,SHINEd_sun_aarfiyshqohlwkmo.tif,67,0.0666666666666667,0.0666666666666667,1.76666666666667,15890.859150584,15891.605694709,9,15890.925922292,15890.992127584,15891.632035042,15893.392088167,1,0.746544125000582
102,11,6,categorization,0,kitchen,SHINEd_sun_agorklincwxrdtga.tif,87,0.0666666666666667,0.0666666666666667,0.983333333333333,15893.414097209,15894.097197,9,15893.481556792,15893.547571209,15894.121663459,15895.09833725,1,0.683099790998313
102,12,6,categorization,0,kitchen,SHINEd_sun_afuyedyxivkhecmu.tif,85,0.0666666666666667,0.0666666666666667,0.883333333333333,15895.104448792,15895.938938209,9,15895.166223625,15895.2272065,15895.945690292,15896.822362834,1,0.834489416998622
102,13,6,categorization,0,kitchen,SHINEd_sun_aegoxogugdkwpmpj.tif,80,0.0666666666666667,0.0666666666666667,0.85,15896.827511709,15897.531452459,9,15896.889187167,15896.9502525,15897.535725834,15898.379063875,1,0.703940749999674
102,14,6,categorization,0,kitchen,SHINEd_sun_aqeaevwwwjoqhzvl.tif,101,0.0666666666666667,0.0666666666666667,0.733333333333333,15898.384013209,15899.427684,9,15898.44583475,15898.507141334,15899.442891459,15900.169564209,1,1.04367079099939
102,15,6,categorization,0,kitchen,SHINEd_sun_abdxkyyxwfskuaqb.tif,70,0.0666666666666667,0.0666666666666667,1.88333333333333,15900.175321959,15901.131122084,9,15900.237152792,15900.297952917,15901.150337375,15903.027050875,1,0.955800125000678
102,16,6,categorization,0,bathroom,SHINEd_sun_axxbkopsgyouuebh.tif,58,0.0666666666666667,0.0666666666666667,0.816666666666667,15903.045065209,15903.776331084,13,15903.111886084,15903.178079084,15903.801385834,15904.611391125,1,0.731265874999735
102,17,6,categorization,0,kitchen,SHINEd_sun_ahljzhgcdpomplvg.tif,91,0.0666666666666667,0.0666666666666667,1.9,15904.617292459,15905.251138875,13,15904.679017834,15904.739900875,15905.258555917,15907.151941334,0,0.633846416001688
102,18,6,categorization,0,bathroom,SHINEd_sun_azqyogdvyhahyram.tif,60,0.0666666666666667,0.0666666666666667,0.983333333333333,15907.167623084,15907.931744334,13,15907.234395042,15907.30014425,15907.95664425,15908.933316625,1,0.764121250000244
102,19,6,categorization,0,bathroom,SHINEd_sun_anhioqovhscjqqwb.tif,38,0.0666666666666667,0.0666666666666667,0.75,15908.939196792,15909.627564875,13,15909.001027167,15909.061862709,15909.646953459,15910.390290917,1,0.688368082999659
102,20,6,categorization,0,bathroom,SHINEd_sun_acegryoqftbzowsg.tif,17,0.0666666666666667,0.0666666666666667,1.6,15910.39551,15911.507261792,13,15910.457306709,15910.518489125,15911.520493125,15913.113860834,1,1.11175179199927
102,21,6,categorization,0,kitchen,SHINEd_sun_admlmbcdswaszruo.tif,79,0.0666666666666667,0.0666666666666667,1.58333333333333,15913.131662834,15914.430092,9,15913.198839542,15913.264443167,15914.456229834,15916.032942125,1,1.29842916600137
102,22,6,categorization,0,bathroom,SHINEd_sun_ahcvzmoyaycdoftf.tif,27,0.0666666666666667,0.0666666666666667,1.11666666666667,15916.050764042,15916.931078167,13,15916.117414584,15916.183599542,15916.957138917,15918.067179209,1,0.880314124999131
102,23,6,categorization,0,kitchen,SHINEd_sun_aaxxjlsuzvqlgylf.tif,68,0.0666666666666667,0.0666666666666667,1.53333333333333,15918.077382417,15918.709769625,9,15918.142457917,15918.210038875,15918.73359675,15920.260277334,1,0.632387208001091
102,24,6,categorization,0,bathroom,SHINEd_sun_acgyywnybuveqsro.tif,18,0.0666666666666667,0.0666666666666667,1.48333333333333,15920.27078825,15921.165654667,13,15920.335554667,15920.403680709,15921.193484334,15922.670189459,1,0.89486641700023
102,25,6,categorization,0,kitchen,SHINEd_sun_aenotlpyftoioydp.tif,82,0.0666666666666667,0.0666666666666667,1.1,15922.688996917,15923.45106425,9,15922.755916042,15922.822560209,15923.47869675,15924.572089292,1,0.762067333000232
102,26,6,categorization,0,kitchen,SHINEd_sun_auticobqsbwgoppi.tif,104,0.0666666666666667,0.0666666666666667,0.933333333333333,15924.585690709,15925.535791792,9,15924.650608834,15924.718637,15925.558927792,15926.485634625,1,0.950101082999026
102,27,6,categorization,0,kitchen,SHINEd_sun_abftihopvusyfakt.tif,71,0.0666666666666667,0.0666666666666667,0.816666666666667,15926.502960625,15927.283311792,9,15926.565674917,15926.626195834,15927.294797125,15928.104804209,1,0.780351167000845
102,28,6,categorization,0,kitchen,SHINEd_sun_acfmftudsenhrfhy.tif,74,0.0666666666666667,0.0666666666666667,1.78333333333333,15928.11053025,15928.810673334,9,15928.172173,15928.23326275,15928.818586542,15930.595304459,1,0.700143083999137
102,29,6,categorization,0,kitchen,SHINEd_sun_aadbddgrdsjugojn.tif,64,0.0666666666666667,0.0666666666666667,0.766666666666667,15930.61318375,15931.599610042,9,15930.679601584,15930.745064917,15931.618071417,15932.378075334,1,0.986426292000033
102,30,6,categorization,0,kitchen,SHINEd_sun_ajcbwwvdlsvjyzje.tif,96,0.0666666666666667,0.0666666666666667,1.45,15932.383290917,15933.211186167,13,15932.445021084,15932.506376,15933.224754209,15934.668136334,0,0.827895250000438
102,31,6,categorization,0,kitchen,SHINEd_sun_abpwyqmlzafvklqo.tif,72,0.0666666666666667,0.0666666666666667,0.75,15934.686548375,15935.947292125,9,15934.75350525,15934.821042084,15935.981184917,15936.724523292,1,1.26074374999916
102,32,6,categorization,0,kitchen,SHINEd_sun_amjjdeyrggfqgmom.tif,100,0.0666666666666667,0.0666666666666667,1.36666666666667,15936.730089917,15937.930946417,9,15936.791807125,15936.852787417,15937.938088834,15939.298121917,1,1.20085649999965
102,33,6,categorization,0,bathroom,SHINEd_sun_agguqiubmwhqqunb.tif,22,0.0666666666666667,0.0666666666666667,0.75,15939.315047625,15940.254380667,9,15939.382116917,15939.448121334,15940.269349292,15941.012703917,0,0.939333042000726
102,34,6,categorization,0,bathroom,SHINEd_sun_aljolscmmzydegqp.tif,33,0.0666666666666667,0.0666666666666667,0.783333333333333,15941.021172,15941.842822334,13,15941.083149042,15941.143833709,15941.862300917,15942.638974959,1,0.82165033399906
102,35,6,categorization,0,kitchen,SHINEd_sun_axyyrmzcupyhlivc.tif,107,0.0666666666666667,0.0666666666666667,1.11666666666667,15942.64476275,15943.450971334,9,15942.706571459,15942.767500959,15943.469779167,15944.579828625,1,0.806208583999251
102,36,6,categorization,0,kitchen,SHINEd_sun_akcjzhbbjlbogpdi.tif,99,0.0666666666666667,0.0666666666666667,0.766666666666667,15944.590722042,15945.892207042,13,15944.655581625,15944.723443209,15945.914561167,15946.674567417,0,1.30148499999996
102,37,6,categorization,0,bathroom,SHINEd_sun_apeeialkgkuxddgh.tif,42,0.0666666666666667,0.0666666666666667,0.716666666666667,15946.680854209,15947.275188417,13,15946.742582459,15946.803607125,15947.288757625,15947.998762125,1,0.594334207999054
102,38,6,categorization,0,bathroom,SHINEd_sun_aavhrsfjbserjtht.tif,13,0.0666666666666667,0.0666666666666667,1.33333333333333,15948.004496875,15949.346695709,9,15948.06631625,15948.127147792,15949.363183625,15950.689907834,0,1.34219883399965
102,39,6,categorization,0,kitchen,SHINEd_sun_aamedkxepzlwuxes.tif,65,0.0666666666666667,0.0666666666666667,1.75,15950.708021042,15951.526822084,9,15950.774420584,15950.841003959,15951.547318375,15953.29070875,1,0.818801041999905
102,40,6,categorization,0,bathroom,SHINEd_sun_apmqjbnwghzuhhzh.tif,46,0.0666666666666667,0.0666666666666667,1.13333333333333,15953.308835667,15954.124711,13,15953.375623792,15953.441993125,15954.14868875,15955.275388417,1,0.815875333000804
102,41,6,categorization,0,bathroom,SHINEd_sun_apynckhmoftszqoq.tif,47,0.0666666666666667,0.0666666666666667,1.63333333333333,15955.285220667,15956.075318334,9,15955.349778875,15955.418300084,15956.091106625,15957.717811084,0,0.790097667000737
102,42,6,categorization,0,bathroom,SHINEd_sun_aghyqhbptboemmoq.tif,23,0.0666666666666667,0.0666666666666667,1.43333333333333,15957.730412459,15958.600810292,13,15957.797215667,15957.862699042,15958.619250459,15960.045971542,1,0.870397833001334
102,43,6,categorization,0,bathroom,SHINEd_sun_awnqiikzaispgmwo.tif,56,0.0666666666666667,0.0666666666666667,1.83333333333333,15960.064463792,15960.837616792,13,15960.131195375,15960.197556084,15960.853510834,15962.680212667,1,0.773153000000093
102,44,6,categorization,0,bathroom,SHINEd_sun_ahijqszoswveeyji.tif,28,0.0666666666666667,0.0666666666666667,1.93333333333333,15962.6983035,15963.671176125,13,15962.765313209,15962.831309709,15963.687176459,15965.613890459,1,0.972872625001401
102,45,6,categorization,0,kitchen,SHINEd_sun_akchetnepxlcxhsu.tif,98,0.0666666666666667,0.0666666666666667,1.26666666666667,15965.635138125,15966.291538584,13,15965.702051167,15965.768319625,15966.306793209,15967.566843375,0,0.656400458999997
102,46,6,categorization,0,bathroom,SHINEd_sun_apkxzenqapsujocq.tif,45,0.0666666666666667,0.0666666666666667,1.86666666666667,15967.583598667,15968.277259584,13,15967.651001792,15967.716399917,15968.305297584,15970.165336542,1,0.693660916998851
102,47,6,categorization,0,kitchen,SHINEd_sun_aapllqyqlykszopd.tif,66,0.0666666666666667,0.0666666666666667,1.41666666666667,15970.182760375,15971.165374875,13,15970.249853625,15970.313822959,15971.18784325,15972.597887209,0,0.982614499998817
102,48,6,categorization,0,bathroom,SHINEd_sun_anryaplzeujmzfkd.tif,39,0.0666666666666667,0.0666666666666667,1.11666666666667,15972.615070125,15973.474534209,13,15972.682419667,15972.748351959,15973.505562834,15974.615606709,1,0.859464083998319
102,49,6,categorization,0,kitchen,SHINEd_sun_awcpdzzznmweyyhv.tif,106,0.0666666666666667,0.0666666666666667,1.8,15974.62726,15975.278762459,13,15974.692114167,15974.760157375,15975.300508334,15977.09389,0,0.651502459000767
102,50,6,categorization,0,kitchen,SHINEd_labelme_brsyyvweiuaazfr.tif,61,0.0666666666666667,0.0666666666666667,1.25,15977.113429834,15977.895946959,13,15977.18100875,15977.246532917,15977.920127209,15979.163514209,0,0.782517125000595
