sub_num,trial,block,task,is_practice,category,image,texture,duration,mask_dur,jitter,stim_time,time_of_resp,trial_response,mask_time,fix_time,jit_onset,trial_end,trial_accuracy,RT
135,1,0,familiarity,1,bathroom,bathroom_practice1.tif,221,1.5,0,0.916666666666667,6094.337655291,6100.614811791,5,NaN,6100.6207895,6100.639148791,6101.549154375,NaN,NaN
135,2,0,familiarity,1,bathroom,bathroom_practice2.tif,222,1.5,0,0.85,6101.553990166,6104.507481625,1,NaN,6104.534757708,6104.557373666,6105.400712583,NaN,NaN
135,3,0,familiarity,1,bathroom,bathroom_practice3.tif,223,1.5,0,0.883333333333333,6105.41087325,6109.55773625,2,NaN,6109.563794,6109.582066916,6110.45873925,NaN,NaN
135,4,0,familiarity,1,bathroom,bathroom_practice5.tif,225,1.5,0,1.43333333333333,6110.463740041,6114.126238,3,NaN,6114.132216125,6114.150414916,6115.577136375,NaN,NaN
135,5,0,familiarity,1,bathroom,bathroom_practice4.tif,224,1.5,0,1.53333333333333,6115.595700958,6120.037687875,4,NaN,6120.043720625,6120.062291916,6121.589007291,NaN,NaN
135,1,1,familiarity,0,bathroom,sun_ahcvzmoyaycdoftf.tif,137,1.5,0,1.26666666666667,6128.354085333,6134.350566083,6,NaN,6134.357297875,6134.375828833,6135.635884375,NaN,NaN
135,2,1,familiarity,0,bathroom,sun_aggnnqpdorgxpvce.tif,131,1.5,0,1.76666666666667,6135.649951125,6139.093763833,3,NaN,6139.099768583,6139.118174208,6140.878209125,NaN,NaN
135,3,1,familiarity,0,bathroom,sun_aclfzgynxzxlbepz.tif,129,1.5,0,1.46666666666667,6140.898563833,6144.240606041,2,NaN,6144.264638208,6144.286975458,6145.747010125,NaN,NaN
135,4,1,familiarity,0,bathroom,sun_apmqjbnwghzuhhzh.tif,156,1.5,0,1.28333333333333,6145.765887375,6149.622426916,2,NaN,6149.628132375,6149.646288958,6150.922993541,NaN,NaN
135,5,1,familiarity,0,bathroom,sun_acegryoqftbzowsg.tif,127,1.5,0,0.966666666666667,6150.942858416,6154.870488625,2,NaN,6154.876040041,6154.894379916,6155.854385291,NaN,NaN
135,6,1,familiarity,0,bathroom,sun_alkosphxlxwjwgjd.tif,144,1.5,0,0.783333333333333,6155.860567333,6161.205772208,4,NaN,6161.211699416,6161.230013041,6162.006684583,NaN,NaN
135,7,1,familiarity,0,bathroom,sun_acgyywnybuveqsro.tif,128,1.5,0,1.21666666666667,6162.011756541,6166.909879416,7,NaN,6166.9155405,6166.933856625,6168.143895333,NaN,NaN
135,8,1,familiarity,0,bathroom,sun_anhioqovhscjqqwb.tif,148,1.5,0,1.4,6168.159978583,6171.277590333,6,NaN,6171.283565875,6171.301926791,6172.695286708,NaN,NaN
135,9,1,familiarity,0,bathroom,sun_aspsyogrekjtfozg.tif,160,1.5,0,1.3,6172.714673083,6175.462050833,3,NaN,6175.467627541,6175.485946541,6176.779312166,NaN,NaN
135,10,1,familiarity,0,bathroom,sun_ahqjwnzgolcaoidx.tif,139,1.5,0,0.95,6176.799935541,6179.997860208,3,NaN,6180.003524916,6180.021990708,6180.96533025,NaN,NaN
135,11,1,familiarity,0,bathroom,sun_ausgutylgojavyoq.tif,163,1.5,0,1.96666666666667,6180.977028708,6184.269844291,1,NaN,6184.275463541,6184.294364916,6186.254421541,NaN,NaN
135,12,1,familiarity,0,bathroom,sun_axyrejkiiaqiurjk.tif,169,1.5,0,1.13333333333333,6186.273684041,6189.423457791,7,NaN,6189.447747041,6189.471390416,6190.598091208,NaN,NaN
135,13,1,familiarity,0,bathroom,sun_agrwbmhcpmfuwmsg.tif,134,1.5,0,0.933333333333333,6190.608474041,6195.526157958,2,NaN,6195.5318295,6195.550242041,6196.476912125,NaN,NaN
135,14,1,familiarity,0,bathroom,sun_axxbkopsgyouuebh.tif,168,1.5,0,1.6,6196.493617916,6200.061819,3,NaN,6200.067995625,6200.086336166,6201.679685791,NaN,NaN
135,15,1,familiarity,0,bathroom,sun_akiytfaagpdsphgz.tif,141,1.5,0,1.38333333333333,6201.691530541,6207.662033333,3,NaN,6207.667779,6207.686180166,6209.062888958,NaN,NaN
135,16,1,familiarity,0,bathroom,sun_aavhrsfjbserjtht.tif,123,1.5,0,1.58333333333333,6209.078503041,6213.509808291,4,NaN,6213.515779,6213.534168458,6215.110878041,NaN,NaN
135,17,1,familiarity,0,bathroom,sun_auzqhkafidnkrwmo.tif,164,1.5,0,0.966666666666667,6215.124089375,6218.349298166,4,NaN,6218.355301916,6218.373829916,6219.33383425,NaN,NaN
135,18,1,familiarity,0,bathroom,sun_amzlamotzwfkwjco.tif,147,1.5,0,0.983333333333333,6219.338198791,6222.550319166,2,NaN,6222.556573291,6222.57494125,6223.551612,NaN,NaN
135,19,1,familiarity,0,bathroom,sun_asfwthctfqerjvxr.tif,159,1.5,0,0.8,6223.556349125,6226.861699541,1,NaN,6226.867567083,6226.88601375,6227.67935375,NaN,NaN
135,20,1,familiarity,0,bathroom,sun_apkxzenqapsujocq.tif,155,1.5,0,0.7,6227.684593791,6230.489503083,2,NaN,6230.517173625,6230.540728,6231.234066291,NaN,NaN
135,21,1,familiarity,0,bathroom,sun_anryaplzeujmzfkd.tif,149,1.5,0,0.716666666666667,6231.243602583,6235.02176475,4,NaN,6235.027325666,6235.045593708,6235.755600041,NaN,NaN
135,22,1,familiarity,0,bathroom,sun_atstyziqcmkahyxk.tif,161,1.5,0,1.76666666666667,6235.761598833,6238.714505583,2,NaN,6238.744130458,6238.767140541,6240.527191708,NaN,NaN
135,23,1,familiarity,0,bathroom,sun_ajlawzvmubibwbpy.tif,140,1.5,0,1.7,6240.54868475,6243.449644333,5,NaN,6243.476899125,6243.5001235,6245.19348275,NaN,NaN
135,24,1,familiarity,0,bathroom,sun_aljolscmmzydegqp.tif,143,1.5,0,1.38333333333333,6245.206042583,6248.862258625,2,NaN,6248.869070083,6248.887414875,6250.264128916,NaN,NaN
135,25,1,familiarity,0,bathroom,sun_afcoljnjfoxjtgja.tif,130,1.5,0,0.766666666666667,6250.284497583,6254.325111375,5,NaN,6254.33138575,6254.349657375,6255.109662208,NaN,NaN
135,1,2,familiarity,0,bathroom,sun_azqyogdvyhahyram.tif,170,1.5,0,0.85,6260.4025375,6264.04538175,2,NaN,6264.052331791,6264.070767916,6264.914106583,NaN,NaN
135,2,2,familiarity,0,bathroom,sun_agguqiubmwhqqunb.tif,132,1.5,0,1.53333333333333,6264.919529083,6269.861123458,2,NaN,6269.867219375,6269.88562325,6271.412326,NaN,NaN
135,3,2,familiarity,0,bathroom,sun_avhrdrntsqrjzccq.tif,165,1.5,0,0.7,6271.423812125,6280.086067416,4,NaN,6280.09283825,6280.112047916,6280.805385166,NaN,NaN
135,4,2,familiarity,0,bathroom,sun_aunuadmjocsddsrl.tif,162,1.5,0,1.36666666666667,6280.826622541,6284.557275625,2,NaN,6284.563238791,6284.58164925,6285.941700833,NaN,NaN
135,5,2,familiarity,0,bathroom,sun_abapwbhyhkfixyex.tif,124,1.5,0,0.716666666666667,6285.964326208,6289.654047,2,NaN,6289.660193416,6289.678480833,6290.388486083,NaN,NaN
135,6,2,familiarity,0,bathroom,sun_alotolagknyrgtsk.tif,145,1.5,0,1.38333333333333,6290.395541166,6293.356729333,1,NaN,6293.382327,6293.404056583,6294.780758833,NaN,NaN
135,7,2,familiarity,0,bathroom,labelme_sfxiulhjbhlyiyt.tif,121,1.5,0,0.916666666666667,6294.792314625,6298.189202625,3,NaN,6298.194951416,6298.213322958,6299.123328625,NaN,NaN
135,8,2,familiarity,0,bathroom,sun_aqrpegblszgcoujh.tif,158,1.5,0,1.58333333333333,6299.128226416,6303.6378395,6,NaN,6303.643712916,6303.661851375,6305.238568583,NaN,NaN
135,9,2,familiarity,0,bathroom,sun_ahijqszoswveeyji.tif,138,1.5,0,1.25,6305.256956666,6311.637825791,4,NaN,6311.6449575,6311.663252291,6312.90663125,NaN,NaN
135,10,2,familiarity,0,bathroom,sun_axldvoqbuvuggfmq.tif,167,1.5,0,0.95,6312.922079291,6316.645122291,2,NaN,6316.650985416,6316.669291541,6317.612631333,NaN,NaN
135,11,2,familiarity,0,bathroom,sun_ahaulkltgpkeeemi.tif,136,1.5,0,1.4,6317.617705833,6320.781723041,1,NaN,6320.788381708,6320.806689791,6322.200068583,NaN,NaN
135,12,2,familiarity,0,bathroom,sun_aghyqhbptboemmoq.tif,133,1.5,0,0.766666666666667,6322.219091916,6325.941400666,3,NaN,6325.946895541,6325.965229666,6326.725237,NaN,NaN
135,13,2,familiarity,0,bathroom,sun_apynckhmoftszqoq.tif,157,1.5,0,0.733333333333333,6326.743165083,6330.909539708,2,NaN,6330.915013833,6330.933466958,6331.660138958,NaN,NaN
135,14,2,familiarity,0,bathroom,sun_apeeialkgkuxddgh.tif,152,1.5,0,1.06666666666667,6331.676653875,6335.013714416,2,NaN,6335.019270041,6335.037720541,6336.097740416,NaN,NaN
135,15,2,familiarity,0,bathroom,sun_agyqfjcfkdcydepw.tif,135,1.5,0,1.33333333333333,6336.106690041,6341.4291985,2,NaN,6341.434952458,6341.453293458,6342.779995291,NaN,NaN
135,16,2,familiarity,0,bathroom,sun_aleqenyvunhactkl.tif,142,1.5,0,1.41666666666667,6342.791254625,6346.01310375,3,NaN,6346.018746666,6346.036920708,6347.4469595,NaN,NaN
135,17,2,familiarity,0,bathroom,sun_aapitsgbtktqubfy.tif,122,1.5,0,1.95,6347.466751666,6350.029119125,7,NaN,6350.034671291,6350.053056791,6351.996442458,NaN,NaN
135,18,2,familiarity,0,bathroom,sun_ambriybtogmepttm.tif,146,1.5,0,0.866666666666667,6352.017238666,6355.421756541,1,NaN,6355.427393375,6355.445629833,6356.305636166,NaN,NaN
135,19,2,familiarity,0,bathroom,sun_apkruvsevgegsdwp.tif,154,1.5,0,0.983333333333333,6356.311621833,6362.164907666,3,NaN,6362.170745833,6362.189104208,6363.165777791,NaN,NaN
135,20,2,familiarity,0,bathroom,sun_awnqiikzaispgmwo.tif,166,1.5,0,0.983333333333333,6363.170944958,6366.110454666,4,NaN,6366.13302375,6366.156468583,6367.133139416,NaN,NaN
135,21,2,familiarity,0,bathroom,sun_abjtwfukuwddzted.tif,125,1.5,0,0.766666666666667,6367.1382955,6372.55662575,2,NaN,6372.562863,6372.58117375,6373.341178,NaN,NaN
135,22,2,familiarity,0,bathroom,sun_acduarbnmmoglmiv.tif,126,1.5,0,0.833333333333333,6373.359246083,6376.360617208,2,NaN,6376.389144666,6376.412750625,6377.23942125,NaN,NaN
135,23,2,familiarity,0,bathroom,sun_apjevzvycyhuqghb.tif,153,1.5,0,0.833333333333333,6377.2444575,6381.156978958,2,NaN,6381.1628325,6381.181202041,6382.007873333,NaN,NaN
135,24,2,familiarity,0,bathroom,sun_aofnryafpsjimzsb.tif,150,1.5,0,0.716666666666667,6382.013197208,6386.821643583,4,NaN,6386.827215666,6386.845401958,6387.55540625,NaN,NaN
135,25,2,familiarity,0,bathroom,sun_aoybiabnpadelefl.tif,151,1.5,0,1.71666666666667,6387.560796333,6391.069322,4,NaN,6391.074874,6391.093338125,6392.803387,NaN,NaN
