sub_num,trial,block,task,is_practice,category,image,texture,duration,mask_dur,jitter,stim_time,time_of_resp,trial_response,mask_time,fix_time,jit_onset,trial_end,trial_accuracy,RT
141,1,7,categorization,0,bathroom,SHINEd_sun_amzlamotzwfkwjco.tif,37,0.0666666666666667,0.0666666666666667,0.883333333333333,6707.342789458,6708.012178125,9,6707.405349708,6707.465560625,6708.017569375,6708.894240583,0,0.669388667000021
141,2,7,categorization,0,bathroom,SHINEd_sun_apjevzvycyhuqghb.tif,43,0.0666666666666667,0.0666666666666667,1.03333333333333,6708.899176375,6709.507607416,9,6708.961034666,6709.021983583,6709.523711541,6710.550416416,0,0.608431040999676
141,3,7,categorization,0,kitchen,SHINEd_sun_aegoxogugdkwpmpj.tif,80,0.0666666666666667,0.0666666666666667,1.06666666666667,6710.560582125,6711.131740791,9,6710.625498416,6710.692196833,6711.148155375,6712.208207625,1,0.571158665999974
141,4,7,categorization,0,kitchen,SHINEd_labelme_kxvouciolcpqplr.tif,62,0.0666666666666667,0.0666666666666667,0.833333333333333,6712.2219145,6713.028207166,9,6712.288838291,6712.3550775,6713.040322875,6713.866993291,1,0.806292666000445
141,5,7,categorization,0,bathroom,SHINEd_sun_asfwthctfqerjvxr.tif,49,0.0666666666666667,0.0666666666666667,0.716666666666667,6713.871919541,6714.923930791,13,6713.933672875,6713.994782583,6714.930088666,6715.640092958,1,1.05201124999985
141,6,7,categorization,0,bathroom,SHINEd_sun_aleqenyvunhactkl.tif,32,0.0666666666666667,0.0666666666666667,0.733333333333333,6715.646588083,6716.531978208,13,6715.708302166,6715.769375416,6716.538515208,6717.265186833,1,0.885390124999503
141,7,7,categorization,0,bathroom,SHINEd_sun_agrwbmhcpmfuwmsg.tif,24,0.0666666666666667,0.0666666666666667,1.38333333333333,6717.270173333,6717.89230875,9,6717.332170833,6717.393069125,6717.911729041,6719.288453625,0,0.622135417000209
141,8,7,categorization,0,kitchen,SHINEd_sun_akchetnepxlcxhsu.tif,98,0.0666666666666667,0.0666666666666667,0.9,6719.305680916,6719.9256385,9,6719.37393525,6719.439104125,6719.945800041,6720.839154458,1,0.619957584000076
141,9,7,categorization,0,bathroom,SHINEd_sun_alotolagknyrgtsk.tif,35,0.0666666666666667,0.0666666666666667,0.816666666666667,6720.849042333,6721.491698375,9,6720.914306416,6720.973366333,6721.508679958,6722.318684458,0,0.642656041999544
141,10,7,categorization,0,bathroom,SHINEd_sun_aavhrsfjbserjtht.tif,13,0.0666666666666667,0.0666666666666667,0.85,6722.323660666,6722.931569333,9,6722.3852605,6722.446492125,6722.948328125,6723.791664458,0,0.60790866699972
141,11,7,categorization,0,kitchen,SHINEd_sun_acwjdupvyjsugpay.tif,76,0.0666666666666667,0.0666666666666667,1.6,6723.796742708,6724.860369041,13,6723.858429833,6723.919602666,6724.871148791,6726.4645385,0,1.06362633299977
141,12,7,categorization,0,kitchen,SHINEd_sun_aymvwlarqodbwuoc.tif,108,0.0666666666666667,0.0666666666666667,1.75,6726.484560166,6727.256550458,9,6726.551282166,6726.617860708,6727.273888791,6729.017270833,1,0.771990291999828
141,13,7,categorization,0,kitchen,SHINEd_sun_aunzlwrbjumxhwdj.tif,103,0.0666666666666667,0.0666666666666667,1.1,6729.03601375,6729.648679541,9,6729.103747208,6729.169468791,6729.6766615,6730.770038958,1,0.612665790999927
141,14,7,categorization,0,bathroom,SHINEd_sun_aapitsgbtktqubfy.tif,12,0.0666666666666667,0.0666666666666667,1.46666666666667,6730.782096333,6731.610986916,13,6730.846869041,6730.914290083,6731.637770708,6733.097813708,1,0.82889058300043
141,15,7,categorization,0,bathroom,SHINEd_sun_agguqiubmwhqqunb.tif,22,0.0666666666666667,0.0666666666666667,1.25,6733.116616375,6734.006079,13,6733.183980666,6733.249875625,6734.02296925,6735.266353875,1,0.889462624999396
141,16,7,categorization,0,bathroom,SHINEd_sun_apkruvsevgegsdwp.tif,44,0.0666666666666667,0.0666666666666667,1.13333333333333,6735.283810458,6735.994072208,13,6735.350545541,6735.417475666,6736.024785375,6737.151490958,1,0.710261750000427
141,17,7,categorization,0,bathroom,SHINEd_sun_apkxzenqapsujocq.tif,45,0.0666666666666667,0.0666666666666667,1.33333333333333,6737.170297791,6737.92720175,13,6737.237539083,6737.305165375,6737.945255291,6739.271976875,1,0.756903958999828
141,18,7,categorization,0,kitchen,SHINEd_sun_abftihopvusyfakt.tif,71,0.0666666666666667,0.0666666666666667,1.86666666666667,6739.290104291,6739.864415833,9,6739.358785875,6739.423505625,6739.879601833,6741.739656416,1,0.574311542000032
141,19,7,categorization,0,bathroom,SHINEd_sun_avhrdrntsqrjzccq.tif,55,0.0666666666666667,0.0666666666666667,1.58333333333333,6741.757267458,6742.878991958,9,6741.82441225,6741.890864083,6742.896005083,6744.472709125,0,1.12172450000071
141,20,7,categorization,0,kitchen,SHINEd_sun_aqeaevwwwjoqhzvl.tif,101,0.0666666666666667,0.0666666666666667,1.05,6744.489935583,6745.145116041,9,6744.557332875,6744.623895083,6745.164496833,6746.207885708,1,0.65518045799945
141,21,7,categorization,0,bathroom,SHINEd_sun_atstyziqcmkahyxk.tif,51,0.0666666666666667,0.0666666666666667,0.9,6746.220308625,6747.022203416,13,6746.286150333,6746.352370875,6747.041745291,6747.935112125,1,0.80189479099954
141,22,7,categorization,0,bathroom,SHINEd_sun_ausgutylgojavyoq.tif,53,0.0666666666666667,0.0666666666666667,0.7,6747.94682825,6748.620275916,13,6748.011382625,6748.080549,6748.633264708,6749.326602583,1,0.673447665999447
141,23,7,categorization,0,kitchen,SHINEd_sun_aamedkxepzlwuxes.tif,65,0.0666666666666667,0.0666666666666667,0.933333333333333,6749.331632125,6749.955650125,9,6749.393395041,6749.454520166,6749.973341791,6750.900011833,1,0.624017999999523
141,24,7,categorization,0,kitchen,SHINEd_sun_ahpczsiumwwocjkv.tif,92,0.0666666666666667,0.0666666666666667,1.95,6750.904957333,6751.460143708,9,6750.966691791,6751.027823916,6751.47988075,6753.42327525,1,0.555186374999721
141,25,7,categorization,0,kitchen,SHINEd_sun_aapllqyqlykszopd.tif,66,0.0666666666666667,0.0666666666666667,1.06666666666667,6753.440759541,6754.149839208,9,6753.507836458,6753.574173791,6754.163085333,6755.22312475,1,0.709079666999969
141,26,7,categorization,0,bathroom,SHINEd_sun_anhioqovhscjqqwb.tif,38,0.0666666666666667,0.0666666666666667,1.2,6755.233660541,6755.819620791,9,6755.29874125,6755.365800666,6755.838924583,6757.032310625,0,0.585960249999516
141,27,7,categorization,0,bathroom,SHINEd_sun_abapwbhyhkfixyex.tif,14,0.0666666666666667,0.0666666666666667,0.75,6757.050738708,6757.659564833,9,6757.117868166,6757.181962291,6757.667692958,6758.41103025,0,0.608826125000633
141,28,7,categorization,0,kitchen,SHINEd_sun_axyyrmzcupyhlivc.tif,107,0.0666666666666667,0.0666666666666667,0.816666666666667,6758.415950291,6759.171251916,13,6758.477789041,6758.538777333,6759.190949458,6760.000954875,0,0.755301625000357
141,29,7,categorization,0,kitchen,SHINEd_sun_ahljzhgcdpomplvg.tif,91,0.0666666666666667,0.0666666666666667,1.96666666666667,6760.006031541,6760.955616083,9,6760.067701041,6760.128789416,6760.964078625,6762.924133333,1,0.949584541999684
141,30,7,categorization,0,bathroom,SHINEd_sun_aggnnqpdorgxpvce.tif,21,0.0666666666666667,0.0666666666666667,1.2,6762.93376175,6763.73236325,13,6763.000645625,6763.067153875,6763.757147666,6764.950530708,1,0.798601500000586
141,31,7,categorization,0,kitchen,SHINEd_sun_afuyedyxivkhecmu.tif,85,0.0666666666666667,0.0666666666666667,0.883333333333333,6764.961777083,6765.694474791,9,6765.027295375,6765.095439041,6765.71758425,6766.594298875,1,0.73269770800016
141,32,7,categorization,0,kitchen,SHINEd_sun_ajcbwwvdlsvjyzje.tif,96,0.0666666666666667,0.0666666666666667,1.33333333333333,6766.610910166,6767.667434875,13,6766.677254875,6766.744225166,6767.679999875,6769.006707,0,1.05652470899986
141,33,7,categorization,0,bathroom,SHINEd_sun_aqrpegblszgcoujh.tif,48,0.0666666666666667,0.0666666666666667,1.45,6769.023331041,6769.856716291,13,6769.090233166,6769.157037708,6769.880440375,6771.323813875,1,0.833385249999992
141,34,7,categorization,0,kitchen,SHINEd_sun_aadbddgrdsjugojn.tif,64,0.0666666666666667,0.0666666666666667,1.15,6771.340888208,6771.918173458,9,6771.408063625,6771.474363291,6771.947827333,6773.091218166,1,0.577285249999477
141,35,7,categorization,0,kitchen,SHINEd_sun_aarfiyshqohlwkmo.tif,67,0.0666666666666667,0.0666666666666667,0.966666666666667,6773.102359125,6773.680604333,9,6773.171467875,6773.235703708,6773.710147083,6774.670200833,1,0.578245208000226
141,36,7,categorization,0,kitchen,SHINEd_sun_aixorpehvfykdynp.tif,95,0.0666666666666667,0.0666666666666667,1.45,6774.687347375,6775.227983666,9,6774.755354916,6774.819429791,6775.238886916,6776.682265333,1,0.540636290999828
141,37,7,categorization,0,kitchen,SHINEd_sun_acfmftudsenhrfhy.tif,74,0.0666666666666667,0.0666666666666667,0.8,6776.700895375,6777.617723625,13,6776.766901083,6776.832259291,6777.639108833,6778.432450791,0,0.916828249999526
141,38,7,categorization,0,kitchen,SHINEd_labelme_rykdqxenmhulbdn.tif,63,0.0666666666666667,0.0666666666666667,1.45,6778.437546125,6779.443744958,9,6778.499354125,6778.5604045,6779.462902583,6780.906284333,1,1.00619883299987
141,39,7,categorization,0,kitchen,SHINEd_sun_agzzivivdpnawacl.tif,89,0.0666666666666667,0.0666666666666667,1.1,6780.916067208,6781.692264541,13,6780.983143,6781.049358458,6781.722319916,6782.815716291,0,0.776197333000709
141,40,7,categorization,0,kitchen,SHINEd_sun_acgtpgfybqjmzeyw.tif,75,0.0666666666666667,0.0666666666666667,1.16666666666667,6782.824655291,6783.531697208,9,6782.889740041,6782.956377708,6783.545395666,6784.705456916,1,0.707041916999515
141,41,7,categorization,0,kitchen,SHINEd_sun_aypmqwcualkenuoe.tif,109,0.0666666666666667,0.0666666666666667,1.31666666666667,6784.723422125,6785.228238541,9,6784.785831625,6784.84626175,6785.231342458,6786.541377625,1,0.504816415999812
141,42,7,categorization,0,kitchen,SHINEd_sun_aexklacwqwezaorf.tif,84,0.0666666666666667,0.0666666666666667,1.68333333333333,6786.55822325,6787.192747125,13,6786.624754666,6786.6913855,6787.214763166,6788.891482291,0,0.634523875000014
141,43,7,categorization,0,kitchen,SHINEd_sun_adgqasybjyktddhj.tif,78,0.0666666666666667,0.0666666666666667,0.966666666666667,6788.901288083,6789.548746916,9,6788.967379166,6789.034841416,6789.575219,6790.535222291,1,0.647458833000201
141,44,7,categorization,0,bathroom,SHINEd_sun_apynckhmoftszqoq.tif,47,0.0666666666666667,0.0666666666666667,1.4,6790.540355583,6791.2595605,13,6790.601967125,6790.663168041,6791.265079625,6792.658447833,1,0.719204916999843
141,45,7,categorization,0,bathroom,SHINEd_sun_afcoljnjfoxjtgja.tif,20,0.0666666666666667,0.0666666666666667,0.783333333333333,6792.675646333,6793.303754541,9,6792.740210666,6792.804143166,6793.327389166,6794.104095166,0,0.628108207999503
141,46,7,categorization,0,bathroom,SHINEd_sun_aclfzgynxzxlbepz.tif,19,0.0666666666666667,0.0666666666666667,1.08333333333333,6794.117405375,6794.819375458,13,6794.184187833,6794.250489208,6794.835625291,6795.912332875,1,0.701970082999651
141,47,7,categorization,0,bathroom,SHINEd_sun_agyqfjcfkdcydepw.tif,25,0.0666666666666667,0.0666666666666667,1.43333333333333,6795.923552291,6796.837493666,13,6795.988550333,6796.056098166,6796.861624916,6798.288352583,1,0.913941374999922
141,48,7,categorization,0,kitchen,SHINEd_sun_aenotlpyftoioydp.tif,82,0.0666666666666667,0.0666666666666667,1.75,6798.305630583,6799.155947083,9,6798.37410125,6798.438835666,6799.178954083,6800.922322916,1,0.85031650000019
141,49,7,categorization,0,bathroom,SHINEd_sun_akiytfaagpdsphgz.tif,31,0.0666666666666667,0.0666666666666667,1.21666666666667,6800.931799166,6801.749474833,13,6800.99982075,6801.065222541,6801.772292125,6802.982349416,1,0.817675667000003
141,50,7,categorization,0,kitchen,SHINEd_sun_amjjdeyrggfqgmom.tif,100,0.0666666666666667,0.0666666666666667,1.31666666666667,6802.992521541,6803.606613416,9,6803.0609635,6803.126335791,6803.633291458,6804.943349208,1,0.614091874999758
