sub_num,trial,block,task,is_practice,category,image,texture,duration,mask_dur,jitter,stim_time,time_of_resp,trial_response,mask_time,fix_time,jit_onset,trial_end,trial_accuracy,RT
141,1,12,categorization,0,bathroom,SHINEd_sun_atstyziqcmkahyxk.tif,51,0.0666666666666667,0.0666666666666667,1.01666666666667,7260.000382333,7260.76987375,13,7260.062191708,7260.12345375,7260.775284708,7261.785403125,1,0.769491417000609
141,2,12,categorization,0,bathroom,SHINEd_sun_aavhrsfjbserjtht.tif,13,0.0666666666666667,0.0666666666666667,0.766666666666667,7261.796473416,7262.494310666,13,7261.861589625,7261.928366375,7262.518528166,7263.278587208,1,0.697837250000703
141,3,12,categorization,0,bathroom,SHINEd_sun_acgyywnybuveqsro.tif,18,0.0666666666666667,0.0666666666666667,0.716666666666667,7263.295895916,7263.922267083,13,7263.362425791,7263.429609583,7263.932031583,7264.642035708,1,0.626371167000798
141,4,12,categorization,0,bathroom,SHINEd_sun_afcoljnjfoxjtgja.tif,20,0.0666666666666667,0.0666666666666667,0.816666666666667,7264.646959708,7265.305748291,9,7264.708671458,7264.76977825,7265.322009208,7266.132013333,0,0.658788582999478
141,5,12,categorization,0,kitchen,SHINEd_sun_acfmftudsenhrfhy.tif,74,0.0666666666666667,0.0666666666666667,1.96666666666667,7266.13693,7266.769953333,9,7266.198625791,7266.259677333,7266.778185125,7268.738242041,1,0.633023332999983
141,6,12,categorization,0,bathroom,SHINEd_sun_abjtwfukuwddzted.tif,15,0.0666666666666667,0.0666666666666667,0.85,7268.756469416,7269.540149041,13,7268.823169541,7268.888694416,7269.56261375,7270.405951958,1,0.783679625000332
141,7,12,categorization,0,kitchen,SHINEd_sun_abrcnpqqhmjwekyf.tif,73,0.0666666666666667,0.0666666666666667,0.7,7270.411215333,7271.18530525,9,7270.472993291,7270.534097916,7271.202692833,7271.896030833,1,0.77408991700031
141,8,12,categorization,0,kitchen,SHINEd_sun_acgtpgfybqjmzeyw.tif,75,0.0666666666666667,0.0666666666666667,1.23333333333333,7271.900956875,7272.44183275,9,7271.962588375,7272.023901041,7272.459183,7273.685894875,1,0.540875874999983
141,9,12,categorization,0,kitchen,SHINEd_sun_abdenxonkemggwsq.tif,69,0.0666666666666667,0.0666666666666667,1.13333333333333,7273.7042475,7274.720032833,13,7273.7723555,7273.838030833,7274.745113041,7275.87183225,0,1.01578533300017
141,10,12,categorization,0,kitchen,SHINEd_sun_aehawpgmrlhlvcow.tif,81,0.0666666666666667,0.0666666666666667,0.95,7275.882100875,7276.514943708,9,7275.9473155,7276.015877291,7276.539506083,7277.482877125,1,0.632842832999813
141,11,12,categorization,0,bathroom,SHINEd_sun_aofnryafpsjimzsb.tif,40,0.0666666666666667,0.0666666666666667,1.83333333333333,7277.500253416,7278.530238708,9,7277.567843125,7277.634040791,7278.5368285,7280.36354975,0,1.02998529199976
141,12,12,categorization,0,bathroom,SHINEd_sun_axyrejkiiaqiurjk.tif,59,0.0666666666666667,0.0666666666666667,1.41666666666667,7280.381902916,7281.119992791,9,7280.448854541,7280.5153,7281.137129041,7282.547175625,0,0.738089874999787
141,13,12,categorization,0,kitchen,SHINEd_sun_aypmqwcualkenuoe.tif,109,0.0666666666666667,0.0666666666666667,1.06666666666667,7282.564716708,7283.169443375,9,7282.631808333,7282.6980955,7283.188068125,7284.248073875,1,0.60472666700025
141,14,12,categorization,0,bathroom,SHINEd_sun_ahcvzmoyaycdoftf.tif,27,0.0666666666666667,0.0666666666666667,0.716666666666667,7284.26624325,7285.326617666,13,7284.331582041,7284.398842708,7285.3557395,7286.065790833,1,1.06037441599983
141,15,12,categorization,0,kitchen,SHINEd_sun_aqeaevwwwjoqhzvl.tif,101,0.0666666666666667,0.0666666666666667,1.4,7286.081758958,7286.793464083,9,7286.14898225,7286.215072416,7286.800292375,7288.193665708,1,0.711705124999753
141,16,12,categorization,0,bathroom,SHINEd_sun_axxbkopsgyouuebh.tif,58,0.0666666666666667,0.0666666666666667,1.36666666666667,7288.214778333,7288.907832708,13,7288.28169725,7288.348121083,7288.919616833,7290.27967325,1,0.693054374999519
141,17,12,categorization,0,kitchen,SHINEd_sun_agorklincwxrdtga.tif,87,0.0666666666666667,0.0666666666666667,0.983333333333333,7290.297902125,7290.924345,9,7290.364886708,7290.431143666,7290.935370583,7291.912088125,1,0.626442875000066
141,18,12,categorization,0,kitchen,SHINEd_sun_aixorpehvfykdynp.tif,95,0.0666666666666667,0.0666666666666667,1.93333333333333,7291.928911166,7294.297778625,13,7291.995823666,7292.054265458,7294.307041,7296.233762041,0,2.36886745900028
141,19,12,categorization,0,kitchen,SHINEd_sun_aymvwlarqodbwuoc.tif,108,0.0666666666666667,0.0666666666666667,1.81666666666667,7296.250912041,7296.97176075,9,7296.319541541,7296.384716833,7296.991333291,7298.801356083,1,0.720848708999256
141,20,12,categorization,0,kitchen,SHINEd_sun_ahywdevtimnqcsln.tif,94,0.0666666666666667,0.0666666666666667,1.15,7298.81221675,7299.454740625,9,7298.87733075,7298.942648291,7299.4829975,7300.626366833,1,0.642523875000734
141,21,12,categorization,0,kitchen,SHINEd_sun_acwjdupvyjsugpay.tif,76,0.0666666666666667,0.0666666666666667,1.65,7300.636043708,7301.301503333,9,7300.703291541,7300.7673335,7301.324621416,7302.967991166,1,0.66545962500004
141,22,12,categorization,0,kitchen,SHINEd_sun_aggjlwcdjsjcaemh.tif,86,0.0666666666666667,0.0666666666666667,1.66666666666667,7302.986940625,7303.621213833,9,7303.05556775,7303.120649458,7303.644181666,7305.304234625,1,0.634273208000195
141,23,12,categorization,0,kitchen,SHINEd_sun_ahspylgoovwmwvgk.tif,93,0.0666666666666667,0.0666666666666667,1.01666666666667,7305.322614416,7305.935174333,9,7305.389613625,7305.455705833,7305.962529958,7306.972534833,1,0.612559916999999
141,24,12,categorization,0,kitchen,SHINEd_sun_abdxkyyxwfskuaqb.tif,70,0.0666666666666667,0.0666666666666667,1.98333333333333,7306.978100375,7307.80968175,9,7307.039918291,7307.100980916,7307.819549083,7309.796263625,1,0.831581374999587
141,25,12,categorization,0,kitchen,SHINEd_sun_aamedkxepzlwuxes.tif,65,0.0666666666666667,0.0666666666666667,1.03333333333333,7309.814585958,7310.500330125,13,7309.881738375,7309.947908041,7310.52111575,7311.547816791,0,0.685744166999939
141,26,12,categorization,0,bathroom,SHINEd_sun_aggnnqpdorgxpvce.tif,21,0.0666666666666667,0.0666666666666667,1.5,7311.558049333,7312.565231208,13,7311.622871708,7311.690182416,7312.579125666,7314.072515583,1,1.00718187500024
141,27,12,categorization,0,bathroom,SHINEd_sun_aclfzgynxzxlbepz.tif,19,0.0666666666666667,0.0666666666666667,1.1,7314.089457916,7314.995895416,13,7314.156352125,7314.222616625,7315.012421625,7316.105811375,1,0.906437499999811
141,28,12,categorization,0,kitchen,SHINEd_sun_amjjdeyrggfqgmom.tif,100,0.0666666666666667,0.0666666666666667,0.783333333333333,7316.116808916,7316.70969475,9,7316.182959458,7316.250252833,7316.7406125,7317.517320375,1,0.592885834000299
141,29,12,categorization,0,bathroom,SHINEd_sun_abapwbhyhkfixyex.tif,14,0.0666666666666667,0.0666666666666667,1.21666666666667,7317.531588625,7318.241339416,9,7317.598750625,7317.664752333,7318.250961916,7319.461009625,0,0.709750791000261
141,30,12,categorization,0,kitchen,SHINEd_labelme_brsyyvweiuaazfr.tif,61,0.0666666666666667,0.0666666666666667,1.41666666666667,7319.4801965,7320.123142875,9,7319.54735875,7319.613383416,7320.153790458,7321.563839916,1,0.642946375000065
141,31,12,categorization,0,bathroom,SHINEd_sun_apynckhmoftszqoq.tif,47,0.0666666666666667,0.0666666666666667,1.28333333333333,7321.582079958,7322.309084125,13,7321.649356458,7321.715277458,7322.33880625,7323.615507333,1,0.727004166999905
141,32,12,categorization,0,kitchen,SHINEd_sun_aunzlwrbjumxhwdj.tif,103,0.0666666666666667,0.0666666666666667,0.95,7323.633797291,7324.24327325,9,7323.702850791,7323.767677208,7324.274411166,7325.217796208,1,0.60947595900052
141,33,12,categorization,0,bathroom,SHINEd_sun_auzqhkafidnkrwmo.tif,54,0.0666666666666667,0.0666666666666667,1.73333333333333,7325.234819916,7325.873586458,9,7325.301915041,7325.368037166,7325.886813125,7327.6135305,0,0.638766542000667
141,34,12,categorization,0,bathroom,SHINEd_sun_ajlawzvmubibwbpy.tif,30,0.0666666666666667,0.0666666666666667,1.56666666666667,7327.631895208,7328.701355375,9,7327.698759375,7327.765749125,7328.722423291,7330.282480166,0,1.06946016700022
141,35,12,categorization,0,kitchen,SHINEd_sun_ajcbwwvdlsvjyzje.tif,96,0.0666666666666667,0.0666666666666667,1.05,7330.297287208,7331.088929208,13,7330.364322208,7330.431099333,7331.103720208,7332.147107166,0,0.791642000000138
141,36,12,categorization,0,bathroom,SHINEd_sun_agrwbmhcpmfuwmsg.tif,24,0.0666666666666667,0.0666666666666667,0.916666666666667,7332.161288166,7332.9748715,13,7332.225925041,7332.293218333,7333.000393291,7333.910434833,1,0.813583333999304
141,37,12,categorization,0,bathroom,SHINEd_sun_azqyogdvyhahyram.tif,60,0.0666666666666667,0.0666666666666667,1.61666666666667,7333.92856175,7334.609316958,13,7333.995589,7334.063535083,7334.61604625,7336.226082375,1,0.680755207999937
141,38,12,categorization,0,kitchen,SHINEd_sun_auaiucuqpdausiva.tif,102,0.0666666666666667,0.0666666666666667,0.916666666666667,7336.247727666,7337.111578458,9,7336.316484416,7336.381026125,7337.138068375,7338.048072583,1,0.863850791999539
141,39,12,categorization,0,bathroom,SHINEd_sun_apkxzenqapsujocq.tif,45,0.0666666666666667,0.0666666666666667,0.916666666666667,7338.053234458,7338.690104375,13,7338.114929833,7338.176091375,7338.694789625,7339.604793083,1,0.636869917000695
141,40,12,categorization,0,bathroom,SHINEd_sun_anhioqovhscjqqwb.tif,38,0.0666666666666667,0.0666666666666667,0.916666666666667,7339.61039025,7340.185127166,13,7339.67215125,7339.733113291,7340.201625833,7341.111631625,1,0.574736915999893
141,41,12,categorization,0,kitchen,SHINEd_sun_awcpdzzznmweyyhv.tif,106,0.0666666666666667,0.0666666666666667,1.28333333333333,7341.116589583,7341.713967208,9,7341.178234125,7341.239310875,7341.7247105,7343.001435541,1,0.597377625000263
141,42,12,categorization,0,bathroom,SHINEd_sun_agyqfjcfkdcydepw.tif,25,0.0666666666666667,0.0666666666666667,0.916666666666667,7343.01946525,7343.384009333,9,7343.086834041,7343.152587916,7343.409040458,7344.319076333,0,0.364544082999601
141,43,12,categorization,0,bathroom,SHINEd_sun_amzlamotzwfkwjco.tif,37,0.0666666666666667,0.0666666666666667,1.68333333333333,7344.335578125,7345.233984875,9,7344.402795333,7344.469008833,7345.237752416,7346.91445875,0,0.898406749999594
141,44,12,categorization,0,kitchen,SHINEd_sun_aarfiyshqohlwkmo.tif,67,0.0666666666666667,0.0666666666666667,0.933333333333333,7346.924070541,7347.594293625,9,7346.991046083,7347.057664416,7347.614005791,7348.540678083,1,0.670223084000099
141,45,12,categorization,0,bathroom,SHINEd_sun_aqrpegblszgcoujh.tif,48,0.0666666666666667,0.0666666666666667,1.86666666666667,7348.546022958,7349.256976458,13,7348.607854166,7348.668841333,7349.270852833,7351.130904416,1,0.71095349999996
141,46,12,categorization,0,kitchen,SHINEd_sun_acxkpeoqbwcxfvip.tif,77,0.0666666666666667,0.0666666666666667,1.03333333333333,7351.150034458,7354.769315166,13,7351.21946675,7354.773831666,7354.793131208,7355.819855375,0,3.61928070799968
141,47,12,categorization,0,kitchen,SHINEd_sun_auticobqsbwgoppi.tif,104,0.0666666666666667,0.0666666666666667,1.43333333333333,7355.829307083,7356.835913916,9,7355.894186333,7355.961023541,7356.84903075,7358.275750791,1,1.00660683300066
141,48,12,categorization,0,bathroom,SHINEd_sun_awnqiikzaispgmwo.tif,56,0.0666666666666667,0.0666666666666667,0.833333333333333,7358.296525666,7359.322147208,13,7358.363655041,7358.430232916,7359.354094083,7360.18076575,1,1.02562154200041
141,49,12,categorization,0,kitchen,SHINEd_sun_aadbddgrdsjugojn.tif,64,0.0666666666666667,0.0666666666666667,0.833333333333333,7360.186004833,7360.944883083,9,7360.247811333,7360.308906208,7360.96072875,7361.787400875,1,0.758878249999725
141,50,12,categorization,0,bathroom,SHINEd_sun_aunuadmjocsddsrl.tif,52,0.0666666666666667,0.0666666666666667,0.916666666666667,7361.79350725,7362.521504041,13,7361.85532425,7361.916309666,7362.535328416,7363.44533375,1,0.727996790999896
