sub_num,trial,block,task,is_practice,category,image,texture,duration,mask_dur,jitter,stim_time,time_of_resp,trial_response,mask_time,fix_time,jit_onset,trial_end,trial_accuracy,RT
141,1,6,categorization,0,bathroom,SHINEd_sun_akiytfaagpdsphgz.tif,31,0.0666666666666667,0.0666666666666667,0.966666666666667,6596.283793166,6597.580357166,13,6596.346337333,6596.406655333,6597.592462875,6598.5524675,1,1.29656400000022
141,2,6,categorization,0,kitchen,SHINEd_sun_akchetnepxlcxhsu.tif,98,0.0666666666666667,0.0666666666666667,1.73333333333333,6598.557335083,6600.076591,13,6598.619162333,6598.68009425,6600.082254208,6601.808958958,0,1.51925591700001
141,3,6,categorization,0,kitchen,SHINEd_sun_acgtpgfybqjmzeyw.tif,75,0.0666666666666667,0.0666666666666667,1.91666666666667,6601.828158666,6602.469919208,9,6601.894599458,6601.961729416,6602.48426375,6604.394298958,1,0.641760542000156
141,4,6,categorization,0,bathroom,SHINEd_labelme_sfxiulhjbhlyiyt.tif,11,0.0666666666666667,0.0666666666666667,0.766666666666667,6604.41815325,6605.186290166,13,6604.484861458,6604.551644208,6605.208861041,6605.968864916,1,0.768136916000003
141,5,6,categorization,0,bathroom,SHINEd_sun_apjevzvycyhuqghb.tif,43,0.0666666666666667,0.0666666666666667,0.916666666666667,6605.9740555,6606.700162791,9,6606.035859916,6606.0969085,6606.71588425,6607.625889833,0,0.726107291000517
141,6,6,categorization,0,bathroom,SHINEd_sun_apynckhmoftszqoq.tif,47,0.0666666666666667,0.0666666666666667,1.18333333333333,6607.63103,6608.436780958,13,6607.692758791,6607.75375075,6608.455724958,6609.632442583,1,0.805750958000317
141,7,6,categorization,0,kitchen,SHINEd_sun_ahywdevtimnqcsln.tif,94,0.0666666666666667,0.0666666666666667,1.8,6609.643074083,6610.351013666,9,6609.711996708,6609.776365916,6610.363866458,6612.15724225,1,0.707939582999643
141,8,6,categorization,0,kitchen,SHINEd_sun_acxkpeoqbwcxfvip.tif,77,0.0666666666666667,0.0666666666666667,0.883333333333333,6612.174501458,6613.255013333,9,6612.241410625,6612.307909,6613.282111416,6614.158783416,1,1.0805118749995
141,9,6,categorization,0,bathroom,SHINEd_sun_axyrejkiiaqiurjk.tif,59,0.0666666666666667,0.0666666666666667,1.83333333333333,6614.163947333,6615.099818083,9,6614.225798666,6614.286777208,6615.105408041,6616.93211875,0,0.935870750000504
141,10,6,categorization,0,kitchen,SHINEd_labelme_brsyyvweiuaazfr.tif,61,0.0666666666666667,0.0666666666666667,1.76666666666667,6616.942181166,6617.763438708,13,6617.009356125,6617.07565225,6617.781804625,6619.541848708,0,0.82125754199933
141,11,6,categorization,0,kitchen,SHINEd_sun_aamedkxepzlwuxes.tif,65,0.0666666666666667,0.0666666666666667,0.983333333333333,6619.560812041,6620.181150625,9,6619.627526583,6619.694185666,6620.200976375,6621.177647291,1,0.62033858399991
141,12,6,categorization,0,kitchen,SHINEd_sun_acfmftudsenhrfhy.tif,74,0.0666666666666667,0.0666666666666667,0.883333333333333,6621.182618791,6621.987942583,9,6621.244289541,6621.305398166,6622.007322666,6622.883993833,1,0.805323792000308
141,13,6,categorization,0,kitchen,SHINEd_sun_aehawpgmrlhlvcow.tif,81,0.0666666666666667,0.0666666666666667,0.85,6622.888980208,6623.484214,9,6622.95072275,6623.011790458,6623.497017833,6624.340356833,1,0.595233791999817
141,14,6,categorization,0,kitchen,SHINEd_sun_aymvwlarqodbwuoc.tif,108,0.0666666666666667,0.0666666666666667,0.733333333333333,6624.34734025,6625.196258208,9,6624.409084458,6624.470164708,6625.205449708,6625.932120875,1,0.84891795799922
141,15,6,categorization,0,bathroom,SHINEd_sun_acduarbnmmoglmiv.tif,16,0.0666666666666667,0.0666666666666667,1.88333333333333,6625.937040166,6626.627792541,13,6625.99866175,6626.059727958,6626.645143458,6628.521855916,1,0.690752375000557
141,16,6,categorization,0,kitchen,SHINEd_sun_axyyrmzcupyhlivc.tif,107,0.0666666666666667,0.0666666666666667,0.816666666666667,6628.5382295,6629.50588325,13,6628.605600458,6628.671796291,6629.528711625,6630.338715208,0,0.967653749999954
141,17,6,categorization,0,bathroom,SHINEd_sun_aqrpegblszgcoujh.tif,48,0.0666666666666667,0.0666666666666667,1.9,6630.343880041,6631.291980583,13,6630.405667333,6630.46668575,6631.302424666,6633.195790791,1,0.948100541999338
141,18,6,categorization,0,kitchen,SHINEd_sun_aunzlwrbjumxhwdj.tif,103,0.0666666666666667,0.0666666666666667,0.983333333333333,6633.216830375,6634.143393333,9,6633.283255291,6633.35034425,6634.173721666,6635.150393458,1,0.926562957999522
141,19,6,categorization,0,bathroom,SHINEd_sun_ausgutylgojavyoq.tif,53,0.0666666666666667,0.0666666666666667,0.75,6635.155389583,6635.884583,13,6635.21721375,6635.278635166,6635.897620041,6636.640956208,1,0.729193416999806
141,20,6,categorization,0,bathroom,SHINEd_sun_aapitsgbtktqubfy.tif,12,0.0666666666666667,0.0666666666666667,1.6,6636.64631875,6637.444118166,13,6636.707975458,6636.769111916,6637.4542315,6639.047597166,1,0.797799416000089
141,21,6,categorization,0,kitchen,SHINEd_sun_aapllqyqlykszopd.tif,66,0.0666666666666667,0.0666666666666667,1.58333333333333,6639.066415333,6639.830831333,9,6639.133291916,6639.199734708,6639.856453708,6641.433161,1,0.764415999999983
141,22,6,categorization,0,bathroom,SHINEd_sun_apkruvsevgegsdwp.tif,44,0.0666666666666667,0.0666666666666667,1.11666666666667,6641.452339,6642.035887958,13,6641.519243833,6641.585587875,6642.059042791,6643.169089333,1,0.583548957999483
141,23,6,categorization,0,bathroom,SHINEd_sun_aavhrsfjbserjtht.tif,13,0.0666666666666667,0.0666666666666667,1.53333333333333,6643.178230041,6644.033704875,13,6643.243754708,6643.312330291,6644.052005541,6645.578728291,1,0.855474834000233
141,24,6,categorization,0,bathroom,SHINEd_sun_ambriybtogmepttm.tif,36,0.0666666666666667,0.0666666666666667,1.48333333333333,6645.600060208,6646.304975166,9,6645.667618041,6645.733692083,6646.323540333,6647.800253166,0,0.70491495799979
141,25,6,categorization,0,kitchen,SHINEd_sun_admlmbcdswaszruo.tif,79,0.0666666666666667,0.0666666666666667,1.1,6647.818447333,6648.4820605,9,6647.885541,6647.952385916,6648.508893125,6649.602279375,1,0.663613167000221
141,26,6,categorization,0,bathroom,SHINEd_sun_aspsyogrekjtfozg.tif,50,0.0666666666666667,0.0666666666666667,0.933333333333333,6649.616120416,6650.435352458,13,6649.681445625,6649.750807458,6650.457722083,6651.384438791,1,0.819232042000294
141,27,6,categorization,0,bathroom,SHINEd_sun_amzlamotzwfkwjco.tif,37,0.0666666666666667,0.0666666666666667,0.816666666666667,6651.401070083,6652.188463291,13,6651.468184916,6651.534477541,6652.203456333,6653.013460083,1,0.78739320799923
141,28,6,categorization,0,bathroom,SHINEd_sun_aghyqhbptboemmoq.tif,23,0.0666666666666667,0.0666666666666667,1.78333333333333,6653.018531041,6653.72391125,13,6653.080206583,6653.141418125,6653.743755916,6655.520473458,1,0.705380209000396
141,29,6,categorization,0,bathroom,SHINEd_sun_ajlawzvmubibwbpy.tif,30,0.0666666666666667,0.0666666666666667,0.766666666666667,6655.537875625,6656.675472791,13,6655.606647791,6655.671210333,6656.694371958,6657.454377791,1,1.13759716599998
141,30,6,categorization,0,bathroom,SHINEd_sun_anryaplzeujmzfkd.tif,39,0.0666666666666667,0.0666666666666667,1.45,6657.4593335,6658.34002125,13,6657.521145916,6657.582204541,6658.350938458,6659.794306625,1,0.880687750000106
141,31,6,categorization,0,bathroom,SHINEd_sun_auzqhkafidnkrwmo.tif,54,0.0666666666666667,0.0666666666666667,0.75,6659.811528458,6660.639220791,9,6659.879713916,6659.944916208,6660.668608958,6661.41194725,0,0.827692333000414
141,32,6,categorization,0,bathroom,SHINEd_sun_azqyogdvyhahyram.tif,60,0.0666666666666667,0.0666666666666667,1.36666666666667,6661.4178265,6662.820609083,13,6661.479563375,6661.540701666,6662.826186625,6664.186231125,1,1.40278258299986
141,33,6,categorization,0,kitchen,SHINEd_sun_ahspylgoovwmwvgk.tif,93,0.0666666666666667,0.0666666666666667,0.75,6664.204213166,6664.835656,9,6664.272522416,6664.337605333,6664.859423583,6665.602807833,1,0.631442834000154
141,34,6,categorization,0,kitchen,SHINEd_sun_afuyedyxivkhecmu.tif,85,0.0666666666666667,0.0666666666666667,0.783333333333333,6665.618841458,6666.212208708,9,6665.68601325,6665.75207125,6666.221233791,6666.997904166,1,0.593367249999574
141,35,6,categorization,0,kitchen,SHINEd_sun_aarfiyshqohlwkmo.tif,67,0.0666666666666667,0.0666666666666667,1.11666666666667,6667.002965125,6667.652722583,9,6667.064653,6667.125779041,6667.661123208,6668.771164833,1,0.64975745799984
141,36,6,categorization,0,bathroom,SHINEd_sun_aleqenyvunhactkl.tif,32,0.0666666666666667,0.0666666666666667,0.766666666666667,6668.780864,6669.649630125,13,6668.845366666,6668.912390458,6669.668636166,6670.428669416,1,0.868766124999638
141,37,6,categorization,0,kitchen,SHINEd_sun_aypmqwcualkenuoe.tif,109,0.0666666666666667,0.0666666666666667,0.716666666666667,6670.445272208,6671.227820333,9,6670.511661916,6670.578537958,6671.247470875,6671.9574755,1,0.782548125000176
141,38,6,categorization,0,bathroom,SHINEd_sun_awnqiikzaispgmwo.tif,56,0.0666666666666667,0.0666666666666667,1.33333333333333,6671.963614583,6672.620195625,13,6672.025480166,6672.08639225,6672.638641916,6673.965358458,1,0.656581041999743
141,39,6,categorization,0,bathroom,SHINEd_sun_acegryoqftbzowsg.tif,17,0.0666666666666667,0.0666666666666667,1.75,6673.98361,6674.844135083,13,6674.050614791,6674.116833166,6674.854586708,6676.597978625,1,0.860525082999629
141,40,6,categorization,0,kitchen,SHINEd_sun_aixorpehvfykdynp.tif,95,0.0666666666666667,0.0666666666666667,1.13333333333333,6676.617308625,6677.560237166,9,6676.684364958,6676.750487208,6677.590621791,6678.717324666,1,0.942928540999674
141,41,6,categorization,0,bathroom,SHINEd_sun_ahcvzmoyaycdoftf.tif,27,0.0666666666666667,0.0666666666666667,1.63333333333333,6678.7261435,6679.387941541,13,6678.791328375,6678.858224458,6679.414872375,6681.041597041,1,0.661798041000111
141,42,6,categorization,0,kitchen,SHINEd_sun_aadbddgrdsjugojn.tif,64,0.0666666666666667,0.0666666666666667,1.43333333333333,6681.059758958,6681.886001583,9,6681.128240791,6681.193088833,6681.916402625,6683.34310325,1,0.826242624999395
141,43,6,categorization,0,kitchen,SHINEd_sun_aexklacwqwezaorf.tif,84,0.0666666666666667,0.0666666666666667,1.83333333333333,6683.360909041,6684.326514666,9,6683.428866208,6683.495321208,6684.35285025,6686.179550458,1,0.965605624999625
141,44,6,categorization,0,kitchen,SHINEd_sun_abftihopvusyfakt.tif,71,0.0666666666666667,0.0666666666666667,1.93333333333333,6686.199574,6686.876530333,9,6686.267064708,6686.333131291,6686.905250166,6688.831935,1,0.676956332999907
141,45,6,categorization,0,bathroom,SHINEd_sun_ahaulkltgpkeeemi.tif,26,0.0666666666666667,0.0666666666666667,1.26666666666667,6688.841634291,6690.155505125,13,6688.907333083,6688.974759375,6690.160796958,6691.420834541,1,1.31387083399932
141,46,6,categorization,0,bathroom,SHINEd_sun_alotolagknyrgtsk.tif,35,0.0666666666666667,0.0666666666666667,1.86666666666667,6691.437587625,6692.080080583,9,6691.506425458,6691.570941125,6692.110940666,6693.970986041,0,0.64249295800073
141,47,6,categorization,0,kitchen,SHINEd_sun_abdxkyyxwfskuaqb.tif,70,0.0666666666666667,0.0666666666666667,1.41666666666667,6693.989026416,6694.523239958,9,6694.058303916,6694.122673458,6694.546103,6695.956158208,1,0.534213541999634
141,48,6,categorization,0,kitchen,SHINEd_sun_avszsnwsbuqfgzbn.tif,105,0.0666666666666667,0.0666666666666667,1.11666666666667,6695.973730791,6696.481688041,9,6696.042228291,6696.107504458,6696.497042416,6697.607053916,1,0.50795724999989
141,49,6,categorization,0,bathroom,SHINEd_sun_aunuadmjocsddsrl.tif,52,0.0666666666666667,0.0666666666666667,1.8,6697.613701291,6698.187646625,9,6697.675465583,6697.73659,6698.204990708,6699.998375041,0,0.573945333999291
141,50,6,categorization,0,kitchen,SHINEd_sun_azmutvzbxypaceni.tif,110,0.0666666666666667,0.0666666666666667,1.25,6700.017605791,6700.58126025,9,6700.084735041,6700.151369125,6700.608332666,6701.851708708,1,0.563654458999736
