sub_num,trial,block,task,is_practice,category,image,texture,duration,mask_dur,jitter,stim_time,time_of_resp,trial_response,mask_time,fix_time,jit_onset,trial_end,trial_accuracy,RT
140,1,0,categorization,1,kitchen,SHINEd_kitchen_practice1.tif,116,0.0666666666666667,0.0666666666666667,1.21666666666667,602.449128041,606.238341666,13,602.5150735,602.5759455,606.281087833,607.491353791,0,3.789213625
140,2,0,categorization,1,kitchen,SHINEd_kitchen_practice2.tif,117,0.0666666666666667,0.0666666666666667,1.36666666666667,607.535117625,611.154944416,9,607.607710583,607.669386333,611.173072125,612.533226791,1,3.61982679100004
140,3,0,categorization,1,kitchen,SHINEd_kitchen_practice5.tif,120,0.0666666666666667,0.0666666666666667,1.85,612.5616725,614.392638333,9,612.630568916,612.691645958,614.411053625,616.254591916,1,1.83096583300005
140,4,0,categorization,1,bathroom,SHINEd_bathroom_practice5.tif,115,0.0666666666666667,0.0666666666666667,1.55,616.281627833,617.576940208,13,616.351471916,616.414850875,617.58434525,619.127874333,1,1.29531237499998
140,5,0,categorization,1,bathroom,SHINEd_bathroom_practice4.tif,114,0.0666666666666667,0.0666666666666667,1.48333333333333,619.161548708,620.363402,13,619.234591333,619.295552333,620.410742,621.888575958,1,1.2018532919999
140,6,0,categorization,1,bathroom,SHINEd_bathroom_practice2.tif,112,0.0666666666666667,0.0666666666666667,1.15,621.912837375,624.016230541,13,621.981542041,622.04662175,624.03290925,625.176417291,1,2.10339316600005
140,7,0,categorization,1,kitchen,SHINEd_kitchen_practice3.tif,118,0.0666666666666667,0.0666666666666667,0.733333333333333,625.187973208,626.982523291,9,625.253914458,625.322035833,627.016229,627.742900833,1,1.79455008299999
140,8,0,categorization,1,bathroom,SHINEd_bathroom_practice1.tif,111,0.0666666666666667,0.0666666666666667,1.6,627.747846125,628.480771125,13,627.8096175,627.870545291,628.488950458,630.082329208,1,0.732925000000023
140,9,0,categorization,1,kitchen,SHINEd_kitchen_practice4.tif,119,0.0666666666666667,0.0666666666666667,0.716666666666667,630.099623458,631.161565458,9,630.166373375,630.232601166,631.189233541,631.8992375,1,1.06194200000004
140,10,0,categorization,1,bathroom,SHINEd_bathroom_practice3.tif,113,0.0666666666666667,0.0666666666666667,1.21666666666667,631.904473666,633.321094166,13,631.966232875,632.027532333,633.330040916,634.540095333,1,1.41662050000002
140,1,1,categorization,0,bathroom,SHINEd_sun_aavhrsfjbserjtht.tif,13,0.0666666666666667,0.0666666666666667,1.23333333333333,679.208705666,680.352446708,9,679.271156125,679.33136175,680.366458791,681.5931675,0,1.14374104199999
140,2,1,categorization,0,bathroom,SHINEd_sun_abjtwfukuwddzted.tif,15,0.0666666666666667,0.0666666666666667,0.783333333333333,681.611537458,682.943589125,9,681.678534583,681.744163041,682.971342583,683.74801325,0,1.33205166699997
140,3,1,categorization,0,kitchen,SHINEd_sun_ahywdevtimnqcsln.tif,94,0.0666666666666667,0.0666666666666667,0.75,683.752629583,685.095914166,9,683.814498375,683.875677083,685.111139625,685.8544775,1,1.3432845829999
140,4,1,categorization,0,bathroom,SHINEd_sun_asfwthctfqerjvxr.tif,49,0.0666666666666667,0.0666666666666667,1.23333333333333,685.858941333,688.024724291,13,685.920768583,685.981533875,688.034311875,689.261032541,1,2.16578295800002
140,5,1,categorization,0,bathroom,SHINEd_sun_ahqjwnzgolcaoidx.tif,29,0.0666666666666667,0.0666666666666667,1.13333333333333,689.278396416,690.037390166,13,689.345418041,689.411444625,690.068292125,691.195001333,1,0.758993750000059
140,6,1,categorization,0,kitchen,SHINEd_sun_akcjzhbbjlbogpdi.tif,99,0.0666666666666667,0.0666666666666667,0.95,691.206463916,692.30010225,9,691.271548875,691.3379005,692.328831708,693.272207541,1,1.09363833400005
140,7,1,categorization,0,bathroom,SHINEd_sun_axldvoqbuvuggfmq.tif,57,0.0666666666666667,0.0666666666666667,0.733333333333333,693.286076083,693.984179708,13,693.348165416,693.408694041,693.99378775,694.720460208,1,0.698103625000044
140,8,1,categorization,0,bathroom,SHINEd_sun_agyqfjcfkdcydepw.tif,25,0.0666666666666667,0.0666666666666667,1.31666666666667,694.725230875,695.584848791,9,694.786986875,694.8477685,695.599603625,696.909655333,0,0.859617916000047
140,9,1,categorization,0,bathroom,SHINEd_sun_acegryoqftbzowsg.tif,17,0.0666666666666667,0.0666666666666667,0.8,696.926483375,697.658979375,13,696.9934195,697.059454291,697.683234958,698.47662775,1,0.732495999999969
140,10,1,categorization,0,kitchen,SHINEd_sun_ahspylgoovwmwvgk.tif,93,0.0666666666666667,0.0666666666666667,0.716666666666667,698.493753625,699.384625416,9,698.560555458,698.622486333,699.39104475,700.101049125,1,0.890871790999995
140,11,1,categorization,0,bathroom,SHINEd_sun_agrwbmhcpmfuwmsg.tif,24,0.0666666666666667,0.0666666666666667,0.916666666666667,700.10637825,702.168788666,9,700.168087166,700.228953291,702.181187958,703.091192291,0,2.06241041599992
140,12,1,categorization,0,bathroom,SHINEd_sun_aapitsgbtktqubfy.tif,12,0.0666666666666667,0.0666666666666667,0.95,703.096043375,705.888043666,9,703.157809041,703.218723916,705.904338375,706.847677958,0,2.79200029100002
140,13,1,categorization,0,bathroom,SHINEd_sun_axyrejkiiaqiurjk.tif,59,0.0666666666666667,0.0666666666666667,0.833333333333333,706.852380541,709.032144333,9,706.914108416,706.975067791,709.0440795,709.870751166,0,2.17976379200002
140,14,1,categorization,0,bathroom,SHINEd_sun_apkruvsevgegsdwp.tif,44,0.0666666666666667,0.0666666666666667,0.75,709.875535958,711.032149333,13,709.937363,709.998156333,711.05036075,711.793699625,1,1.15661337500001
140,15,1,categorization,0,kitchen,SHINEd_sun_azmutvzbxypaceni.tif,110,0.0666666666666667,0.0666666666666667,1.53333333333333,711.798201916,713.672170958,13,711.8601205,711.920890291,713.68988,715.216592833,0,1.873969042
140,16,1,categorization,0,bathroom,SHINEd_sun_alkosphxlxwjwgjd.tif,34,0.0666666666666667,0.0666666666666667,1.05,715.232876083,717.93636475,13,715.300707166,715.365845041,717.951793333,718.995172416,1,2.7034886670001
140,17,1,categorization,0,bathroom,SHINEd_sun_anhioqovhscjqqwb.tif,38,0.0666666666666667,0.0666666666666667,0.9,719.004389291,722.040607666,13,719.069065875,719.135307416,722.054961916,722.948299875,1,3.03621837499998
140,18,1,categorization,0,kitchen,SHINEd_sun_agubuxuukhzyzpdp.tif,88,0.0666666666666667,0.0666666666666667,1.18333333333333,722.953257666,723.768640916,9,723.015038458,723.075868666,723.777856833,724.954578083,1,0.815383249999968
140,19,1,categorization,0,kitchen,SHINEd_sun_adgqasybjyktddhj.tif,78,0.0666666666666667,0.0666666666666667,0.9,724.965852416,725.859662125,9,725.032819125,725.097397708,725.886742208,726.780134083,1,0.893809709000038
140,20,1,categorization,0,kitchen,SHINEd_sun_aaxxjlsuzvqlgylf.tif,68,0.0666666666666667,0.0666666666666667,1.66666666666667,726.797096125,727.448305625,9,726.863896,726.921959666,727.4569035,729.11695525,1,0.651209499999936
140,21,1,categorization,0,kitchen,SHINEd_sun_ajcbwwvdlsvjyzje.tif,96,0.0666666666666667,0.0666666666666667,1.13333333333333,729.135055166,731.408244333,9,729.20181675,729.267638708,731.420091625,732.546804916,1,2.27318916699994
140,22,1,categorization,0,bathroom,SHINEd_sun_aclfzgynxzxlbepz.tif,19,0.0666666666666667,0.0666666666666667,1.3,732.556795541,733.366209875,13,732.621940875,732.687815875,733.37526075,734.6686145,1,0.809414333999939
140,23,1,categorization,0,kitchen,SHINEd_sun_abdenxonkemggwsq.tif,69,0.0666666666666667,0.0666666666666667,1.93333333333333,734.679898,735.496746375,9,734.74721625,734.812604916,735.51795175,737.444658583,1,0.816848375000063
140,24,1,categorization,0,kitchen,SHINEd_sun_abdxkyyxwfskuaqb.tif,70,0.0666666666666667,0.0666666666666667,1,737.459767541,738.410820583,9,737.526765875,737.592600958,738.432703541,739.426041791,1,0.951053042000012
140,25,1,categorization,0,kitchen,SHINEd_sun_acfmftudsenhrfhy.tif,74,0.0666666666666667,0.0666666666666667,0.883333333333333,739.431112291,740.30422725,9,739.492874416,739.5538785,740.322681166,741.199353,1,0.873114959000077
140,26,1,categorization,0,kitchen,SHINEd_sun_auaiucuqpdausiva.tif,102,0.0666666666666667,0.0666666666666667,1.95,741.206041583,742.176466,9,741.267691666,741.328712125,742.180607541,744.12397425,1,0.970424417000004
140,27,1,categorization,0,bathroom,SHINEd_sun_amzlamotzwfkwjco.tif,37,0.0666666666666667,0.0666666666666667,1.25,744.141483083,746.392096875,9,744.208543625,744.274212166,746.409752208,747.653121541,0,2.25061379199997
140,28,1,categorization,0,kitchen,SHINEd_labelme_rykdqxenmhulbdn.tif,63,0.0666666666666667,0.0666666666666667,1.95,747.671110625,748.823371791,9,747.738825833,747.804720666,748.844730208,750.788097791,1,1.15226116600002
140,29,1,categorization,0,kitchen,SHINEd_sun_aehawpgmrlhlvcow.tif,81,0.0666666666666667,0.0666666666666667,1.91666666666667,750.8051595,751.503297958,13,750.873147875,750.938102166,751.52849225,753.43853775,0,0.698138458000017
140,30,1,categorization,0,bathroom,SHINEd_sun_aghyqhbptboemmoq.tif,23,0.0666666666666667,0.0666666666666667,1.41666666666667,753.457548,754.001347916,13,753.524673125,753.590549375,754.011771333,755.421811083,1,0.543799916000012
140,31,1,categorization,0,bathroom,SHINEd_sun_atstyziqcmkahyxk.tif,51,0.0666666666666667,0.0666666666666667,0.716666666666667,755.4407945,756.131834708,13,755.508157,755.573570916,756.146229083,756.856281125,1,0.691040208000004
140,32,1,categorization,0,kitchen,SHINEd_sun_avszsnwsbuqfgzbn.tif,105,0.0666666666666667,0.0666666666666667,1.28333333333333,756.87424575,757.50424625,13,756.941036333,757.007242,757.509580208,758.786278833,0,0.630000500000051
140,33,1,categorization,0,bathroom,SHINEd_sun_abapwbhyhkfixyex.tif,14,0.0666666666666667,0.0666666666666667,0.9,758.803831166,760.473922625,13,758.870362083,758.936878958,760.496276708,761.38961425,1,1.67009145899999
140,34,1,categorization,0,kitchen,SHINEd_sun_aeqdocilnnpuvuhx.tif,83,0.0666666666666667,0.0666666666666667,0.8,761.394493666,762.151910958,9,761.456143708,761.517098125,762.168814791,762.962154333,1,0.757417292000014
140,35,1,categorization,0,bathroom,SHINEd_sun_apeeialkgkuxddgh.tif,42,0.0666666666666667,0.0666666666666667,1.01666666666667,762.967085833,763.808374541,13,763.028802583,763.089731,763.824936208,764.834988875,1,0.841288707999979
140,36,1,categorization,0,kitchen,SHINEd_sun_aixorpehvfykdynp.tif,95,0.0666666666666667,0.0666666666666667,0.85,764.843093625,765.683013125,9,764.907065208,764.974187291,765.696672833,766.540050583,1,0.839919499999951
140,37,1,categorization,0,bathroom,SHINEd_sun_acduarbnmmoglmiv.tif,16,0.0666666666666667,0.0666666666666667,1.51666666666667,766.557585875,768.319899416,9,766.623062583,766.686658625,768.338921416,769.848971375,0,1.76231354100003
140,38,1,categorization,0,kitchen,SHINEd_sun_aegoxogugdkwpmpj.tif,80,0.0666666666666667,0.0666666666666667,1.83333333333333,769.866483708,770.716495916,9,769.933447541,770.000011916,770.7404825,772.567197833,1,0.850012207999953
140,39,1,categorization,0,kitchen,SHINEd_sun_admlmbcdswaszruo.tif,79,0.0666666666666667,0.0666666666666667,0.716666666666667,772.577293208,773.587663958,9,772.642305125,772.707787416,773.614604125,774.324609916,1,1.01037074999999
140,40,1,categorization,0,kitchen,SHINEd_sun_ajkqhtgcbgpcwrwn.tif,97,0.0666666666666667,0.0666666666666667,0.9,774.329568708,775.704265916,9,774.39125025,774.452283208,775.721164166,776.6145025,1,1.37469720800004
140,41,1,categorization,0,bathroom,SHINEd_sun_ahijqszoswveeyji.tif,28,0.0666666666666667,0.0666666666666667,0.916666666666667,776.619191875,777.448307625,13,776.681139,776.741886041,777.46027825,778.370281833,1,0.829115750000028
140,42,1,categorization,0,kitchen,SHINEd_sun_afuyedyxivkhecmu.tif,85,0.0666666666666667,0.0666666666666667,0.816666666666667,778.375167916,779.168213125,13,778.436845375,778.497694375,779.182939916,779.992943625,0,0.793045208999956
140,43,1,categorization,0,kitchen,SHINEd_sun_acgtpgfybqjmzeyw.tif,75,0.0666666666666667,0.0666666666666667,1.88333333333333,779.997650416,780.7684655,9,780.059383083,780.120338625,780.772219208,782.648913291,1,0.770815083999992
140,44,1,categorization,0,bathroom,SHINEd_sun_aoybiabnpadelefl.tif,41,0.0666666666666667,0.0666666666666667,0.9,782.660383541,783.7783955,13,782.727192833,782.793055083,783.799595416,784.692932458,1,1.118011959
140,45,1,categorization,0,kitchen,SHINEd_sun_ahdycvpopffkzzsu.tif,90,0.0666666666666667,0.0666666666666667,1,784.69772825,785.423875916,13,784.759484541,784.820399166,785.438705875,786.432045,0,0.726147666000088
140,46,1,categorization,0,kitchen,SHINEd_sun_aapllqyqlykszopd.tif,66,0.0666666666666667,0.0666666666666667,0.733333333333333,786.4366845,787.21613325,13,786.498295166,786.559310833,787.228253875,787.954925875,0,0.779448750000029
140,47,1,categorization,0,bathroom,SHINEd_sun_azqyogdvyhahyram.tif,60,0.0666666666666667,0.0666666666666667,0.883333333333333,787.959589583,788.928049125,13,788.021375375,788.082243916,788.934027958,789.810699833,1,0.968459542000005
140,48,1,categorization,0,bathroom,SHINEd_sun_agguqiubmwhqqunb.tif,22,0.0666666666666667,0.0666666666666667,1.73333333333333,789.815447583,790.791480208,9,789.8771475,789.938308416,790.8068905,792.533593958,0,0.976032625000016
140,49,1,categorization,0,bathroom,SHINEd_sun_aqrpegblszgcoujh.tif,48,0.0666666666666667,0.0666666666666667,1.91666666666667,792.552588625,794.248177375,13,792.617088625,792.679378458,794.264952666,796.175007541,1,1.69558874999996
140,50,1,categorization,0,kitchen,SHINEd_sun_acwjdupvyjsugpay.tif,76,0.0666666666666667,0.0666666666666667,1.35,796.193406041,796.991578458,13,796.260710125,796.326503375,797.017297333,798.360683083,0,0.798172417000046
140,1,2,categorization,0,kitchen,SHINEd_sun_agorklincwxrdtga.tif,87,0.0666666666666667,0.0666666666666667,0.95,807.194132625,808.215908625,9,807.256754333,807.316722708,808.235105208,809.178443208,1,1.02177600000005
140,2,2,categorization,0,bathroom,SHINEd_sun_akiytfaagpdsphgz.tif,31,0.0666666666666667,0.0666666666666667,0.75,809.183257625,809.775669291,13,809.245119708,809.305789416,809.790909541,810.534246583,1,0.592411665999975
140,3,2,categorization,0,bathroom,SHINEd_sun_aspsyogrekjtfozg.tif,50,0.0666666666666667,0.0666666666666667,1.68333333333333,810.538923208,811.575420458,9,810.600487083,810.661507166,811.579983333,813.256708375,0,1.03649725000002
140,4,2,categorization,0,bathroom,SHINEd_sun_alotolagknyrgtsk.tif,35,0.0666666666666667,0.0666666666666667,0.816666666666667,813.274363208,814.269166791,13,813.341246208,813.407088583,814.29740375,815.107407625,1,0.994803583000021
140,5,2,categorization,0,bathroom,SHINEd_sun_ausgutylgojavyoq.tif,53,0.0666666666666667,0.0666666666666667,0.916666666666667,815.112298708,816.847776333,13,815.174128458,815.234979125,816.853857208,817.763862,1,1.73547762499993
140,6,2,categorization,0,bathroom,SHINEd_sun_apkxzenqapsujocq.tif,45,0.0666666666666667,0.0666666666666667,1.21666666666667,817.768513833,818.472282541,13,817.83014875,817.891252583,818.476321625,819.686375375,1,0.703768707999984
140,7,2,categorization,0,kitchen,SHINEd_sun_ahljzhgcdpomplvg.tif,91,0.0666666666666667,0.0666666666666667,0.9,819.704359791,821.234859375,9,819.771048125,819.837415791,821.264459666,822.157796416,1,1.53049958400004
140,8,2,categorization,0,bathroom,SHINEd_sun_apynckhmoftszqoq.tif,47,0.0666666666666667,0.0666666666666667,1.65,822.162651041,823.479839,13,822.224341833,822.28526125,823.487342041,825.130721625,1,1.31718795899997
140,9,2,categorization,0,kitchen,SHINEd_labelme_brsyyvweiuaazfr.tif,61,0.0666666666666667,0.0666666666666667,1.15,825.147903625,825.9241975,13,825.216047041,825.280867083,825.954402291,827.097785125,0,0.776293874999965
140,10,2,categorization,0,bathroom,SHINEd_sun_acgyywnybuveqsro.tif,18,0.0666666666666667,0.0666666666666667,1.13333333333333,827.10699275,828.607722416,13,827.173939083,827.23707225,828.6273035,829.754009875,1,1.50072966599998
140,11,2,categorization,0,kitchen,SHINEd_sun_aunzlwrbjumxhwdj.tif,103,0.0666666666666667,0.0666666666666667,1.76666666666667,829.763670708,831.735716583,9,829.82933975,829.896906458,831.749381458,833.509439583,1,1.97204587500005
140,12,2,categorization,0,bathroom,SHINEd_sun_axxbkopsgyouuebh.tif,58,0.0666666666666667,0.0666666666666667,1.8,833.5286895,834.548396875,13,833.59557225,833.661635541,834.566878583,836.360249,1,1.01970737499994
140,13,2,categorization,0,kitchen,SHINEd_sun_aexklacwqwezaorf.tif,84,0.0666666666666667,0.0666666666666667,0.9,836.378594708,838.655478041,9,836.445560875,836.507276166,838.659405791,839.552742583,1,2.276883333
140,14,2,categorization,0,bathroom,SHINEd_sun_anryaplzeujmzfkd.tif,39,0.0666666666666667,0.0666666666666667,0.716666666666667,839.557598583,840.400212833,13,839.619765833,839.680147041,840.415534041,841.125539833,1,0.842614249999997
140,15,2,categorization,0,kitchen,SHINEd_sun_ahpczsiumwwocjkv.tif,92,0.0666666666666667,0.0666666666666667,1.36666666666667,841.130441,842.935615041,13,841.192146041,841.2531745,842.955539041,844.315581875,0,1.80517404099999
140,16,2,categorization,0,bathroom,SHINEd_sun_apmqjbnwghzuhhzh.tif,46,0.0666666666666667,0.0666666666666667,0.916666666666667,844.332198708,846.049095125,13,844.399002125,844.464922291,846.068054041,846.978058833,1,1.71689641700004
140,17,2,categorization,0,kitchen,SHINEd_sun_amjjdeyrggfqgmom.tif,100,0.0666666666666667,0.0666666666666667,0.716666666666667,846.983044083,851.736995583,9,847.044841291,847.105628041,851.758077125,852.468081458,1,4.75395149999997
140,18,2,categorization,0,kitchen,SHINEd_sun_aymvwlarqodbwuoc.tif,108,0.0666666666666667,0.0666666666666667,0.766666666666667,852.472524375,853.76023675,9,852.53409725,852.595307041,853.764201916,854.524206166,1,1.28771237499996
140,19,2,categorization,0,kitchen,SHINEd_sun_auticobqsbwgoppi.tif,104,0.0666666666666667,0.0666666666666667,1.06666666666667,854.528632125,856.295691916,13,854.590368291,854.65128225,856.303684333,857.363733666,0,1.76705979100007
140,20,2,categorization,0,bathroom,SHINEd_sun_avhrdrntsqrjzccq.tif,55,0.0666666666666667,0.0666666666666667,0.8,857.372475958,858.292927833,13,857.437731125,857.503259291,858.309239958,859.102624375,1,0.920451875000026
140,21,2,categorization,0,kitchen,SHINEd_sun_abftihopvusyfakt.tif,71,0.0666666666666667,0.0666666666666667,0.866666666666667,859.11979775,860.567951208,9,859.186059583,859.252669333,860.571344458,861.4313495,1,1.44815345799998
140,22,2,categorization,0,kitchen,SHINEd_sun_aggjlwcdjsjcaemh.tif,86,0.0666666666666667,0.0666666666666667,1.48333333333333,861.436078541,863.559715416,9,861.497729541,861.558803916,863.577711291,865.054424875,1,2.12363687499999
140,23,2,categorization,0,kitchen,SHINEd_sun_akchetnepxlcxhsu.tif,98,0.0666666666666667,0.0666666666666667,1.1,865.074989208,867.04754125,13,865.142313041,865.207986708,867.060441541,868.153809541,0,1.97255204199996
140,24,2,categorization,0,bathroom,SHINEd_sun_aunuadmjocsddsrl.tif,52,0.0666666666666667,0.0666666666666667,0.783333333333333,868.163971166,869.5065625,9,868.229220416,868.296784875,869.539409,870.316079916,0,1.34259133399996
140,25,2,categorization,0,kitchen,SHINEd_labelme_kxvouciolcpqplr.tif,62,0.0666666666666667,0.0666666666666667,0.866666666666667,870.321840958,873.351987583,9,870.383684625,870.444517833,873.363746916,874.223752416,1,3.03014662499993
140,26,2,categorization,0,kitchen,SHINEd_sun_aypmqwcualkenuoe.tif,109,0.0666666666666667,0.0666666666666667,1.83333333333333,874.2289585,878.353845041,13,874.290664541,874.351589583,878.37159775,880.198301541,0,4.12488654100002
140,27,2,categorization,0,bathroom,SHINEd_sun_aleqenyvunhactkl.tif,32,0.0666666666666667,0.0666666666666667,0.7,880.216109208,881.983682625,9,880.282207791,880.349193666,882.001723666,882.695061125,0,1.76757341699999
140,28,2,categorization,0,bathroom,SHINEd_sun_apjevzvycyhuqghb.tif,43,0.0666666666666667,0.0666666666666667,1.33333333333333,882.700034666,884.663489416,9,882.761756166,882.822694833,884.674662583,886.001387166,0,1.96345474999998
140,29,2,categorization,0,kitchen,SHINEd_sun_aqeaevwwwjoqhzvl.tif,101,0.0666666666666667,0.0666666666666667,1.33333333333333,886.019595375,887.001171333,9,886.085956916,886.152471333,887.026065083,888.352783375,1,0.981575958000008
140,30,2,categorization,0,bathroom,SHINEd_labelme_sfxiulhjbhlyiyt.tif,11,0.0666666666666667,0.0666666666666667,1.38333333333333,888.370849791,889.769274208,9,888.437944083,888.50213525,889.794254666,891.170975166,0,1.398424417
140,31,2,categorization,0,bathroom,SHINEd_sun_ahcvzmoyaycdoftf.tif,27,0.0666666666666667,0.0666666666666667,1.25,891.192416,893.375423666,9,891.259592375,891.325124583,893.39424475,894.637600708,0,2.18300766599998
140,32,2,categorization,0,kitchen,SHINEd_sun_aadbddgrdsjugojn.tif,64,0.0666666666666667,0.0666666666666667,1.55,894.647010083,895.963972541,13,894.712269791,894.780851083,895.989956166,897.533340291,0,1.31696245799992
140,33,2,categorization,0,kitchen,SHINEd_sun_acxkpeoqbwcxfvip.tif,77,0.0666666666666667,0.0666666666666667,1.61666666666667,897.550861791,898.495314333,9,897.619458,897.683388541,898.524038416,900.134090666,1,0.944452542000022
140,34,2,categorization,0,kitchen,SHINEd_sun_agzzivivdpnawacl.tif,89,0.0666666666666667,0.0666666666666667,1.33333333333333,900.1524775,901.703027416,13,900.219088291,900.285180916,901.721349458,903.048050333,0,1.55054991600002
140,35,2,categorization,0,kitchen,SHINEd_sun_abpwyqmlzafvklqo.tif,72,0.0666666666666667,0.0666666666666667,0.833333333333333,903.065734958,905.183739666,13,903.1352785,903.198266875,905.200570458,906.027242875,0,2.11800470799994
140,36,2,categorization,0,kitchen,SHINEd_sun_awcpdzzznmweyyhv.tif,106,0.0666666666666667,0.0666666666666667,1.45,906.032184083,906.839962458,9,906.094014708,906.1549065,906.856794416,908.30017725,1,0.807778374999998
140,37,2,categorization,0,bathroom,SHINEd_sun_aljolscmmzydegqp.tif,33,0.0666666666666667,0.0666666666666667,0.933333333333333,908.317891333,909.208723875,9,908.3846905,908.450694875,909.222659125,910.149329041,0,0.890832541999998
140,38,2,categorization,0,kitchen,SHINEd_sun_aamedkxepzlwuxes.tif,65,0.0666666666666667,0.0666666666666667,1.65,910.15473675,911.591888916,9,910.216545375,910.277434875,911.596286625,913.239676291,1,1.43715216600003
140,39,2,categorization,0,bathroom,SHINEd_sun_auzqhkafidnkrwmo.tif,54,0.0666666666666667,0.0666666666666667,1.23333333333333,913.258477291,913.944233166,9,913.325460333,913.391948791,913.965431916,915.192149041,0,0.685755875000041
140,40,2,categorization,0,bathroom,SHINEd_sun_ahaulkltgpkeeemi.tif,26,0.0666666666666667,0.0666666666666667,0.766666666666667,915.209896375,916.064793958,9,915.276644291,915.343283416,916.082950166,916.842997166,0,0.854897583000024
140,41,2,categorization,0,kitchen,SHINEd_sun_abrcnpqqhmjwekyf.tif,73,0.0666666666666667,0.0666666666666667,1.78333333333333,916.859440625,918.839612333,13,916.925857541,916.99253,918.844621833,920.621329916,0,1.98017170799994
140,42,2,categorization,0,bathroom,SHINEd_sun_ajlawzvmubibwbpy.tif,30,0.0666666666666667,0.0666666666666667,1.11666666666667,920.631794916,923.1033435,9,920.697179375,920.764541458,923.116976916,924.227032833,0,2.47154858400006
140,43,2,categorization,0,bathroom,SHINEd_sun_aggnnqpdorgxpvce.tif,21,0.0666666666666667,0.0666666666666667,1.85,924.236439583,927.278984416,9,924.300991333,924.369079458,927.28803875,929.131415791,0,3.04254483299997
140,44,2,categorization,0,bathroom,SHINEd_sun_ambriybtogmepttm.tif,36,0.0666666666666667,0.0666666666666667,0.733333333333333,929.148766375,930.567895916,9,929.21661075,929.2816905,930.583909666,931.31058225,0,1.41912954099996
140,45,2,categorization,0,bathroom,SHINEd_sun_afcoljnjfoxjtgja.tif,20,0.0666666666666667,0.0666666666666667,0.783333333333333,931.315168291,932.638965,13,931.376902916,931.437773083,932.656442958,933.43311525,1,1.32379670900002
140,46,2,categorization,0,bathroom,SHINEd_sun_awnqiikzaispgmwo.tif,56,0.0666666666666667,0.0666666666666667,1.5,933.4381195,934.191600125,13,933.4998285,933.560753208,934.195743125,935.689116541,1,0.753480625000066
140,47,2,categorization,0,kitchen,SHINEd_sun_aenotlpyftoioydp.tif,82,0.0666666666666667,0.0666666666666667,0.733333333333333,935.708361833,936.704994833,9,935.775986791,935.841712333,936.732888375,937.459559833,1,0.996632999999974
140,48,2,categorization,0,kitchen,SHINEd_sun_axyyrmzcupyhlivc.tif,107,0.0666666666666667,0.0666666666666667,1.1,937.464959083,938.159573291,9,937.526779166,937.587738,938.172911791,939.266299625,1,0.694614207999962
140,49,2,categorization,0,kitchen,SHINEd_sun_aarfiyshqohlwkmo.tif,67,0.0666666666666667,0.0666666666666667,1.6,939.276910083,940.020596541,9,939.342275958,939.409896416,940.050352291,941.64372875,1,0.74368645800007
140,50,2,categorization,0,bathroom,SHINEd_sun_aofnryafpsjimzsb.tif,40,0.0666666666666667,0.0666666666666667,1.06666666666667,941.662264083,942.441528875,9,941.72905625,941.795316333,942.468802916,943.528837541,0,0.779264792000049
140,1,3,categorization,0,kitchen,SHINEd_sun_azmutvzbxypaceni.tif,110,0.0666666666666667,0.0666666666666667,0.85,953.772438541,955.06385725,9,953.834911916,953.895300375,955.080875375,955.924212291,1,1.29141870899991
140,2,3,categorization,0,kitchen,SHINEd_sun_aapllqyqlykszopd.tif,66,0.0666666666666667,0.0666666666666667,1.65,955.928696291,956.983579583,9,955.990343583,956.051484958,957.003363,958.646713041,1,1.054883292
140,3,3,categorization,0,kitchen,SHINEd_sun_ajkqhtgcbgpcwrwn.tif,97,0.0666666666666667,0.0666666666666667,0.783333333333333,958.658004625,959.274306625,13,958.724592708,958.790644916,959.295781333,960.072500708,0,0.616302000000019
140,4,3,categorization,0,bathroom,SHINEd_sun_alotolagknyrgtsk.tif,35,0.0666666666666667,0.0666666666666667,0.933333333333333,960.090009583,960.791544208,9,960.15267675,960.212559583,960.797760208,961.72442975,0,0.701534625000022
140,5,3,categorization,0,bathroom,SHINEd_sun_abapwbhyhkfixyex.tif,14,0.0666666666666667,0.0666666666666667,0.866666666666667,961.729262041,963.127707666,9,961.790896625,961.851966083,963.137585458,963.99759175,0,1.39844562500002
140,6,3,categorization,0,bathroom,SHINEd_sun_asfwthctfqerjvxr.tif,49,0.0666666666666667,0.0666666666666667,1.11666666666667,964.002558541,965.9750765,9,964.064485875,964.125429708,965.994690083,967.104744,0,1.97251795900002
140,7,3,categorization,0,kitchen,SHINEd_sun_aegoxogugdkwpmpj.tif,80,0.0666666666666667,0.0666666666666667,0.966666666666667,967.113864458,968.240337,9,967.178714416,967.246713375,968.270326125,969.230331583,1,1.12647254199999
140,8,3,categorization,0,bathroom,SHINEd_sun_atstyziqcmkahyxk.tif,51,0.0666666666666667,0.0666666666666667,1.78333333333333,969.235069458,969.871036458,13,969.296773041,969.357622875,969.8760125,971.652714083,1,0.635967000000051
140,9,3,categorization,0,bathroom,SHINEd_sun_aljolscmmzydegqp.tif,33,0.0666666666666667,0.0666666666666667,1.55,971.671323666,973.607873791,9,971.738549875,971.804560958,973.624022208,975.167392375,0,1.93655012499994
140,10,3,categorization,0,kitchen,SHINEd_sun_agubuxuukhzyzpdp.tif,88,0.0666666666666667,0.0666666666666667,1.41666666666667,975.184313375,975.971970916,9,975.25252925,975.316976708,975.990067333,977.400102541,1,0.787657541000044
140,11,3,categorization,0,bathroom,SHINEd_sun_agguqiubmwhqqunb.tif,22,0.0666666666666667,0.0666666666666667,0.8,977.418784,978.055830833,13,977.486642875,977.551765625,978.074960666,978.868336291,1,0.637046832999999
140,12,3,categorization,0,bathroom,SHINEd_sun_azqyogdvyhahyram.tif,60,0.0666666666666667,0.0666666666666667,1.28333333333333,978.8845275,979.471690125,13,978.951239583,979.013889166,979.482288041,980.759011708,1,0.587162625000019
140,13,3,categorization,0,kitchen,SHINEd_sun_aenotlpyftoioydp.tif,82,0.0666666666666667,0.0666666666666667,1.66666666666667,980.775980708,982.322097291,9,980.8428205,980.908893333,982.351721333,984.011772583,1,1.54611658299996
140,14,3,categorization,0,kitchen,SHINEd_sun_ajcbwwvdlsvjyzje.tif,96,0.0666666666666667,0.0666666666666667,1.81666666666667,984.029344583,984.916448916,13,984.096532833,984.163755333,984.937543208,986.747589666,0,0.887104333000025
140,15,3,categorization,0,kitchen,SHINEd_sun_afuyedyxivkhecmu.tif,85,0.0666666666666667,0.0666666666666667,1.35,986.766032791,987.899400416,9,986.833524458,986.899468166,987.923524666,989.266894875,1,1.13336762500001
140,16,3,categorization,0,kitchen,SHINEd_sun_aaxxjlsuzvqlgylf.tif,68,0.0666666666666667,0.0666666666666667,0.916666666666667,989.282965208,990.451632333,9,989.350188833,989.416245625,990.473847291,991.38385225,1,1.16866712500007
140,17,3,categorization,0,bathroom,SHINEd_sun_ambriybtogmepttm.tif,36,0.0666666666666667,0.0666666666666667,0.916666666666667,991.388861375,993.062983166,13,991.4506095,991.511650583,993.080683875,993.990688166,1,1.67412179099995
140,18,3,categorization,0,kitchen,SHINEd_sun_aamedkxepzlwuxes.tif,65,0.0666666666666667,0.0666666666666667,1.31666666666667,993.995386291,994.918933333,9,994.057059333,994.118054875,994.936500666,996.246535708,1,0.923547041999996
140,19,3,categorization,0,bathroom,SHINEd_sun_aleqenyvunhactkl.tif,32,0.0666666666666667,0.0666666666666667,1.45,996.264101416,997.688464791,13,996.330781208,996.396786666,997.704716083,999.148107041,1,1.42436337499998
140,20,3,categorization,0,kitchen,SHINEd_sun_aarfiyshqohlwkmo.tif,67,0.0666666666666667,0.0666666666666667,0.95,999.160765458,1000.649283,9,999.22774075,999.293507375,1000.665800125,1001.60913725,1,1.48851754199995
140,21,3,categorization,0,kitchen,SHINEd_sun_aixorpehvfykdynp.tif,95,0.0666666666666667,0.0666666666666667,1.38333333333333,1001.614024333,1002.527411,9,1001.675700416,1001.736586041,1002.538424333,1003.915142208,1,0.913386667000054
140,22,3,categorization,0,kitchen,SHINEd_sun_aggjlwcdjsjcaemh.tif,86,0.0666666666666667,0.0666666666666667,1.16666666666667,1003.932221708,1005.386666083,9,1004.000188791,1004.065123875,1005.40693425,1006.566988708,1,1.45444437499998
140,23,3,categorization,0,bathroom,SHINEd_sun_acduarbnmmoglmiv.tif,16,0.0666666666666667,0.0666666666666667,1.61666666666667,1006.575839875,1007.405139166,9,1006.640954958,1006.707516833,1007.430921541,1009.040972583,0,0.829299290999984
140,24,3,categorization,0,bathroom,SHINEd_sun_apeeialkgkuxddgh.tif,42,0.0666666666666667,0.0666666666666667,1.38333333333333,1009.058183416,1009.880791916,13,1009.125195333,1009.191175875,1009.897397875,1011.274103375,1,0.822608500000001
140,25,3,categorization,0,kitchen,SHINEd_sun_aypmqwcualkenuoe.tif,109,0.0666666666666667,0.0666666666666667,1.78333333333333,1011.291278791,1012.173363833,9,1011.358508291,1011.424500583,1012.197914666,1013.974617666,1,0.882085042000085
140,26,3,categorization,0,kitchen,SHINEd_labelme_kxvouciolcpqplr.tif,62,0.0666666666666667,0.0666666666666667,0.783333333333333,1013.992367541,1015.140533541,9,1014.059378333,1014.124878625,1015.165660791,1015.942332791,1,1.14816599999995
140,27,3,categorization,0,kitchen,SHINEd_sun_agorklincwxrdtga.tif,87,0.0666666666666667,0.0666666666666667,1.65,1015.946948166,1017.078901583,9,1016.008728208,1016.069647666,1017.088192958,1018.731577416,1,1.13195341699998
140,28,3,categorization,0,bathroom,SHINEd_sun_axyrejkiiaqiurjk.tif,59,0.0666666666666667,0.0666666666666667,1.86666666666667,1018.748871041,1020.262943208,9,1018.815932208,1018.881566583,1020.267530125,1022.127609375,0,1.51407216699999
140,29,3,categorization,0,kitchen,SHINEd_sun_abpwyqmlzafvklqo.tif,72,0.0666666666666667,0.0666666666666667,1.23333333333333,1022.14575425,1023.133212791,13,1022.212908375,1022.27855575,1023.151792708,1024.378495666,0,0.987458541000024
140,30,3,categorization,0,kitchen,SHINEd_sun_admlmbcdswaszruo.tif,79,0.0666666666666667,0.0666666666666667,0.7,1024.395684875,1025.446827375,9,1024.463845041,1024.527704958,1025.468066083,1026.16143925,1,1.0511425000002
140,31,3,categorization,0,bathroom,SHINEd_sun_aspsyogrekjtfozg.tif,50,0.0666666666666667,0.0666666666666667,0.716666666666667,1026.169567625,1028.367723416,13,1026.232350125,1026.29234575,1028.378181083,1029.088187083,1,2.19815579100009
140,32,3,categorization,0,bathroom,SHINEd_sun_ahqjwnzgolcaoidx.tif,29,0.0666666666666667,0.0666666666666667,1.05,1029.093021666,1029.943479833,13,1029.154895333,1029.21565275,1029.951374166,1030.994761625,1,0.85045816700017
140,33,3,categorization,0,bathroom,SHINEd_sun_agrwbmhcpmfuwmsg.tif,24,0.0666666666666667,0.0666666666666667,1.1,1031.005178208,1031.627542583,13,1031.070243083,1031.13630075,1031.642247375,1032.735634666,1,0.622364374999961
140,34,3,categorization,0,kitchen,SHINEd_labelme_brsyyvweiuaazfr.tif,61,0.0666666666666667,0.0666666666666667,1.13333333333333,1032.752652541,1033.647239125,13,1032.818967958,1032.885460125,1033.65430975,1034.781023208,0,0.894586583999853
140,35,3,categorization,0,kitchen,SHINEd_sun_aehawpgmrlhlvcow.tif,81,0.0666666666666667,0.0666666666666667,1.38333333333333,1034.790023583,1036.354496333,13,1034.855141333,1034.922782875,1036.382660291,1037.759377458,0,1.56447275000005
140,36,3,categorization,0,kitchen,SHINEd_sun_awcpdzzznmweyyhv.tif,106,0.0666666666666667,0.0666666666666667,1.5,1037.778551333,1038.460499708,9,1037.8457935,1037.911962958,1038.485759625,1039.979139041,1,0.681948375000047
140,37,3,categorization,0,kitchen,SHINEd_sun_abdxkyyxwfskuaqb.tif,70,0.0666666666666667,0.0666666666666667,1.61666666666667,1039.997311375,1041.111287666,13,1040.064263958,1040.130340708,1041.137573458,1042.747628833,0,1.11397629099997
140,38,3,categorization,0,bathroom,SHINEd_sun_aghyqhbptboemmoq.tif,23,0.0666666666666667,0.0666666666666667,0.983333333333333,1042.764803708,1043.458423125,13,1042.8320635,1042.898088583,1043.46986775,1044.446539833,1,0.693619417000036
140,39,3,categorization,0,kitchen,SHINEd_sun_auticobqsbwgoppi.tif,104,0.0666666666666667,0.0666666666666667,1.3,1044.45147225,1045.062574416,13,1044.51314925,1044.57429725,1045.076125125,1046.369505791,0,0.61110216599991
140,40,3,categorization,0,kitchen,SHINEd_sun_acgtpgfybqjmzeyw.tif,75,0.0666666666666667,0.0666666666666667,1.03333333333333,1046.39202775,1047.137829125,9,1046.458725958,1046.52433325,1047.164112416,1048.19079175,1,0.745801375000156
140,41,3,categorization,0,kitchen,SHINEd_sun_auaiucuqpdausiva.tif,102,0.0666666666666667,0.0666666666666667,1.45,1048.196709166,1048.782683,13,1048.258443666,1048.319333,1048.787753875,1050.231140333,0,0.585973834000015
140,42,3,categorization,0,kitchen,SHINEd_sun_abftihopvusyfakt.tif,71,0.0666666666666667,0.0666666666666667,1.23333333333333,1050.24921525,1051.156536083,9,1050.3157715,1050.382307583,1051.171373416,1052.398073958,1,0.907320833000085
140,43,3,categorization,0,bathroom,SHINEd_sun_apkruvsevgegsdwp.tif,44,0.0666666666666667,0.0666666666666667,1.26666666666667,1052.415661875,1053.234491666,13,1052.482283666,1052.545464291,1053.252132875,1054.512150125,1,0.818829790999871
140,44,3,categorization,0,kitchen,SHINEd_sun_akchetnepxlcxhsu.tif,98,0.0666666666666667,0.0666666666666667,1.03333333333333,1054.521388125,1055.285142041,9,1054.586476833,1054.650141375,1055.305536833,1056.332245416,1,0.763753916000041
140,45,3,categorization,0,kitchen,SHINEd_sun_akcjzhbbjlbogpdi.tif,99,0.0666666666666667,0.0666666666666667,1.31666666666667,1056.350526958,1057.399511625,9,1056.413220375,1056.473177125,1057.408366041,1058.718405041,1,1.04898466700001
140,46,3,categorization,0,kitchen,SHINEd_sun_acfmftudsenhrfhy.tif,74,0.0666666666666667,0.0666666666666667,1.7,1058.734913125,1060.566963291,9,1058.802560916,1058.867799916,1060.586785625,1062.280172833,1,1.83205016600004
140,47,3,categorization,0,bathroom,SHINEd_sun_apynckhmoftszqoq.tif,47,0.0666666666666667,0.0666666666666667,1.35,1062.298339083,1063.595097625,9,1062.365544583,1062.431115916,1063.624279125,1064.967645916,0,1.29675854200013
140,48,3,categorization,0,bathroom,SHINEd_sun_ajlawzvmubibwbpy.tif,30,0.0666666666666667,0.0666666666666667,0.8,1064.984528916,1065.1051405,13,1065.05265975,1065.119125083,1065.141968125,1065.935355041,1,0.120611584000017
140,49,3,categorization,0,bathroom,SHINEd_labelme_sfxiulhjbhlyiyt.tif,11,0.0666666666666667,0.0666666666666667,0.766666666666667,1065.949378333,1066.959204958,13,1066.015899958,1066.082314458,1066.967733541,1067.727738541,1,1.00982662500019
140,50,3,categorization,0,kitchen,SHINEd_sun_aymvwlarqodbwuoc.tif,108,0.0666666666666667,0.0666666666666667,1.38333333333333,1067.732590583,1069.447211708,9,1067.794392458,1067.855377083,1069.457885791,1070.834607708,1,1.71462112499989
140,1,4,categorization,0,kitchen,SHINEd_sun_amjjdeyrggfqgmom.tif,100,0.0666666666666667,0.0666666666666667,1,1086.572118125,1087.83092825,13,1086.634031041,1086.694791916,1087.846853,1088.840191583,0,1.25881012499985
140,2,4,categorization,0,kitchen,SHINEd_sun_aqeaevwwwjoqhzvl.tif,101,0.0666666666666667,0.0666666666666667,0.966666666666667,1088.84507375,1089.502931583,9,1088.906754666,1088.967696833,1089.519415458,1090.479421083,1,0.65785783299998
140,3,4,categorization,0,bathroom,SHINEd_sun_axldvoqbuvuggfmq.tif,57,0.0666666666666667,0.0666666666666667,1.75,1090.484180958,1091.015261416,9,1090.545911041,1090.606748583,1091.025160666,1092.768531833,0,0.531080457999906
140,4,4,categorization,0,bathroom,SHINEd_sun_anhioqovhscjqqwb.tif,38,0.0666666666666667,0.0666666666666667,1.68333333333333,1092.786852916,1094.294849416,13,1092.853676041,1092.91959375,1094.305649125,1095.98236525,1,1.50799649999999
140,5,4,categorization,0,bathroom,SHINEd_sun_anryaplzeujmzfkd.tif,39,0.0666666666666667,0.0666666666666667,1.58333333333333,1095.999536833,1096.711881458,9,1096.067539375,1096.132412458,1096.739529333,1098.316248125,0,0.712344625000014
140,6,4,categorization,0,kitchen,SHINEd_sun_ahspylgoovwmwvgk.tif,93,0.0666666666666667,0.0666666666666667,1,1098.335803458,1099.051520333,9,1098.402423958,1098.4685275,1099.07462875,1100.067965416,1,0.715716874999998
140,7,4,categorization,0,bathroom,SHINEd_sun_apmqjbnwghzuhhzh.tif,46,0.0666666666666667,0.0666666666666667,1.33333333333333,1100.072786416,1101.254924125,13,1100.134508583,1100.195360875,1101.263882708,1102.590566291,1,1.18213770899979
140,8,4,categorization,0,kitchen,SHINEd_sun_agzzivivdpnawacl.tif,89,0.0666666666666667,0.0666666666666667,1.26666666666667,1102.600692208,1103.854486583,13,1102.665422333,1102.733605416,1103.875324625,1105.135371958,0,1.25379437499987
140,9,4,categorization,0,bathroom,SHINEd_sun_apjevzvycyhuqghb.tif,43,0.0666666666666667,0.0666666666666667,0.883333333333333,1105.153123666,1106.008534083,9,1105.219880541,1105.285712416,1106.025568291,1106.902259583,0,0.85541041700003
140,10,4,categorization,0,bathroom,SHINEd_sun_avhrdrntsqrjzccq.tif,55,0.0666666666666667,0.0666666666666667,1.26666666666667,1106.909929625,1107.81513875,13,1106.972109083,1107.032598375,1107.834424916,1109.094467291,1,0.905209125000056
140,11,4,categorization,0,bathroom,SHINEd_sun_ausgutylgojavyoq.tif,53,0.0666666666666667,0.0666666666666667,2,1109.112767375,1109.921585041,13,1109.180743375,1109.245676916,1109.934503583,1111.927874416,1,0.808817666000095
140,12,4,categorization,0,bathroom,SHINEd_sun_aofnryafpsjimzsb.tif,40,0.0666666666666667,0.0666666666666667,0.733333333333333,1111.946473291,1112.795565083,13,1112.013454625,1112.07966525,1112.819991,1113.546664166,1,0.849091791999854
140,13,4,categorization,0,kitchen,SHINEd_sun_aexklacwqwezaorf.tif,84,0.0666666666666667,0.0666666666666667,0.883333333333333,1113.551631625,1114.142607416,9,1113.613552333,1113.674310541,1114.159276,1115.035947916,1,0.590975790999892
140,14,4,categorization,0,bathroom,SHINEd_sun_agyqfjcfkdcydepw.tif,25,0.0666666666666667,0.0666666666666667,0.983333333333333,1115.040942875,1115.830998916,9,1115.102784666,1115.1636085,1115.848775416,1116.825445583,0,0.790056041000071
140,15,4,categorization,0,kitchen,SHINEd_sun_ahdycvpopffkzzsu.tif,90,0.0666666666666667,0.0666666666666667,1.56666666666667,1116.83009275,1117.726597916,9,1116.891688166,1116.952875333,1117.738643125,1119.298676666,1,0.896505165999997
140,16,4,categorization,0,bathroom,SHINEd_sun_aggnnqpdorgxpvce.tif,21,0.0666666666666667,0.0666666666666667,1.08333333333333,1119.315843625,1120.169532958,9,1119.382610125,1119.448522583,1120.188183333,1121.264885041,0,0.85368933299992
140,17,4,categorization,0,bathroom,SHINEd_sun_akiytfaagpdsphgz.tif,31,0.0666666666666667,0.0666666666666667,0.75,1121.274866291,1121.983598375,13,1121.33945025,1121.407073083,1122.013814333,1122.757194,1,0.708732083999848
140,18,4,categorization,0,kitchen,SHINEd_sun_acwjdupvyjsugpay.tif,76,0.0666666666666667,0.0666666666666667,0.966666666666667,1122.773960458,1123.822459333,9,1122.840883666,1122.906692458,1123.842528583,1124.80253375,1,1.04849887500018
140,19,4,categorization,0,kitchen,SHINEd_sun_abrcnpqqhmjwekyf.tif,73,0.0666666666666667,0.0666666666666667,1.63333333333333,1124.807379,1125.886676375,9,1124.869322375,1124.930051916,1125.898542333,1127.5252595,1,1.0792973749999
140,20,4,categorization,0,bathroom,SHINEd_sun_acgyywnybuveqsro.tif,18,0.0666666666666667,0.0666666666666667,1.46666666666667,1127.538236375,1130.2709525,9,1127.60494525,1127.668318375,1130.287299416,1131.747346708,0,2.73271612500002
140,21,4,categorization,0,kitchen,SHINEd_sun_aadbddgrdsjugojn.tif,64,0.0666666666666667,0.0666666666666667,0.933333333333333,1131.762896833,1133.296133708,13,1131.829386,1131.896991583,1133.323125875,1134.249797708,0,1.53323687500006
140,22,4,categorization,0,bathroom,SHINEd_sun_aavhrsfjbserjtht.tif,13,0.0666666666666667,0.0666666666666667,1.45,1134.254649791,1134.99870125,9,1134.316345583,1134.377234875,1135.012292625,1136.455676666,0,0.744051459000048
140,23,4,categorization,0,bathroom,SHINEd_sun_acegryoqftbzowsg.tif,17,0.0666666666666667,0.0666666666666667,0.966666666666667,1136.47256625,1137.312562625,9,1136.53934075,1136.600241458,1137.339915291,1138.299919208,0,0.839996375000055
140,24,4,categorization,0,bathroom,SHINEd_sun_abjtwfukuwddzted.tif,15,0.0666666666666667,0.0666666666666667,0.816666666666667,1138.304716666,1139.430737708,9,1138.366328875,1138.427509916,1139.445946291,1140.25595025,0,1.12602104199982
140,25,4,categorization,0,bathroom,SHINEd_sun_aoybiabnpadelefl.tif,41,0.0666666666666667,0.0666666666666667,1.96666666666667,1140.260393208,1142.454471833,9,1140.322003875,1140.382953791,1142.468596333,1144.428635458,0,2.19407862499997
140,26,4,categorization,0,bathroom,SHINEd_sun_axxbkopsgyouuebh.tif,58,0.0666666666666667,0.0666666666666667,0.916666666666667,1144.445766125,1148.406767208,13,1144.51224325,1144.574226083,1148.426952875,1149.336958041,1,3.96100108299993
140,27,4,categorization,0,bathroom,SHINEd_sun_amzlamotzwfkwjco.tif,37,0.0666666666666667,0.0666666666666667,1.28333333333333,1149.34128425,1150.118585916,13,1149.4029365,1149.463950291,1150.132712083,1151.409413541,1,0.777301666000085
140,28,4,categorization,0,kitchen,SHINEd_sun_ahljzhgcdpomplvg.tif,91,0.0666666666666667,0.0666666666666667,1.8,1151.428060583,1152.263701833,13,1151.495094333,1151.561414125,1152.284937708,1154.078307583,0,0.835641249999981
140,29,4,categorization,0,bathroom,SHINEd_sun_ahcvzmoyaycdoftf.tif,27,0.0666666666666667,0.0666666666666667,1.33333333333333,1154.097231041,1155.354248625,9,1154.164125125,1154.229624125,1155.371923541,1156.69861225,0,1.2570175840001
140,30,4,categorization,0,bathroom,SHINEd_sun_alkosphxlxwjwgjd.tif,34,0.0666666666666667,0.0666666666666667,1.06666666666667,1156.710474,1158.38576475,13,1156.778631875,1156.843299333,1158.399525041,1159.459568916,1,1.67529074999993
140,31,4,categorization,0,kitchen,SHINEd_sun_acxkpeoqbwcxfvip.tif,77,0.0666666666666667,0.0666666666666667,1.03333333333333,1159.468761416,1160.919063125,9,1159.533992333,1159.600061958,1160.943722583,1161.970442291,1,1.45030170900009
140,32,4,categorization,0,kitchen,SHINEd_sun_aunzlwrbjumxhwdj.tif,103,0.0666666666666667,0.0666666666666667,0.733333333333333,1161.979036041,1162.891545041,9,1162.043193375,1162.110419916,1162.917292958,1163.644007708,1,0.912509
140,33,4,categorization,0,kitchen,SHINEd_sun_adgqasybjyktddhj.tif,78,0.0666666666666667,0.0666666666666667,0.766666666666667,1163.661309375,1164.335217791,9,1163.728411916,1163.794177541,1164.346144416,1165.106149708,1,0.673908416000131
140,34,4,categorization,0,bathroom,SHINEd_sun_apkxzenqapsujocq.tif,45,0.0666666666666667,0.0666666666666667,1.1,1165.110997166,1165.991032208,13,1165.172702708,1165.233721625,1166.002298666,1167.095667666,1,0.880035041999918
140,35,4,categorization,0,kitchen,SHINEd_sun_aeqdocilnnpuvuhx.tif,83,0.0666666666666667,0.0666666666666667,1.81666666666667,1167.105199041,1168.142514291,9,1167.170254625,1167.237818458,1168.160249125,1169.970301125,1,1.03731524999989
140,36,4,categorization,0,bathroom,SHINEd_sun_aqrpegblszgcoujh.tif,48,0.0666666666666667,0.0666666666666667,0.883333333333333,1169.989102083,1170.963013,13,1170.055961791,1170.122244916,1170.978552666,1171.855223,1,0.973910917000012
140,37,4,categorization,0,kitchen,SHINEd_sun_abdenxonkemggwsq.tif,69,0.0666666666666667,0.0666666666666667,1.7,1171.860019208,1172.543106416,9,1171.92178375,1171.982731875,1172.551144583,1174.244535625,1,0.683087207999961
140,38,4,categorization,0,bathroom,SHINEd_sun_aapitsgbtktqubfy.tif,12,0.0666666666666667,0.0666666666666667,1.58333333333333,1174.262103041,1174.959475333,13,1174.329197375,1174.395035875,1174.985549083,1176.56224425,1,0.697372291999955
140,39,4,categorization,0,bathroom,SHINEd_sun_ahijqszoswveeyji.tif,28,0.0666666666666667,0.0666666666666667,0.833333333333333,1176.574380125,1177.559087833,13,1176.640355083,1176.707297958,1177.58085825,1178.407529666,1,0.98470770799986
140,40,4,categorization,0,bathroom,SHINEd_sun_auzqhkafidnkrwmo.tif,54,0.0666666666666667,0.0666666666666667,0.95,1178.412357166,1179.390700041,9,1178.474128125,1178.535388541,1179.403858291,1180.347196541,0,0.978342874999953
140,41,4,categorization,0,kitchen,SHINEd_sun_ahywdevtimnqcsln.tif,94,0.0666666666666667,0.0666666666666667,1.06666666666667,1180.352027333,1181.726297708,13,1180.413746125,1180.474532875,1181.743431,1182.803470541,0,1.37427037499992
140,42,4,categorization,0,bathroom,SHINEd_sun_aclfzgynxzxlbepz.tif,19,0.0666666666666667,0.0666666666666667,1.68333333333333,1182.812047416,1183.600060041,13,1182.876920916,1182.942550208,1183.615133916,1185.291849416,1,0.788012624999965
140,43,4,categorization,0,kitchen,SHINEd_sun_axyyrmzcupyhlivc.tif,107,0.0666666666666667,0.0666666666666667,1.31666666666667,1185.309453416,1186.027322125,9,1185.376716666,1185.442072166,1186.048876166,1187.358915708,1,0.717868708999958
140,44,4,categorization,0,bathroom,SHINEd_sun_awnqiikzaispgmwo.tif,56,0.0666666666666667,0.0666666666666667,1.61666666666667,1187.377332625,1188.155683166,13,1187.444546875,1187.510257083,1188.183863416,1189.793920083,1,0.778350541000009
140,45,4,categorization,0,kitchen,SHINEd_sun_ahpczsiumwwocjkv.tif,92,0.0666666666666667,0.0666666666666667,1.15,1189.812092208,1190.875589375,9,1189.878905166,1189.9449925,1190.901875166,1192.045263,1,1.06349716699992
140,46,4,categorization,0,bathroom,SHINEd_sun_ahaulkltgpkeeemi.tif,26,0.0666666666666667,0.0666666666666667,1.25,1192.055604791,1192.978640958,13,1192.122212625,1192.188645791,1192.994920541,1194.238305375,1,0.923036166999964
140,47,4,categorization,0,kitchen,SHINEd_labelme_rykdqxenmhulbdn.tif,63,0.0666666666666667,0.0666666666666667,1.1,1194.255873291,1194.889981375,13,1194.323081583,1194.388853583,1194.912230541,1196.005605458,0,0.63410808399999
140,48,4,categorization,0,bathroom,SHINEd_sun_afcoljnjfoxjtgja.tif,20,0.0666666666666667,0.0666666666666667,0.9,1196.022305291,1196.902481291,13,1196.089321041,1196.150554375,1196.919166458,1197.812504458,1,0.880175999999892
140,49,4,categorization,0,bathroom,SHINEd_sun_aunuadmjocsddsrl.tif,52,0.0666666666666667,0.0666666666666667,1.3,1197.817316125,1198.926648083,9,1197.878991208,1197.939911208,1198.941673333,1200.235052583,0,1.10933195799998
140,50,4,categorization,0,kitchen,SHINEd_sun_avszsnwsbuqfgzbn.tif,105,0.0666666666666667,0.0666666666666667,1.25,1200.25193575,1200.860501916,13,1200.31839525,1200.385087333,1200.8740205,1202.117393166,0,0.608566165999946
140,1,5,categorization,0,bathroom,SHINEd_sun_ambriybtogmepttm.tif,36,0.0666666666666667,0.0666666666666667,1.7,1261.747917125,1262.710867,13,1261.810348,1261.870505791,1262.722279333,1264.415660875,1,0.962949875000049
140,2,5,categorization,0,kitchen,SHINEd_sun_agubuxuukhzyzpdp.tif,88,0.0666666666666667,0.0666666666666667,1.81666666666667,1264.434001083,1265.424196333,13,1264.500584625,1264.56458325,1265.454344208,1267.264404458,0,0.990195249999942
140,3,5,categorization,0,bathroom,SHINEd_sun_apkxzenqapsujocq.tif,45,0.0666666666666667,0.0666666666666667,1.23333333333333,1267.280160291,1268.072744541,13,1267.34860075,1267.410897625,1268.100898833,1269.327668083,1,0.792584250000118
140,4,5,categorization,0,bathroom,SHINEd_sun_apkruvsevgegsdwp.tif,44,0.0666666666666667,0.0666666666666667,1.4,1269.345515625,1270.29748275,13,1269.412562125,1269.476641625,1270.316434041,1271.709816083,1,0.95196712500001
140,5,5,categorization,0,bathroom,SHINEd_sun_alkosphxlxwjwgjd.tif,34,0.0666666666666667,0.0666666666666667,1.03333333333333,1271.727095,1272.754173041,13,1271.794347625,1271.859225125,1272.782781333,1273.8094975,1,1.0270780410001
140,6,5,categorization,0,kitchen,SHINEd_sun_avszsnwsbuqfgzbn.tif,105,0.0666666666666667,0.0666666666666667,1.38333333333333,1273.817699083,1274.441629416,9,1273.881509458,1273.947948458,1274.471228708,1275.847944375,1,0.623930333000089
140,7,5,categorization,0,bathroom,SHINEd_sun_aqrpegblszgcoujh.tif,48,0.0666666666666667,0.0666666666666667,2,1275.863753083,1276.710079875,13,1275.926291166,1275.9865135,1276.721806375,1278.715178875,1,0.846326792000127
140,8,5,categorization,0,bathroom,SHINEd_sun_aspsyogrekjtfozg.tif,50,0.0666666666666667,0.0666666666666667,1.85,1278.733493125,1279.483593708,9,1278.800192458,1278.865494416,1279.505404291,1281.348784,0,0.750100582999949
140,9,5,categorization,0,bathroom,SHINEd_sun_aunuadmjocsddsrl.tif,52,0.0666666666666667,0.0666666666666667,0.816666666666667,1281.367582791,1282.1217615,13,1281.4342905,1281.499459208,1282.138435083,1282.948441458,1,0.754178709000143
140,10,5,categorization,0,bathroom,SHINEd_sun_azqyogdvyhahyram.tif,60,0.0666666666666667,0.0666666666666667,1.85,1282.953417541,1283.7825105,13,1283.015274791,1283.076047708,1283.79454225,1285.637926125,1,0.829092959000036
140,11,5,categorization,0,kitchen,SHINEd_sun_admlmbcdswaszruo.tif,79,0.0666666666666667,0.0666666666666667,0.733333333333333,1285.655914666,1287.926087291,13,1285.722783875,1285.788750291,1287.941492833,1288.668167,0,2.27017262499999
140,12,5,categorization,0,kitchen,SHINEd_sun_aegoxogugdkwpmpj.tif,80,0.0666666666666667,0.0666666666666667,0.716666666666667,1288.672846291,1289.590718166,9,1288.734647666,1288.79555875,1289.597402291,1290.307406916,1,0.917871874999946
140,13,5,categorization,0,bathroom,SHINEd_sun_ajlawzvmubibwbpy.tif,30,0.0666666666666667,0.0666666666666667,0.833333333333333,1290.312115333,1290.838260958,13,1290.3738565,1290.434845875,1290.853264541,1291.679935,1,0.526145625000026
140,14,5,categorization,0,kitchen,SHINEd_labelme_rykdqxenmhulbdn.tif,63,0.0666666666666667,0.0666666666666667,0.95,1291.684392291,1292.069833041,13,1291.746085166,1291.806934833,1292.075359083,1293.018697666,0,0.385440750000043
140,15,5,categorization,0,bathroom,SHINEd_sun_ahaulkltgpkeeemi.tif,26,0.0666666666666667,0.0666666666666667,1.96666666666667,1293.023607375,1293.773931708,13,1293.085283625,1293.146255,1293.78125625,1295.741296958,1,0.75032433299998
140,16,5,categorization,0,bathroom,SHINEd_sun_axldvoqbuvuggfmq.tif,57,0.0666666666666667,0.0666666666666667,1.86666666666667,1295.758570083,1296.598436166,13,1295.825604708,1295.89126825,1296.612662916,1298.47271575,1,0.839866083000061
140,17,5,categorization,0,kitchen,SHINEd_labelme_brsyyvweiuaazfr.tif,61,0.0666666666666667,0.0666666666666667,1.51666666666667,1298.4913695,1299.287428666,13,1298.5588045,1298.619805625,1299.309968458,1300.820013208,0,0.796059166000077
140,18,5,categorization,0,kitchen,SHINEd_sun_agzzivivdpnawacl.tif,89,0.0666666666666667,0.0666666666666667,1.3,1300.838587958,1301.686624458,13,1300.905462541,1300.971248791,1301.711645833,1303.005031166,0,0.848036500000035
140,19,5,categorization,0,kitchen,SHINEd_sun_aadbddgrdsjugojn.tif,64,0.0666666666666667,0.0666666666666667,1.91666666666667,1303.022095166,1303.662702166,9,1303.088837416,1303.155211958,1303.677881875,1305.587929333,1,0.640606999999818
140,20,5,categorization,0,bathroom,SHINEd_sun_apeeialkgkuxddgh.tif,42,0.0666666666666667,0.0666666666666667,1.23333333333333,1305.605590291,1306.241279541,9,1305.672577541,1305.739152333,1306.262685041,1307.489391041,0,0.635689250000041
140,21,5,categorization,0,bathroom,SHINEd_sun_amzlamotzwfkwjco.tif,37,0.0666666666666667,0.0666666666666667,0.866666666666667,1307.506075416,1308.037764125,9,1307.5727615,1307.639173166,1308.061909916,1308.921956958,0,0.531688709000036
140,22,5,categorization,0,kitchen,SHINEd_sun_aenotlpyftoioydp.tif,82,0.0666666666666667,0.0666666666666667,0.8,1308.938707375,1309.614296625,9,1309.0054685,1309.071725833,1309.623695583,1310.417032541,1,0.67558925000003
140,23,5,categorization,0,kitchen,SHINEd_sun_abrcnpqqhmjwekyf.tif,73,0.0666666666666667,0.0666666666666667,1.51666666666667,1310.421865041,1311.5745425,9,1310.483564375,1310.544421583,1311.579615666,1313.089671291,1,1.15267745899996
140,24,5,categorization,0,kitchen,SHINEd_sun_ahdycvpopffkzzsu.tif,90,0.0666666666666667,0.0666666666666667,1.18333333333333,1313.107357083,1314.190428333,9,1313.174196375,1313.240287791,1314.213409125,1315.3901135,1,1.0830712500001
140,25,5,categorization,0,kitchen,SHINEd_sun_amjjdeyrggfqgmom.tif,100,0.0666666666666667,0.0666666666666667,1.6,1315.401077791,1316.600238625,9,1315.467492041,1315.533463833,1316.622649208,1318.216018708,1,1.19916083399994
140,26,5,categorization,0,kitchen,SHINEd_sun_acfmftudsenhrfhy.tif,74,0.0666666666666667,0.0666666666666667,1.56666666666667,1318.233365583,1318.874684833,9,1318.301614708,1318.366383833,1318.8890005,1320.449036333,1,0.641319249999924
140,27,5,categorization,0,bathroom,SHINEd_sun_aclfzgynxzxlbepz.tif,19,0.0666666666666667,0.0666666666666667,1.36666666666667,1320.468247541,1321.311817916,13,1320.535484875,1320.595996416,1321.336357083,1322.696385,1,0.843570375000127
140,28,5,categorization,0,bathroom,SHINEd_sun_auzqhkafidnkrwmo.tif,54,0.0666666666666667,0.0666666666666667,1.53333333333333,1322.712866291,1324.033633208,13,1322.781293875,1322.845729583,1324.054627,1325.581328166,1,1.32076691700013
140,29,5,categorization,0,kitchen,SHINEd_sun_aapllqyqlykszopd.tif,66,0.0666666666666667,0.0666666666666667,1.4,1325.599112958,1325.9893875,9,1325.666448375,1325.731746375,1326.004586708,1327.397976208,1,0.390274542000043
140,30,5,categorization,0,kitchen,SHINEd_sun_aaxxjlsuzvqlgylf.tif,68,0.0666666666666667,0.0666666666666667,1.06666666666667,1327.417378958,1327.810781833,13,1327.483979625,1327.549933541,1327.839974166,1328.900018291,0,0.393402874999992
140,31,5,categorization,0,kitchen,SHINEd_sun_aqeaevwwwjoqhzvl.tif,101,0.0666666666666667,0.0666666666666667,1.63333333333333,1328.916868916,1329.566061041,9,1328.983861125,1329.049494666,1329.584891333,1331.211601,1,0.6491921249999
140,32,5,categorization,0,bathroom,SHINEd_sun_apynckhmoftszqoq.tif,47,0.0666666666666667,0.0666666666666667,1.8,1331.228794,1331.736241083,13,1331.295707416,1331.361920541,1331.751224958,1333.5446145,1,0.507447082999988
140,33,5,categorization,0,bathroom,SHINEd_sun_awnqiikzaispgmwo.tif,56,0.0666666666666667,0.0666666666666667,1.53333333333333,1333.562968708,1334.23074075,13,1333.629883375,1333.695743333,1334.252598875,1335.779319458,1,0.667772042000024
140,34,5,categorization,0,bathroom,SHINEd_sun_aljolscmmzydegqp.tif,33,0.0666666666666667,0.0666666666666667,0.766666666666667,1335.797648958,1338.613634166,13,1335.86467675,1335.930326708,1338.632696125,1339.392700875,1,2.81598520800003
140,35,5,categorization,0,bathroom,SHINEd_sun_agguqiubmwhqqunb.tif,22,0.0666666666666667,0.0666666666666667,1.86666666666667,1339.397597875,1339.79855875,9,1339.459633333,1339.52021,1339.805317083,1341.665364375,0,0.40096087500001
140,36,5,categorization,0,bathroom,SHINEd_sun_avhrdrntsqrjzccq.tif,55,0.0666666666666667,0.0666666666666667,1.13333333333333,1341.683805708,1342.139307375,9,1341.750439125,1341.816707583,1342.155756125,1343.28246275,0,0.455501667000135
140,37,5,categorization,0,bathroom,SHINEd_sun_alotolagknyrgtsk.tif,35,0.0666666666666667,0.0666666666666667,1.73333333333333,1343.294026416,1344.008171958,13,1343.359325041,1343.426676291,1344.033265791,1345.759987416,1,0.714145542000097
140,38,5,categorization,0,kitchen,SHINEd_sun_aixorpehvfykdynp.tif,95,0.0666666666666667,0.0666666666666667,0.766666666666667,1345.778188583,1346.630718416,13,1345.845356541,1345.910688333,1346.64852875,1347.40853525,0,0.852529833000062
140,39,5,categorization,0,bathroom,SHINEd_sun_ahqjwnzgolcaoidx.tif,29,0.0666666666666667,0.0666666666666667,1.85,1347.414118416,1348.301608208,13,1347.4758335,1347.537177458,1348.305812875,1350.149193833,1,0.887489791999997
140,40,5,categorization,0,bathroom,SHINEd_sun_aghyqhbptboemmoq.tif,23,0.0666666666666667,0.0666666666666667,0.966666666666667,1350.164341291,1350.761303541,13,1350.231298125,1350.297135041,1350.787461625,1351.747466083,1,0.596962249999933
140,41,5,categorization,0,bathroom,SHINEd_sun_akiytfaagpdsphgz.tif,31,0.0666666666666667,0.0666666666666667,1.06666666666667,1351.752923666,1352.518148083,9,1351.814694958,1351.875602041,1352.527428083,1353.587469708,0,0.765224416999899
140,42,5,categorization,0,kitchen,SHINEd_sun_aymvwlarqodbwuoc.tif,108,0.0666666666666667,0.0666666666666667,1.38333333333333,1353.597098333,1354.249563833,9,1353.661620833,1353.727621666,1354.267338041,1355.64404275,1,0.652465499999835
140,43,5,categorization,0,bathroom,SHINEd_sun_aapitsgbtktqubfy.tif,12,0.0666666666666667,0.0666666666666667,0.766666666666667,1355.654982291,1356.253740916,13,1355.717396916,1355.777571625,1356.262672625,1357.022676375,1,0.598758625000073
140,44,5,categorization,0,kitchen,SHINEd_sun_ahspylgoovwmwvgk.tif,93,0.0666666666666667,0.0666666666666667,0.866666666666667,1357.027361458,1358.021870958,9,1357.089026916,1357.149982291,1358.035094208,1358.895098541,1,0.994509499999822
140,45,5,categorization,0,kitchen,SHINEd_sun_agorklincwxrdtga.tif,87,0.0666666666666667,0.0666666666666667,1.25,1358.899740916,1359.685772833,9,1358.961540041,1359.022395833,1359.690908333,1360.934276583,1,0.786031917000173
140,46,5,categorization,0,kitchen,SHINEd_sun_aarfiyshqohlwkmo.tif,67,0.0666666666666667,0.0666666666666667,1.03333333333333,1360.955147708,1361.762121416,9,1361.021856375,1361.087874833,1361.777259875,1362.803962166,1,0.806973707999987
140,47,5,categorization,0,bathroom,SHINEd_sun_acgyywnybuveqsro.tif,18,0.0666666666666667,0.0666666666666667,0.783333333333333,1362.821442416,1363.446566125,13,1362.884104916,1362.944049125,1363.462324833,1364.238996291,1,0.625123708999809
140,48,5,categorization,0,kitchen,SHINEd_sun_aamedkxepzlwuxes.tif,65,0.0666666666666667,0.0666666666666667,0.7,1364.24377775,1364.86963125,9,1364.305392916,1364.366393958,1364.884931541,1365.578270166,1,0.625853500000176
140,49,5,categorization,0,kitchen,SHINEd_sun_acxkpeoqbwcxfvip.tif,77,0.0666666666666667,0.0666666666666667,1.75,1365.582862958,1366.309940666,9,1365.644541833,1365.705434125,1366.324124791,1368.067510166,1,0.727077708000024
140,50,5,categorization,0,kitchen,SHINEd_sun_adgqasybjyktddhj.tif,78,0.0666666666666667,0.0666666666666667,1.36666666666667,1368.088496625,1369.037736666,9,1368.155819458,1368.222806208,1369.063988666,1370.4240215,1,0.949240040999939
140,1,6,categorization,0,kitchen,SHINEd_sun_acwjdupvyjsugpay.tif,76,0.0666666666666667,0.0666666666666667,0.966666666666667,1396.749030041,1397.509958333,9,1396.811590333,1396.871796166,1397.52374225,1398.48374775,1,0.760928292000017
140,2,6,categorization,0,kitchen,SHINEd_sun_acgtpgfybqjmzeyw.tif,75,0.0666666666666667,0.0666666666666667,1.73333333333333,1398.488546208,1399.59791225,9,1398.550167708,1398.611194208,1399.613148666,1401.33985025,1,1.10936604200015
140,3,6,categorization,0,kitchen,SHINEd_sun_aexklacwqwezaorf.tif,84,0.0666666666666667,0.0666666666666667,1.91666666666667,1401.354548041,1402.521363666,13,1401.419534583,1401.4874225,1402.542654166,1404.452693916,0,1.16681562500003
140,4,6,categorization,0,kitchen,SHINEd_sun_ajcbwwvdlsvjyzje.tif,96,0.0666666666666667,0.0666666666666667,0.766666666666667,1404.472501833,1405.351712291,9,1404.539825916,1404.600571625,1405.374384583,1406.134389875,1,0.879210457999989
140,5,6,categorization,0,bathroom,SHINEd_sun_afcoljnjfoxjtgja.tif,20,0.0666666666666667,0.0666666666666667,0.916666666666667,1406.139313333,1406.686317416,9,1406.201039916,1406.261904875,1406.697003583,1407.607008583,0,0.547004083000047
140,6,6,categorization,0,bathroom,SHINEd_sun_ausgutylgojavyoq.tif,53,0.0666666666666667,0.0666666666666667,1.18333333333333,1407.611828208,1408.061559208,9,1407.6734195,1407.73449825,1408.069690708,1409.246404416,0,0.449731000000156
140,7,6,categorization,0,kitchen,SHINEd_sun_aypmqwcualkenuoe.tif,109,0.0666666666666667,0.0666666666666667,1.8,1409.257359625,1409.878722291,9,1409.323868083,1409.390514041,1409.897076541,1411.690462,1,0.621362666000095
140,8,6,categorization,0,kitchen,SHINEd_sun_akcjzhbbjlbogpdi.tif,99,0.0666666666666667,0.0666666666666667,0.883333333333333,1411.707703041,1412.43331725,9,1411.774995458,1411.84036475,1412.463884208,1413.340556791,1,0.725614209000014
140,9,6,categorization,0,bathroom,SHINEd_sun_asfwthctfqerjvxr.tif,49,0.0666666666666667,0.0666666666666667,1.83333333333333,1413.345379125,1414.109580458,13,1413.407012666,1413.468054375,1414.119979666,1415.946692041,1,0.764201333000074
140,10,6,categorization,0,bathroom,SHINEd_sun_abjtwfukuwddzted.tif,15,0.0666666666666667,0.0666666666666667,1.76666666666667,1415.964264791,1417.121421,9,1416.031467708,1416.097439041,1417.1343795,1418.894434458,0,1.15715620900005
140,11,6,categorization,0,bathroom,SHINEd_sun_aoybiabnpadelefl.tif,41,0.0666666666666667,0.0666666666666667,0.983333333333333,1418.911868375,1419.752014541,9,1418.978628875,1419.044996041,1419.767225041,1420.743896625,0,0.840146166000068
140,12,6,categorization,0,kitchen,SHINEd_sun_ahljzhgcdpomplvg.tif,91,0.0666666666666667,0.0666666666666667,0.883333333333333,1420.748740916,1421.206186291,13,1420.810756416,1420.871345041,1421.22298475,1422.099656583,0,0.457445374999907
140,13,6,categorization,0,bathroom,SHINEd_sun_apjevzvycyhuqghb.tif,43,0.0666666666666667,0.0666666666666667,0.85,1422.104303208,1422.822397458,9,1422.165897708,1422.227134083,1422.828973166,1423.672312,0,0.718094250000149
140,14,6,categorization,0,kitchen,SHINEd_sun_azmutvzbxypaceni.tif,110,0.0666666666666667,0.0666666666666667,0.733333333333333,1423.677029,1424.42962625,9,1423.738654666,1423.799683,1424.434903458,1425.161575458,1,0.752597250000008
140,15,6,categorization,0,bathroom,SHINEd_sun_aofnryafpsjimzsb.tif,40,0.0666666666666667,0.0666666666666667,1.88333333333333,1425.166299125,1425.829717791,13,1425.2280255,1425.288933416,1425.840732958,1427.7174345,1,0.66341866599987
140,16,6,categorization,0,bathroom,SHINEd_sun_aleqenyvunhactkl.tif,32,0.0666666666666667,0.0666666666666667,0.816666666666667,1427.735732916,1428.466898583,13,1427.802464666,1427.868847958,1428.492724541,1429.30273025,1,0.731165667000141
140,17,6,categorization,0,kitchen,SHINEd_sun_auticobqsbwgoppi.tif,104,0.0666666666666667,0.0666666666666667,1.9,1429.30763125,1430.597560875,13,1429.369305333,1429.430268125,1430.615587833,1432.508964958,0,1.28992962500001
140,18,6,categorization,0,bathroom,SHINEd_sun_anryaplzeujmzfkd.tif,39,0.0666666666666667,0.0666666666666667,0.983333333333333,1432.521151208,1433.030049708,9,1432.585231916,1432.647915958,1433.0543835,1434.031054916,0,0.508898499999987
140,19,6,categorization,0,kitchen,SHINEd_sun_abdenxonkemggwsq.tif,69,0.0666666666666667,0.0666666666666667,0.75,1434.036129708,1434.437526958,13,1434.097916541,1434.158844791,1434.444007958,1435.187346958,0,0.401397249999945
140,20,6,categorization,0,kitchen,SHINEd_sun_auaiucuqpdausiva.tif,102,0.0666666666666667,0.0666666666666667,1.6,1435.191849208,1436.013887083,13,1435.253439166,1435.314419791,1436.032875625,1437.626244625,0,0.822037875000206
140,21,6,categorization,0,bathroom,SHINEd_sun_agyqfjcfkdcydepw.tif,25,0.0666666666666667,0.0666666666666667,1.58333333333333,1437.644084541,1438.290288083,13,1437.711123625,1437.777155666,1438.317639541,1439.894358666,1,0.646203541999967
140,22,6,categorization,0,bathroom,SHINEd_sun_aggnnqpdorgxpvce.tif,21,0.0666666666666667,0.0666666666666667,1.11666666666667,1439.912520791,1440.685413458,9,1439.978936125,1440.045384166,1440.700816541,1441.810856791,0,0.772892667000178
140,23,6,categorization,0,bathroom,SHINEd_sun_axxbkopsgyouuebh.tif,58,0.0666666666666667,0.0666666666666667,1.53333333333333,1441.820949083,1443.264210875,13,1441.885720541,1441.953807375,1443.296399583,1444.8231205,1,1.44326179199993
140,24,6,categorization,0,bathroom,SHINEd_sun_agrwbmhcpmfuwmsg.tif,24,0.0666666666666667,0.0666666666666667,1.48333333333333,1444.840601833,1445.943738708,9,1444.907573916,1444.973714333,1445.963405916,1447.440119833,0,1.10313687500002
140,25,6,categorization,0,kitchen,SHINEd_sun_awcpdzzznmweyyhv.tif,106,0.0666666666666667,0.0666666666666667,1.1,1447.457526083,1448.227653875,9,1447.524727458,1447.590446125,1448.24713175,1449.34052025,1,0.770127792000039
140,26,6,categorization,0,kitchen,SHINEd_sun_abpwyqmlzafvklqo.tif,72,0.0666666666666667,0.0666666666666667,0.933333333333333,1449.348815458,1450.161050416,13,1449.414049833,1449.481651458,1450.188541833,1451.115255,0,0.81223495800009
140,27,6,categorization,0,kitchen,SHINEd_sun_aehawpgmrlhlvcow.tif,81,0.0666666666666667,0.0666666666666667,0.816666666666667,1451.131501,1452.021441875,9,1451.198333083,1451.264366958,1452.033345958,1452.843351541,1,0.889940874999866
140,28,6,categorization,0,kitchen,SHINEd_sun_afuyedyxivkhecmu.tif,85,0.0666666666666667,0.0666666666666667,1.78333333333333,1452.848112166,1453.638167541,9,1452.909812708,1452.970811,1453.65606425,1455.432765083,1,0.790055375000065
140,29,6,categorization,0,kitchen,SHINEd_sun_axyyrmzcupyhlivc.tif,107,0.0666666666666667,0.0666666666666667,0.766666666666667,1455.45006425,1457.189367708,9,1455.516944166,1455.582554791,1457.202016083,1457.962021166,1,1.73930345799999
140,30,6,categorization,0,bathroom,SHINEd_sun_ahcvzmoyaycdoftf.tif,27,0.0666666666666667,0.0666666666666667,1.45,1457.966829083,1458.837366291,9,1458.028486291,1458.089386208,1458.841298791,1460.284689625,0,0.870537208000087
140,31,6,categorization,0,bathroom,SHINEd_labelme_sfxiulhjbhlyiyt.tif,11,0.0666666666666667,0.0666666666666667,0.75,1460.301997041,1461.255319541,9,1460.368810333,1460.435087958,1461.27467075,1462.018009416,0,0.953322500000013
140,32,6,categorization,0,kitchen,SHINEd_sun_abdxkyyxwfskuaqb.tif,70,0.0666666666666667,0.0666666666666667,1.36666666666667,1462.023383458,1463.990172958,13,1462.085002041,1462.146123541,1463.998656958,1465.358700083,0,1.9667895
140,33,6,categorization,0,kitchen,SHINEd_sun_ajkqhtgcbgpcwrwn.tif,97,0.0666666666666667,0.0666666666666667,0.75,1465.376639041,1466.142179541,9,1465.443661125,1465.509627708,1466.166274583,1466.909653333,1,0.765540499999815
140,34,6,categorization,0,kitchen,SHINEd_sun_akchetnepxlcxhsu.tif,98,0.0666666666666667,0.0666666666666667,0.783333333333333,1466.926398041,1467.933786291,9,1466.993543,1467.059149916,1467.94514425,1468.721815416,1,1.00738824999985
140,35,6,categorization,0,kitchen,SHINEd_sun_abftihopvusyfakt.tif,71,0.0666666666666667,0.0666666666666667,1.11666666666667,1468.726864791,1469.973718416,9,1468.788539375,1468.849629083,1469.985475416,1471.095507291,1,1.24685362500009
140,36,6,categorization,0,bathroom,SHINEd_sun_aavhrsfjbserjtht.tif,13,0.0666666666666667,0.0666666666666667,0.766666666666667,1471.106279666,1472.017728875,9,1471.171670458,1471.239032708,1472.045777875,1472.805814583,0,0.911449209000011
140,37,6,categorization,0,bathroom,SHINEd_sun_apmqjbnwghzuhhzh.tif,46,0.0666666666666667,0.0666666666666667,0.716666666666667,1472.821119208,1473.509611375,13,1472.887981375,1472.954007458,1473.522675916,1474.232680958,1,0.688492167000049
140,38,6,categorization,0,bathroom,SHINEd_sun_axyrejkiiaqiurjk.tif,59,0.0666666666666667,0.0666666666666667,1.33333333333333,1474.237389333,1474.974230916,9,1474.299107458,1474.359991791,1474.978717375,1476.305431416,0,0.736841582999887
140,39,6,categorization,0,kitchen,SHINEd_sun_ahpczsiumwwocjkv.tif,92,0.0666666666666667,0.0666666666666667,1.75,1476.322027208,1477.431642916,13,1476.388743666,1476.455022416,1477.463021083,1479.206387458,0,1.10961570800009
140,40,6,categorization,0,kitchen,SHINEd_sun_aeqdocilnnpuvuhx.tif,83,0.0666666666666667,0.0666666666666667,1.13333333333333,1479.223417541,1480.345518333,9,1479.290145291,1479.356391291,1480.362662666,1481.489362583,1,1.12210079200008
140,41,6,categorization,0,bathroom,SHINEd_sun_acduarbnmmoglmiv.tif,16,0.0666666666666667,0.0666666666666667,1.63333333333333,1481.500225583,1482.515597916,9,1481.565255791,1481.632629041,1482.537636041,1484.164343041,0,1.01537233299996
140,42,6,categorization,0,kitchen,SHINEd_labelme_kxvouciolcpqplr.tif,62,0.0666666666666667,0.0666666666666667,1.43333333333333,1484.182020375,1485.077059291,9,1484.248835666,1484.314648958,1485.104859916,1486.531578416,1,0.895038915999976
140,43,6,categorization,0,bathroom,SHINEd_sun_anhioqovhscjqqwb.tif,38,0.0666666666666667,0.0666666666666667,1.83333333333333,1486.550171458,1487.530583291,9,1486.614382375,1486.677008,1487.55015225,1489.376873875,0,0.980411833000062
140,44,6,categorization,0,bathroom,SHINEd_sun_atstyziqcmkahyxk.tif,51,0.0666666666666667,0.0666666666666667,1.93333333333333,1489.394466458,1490.163229333,13,1489.461524041,1489.527513125,1490.184421583,1492.1111405,1,0.768762874999993
140,45,6,categorization,0,bathroom,SHINEd_sun_abapwbhyhkfixyex.tif,14,0.0666666666666667,0.0666666666666667,1.26666666666667,1492.129869625,1492.79402925,13,1492.197491,1492.2628625,1492.82004525,1494.0800965,1,0.664159624999911
140,46,6,categorization,0,kitchen,SHINEd_sun_ahywdevtimnqcsln.tif,94,0.0666666666666667,0.0666666666666667,1.86666666666667,1494.098378583,1494.914192208,9,1494.165558583,1494.231343833,1494.937972166,1496.798004458,1,0.815813624999919
140,47,6,categorization,0,kitchen,SHINEd_sun_aggjlwcdjsjcaemh.tif,86,0.0666666666666667,0.0666666666666667,1.41666666666667,1496.816731333,1497.393596458,13,1496.883612875,1496.949476125,1497.422922958,1498.832963833,0,0.57686512500004
140,48,6,categorization,0,kitchen,SHINEd_sun_aunzlwrbjumxhwdj.tif,103,0.0666666666666667,0.0666666666666667,1.11666666666667,1498.855695083,1499.301644125,13,1498.92294025,1498.989092,1499.329242541,1500.439290416,0,0.445949041999938
140,49,6,categorization,0,bathroom,SHINEd_sun_ahijqszoswveeyji.tif,28,0.0666666666666667,0.0666666666666667,1.8,1500.454919333,1501.230077666,13,1500.517497791,1500.577630583,1501.246318958,1503.039700541,1,0.775158333000036
140,50,6,categorization,0,bathroom,SHINEd_sun_acegryoqftbzowsg.tif,17,0.0666666666666667,0.0666666666666667,1.25,1503.056626041,1504.373071125,13,1503.123103208,1503.188967541,1504.391996166,1505.635387083,1,1.31644508399995
140,1,7,categorization,0,kitchen,SHINEd_sun_acgtpgfybqjmzeyw.tif,75,0.0666666666666667,0.0666666666666667,0.883333333333333,1527.312167125,1529.253517041,13,1527.374592791,1527.434837541,1529.270231041,1530.146903875,0,1.94134991599981
140,2,7,categorization,0,kitchen,SHINEd_sun_acwjdupvyjsugpay.tif,76,0.0666666666666667,0.0666666666666667,1.03333333333333,1530.152515958,1534.133883041,13,1530.214162416,1530.275099583,1534.150379583,1535.177079958,0,3.9813670829999
140,3,7,categorization,0,bathroom,SHINEd_sun_agguqiubmwhqqunb.tif,22,0.0666666666666667,0.0666666666666667,1.06666666666667,1535.187743875,1535.705951083,9,1535.251895375,1535.319350458,1535.724607375,1536.7846535,0,0.518207207999922
140,4,7,categorization,0,kitchen,SHINEd_sun_aadbddgrdsjugojn.tif,64,0.0666666666666667,0.0666666666666667,0.833333333333333,1536.799821083,1537.301526791,13,1536.865826625,1536.933295208,1537.319146791,1538.14581875,0,0.501705707999918
140,5,7,categorization,0,bathroom,SHINEd_sun_alkosphxlxwjwgjd.tif,34,0.0666666666666667,0.0666666666666667,0.716666666666667,1538.153100916,1539.01375925,9,1538.214945375,1538.275731541,1539.027497041,1539.737501791,0,0.860658333999936
140,6,7,categorization,0,bathroom,SHINEd_sun_azqyogdvyhahyram.tif,60,0.0666666666666667,0.0666666666666667,0.733333333333333,1539.742222875,1540.237306416,9,1539.80393275,1539.864760083,1540.249897333,1540.976568625,0,0.495083540999985
140,7,7,categorization,0,bathroom,SHINEd_sun_acgyywnybuveqsro.tif,18,0.0666666666666667,0.0666666666666667,1.38333333333333,1540.9811135,1541.76494125,13,1541.042747291,1541.103731583,1541.772288916,1543.148984166,1,0.78382775
140,8,7,categorization,0,kitchen,SHINEd_sun_auticobqsbwgoppi.tif,104,0.0666666666666667,0.0666666666666667,0.9,1543.166098083,1544.293698041,9,1543.232639666,1543.298997708,1544.322706333,1545.216045375,1,1.12759995800002
140,9,7,categorization,0,bathroom,SHINEd_sun_avhrdrntsqrjzccq.tif,55,0.0666666666666667,0.0666666666666667,0.816666666666667,1545.220580416,1545.965136083,9,1545.282369791,1545.343334,1545.978409416,1546.788414375,0,0.744555666999986
140,10,7,categorization,0,kitchen,SHINEd_sun_aexklacwqwezaorf.tif,84,0.0666666666666667,0.0666666666666667,0.85,1546.79336375,1547.629905666,9,1546.855081166,1546.915999375,1547.634536666,1548.47787425,1,0.836541915999987
140,11,7,categorization,0,kitchen,SHINEd_labelme_kxvouciolcpqplr.tif,62,0.0666666666666667,0.0666666666666667,1.6,1548.482615375,1549.093147291,13,1548.544293125,1548.605196291,1549.107126,1550.700492833,0,0.6105319159999
140,12,7,categorization,0,bathroom,SHINEd_sun_aljolscmmzydegqp.tif,33,0.0666666666666667,0.0666666666666667,1.75,1550.711350875,1551.481592291,13,1550.777913291,1550.844169041,1551.499633375,1553.24301925,1,0.770241415999863
140,13,7,categorization,0,kitchen,SHINEd_sun_ahljzhgcdpomplvg.tif,91,0.0666666666666667,0.0666666666666667,1.1,1553.257757583,1553.799193625,13,1553.324480583,1553.390566958,1553.812138875,1554.905517583,0,0.541436041999987
140,14,7,categorization,0,kitchen,SHINEd_sun_aehawpgmrlhlvcow.tif,81,0.0666666666666667,0.0666666666666667,1.46666666666667,1554.9144265,1555.558334791,13,1554.979470958,1555.047316458,1555.587967375,1557.048023625,0,0.643908291000116
140,15,7,categorization,0,bathroom,SHINEd_sun_auzqhkafidnkrwmo.tif,54,0.0666666666666667,0.0666666666666667,1.25,1557.061033583,1557.775667458,13,1557.1276515,1557.193981208,1557.801196291,1559.044570625,1,0.714633875000118
140,16,7,categorization,0,kitchen,SHINEd_sun_aqeaevwwwjoqhzvl.tif,101,0.0666666666666667,0.0666666666666667,1.13333333333333,1559.063458291,1559.485200208,13,1559.126455625,1559.186258916,1559.504708416,1560.631418916,0,0.421741916999963
140,17,7,categorization,0,kitchen,SHINEd_sun_azmutvzbxypaceni.tif,110,0.0666666666666667,0.0666666666666667,1.33333333333333,1560.642501125,1561.295741541,13,1560.707351916,1560.772366083,1561.312315625,1562.638993625,0,0.653240416000017
140,18,7,categorization,0,kitchen,SHINEd_sun_aunzlwrbjumxhwdj.tif,103,0.0666666666666667,0.0666666666666667,1.86666666666667,1562.64513325,1563.381554041,13,1562.706803083,1562.767842083,1563.386656541,1565.246703541,0,0.736420791
140,19,7,categorization,0,bathroom,SHINEd_sun_aoybiabnpadelefl.tif,41,0.0666666666666667,0.0666666666666667,1.58333333333333,1565.264730875,1566.277686375,13,1565.331390125,1565.397522583,1566.304168958,1567.880890958,1,1.01295550000009
140,20,7,categorization,0,bathroom,SHINEd_sun_asfwthctfqerjvxr.tif,49,0.0666666666666667,0.0666666666666667,1.05,1567.895954791,1568.641720291,13,1567.962786875,1568.02875175,1568.667483,1569.710848666,1,0.745765500000061
140,21,7,categorization,0,bathroom,SHINEd_sun_aavhrsfjbserjtht.tif,13,0.0666666666666667,0.0666666666666667,0.9,1569.720669666,1570.382101875,9,1569.784973833,1569.851229166,1570.408737125,1571.302119166,0,0.66143220899994
140,22,7,categorization,0,kitchen,SHINEd_sun_akchetnepxlcxhsu.tif,98,0.0666666666666667,0.0666666666666667,0.7,1571.316986333,1571.973256791,13,1571.3830845,1571.450235708,1571.986031,1572.679367916,0,0.656270458000108
140,23,7,categorization,0,kitchen,SHINEd_sun_akcjzhbbjlbogpdi.tif,99,0.0666666666666667,0.0666666666666667,0.933333333333333,1572.686066791,1574.093097625,9,1572.747796958,1572.808767125,1574.111112916,1575.037785208,1,1.4070308339999
140,24,7,categorization,0,bathroom,SHINEd_sun_afcoljnjfoxjtgja.tif,20,0.0666666666666667,0.0666666666666667,1.95,1575.042536375,1575.693065541,13,1575.10449525,1575.165192666,1575.7003325,1577.643720541,1,0.650529165999842
140,25,7,categorization,0,bathroom,SHINEd_sun_aapitsgbtktqubfy.tif,12,0.0666666666666667,0.0666666666666667,1.06666666666667,1577.66159725,1577.782029125,13,1577.728616833,1577.79538825,1577.818434625,1578.878487625,1,0.120431874999895
140,26,7,categorization,0,bathroom,SHINEd_sun_abjtwfukuwddzted.tif,15,0.0666666666666667,0.0666666666666667,1.2,1578.886827833,1579.728821333,13,1578.951667208,1579.017525208,1579.757571916,1580.950951833,1,0.841993499999944
140,27,7,categorization,0,bathroom,SHINEd_sun_aggnnqpdorgxpvce.tif,21,0.0666666666666667,0.0666666666666667,0.75,1580.962024458,1581.502015416,9,1581.028564708,1581.094846583,1581.517560416,1582.261005666,0,0.539990957999862
140,28,7,categorization,0,bathroom,SHINEd_sun_aleqenyvunhactkl.tif,32,0.0666666666666667,0.0666666666666667,0.816666666666667,1582.277153791,1583.022129958,9,1582.34422825,1582.410061166,1583.029523208,1583.839527541,0,0.744976167000004
140,29,7,categorization,0,bathroom,SHINEd_sun_ausgutylgojavyoq.tif,53,0.0666666666666667,0.0666666666666667,1.96666666666667,1583.844317291,1584.317172416,13,1583.905939333,1583.967092,1584.335550666,1586.295607875,1,0.472855125000024
140,30,7,categorization,0,bathroom,SHINEd_sun_apkxzenqapsujocq.tif,45,0.0666666666666667,0.0666666666666667,1.2,1586.31312075,1586.735070916,13,1586.380124125,1586.445588125,1586.75178575,1587.945156708,1,0.421950165999988
140,31,7,categorization,0,bathroom,SHINEd_sun_axldvoqbuvuggfmq.tif,57,0.0666666666666667,0.0666666666666667,0.883333333333333,1587.962838166,1588.54503,9,1588.029680083,1588.095532958,1588.56805925,1589.444769458,0,0.582191834000014
140,32,7,categorization,0,kitchen,SHINEd_sun_abdxkyyxwfskuaqb.tif,70,0.0666666666666667,0.0666666666666667,1.33333333333333,1589.461388,1590.037297208,13,1589.528010416,1589.593876583,1590.046034166,1591.372757541,0,0.575909207999985
140,33,7,categorization,0,kitchen,SHINEd_sun_aamedkxepzlwuxes.tif,65,0.0666666666666667,0.0666666666666667,1.45,1591.391251875,1591.917075625,13,1591.458270458,1591.524301666,1591.94788675,1593.391275791,0,0.525823749999972
140,34,7,categorization,0,kitchen,SHINEd_sun_awcpdzzznmweyyhv.tif,106,0.0666666666666667,0.0666666666666667,1.15,1593.409918166,1594.535835166,13,1593.477442333,1593.543101791,1594.547435458,1595.690812416,0,1.12591700000007
140,35,7,categorization,0,bathroom,SHINEd_sun_anhioqovhscjqqwb.tif,38,0.0666666666666667,0.0666666666666667,0.966666666666667,1595.700261875,1596.336913583,13,1595.768232916,1595.833412583,1596.357120375,1597.317159416,1,0.636651708000045
140,36,7,categorization,0,bathroom,SHINEd_sun_apynckhmoftszqoq.tif,47,0.0666666666666667,0.0666666666666667,1.45,1597.33553675,1597.877320333,9,1597.403171583,1597.468381458,1597.88694925,1599.330334958,0,0.541783582999869
140,37,7,categorization,0,kitchen,SHINEd_sun_ahdycvpopffkzzsu.tif,90,0.0666666666666667,0.0666666666666667,0.8,1599.34182825,1599.986292625,13,1599.408993791,1599.474717875,1600.015095125,1600.808479708,0,0.644464375000098
140,38,7,categorization,0,bathroom,SHINEd_sun_amzlamotzwfkwjco.tif,37,0.0666666666666667,0.0666666666666667,1.45,1600.825423458,1601.845616083,9,1600.892042208,1600.958309416,1601.860271708,1603.30364275,0,1.02019262500016
140,39,7,categorization,0,kitchen,SHINEd_sun_adgqasybjyktddhj.tif,78,0.0666666666666667,0.0666666666666667,1.1,1603.317154125,1603.811210291,13,1603.383214333,1603.451537333,1603.841602791,1604.934985625,0,0.494056166000064
140,40,7,categorization,0,kitchen,SHINEd_sun_aymvwlarqodbwuoc.tif,108,0.0666666666666667,0.0666666666666667,1.16666666666667,1604.945222041,1605.537158375,13,1605.01184575,1605.078477708,1605.551694791,1606.711748583,0,0.591936333999911
140,41,7,categorization,0,kitchen,SHINEd_sun_aypmqwcualkenuoe.tif,109,0.0666666666666667,0.0666666666666667,1.31666666666667,1606.730107291,1607.452993666,13,1606.797223833,1606.862830208,1607.465159375,1608.775212916,0,0.722886375000144
140,42,7,categorization,0,bathroom,SHINEd_sun_ahijqszoswveeyji.tif,28,0.0666666666666667,0.0666666666666667,1.68333333333333,1608.792950416,1609.358435916,13,1608.859826708,1608.92581925,1609.382841625,1611.059558458,1,0.565485500000023
140,43,7,categorization,0,bathroom,SHINEd_sun_aspsyogrekjtfozg.tif,50,0.0666666666666667,0.0666666666666667,0.966666666666667,1611.078356833,1611.828993375,13,1611.145521916,1611.2109825,1611.850993708,1612.810999375,1,0.750636541999938
140,44,7,categorization,0,bathroom,SHINEd_sun_anryaplzeujmzfkd.tif,39,0.0666666666666667,0.0666666666666667,1.4,1612.816392791,1613.237690166,9,1612.878078666,1612.939023375,1613.241127,1614.634511416,0,0.421297374999995
140,45,7,categorization,0,bathroom,SHINEd_sun_apeeialkgkuxddgh.tif,42,0.0666666666666667,0.0666666666666667,0.783333333333333,1614.648840208,1615.200834166,9,1614.715428083,1614.781707583,1615.221114958,1615.99781825,0,0.551993958000139
140,46,7,categorization,0,kitchen,SHINEd_sun_aenotlpyftoioydp.tif,82,0.0666666666666667,0.0666666666666667,1.08333333333333,1616.010698375,1616.733465666,9,1616.077250458,1616.143257916,1616.745107333,1617.8218285,1,0.722767291000082
140,47,7,categorization,0,kitchen,SHINEd_sun_ahpczsiumwwocjkv.tif,92,0.0666666666666667,0.0666666666666667,1.43333333333333,1617.830318875,1618.394538541,9,1617.895061791,1617.963103833,1618.419837125,1619.846558458,1,0.564219665999872
140,48,7,categorization,0,kitchen,SHINEd_sun_amjjdeyrggfqgmom.tif,100,0.0666666666666667,0.0666666666666667,1.75,1619.865486208,1620.557743916,13,1619.927972416,1619.988314791,1620.573289083,1622.316672041,0,0.692257707999943
140,49,7,categorization,0,kitchen,SHINEd_sun_admlmbcdswaszruo.tif,79,0.0666666666666667,0.0666666666666667,1.21666666666667,1622.337586958,1623.20604675,9,1622.404724458,1622.470501333,1623.227300458,1624.4373335,1,0.868459792000067
140,50,7,categorization,0,bathroom,SHINEd_sun_axyrejkiiaqiurjk.tif,59,0.0666666666666667,0.0666666666666667,1.31666666666667,1624.454876291,1625.159459041,9,1624.521800666,1624.586108833,1625.17547375,1626.485515583,0,0.7045827500001
140,1,8,categorization,0,bathroom,SHINEd_sun_apjevzvycyhuqghb.tif,43,0.0666666666666667,0.0666666666666667,1.18333333333333,1634.505601291,1635.485614666,9,1634.567682458,1634.62828875,1635.496662625,1636.673374958,0,0.980013374999999
140,2,8,categorization,0,kitchen,SHINEd_sun_ahywdevtimnqcsln.tif,94,0.0666666666666667,0.0666666666666667,0.983333333333333,1636.683128666,1637.399503083,13,1636.747754333,1636.815623458,1637.422164666,1638.398878791,0,0.716374416999997
140,3,8,categorization,0,bathroom,SHINEd_sun_ambriybtogmepttm.tif,36,0.0666666666666667,0.0666666666666667,1.65,1638.409822625,1639.493377333,13,1638.476635958,1638.540026875,1639.508569375,1641.151937083,1,1.08355470799984
140,4,8,categorization,0,bathroom,SHINEd_sun_abapwbhyhkfixyex.tif,14,0.0666666666666667,0.0666666666666667,1.23333333333333,1641.170542041,1641.772702208,9,1641.237348833,1641.303292625,1641.793240333,1643.019951416,0,0.602160166999965
140,5,8,categorization,0,kitchen,SHINEd_labelme_rykdqxenmhulbdn.tif,63,0.0666666666666667,0.0666666666666667,0.916666666666667,1643.038270125,1644.013365833,13,1643.10513775,1643.171205125,1644.027183708,1644.937188541,0,0.975095708000026
140,6,8,categorization,0,bathroom,SHINEd_sun_aofnryafpsjimzsb.tif,40,0.0666666666666667,0.0666666666666667,1.56666666666667,1644.942168541,1645.652882791,9,1645.003933666,1645.064817625,1645.666753166,1647.226785625,0,0.71071424999991
140,7,8,categorization,0,bathroom,SHINEd_sun_awnqiikzaispgmwo.tif,56,0.0666666666666667,0.0666666666666667,1.63333333333333,1647.245049416,1648.070699458,13,1647.3119445,1647.377792166,1648.082970916,1649.709686833,1,0.825650042000007
140,8,8,categorization,0,bathroom,SHINEd_sun_aunuadmjocsddsrl.tif,52,0.0666666666666667,0.0666666666666667,1.1,1649.727658166,1650.545465166,13,1649.794759166,1649.860421041,1650.566516041,1651.65990175,1,0.817806999999902
140,9,8,categorization,0,kitchen,SHINEd_sun_avszsnwsbuqfgzbn.tif,105,0.0666666666666667,0.0666666666666667,1.38333333333333,1651.669933583,1652.581607791,9,1651.734843208,1651.802650583,1652.607925041,1653.984639083,1,0.911674207999795
140,10,8,categorization,0,kitchen,SHINEd_sun_abrcnpqqhmjwekyf.tif,73,0.0666666666666667,0.0666666666666667,0.766666666666667,1654.003827791,1654.787145833,13,1654.070769625,1654.136514291,1654.810071875,1655.570127125,0,0.783318042000019
140,11,8,categorization,0,kitchen,SHINEd_sun_aeqdocilnnpuvuhx.tif,83,0.0666666666666667,0.0666666666666667,1.45,1655.586905208,1657.236881041,9,1655.653774416,1655.719244375,1657.254802625,1658.698186666,1,1.6499758330001
140,12,8,categorization,0,kitchen,SHINEd_sun_aixorpehvfykdynp.tif,95,0.0666666666666667,0.0666666666666667,0.983333333333333,1658.708474958,1659.724427458,9,1658.775313625,1658.842493916,1659.74927925,1660.725950208,1,1.01595250000014
140,13,8,categorization,0,kitchen,SHINEd_sun_abftihopvusyfakt.tif,71,0.0666666666666667,0.0666666666666667,0.716666666666667,1660.731016666,1661.732784083,13,1660.792605791,1660.853695708,1661.73871525,1662.448720416,0,1.00176741700011
140,14,8,categorization,0,bathroom,SHINEd_sun_agrwbmhcpmfuwmsg.tif,24,0.0666666666666667,0.0666666666666667,1.41666666666667,1662.453696083,1663.60466375,13,1662.515349,1662.576334708,1663.611379625,1665.021425291,1,1.15096766700003
140,15,8,categorization,0,kitchen,SHINEd_sun_ajcbwwvdlsvjyzje.tif,96,0.0666666666666667,0.0666666666666667,1.21666666666667,1665.037100083,1666.233291791,9,1665.104049166,1665.169976,1666.260025708,1667.47008225,1,1.19619170800001
140,16,8,categorization,0,kitchen,SHINEd_sun_axyyrmzcupyhlivc.tif,107,0.0666666666666667,0.0666666666666667,1.61666666666667,1667.488282041,1668.686019333,9,1667.55507425,1667.621187833,1668.709876791,1670.319922708,1,1.19773729200006
140,17,8,categorization,0,bathroom,SHINEd_sun_acduarbnmmoglmiv.tif,16,0.0666666666666667,0.0666666666666667,0.783333333333333,1670.338816333,1671.941192583,9,1670.405890041,1670.471719333,1671.957280916,1672.733951916,0,1.60237624999991
140,18,8,categorization,0,kitchen,SHINEd_sun_aapllqyqlykszopd.tif,66,0.0666666666666667,0.0666666666666667,1.98333333333333,1672.738793,1673.428882375,13,1672.800518791,1672.861526375,1673.446567291,1675.423266291,0,0.690089375000071
140,19,8,categorization,0,bathroom,SHINEd_sun_aclfzgynxzxlbepz.tif,19,0.0666666666666667,0.0666666666666667,0.983333333333333,1675.44034825,1676.58229,9,1675.507180625,1675.573640208,1676.592678333,1677.569349,0,1.14194175000011
140,20,8,categorization,0,kitchen,SHINEd_sun_aegoxogugdkwpmpj.tif,80,0.0666666666666667,0.0666666666666667,0.8,1677.57395525,1678.43672,13,1677.635551416,1677.696936916,1678.448796416,1679.24213525,0,0.862764749999997
140,21,8,categorization,0,kitchen,SHINEd_sun_afuyedyxivkhecmu.tif,85,0.0666666666666667,0.0666666666666667,0.733333333333333,1679.247026416,1679.773334583,13,1679.308768291,1679.369674583,1679.788072333,1680.514744,0,0.526308167000025
140,22,8,categorization,0,bathroom,SHINEd_sun_apmqjbnwghzuhhzh.tif,46,0.0666666666666667,0.0666666666666667,0.966666666666667,1680.519670583,1681.021513375,13,1680.581432875,1680.642348166,1681.027479583,1681.987484166,1,0.501842791999934
140,23,8,categorization,0,kitchen,SHINEd_sun_aarfiyshqohlwkmo.tif,67,0.0666666666666667,0.0666666666666667,0.866666666666667,1681.992375333,1682.452792833,13,1682.05399475,1682.114957291,1682.466661666,1683.326667333,0,0.460417500000176
140,24,8,categorization,0,kitchen,SHINEd_sun_ahspylgoovwmwvgk.tif,93,0.0666666666666667,0.0666666666666667,1.23333333333333,1683.331685791,1683.90932525,13,1683.393400666,1683.454397666,1683.922758875,1685.149465583,0,0.577639459000011
140,25,8,categorization,0,kitchen,SHINEd_sun_abdenxonkemggwsq.tif,69,0.0666666666666667,0.0666666666666667,1.9,1685.16671525,1686.05332625,9,1685.233061291,1685.299783708,1686.072760875,1687.966128375,1,0.88661100000013
140,26,8,categorization,0,bathroom,SHINEd_sun_ahaulkltgpkeeemi.tif,26,0.0666666666666667,0.0666666666666667,0.866666666666667,1687.987340875,1688.561197166,13,1688.054076875,1688.120345791,1688.575154625,1689.435160416,1,0.573856291000084
140,27,8,categorization,0,kitchen,SHINEd_labelme_brsyyvweiuaazfr.tif,61,0.0666666666666667,0.0666666666666667,0.966666666666667,1689.440204708,1690.21328925,9,1689.501860041,1689.562812416,1690.231623416,1691.191628125,1,0.773084541999879
140,28,8,categorization,0,kitchen,SHINEd_sun_aggjlwcdjsjcaemh.tif,86,0.0666666666666667,0.0666666666666667,0.916666666666667,1691.196463833,1691.700453083,13,1691.258150791,1691.319235208,1691.704360833,1692.614366333,0,0.503989249999904
140,29,8,categorization,0,kitchen,SHINEd_sun_acxkpeoqbwcxfvip.tif,77,0.0666666666666667,0.0666666666666667,0.916666666666667,1692.619157458,1693.157153333,13,1692.680843833,1692.741800875,1693.159999041,1694.070002416,0,0.537995874999979
140,30,8,categorization,0,kitchen,SHINEd_sun_ajkqhtgcbgpcwrwn.tif,97,0.0666666666666667,0.0666666666666667,1.4,1694.074857458,1694.509319041,9,1694.136427916,1694.197399541,1694.515703916,1695.909072083,1,0.434461583000029
140,31,8,categorization,0,bathroom,SHINEd_sun_alotolagknyrgtsk.tif,35,0.0666666666666667,0.0666666666666667,1.75,1695.927544125,1696.399448041,13,1695.994164458,1696.060370666,1696.416013708,1698.159380666,1,0.471903915999974
140,32,8,categorization,0,kitchen,SHINEd_sun_agzzivivdpnawacl.tif,89,0.0666666666666667,0.0666666666666667,1.25,1698.177543958,1698.74696425,9,1698.244218375,1698.310464416,1698.767054458,1700.010436458,1,0.569420292000132
140,33,8,categorization,0,bathroom,SHINEd_sun_aqrpegblszgcoujh.tif,48,0.0666666666666667,0.0666666666666667,1.05,1700.028061,1701.246544041,13,1700.094830166,1700.160732666,1701.268735833,1702.312110583,1,1.21848304100013
140,34,8,categorization,0,bathroom,SHINEd_sun_akiytfaagpdsphgz.tif,31,0.0666666666666667,0.0666666666666667,1.06666666666667,1702.322627208,1703.113923083,13,1702.386974,1702.454298666,1703.144328208,1704.204376041,1,0.791295874999832
140,35,8,categorization,0,bathroom,SHINEd_sun_ahqjwnzgolcaoidx.tif,29,0.0666666666666667,0.0666666666666667,1.21666666666667,1704.219880916,1705.324885125,13,1704.286674875,1704.351277,1705.336328,1706.546378625,1,1.10500420900007
140,36,8,categorization,0,kitchen,SHINEd_sun_aaxxjlsuzvqlgylf.tif,68,0.0666666666666667,0.0666666666666667,0.95,1706.560451583,1707.158984291,9,1706.625341458,1706.691587708,1707.181390958,1708.124780833,1,0.598532707999993
140,37,8,categorization,0,kitchen,SHINEd_sun_agorklincwxrdtga.tif,87,0.0666666666666667,0.0666666666666667,0.9,1708.141092333,1708.781047375,13,1708.207596791,1708.273669916,1708.79222525,1709.685564125,0,0.639955042000111
140,38,8,categorization,0,bathroom,SHINEd_sun_acegryoqftbzowsg.tif,17,0.0666666666666667,0.0666666666666667,1.78333333333333,1709.690271416,1710.397440458,9,1709.7518885,1709.812954125,1710.414746166,1712.1914585,0,0.707169041999805
140,39,8,categorization,0,bathroom,SHINEd_sun_axxbkopsgyouuebh.tif,58,0.0666666666666667,0.0666666666666667,1.16666666666667,1712.208806583,1713.122400916,13,1712.275931416,1712.339512625,1713.146408708,1714.30646,1,0.913594332999992
140,40,8,categorization,0,bathroom,SHINEd_sun_atstyziqcmkahyxk.tif,51,0.0666666666666667,0.0666666666666667,0.783333333333333,1714.31618925,1715.433750708,13,1714.382549041,1714.448718541,1715.455520708,1716.232194458,1,1.11756145799995
140,41,8,categorization,0,bathroom,SHINEd_labelme_sfxiulhjbhlyiyt.tif,11,0.0666666666666667,0.0666666666666667,1.23333333333333,1716.237374791,1717.372819291,13,1716.299126291,1716.360064416,1717.378848333,1718.605566,1,1.13544449999995
140,42,8,categorization,0,bathroom,SHINEd_sun_aghyqhbptboemmoq.tif,23,0.0666666666666667,0.0666666666666667,0.9,1718.614541416,1719.653215916,13,1718.679365833,1718.7473165,1719.669559208,1720.56289825,1,1.03867449999984
140,43,8,categorization,0,kitchen,SHINEd_sun_abpwyqmlzafvklqo.tif,72,0.0666666666666667,0.0666666666666667,0.7,1720.568158041,1721.444772083,13,1720.629870166,1720.690891333,1721.459632916,1722.152969875,0,0.876614042000028
140,44,8,categorization,0,kitchen,SHINEd_sun_auaiucuqpdausiva.tif,102,0.0666666666666667,0.0666666666666667,1.23333333333333,1722.158013708,1723.156363666,13,1722.219684666,1722.280650333,1723.166259416,1724.392969041,0,0.998349958000063
140,45,8,categorization,0,bathroom,SHINEd_sun_agyqfjcfkdcydepw.tif,25,0.0666666666666667,0.0666666666666667,1,1724.409541875,1725.232824625,13,1724.477241791,1724.542454416,1725.248168041,1726.241550916,1,0.823282749999862
140,46,8,categorization,0,kitchen,SHINEd_sun_agubuxuukhzyzpdp.tif,88,0.0666666666666667,0.0666666666666667,1.38333333333333,1726.2577695,1727.364458375,9,1726.320339291,1726.380348916,1727.382105083,1728.758803208,1,1.10668887499992
140,47,8,categorization,0,kitchen,SHINEd_sun_acfmftudsenhrfhy.tif,74,0.0666666666666667,0.0666666666666667,1.3,1728.774907125,1729.810416166,13,1728.84159775,1728.909246583,1729.832804875,1731.126172208,0,1.03550904100007
140,48,8,categorization,0,bathroom,SHINEd_sun_ahcvzmoyaycdoftf.tif,27,0.0666666666666667,0.0666666666666667,0.833333333333333,1731.143362666,1731.935933625,9,1731.210378958,1731.276306166,1731.94820375,1732.774925625,0,0.792570958999931
140,49,8,categorization,0,bathroom,SHINEd_sun_ajlawzvmubibwbpy.tif,30,0.0666666666666667,0.0666666666666667,0.95,1732.791922083,1733.565394333,13,1732.858775041,1732.924940333,1733.57725525,1734.520593708,1,0.773472250000168
140,50,8,categorization,0,bathroom,SHINEd_sun_apkruvsevgegsdwp.tif,44,0.0666666666666667,0.0666666666666667,1.43333333333333,1734.525388375,1735.396312416,13,1734.587100875,1734.647989208,1735.399944,1736.82665,1,0.87092404100008
140,1,9,categorization,0,kitchen,SHINEd_sun_avszsnwsbuqfgzbn.tif,105,0.0666666666666667,0.0666666666666667,1.08333333333333,1749.636879541,1750.468504,9,1749.699678541,1749.759529625,1750.478000291,1751.55471475,1,0.83162445899984
140,2,9,categorization,0,kitchen,SHINEd_sun_acxkpeoqbwcxfvip.tif,77,0.0666666666666667,0.0666666666666667,0.8,1751.563868791,1752.638585875,9,1751.628452041,1751.694168708,1752.649049125,1753.442433875,1,1.07471708399999
140,3,9,categorization,0,kitchen,SHINEd_sun_awcpdzzznmweyyhv.tif,106,0.0666666666666667,0.0666666666666667,0.833333333333333,1753.459467166,1754.229075333,9,1753.522599791,1753.582408083,1754.234295541,1755.060967041,1,0.769608167000115
140,4,9,categorization,0,bathroom,SHINEd_sun_afcoljnjfoxjtgja.tif,20,0.0666666666666667,0.0666666666666667,1.45,1755.0657535,1755.836248166,9,1755.127502291,1755.188347041,1755.8401845,1757.2835585,0,0.770494665999877
140,5,9,categorization,0,bathroom,SHINEd_sun_akiytfaagpdsphgz.tif,31,0.0666666666666667,0.0666666666666667,1.3,1757.298924291,1757.965043166,13,1757.365723625,1757.431199583,1757.988614666,1759.282004166,1,0.666118874999938
140,6,9,categorization,0,kitchen,SHINEd_sun_ahdycvpopffkzzsu.tif,90,0.0666666666666667,0.0666666666666667,1.21666666666667,1759.300831583,1760.216079375,13,1759.368049625,1759.434077833,1760.241558625,1761.451606541,0,0.915247791999946
140,7,9,categorization,0,kitchen,SHINEd_sun_axyyrmzcupyhlivc.tif,107,0.0666666666666667,0.0666666666666667,0.733333333333333,1761.469974333,1762.304877,13,1761.537119708,1761.603296875,1762.3272975,1763.054012,0,0.834902667000051
140,8,9,categorization,0,kitchen,SHINEd_sun_azmutvzbxypaceni.tif,110,0.0666666666666667,0.0666666666666667,1.03333333333333,1763.070789625,1763.796551166,13,1763.139267083,1763.20398325,1763.806255458,1764.83295425,0,0.725761540999883
140,9,9,categorization,0,bathroom,SHINEd_sun_aoybiabnpadelefl.tif,41,0.0666666666666667,0.0666666666666667,1.1,1764.842293625,1765.573225291,9,1764.906344708,1764.973650125,1765.5973185,1766.690683833,0,0.73093166600006
140,10,9,categorization,0,bathroom,SHINEd_sun_axxbkopsgyouuebh.tif,58,0.0666666666666667,0.0666666666666667,1.25,1766.707488583,1767.356495125,13,1766.774333041,1766.84034775,1767.375853583,1768.619234291,1,0.649006542000052
140,11,9,categorization,0,kitchen,SHINEd_sun_abdenxonkemggwsq.tif,69,0.0666666666666667,0.0666666666666667,1.4,1768.629857541,1769.321633083,9,1768.695361291,1768.762617041,1769.334834875,1770.728215041,1,0.691775541999959
140,12,9,categorization,0,bathroom,SHINEd_sun_apmqjbnwghzuhhzh.tif,46,0.0666666666666667,0.0666666666666667,1.43333333333333,1770.746617958,1771.240299875,13,1770.813261375,1770.879730083,1771.269681916,1772.696399541,1,0.493681917000004
140,13,9,categorization,0,bathroom,SHINEd_sun_awnqiikzaispgmwo.tif,56,0.0666666666666667,0.0666666666666667,1.26666666666667,1772.708187375,1773.938018666,9,1772.775237416,1772.840994583,1773.96397425,1775.224026375,0,1.22983129099998
140,14,9,categorization,0,kitchen,SHINEd_sun_aenotlpyftoioydp.tif,82,0.0666666666666667,0.0666666666666667,0.916666666666667,1775.241362291,1776.017536791,13,1775.308474625,1775.374247458,1776.047550208,1776.957587583,0,0.776174500000025
140,15,9,categorization,0,bathroom,SHINEd_sun_apynckhmoftszqoq.tif,47,0.0666666666666667,0.0666666666666667,1.05,1776.974079166,1777.701174041,13,1777.041287375,1777.098246333,1777.716769166,1778.760149833,1,0.727094875000148
140,16,9,categorization,0,kitchen,SHINEd_sun_aaxxjlsuzvqlgylf.tif,68,0.0666666666666667,0.0666666666666667,1.53333333333333,1778.769010333,1779.73465775,13,1778.833572625,1778.900235166,1779.758603833,1781.285305791,0,0.9656474169999
140,17,9,categorization,0,kitchen,SHINEd_sun_acgtpgfybqjmzeyw.tif,75,0.0666666666666667,0.0666666666666667,1.11666666666667,1781.303966791,1782.353995416,13,1781.370605041,1781.436552916,1782.376816666,1783.486868041,0,1.0500286250001
140,18,9,categorization,0,kitchen,SHINEd_sun_ahpczsiumwwocjkv.tif,92,0.0666666666666667,0.0666666666666667,1.05,1783.496703375,1784.263974166,9,1783.561634916,1783.630346958,1784.286116916,1785.329498041,1,0.767270791000101
140,19,9,categorization,0,kitchen,SHINEd_sun_ahljzhgcdpomplvg.tif,91,0.0666666666666667,0.0666666666666667,1.66666666666667,1785.34760425,1786.316539958,9,1785.414403458,1785.478955916,1786.330815041,1787.990873208,1,0.968935708000117
140,20,9,categorization,0,bathroom,SHINEd_sun_abapwbhyhkfixyex.tif,14,0.0666666666666667,0.0666666666666667,1.98333333333333,1788.008809916,1789.39123275,9,1788.07559875,1788.142005041,1789.412940541,1791.389658208,0,1.38242283399995
140,21,9,categorization,0,kitchen,SHINEd_sun_aixorpehvfykdynp.tif,95,0.0666666666666667,0.0666666666666667,1.06666666666667,1791.407817791,1792.288140125,9,1791.474633625,1791.540636958,1792.314187416,1793.374224833,1,0.880322333999857
140,22,9,categorization,0,bathroom,SHINEd_sun_apjevzvycyhuqghb.tif,43,0.0666666666666667,0.0666666666666667,1.31666666666667,1793.383068583,1798.632835041,9,1793.448433208,1793.513032125,1798.649009416,1799.959042458,0,5.24976645799984
140,23,9,categorization,0,bathroom,SHINEd_sun_aapitsgbtktqubfy.tif,12,0.0666666666666667,0.0666666666666667,1.78333333333333,1799.978141,1800.789030583,13,1800.044843625,1800.11111725,1800.817799333,1802.594482083,1,0.810889583000062
140,24,9,categorization,0,bathroom,SHINEd_sun_ajlawzvmubibwbpy.tif,30,0.0666666666666667,0.0666666666666667,0.816666666666667,1802.604473916,1803.607563916,9,1802.66913425,1802.737194125,1803.626398333,1804.436404041,0,1.00308999999993
140,25,9,categorization,0,bathroom,SHINEd_sun_aofnryafpsjimzsb.tif,40,0.0666666666666667,0.0666666666666667,0.933333333333333,1804.441264166,1805.700826916,9,1804.5029015,1804.564050708,1805.71643575,1806.643108291,0,1.25956274999999
