sub_num,trial,block,task,is_practice,category,image,texture,duration,mask_dur,jitter,stim_time,time_of_resp,trial_response,mask_time,fix_time,jit_onset,trial_end,trial_accuracy,RT
113,6,0,usability,1,kitchen,kitchen_practice2.tif,227,1.5,0,1.13333333333333,3209.368620166,3214.074789625,5,NaN,3214.080825,3214.099106083,3215.225874791,NaN,NaN
113,7,0,usability,1,kitchen,kitchen_practice3.tif,228,1.5,0,0.933333333333333,3215.237743666,3218.179482291,6,NaN,3218.18477175,3218.20334575,3219.130019833,NaN,NaN
113,8,0,usability,1,kitchen,kitchen_practice1.tif,226,1.5,0,1.48333333333333,3219.134569416,3221.95992125,6,NaN,3221.989918583,3222.013395541,3223.490162166,NaN,NaN
113,9,0,usability,1,kitchen,kitchen_practice4.tif,229,1.5,0,1.33333333333333,3223.505235166,3226.515045666,4,NaN,3226.520619875,3226.538900208,3227.865646041,NaN,NaN
113,10,0,usability,1,kitchen,kitchen_practice5.tif,230,1.5,0,1.3,3227.879377208,3231.074815791,5,NaN,3231.080481666,3231.098693,3232.392081875,NaN,NaN
113,1,1,usability,0,kitchen,sun_amjjdeyrggfqgmom.tif,210,1.5,0,1.91666666666667,3236.979914,3243.010756416,6,NaN,3243.016310916,3243.034653833,3244.944750875,NaN,NaN
113,2,1,usability,0,kitchen,sun_aymvwlarqodbwuoc.tif,218,1.5,0,0.85,3244.964449083,3248.355395041,7,NaN,3248.361115666,3248.379538833,3249.222879083,NaN,NaN
113,3,1,usability,0,kitchen,labelme_rykdqxenmhulbdn.tif,173,1.5,0,0.7,3249.2298145,3252.450694208,4,NaN,3252.456424916,3252.474800375,3253.168140625,NaN,NaN
113,4,1,usability,0,kitchen,sun_adgqasybjyktddhj.tif,188,1.5,0,1.6,3253.172308708,3256.122999458,7,NaN,3256.152423791,3256.176501375,3257.769896583,NaN,NaN
113,5,1,usability,0,kitchen,sun_aehawpgmrlhlvcow.tif,191,1.5,0,1.13333333333333,3257.78641625,3261.594801833,7,NaN,3261.600459625,3261.61885075,3262.745609083,NaN,NaN
113,6,1,usability,0,kitchen,sun_aadbddgrdsjugojn.tif,174,1.5,0,0.716666666666667,3262.754705666,3267.051351041,7,NaN,3267.056887375,3267.075207583,3267.785216666,NaN,NaN
113,7,1,usability,0,kitchen,sun_acwjdupvyjsugpay.tif,186,1.5,0,1.6,3267.789643166,3270.978865166,7,NaN,3270.985547375,3271.003862958,3272.597287666,NaN,NaN
113,8,1,usability,0,kitchen,sun_aixorpehvfykdynp.tif,205,1.5,0,1.68333333333333,3272.616715291,3275.971252875,6,NaN,3275.976715708,3275.995153666,3277.671908416,NaN,NaN
113,9,1,usability,0,kitchen,sun_auaiucuqpdausiva.tif,212,1.5,0,1.41666666666667,3277.688002791,3282.434730458,3,NaN,3282.440277833,3282.458591791,3283.868659041,NaN,NaN
113,10,1,usability,0,kitchen,sun_aamedkxepzlwuxes.tif,175,1.5,0,1,3283.886208708,3287.938895166,3,NaN,3287.944489583,3287.963453291,3288.956795875,NaN,NaN
113,11,1,usability,0,kitchen,sun_ahpczsiumwwocjkv.tif,202,1.5,0,1.33333333333333,3288.961184416,3293.28332725,5,NaN,3293.288823583,3293.307118833,3294.6338385,NaN,NaN
113,12,1,usability,0,kitchen,sun_aenotlpyftoioydp.tif,192,1.5,0,1.15,3294.651553,3301.131321916,3,NaN,3301.1367265,3301.155083291,3302.29847725,NaN,NaN
113,13,1,usability,0,kitchen,sun_aexklacwqwezaorf.tif,194,1.5,0,1.86666666666667,3302.308616208,3306.6830305,5,NaN,3306.688479708,3306.706992958,3308.567084666,NaN,NaN
113,14,1,usability,0,kitchen,sun_aapllqyqlykszopd.tif,176,1.5,0,1.18333333333333,3308.586636708,3312.651014958,5,NaN,3312.656385833,3312.674775458,3313.851508625,NaN,NaN
113,15,1,usability,0,kitchen,sun_ahywdevtimnqcsln.tif,204,1.5,0,1.71666666666667,3313.861502458,3317.354397666,4,NaN,3317.360117291,3317.378610708,3319.08870575,NaN,NaN
113,16,1,usability,0,kitchen,sun_aggjlwcdjsjcaemh.tif,196,1.5,0,1.1,3319.108204125,3322.122969958,5,NaN,3322.152237916,3322.175426833,3323.268858583,NaN,NaN
113,17,1,usability,0,kitchen,sun_acxkpeoqbwcxfvip.tif,187,1.5,0,0.983333333333333,3323.277707083,3326.202650458,5,NaN,3326.208276166,3326.2265605,3327.20323525,NaN,NaN
113,18,1,usability,0,kitchen,sun_aeqdocilnnpuvuhx.tif,193,1.5,0,0.916666666666667,3327.207845041,3331.682852041,4,NaN,3331.68835925,3331.706742041,3332.616750125,NaN,NaN
113,19,1,usability,0,kitchen,sun_akcjzhbbjlbogpdi.tif,209,1.5,0,0.716666666666667,3332.621191708,3335.898637791,5,NaN,3335.904130708,3335.922528333,3336.632535916,NaN,NaN
113,20,1,usability,0,kitchen,sun_ajcbwwvdlsvjyzje.tif,206,1.5,0,0.883333333333333,3336.637052416,3340.882130583,4,NaN,3340.8877865,3340.906174125,3341.78285125,NaN,NaN
113,21,1,usability,0,kitchen,sun_azmutvzbxypaceni.tif,220,1.5,0,1.93333333333333,3341.787290666,3345.0664795,5,NaN,3345.072471708,3345.090768083,3347.017524416,NaN,NaN
113,22,1,usability,0,kitchen,sun_awcpdzzznmweyyhv.tif,216,1.5,0,0.9,3347.035612958,3349.723461583,6,NaN,3349.751675125,3349.775263541,3350.668607458,NaN,NaN
113,23,1,usability,0,kitchen,sun_aunzlwrbjumxhwdj.tif,213,1.5,0,1.13333333333333,3350.673289458,3353.626396541,1,NaN,3353.653728166,3353.677142666,3354.803864166,NaN,NaN
113,24,1,usability,0,kitchen,labelme_kxvouciolcpqplr.tif,172,1.5,0,0.766666666666667,3354.815170208,3358.010773333,2,NaN,3358.016227708,3358.0345165,3358.794524833,NaN,NaN
113,25,1,usability,0,kitchen,sun_agubuxuukhzyzpdp.tif,198,1.5,0,0.966666666666667,3358.79883375,3361.882882208,4,NaN,3361.890564291,3361.909325,3362.869331625,NaN,NaN
113,1,2,usability,0,kitchen,sun_ajkqhtgcbgpcwrwn.tif,207,1.5,0,1.56666666666667,3366.734542083,3369.954620416,3,NaN,3369.960935958,3369.979823708,3371.539898,NaN,NaN
113,2,2,usability,0,kitchen,sun_avszsnwsbuqfgzbn.tif,215,1.5,0,1.2,3371.550086625,3375.026405416,5,NaN,3375.0320215,3375.050343041,3376.243737333,NaN,NaN
113,3,2,usability,0,kitchen,sun_admlmbcdswaszruo.tif,189,1.5,0,1.73333333333333,3376.256584,3380.353999833,3,NaN,3380.359766666,3380.378033458,3382.104776708,NaN,NaN
113,4,2,usability,0,kitchen,sun_abdxkyyxwfskuaqb.tif,180,1.5,0,1.61666666666667,3382.121184916,3387.074683458,5,NaN,3387.080085041,3387.098274375,3388.708356916,NaN,NaN
113,5,2,usability,0,kitchen,sun_aypmqwcualkenuoe.tif,219,1.5,0,1.38333333333333,3388.727133125,3391.9821325,3,NaN,3392.011378458,3392.034623833,3393.411373041,NaN,NaN
113,6,2,usability,0,kitchen,sun_agzzivivdpnawacl.tif,199,1.5,0,1.73333333333333,3393.433321541,3397.498059041,4,NaN,3397.504190916,3397.522539458,3399.24928425,NaN,NaN
113,7,2,usability,0,kitchen,sun_aaxxjlsuzvqlgylf.tif,178,1.5,0,1.96666666666667,3399.266727666,3402.245674041,5,NaN,3402.275754833,3402.29982575,3404.259909708,NaN,NaN
113,8,2,usability,0,kitchen,sun_abftihopvusyfakt.tif,181,1.5,0,0.883333333333333,3404.278479291,3406.92554825,7,NaN,3406.953746083,3406.97743175,3407.854109875,NaN,NaN
113,9,2,usability,0,kitchen,sun_agorklincwxrdtga.tif,197,1.5,0,1.06666666666667,3407.86237775,3411.626151166,7,NaN,3411.631848208,3411.650257083,3412.710330458,NaN,NaN
113,10,2,usability,0,kitchen,labelme_brsyyvweiuaazfr.tif,171,1.5,0,1.06666666666667,3412.718593541,3416.346499541,6,NaN,3416.351838958,3416.370207291,3417.430291458,NaN,NaN
113,11,2,usability,0,kitchen,sun_afuyedyxivkhecmu.tif,195,1.5,0,0.966666666666667,3417.438281958,3420.394161583,2,NaN,3420.39966975,3420.417911375,3421.377919333,NaN,NaN
113,12,2,usability,0,kitchen,sun_aegoxogugdkwpmpj.tif,190,1.5,0,1.78333333333333,3421.382337541,3424.48457575,6,NaN,3424.499352291,3424.519696791,3426.296452416,NaN,NaN
113,13,2,usability,0,kitchen,sun_axyyrmzcupyhlivc.tif,217,1.5,0,1.68333333333333,3426.315824708,3429.731353416,4,NaN,3429.761646625,3429.782263291,3431.459027541,NaN,NaN
113,14,2,usability,0,kitchen,sun_abpwyqmlzafvklqo.tif,182,1.5,0,0.983333333333333,3431.47858975,3434.978524125,5,NaN,3434.98636575,3435.005361375,3435.982038583,NaN,NaN
113,15,2,usability,0,kitchen,sun_abdenxonkemggwsq.tif,179,1.5,0,1.33333333333333,3435.986675916,3438.594798916,4,NaN,3438.622543041,3438.6461665,3439.972904,NaN,NaN
113,16,2,usability,0,kitchen,sun_acgtpgfybqjmzeyw.tif,185,1.5,0,1.56666666666667,3439.991902541,3442.762380291,5,NaN,3442.767727708,3442.786001208,3444.346050333,NaN,NaN
113,17,2,usability,0,kitchen,sun_ahspylgoovwmwvgk.tif,203,1.5,0,1.66666666666667,3444.35676325,3446.954361458,7,NaN,3446.95976525,3446.978071833,3448.638159333,NaN,NaN
113,18,2,usability,0,kitchen,sun_auticobqsbwgoppi.tif,214,1.5,0,1.86666666666667,3448.658207375,3451.484946666,2,NaN,3451.509426958,3451.531241791,3453.391314458,NaN,NaN
113,19,2,usability,0,kitchen,sun_aqeaevwwwjoqhzvl.tif,211,1.5,0,1.95,3453.411438541,3458.113608416,5,NaN,3458.119413708,3458.137805166,3460.081231583,NaN,NaN
113,20,2,usability,0,kitchen,sun_acfmftudsenhrfhy.tif,184,1.5,0,0.966666666666667,3460.097640083,3463.135577958,5,NaN,3463.165125833,3463.188797791,3464.148806291,NaN,NaN
113,21,2,usability,0,kitchen,sun_abrcnpqqhmjwekyf.tif,183,1.5,0,1.43333333333333,3464.153641875,3467.236543916,6,NaN,3467.248411666,3467.267703166,3468.694464833,NaN,NaN
113,22,2,usability,0,kitchen,sun_ahdycvpopffkzzsu.tif,200,1.5,0,0.85,3468.716371708,3472.625803708,5,NaN,3472.631627416,3472.649920625,3473.493261666,NaN,NaN
113,23,2,usability,0,kitchen,sun_ahljzhgcdpomplvg.tif,201,1.5,0,1.53333333333333,3473.497615791,3476.914426208,6,NaN,3476.919815875,3476.938354166,3478.46511825,NaN,NaN
113,24,2,usability,0,kitchen,sun_akchetnepxlcxhsu.tif,208,1.5,0,1.18333333333333,3478.480985041,3481.514359458,7,NaN,3481.520184166,3481.538561208,3482.715319458,NaN,NaN
113,25,2,usability,0,kitchen,sun_aarfiyshqohlwkmo.tif,177,1.5,0,1.86666666666667,3482.724717583,3486.50630275,2,NaN,3486.511847333,3486.530571208,3488.390627375,NaN,NaN
