sub_num,trial,block,task,is_practice,category,image,texture,duration,mask_dur,jitter,stim_time,time_of_resp,trial_response,mask_time,fix_time,jit_onset,trial_end,trial_accuracy,RT
119,1,0,familiarity,1,bathroom,bathroom_practice1.tif,221,1.5,0,0.916666666666667,7665.26207775,7669.5689905,7,NaN,7669.575654125,7669.594474208,7670.504480583,NaN,NaN
119,2,0,familiarity,1,bathroom,bathroom_practice2.tif,222,1.5,0,0.85,7670.509155958,7673.55085925,1,NaN,7673.572408875,7673.592514417,7674.435851958,NaN,NaN
119,3,0,familiarity,1,bathroom,bathroom_practice3.tif,223,1.5,0,0.883333333333333,7674.440687708,7679.833918958,7,NaN,7679.839744125,7679.858733167,7680.735407417,NaN,NaN
119,4,0,familiarity,1,bathroom,bathroom_practice5.tif,225,1.5,0,1.43333333333333,7680.740983667,7686.304864625,6,NaN,7686.311370292,7686.330057208,7687.756758417,NaN,NaN
119,5,0,familiarity,1,bathroom,bathroom_practice4.tif,224,1.5,0,1.53333333333333,7687.771084417,7692.401344417,1,NaN,7692.407689417,7692.427257708,7693.953977375,NaN,NaN
119,1,1,familiarity,0,bathroom,sun_ahcvzmoyaycdoftf.tif,137,1.5,0,1.26666666666667,7700.361685542,7704.3374525,5,NaN,7704.343383875,7704.361885833,7705.621925417,NaN,NaN
119,2,1,familiarity,0,bathroom,sun_aggnnqpdorgxpvce.tif,131,1.5,0,1.76666666666667,7705.636364542,7710.577493792,1,NaN,7710.58352525,7710.601979208,7712.362021333,NaN,NaN
119,3,1,familiarity,0,bathroom,sun_aclfzgynxzxlbepz.tif,129,1.5,0,1.46666666666667,7712.377934667,7717.745058042,6,NaN,7717.751704583,7717.770589333,7719.230623958,NaN,NaN
119,4,1,familiarity,0,bathroom,sun_apmqjbnwghzuhhzh.tif,156,1.5,0,1.28333333333333,7719.241194917,7725.913539875,6,NaN,7725.919558042,7725.938333458,7727.215039583,NaN,NaN
119,5,1,familiarity,0,bathroom,sun_acegryoqftbzowsg.tif,127,1.5,0,0.966666666666667,7727.233709125,7730.832720542,2,NaN,7730.838937125,7730.857795042,7731.817800167,NaN,NaN
119,6,1,familiarity,0,bathroom,sun_alkosphxlxwjwgjd.tif,144,1.5,0,0.783333333333333,7731.822451667,7735.441625208,3,NaN,7735.447361833,7735.465839167,7736.24251025,NaN,NaN
119,7,1,familiarity,0,bathroom,sun_acgyywnybuveqsro.tif,128,1.5,0,1.21666666666667,7736.247112792,7741.39310125,5,NaN,7741.399004917,7741.417604125,7742.627651542,NaN,NaN
119,8,1,familiarity,0,bathroom,sun_anhioqovhscjqqwb.tif,148,1.5,0,1.4,7742.647516125,7746.168647208,6,NaN,7746.17531725,7746.193747792,7747.587128917,NaN,NaN
119,9,1,familiarity,0,bathroom,sun_aspsyogrekjtfozg.tif,160,1.5,0,1.3,7747.606861208,7751.912972625,1,NaN,7751.919513208,7751.938073667,7753.231453917,NaN,NaN
119,10,1,familiarity,0,bathroom,sun_ahqjwnzgolcaoidx.tif,139,1.5,0,0.95,7753.24562825,7757.808834,5,NaN,7757.815572375,7757.834259333,7758.777599042,NaN,NaN
119,11,1,familiarity,0,bathroom,sun_ausgutylgojavyoq.tif,163,1.5,0,1.96666666666667,7758.782824208,7762.593330792,1,NaN,7762.599080625,7762.617662375,7764.577701208,NaN,NaN
119,12,1,familiarity,0,bathroom,sun_axyrejkiiaqiurjk.tif,169,1.5,0,1.13333333333333,7764.593802167,7767.800293,2,NaN,7767.829970167,7767.850306,7768.977014333,NaN,NaN
119,13,1,familiarity,0,bathroom,sun_agrwbmhcpmfuwmsg.tif,134,1.5,0,0.933333333333333,7768.988863708,7771.800569125,1,NaN,7771.80667025,7771.825402167,7772.752075708,NaN,NaN
119,14,1,familiarity,0,bathroom,sun_axxbkopsgyouuebh.tif,168,1.5,0,1.6,7772.756874583,7776.152616042,7,NaN,7776.158901375,7776.177335542,7777.770726667,NaN,NaN
119,15,1,familiarity,0,bathroom,sun_akiytfaagpdsphgz.tif,141,1.5,0,1.38333333333333,7777.785010542,7781.041617167,5,NaN,7781.04721525,7781.065767167,7782.442475167,NaN,NaN
119,16,1,familiarity,0,bathroom,sun_aavhrsfjbserjtht.tif,123,1.5,0,1.58333333333333,7782.456125167,7786.36880475,4,NaN,7786.375564958,7786.39395525,7787.970664333,NaN,NaN
119,17,1,familiarity,0,bathroom,sun_auzqhkafidnkrwmo.tif,164,1.5,0,0.966666666666667,7787.990640042,7790.762028333,3,NaN,7790.791463375,7790.815532,7791.775539708,NaN,NaN
119,18,1,familiarity,0,bathroom,sun_amzlamotzwfkwjco.tif,147,1.5,0,0.983333333333333,7791.781308,7794.848514833,7,NaN,7794.859329625,7794.877973208,7795.854644375,NaN,NaN
119,19,1,familiarity,0,bathroom,sun_asfwthctfqerjvxr.tif,159,1.5,0,0.8,7795.859635458,7800.384987042,6,NaN,7800.390866167,7800.409212167,7801.202551792,NaN,NaN
119,20,1,familiarity,0,bathroom,sun_apkxzenqapsujocq.tif,155,1.5,0,0.7,7801.208625667,7804.969233792,7,NaN,7804.974869625,7804.993368125,7805.686705333,NaN,NaN
119,21,1,familiarity,0,bathroom,sun_anryaplzeujmzfkd.tif,149,1.5,0,0.716666666666667,7805.692400125,7809.4808005,4,NaN,7809.486723625,7809.505276583,7810.215282125,NaN,NaN
119,22,1,familiarity,0,bathroom,sun_atstyziqcmkahyxk.tif,161,1.5,0,1.76666666666667,7810.2234,7812.602017833,7,NaN,7812.629880542,7812.65274,7814.412798917,NaN,NaN
119,23,1,familiarity,0,bathroom,sun_ajlawzvmubibwbpy.tif,140,1.5,0,1.7,7814.427594083,7818.008701,3,NaN,7818.014760042,7818.033362458,7819.726737417,NaN,NaN
119,24,1,familiarity,0,bathroom,sun_aljolscmmzydegqp.tif,143,1.5,0,1.38333333333333,7819.743818375,7822.840067333,1,NaN,7822.87034025,7822.893298708,7824.270004292,NaN,NaN
119,25,1,familiarity,0,bathroom,sun_afcoljnjfoxjtgja.tif,130,1.5,0,0.766666666666667,7824.289627417,7828.568792083,3,NaN,7828.575538875,7828.594061875,7829.354066042,NaN,NaN
119,1,2,familiarity,0,bathroom,sun_azqyogdvyhahyram.tif,170,1.5,0,0.85,7834.909140208,7837.570315083,7,NaN,7837.598679042,7837.621469583,7838.46480875,NaN,NaN
119,2,2,familiarity,0,bathroom,sun_agguqiubmwhqqunb.tif,132,1.5,0,1.53333333333333,7838.469809458,7840.999892917,2,NaN,7841.029031792,7841.05194425,7842.578664208,NaN,NaN
119,3,2,familiarity,0,bathroom,sun_avhrdrntsqrjzccq.tif,165,1.5,0,0.7,7842.599118375,7845.217160042,1,NaN,7845.222795,7845.241620167,7845.934959125,NaN,NaN
119,4,2,familiarity,0,bathroom,sun_aunuadmjocsddsrl.tif,162,1.5,0,1.36666666666667,7845.941641542,7849.00613225,6,NaN,7849.034760458,7849.055920208,7850.415974625,NaN,NaN
119,5,2,familiarity,0,bathroom,sun_abapwbhyhkfixyex.tif,124,1.5,0,0.716666666666667,7850.432386333,7854.136951542,3,NaN,7854.142692958,7854.161144792,7854.871149917,NaN,NaN
119,6,2,familiarity,0,bathroom,sun_alotolagknyrgtsk.tif,145,1.5,0,1.38333333333333,7854.876010208,7857.978007958,2,NaN,7857.987483375,7858.006371542,7859.383091542,NaN,NaN
119,7,2,familiarity,0,bathroom,labelme_sfxiulhjbhlyiyt.tif,121,1.5,0,0.916666666666667,7859.398256375,7864.185335833,7,NaN,7864.19115225,7864.210021583,7865.1200285,NaN,NaN
119,8,2,familiarity,0,bathroom,sun_aqrpegblszgcoujh.tif,158,1.5,0,1.58333333333333,7865.125280875,7870.097211042,5,NaN,7870.103743833,7870.122284542,7871.699005083,NaN,NaN
119,9,2,familiarity,0,bathroom,sun_ahijqszoswveeyji.tif,138,1.5,0,1.25,7871.719202542,7877.176231167,3,NaN,7877.182587458,7877.201172583,7878.444568875,NaN,NaN
119,10,2,familiarity,0,bathroom,sun_axldvoqbuvuggfmq.tif,167,1.5,0,0.95,7878.460219792,7881.689187417,6,NaN,7881.695108417,7881.713702167,7882.65704175,NaN,NaN
119,11,2,familiarity,0,bathroom,sun_ahaulkltgpkeeemi.tif,136,1.5,0,1.4,7882.662048125,7887.568465083,5,NaN,7887.574616042,7887.593032042,7888.986411375,NaN,NaN
119,12,2,familiarity,0,bathroom,sun_aghyqhbptboemmoq.tif,133,1.5,0,0.766666666666667,7889.01299925,7891.80890325,7,NaN,7891.814871458,7891.833366667,7892.593372542,NaN,NaN
119,13,2,familiarity,0,bathroom,sun_apynckhmoftszqoq.tif,157,1.5,0,0.733333333333333,7892.598135917,7895.53415125,6,NaN,7895.564389458,7895.587392917,7896.314064833,NaN,NaN
119,14,2,familiarity,0,bathroom,sun_apeeialkgkuxddgh.tif,152,1.5,0,1.06666666666667,7896.319058958,7899.200780958,7,NaN,7899.229569208,7899.253456708,7900.313500542,NaN,NaN
119,15,2,familiarity,0,bathroom,sun_agyqfjcfkdcydepw.tif,135,1.5,0,1.33333333333333,7900.32226225,7903.02494175,1,NaN,7903.03053825,7903.049069958,7904.375773583,NaN,NaN
119,16,2,familiarity,0,bathroom,sun_aleqenyvunhactkl.tif,142,1.5,0,1.41666666666667,7904.396131708,7908.272767833,4,NaN,7908.278403125,7908.296953,7909.707007625,NaN,NaN
119,17,2,familiarity,0,bathroom,sun_aapitsgbtktqubfy.tif,122,1.5,0,1.95,7909.727418417,7913.088154125,6,NaN,7913.094470458,7913.112961875,7915.05634925,NaN,NaN
119,18,2,familiarity,0,bathroom,sun_ambriybtogmepttm.tif,146,1.5,0,0.866666666666667,7915.072342,7919.001067208,3,NaN,7919.006704583,7919.025110167,7919.885115708,NaN,NaN
119,19,2,familiarity,0,bathroom,sun_apkruvsevgegsdwp.tif,154,1.5,0,0.983333333333333,7919.891433458,7924.432511125,5,NaN,7924.4381845,7924.456860375,7925.4335355,NaN,NaN
119,20,2,familiarity,0,bathroom,sun_awnqiikzaispgmwo.tif,166,1.5,0,0.983333333333333,7925.438904333,7929.120152083,6,NaN,7929.1261245,7929.144738667,7930.121410542,NaN,NaN
119,21,2,familiarity,0,bathroom,sun_abjtwfukuwddzted.tif,125,1.5,0,0.766666666666667,7930.126326792,7933.368935875,4,NaN,7933.374581458,7933.393058875,7934.153064417,NaN,NaN
119,22,2,familiarity,0,bathroom,sun_acduarbnmmoglmiv.tif,126,1.5,0,0.833333333333333,7934.158170583,7939.040628958,4,NaN,7939.04626425,7939.064898458,7939.891569875,NaN,NaN
119,23,2,familiarity,0,bathroom,sun_apjevzvycyhuqghb.tif,153,1.5,0,0.833333333333333,7939.896505042,7943.672211083,2,NaN,7943.678245125,7943.696678708,7944.523352,NaN,NaN
119,24,2,familiarity,0,bathroom,sun_aofnryafpsjimzsb.tif,150,1.5,0,0.716666666666667,7944.527819917,7947.548695667,4,NaN,7947.571635292,7947.594323583,7948.304328625,NaN,NaN
119,25,2,familiarity,0,bathroom,sun_aoybiabnpadelefl.tif,151,1.5,0,1.71666666666667,7948.309072875,7951.276234208,1,NaN,7951.305408417,7951.328732458,7953.038773208,NaN,NaN
