sub_num,trial,block,task,is_practice,category,image,texture,duration,mask_dur,jitter,stim_time,time_of_resp,trial_response,mask_time,fix_time,jit_onset,trial_end,trial_accuracy,RT
106,1,13,categorization,0,bathroom,SHINEd_sun_aapitsgbtktqubfy.tif,12,0.0666666666666667,0.0666666666666667,0.933333333333333,30953.695053083,30954.508837167,13,30953.757668083,30953.81773575,30954.5197795,30955.446451,1,0.813784083999053
106,2,13,categorization,0,kitchen,SHINEd_sun_aqeaevwwwjoqhzvl.tif,101,0.0666666666666667,0.0666666666666667,1.36666666666667,30955.452260917,30956.460321542,13,30955.513909458,30955.575049125,30956.477042667,30957.837098,0,1.0080606249976
106,3,13,categorization,0,bathroom,SHINEd_sun_acgyywnybuveqsro.tif,18,0.0666666666666667,0.0666666666666667,1.88333333333333,30957.85438225,30958.654902833,13,30957.922733,30957.986761125,30958.675647333,30960.552355708,1,0.800520583001344
106,4,13,categorization,0,kitchen,SHINEd_sun_aymvwlarqodbwuoc.tif,108,0.0666666666666667,0.0666666666666667,1.35,30960.571803958,30961.381185458,13,30960.638683042,30960.704143208,30961.410802708,30962.7541995,0,0.809381500002928
106,5,13,categorization,0,bathroom,SHINEd_sun_aofnryafpsjimzsb.tif,40,0.0666666666666667,0.0666666666666667,1.3,30962.774019208,30964.207717583,13,30962.841952167,30962.906563125,30964.231962417,30965.52534875,1,1.43369837500359
106,6,13,categorization,0,kitchen,SHINEd_sun_admlmbcdswaszruo.tif,79,0.0666666666666667,0.0666666666666667,1.93333333333333,30965.544025708,30966.220736958,9,30965.610790542,30965.677340708,30966.233111167,30968.159814292,1,0.676711249998334
106,7,13,categorization,0,bathroom,SHINEd_sun_aljolscmmzydegqp.tif,33,0.0666666666666667,0.0666666666666667,0.95,30968.172027292,30969.337960542,13,30968.2389665,30968.305295333,30969.361364875,30970.304703333,1,1.16593325000213
106,8,13,categorization,0,bathroom,SHINEd_sun_ambriybtogmepttm.tif,36,0.0666666666666667,0.0666666666666667,1.56666666666667,30970.309602375,30971.108821917,9,30970.371389583,30970.432174,30971.117542333,30972.677578042,0,0.799219542001083
106,9,13,categorization,0,bathroom,SHINEd_sun_apmqjbnwghzuhhzh.tif,46,0.0666666666666667,0.0666666666666667,1.3,30972.696026167,30973.513271208,13,30972.762849542,30972.828775167,30973.535984917,30974.829367667,1,0.817245041002025
106,10,13,categorization,0,kitchen,SHINEd_sun_aehawpgmrlhlvcow.tif,81,0.0666666666666667,0.0666666666666667,1.3,30974.847980875,30976.129067292,13,30974.915325917,30974.981458292,30976.154147417,30977.447529333,0,1.28108641699873
106,11,13,categorization,0,bathroom,SHINEd_sun_aspsyogrekjtfozg.tif,50,0.0666666666666667,0.0666666666666667,1.03333333333333,30977.464408167,30978.242180375,13,30977.531844,30977.59721225,30978.27071625,30979.297421667,1,0.777772207999078
106,12,13,categorization,0,kitchen,SHINEd_sun_aadbddgrdsjugojn.tif,64,0.0666666666666667,0.0666666666666667,1.93333333333333,30979.309836292,30980.209066417,13,30979.374833917,30979.441867958,30980.232299208,30982.159008,0,0.899230125000031
106,13,13,categorization,0,kitchen,SHINEd_labelme_rykdqxenmhulbdn.tif,63,0.0666666666666667,0.0666666666666667,0.966666666666667,30982.170148083,30983.012344333,9,30982.237229333,30982.302910917,30983.042596458,30984.002602417,1,0.842196249999688
106,14,13,categorization,0,bathroom,SHINEd_sun_apynckhmoftszqoq.tif,47,0.0666666666666667,0.0666666666666667,0.916666666666667,30984.00876725,30985.180517792,13,30984.070551625,30984.131574875,30985.2012255,30986.111228833,1,1.17175054199834
106,15,13,categorization,0,bathroom,SHINEd_sun_apkruvsevgegsdwp.tif,44,0.0666666666666667,0.0666666666666667,1.3,30986.115676917,30986.964249417,13,30986.177480833,30986.2384155,30986.973831583,30988.267223583,1,0.848572499999136
106,16,13,categorization,0,kitchen,SHINEd_sun_aeqdocilnnpuvuhx.tif,83,0.0666666666666667,0.0666666666666667,0.75,30988.285183708,30989.364995333,13,30988.351755625,30988.417790625,30989.391609083,30990.134947708,0,1.07981162499709
106,17,13,categorization,0,bathroom,SHINEd_sun_atstyziqcmkahyxk.tif,51,0.0666666666666667,0.0666666666666667,1.03333333333333,30990.141510708,30991.093107583,13,30990.203307958,30990.264196292,30991.099614833,30992.126321792,1,0.951596875001997
106,18,13,categorization,0,kitchen,SHINEd_sun_agorklincwxrdtga.tif,87,0.0666666666666667,0.0666666666666667,1.28333333333333,30992.13365575,30993.1361505,13,30992.198350708,30992.264557083,30993.153879042,30994.430601958,0,1.00249474999873
106,19,13,categorization,0,bathroom,SHINEd_sun_aavhrsfjbserjtht.tif,13,0.0666666666666667,0.0666666666666667,1.25,30994.44914725,30996.428143542,13,30994.51707825,30994.581812375,30996.434186708,30997.677575042,1,1.97899629200037
106,20,13,categorization,0,bathroom,SHINEd_sun_ahaulkltgpkeeemi.tif,26,0.0666666666666667,0.0666666666666667,1.75,30997.695903,30998.536757333,13,30997.762416833,30997.8284625,30998.55076225,31000.294151875,1,0.840854333000607
106,21,13,categorization,0,bathroom,SHINEd_sun_auzqhkafidnkrwmo.tif,54,0.0666666666666667,0.0666666666666667,1.76666666666667,31000.311898875,31001.154607042,13,31000.378532792,31000.444445667,31001.184410542,31002.944460333,1,0.842708167001547
106,22,13,categorization,0,bathroom,SHINEd_sun_alotolagknyrgtsk.tif,35,0.0666666666666667,0.0666666666666667,0.733333333333333,31002.961804875,31003.99816575,9,31003.028403875,31003.094106,31004.016973667,31004.743644375,0,1.03636087499763
106,23,13,categorization,0,kitchen,SHINEd_labelme_kxvouciolcpqplr.tif,62,0.0666666666666667,0.0666666666666667,1.43333333333333,31004.749496708,31006.052979417,9,31004.811353833,31004.872203917,31006.058337167,31007.4850385,1,1.3034827090014
106,24,13,categorization,0,kitchen,SHINEd_sun_abftihopvusyfakt.tif,71,0.0666666666666667,0.0666666666666667,1.81666666666667,31007.501568,31008.438534417,9,31007.568253042,31007.63446175,31008.456842083,31010.266883,1,0.936966417000804
106,25,13,categorization,0,bathroom,SHINEd_sun_azqyogdvyhahyram.tif,60,0.0666666666666667,0.0666666666666667,0.95,31010.285725667,31011.095330292,13,31010.352471917,31010.418305625,31011.12480625,31012.06814425,1,0.809604624999338
106,26,13,categorization,0,bathroom,SHINEd_sun_awnqiikzaispgmwo.tif,56,0.0666666666666667,0.0666666666666667,0.783333333333333,31012.075013458,31013.044244333,13,31012.136665,31012.197627042,31013.049920958,31013.826593333,1,0.969230874998175
106,27,13,categorization,0,kitchen,SHINEd_sun_auaiucuqpdausiva.tif,102,0.0666666666666667,0.0666666666666667,1.66666666666667,31013.831974042,31014.828286333,9,31013.893750583,31013.954714333,31014.840581167,31016.500640708,1,0.996312290997594
106,28,13,categorization,0,bathroom,SHINEd_labelme_sfxiulhjbhlyiyt.tif,11,0.0666666666666667,0.0666666666666667,1.18333333333333,31016.517696333,31017.294706,13,31016.584192667,31016.650130917,31017.323307833,31018.500017333,1,0.77700966699922
106,29,13,categorization,0,kitchen,SHINEd_labelme_brsyyvweiuaazfr.tif,61,0.0666666666666667,0.0666666666666667,1.58333333333333,31018.509605708,31019.421696792,13,31018.576169833,31018.642063083,31019.448603417,31021.025325333,0,0.912091083999258
106,30,13,categorization,0,kitchen,SHINEd_sun_aenotlpyftoioydp.tif,82,0.0666666666666667,0.0666666666666667,1.1,31021.0431435,31022.054792833,9,31021.109815875,31021.175664125,31022.082202833,31023.175586542,1,1.01164933300242
106,31,13,categorization,0,kitchen,SHINEd_sun_acwjdupvyjsugpay.tif,76,0.0666666666666667,0.0666666666666667,1.78333333333333,31023.185366667,31023.936964,9,31023.250137917,31023.319391458,31023.959423625,31025.736129792,1,0.751597333000973
106,32,13,categorization,0,bathroom,SHINEd_sun_axldvoqbuvuggfmq.tif,57,0.0666666666666667,0.0666666666666667,1.78333333333333,31025.755044083,31026.875782083,13,31025.8216515,31025.8881945,31026.894239667,31028.670950667,1,1.12073800000144
106,33,13,categorization,0,bathroom,SHINEd_sun_apeeialkgkuxddgh.tif,42,0.0666666666666667,0.0666666666666667,1.08333333333333,31028.688408792,31029.574546375,13,31028.754952417,31028.820790417,31029.593665833,31030.670391667,1,0.886137582998344
106,34,13,categorization,0,kitchen,SHINEd_sun_akcjzhbbjlbogpdi.tif,99,0.0666666666666667,0.0666666666666667,1.66666666666667,31030.680952917,31032.008581458,9,31030.745852417,31030.81111525,31032.035829542,31033.695875375,1,1.32762854100292
106,35,13,categorization,0,kitchen,SHINEd_sun_acxkpeoqbwcxfvip.tif,77,0.0666666666666667,0.0666666666666667,1.58333333333333,31033.712904458,31034.621952,9,31033.779397375,31033.845567417,31034.651781208,31036.228505417,1,0.909047542001645
106,36,13,categorization,0,kitchen,SHINEd_sun_ahywdevtimnqcsln.tif,94,0.0666666666666667,0.0666666666666667,1.26666666666667,31036.245249875,31037.429475917,9,31036.312459542,31036.377817875,31037.451136333,31038.711198333,1,1.18422604200168
106,37,13,categorization,0,bathroom,SHINEd_sun_ajlawzvmubibwbpy.tif,30,0.0666666666666667,0.0666666666666667,0.966666666666667,31038.728724458,31039.511454042,13,31038.795520792,31038.861457083,31039.534907833,31040.494973792,1,0.782729583999753
106,38,13,categorization,0,kitchen,SHINEd_sun_acfmftudsenhrfhy.tif,74,0.0666666666666667,0.0666666666666667,0.9,31040.503435542,31041.300305917,9,31040.565896083,31040.626078042,31041.311691792,31042.205029167,1,0.796870375001163
106,39,13,categorization,0,kitchen,SHINEd_sun_axyyrmzcupyhlivc.tif,107,0.0666666666666667,0.0666666666666667,1.46666666666667,31042.209899958,31043.100283292,9,31042.271524458,31042.332503208,31043.118169333,31044.578229208,1,0.890383333997306
106,40,13,categorization,0,kitchen,SHINEd_sun_auticobqsbwgoppi.tif,104,0.0666666666666667,0.0666666666666667,1.5,31044.596100667,31045.743492125,9,31044.662903958,31044.728735667,31045.768716583,31047.262088333,1,1.14739145799831
106,41,13,categorization,0,bathroom,SHINEd_sun_ahqjwnzgolcaoidx.tif,29,0.0666666666666667,0.0666666666666667,0.716666666666667,31047.279359292,31048.179697083,13,31047.345992208,31047.41208425,31048.20142175,31048.91142675,1,0.90033779100122
106,42,13,categorization,0,bathroom,SHINEd_sun_ausgutylgojavyoq.tif,53,0.0666666666666667,0.0666666666666667,1.5,31048.917245542,31049.80488175,13,31048.978951625,31049.039933583,31049.808869333,31051.302243417,1,0.887636207997275
106,43,13,categorization,0,bathroom,SHINEd_sun_aleqenyvunhactkl.tif,32,0.0666666666666667,0.0666666666666667,0.866666666666667,31051.318516,31052.786202,13,31051.385118167,31051.450913542,31052.809570417,31053.669576667,1,1.46768599999996
106,44,13,categorization,0,bathroom,SHINEd_sun_aghyqhbptboemmoq.tif,23,0.0666666666666667,0.0666666666666667,0.933333333333333,31053.675445167,31054.900717542,13,31053.737326375,31053.798141167,31054.91714975,31055.843821708,1,1.22527237500253
106,45,13,categorization,0,kitchen,SHINEd_sun_aggjlwcdjsjcaemh.tif,86,0.0666666666666667,0.0666666666666667,1.55,31055.849482417,31056.604515083,9,31055.911201417,31055.972136875,31056.624393875,31058.167783167,1,0.755032665998442
106,46,13,categorization,0,kitchen,SHINEd_sun_ajkqhtgcbgpcwrwn.tif,97,0.0666666666666667,0.0666666666666667,1.3,31058.179102667,31059.233555083,9,31058.246076375,31058.312062833,31059.251741292,31060.545111292,1,1.05445241599955
106,47,13,categorization,0,bathroom,SHINEd_sun_agguqiubmwhqqunb.tif,22,0.0666666666666667,0.0666666666666667,1.78333333333333,31060.561870792,31061.447149042,9,31060.628766208,31060.694808917,31061.4681375,31063.244855708,0,0.885278249999828
106,48,13,categorization,0,bathroom,SHINEd_sun_avhrdrntsqrjzccq.tif,55,0.0666666666666667,0.0666666666666667,1.8,31063.262205042,31064.385175542,13,31063.329049,31063.394988125,31064.401138125,31066.194530375,1,1.12297050000052
106,49,13,categorization,0,bathroom,SHINEd_sun_aclfzgynxzxlbepz.tif,19,0.0666666666666667,0.0666666666666667,0.816666666666667,31066.205152,31066.907636833,13,31066.273708083,31066.338367667,31066.928018167,31067.738023292,1,0.702484833000199
106,50,13,categorization,0,bathroom,SHINEd_sun_abapwbhyhkfixyex.tif,14,0.0666666666666667,0.0666666666666667,0.966666666666667,31067.74401975,31068.572253958,13,31067.80562725,31067.86666525,31068.585235167,31069.545241708,1,0.828234207998321
