sub_num,trial,block,task,is_practice,category,image,texture,duration,mask_dur,jitter,stim_time,time_of_resp,trial_response,mask_time,fix_time,jit_onset,trial_end,trial_accuracy,RT
106,1,11,categorization,0,bathroom,SHINEd_sun_azqyogdvyhahyram.tif,60,0.0666666666666667,0.0666666666666667,0.8,30706.024242917,30707.222176708,13,30706.086827167,30706.147200375,30707.232392417,30708.025731167,1,1.19793379100156
106,2,11,categorization,0,kitchen,SHINEd_sun_akcjzhbbjlbogpdi.tif,99,0.0666666666666667,0.0666666666666667,1.13333333333333,30708.031280667,30708.941783125,9,30708.093089333,30708.15391075,30708.956259667,30710.082964917,1,0.910502457998518
106,3,11,categorization,0,kitchen,SHINEd_sun_acgtpgfybqjmzeyw.tif,75,0.0666666666666667,0.0666666666666667,1.05,30710.093105958,30710.899019792,9,30710.157743542,30710.223493792,30710.912381292,30711.955758167,1,0.805913833999512
106,4,11,categorization,0,kitchen,SHINEd_sun_acwjdupvyjsugpay.tif,76,0.0666666666666667,0.0666666666666667,1.05,30711.972129083,30712.861424333,9,30712.035581292,30712.095708625,30712.881262292,30713.924653167,1,0.88929525000276
106,5,11,categorization,0,bathroom,SHINEd_sun_aspsyogrekjtfozg.tif,50,0.0666666666666667,0.0666666666666667,1.63333333333333,30713.936041333,30714.83443475,13,30714.000525625,30714.067046542,30714.856535583,30716.483263,1,0.89839341699917
106,6,11,categorization,0,bathroom,SHINEd_sun_anhioqovhscjqqwb.tif,38,0.0666666666666667,0.0666666666666667,0.85,30716.501706667,30717.718193625,13,30716.568410167,30716.63396325,30717.740497,30718.58383575,1,1.21648695800104
106,7,11,categorization,0,bathroom,SHINEd_sun_ausgutylgojavyoq.tif,53,0.0666666666666667,0.0666666666666667,1.5,30718.588621167,30719.389252875,13,30718.6505725,30718.711346667,30719.396850417,30720.890230083,1,0.800631707999855
106,8,11,categorization,0,kitchen,SHINEd_sun_avszsnwsbuqfgzbn.tif,105,0.0666666666666667,0.0666666666666667,1.46666666666667,30720.908403,30721.944587083,13,30720.97457,30721.041558792,30721.964579625,30723.424626458,0,1.03618408299735
106,9,11,categorization,0,kitchen,SHINEd_sun_ahspylgoovwmwvgk.tif,93,0.0666666666666667,0.0666666666666667,1.06666666666667,30723.441887,30724.463788458,9,30723.508461375,30723.574355583,30724.48019275,30725.540234333,1,1.02190145799977
106,10,11,categorization,0,bathroom,SHINEd_sun_agrwbmhcpmfuwmsg.tif,24,0.0666666666666667,0.0666666666666667,0.8,30725.5528065,30726.359497167,13,30725.617300042,30725.683648667,30726.372315583,30727.165686458,1,0.806690666999202
106,11,11,categorization,0,bathroom,SHINEd_sun_ahqjwnzgolcaoidx.tif,29,0.0666666666666667,0.0666666666666667,1.41666666666667,30727.181660667,30728.05371825,13,30727.248506208,30727.314308208,30728.066848417,30729.476909792,1,0.872057583001151
106,12,11,categorization,0,kitchen,SHINEd_sun_agubuxuukhzyzpdp.tif,88,0.0666666666666667,0.0666666666666667,1.71666666666667,30729.49433925,30730.408043792,9,30729.561039042,30729.627052,30730.432950208,30732.143010542,1,0.913704541999323
106,13,11,categorization,0,bathroom,SHINEd_sun_alkosphxlxwjwgjd.tif,34,0.0666666666666667,0.0666666666666667,0.833333333333333,30732.152790542,30733.060766167,13,30732.217008542,30732.285486542,30733.074218708,30733.900890375,1,0.907975624999381
106,14,11,categorization,0,bathroom,SHINEd_sun_axldvoqbuvuggfmq.tif,57,0.0666666666666667,0.0666666666666667,0.783333333333333,30733.906741,30735.01392975,9,30733.968446833,30734.029437375,30735.031404958,30735.808075542,0,1.1071887500002
106,15,11,categorization,0,kitchen,SHINEd_sun_aaxxjlsuzvqlgylf.tif,68,0.0666666666666667,0.0666666666666667,0.866666666666667,30735.81272125,30736.66180575,13,30735.874432583,30735.935379167,30736.670939333,30737.530944208,0,0.849084500001482
106,16,11,categorization,0,bathroom,SHINEd_sun_ahcvzmoyaycdoftf.tif,27,0.0666666666666667,0.0666666666666667,1.08333333333333,30737.535807542,30738.933804333,9,30737.59768125,30737.658554167,30738.9447165,30740.021443542,0,1.39799679099815
106,17,11,categorization,0,bathroom,SHINEd_sun_axxbkopsgyouuebh.tif,58,0.0666666666666667,0.0666666666666667,1.1,30740.032303333,30741.116701458,13,30740.096557,30740.16330525,30741.136120042,30742.229506833,1,1.08439812500001
106,18,11,categorization,0,kitchen,SHINEd_sun_ahywdevtimnqcsln.tif,94,0.0666666666666667,0.0666666666666667,1.5,30742.243389708,30743.247061875,9,30742.3084485,30742.375777917,30743.265146542,30744.758532958,1,1.00367216700033
106,19,11,categorization,0,kitchen,SHINEd_sun_axyyrmzcupyhlivc.tif,107,0.0666666666666667,0.0666666666666667,0.833333333333333,30744.783544292,30745.758256958,13,30744.850180083,30744.916167375,30745.771530458,30746.598202542,0,0.974712666000414
106,20,11,categorization,0,bathroom,SHINEd_sun_abjtwfukuwddzted.tif,15,0.0666666666666667,0.0666666666666667,1.76666666666667,30746.60404525,30747.517753667,13,30746.6658785,30746.72684525,30747.528950125,30749.289001292,1,0.913708417003363
106,21,11,categorization,0,kitchen,SHINEd_sun_amjjdeyrggfqgmom.tif,100,0.0666666666666667,0.0666666666666667,1.18333333333333,30749.307120792,30750.089676167,9,30749.374664375,30749.440063917,30750.113798167,30751.290483667,1,0.782555375000811
106,22,11,categorization,0,kitchen,SHINEd_sun_acxkpeoqbwcxfvip.tif,77,0.0666666666666667,0.0666666666666667,0.933333333333333,30751.299726583,30752.032314542,9,30751.366613625,30751.432789333,30752.056220292,30752.982944833,1,0.73258795899892
106,23,11,categorization,0,kitchen,SHINEd_sun_afuyedyxivkhecmu.tif,85,0.0666666666666667,0.0666666666666667,0.716666666666667,30752.998848083,30753.742034792,9,30753.065294333,30753.131172792,30753.750462375,30754.460468167,1,0.743186709001748
106,24,11,categorization,0,bathroom,SHINEd_sun_amzlamotzwfkwjco.tif,37,0.0666666666666667,0.0666666666666667,1.25,30754.465709,30755.141228042,9,30754.527467292,30754.588425042,30755.157090625,30756.400464875,0,0.675519042000815
106,25,11,categorization,0,bathroom,SHINEd_sun_avhrdrntsqrjzccq.tif,55,0.0666666666666667,0.0666666666666667,0.866666666666667,30756.418162292,30757.099230208,9,30756.484783583,30756.550993125,30757.12422075,30757.9842875,0,0.681067916000757
106,26,11,categorization,0,kitchen,SHINEd_sun_admlmbcdswaszruo.tif,79,0.0666666666666667,0.0666666666666667,1.08333333333333,30758.000128083,30758.781680125,9,30758.066907125,30758.13073375,30758.799795583,30759.876502708,1,0.78155204200084
106,27,11,categorization,0,kitchen,SHINEd_sun_ajcbwwvdlsvjyzje.tif,96,0.0666666666666667,0.0666666666666667,1.9,30759.887090792,30760.789743292,9,30759.951492958,30760.019144625,30760.808670958,30762.702049625,1,0.902652500000841
106,28,11,categorization,0,bathroom,SHINEd_sun_aleqenyvunhactkl.tif,32,0.0666666666666667,0.0666666666666667,0.866666666666667,30762.719114875,30763.799024,13,30762.785698167,30762.852084292,30763.825408708,30764.685413,1,1.079909125001
106,29,11,categorization,0,bathroom,SHINEd_sun_akiytfaagpdsphgz.tif,31,0.0666666666666667,0.0666666666666667,1.05,30764.690011958,30765.501850917,13,30764.751816375,30764.812608958,30765.514660542,30766.558053583,1,0.811838959001761
106,30,11,categorization,0,kitchen,SHINEd_sun_aapllqyqlykszopd.tif,66,0.0666666666666667,0.0666666666666667,1.65,30766.568224792,30767.538139583,9,30766.632820125,30766.698596417,30767.555787583,30769.19918,1,0.96991479099961
106,31,11,categorization,0,kitchen,SHINEd_sun_ahdycvpopffkzzsu.tif,90,0.0666666666666667,0.0666666666666667,0.716666666666667,30769.217217667,30770.078575792,13,30769.283762042,30769.349809792,30770.106180375,30770.816186458,0,0.861358124999242
106,32,11,categorization,0,bathroom,SHINEd_sun_acgyywnybuveqsro.tif,18,0.0666666666666667,0.0666666666666667,1.36666666666667,30770.822060875,30771.613897042,9,30770.883816042,30770.944653583,30771.630148125,30772.990183167,0,0.79183616699811
106,33,11,categorization,0,kitchen,SHINEd_sun_aunzlwrbjumxhwdj.tif,103,0.0666666666666667,0.0666666666666667,1.11666666666667,30773.007892292,30773.916821208,9,30773.074796083,30773.141129708,30773.929910125,30775.03995325,1,0.90892891600015
106,34,11,categorization,0,kitchen,SHINEd_sun_aenotlpyftoioydp.tif,82,0.0666666666666667,0.0666666666666667,0.983333333333333,30775.0501265,30775.853193,9,30775.114865917,30775.1828325,30775.871839625,30776.848544292,1,0.803066500000568
106,35,11,categorization,0,bathroom,SHINEd_sun_ambriybtogmepttm.tif,36,0.0666666666666667,0.0666666666666667,1.15,30776.864606042,30778.22920275,9,30776.930404417,30776.996919292,30778.249270583,30779.392647458,0,1.36459670800105
106,36,11,categorization,0,bathroom,SHINEd_sun_atstyziqcmkahyxk.tif,51,0.0666666666666667,0.0666666666666667,1.08333333333333,30779.402058292,30780.006498667,13,30779.468705083,30779.535895667,30780.025355958,30781.102070125,1,0.604440375002014
106,37,11,categorization,0,bathroom,SHINEd_sun_apkxzenqapsujocq.tif,45,0.0666666666666667,0.0666666666666667,1.21666666666667,30781.118674083,30781.77294725,13,30781.185630708,30781.25130675,30781.787193542,30782.997228167,1,0.654273166997882
106,38,11,categorization,0,bathroom,SHINEd_sun_apjevzvycyhuqghb.tif,43,0.0666666666666667,0.0666666666666667,0.783333333333333,30783.014440583,30784.430374167,13,30783.081155625,30783.148111667,30784.4576315,30785.234303583,1,1.41593358400132
106,39,11,categorization,0,bathroom,SHINEd_sun_apkruvsevgegsdwp.tif,44,0.0666666666666667,0.0666666666666667,1,30785.23969125,30786.09382125,13,30785.301520708,30785.362272625,30786.098288083,30787.09162625,1,0.854129999999714
106,40,11,categorization,0,bathroom,SHINEd_sun_agyqfjcfkdcydepw.tif,25,0.0666666666666667,0.0666666666666667,1.83333333333333,30787.097560083,30788.317489417,13,30787.159365917,30787.220139875,30788.322360875,30790.149066042,1,1.21992933400179
106,41,11,categorization,0,kitchen,SHINEd_sun_ahpczsiumwwocjkv.tif,92,0.0666666666666667,0.0666666666666667,1.15,30790.160484417,30792.053796958,13,30790.227061417,30790.29308675,30792.062623958,30793.206006292,0,1.89331254100034
106,42,11,categorization,0,kitchen,SHINEd_sun_agorklincwxrdtga.tif,87,0.0666666666666667,0.0666666666666667,1.33333333333333,30793.215126292,30794.354252083,9,30793.281928333,30793.3490945,30794.373286292,30795.700013208,1,1.13912579099997
106,43,11,categorization,0,bathroom,SHINEd_sun_alotolagknyrgtsk.tif,35,0.0666666666666667,0.0666666666666667,1.11666666666667,30795.718361542,30797.318836167,13,30795.785187542,30795.851185875,30797.344177875,30798.454236375,1,1.60047462500006
106,44,11,categorization,0,kitchen,SHINEd_sun_ahljzhgcdpomplvg.tif,91,0.0666666666666667,0.0666666666666667,1.91666666666667,30798.464018792,30800.413334792,9,30798.528709125,30798.596662417,30800.43931625,30802.349358875,1,1.94931599999836
106,45,11,categorization,0,kitchen,SHINEd_sun_aexklacwqwezaorf.tif,84,0.0666666666666667,0.0666666666666667,0.783333333333333,30802.366722083,30803.540974167,9,30802.434896917,30802.499298833,30803.551922042,30804.328593625,1,1.17425208400164
106,46,11,categorization,0,bathroom,SHINEd_sun_aljolscmmzydegqp.tif,33,0.0666666666666667,0.0666666666666667,1,30804.333367458,30805.2130805,9,30804.395090625,30804.456074833,30805.225255583,30806.218593292,0,0.87971304200255
106,47,11,categorization,0,bathroom,SHINEd_sun_afcoljnjfoxjtgja.tif,20,0.0666666666666667,0.0666666666666667,1.38333333333333,30806.225624542,30807.196812167,9,30806.287274333,30806.348274625,30807.200278625,30808.57698875,0,0.971187625000312
106,48,11,categorization,0,bathroom,SHINEd_sun_agguqiubmwhqqunb.tif,22,0.0666666666666667,0.0666666666666667,1.55,30808.595019625,30809.862002583,13,30808.662003208,30808.728208625,30809.885321708,30811.428700167,1,1.26698295799724
106,49,11,categorization,0,kitchen,SHINEd_sun_ajkqhtgcbgpcwrwn.tif,97,0.0666666666666667,0.0666666666666667,1.03333333333333,30811.447047708,30812.288987625,9,30811.513906125,30811.579910042,30812.302612292,30813.329316583,1,0.841939917001582
106,50,11,categorization,0,kitchen,SHINEd_sun_aypmqwcualkenuoe.tif,109,0.0666666666666667,0.0666666666666667,1.46666666666667,30813.340353375,30815.588930292,9,30813.40496475,30813.471251333,30815.608111875,30817.068156042,1,2.24857691700163
