sub_num,trial,block,task,is_practice,category,image,texture,duration,mask_dur,jitter,stim_time,time_of_resp,trial_response,mask_time,fix_time,jit_onset,trial_end,trial_accuracy,RT
106,1,9,categorization,0,bathroom,SHINEd_labelme_sfxiulhjbhlyiyt.tif,11,0.0666666666666667,0.0666666666666667,1.08333333333333,30458.749327167,30459.718370667,13,30458.811797583,30458.872067833,30459.724438292,30460.801156208,1,0.969043500001135
106,2,9,categorization,0,kitchen,SHINEd_sun_aeqdocilnnpuvuhx.tif,83,0.0666666666666667,0.0666666666666667,0.8,30460.811806792,30462.5118775,13,30460.876201125,30460.942893417,30462.535852208,30463.329189375,0,1.70007070800057
106,3,9,categorization,0,kitchen,SHINEd_sun_aamedkxepzlwuxes.tif,65,0.0666666666666667,0.0666666666666667,0.833333333333333,30463.334217792,30464.670407417,9,30463.396069458,30463.456875875,30464.676287583,30465.50295775,1,1.33618962500259
106,4,9,categorization,0,kitchen,SHINEd_sun_auaiucuqpdausiva.tif,102,0.0666666666666667,0.0666666666666667,1.45,30465.507559208,30467.254689208,9,30465.5693375,30465.6302365,30467.266211458,30468.709582667,1,1.74712999999974
106,5,9,categorization,0,kitchen,SHINEd_sun_abpwyqmlzafvklqo.tif,72,0.0666666666666667,0.0666666666666667,1.3,30468.731093417,30469.99057475,9,30468.797811833,30468.863613583,30470.023209833,30471.316577417,1,1.25948133300335
106,6,9,categorization,0,bathroom,SHINEd_sun_amzlamotzwfkwjco.tif,37,0.0666666666666667,0.0666666666666667,1.21666666666667,30471.334225208,30472.441240917,13,30471.401142375,30471.467006083,30472.456404875,30473.66644325,1,1.10701570899982
106,7,9,categorization,0,bathroom,SHINEd_sun_apeeialkgkuxddgh.tif,42,0.0666666666666667,0.0666666666666667,0.733333333333333,30473.683333333,30474.70597925,13,30473.75041525,30473.816396125,30474.724025083,30475.450751667,1,1.02264591700077
106,8,9,categorization,0,bathroom,SHINEd_sun_aclfzgynxzxlbepz.tif,19,0.0666666666666667,0.0666666666666667,1.03333333333333,30475.467825417,30476.60668,13,30475.530546042,30475.590476417,30476.626405292,30477.653129958,1,1.13885458300138
106,9,9,categorization,0,kitchen,SHINEd_sun_abftihopvusyfakt.tif,71,0.0666666666666667,0.0666666666666667,1.1,30477.662673708,30479.006416042,9,30477.728396583,30477.793849625,30479.03631975,30480.129692458,1,1.34374233400013
106,10,9,categorization,0,bathroom,SHINEd_sun_asfwthctfqerjvxr.tif,49,0.0666666666666667,0.0666666666666667,1.25,30480.140772292,30481.219933167,9,30480.205989917,30480.270948042,30481.244419042,30482.487799917,0,1.07916087500053
106,11,9,categorization,0,bathroom,SHINEd_sun_ajlawzvmubibwbpy.tif,30,0.0666666666666667,0.0666666666666667,1.4,30482.505643667,30483.47179075,9,30482.5724235,30482.638121083,30483.49470275,30484.888078958,0,0.966147083003307
106,12,9,categorization,0,bathroom,SHINEd_sun_aunuadmjocsddsrl.tif,52,0.0666666666666667,0.0666666666666667,1.43333333333333,30484.905954208,30486.371055542,13,30484.972106875,30485.039906708,30486.401628667,30487.828357167,1,1.46510133400079
106,13,9,categorization,0,bathroom,SHINEd_sun_abapwbhyhkfixyex.tif,14,0.0666666666666667,0.0666666666666667,1.26666666666667,30487.847010833,30489.686484667,13,30487.914324208,30487.980383667,30489.699769,30490.959818875,1,1.83947383399936
106,14,9,categorization,0,bathroom,SHINEd_sun_aoybiabnpadelefl.tif,41,0.0666666666666667,0.0666666666666667,0.916666666666667,30490.980619,30492.443109167,13,30491.047771542,30491.113593542,30492.473172708,30493.383176708,1,1.46249016699949
106,15,9,categorization,0,bathroom,SHINEd_sun_ausgutylgojavyoq.tif,53,0.0666666666666667,0.0666666666666667,1.05,30493.388364875,30494.294521208,13,30493.450196375,30493.511020625,30494.312707417,30495.356085875,1,0.906156332999672
106,16,9,categorization,0,kitchen,SHINEd_sun_acxkpeoqbwcxfvip.tif,77,0.0666666666666667,0.0666666666666667,1.53333333333333,30495.368420125,30496.126316083,9,30495.4330005,30495.499472083,30496.136660333,30497.663377917,1,0.757895957998699
106,17,9,categorization,0,kitchen,SHINEd_sun_ahspylgoovwmwvgk.tif,93,0.0666666666666667,0.0666666666666667,1.11666666666667,30497.680090042,30498.707583167,9,30497.746735375,30497.812863542,30498.73555675,30499.845609542,1,1.02749312500237
106,18,9,categorization,0,kitchen,SHINEd_sun_agzzivivdpnawacl.tif,89,0.0666666666666667,0.0666666666666667,1.05,30499.854750292,30501.109650542,13,30499.919284083,30499.988791583,30501.128705375,30502.172088542,0,1.25490024999817
106,19,9,categorization,0,bathroom,SHINEd_sun_apmqjbnwghzuhhzh.tif,46,0.0666666666666667,0.0666666666666667,1.66666666666667,30502.1813215,30503.132360167,13,30502.24663125,30502.312471375,30503.152176792,30504.812231708,1,0.95103866700083
106,20,9,categorization,0,bathroom,SHINEd_sun_aleqenyvunhactkl.tif,32,0.0666666666666667,0.0666666666666667,1.98333333333333,30504.832640458,30506.033574917,13,30504.899501417,30504.965427542,30506.055411708,30508.032115,1,1.20093445900056
106,21,9,categorization,0,bathroom,SHINEd_sun_ahaulkltgpkeeemi.tif,26,0.0666666666666667,0.0666666666666667,1.06666666666667,30508.045599708,30508.903293625,13,30508.113067875,30508.176736542,30508.932789708,30509.992846333,1,0.857693917001598
106,22,9,categorization,0,bathroom,SHINEd_sun_alkosphxlxwjwgjd.tif,34,0.0666666666666667,0.0666666666666667,1.31666666666667,30510.005056917,30510.782936083,13,30510.06959425,30510.135762917,30510.809440625,30512.119459958,1,0.777879165998456
106,23,9,categorization,0,bathroom,SHINEd_sun_acegryoqftbzowsg.tif,17,0.0666666666666667,0.0666666666666667,1.78333333333333,30512.128509833,30513.170235375,13,30512.194311458,30512.261272083,30513.183428333,30514.960149792,1,1.04172554199977
106,24,9,categorization,0,kitchen,SHINEd_sun_adgqasybjyktddhj.tif,78,0.0666666666666667,0.0666666666666667,0.816666666666667,30514.978639833,30515.8695645,13,30515.045447625,30515.111470333,30515.883622833,30516.693627333,0,0.890924667000945
106,25,9,categorization,0,bathroom,SHINEd_sun_avhrdrntsqrjzccq.tif,55,0.0666666666666667,0.0666666666666667,0.933333333333333,30516.698811875,30517.606137833,13,30516.76047975,30516.821446917,30517.623306958,30518.549977333,1,0.907325958000001
106,26,9,categorization,0,bathroom,SHINEd_sun_apjevzvycyhuqghb.tif,43,0.0666666666666667,0.0666666666666667,1.33333333333333,30518.554968708,30519.374313417,13,30518.616634292,30518.677604542,30519.380230917,30520.706934292,1,0.819344709001598
106,27,9,categorization,0,bathroom,SHINEd_sun_agyqfjcfkdcydepw.tif,25,0.0666666666666667,0.0666666666666667,0.833333333333333,30520.7261065,30521.601864583,13,30520.795140042,30520.859059708,30521.614767583,30522.441478083,1,0.875758083002438
106,28,9,categorization,0,kitchen,SHINEd_sun_afuyedyxivkhecmu.tif,85,0.0666666666666667,0.0666666666666667,0.933333333333333,30522.453883208,30524.150659458,13,30522.515605792,30522.576616583,30524.162222333,30525.088894875,0,1.69677624999895
106,29,9,categorization,0,bathroom,SHINEd_sun_aljolscmmzydegqp.tif,33,0.0666666666666667,0.0666666666666667,1.85,30525.09384375,30526.990852708,13,30525.155599917,30525.21641575,30527.002193708,30528.845570375,1,1.89700895799979
106,30,9,categorization,0,bathroom,SHINEd_sun_azqyogdvyhahyram.tif,60,0.0666666666666667,0.0666666666666667,0.966666666666667,30528.864943667,30530.189879083,13,30528.931587042,30528.997542125,30530.199849208,30531.159854667,1,1.32493541599979
106,31,9,categorization,0,kitchen,SHINEd_sun_azmutvzbxypaceni.tif,110,0.0666666666666667,0.0666666666666667,0.766666666666667,30531.164821125,30532.126274292,9,30531.226658833,30531.287449167,30532.139113458,30532.899119042,1,0.961453167001309
106,32,9,categorization,0,kitchen,SHINEd_sun_aarfiyshqohlwkmo.tif,67,0.0666666666666667,0.0666666666666667,1.15,30532.904032458,30533.638734708,9,30532.965787875,30533.026680625,30533.645404583,30534.788792542,1,0.734702250003465
106,33,9,categorization,0,bathroom,SHINEd_sun_ahqjwnzgolcaoidx.tif,29,0.0666666666666667,0.0666666666666667,0.75,30534.797687625,30535.649831667,9,30534.864445583,30534.930335333,30535.669652917,30536.413037833,0,0.852144042000873
106,34,9,categorization,0,bathroom,SHINEd_sun_aapitsgbtktqubfy.tif,12,0.0666666666666667,0.0666666666666667,0.9,30536.429129458,30537.334637167,13,30536.495678292,30536.561997042,30537.347917792,30538.241255375,1,0.90550770900154
106,35,9,categorization,0,bathroom,SHINEd_sun_anhioqovhscjqqwb.tif,38,0.0666666666666667,0.0666666666666667,1.88333333333333,30538.246192667,30539.006152625,13,30538.307995542,30538.368811875,30539.0212225,30540.89792175,1,0.759959957998944
106,36,9,categorization,0,bathroom,SHINEd_sun_acduarbnmmoglmiv.tif,16,0.0666666666666667,0.0666666666666667,1.65,30540.910120417,30542.043786375,13,30540.977153792,30541.042762792,30542.066346667,30543.709751083,1,1.13366595800107
106,37,9,categorization,0,bathroom,SHINEd_sun_aspsyogrekjtfozg.tif,50,0.0666666666666667,0.0666666666666667,0.816666666666667,30543.729734208,30544.651673917,13,30543.796388458,30543.862598333,30544.668098333,30545.478102333,1,0.92193970900189
106,38,9,categorization,0,kitchen,SHINEd_sun_awcpdzzznmweyyhv.tif,106,0.0666666666666667,0.0666666666666667,0.9,30545.483196292,30546.286571,13,30545.544867625,30545.605919292,30546.290999625,30547.184336458,0,0.803374708000774
106,39,9,categorization,0,kitchen,SHINEd_sun_axyyrmzcupyhlivc.tif,107,0.0666666666666667,0.0666666666666667,0.733333333333333,30547.1892065,30548.006365292,9,30547.25097175,30547.311837917,30548.014142375,30548.740814042,1,0.817158792000555
106,40,9,categorization,0,bathroom,SHINEd_sun_apynckhmoftszqoq.tif,47,0.0666666666666667,0.0666666666666667,0.85,30548.745744125,30549.6059835,13,30548.807476917,30548.868444333,30549.621005292,30550.464344625,1,0.860239375000674
106,41,9,categorization,0,bathroom,SHINEd_sun_aghyqhbptboemmoq.tif,23,0.0666666666666667,0.0666666666666667,1.58333333333333,30550.469190333,30551.470227833,13,30550.530949292,30550.591843625,30551.477332833,30553.05404675,1,1.00103750000198
106,42,9,categorization,0,bathroom,SHINEd_sun_atstyziqcmkahyxk.tif,51,0.0666666666666667,0.0666666666666667,1.8,30553.070613083,30553.923754917,13,30553.137002833,30553.203559958,30553.943352917,30555.736747583,1,0.853141833998961
106,43,9,categorization,0,kitchen,SHINEd_sun_aadbddgrdsjugojn.tif,64,0.0666666666666667,0.0666666666666667,1.3,30555.753568167,30556.795516417,13,30555.820078125,30555.886593625,30556.808872125,30558.102244417,0,1.04194825000013
106,44,9,categorization,0,bathroom,SHINEd_sun_agrwbmhcpmfuwmsg.tif,24,0.0666666666666667,0.0666666666666667,0.766666666666667,30558.115908542,30559.010112833,13,30558.181084125,30558.248501083,30559.038430042,30559.798469958,1,0.894204290998459
106,45,9,categorization,0,kitchen,SHINEd_sun_aqeaevwwwjoqhzvl.tif,101,0.0666666666666667,0.0666666666666667,1.15,30559.815020625,30562.038157708,13,30559.877601625,30559.937684833,30562.057206917,30563.200576083,0,2.22313708300135
106,46,9,categorization,0,kitchen,SHINEd_sun_ajkqhtgcbgpcwrwn.tif,97,0.0666666666666667,0.0666666666666667,1.36666666666667,30563.211506542,30564.239446667,13,30563.278153292,30563.344389458,30564.267479083,30565.62751925,0,1.0279401250009
106,47,9,categorization,0,bathroom,SHINEd_sun_acgyywnybuveqsro.tif,18,0.0666666666666667,0.0666666666666667,0.783333333333333,30565.645561,30566.533433333,13,30565.712109042,30565.778324042,30566.550808083,30567.327526333,1,0.887872332998086
106,48,9,categorization,0,bathroom,SHINEd_sun_agguqiubmwhqqunb.tif,22,0.0666666666666667,0.0666666666666667,1.25,30567.344881083,30568.198580667,13,30567.407765083,30567.467640458,30568.202684792,30569.446081042,1,0.853699584000424
106,49,9,categorization,0,bathroom,SHINEd_sun_aavhrsfjbserjtht.tif,13,0.0666666666666667,0.0666666666666667,1.5,30569.462633833,30570.398097167,13,30569.529347833,30569.595837167,30570.418952292,30571.912334375,1,0.935463333997177
106,50,9,categorization,0,kitchen,SHINEd_sun_acfmftudsenhrfhy.tif,74,0.0666666666666667,0.0666666666666667,1.03333333333333,30571.928917833,30572.94697925,9,30571.995817083,30572.061308125,30572.967666083,30573.994390292,1,1.01806141699853
