sub_num,trial,block,task,is_practice,category,image,texture,duration,mask_dur,jitter,stim_time,time_of_resp,trial_response,mask_time,fix_time,jit_onset,trial_end,trial_accuracy,RT
106,1,5,categorization,0,bathroom,SHINEd_sun_apkruvsevgegsdwp.tif,44,0.0666666666666667,0.0666666666666667,1.7,29960.223552875,29961.576473583,13,29960.285682917,29960.346173792,29961.581988208,29963.275375833,1,1.35292070800278
106,2,5,categorization,0,kitchen,SHINEd_sun_aarfiyshqohlwkmo.tif,67,0.0666666666666667,0.0666666666666667,1.81666666666667,29963.29378375,29965.43251825,9,29963.360237083,29963.427130458,29965.446994208,29967.257055125,1,2.13873450000028
106,3,5,categorization,0,bathroom,SHINEd_sun_aavhrsfjbserjtht.tif,13,0.0666666666666667,0.0666666666666667,1.23333333333333,29967.268522417,29968.560089208,13,29967.336065208,29967.401300958,29968.571463292,29969.798176625,1,1.29156679099833
106,4,5,categorization,0,kitchen,SHINEd_labelme_brsyyvweiuaazfr.tif,61,0.0666666666666667,0.0666666666666667,1.4,29969.815895708,29971.177271917,13,29969.883322833,29969.948586,29971.208981667,29972.602355792,0,1.36137620899899
106,5,5,categorization,0,kitchen,SHINEd_sun_aexklacwqwezaorf.tif,84,0.0666666666666667,0.0666666666666667,1.03333333333333,29972.620961042,29974.376730375,13,29972.687915667,29972.753545583,29974.389621917,29975.41632375,0,1.75576933299817
106,6,5,categorization,0,kitchen,SHINEd_sun_awcpdzzznmweyyhv.tif,106,0.0666666666666667,0.0666666666666667,1.38333333333333,29975.426022,29976.668822583,9,29975.490339083,29975.557551875,29976.7008265,29978.077533292,1,1.24280058300064
106,7,5,categorization,0,bathroom,SHINEd_sun_ahcvzmoyaycdoftf.tif,27,0.0666666666666667,0.0666666666666667,2,29978.09985525,29979.499059167,9,29978.165069958,29978.232025792,29979.525292375,29981.518673333,0,1.3992039170007
106,8,5,categorization,0,kitchen,SHINEd_sun_akchetnepxlcxhsu.tif,98,0.0666666666666667,0.0666666666666667,1.85,29981.537005417,29982.410832958,13,29981.604011792,29981.669437625,29982.425225167,29984.268599125,0,0.873827540999628
106,9,5,categorization,0,bathroom,SHINEd_sun_atstyziqcmkahyxk.tif,51,0.0666666666666667,0.0666666666666667,0.816666666666667,29984.286698208,29985.325735292,13,29984.353642417,29984.419577167,29985.342232417,29986.152235958,1,1.03903708399957
106,10,5,categorization,0,kitchen,SHINEd_sun_acxkpeoqbwcxfvip.tif,77,0.0666666666666667,0.0666666666666667,1.85,29986.157302375,29987.144251917,9,29986.219101458,29986.279943625,29987.1489865,29988.992358667,1,0.986949542002549
106,11,5,categorization,0,kitchen,SHINEd_sun_acfmftudsenhrfhy.tif,74,0.0666666666666667,0.0666666666666667,0.733333333333333,29989.010586458,29990.376813583,13,29989.076714417,29989.143273,29990.395960125,29991.12263075,0,1.36622712499957
106,12,5,categorization,0,kitchen,SHINEd_sun_aggjlwcdjsjcaemh.tif,86,0.0666666666666667,0.0666666666666667,0.716666666666667,29991.127012542,29992.296059667,9,29991.188884083,29991.24971525,29992.302135833,29993.01214,1,1.16904712499672
106,13,5,categorization,0,bathroom,SHINEd_sun_apjevzvycyhuqghb.tif,43,0.0666666666666667,0.0666666666666667,0.833333333333333,29993.016762458,29993.975829083,9,29993.078615208,29993.139458958,29993.99206125,29994.818731917,0,0.95906662500056
106,14,5,categorization,0,bathroom,SHINEd_sun_azqyogdvyhahyram.tif,60,0.0666666666666667,0.0666666666666667,0.95,29994.823557958,29995.936872333,9,29994.885274625,29994.946156833,29995.948396083,29996.891733042,0,1.11331437500121
106,15,5,categorization,0,bathroom,SHINEd_sun_agguqiubmwhqqunb.tif,22,0.0666666666666667,0.0666666666666667,1.96666666666667,29996.896430208,29997.960482833,9,29996.958055833,29997.018950542,29997.971033,29999.931078,0,1.06405262500266
106,16,5,categorization,0,kitchen,SHINEd_sun_aunzlwrbjumxhwdj.tif,103,0.0666666666666667,0.0666666666666667,1.86666666666667,29999.94959625,30000.856510208,9,30000.01623575,30000.082481083,30000.871667667,30002.731708875,1,0.906913957998768
106,17,5,categorization,0,kitchen,SHINEd_sun_azmutvzbxypaceni.tif,110,0.0666666666666667,0.0666666666666667,1.51666666666667,30002.746238125,30003.772790875,9,30002.812724083,30002.878902458,30003.802215542,30005.312270125,1,1.02655274999779
106,18,5,categorization,0,kitchen,SHINEd_sun_aypmqwcualkenuoe.tif,109,0.0666666666666667,0.0666666666666667,1.3,30005.330601792,30006.101950375,9,30005.397090458,30005.463412292,30006.11750125,30007.41089425,1,0.771348582999053
106,19,5,categorization,0,bathroom,SHINEd_sun_aqrpegblszgcoujh.tif,48,0.0666666666666667,0.0666666666666667,1.91666666666667,30007.428566833,30008.397449708,9,30007.495366083,30007.561654,30008.417950917,30010.328000208,0,0.968882875000418
106,20,5,categorization,0,kitchen,SHINEd_sun_auticobqsbwgoppi.tif,104,0.0666666666666667,0.0666666666666667,1.23333333333333,30010.3474355,30011.393246458,9,30010.414098708,30010.480206,30011.420043208,30012.646763875,1,1.04581095799949
106,21,5,categorization,0,bathroom,SHINEd_sun_abapwbhyhkfixyex.tif,14,0.0666666666666667,0.0666666666666667,0.866666666666667,30012.665822792,30013.611426875,9,30012.732551542,30012.798646792,30013.638117375,30014.49816675,0,0.945604082997306
106,22,5,categorization,0,kitchen,SHINEd_sun_abrcnpqqhmjwekyf.tif,73,0.0666666666666667,0.0666666666666667,0.8,30014.505621917,30015.696373458,9,30014.567481875,30014.62827875,30015.713727875,30016.507065458,1,1.19075154099846
106,23,5,categorization,0,bathroom,SHINEd_sun_ahijqszoswveeyji.tif,28,0.0666666666666667,0.0666666666666667,1.51666666666667,30016.512474042,30017.912250042,9,30016.574289917,30016.635170375,30017.92129625,30019.431343333,0,1.39977600000202
106,24,5,categorization,0,bathroom,SHINEd_sun_akiytfaagpdsphgz.tif,31,0.0666666666666667,0.0666666666666667,1.18333333333333,30019.449220333,30020.723907583,9,30019.515622083,30019.581833125,30020.740758083,30021.917474833,0,1.27468724999926
106,25,5,categorization,0,kitchen,SHINEd_sun_ahljzhgcdpomplvg.tif,91,0.0666666666666667,0.0666666666666667,1.6,30021.930049042,30022.855517583,9,30021.997654792,30022.063140667,30022.886630333,30024.480027167,1,0.925468541001464
106,26,5,categorization,0,kitchen,SHINEd_sun_agubuxuukhzyzpdp.tif,88,0.0666666666666667,0.0666666666666667,1.56666666666667,30024.501268333,30025.37548975,9,30024.568106458,30024.634156792,30025.389927167,30026.949972875,1,0.874221417001536
106,27,5,categorization,0,bathroom,SHINEd_sun_aljolscmmzydegqp.tif,33,0.0666666666666667,0.0666666666666667,1.36666666666667,30026.967111125,30027.9341445,9,30027.034004667,30027.099928208,30027.956857125,30029.316910333,0,0.967033375000028
106,28,5,categorization,0,kitchen,SHINEd_sun_avszsnwsbuqfgzbn.tif,105,0.0666666666666667,0.0666666666666667,1.53333333333333,30029.335920417,30030.2296345,9,30029.403126917,30029.468641792,30030.258767583,30031.78548,1,0.893714082998486
106,29,5,categorization,0,kitchen,SHINEd_sun_agorklincwxrdtga.tif,87,0.0666666666666667,0.0666666666666667,1.4,30031.803649542,30032.870215417,9,30031.8705055,30031.936228292,30032.893102,30034.2864815,1,1.06656587500038
106,30,5,categorization,0,bathroom,SHINEd_sun_aghyqhbptboemmoq.tif,23,0.0666666666666667,0.0666666666666667,1.06666666666667,30034.3056145,30035.268592708,9,30034.373089458,30034.4385505,30035.296046125,30036.356101875,0,0.962978207997367
106,31,5,categorization,0,kitchen,SHINEd_sun_ahspylgoovwmwvgk.tif,93,0.0666666666666667,0.0666666666666667,1.63333333333333,30036.368877125,30037.301562042,9,30036.433876292,30036.500503583,30037.32550925,30038.952238083,1,0.932684916999278
106,32,5,categorization,0,kitchen,SHINEd_sun_auaiucuqpdausiva.tif,102,0.0666666666666667,0.0666666666666667,1.8,30038.971194167,30039.737039,9,30039.040288708,30039.103895292,30039.761661333,30041.5550475,1,0.765844833000301
106,33,5,categorization,0,bathroom,SHINEd_sun_afcoljnjfoxjtgja.tif,20,0.0666666666666667,0.0666666666666667,1.53333333333333,30041.573345917,30042.232309083,9,30041.640475875,30041.706188292,30042.263559292,30043.790266833,0,0.658963165999012
106,34,5,categorization,0,bathroom,SHINEd_sun_ajlawzvmubibwbpy.tif,30,0.0666666666666667,0.0666666666666667,0.766666666666667,30043.804835917,30044.576407917,9,30043.872708958,30043.937891708,30044.59491375,30045.354927458,0,0.77157200000147
106,35,5,categorization,0,kitchen,SHINEd_sun_aadbddgrdsjugojn.tif,64,0.0666666666666667,0.0666666666666667,1.86666666666667,30045.362742375,30046.3840025,9,30045.424881458,30045.485475375,30046.387135083,30048.2471725,1,1.02126012499866
106,36,5,categorization,0,kitchen,SHINEd_sun_aamedkxepzlwuxes.tif,65,0.0666666666666667,0.0666666666666667,1.13333333333333,30048.264506458,30049.145522417,9,30048.331181625,30048.397135458,30049.170568083,30050.297293375,1,0.881015958999342
106,37,5,categorization,0,bathroom,SHINEd_sun_axxbkopsgyouuebh.tif,58,0.0666666666666667,0.0666666666666667,1.73333333333333,30050.306831417,30051.571651167,9,30050.371709667,30050.439137042,30051.597425792,30053.32413325,0,1.26481974999842
106,38,5,categorization,0,bathroom,SHINEd_sun_aspsyogrekjtfozg.tif,50,0.0666666666666667,0.0666666666666667,0.766666666666667,30053.341849625,30054.153796333,13,30053.408698583,30053.474315875,30054.179556917,30054.939561542,1,0.811946707999596
106,39,5,categorization,0,bathroom,SHINEd_sun_aapitsgbtktqubfy.tif,12,0.0666666666666667,0.0666666666666667,1.85,30054.94597125,30055.711814292,13,30055.007753083,30055.068652667,30055.720718208,30057.564111042,1,0.765843042001507
106,40,5,categorization,0,kitchen,SHINEd_sun_abpwyqmlzafvklqo.tif,72,0.0666666666666667,0.0666666666666667,0.966666666666667,30057.58097225,30058.3242145,13,30057.647379125,30057.713823,30058.353790542,30059.313794708,0,0.74324224999873
106,41,5,categorization,0,kitchen,SHINEd_sun_afuyedyxivkhecmu.tif,85,0.0666666666666667,0.0666666666666667,1.06666666666667,30059.318901417,30060.127630458,13,30059.380648917,30059.441569792,30060.143376625,30061.203427875,0,0.808729041000333
106,42,5,categorization,0,kitchen,SHINEd_sun_aegoxogugdkwpmpj.tif,80,0.0666666666666667,0.0666666666666667,1.38333333333333,30061.213322042,30062.049911125,13,30061.277905958,30061.343639208,30062.066247292,30063.442966875,0,0.836589082999126
106,43,5,categorization,0,bathroom,SHINEd_sun_acduarbnmmoglmiv.tif,16,0.0666666666666667,0.0666666666666667,0.766666666666667,30063.460994417,30064.310084,13,30063.527223,30063.593587542,30064.333205417,30065.093252125,1,0.849089583000023
106,44,5,categorization,0,kitchen,SHINEd_sun_aixorpehvfykdynp.tif,95,0.0666666666666667,0.0666666666666667,0.866666666666667,30065.109942,30066.207877792,13,30065.176271042,30065.242558,30066.211155792,30067.071161083,0,1.0979357920005
106,45,5,categorization,0,kitchen,SHINEd_sun_aehawpgmrlhlvcow.tif,81,0.0666666666666667,0.0666666666666667,1.25,30067.076049708,30067.815843208,9,30067.137835542,30067.198641458,30067.834051292,30069.077427875,1,0.739793500000815
106,46,5,categorization,0,kitchen,SHINEd_sun_ahdycvpopffkzzsu.tif,90,0.0666666666666667,0.0666666666666667,1.03333333333333,30069.097698333,30070.52902725,9,30069.163947833,30069.230040292,30070.5555915,30071.582308583,1,1.43132891699861
106,47,5,categorization,0,bathroom,SHINEd_sun_agyqfjcfkdcydepw.tif,25,0.0666666666666667,0.0666666666666667,0.783333333333333,30071.592937042,30072.472400208,9,30071.657501125,30071.723819833,30072.497317708,30073.274046042,0,0.879463165998459
106,48,5,categorization,0,kitchen,SHINEd_sun_aaxxjlsuzvqlgylf.tif,68,0.0666666666666667,0.0666666666666667,0.7,30073.291105708,30074.055763875,9,30073.357748708,30073.422930167,30074.075333417,30074.768670542,1,0.764658167001471
106,49,5,categorization,0,kitchen,SHINEd_labelme_kxvouciolcpqplr.tif,62,0.0666666666666667,0.0666666666666667,1.75,30074.773637,30075.631967417,9,30074.835270292,30074.896260083,30075.648568667,30077.3919615,1,0.858330417002435
106,50,5,categorization,0,kitchen,SHINEd_sun_abdxkyyxwfskuaqb.tif,70,0.0666666666666667,0.0666666666666667,1.36666666666667,30077.409759875,30078.364995333,9,30077.476367792,30077.542069875,30078.381206042,30079.741256042,1,0.955235457997333
