sub_num,trial,block,task,is_practice,category,image,texture,duration,mask_dur,jitter,stim_time,time_of_resp,trial_response,mask_time,fix_time,jit_onset,trial_end,trial_accuracy,RT
114,6,0,familiarity,1,kitchen,kitchen_practice2.tif,227,1.5,0,0.733333333333333,4184.51222625,4202.124033792,2,NaN,4202.146191708,4202.167196167,4202.893889875,NaN,NaN
114,7,0,familiarity,1,kitchen,kitchen_practice3.tif,228,1.5,0,1.3,4202.906507333,4211.236194708,3,NaN,4211.245982333,4211.264728167,4212.558238708,NaN,NaN
114,8,0,familiarity,1,kitchen,kitchen_practice1.tif,226,1.5,0,2,4212.591525333,4217.140114167,2,NaN,4217.148082042,4217.16687875,4219.16047575,NaN,NaN
114,9,0,familiarity,1,kitchen,kitchen_practice5.tif,230,1.5,0,1.81666666666667,4219.189109708,4224.724147708,2,NaN,4224.731216917,4224.749961792,4226.560173,NaN,NaN
114,10,0,familiarity,1,kitchen,kitchen_practice4.tif,229,1.5,0,0.75,4226.6059965,4230.252184625,4,NaN,4230.262306583,4230.281724,4231.025128292,NaN,NaN
114,1,1,familiarity,0,kitchen,sun_acxkpeoqbwcxfvip.tif,187,1.5,0,0.866666666666667,4236.639986208,4240.715691208,3,NaN,4240.7220235,4240.740476,4241.600495292,NaN,NaN
114,2,1,familiarity,0,kitchen,sun_aggjlwcdjsjcaemh.tif,196,1.5,0,1.01666666666667,4241.605213333,4246.947233292,2,NaN,4246.953392625,4246.971786,4247.981815917,NaN,NaN
114,3,1,familiarity,0,kitchen,sun_agorklincwxrdtga.tif,197,1.5,0,1.78333333333333,4247.98925125,4251.51587375,5,NaN,4251.521567542,4251.539905333,4253.316621292,NaN,NaN
114,4,1,familiarity,0,kitchen,sun_aadbddgrdsjugojn.tif,174,1.5,0,1.85,4253.339686375,4259.019499542,3,NaN,4259.026694167,4259.045238667,4260.88861475,NaN,NaN
114,5,1,familiarity,0,kitchen,sun_ahdycvpopffkzzsu.tif,200,1.5,0,1.83333333333333,4260.909289625,4264.507227208,7,NaN,4264.513478083,4264.531934333,4266.358653375,NaN,NaN
114,6,1,familiarity,0,kitchen,sun_ahljzhgcdpomplvg.tif,201,1.5,0,1.56666666666667,4266.378566583,4269.547419792,2,NaN,4269.576898542,4269.600054875,4271.160090667,NaN,NaN
114,7,1,familiarity,0,kitchen,sun_agzzivivdpnawacl.tif,199,1.5,0,1.31666666666667,4271.176303458,4275.115714542,3,NaN,4275.121321458,4275.139629333,4276.449672042,NaN,NaN
114,8,1,familiarity,0,kitchen,sun_ahspylgoovwmwvgk.tif,203,1.5,0,1.75,4276.470665167,4280.675354458,1,NaN,4280.681422458,4280.699776542,4282.443142417,NaN,NaN
114,9,1,familiarity,0,kitchen,sun_azmutvzbxypaceni.tif,220,1.5,0,1.9,4282.460311208,4287.763971333,3,NaN,4287.769737875,4287.788109333,4289.681476292,NaN,NaN
114,10,1,familiarity,0,kitchen,sun_agubuxuukhzyzpdp.tif,198,1.5,0,1.76666666666667,4289.702910083,4293.099466208,1,NaN,4293.105391083,4293.123856958,4294.883892875,NaN,NaN
114,11,1,familiarity,0,kitchen,labelme_kxvouciolcpqplr.tif,172,1.5,0,1.05,4294.904287458,4299.723335458,2,NaN,4299.729325042,4299.74770475,4300.791073625,NaN,NaN
114,12,1,familiarity,0,kitchen,labelme_brsyyvweiuaazfr.tif,171,1.5,0,1.58333333333333,4300.801705833,4304.978855792,3,NaN,4304.985122792,4305.003565417,4306.580272542,NaN,NaN
114,13,1,familiarity,0,kitchen,sun_aegoxogugdkwpmpj.tif,190,1.5,0,0.983333333333333,4306.604819708,4310.531154,2,NaN,4310.537242625,4310.555619708,4311.532293542,NaN,NaN
114,14,1,familiarity,0,kitchen,sun_adgqasybjyktddhj.tif,188,1.5,0,0.733333333333333,4311.537205792,4316.2357715,2,NaN,4316.241275333,4316.259673292,4316.986344125,NaN,NaN
114,15,1,familiarity,0,kitchen,sun_akchetnepxlcxhsu.tif,208,1.5,0,1.13333333333333,4316.990892417,4321.163666833,2,NaN,4321.169255667,4321.187671333,4322.314383208,NaN,NaN
114,16,1,familiarity,0,kitchen,sun_acgtpgfybqjmzeyw.tif,185,1.5,0,1.58333333333333,4322.322487333,4326.763266458,2,NaN,4326.769254708,4326.787717833,4328.364434125,NaN,NaN
114,17,1,familiarity,0,kitchen,sun_abrcnpqqhmjwekyf.tif,183,1.5,0,0.783333333333333,4328.381313792,4333.57085625,1,NaN,4333.578751417,4333.597389667,4334.374061042,NaN,NaN
114,18,1,familiarity,0,kitchen,sun_aapllqyqlykszopd.tif,176,1.5,0,0.8,4334.378411292,4338.027040667,1,NaN,4338.032955792,4338.051243333,4338.844581875,NaN,NaN
114,19,1,familiarity,0,kitchen,sun_aymvwlarqodbwuoc.tif,218,1.5,0,1.7,4338.850269667,4343.291551792,2,NaN,4343.297184792,4343.315513833,4345.008904458,NaN,NaN
114,20,1,familiarity,0,kitchen,sun_abftihopvusyfakt.tif,181,1.5,0,1.48333333333333,4345.0285375,4352.130805625,2,NaN,4352.136988708,4352.155351583,4353.632074292,NaN,NaN
114,21,1,familiarity,0,kitchen,sun_acwjdupvyjsugpay.tif,186,1.5,0,0.966666666666667,4353.652360042,4356.938746167,4,NaN,4356.944870417,4356.963282542,4357.923285958,NaN,NaN
114,22,1,familiarity,0,kitchen,sun_aexklacwqwezaorf.tif,194,1.5,0,1.28333333333333,4357.927838542,4361.067454542,4,NaN,4361.073177042,4361.091591458,4362.368300333,NaN,NaN
114,23,1,familiarity,0,kitchen,sun_auaiucuqpdausiva.tif,212,1.5,0,0.783333333333333,4362.380592958,4365.931306708,7,NaN,4365.937057833,4365.955518708,4366.732190875,NaN,NaN
114,24,1,familiarity,0,kitchen,sun_aamedkxepzlwuxes.tif,175,1.5,0,1.36666666666667,4366.748485958,4372.498755625,2,NaN,4372.505345208,4372.523688875,4373.883725917,NaN,NaN
114,25,1,familiarity,0,kitchen,labelme_rykdqxenmhulbdn.tif,173,1.5,0,1.45,4373.904011667,4377.083000333,2,NaN,4377.08869325,4377.107003917,4378.550371125,NaN,NaN
114,1,2,familiarity,0,kitchen,sun_ajcbwwvdlsvjyzje.tif,206,1.5,0,1.81666666666667,4384.412116208,4388.27541275,3,NaN,4388.2812115,4388.301668958,4390.111717833,NaN,NaN
114,2,2,familiarity,0,kitchen,sun_aypmqwcualkenuoe.tif,219,1.5,0,0.816666666666667,4390.132002958,4392.875163458,3,NaN,4392.904179125,4392.926989083,4393.73699425,NaN,NaN
114,3,2,familiarity,0,kitchen,sun_ahpczsiumwwocjkv.tif,202,1.5,0,0.9,4393.742505208,4396.655342417,1,NaN,4396.682405833,4396.70488675,4397.598225083,NaN,NaN
114,4,2,familiarity,0,kitchen,sun_acfmftudsenhrfhy.tif,184,1.5,0,0.933333333333333,4397.603735333,4403.091192708,5,NaN,4403.09818075,4403.118364,4404.045036167,NaN,NaN
114,5,2,familiarity,0,kitchen,sun_afuyedyxivkhecmu.tif,195,1.5,0,1.48333333333333,4404.049967625,4407.267177417,2,NaN,4407.273795208,4407.2921275,4408.76882725,NaN,NaN
114,6,2,familiarity,0,kitchen,sun_axyyrmzcupyhlivc.tif,217,1.5,0,1.48333333333333,4408.7886185,4412.11543675,4,NaN,4412.122580458,4412.140852833,4413.617550708,NaN,NaN
114,7,2,familiarity,0,kitchen,sun_aenotlpyftoioydp.tif,192,1.5,0,1.43333333333333,4413.635390583,4424.778543375,6,NaN,4424.785645208,4424.804223375,4426.230941083,NaN,NaN
114,8,2,familiarity,0,kitchen,sun_avszsnwsbuqfgzbn.tif,215,1.5,0,0.733333333333333,4426.250125958,4429.291204333,1,NaN,4429.296729083,4429.315063083,4430.041733667,NaN,NaN
114,9,2,familiarity,0,kitchen,sun_abpwyqmlzafvklqo.tif,182,1.5,0,0.966666666666667,4430.046313167,4434.074557125,5,NaN,4434.080737,4434.099099292,4435.059104167,NaN,NaN
114,10,2,familiarity,0,kitchen,sun_aixorpehvfykdynp.tif,205,1.5,0,0.916666666666667,4435.063694875,4439.44294775,1,NaN,4439.448778792,4439.467141917,4440.3771495,NaN,NaN
114,11,2,familiarity,0,kitchen,sun_abdxkyyxwfskuaqb.tif,180,1.5,0,1.03333333333333,4440.38295275,4443.754506125,1,NaN,4443.760618083,4443.778887208,4444.805591375,NaN,NaN
114,12,2,familiarity,0,kitchen,sun_abdenxonkemggwsq.tif,179,1.5,0,0.733333333333333,4444.819472292,4447.707079583,1,NaN,4447.712872625,4447.73126875,4448.457940917,NaN,NaN
114,13,2,familiarity,0,kitchen,sun_aehawpgmrlhlvcow.tif,191,1.5,0,1.13333333333333,4448.463333792,4452.434685833,5,NaN,4452.440630875,4452.458938667,4453.585653292,NaN,NaN
114,14,2,familiarity,0,kitchen,sun_ajkqhtgcbgpcwrwn.tif,207,1.5,0,0.883333333333333,4453.594366958,4456.947358333,2,NaN,4456.953008542,4456.971395625,4457.848067208,NaN,NaN
114,15,2,familiarity,0,kitchen,sun_aarfiyshqohlwkmo.tif,177,1.5,0,1.85,4457.864635208,4461.490539208,6,NaN,4461.496550333,4461.514860792,4463.358227708,NaN,NaN
114,16,2,familiarity,0,kitchen,sun_aeqdocilnnpuvuhx.tif,193,1.5,0,0.733333333333333,4463.37734825,4466.851385167,1,NaN,4466.857527167,4466.87593975,4467.602610625,NaN,NaN
114,17,2,familiarity,0,kitchen,sun_aqeaevwwwjoqhzvl.tif,211,1.5,0,1.95,4467.607117708,4470.963159708,5,NaN,4470.968884542,4470.987277167,4472.93066375,NaN,NaN
114,18,2,familiarity,0,kitchen,sun_auticobqsbwgoppi.tif,214,1.5,0,1.1,4472.95161375,4480.386417375,3,NaN,4480.392539417,4480.410996875,4481.504386125,NaN,NaN
114,19,2,familiarity,0,kitchen,sun_aaxxjlsuzvqlgylf.tif,178,1.5,0,1.31666666666667,4481.5130885,4484.626592,1,NaN,4484.632444292,4484.65070025,4485.960718583,NaN,NaN
114,20,2,familiarity,0,kitchen,sun_amjjdeyrggfqgmom.tif,210,1.5,0,1.78333333333333,4485.975595417,4490.882408875,1,NaN,4490.88845125,4490.906762333,4492.683464167,NaN,NaN
114,21,2,familiarity,0,kitchen,sun_aunzlwrbjumxhwdj.tif,213,1.5,0,1.33333333333333,4492.7026475,4495.918459167,1,NaN,4495.947709958,4495.970561458,4497.297284917,NaN,NaN
114,22,2,familiarity,0,kitchen,sun_awcpdzzznmweyyhv.tif,216,1.5,0,0.95,4497.320297458,4501.771121417,2,NaN,4501.776715792,4501.795078917,4502.738417875,NaN,NaN
114,23,2,familiarity,0,kitchen,sun_akcjzhbbjlbogpdi.tif,209,1.5,0,1.93333333333333,4502.743582458,4505.899345,1,NaN,4505.905654875,4505.923969375,4507.850687875,NaN,NaN
114,24,2,familiarity,0,kitchen,sun_ahywdevtimnqcsln.tif,204,1.5,0,1.28333333333333,4507.871754208,4511.746299292,1,NaN,4511.7524535,4511.770820708,4513.047535708,NaN,NaN
114,25,2,familiarity,0,kitchen,sun_admlmbcdswaszruo.tif,189,1.5,0,1.43333333333333,4513.0690105,4515.96322125,1,NaN,4515.968856125,4515.9871105,4517.413831417,NaN,NaN
