sub_num,trial,block,task,is_practice,category,image,texture,duration,mask_dur,jitter,stim_time,time_of_resp,trial_response,mask_time,fix_time,jit_onset,trial_end,trial_accuracy,RT
137,6,0,familiarity,1,kitchen,kitchen_practice2.tif,227,1.5,0,0.733333333333333,2815.567009291,2819.535563458,1,NaN,2819.541240166,2819.559648916,2820.28631975,NaN,NaN
137,7,0,familiarity,1,kitchen,kitchen_practice3.tif,228,1.5,0,1.3,2820.290865458,2823.575423166,3,NaN,2823.581118958,2823.599397541,2824.892784666,NaN,NaN
137,8,0,familiarity,1,kitchen,kitchen_practice1.tif,226,1.5,0,2,2824.912161625,2830.447157708,2,NaN,2830.453832041,2830.472224541,2832.465599291,NaN,NaN
137,9,0,familiarity,1,kitchen,kitchen_practice5.tif,230,1.5,0,1.81666666666667,2832.484083125,2839.736187,3,NaN,2839.742304166,2839.760674166,2841.570713583,NaN,NaN
137,10,0,familiarity,1,kitchen,kitchen_practice4.tif,229,1.5,0,0.75,2841.586208458,2872.527862583,1,NaN,2872.533519458,2872.5519025,2873.295241625,NaN,NaN
137,1,1,familiarity,0,kitchen,sun_acxkpeoqbwcxfvip.tif,187,1.5,0,0.866666666666667,2879.773101041,2882.675147666,1,NaN,2882.708176041,2882.734784875,2883.594875583,NaN,NaN
137,2,1,familiarity,0,kitchen,sun_aggjlwcdjsjcaemh.tif,196,1.5,0,1.01666666666667,2883.600189,2887.487744708,7,NaN,2887.494270166,2887.512725875,2888.522896916,NaN,NaN
137,3,1,familiarity,0,kitchen,sun_agorklincwxrdtga.tif,197,1.5,0,1.78333333333333,2888.532082208,2891.207570708,1,NaN,2891.213029083,2891.231311583,2893.008036041,NaN,NaN
137,4,1,familiarity,0,kitchen,sun_aadbddgrdsjugojn.tif,174,1.5,0,1.85,2893.025628,2896.2556285,6,NaN,2896.277415166,2896.301232958,2898.144609375,NaN,NaN
137,5,1,familiarity,0,kitchen,sun_ahdycvpopffkzzsu.tif,200,1.5,0,1.83333333333333,2898.165201083,2900.784594458,7,NaN,2900.813721333,2900.837263958,2902.663973375,NaN,NaN
137,6,1,familiarity,0,kitchen,sun_ahljzhgcdpomplvg.tif,201,1.5,0,1.56666666666667,2902.684914208,2905.512571166,1,NaN,2905.539525166,2905.5631565,2907.123196041,NaN,NaN
137,7,1,familiarity,0,kitchen,sun_agzzivivdpnawacl.tif,199,1.5,0,1.31666666666667,2907.142180375,2910.678407708,6,NaN,2910.70816025,2910.729839875,2912.039890791,NaN,NaN
137,8,1,familiarity,0,kitchen,sun_ahspylgoovwmwvgk.tif,203,1.5,0,1.75,2912.058542666,2915.799237125,2,NaN,2915.8048495,2915.823263666,2917.566652166,NaN,NaN
137,9,1,familiarity,0,kitchen,sun_azmutvzbxypaceni.tif,220,1.5,0,1.9,2917.585523708,2920.935733875,2,NaN,2920.945154916,2920.9643385,2922.857706583,NaN,NaN
137,10,1,familiarity,0,kitchen,sun_agubuxuukhzyzpdp.tif,198,1.5,0,1.76666666666667,2922.874804041,2925.57077975,1,NaN,2925.599124541,2925.622299041,2927.382340041,NaN,NaN
137,11,1,familiarity,0,kitchen,labelme_kxvouciolcpqplr.tif,172,1.5,0,1.05,2927.401175958,2930.366562875,6,NaN,2930.39158875,2930.41326375,2931.456639708,NaN,NaN
137,12,1,familiarity,0,kitchen,labelme_brsyyvweiuaazfr.tif,171,1.5,0,1.58333333333333,2931.465420708,2934.071501,6,NaN,2934.07682325,2934.095119416,2935.671946208,NaN,NaN
137,13,1,familiarity,0,kitchen,sun_aegoxogugdkwpmpj.tif,190,1.5,0,0.983333333333333,2935.690196625,2938.54673975,2,NaN,2938.575949791,2938.598805541,2939.575476666,NaN,NaN
137,14,1,familiarity,0,kitchen,sun_adgqasybjyktddhj.tif,188,1.5,0,0.733333333333333,2939.580152875,2942.879611666,7,NaN,2942.885234375,2942.903681708,2943.630353,NaN,NaN
137,15,1,familiarity,0,kitchen,sun_akchetnepxlcxhsu.tif,208,1.5,0,1.13333333333333,2943.634678166,2947.366779458,5,NaN,2947.372648833,2947.390873541,2948.517584166,NaN,NaN
137,16,1,familiarity,0,kitchen,sun_acgtpgfybqjmzeyw.tif,185,1.5,0,1.58333333333333,2948.525976875,2951.647514791,4,NaN,2951.652914166,2951.671170958,2953.247889541,NaN,NaN
137,17,1,familiarity,0,kitchen,sun_abrcnpqqhmjwekyf.tif,183,1.5,0,0.783333333333333,2953.265473666,2956.975576958,2,NaN,2956.981321416,2956.999776333,2957.776447833,NaN,NaN
137,18,1,familiarity,0,kitchen,sun_aapllqyqlykszopd.tif,176,1.5,0,0.8,2957.780988625,2963.967678625,2,NaN,2963.973068,2963.991365541,2964.784704541,NaN,NaN
137,19,1,familiarity,0,kitchen,sun_aymvwlarqodbwuoc.tif,218,1.5,0,1.7,2964.789106666,2968.0956285,1,NaN,2968.101070291,2968.1197615,2969.813131041,NaN,NaN
137,20,1,familiarity,0,kitchen,sun_abftihopvusyfakt.tif,181,1.5,0,1.48333333333333,2969.832042416,2973.003085833,1,NaN,2973.026614583,2973.049852416,2974.526555166,NaN,NaN
137,21,1,familiarity,0,kitchen,sun_acwjdupvyjsugpay.tif,186,1.5,0,0.966666666666667,2974.545171791,2977.310964041,6,NaN,2977.316289416,2977.334503875,2978.294510291,NaN,NaN
137,22,1,familiarity,0,kitchen,sun_aexklacwqwezaorf.tif,194,1.5,0,1.28333333333333,2978.298692708,2981.259113583,1,NaN,2981.288970041,2981.313593916,2982.590321333,NaN,NaN
137,23,1,familiarity,0,kitchen,sun_auaiucuqpdausiva.tif,212,1.5,0,0.783333333333333,2982.609134041,2985.335049583,1,NaN,2985.34059775,2985.358871916,2986.135544166,NaN,NaN
137,24,1,familiarity,0,kitchen,sun_aamedkxepzlwuxes.tif,175,1.5,0,1.36666666666667,2986.139820375,2990.079095916,2,NaN,2990.084604625,2990.10298,2991.463038625,NaN,NaN
137,25,1,familiarity,0,kitchen,labelme_rykdqxenmhulbdn.tif,173,1.5,0,1.45,2991.481731416,2994.127090791,5,NaN,2994.132651,2994.150990875,2995.594360875,NaN,NaN
137,1,2,familiarity,0,kitchen,sun_ajcbwwvdlsvjyzje.tif,206,1.5,0,1.81666666666667,2999.725363458,3002.422646791,2,NaN,3002.449039625,3002.4725495,3004.282589833,NaN,NaN
137,2,2,familiarity,0,kitchen,sun_aypmqwcualkenuoe.tif,219,1.5,0,0.816666666666667,3004.302586125,3007.91099575,1,NaN,3007.916597625,3007.934961166,3008.744975958,NaN,NaN
137,3,2,familiarity,0,kitchen,sun_ahpczsiumwwocjkv.tif,202,1.5,0,0.9,3008.749129083,3011.172841,2,NaN,3011.200167833,3011.223013416,3012.116350625,NaN,NaN
137,4,2,familiarity,0,kitchen,sun_acfmftudsenhrfhy.tif,184,1.5,0,0.933333333333333,3012.120880916,3015.026668291,2,NaN,3015.055623666,3015.07887625,3016.005547125,NaN,NaN
137,5,2,familiarity,0,kitchen,sun_afuyedyxivkhecmu.tif,195,1.5,0,1.48333333333333,3016.010317333,3018.915118,1,NaN,3018.944079,3018.967602083,3020.444315791,NaN,NaN
137,6,2,familiarity,0,kitchen,sun_axyyrmzcupyhlivc.tif,217,1.5,0,1.48333333333333,3020.463279041,3023.294948791,1,NaN,3023.300493958,3023.319070458,3024.795782375,NaN,NaN
137,7,2,familiarity,0,kitchen,sun_aenotlpyftoioydp.tif,192,1.5,0,1.43333333333333,3024.815103291,3027.999218125,3,NaN,3028.00460275,3028.022857583,3029.449566291,NaN,NaN
137,8,2,familiarity,0,kitchen,sun_avszsnwsbuqfgzbn.tif,215,1.5,0,0.733333333333333,3029.462957791,3032.175201625,1,NaN,3032.180527583,3032.198905583,3032.92557775,NaN,NaN
137,9,2,familiarity,0,kitchen,sun_abpwyqmlzafvklqo.tif,182,1.5,0,0.966666666666667,3032.929798625,3037.775025041,2,NaN,3037.7805325,3037.798867166,3038.758871416,NaN,NaN
137,10,2,familiarity,0,kitchen,sun_aixorpehvfykdynp.tif,205,1.5,0,0.916666666666667,3038.763066791,3041.726345458,4,NaN,3041.750446208,3041.773371375,3042.683374958,NaN,NaN
137,11,2,familiarity,0,kitchen,sun_abdxkyyxwfskuaqb.tif,180,1.5,0,1.03333333333333,3042.688098041,3045.839231666,1,NaN,3045.845629291,3045.864050875,3046.890770041,NaN,NaN
137,12,2,familiarity,0,kitchen,sun_abdenxonkemggwsq.tif,179,1.5,0,0.733333333333333,3046.902563958,3049.39154375,1,NaN,3049.39688825,3049.415294791,3050.141965666,NaN,NaN
137,13,2,familiarity,0,kitchen,sun_aehawpgmrlhlvcow.tif,191,1.5,0,1.13333333333333,3050.1463175,3053.187359166,1,NaN,3053.216250875,3053.239602208,3054.3663025,NaN,NaN
137,14,2,familiarity,0,kitchen,sun_ajkqhtgcbgpcwrwn.tif,207,1.5,0,0.883333333333333,3054.375461958,3056.99942775,7,NaN,3057.004769583,3057.023188625,3057.899861166,NaN,NaN
137,15,2,familiarity,0,kitchen,sun_aarfiyshqohlwkmo.tif,177,1.5,0,1.85,3057.904418916,3060.698557791,2,NaN,3060.72767575,3060.75093,3062.594322208,NaN,NaN
137,16,2,familiarity,0,kitchen,sun_aeqdocilnnpuvuhx.tif,193,1.5,0,0.733333333333333,3062.613699916,3065.074402958,1,NaN,3065.099521291,3065.123084458,3065.849800625,NaN,NaN
137,17,2,familiarity,0,kitchen,sun_aqeaevwwwjoqhzvl.tif,211,1.5,0,1.95,3065.865491875,3068.430103666,1,NaN,3068.459019833,3068.482496916,3070.425886041,NaN,NaN
137,18,2,familiarity,0,kitchen,sun_auticobqsbwgoppi.tif,214,1.5,0,1.1,3070.442249333,3072.922986875,6,NaN,3072.948977833,3072.972433208,3074.065781583,NaN,NaN
137,19,2,familiarity,0,kitchen,sun_aaxxjlsuzvqlgylf.tif,178,1.5,0,1.31666666666667,3074.07409775,3076.671372166,1,NaN,3076.676707166,3076.695070083,3078.005122041,NaN,NaN
137,20,2,familiarity,0,kitchen,sun_amjjdeyrggfqgmom.tif,210,1.5,0,1.78333333333333,3078.023399583,3081.255426416,1,NaN,3081.260968375,3081.279313333,3083.056030291,NaN,NaN
137,21,2,familiarity,0,kitchen,sun_aunzlwrbjumxhwdj.tif,213,1.5,0,1.33333333333333,3083.074810666,3085.912379458,7,NaN,3085.941362458,3085.964728541,3087.291450666,NaN,NaN
137,22,2,familiarity,0,kitchen,sun_awcpdzzznmweyyhv.tif,216,1.5,0,0.95,3087.310069958,3091.542454791,1,NaN,3091.549070416,3091.567512458,3092.510851416,NaN,NaN
137,23,2,familiarity,0,kitchen,sun_akcjzhbbjlbogpdi.tif,209,1.5,0,1.93333333333333,3092.515320708,3095.974369583,5,NaN,3095.980215375,3095.998619208,3097.9253355,NaN,NaN
137,24,2,familiarity,0,kitchen,sun_ahywdevtimnqcsln.tif,204,1.5,0,1.28333333333333,3097.945123208,3101.37513075,6,NaN,3101.380651041,3101.398998083,3102.675724458,NaN,NaN
137,25,2,familiarity,0,kitchen,sun_admlmbcdswaszruo.tif,189,1.5,0,1.43333333333333,3102.690850541,3105.271209,1,NaN,3105.276631166,3105.295267166,3106.721990875,NaN,NaN
