sub_num,trial,block,task,is_practice,category,image,texture,duration,mask_dur,jitter,stim_time,time_of_resp,trial_response,mask_time,fix_time,jit_onset,trial_end,trial_accuracy,RT
116,1,0,usability,1,bathroom,bathroom_practice3.tif,223,1.5,0,0.983333333333333,1853.053300208,1858.944942458,5,NaN,1858.951829833,1858.970560125,1859.947314166,NaN,NaN
116,2,0,usability,1,bathroom,bathroom_practice4.tif,224,1.5,0,1.78333333333333,1859.953345291,1864.361088041,5,NaN,1864.366986791,1864.385350375,1866.162218791,NaN,NaN
116,3,0,usability,1,bathroom,bathroom_practice5.tif,225,1.5,0,1.78333333333333,1866.179274708,1871.265591958,5,NaN,1871.271179458,1871.289562625,1873.066264833,NaN,NaN
116,4,0,usability,1,bathroom,bathroom_practice2.tif,222,1.5,0,1.26666666666667,1873.083847041,1877.481765958,6,NaN,1877.487230541,1877.505603458,1878.765647875,NaN,NaN
116,5,0,usability,1,bathroom,bathroom_practice1.tif,221,1.5,0,1.05,1878.783383875,1882.737276708,6,NaN,1882.74283775,1882.761205458,1883.804579833,NaN,NaN
116,1,1,usability,0,bathroom,sun_apynckhmoftszqoq.tif,157,1.5,0,1.01666666666667,1889.325572166,1894.600884791,6,NaN,1894.606628166,1894.624972458,1895.635002166,NaN,NaN
116,2,1,usability,0,bathroom,sun_avhrdrntsqrjzccq.tif,165,1.5,0,1.61666666666667,1895.643816625,1899.785062333,7,NaN,1899.791339458,1899.809750166,1901.419797416,NaN,NaN
116,3,1,usability,0,bathroom,sun_apkxzenqapsujocq.tif,155,1.5,0,1.16666666666667,1901.437706416,1907.20918125,4,NaN,1907.214829708,1907.23315425,1908.393212291,NaN,NaN
116,4,1,usability,0,bathroom,sun_aoybiabnpadelefl.tif,151,1.5,0,0.983333333333333,1908.403355291,1942.609142125,5,NaN,1942.614776375,1942.633107041,1943.609778333,NaN,NaN
116,5,1,usability,0,bathroom,sun_aggnnqpdorgxpvce.tif,131,1.5,0,0.783333333333333,1943.620910916,1949.360695208,5,NaN,1949.366516458,1949.384904416,1950.161574791,NaN,NaN
116,6,1,usability,0,bathroom,sun_ambriybtogmepttm.tif,146,1.5,0,0.816666666666667,1950.16614525,1959.424594125,5,NaN,1959.430573375,1959.448824958,1960.258829541,NaN,NaN
116,7,1,usability,0,bathroom,sun_agrwbmhcpmfuwmsg.tif,134,1.5,0,1.1,1960.263202458,1964.313006333,6,NaN,1964.318667458,1964.336934125,1965.430302791,NaN,NaN
116,8,1,usability,0,bathroom,sun_amzlamotzwfkwjco.tif,147,1.5,0,1.65,1965.4410375,1968.9687615,6,NaN,1968.97435625,1968.992565416,1970.635937083,NaN,NaN
116,9,1,usability,0,bathroom,sun_afcoljnjfoxjtgja.tif,130,1.5,0,1.13333333333333,1970.653873666,1974.585194916,4,NaN,1974.590755916,1974.609191916,1975.735895333,NaN,NaN
116,10,1,usability,0,bathroom,sun_aofnryafpsjimzsb.tif,150,1.5,0,0.766666666666667,1975.744241416,1979.729101375,5,NaN,1979.734589583,1979.752916916,1980.512922833,NaN,NaN
116,11,1,usability,0,bathroom,sun_apeeialkgkuxddgh.tif,152,1.5,0,1.25,1980.517520416,1984.289145666,7,NaN,1984.294710958,1984.312982541,1985.556346458,NaN,NaN
116,12,1,usability,0,bathroom,sun_aavhrsfjbserjtht.tif,123,1.5,0,1.5,1985.56931225,1989.345194458,5,NaN,1989.350724583,1989.369065458,1990.862437625,NaN,NaN
116,13,1,usability,0,bathroom,labelme_sfxiulhjbhlyiyt.tif,121,1.5,0,1.56666666666667,1990.875220458,1995.673543416,7,NaN,1995.679115625,1995.697476,1997.257527,NaN,NaN
116,14,1,usability,0,bathroom,sun_alkosphxlxwjwgjd.tif,144,1.5,0,1.45,1997.276314833,2000.888653125,7,NaN,2000.894510833,2000.912839125,2002.356227416,NaN,NaN
116,15,1,usability,0,bathroom,sun_atstyziqcmkahyxk.tif,161,1.5,0,1.53333333333333,2002.373125083,2005.82463775,5,NaN,2005.83027375,2005.848498458,2007.375220583,NaN,NaN
116,16,1,usability,0,bathroom,sun_aleqenyvunhactkl.tif,142,1.5,0,0.8,2007.387002458,2012.6328195,6,NaN,2012.63845075,2012.656574833,2013.449914,NaN,NaN
116,17,1,usability,0,bathroom,sun_ahaulkltgpkeeemi.tif,136,1.5,0,0.933333333333333,2013.455410208,2017.36037875,6,NaN,2017.366504375,2017.384803458,2018.311475458,NaN,NaN
116,18,1,usability,0,bathroom,sun_aljolscmmzydegqp.tif,143,1.5,0,1.75,2018.31597575,2023.04876975,5,NaN,2023.054443,2023.072832958,2024.816211083,NaN,NaN
116,19,1,usability,0,bathroom,sun_ahijqszoswveeyji.tif,138,1.5,0,1.48333333333333,2024.83372475,2028.344424375,5,NaN,2028.353335875,2028.372834708,2029.849541958,NaN,NaN
116,20,1,usability,0,bathroom,sun_aclfzgynxzxlbepz.tif,129,1.5,0,1.03333333333333,2029.866255625,2033.425149291,7,NaN,2033.43055825,2033.448924041,2034.475620208,NaN,NaN
116,21,1,usability,0,bathroom,sun_alotolagknyrgtsk.tif,145,1.5,0,1.23333333333333,2034.483906333,2043.033169125,5,NaN,2043.038635541,2043.056952541,2044.283667958,NaN,NaN
116,22,1,usability,0,bathroom,sun_axxbkopsgyouuebh.tif,168,1.5,0,1.28333333333333,2044.301668208,2048.041054958,5,NaN,2048.046611416,2048.065068166,2049.341782041,NaN,NaN
116,23,1,usability,0,bathroom,sun_ahcvzmoyaycdoftf.tif,137,1.5,0,1.66666666666667,2049.357108,2052.688297041,6,NaN,2052.694306083,2052.712873875,2054.372912666,NaN,NaN
116,24,1,usability,0,bathroom,sun_aghyqhbptboemmoq.tif,133,1.5,0,1.26666666666667,2054.390851291,2058.808993833,6,NaN,2058.814510125,2058.832862333,2060.092919708,NaN,NaN
116,25,1,usability,0,bathroom,sun_awnqiikzaispgmwo.tif,166,1.5,0,1.4,2060.108057333,2063.088780083,7,NaN,2063.094243166,2063.11288775,2064.506278125,NaN,NaN
116,1,2,usability,0,bathroom,sun_abjtwfukuwddzted.tif,125,1.5,0,1.66666666666667,2068.799560125,2073.072526041,6,NaN,2073.078101791,2073.096386208,2074.7564455,NaN,NaN
116,2,2,usability,0,bathroom,sun_aqrpegblszgcoujh.tif,158,1.5,0,1.85,2074.774135541,2078.212549583,7,NaN,2078.241354583,2078.264261625,2080.10764275,NaN,NaN
116,3,2,usability,0,bathroom,sun_acgyywnybuveqsro.tif,128,1.5,0,1.65,2080.125316458,2083.392049958,6,NaN,2083.422901416,2083.443708833,2085.087093916,NaN,NaN
116,4,2,usability,0,bathroom,sun_azqyogdvyhahyram.tif,170,1.5,0,0.95,2085.102108833,2090.880805791,4,NaN,2090.887210583,2090.905441208,2091.848780041,NaN,NaN
116,5,2,usability,0,bathroom,sun_apmqjbnwghzuhhzh.tif,156,1.5,0,0.783333333333333,2091.8532285,2096.257005333,5,NaN,2096.2624765,2096.280822458,2097.057493583,NaN,NaN
116,6,2,usability,0,bathroom,sun_ajlawzvmubibwbpy.tif,140,1.5,0,1.13333333333333,2097.062078125,2100.560618125,5,NaN,2100.56598725,2100.584350416,2101.71105575,NaN,NaN
116,7,2,usability,0,bathroom,sun_akiytfaagpdsphgz.tif,141,1.5,0,1.63333333333333,2101.720106958,2105.816790708,4,NaN,2105.822413708,2105.840724083,2107.467432375,NaN,NaN
116,8,2,usability,0,bathroom,sun_acduarbnmmoglmiv.tif,126,1.5,0,1.2,2107.482702333,2112.848600208,5,NaN,2112.854335833,2112.87251975,2114.065876416,NaN,NaN
116,9,2,usability,0,bathroom,sun_ahqjwnzgolcaoidx.tif,139,1.5,0,1.71666666666667,2114.079720916,2118.20089625,5,NaN,2118.206337875,2118.224697166,2119.934727875,NaN,NaN
116,10,2,usability,0,bathroom,sun_asfwthctfqerjvxr.tif,159,1.5,0,0.9,2119.953203333,2126.168559625,5,NaN,2126.174276458,2126.192674625,2127.086012,NaN,NaN
116,11,2,usability,0,bathroom,sun_apjevzvycyhuqghb.tif,153,1.5,0,0.9,2127.090619833,2130.873083416,4,NaN,2130.8785365,2130.896898458,2131.79023775,NaN,NaN
116,12,2,usability,0,bathroom,sun_agguqiubmwhqqunb.tif,132,1.5,0,0.766666666666667,2131.795640416,2136.35237625,4,NaN,2136.357932833,2136.376217416,2137.136222083,NaN,NaN
116,13,2,usability,0,bathroom,sun_acegryoqftbzowsg.tif,127,1.5,0,0.966666666666667,2137.140695875,2140.736943083,5,NaN,2140.742425333,2140.760649083,2141.720654791,NaN,NaN
116,14,2,usability,0,bathroom,sun_apkruvsevgegsdwp.tif,154,1.5,0,0.7,2141.725357708,2145.12026625,3,NaN,2145.125761375,2145.144065291,2145.837401708,NaN,NaN
116,15,2,usability,0,bathroom,sun_aunuadmjocsddsrl.tif,162,1.5,0,1.1,2145.841923958,2149.712865291,3,NaN,2149.718336583,2149.737123125,2150.830486416,NaN,NaN
116,16,2,usability,0,bathroom,sun_axyrejkiiaqiurjk.tif,169,1.5,0,1.33333333333333,2150.838446041,2154.600218208,5,NaN,2154.605794875,2154.6241025,2155.950821458,NaN,NaN
116,17,2,usability,0,bathroom,sun_ausgutylgojavyoq.tif,163,1.5,0,1.15,2155.968752666,2159.952699958,5,NaN,2159.958185583,2159.976611083,2161.119981291,NaN,NaN
116,18,2,usability,0,bathroom,sun_aapitsgbtktqubfy.tif,122,1.5,0,1.28333333333333,2161.12842,2166.400544708,5,NaN,2166.406082083,2166.424599083,2167.701309125,NaN,NaN
116,19,2,usability,0,bathroom,sun_agyqfjcfkdcydepw.tif,135,1.5,0,1.35,2167.717848208,2171.112318833,4,NaN,2171.117902541,2171.136482125,2172.479870125,NaN,NaN
116,20,2,usability,0,bathroom,sun_abapwbhyhkfixyex.tif,124,1.5,0,1.43333333333333,2172.496909458,2176.695988916,5,NaN,2176.701757291,2176.720199708,2178.146911541,NaN,NaN
116,21,2,usability,0,bathroom,sun_auzqhkafidnkrwmo.tif,164,1.5,0,0.916666666666667,2178.164467958,2181.728121583,6,NaN,2181.733838708,2181.75225525,2182.6622605,NaN,NaN
116,22,2,usability,0,bathroom,sun_anryaplzeujmzfkd.tif,149,1.5,0,0.766666666666667,2182.666844458,2186.15218,4,NaN,2186.157752291,2186.175987583,2186.935992666,NaN,NaN
116,23,2,usability,0,bathroom,sun_anhioqovhscjqqwb.tif,148,1.5,0,0.866666666666667,2186.941202625,2191.088900833,5,NaN,2191.09438825,2191.11273375,2191.972739791,NaN,NaN
116,24,2,usability,0,bathroom,sun_axldvoqbuvuggfmq.tif,167,1.5,0,0.833333333333333,2191.977955625,2195.336825208,5,NaN,2195.342403416,2195.360775833,2196.187447416,NaN,NaN
116,25,2,usability,0,bathroom,sun_aspsyogrekjtfozg.tif,160,1.5,0,0.75,2196.19267525,2200.032650541,5,NaN,2200.038125416,2200.0563885,2200.799726458,NaN,NaN
