slide,sub1,sub2,pairID,trialID,stim1,stim2,instructionsLoop.thisRepN,instructionsLoop.thisTrialN,instructionsLoop.thisN,instructionsLoop.thisIndex,practice.thisRepN,practice.thisTrialN,practice.thisN,practice.thisIndex,trials.thisRepN,trials.thisTrialN,trials.thisN,trials.thisIndex,thisRow.t,notes,preparation.started,preparation.stopped,instructions.started,startResponse.started,slide_img.started,instructions.stopped,startResponse.keys,startResponse.rt,startResponse.duration,trial.started,polygon.started,polygon_2.started,image1.started,image2.started,rating_1.started,question.started,rating_2.started,question_2.started,block_text.started,trial.stopped,stim1pos,stim2pos,block,rating_1.response,rating_1.rt,rating_2.response,rating_2.rt,ITI.started,text.started,text.stopped,ITI.stopped,practice_over.started,text_2.started,space_practice_over.started,practice_over.stopped,space_practice_over.keys,space_practice_over.rt,space_practice_over.duration,breakBlocks.started,breakBlocks.stopped,startBlock.keys,startBlock.started,startBlock.rt,startBlock.duration,end.started,message_end.started,key_resp.started,end.stopped,key_resp.keys,key_resp.rt,key_resp.duration,participant,session,session_number,date,expName,psychopyVersion,frameRate,expStart,
instructions/Slide1.jpg,,,,,,,0,0,0,0,,,,,,,,,0.020821333000185405,,0.00197966600012478,0.002092625000159387,0.007560541000202647,0.020821333000185405,0.020821333000185405,16.304970750000166,space,16.283909084000015,None,,,,,,,,,,,,,,,,,,,,,,,,,,,,,,,,,,,,,,,,,,,203,bathroom,1,2024-03-13_15h47.31.880,image_similarity_rating,2023.2.3,None,2024-03-13 15h48.00.225345 +0100,
instructions/Slide3.jpg,,,,,,,0,1,1,1,,,,,,,,,16.331028791000108,,,,16.306020791000037,16.331028791000108,16.331028791000108,36.87471437500017,space,20.54348062500003,None,,,,,,,,,,,,,,,,,,,,,,,,,,,,,,,,,,,,,,,,,,,203,bathroom,1,2024-03-13_15h47.31.880,image_similarity_rating,2023.2.3,None,2024-03-13 15h48.00.225345 +0100,
instructions/Slide4.jpg,,,,,,,0,2,2,2,,,,,,,,,36.900722833000145,,,,36.87526275000005,36.900722833000145,36.900722833000145,44.56143254100016,space,7.660324375000073,None,,,,,,,,,,,,,,,,,,,,,,,,,,,,,,,,,,,,,,,,,,,203,bathroom,1,2024-03-13_15h47.31.880,image_similarity_rating,2023.2.3,None,2024-03-13 15h48.00.225345 +0100,
instructions/Slide5.jpg,,,,,,,0,3,3,3,,,,,,,,,44.58710850000011,,,,44.56242666600019,44.58710850000011,44.58710850000011,47.094304083,space,2.5068283750001683,None,,,,,,,,,,,,,,,,,,,,,,,,,,,,,,,,,,,,,,,,,,,203,bathroom,1,2024-03-13_15h47.31.880,image_similarity_rating,2023.2.3,None,2024-03-13 15h48.00.225345 +0100,
,110,128,practice,2,stimuli/own/bathroom/110_bat.jpg,stimuli/own/bathroom/128_bat.jpg,,,,,0,0,0,1,,,,,47.294158125000195,,,,,,,,,,,47.112694875000216,47.294158125000195,47.294158125000195,47.294158125000195,47.294158125000195,47.294158125000195,47.294158125000195,47.294158125000195,47.294158125000195,47.294158125000195,86.73390216600001,-7,7,0,1.0,12.848485209000046,3.0,23.954412042000058,86.73413341600008,86.73923904100002,87.19225033300017,87.02390379100007,,,,,,,,,,,,,,,,,,,,,203,bathroom,1,2024-03-13_15h47.31.880,image_similarity_rating,2023.2.3,None,2024-03-13 15h48.00.225345 +0100,
,110,133,practice,1,stimuli/own/bathroom/110_bat.jpg,stimuli/own/bathroom/133_bat.jpg,,,,,0,1,1,0,,,,,87.19225033300017,,,,,,,,,,,87.02434370800006,87.19225033300017,87.19225033300017,87.19225033300017,87.19225033300017,87.19225033300017,87.19225033300017,87.19225033300017,87.19225033300017,87.19225033300017,121.47939566600007,7,-7,0,4.0,22.651083749999998,3.0,34.17741016700006,121.47954529100002,121.48930200000018,121.94617762500002,121.7736675000001,,,,,,,,,,,,,,,,,,,,,203,bathroom,1,2024-03-13_15h47.31.880,image_similarity_rating,2023.2.3,None,2024-03-13 15h48.00.225345 +0100,
,128,133,practice,6,stimuli/own/bathroom/128_bat.jpg,stimuli/own/bathroom/133_bat.jpg,,,,,0,2,2,5,,,,,121.94617762500002,,,,,,,,,,,121.77415666600018,121.94617762500002,121.94617762500002,121.94617762500002,121.94617762500002,121.94617762500002,121.94617762500002,121.94617762500002,121.94617762500002,121.94617762500002,138.5594849160002,7,-7,0,1.0,9.244304624999813,1.0,16.44318825000005,138.5596326660002,138.56157316600002,139.01093612500017,138.84436800000003,,,,,,,,,,,,,,,,,,,,,203,bathroom,1,2024-03-13_15h47.31.880,image_similarity_rating,2023.2.3,None,2024-03-13 15h48.00.225345 +0100,
,107,128,practice,7,stimuli/own/bathroom/107_bat.jpg,stimuli/own/bathroom/128_bat.jpg,,,,,0,3,3,6,,,,,139.01093612500017,,,,,,,,,,,138.8447645000001,139.01093612500017,139.01093612500017,139.01093612500017,139.01093612500017,139.01093612500017,139.01093612500017,139.01093612500017,139.01093612500017,139.01093612500017,144.3549491660001,-7,7,0,1.0,4.552766958999882,1.0,5.133662333000075,144.3550895410001,144.35742745800007,144.80924679100008,144.64423645800002,,,,,,,,,,,,,,,,,,,,,203,bathroom,1,2024-03-13_15h47.31.880,image_similarity_rating,2023.2.3,None,2024-03-13 15h48.00.225345 +0100,
,110,107,practice,4,stimuli/own/bathroom/110_bat.jpg,stimuli/own/bathroom/107_bat.jpg,,,,,0,4,4,3,,,,,144.80924679100008,,,,,,,,,,,144.64461154100013,144.80924679100008,144.80924679100008,144.80924679100008,144.80924679100008,144.80924679100008,144.80924679100008,144.80924679100008,144.80924679100008,144.80924679100008,165.50024683300012,7,-7,0,3.0,14.341082790999963,3.0,20.478268500000013,165.50038925000013,165.505604166,165.9577669580001,165.79014937500006,,,,,,,,,,,,,,,,,,,,,203,bathroom,1,2024-03-13_15h47.31.880,image_similarity_rating,2023.2.3,None,2024-03-13 15h48.00.225345 +0100,
,107,133,practice,9,stimuli/own/bathroom/107_bat.jpg,stimuli/own/bathroom/133_bat.jpg,,,,,0,5,5,8,,,,,165.9577669580001,,,,,,,,,,,165.79059120800002,165.9577669580001,165.9577669580001,165.9577669580001,165.9577669580001,165.9577669580001,165.9577669580001,165.9577669580001,165.9577669580001,165.9577669580001,184.8671027910002,7,-7,0,2.0,15.496350166999946,4.0,18.83408004199987,184.86724333300003,184.8720534160002,185.3232841250001,185.15679491600008,,,,,,,,,,,,,,,,,,,,,203,bathroom,1,2024-03-13_15h47.31.880,image_similarity_rating,2023.2.3,None,2024-03-13 15h48.00.225345 +0100,
,107,108,practice,5,stimuli/own/bathroom/107_bat.jpg,stimuli/own/bathroom/108_bat.jpg,,,,,0,6,6,4,,,,,185.3232841250001,,,,,,,,,,,185.15723175000016,185.3232841250001,185.3232841250001,185.3232841250001,185.3232841250001,185.3232841250001,185.3232841250001,185.3232841250001,185.3232841250001,185.3232841250001,206.1592353330002,7,-7,0,3.0,15.204960833000086,2.0,20.55657333299996,206.15938591600002,206.16132329100014,206.61590637500012,206.44452854100018,,,,,,,,,,,,,,,,,,,,,203,bathroom,1,2024-03-13_15h47.31.880,image_similarity_rating,2023.2.3,None,2024-03-13 15h48.00.225345 +0100,
,128,108,practice,3,stimuli/own/bathroom/128_bat.jpg,stimuli/own/bathroom/108_bat.jpg,,,,,0,7,7,2,,,,,206.61590637500012,,,,,,,,,,,206.44496966600013,206.61590637500012,206.61590637500012,206.61590637500012,206.61590637500012,206.61590637500012,206.61590637500012,206.61590637500012,206.61590637500012,206.61590637500012,212.0707778750002,-7,7,0,2.0,2.7852499999999054,2.0,4.987781916000131,212.07092216600017,212.0737175830002,212.53306241600012,212.360771333,,,,,,,,,,,,,,,,,,,,,203,bathroom,1,2024-03-13_15h47.31.880,image_similarity_rating,2023.2.3,None,2024-03-13 15h48.00.225345 +0100,
,108,110,practice,8,stimuli/own/bathroom/108_bat.jpg,stimuli/own/bathroom/110_bat.jpg,,,,,0,8,8,7,,,,,212.53306241600012,,,,,,,,,,,212.36122087500007,212.53306241600012,212.53306241600012,212.53306241600012,212.53306241600012,212.53306241600012,212.53306241600012,212.53306241600012,212.53306241600012,212.53306241600012,222.7744781250001,7,-7,0,3.0,6.581811832999847,3.0,10.118042916999912,222.7746205410001,222.7765494580001,223.2246979160002,223.06037162500002,,,,,,,,,,,,,,,,,,,,,203,bathroom,1,2024-03-13_15h47.31.880,image_similarity_rating,2023.2.3,None,2024-03-13 15h48.00.225345 +0100,
,108,133,practice,10,stimuli/own/bathroom/108_bat.jpg,stimuli/own/bathroom/133_bat.jpg,,,,,0,9,9,9,,,,,223.2246979160002,,,,,,,,,,,223.060759791,223.2246979160002,223.2246979160002,223.2246979160002,223.2246979160002,223.2246979160002,223.2246979160002,223.2246979160002,223.2246979160002,223.2246979160002,232.50862133300006,7,-7,0,4.0,7.325851791999867,2.0,6.280911042000071,232.50876462500014,232.51069200000006,232.80588979100003,232.79433979100008,,,,,,,,,,,,,,,,,,,,,203,bathroom,1,2024-03-13_15h47.31.880,image_similarity_rating,2023.2.3,None,2024-03-13 15h48.00.225345 +0100,
,,,,,,,,,,,,,,,,,,,,,,,,,,,,,,,,,,,,,,,,,,,,,,,,,,,,232.79443700000002,232.80588979100003,232.80588979100003,234.6304838330002,space,1.8243519170000582,None,,,,,,,,,,,,,,203,bathroom,1,2024-03-13_15h47.31.880,image_similarity_rating,2023.2.3,None,2024-03-13 15h48.00.225345 +0100,
,106,135,183,183,stimuli/own/bathroom/106_bat.jpg,stimuli/own/bathroom/135_bat.jpg,,,,,,,,,0,0,0,182,234.68087691600022,,,,,,,,,,,234.97328458300012,235.15428354100004,235.15428354100004,235.15428354100004,235.15428354100004,235.15428354100004,235.15428354100004,235.15428354100004,235.15428354100004,235.15428354100004,279.0427446660001,7,-7,1,2.0,39.8988869169998,2.0,43.581315082999936,234.67864854100003,234.68087691600022,235.15428354100004,234.97326716600014,,,,,,,,234.66482287500003,234.67834000000016,None,,,,,,,,,,,203,bathroom,1,2024-03-13_15h47.31.880,image_similarity_rating,2023.2.3,None,2024-03-13 15h48.00.225345 +0100,
,101,104,3,3,stimuli/own/bathroom/101_bat.jpg,stimuli/own/bathroom/104_bat.jpg,,,,,,,,,0,1,1,2,279.05505866600015,,,,,,,,,,,279.3397960000002,279.51205062500003,279.51205062500003,279.51205062500003,279.51205062500003,279.51205062500003,279.51205062500003,279.51205062500003,279.51205062500003,279.51205062500003,307.0203657080001,7,-7,1,2.0,18.915574000000106,3.0,27.36026991699987,279.0493315000001,279.05505866600015,279.51205062500003,279.3397784160002,,,,,,,,279.0433182080001,279.0492810830001,None,,,,,,,,,,,203,bathroom,1,2024-03-13_15h47.31.880,image_similarity_rating,2023.2.3,None,2024-03-13 15h48.00.225345 +0100,
,103,124,84,84,stimuli/own/bathroom/103_bat.jpg,stimuli/own/bathroom/124_bat.jpg,,,,,,,,,0,2,2,83,307.0260373750002,,,,,,,,,,,307.3104215000001,307.4795693750002,307.4795693750002,307.4795693750002,307.4795693750002,307.4795693750002,307.4795693750002,307.4795693750002,307.4795693750002,307.4795693750002,323.950143583,-7,7,1,4.0,12.426935666999952,3.0,16.330717708000066,307.02411737500006,307.0260373750002,307.4795693750002,307.3104057080002,,,,,,,,307.0206062080001,307.02406966600006,None,,,,,,,,,,,203,bathroom,1,2024-03-13_15h47.31.880,image_similarity_rating,2023.2.3,None,2024-03-13 15h48.00.225345 +0100,
,116,123,326,326,stimuli/own/bathroom/116_bat.jpg,stimuli/own/bathroom/123_bat.jpg,,,,,,,,,0,3,3,325,323.9562074580001,,,,,,,,,,,324.23937004100003,324.40728508300003,324.40728508300003,324.40728508300003,324.40728508300003,324.40728508300003,324.40728508300003,324.40728508300003,324.40728508300003,324.40728508300003,357.4072173750001,-7,7,1,1.0,24.026190709000048,4.0,32.538388208000015,323.95388512500017,323.9562074580001,324.40728508300003,324.2393541660001,,,,,,,,323.9503658750002,323.95383712500006,None,,,,,,,,,,,203,bathroom,1,2024-03-13_15h47.31.880,image_similarity_rating,2023.2.3,None,2024-03-13 15h48.00.225345 +0100,
,124,132,482,482,stimuli/own/bathroom/124_bat.jpg,stimuli/own/bathroom/132_bat.jpg,,,,,,,,,0,4,4,481,357.41296116600006,,,,,,,,,,,357.7060287080001,357.8745549160001,357.8745549160001,357.8745549160001,357.8745549160001,357.8745549160001,357.8745549160001,357.8745549160001,357.8745549160001,357.8745549160001,368.24073791600017,7,-7,1,3.0,10.316187166999953,4.0,3.6560997920000773,357.41104962500003,357.41296116600006,357.8745549160001,357.70601050000005,,,,,,,,357.4074454160002,357.4110017500002,None,,,,,,,,,,,203,bathroom,1,2024-03-13_15h47.31.880,image_similarity_rating,2023.2.3,None,2024-03-13 15h48.00.225345 +0100,
,101,127,22,22,stimuli/own/bathroom/101_bat.jpg,stimuli/own/bathroom/127_bat.jpg,,,,,,,,,0,5,5,21,368.2465477500002,,,,,,,,,,,368.5398555410002,368.7068938750001,368.7068938750001,368.7068938750001,368.7068938750001,368.7068938750001,368.7068938750001,368.7068938750001,368.7068938750001,368.7068938750001,382.25711475,-7,7,1,2.0,10.660574249999854,5.0,13.288636332999886,368.2444573330001,368.2465477500002,368.7068938750001,368.53983575000007,,,,,,,,368.2409642910002,368.24440908300016,None,,,,,,,,,,,203,bathroom,1,2024-03-13_15h47.31.880,image_similarity_rating,2023.2.3,None,2024-03-13 15h48.00.225345 +0100,
,101,109,6,6,stimuli/own/bathroom/101_bat.jpg,stimuli/own/bathroom/109_bat.jpg,,,,,,,,,0,6,6,5,382.26283179100005,,,,,,,,,,,382.5559517500001,382.72209962500006,382.72209962500006,382.72209962500006,382.72209962500006,382.72209962500006,382.72209962500006,382.72209962500006,382.72209962500006,382.72209962500006,393.25342550000005,-7,7,1,2.0,5.086189416000025,4.0,10.256890165999948,382.26092091600003,382.26283179100005,382.72209962500006,382.5559386660002,,,,,,,,382.25733775000003,382.2608727080001,None,,,,,,,,,,,203,bathroom,1,2024-03-13_15h47.31.880,image_similarity_rating,2023.2.3,None,2024-03-13 15h48.00.225345 +0100,
,112,121,252,252,stimuli/own/bathroom/112_bat.jpg,stimuli/own/bathroom/121_bat.jpg,,,,,,,,,0,7,7,251,393.2591064160001,,,,,,,,,,,393.543165541,393.7080282910001,393.7080282910001,393.7080282910001,393.7080282910001,393.7080282910001,393.7080282910001,393.7080282910001,393.7080282910001,393.7080282910001,410.3741831660002,7,-7,1,2.0,12.891030541999953,4.0,16.52335599999992,393.2571855000001,393.2591064160001,393.7080282910001,393.5431490830001,,,,,,,,393.25367137500007,393.25713691600004,None,,,,,,,,,,,203,bathroom,1,2024-03-13_15h47.31.880,image_similarity_rating,2023.2.3,None,2024-03-13 15h48.00.225345 +0100,
,109,136,212,212,stimuli/own/bathroom/109_bat.jpg,stimuli/own/bathroom/136_bat.jpg,,,,,,,,,0,8,8,211,410.3878366660001,,,,,,,,,,,410.672445916,410.8373408750001,410.8373408750001,410.8373408750001,410.8373408750001,410.8373408750001,410.8373408750001,410.8373408750001,410.8373408750001,410.8373408750001,416.8156818330001,7,-7,1,2.0,4.209383875000185,4.0,5.441418790999933,410.3783010410002,410.3878366660001,410.8373408750001,410.6724325,,,,,,,,410.3744320830001,410.3782483750001,None,,,,,,,,,,,203,bathroom,1,2024-03-13_15h47.31.880,image_similarity_rating,2023.2.3,None,2024-03-13 15h48.00.225345 +0100,
,116,134,335,335,stimuli/own/bathroom/116_bat.jpg,stimuli/own/bathroom/134_bat.jpg,,,,,,,,,0,9,9,334,416.83796870800006,,,,,,,,,,,417.121932666,417.2926926660002,417.2926926660002,417.2926926660002,417.2926926660002,417.2926926660002,417.2926926660002,417.2926926660002,417.2926926660002,417.2926926660002,451.20347237500005,-7,7,1,2.0,26.242522000000008,3.0,33.49750708400006,416.8193852080001,416.83796870800006,,417.1219086660001,,,,,,,,416.8159062080001,416.8193372500002,None,,,,,,,,,,,203,bathroom,1,2024-03-13_15h47.31.880,image_similarity_rating,2023.2.3,None,2024-03-13 15h48.00.225345 +0100,
,117,124,349,349,stimuli/own/bathroom/117_bat.jpg,stimuli/own/bathroom/124_bat.jpg,,,,,,,,,0,10,10,348,451.2089679160001,,,,,,,,,,,451.492968,451.65990983300003,451.65990983300003,451.65990983300003,451.65990983300003,451.65990983300003,451.65990983300003,451.65990983300003,451.65990983300003,451.65990983300003,462.7818756250001,7,-7,1,4.0,9.265287250000029,5.0,10.847803874999954,451.2072169580001,451.2089679160001,451.65990983300003,451.49295462500004,,,,,,,,451.2036982080001,451.2071691660001,None,,,,,,,,,,,203,bathroom,1,2024-03-13_15h47.31.880,image_similarity_rating,2023.2.3,None,2024-03-13 15h48.00.225345 +0100,
,102,131,58,58,stimuli/own/bathroom/102_bat.jpg,stimuli/own/bathroom/131_bat.jpg,,,,,,,,,0,11,11,57,462.78751579100003,,,,,,,,,,,463.07219725000004,463.2394394160001,463.2394394160001,463.2394394160001,463.2394394160001,463.2394394160001,463.2394394160001,463.2394394160001,463.2394394160001,463.2394394160001,470.3733197910001,7,-7,1,1.0,4.654140499999812,3.0,6.948828374999948,462.7856611660002,462.78751579100003,463.2394394160001,463.0721821660002,,,,,,,,462.78209808300016,462.78561383300007,None,,,,,,,,,,,203,bathroom,1,2024-03-13_15h47.31.880,image_similarity_rating,2023.2.3,None,2024-03-13 15h48.00.225345 +0100,
,116,120,323,323,stimuli/own/bathroom/116_bat.jpg,stimuli/own/bathroom/120_bat.jpg,,,,,,,,,0,12,12,322,470.37896083300006,,,,,,,,,,,470.6723465,470.8449310830001,470.8449310830001,470.8449310830001,470.8449310830001,470.8449310830001,470.8449310830001,470.8449310830001,470.8449310830001,470.8449310830001,484.648700833,7,-7,1,3.0,13.140853124999921,3.0,13.592815124999788,470.3770322080002,470.37896083300006,470.8449310830001,470.6723309580002,,,,,,,,470.37355712500016,470.37698420800007,None,,,,,,,,,,,203,bathroom,1,2024-03-13_15h47.31.880,image_similarity_rating,2023.2.3,None,2024-03-13 15h48.00.225345 +0100,
,106,127,177,177,stimuli/own/bathroom/106_bat.jpg,stimuli/own/bathroom/127_bat.jpg,,,,,,,,,0,13,13,176,484.6708437080001,,,,,,,,,,,484.95517491600003,485.1227301660001,485.1227301660001,485.1227301660001,485.1227301660001,485.1227301660001,485.1227301660001,485.1227301660001,485.1227301660001,485.1227301660001,498.5159282080001,7,-7,1,1.0,6.400756917000081,4.0,13.171484040999985,484.6524075000002,484.6708437080001,,484.95515683300005,,,,,,,,484.6489260410001,484.652359875,None,,,,,,,,,,,203,bathroom,1,2024-03-13_15h47.31.880,image_similarity_rating,2023.2.3,None,2024-03-13 15h48.00.225345 +0100,
,116,130,332,332,stimuli/own/bathroom/116_bat.jpg,stimuli/own/bathroom/130_bat.jpg,,,,,,,,,0,14,14,331,498.5221679580002,,,,,,,,,,,498.8055205830001,498.976354375,498.976354375,498.976354375,498.976354375,498.976354375,498.976354375,498.976354375,498.976354375,498.976354375,513.0948506660002,7,-7,1,4.0,13.20182141600003,2.0,13.958146333000059,498.5196547500002,498.5221679580002,498.976354375,498.8054987080002,,,,,,,,498.5161492080001,498.51960695800017,None,,,,,,,,,,,203,bathroom,1,2024-03-13_15h47.31.880,image_similarity_rating,2023.2.3,None,2024-03-13 15h48.00.225345 +0100,
,119,132,397,397,stimuli/own/bathroom/119_bat.jpg,stimuli/own/bathroom/132_bat.jpg,,,,,,,,,0,15,15,396,513.1042018330002,,,,,,,,,,,513.388659208,513.559223791,513.559223791,513.559223791,513.559223791,513.559223791,513.559223791,513.559223791,513.559223791,513.559223791,518.581797583,7,-7,1,3.0,4.99825224999995,1.0,2.497623667000198,513.0985994580001,513.1042018330002,513.559223791,513.3886420410001,,,,,,,,513.095073875,513.0985513330002,None,,,,,,,,,,,203,bathroom,1,2024-03-13_15h47.31.880,image_similarity_rating,2023.2.3,None,2024-03-13 15h48.00.225345 +0100,
,123,137,471,471,stimuli/own/bathroom/123_bat.jpg,stimuli/own/bathroom/137_bat.jpg,,,,,,,,,0,16,16,470,518.5873570000001,,,,,,,,,,,518.8722592080001,519.038298958,519.038298958,519.038298958,519.038298958,519.038298958,519.038298958,519.038298958,519.038298958,519.038298958,523.1772945,7,-7,1,2.0,2.9471244999999726,3.0,3.9901044159998946,518.5854803750001,518.5873570000001,519.038298958,518.8722453750001,,,,,,,,518.5820217910002,518.5854305,None,,,,,,,,,,,203,bathroom,1,2024-03-13_15h47.31.880,image_similarity_rating,2023.2.3,None,2024-03-13 15h48.00.225345 +0100,
,117,135,358,358,stimuli/own/bathroom/117_bat.jpg,stimuli/own/bathroom/135_bat.jpg,,,,,,,,,0,17,17,357,523.1875850410001,,,,,,,,,,,523.47207125,523.6428423750001,523.6428423750001,523.6428423750001,523.6428423750001,523.6428423750001,523.6428423750001,523.6428423750001,523.6428423750001,523.6428423750001,534.3904119580002,7,-7,1,3.0,10.578815333999955,1.0,8.444508334000147,523.1810994580001,523.1875850410001,523.6428423750001,523.4720544160002,,,,,,,,523.177518208,523.181050916,None,,,,,,,,,,,203,bathroom,1,2024-03-13_15h47.31.880,image_similarity_rating,2023.2.3,None,2024-03-13 15h48.00.225345 +0100,
,104,135,124,124,stimuli/own/bathroom/104_bat.jpg,stimuli/own/bathroom/135_bat.jpg,,,,,,,,,0,18,18,123,534.3968030000001,,,,,,,,,,,534.6887471250002,534.8566330830001,534.8566330830001,534.8566330830001,534.8566330830001,534.8566330830001,534.8566330830001,534.8566330830001,534.8566330830001,534.8566330830001,545.9250859160002,-7,7,1,4.0,10.25102554199998,2.0,10.940872541999852,534.3944062500002,534.3968030000001,534.8566330830001,534.6887306660001,,,,,,,,534.3906514160001,534.3943505410002,None,,,,,,,,,,,203,bathroom,1,2024-03-13_15h47.31.880,image_similarity_rating,2023.2.3,None,2024-03-13 15h48.00.225345 +0100,
,103,134,92,92,stimuli/own/bathroom/103_bat.jpg,stimuli/own/bathroom/134_bat.jpg,,,,,,,,,0,19,19,91,545.9373142910001,,,,,,,,,,,546.2218945830002,546.3869839160002,546.3869839160002,546.3869839160002,546.3869839160002,546.3869839160002,546.3869839160002,546.3869839160002,546.3869839160002,546.3869839160002,568.615198208,7,-7,1,3.0,10.99252841700013,2.0,19.946857666999904,545.9288066660001,545.9373142910001,546.3869839160002,546.221881833,,,,,,,,545.925321333,545.928758666,None,,,,,,,,,,,203,bathroom,1,2024-03-13_15h47.31.880,image_similarity_rating,2023.2.3,None,2024-03-13 15h48.00.225345 +0100,
,111,124,229,229,stimuli/own/bathroom/111_bat.jpg,stimuli/own/bathroom/124_bat.jpg,,,,,,,,,0,20,20,228,568.6372419160002,,,,,,,,,,,568.9214845830002,569.0912547080002,569.0912547080002,569.0912547080002,569.0912547080002,569.0912547080002,569.0912547080002,569.0912547080002,569.0912547080002,569.0912547080002,593.1482196660002,-7,7,1,3.0,17.89915525000015,2.0,15.555788041999904,568.6189047500002,568.6372419160002,,568.9214624160002,,,,,,,,568.615422458,568.618856583,None,,,,,,,,,,,203,bathroom,1,2024-03-13_15h47.31.880,image_similarity_rating,2023.2.3,None,2024-03-13 15h48.00.225345 +0100,
,119,139,403,403,stimuli/own/bathroom/119_bat.jpg,stimuli/own/bathroom/139_bat.jpg,,,,,,,,,0,21,21,402,593.170732666,,,,,,,,,,,593.4546705,593.6235161660002,593.6235161660002,593.6235161660002,593.6235161660002,593.6235161660002,593.6235161660002,593.6235161660002,593.6235161660002,593.6235161660002,606.6360957910001,-7,7,1,1.0,12.8600490419999,6.0,8.92765145899989,593.1520574580002,593.170732666,,593.4546495410002,,,,,,,,593.1484511250001,593.1520096660001,None,,,,,,,,,,,203,bathroom,1,2024-03-13_15h47.31.880,image_similarity_rating,2023.2.3,None,2024-03-13 15h48.00.225345 +0100,
,105,114,136,136,stimuli/own/bathroom/105_bat.jpg,stimuli/own/bathroom/114_bat.jpg,,,,,,,,,0,22,22,135,606.6419003750002,,,,,,,,,,,606.9261427910001,607.093116666,607.093116666,607.093116666,607.093116666,607.093116666,607.093116666,607.093116666,607.093116666,607.093116666,616.989492916,-7,7,1,1.0,7.642606500000056,5.0,9.246531624999989,606.6399659160002,606.6419003750002,607.093116666,606.9261289580002,,,,,,,,606.6363277910002,606.6399175000001,None,,,,,,,,,,,203,bathroom,1,2024-03-13_15h47.31.880,image_similarity_rating,2023.2.3,None,2024-03-13 15h48.00.225345 +0100,
,138,139,590,590,stimuli/own/bathroom/138_bat.jpg,stimuli/own/bathroom/139_bat.jpg,,,,,,,,,0,23,23,589,616.9951305410002,,,,,,,,,,,617.287886458,617.4533571660002,617.4533571660002,617.4533571660002,617.4533571660002,617.4533571660002,617.4533571660002,617.4533571660002,617.4533571660002,617.4533571660002,630.160246375,7,-7,1,3.0,11.547324749999916,1.0,12.272684415999947,616.9931894580002,616.9951305410002,617.4533571660002,617.2878725410001,,,,,,,,616.9897201660001,616.993141291,None,,,,,,,,,,,203,bathroom,1,2024-03-13_15h47.31.880,image_similarity_rating,2023.2.3,None,2024-03-13 15h48.00.225345 +0100,
,127,137,525,525,stimuli/own/bathroom/127_bat.jpg,stimuli/own/bathroom/137_bat.jpg,,,,,,,,,0,24,24,524,630.1702580000001,,,,,,,,,,,630.4547867910001,630.6235485410002,630.6235485410002,630.6235485410002,630.6235485410002,630.6235485410002,630.6235485410002,630.6235485410002,630.6235485410002,630.6235485410002,637.293739166,7,-7,1,1.0,5.944366542000125,2.0,6.547141582999984,630.1639530000002,630.1702580000001,630.6235485410002,630.4547581660001,,,,,,,,630.1604690410002,630.1639045000002,None,,,,,,,,,,,203,bathroom,1,2024-03-13_15h47.31.880,image_similarity_rating,2023.2.3,None,2024-03-13 15h48.00.225345 +0100,
,109,117,195,195,stimuli/own/bathroom/109_bat.jpg,stimuli/own/bathroom/117_bat.jpg,,,,,,,,,0,25,25,194,637.3038219580001,,,,,,,,,,,637.58811225,637.7537783330001,637.7537783330001,637.7537783330001,637.7537783330001,637.7537783330001,637.7537783330001,637.7537783330001,637.7537783330001,637.7537783330001,650.1910506660001,-7,7,1,2.0,8.18846362499994,4.0,12.310373333999905,637.297432458,637.3038219580001,637.7537783330001,637.5880987910002,,,,,,,,637.2939646660002,637.2973845830002,None,,,,,,,,,,,203,bathroom,1,2024-03-13_15h47.31.880,image_similarity_rating,2023.2.3,None,2024-03-13 15h48.00.225345 +0100,
,101,140,33,33,stimuli/own/bathroom/101_bat.jpg,stimuli/own/bathroom/140_bat.jpg,,,,,,,,,0,26,26,32,650.203644916,,,,,,,,,,,650.4880745830001,650.6539390830001,650.6539390830001,650.6539390830001,650.6539390830001,650.6539390830001,650.6539390830001,650.6539390830001,650.6539390830001,650.6539390830001,668.702333875,7,-7,1,3.0,15.24419187500007,3.0,17.82436933300005,650.1947676250002,650.203644916,650.6539390830001,650.4880612500001,,,,,,,,650.1912857080001,650.1947190830001,None,,,,,,,,,,,203,bathroom,1,2024-03-13_15h47.31.880,image_similarity_rating,2023.2.3,None,2024-03-13 15h48.00.225345 +0100,
,116,137,338,338,stimuli/own/bathroom/116_bat.jpg,stimuli/own/bathroom/137_bat.jpg,,,,,,,,,0,27,27,337,668.7080285410002,,,,,,,,,,,668.9920772080002,669.1577716250001,669.1577716250001,669.1577716250001,669.1577716250001,669.1577716250001,669.1577716250001,669.1577716250001,669.1577716250001,669.1577716250001,680.7145017500002,7,-7,1,2.0,8.538015708999865,1.0,11.343900832999907,668.7060976250002,668.7080285410002,669.1577716250001,668.9920640830001,,,,,,,,668.702580416,668.7060496250001,None,,,,,,,,,,,203,bathroom,1,2024-03-13_15h47.31.880,image_similarity_rating,2023.2.3,None,2024-03-13 15h48.00.225345 +0100,
,102,135,61,61,stimuli/own/bathroom/102_bat.jpg,stimuli/own/bathroom/135_bat.jpg,,,,,,,,,0,28,28,60,680.7199852910001,,,,,,,,,,,681.0046275000002,681.1725905830001,681.1725905830001,681.1725905830001,681.1725905830001,681.1725905830001,681.1725905830001,681.1725905830001,681.1725905830001,681.1725905830001,690.7059161250002,-7,7,1,1.0,9.250581457999942,4.0,5.346942624999883,680.71822625,680.7199852910001,681.1725905830001,681.0046116660001,,,,,,,,680.7147254580002,680.7181786250001,None,,,,,,,,,,,203,bathroom,1,2024-03-13_15h47.31.880,image_similarity_rating,2023.2.3,None,2024-03-13 15h48.00.225345 +0100,
,111,130,234,234,stimuli/own/bathroom/111_bat.jpg,stimuli/own/bathroom/130_bat.jpg,,,,,,,,,0,29,29,233,690.7115832910001,,,,,,,,,,,691.0045809160001,691.1706407500001,691.1706407500001,691.1706407500001,691.1706407500001,691.1706407500001,691.1706407500001,691.1706407500001,691.1706407500001,691.1706407500001,711.2521880000002,-7,7,1,1.0,13.494813208000096,3.0,19.85660974999996,690.709744,690.7115832910001,691.1706407500001,691.004565166,,,,,,,,690.706145458,690.7096953330001,None,,,,,,,,,,,203,bathroom,1,2024-03-13_15h47.31.880,image_similarity_rating,2023.2.3,None,2024-03-13 15h48.00.225345 +0100,
,122,124,444,444,stimuli/own/bathroom/122_bat.jpg,stimuli/own/bathroom/124_bat.jpg,,,,,,,,,0,30,30,443,711.2577088330002,,,,,,,,,,,711.5422867910002,711.709582958,711.709582958,711.709582958,711.709582958,711.709582958,711.709582958,711.709582958,711.709582958,711.709582958,723.5854440410001,-7,7,1,2.0,9.039712875000077,2.0,11.45118958299986,711.2559485830002,711.2577088330002,711.709582958,711.542273666,,,,,,,,711.252436791,711.255899791,None,,,,,,,,,,,203,bathroom,1,2024-03-13_15h47.31.880,image_similarity_rating,2023.2.3,None,2024-03-13 15h48.00.225345 +0100,
,101,111,7,7,stimuli/own/bathroom/101_bat.jpg,stimuli/own/bathroom/111_bat.jpg,,,,,,,,,0,31,31,6,723.591262916,,,,,,,,,,,723.875317083,724.041164083,724.041164083,724.041164083,724.041164083,724.041164083,724.041164083,724.041164083,724.041164083,724.041164083,730.5399272500001,7,-7,1,2.0,4.45493054099984,1.0,6.265395124999941,723.5892919160001,723.591262916,724.041164083,723.8753052080001,,,,,,,,723.5856942910002,723.5892445410002,None,,,,,,,,,,,203,bathroom,1,2024-03-13_15h47.31.880,image_similarity_rating,2023.2.3,None,2024-03-13 15h48.00.225345 +0100,
,106,126,176,176,stimuli/own/bathroom/106_bat.jpg,stimuli/own/bathroom/126_bat.jpg,,,,,,,,,0,32,32,175,730.5458739160001,,,,,,,,,,,730.8378036660001,731.0083735830001,731.0083735830001,731.0083735830001,731.0083735830001,731.0083735830001,731.0083735830001,731.0083735830001,731.0083735830001,731.0083735830001,737.7065050830001,7,-7,1,1.0,5.824676375000081,5.0,4.544792416000064,730.5437772080002,730.5458739160001,731.0083735830001,730.837786625,,,,,,,,730.5401639580002,730.5437282910002,None,,,,,,,,,,,203,bathroom,1,2024-03-13_15h47.31.880,image_similarity_rating,2023.2.3,None,2024-03-13 15h48.00.225345 +0100,
,104,131,121,612,stimuli/own/bathroom/104_bat.jpg,stimuli/own/bathroom/131_bat.jpg,,,,,,,,,0,33,33,611,737.7119619160001,,,,,,,,,,,738.0043880410001,738.1776811250002,738.1776811250002,738.1776811250002,738.1776811250002,738.1776811250002,738.1776811250002,738.1776811250002,738.1776811250002,738.1776811250002,746.259797208,-7,7,1,1.0,7.920371208000006,2.0,6.882162333000224,737.7102080410002,737.7119619160001,738.1776811250002,738.0043726250001,,,,,,,,737.706729083,737.7101605830001,None,,,,,,,,,,,203,bathroom,1,2024-03-13_15h47.31.880,image_similarity_rating,2023.2.3,None,2024-03-13 15h48.00.225345 +0100,
,101,121,16,16,stimuli/own/bathroom/101_bat.jpg,stimuli/own/bathroom/121_bat.jpg,,,,,,,,,0,34,34,15,746.2698405829999,,,,,,,,,,,746.5547389999999,746.7280774160001,746.7280774160001,746.7280774160001,746.7280774160001,746.7280774160001,746.7280774160001,746.7280774160001,746.7280774160001,746.7280774160001,752.0057434580001,-7,7,1,3.0,5.266463417000068,1.0,3.93193808299975,746.2634814160003,746.2698405829999,746.7280774160001,746.554717541,,,,,,,,746.2600206250002,746.2634331659999,None,,,,,,,,,,,203,bathroom,1,2024-03-13_15h47.31.880,image_similarity_rating,2023.2.3,None,2024-03-13 15h48.00.225345 +0100,
,124,141,490,490,stimuli/own/bathroom/124_bat.jpg,stimuli/own/bathroom/141_bat.jpg,,,,,,,,,0,35,35,489,752.011343458,,,,,,,,,,,752.3045026249999,752.4758670829999,752.4758670829999,752.4758670829999,752.4758670829999,752.4758670829999,752.4758670829999,752.4758670829999,752.4758670829999,752.4758670829999,759.6741852910002,7,-7,1,2.0,5.438981209000303,2.0,7.030500958000175,752.0094208749999,752.011343458,752.4758670829999,752.3044857500001,,,,,,,,752.0059691660001,752.0093734580003,None,,,,,,,,,,,203,bathroom,1,2024-03-13_15h47.31.880,image_similarity_rating,2023.2.3,None,2024-03-13 15h48.00.225345 +0100,
,120,126,411,411,stimuli/own/bathroom/120_bat.jpg,stimuli/own/bathroom/126_bat.jpg,,,,,,,,,0,36,36,410,759.686491708,,,,,,,,,,,759.9711426660003,760.1362422079999,760.1362422079999,760.1362422079999,760.1362422079999,760.1362422079999,760.1362422079999,760.1362422079999,760.1362422079999,760.1362422079999,766.0523820000001,-7,7,1,1.0,2.4868457079996915,2.0,3.3626986670001315,759.6779843330003,759.686491708,760.1362422079999,759.9711291660003,,,,,,,,759.67440775,759.677936416,None,,,,,,,,,,,203,bathroom,1,2024-03-13_15h47.31.880,image_similarity_rating,2023.2.3,None,2024-03-13 15h48.00.225345 +0100,
,116,129,331,331,stimuli/own/bathroom/116_bat.jpg,stimuli/own/bathroom/129_bat.jpg,,,,,,,,,0,37,37,330,766.0578513329999,,,,,,,,,,,766.3417919159999,766.509088083,766.509088083,766.509088083,766.509088083,766.509088083,766.509088083,766.509088083,766.509088083,766.509088083,771.6805027080002,-7,7,1,2.0,5.076517667000189,1.0,4.208897666000212,766.056118708,766.0578513329999,766.509088083,766.3417782080003,,,,,,,,766.0526083750003,766.0560696660002,None,,,,,,,,,,,203,bathroom,1,2024-03-13_15h47.31.880,image_similarity_rating,2023.2.3,None,2024-03-13 15h48.00.225345 +0100,
,111,125,230,230,stimuli/own/bathroom/111_bat.jpg,stimuli/own/bathroom/125_bat.jpg,,,,,,,,,0,38,38,229,771.686415166,,,,,,,,,,,771.971430416,772.136977416,772.136977416,772.136977416,772.136977416,772.136977416,772.136977416,772.136977416,772.136977416,772.136977416,779.1974480830002,-7,7,1,1.0,6.994762332999926,2.0,5.670345250000082,771.6841792080002,771.686415166,772.136977416,771.9714172910001,,,,,,,,771.680722625,771.6841314999999,None,,,,,,,,,,,203,bathroom,1,2024-03-13_15h47.31.880,image_similarity_rating,2023.2.3,None,2024-03-13 15h48.00.225345 +0100,
,106,123,173,173,stimuli/own/bathroom/106_bat.jpg,stimuli/own/bathroom/123_bat.jpg,,,,,,,,,0,39,39,172,779.2032566660002,,,,,,,,,,,779.4877320410003,779.6547278750002,779.6547278750002,779.6547278750002,779.6547278750002,779.6547278750002,779.6547278750002,779.6547278750002,779.6547278750002,779.6547278750002,785.8640562080002,7,-7,1,1.0,4.610625583000001,2.0,5.561002834000192,779.2011260000002,779.2032566660002,779.6547278750002,779.4877161659999,,,,,,,,779.1976699580002,779.2010781659999,None,,,,,,,,,,,203,bathroom,1,2024-03-13_15h47.31.880,image_similarity_rating,2023.2.3,None,2024-03-13 15h48.00.225345 +0100,
,122,127,447,447,stimuli/own/bathroom/122_bat.jpg,stimuli/own/bathroom/127_bat.jpg,,,,,,,,,0,40,40,446,785.8696240830002,,,,,,,,,,,786.1541597080002,786.3188841250001,786.3188841250001,786.3188841250001,786.3188841250001,786.3188841250001,786.3188841250001,786.3188841250001,786.3188841250001,786.3188841250001,793.5184041250002,7,-7,1,1.0,6.193713084000137,3.0,5.432642624999971,785.8678414160001,785.8696240830002,786.3188841250001,786.1541455409999,,,,,,,,785.864281458,785.8677937909999,None,,,,,,,,,,,203,bathroom,1,2024-03-13_15h47.31.880,image_similarity_rating,2023.2.3,None,2024-03-13 15h48.00.225345 +0100,
,105,137,156,156,stimuli/own/bathroom/105_bat.jpg,stimuli/own/bathroom/137_bat.jpg,,,,,,,,,0,41,41,155,793.5240777910001,,,,,,,,,,,793.8084132500001,793.974350708,793.974350708,793.974350708,793.974350708,793.974350708,793.974350708,793.974350708,793.974350708,793.974350708,797.3972457910002,-7,7,1,1.0,2.8601819579998846,1.0,3.288121874999888,793.5221495410003,793.5240777910001,793.974350708,793.8084000830002,,,,,,,,793.518634625,793.522101666,None,,,,,,,,,,,203,bathroom,1,2024-03-13_15h47.31.880,image_similarity_rating,2023.2.3,None,2024-03-13 15h48.00.225345 +0100,
,101,135,28,28,stimuli/own/bathroom/101_bat.jpg,stimuli/own/bathroom/135_bat.jpg,,,,,,,,,0,42,42,27,797.4031023330001,,,,,,,,,,,797.6875857910002,797.8530586250001,797.8530586250001,797.8530586250001,797.8530586250001,797.8530586250001,797.8530586250001,797.8530586250001,797.8530586250001,797.8530586250001,803.7474132079999,7,-7,1,1.0,5.24156475000018,1.0,5.771563250000327,797.4009209580001,797.4031023330001,797.8530586250001,797.6875715000003,,,,,,,,797.3974680829999,797.4008730830003,None,,,,,,,,,,,203,bathroom,1,2024-03-13_15h47.31.880,image_similarity_rating,2023.2.3,None,2024-03-13 15h48.00.225345 +0100,
,113,138,292,292,stimuli/own/bathroom/113_bat.jpg,stimuli/own/bathroom/138_bat.jpg,,,,,,,,,0,43,43,291,803.7528742500001,,,,,,,,,,,804.0377016250002,804.2068468330001,804.2068468330001,804.2068468330001,804.2068468330001,804.2068468330001,804.2068468330001,804.2068468330001,804.2068468330001,804.2068468330001,812.188755375,7,-7,1,2.0,3.8926552080001784,2.0,6.108705500000269,803.7511002910003,803.7528742500001,804.2068468330001,804.0376851660001,,,,,,,,803.7476342910002,803.7510530000002,None,,,,,,,,,,,203,bathroom,1,2024-03-13_15h47.31.880,image_similarity_rating,2023.2.3,None,2024-03-13 15h48.00.225345 +0100,
,120,130,414,414,stimuli/own/bathroom/120_bat.jpg,stimuli/own/bathroom/130_bat.jpg,,,,,,,,,0,44,44,413,812.1942670410001,,,,,,,,,,,812.4876472910003,812.6595924159999,812.6595924159999,812.6595924159999,812.6595924159999,812.6595924159999,812.6595924159999,812.6595924159999,812.6595924159999,812.6595924159999,818.7021160830002,-7,7,1,3.0,6.05657520900013,2.0,5.1299895000001925,812.1925226250003,812.1942670410001,812.6595924159999,812.487630541,,,,,,,,812.1889800000001,812.1924750410001,None,,,,,,,,,,,203,bathroom,1,2024-03-13_15h47.31.880,image_similarity_rating,2023.2.3,None,2024-03-13 15h48.00.225345 +0100,
,116,141,342,342,stimuli/own/bathroom/116_bat.jpg,stimuli/own/bathroom/141_bat.jpg,,,,,,,,,0,45,45,341,818.707763916,,,,,,,,,,,818.9915121250003,819.158524708,819.158524708,819.158524708,819.158524708,819.158524708,819.158524708,819.158524708,819.158524708,819.158524708,822.0016763330002,7,-7,1,2.0,2.2792652090001866,2.0,2.7708486659998925,818.7058410000002,818.707763916,819.158524708,818.9914992910001,,,,,,,,818.7023379160003,818.705793333,None,,,,,,,,,,,203,bathroom,1,2024-03-13_15h47.31.880,image_similarity_rating,2023.2.3,None,2024-03-13 15h48.00.225345 +0100,
,113,141,295,295,stimuli/own/bathroom/113_bat.jpg,stimuli/own/bathroom/141_bat.jpg,,,,,,,,,0,46,46,294,822.0071722499999,,,,,,,,,,,822.2918601250001,822.462560791,822.462560791,822.462560791,822.462560791,822.462560791,822.462560791,822.462560791,822.462560791,822.462560791,867.9736367910002,-7,7,1,2.0,27.468481082999915,1.0,45.42219083400005,822.0054055830003,822.0071722499999,822.462560791,822.2918442910002,,,,,,,,822.0019213329999,822.0053582910002,None,,,,,,,,,,,203,bathroom,1,2024-03-13_15h47.31.880,image_similarity_rating,2023.2.3,None,2024-03-13 15h48.00.225345 +0100,
,111,141,244,244,stimuli/own/bathroom/111_bat.jpg,stimuli/own/bathroom/141_bat.jpg,,,,,,,,,0,47,47,243,867.986184958,,,,,,,,,,,868.2706752500001,868.4422296250002,868.4422296250002,868.4422296250002,868.4422296250002,868.4422296250002,868.4422296250002,868.4422296250002,868.4422296250002,868.4422296250002,875.6233467080003,7,-7,1,2.0,7.092629207999835,4.0,6.205687707999914,867.9776118330003,867.986184958,868.4422296250002,868.270659041,,,,,,,,867.9738709999999,867.977561375,None,,,,,,,,,,,203,bathroom,1,2024-03-13_15h47.31.880,image_similarity_rating,2023.2.3,None,2024-03-13 15h48.00.225345 +0100,
,126,139,515,515,stimuli/own/bathroom/126_bat.jpg,stimuli/own/bathroom/139_bat.jpg,,,,,,,,,0,48,48,514,875.6362150410002,,,,,,,,,,,875.9207826250001,876.0866586250002,876.0866586250002,876.0866586250002,876.0866586250002,876.0866586250002,876.0866586250002,876.0866586250002,876.0866586250002,876.0866586250002,887.0762025830002,7,-7,1,1.0,8.225733499999933,3.0,10.928525708000052,875.6270219160003,875.6362150410002,876.0866586250002,875.920767333,,,,,,,,875.623568666,875.6269744580002,None,,,,,,,,,,,203,bathroom,1,2024-03-13_15h47.31.880,image_similarity_rating,2023.2.3,None,2024-03-13 15h48.00.225345 +0100,
,105,134,153,153,stimuli/own/bathroom/105_bat.jpg,stimuli/own/bathroom/134_bat.jpg,,,,,,,,,0,49,49,152,887.0861388330002,,,,,,,,,,,887.3704701250001,887.536536375,887.536536375,887.536536375,887.536536375,887.536536375,887.536536375,887.536536375,887.536536375,887.536536375,901.2590468330002,7,-7,1,2.0,12.278826209000272,1.0,13.262327541000104,887.079880125,887.0861388330002,887.536536375,887.370450958,,,,,,,,887.0764311660002,887.0798293330001,None,,,,,,,,,,,203,bathroom,1,2024-03-13_15h47.31.880,image_similarity_rating,2023.2.3,None,2024-03-13 15h48.00.225345 +0100,
,120,122,407,407,stimuli/own/bathroom/120_bat.jpg,stimuli/own/bathroom/122_bat.jpg,,,,,,,,,0,50,50,406,901.2693609160003,,,,,,,,,,,901.5537467080001,901.7191352500001,901.7191352500001,901.7191352500001,901.7191352500001,901.7191352500001,901.7191352500001,901.7191352500001,901.7191352500001,901.7191352500001,904.7136064160002,7,-7,1,1.0,1.8621027089998279,1.0,2.877124625000306,901.2627370000002,901.2693609160003,901.7191352500001,901.5537335000001,,,,,,,,901.2592696250001,901.26268925,None,,,,,,,,,,,203,bathroom,1,2024-03-13_15h47.31.880,image_similarity_rating,2023.2.3,None,2024-03-13 15h48.00.225345 +0100,
,120,127,412,412,stimuli/own/bathroom/120_bat.jpg,stimuli/own/bathroom/127_bat.jpg,,,,,,,,,0,51,51,411,904.7191703330002,,,,,,,,,,,905.003694583,905.1693694580001,905.1693694580001,905.1693694580001,905.1693694580001,905.1693694580001,905.1693694580001,905.1693694580001,905.1693694580001,905.1693694580001,915.689228,-7,7,1,4.0,9.314722000000074,4.0,10.332461375000094,904.7173585410003,904.7191703330002,905.1693694580001,905.0036763330002,,,,,,,,904.7138315,904.717310583,None,,,,,,,,,,,203,bathroom,1,2024-03-13_15h47.31.880,image_similarity_rating,2023.2.3,None,2024-03-13 15h48.00.225345 +0100,
,121,122,425,425,stimuli/own/bathroom/121_bat.jpg,stimuli/own/bathroom/122_bat.jpg,,,,,,,,,0,52,52,424,915.7024777500003,,,,,,,,,,,915.9878108750002,916.1538025830002,916.1538025830002,916.1538025830002,916.1538025830002,916.1538025830002,916.1538025830002,916.1538025830002,916.1538025830002,916.1538025830002,921.4472443330003,-7,7,1,4.0,3.079268082999988,2.0,5.068356040999788,915.693125083,915.7024777500003,916.1538025830002,915.987793041,,,,,,,,915.6894719580002,915.693072666,None,,,,,,,,,,,203,bathroom,1,2024-03-13_15h47.31.880,image_similarity_rating,2023.2.3,None,2024-03-13 15h48.00.225345 +0100,
,121,140,441,441,stimuli/own/bathroom/121_bat.jpg,stimuli/own/bathroom/140_bat.jpg,,,,,,,,,0,53,53,440,921.4691999580002,,,,,,,,,,,921.7533690000002,921.920232875,921.920232875,921.920232875,921.920232875,921.920232875,921.920232875,921.920232875,921.920232875,921.920232875,925.934424625,7,-7,1,4.0,3.028551625000091,2.0,3.815680582999903,921.4511542080002,921.4691999580002,,921.7533503750003,,,,,,,,921.4474656660002,921.4511031660002,None,,,,,,,,,,,203,bathroom,1,2024-03-13_15h47.31.880,image_similarity_rating,2023.2.3,None,2024-03-13 15h48.00.225345 +0100,
,121,136,437,437,stimuli/own/bathroom/121_bat.jpg,stimuli/own/bathroom/136_bat.jpg,,,,,,,,,0,54,54,436,925.9399912910001,,,,,,,,,,,926.2241287080003,926.3888206250001,926.3888206250001,926.3888206250001,926.3888206250001,926.3888206250001,926.3888206250001,926.3888206250001,926.3888206250001,926.3888206250001,931.28457675,-7,7,1,4.0,4.0668102919999,1.0,4.782766916000128,925.9382373750002,925.9399912910001,926.3888206250001,926.224115583,,,,,,,,925.9346531250001,925.9381889580002,None,,,,,,,,,,,203,bathroom,1,2024-03-13_15h47.31.880,image_similarity_rating,2023.2.3,None,2024-03-13 15h48.00.225345 +0100,
,102,113,42,42,stimuli/own/bathroom/102_bat.jpg,stimuli/own/bathroom/113_bat.jpg,,,,,,,,,0,55,55,41,931.2902217080002,,,,,,,,,,,931.574653375,931.7430696250001,931.7430696250001,931.7430696250001,931.7430696250001,931.7430696250001,931.7430696250001,931.7430696250001,931.7430696250001,931.7430696250001,936.3716888330002,-7,7,1,4.0,3.553182624999863,1.0,4.393522709000081,931.2882940830002,931.2902217080002,931.7430696250001,931.574639708,,,,,,,,931.2848229160002,931.288246375,None,,,,,,,,,,,203,bathroom,1,2024-03-13_15h47.31.880,image_similarity_rating,2023.2.3,None,2024-03-13 15h48.00.225345 +0100,
,132,134,560,560,stimuli/own/bathroom/132_bat.jpg,stimuli/own/bathroom/134_bat.jpg,,,,,,,,,0,56,56,559,936.3772827079999,,,,,,,,,,,936.6703983750001,936.837806666,936.837806666,936.837806666,936.837806666,936.837806666,936.837806666,936.837806666,936.837806666,936.837806666,951.0252603330002,7,-7,1,4.0,12.752545874999669,2.0,14.000333915999818,936.3753572080002,936.3772827079999,936.837806666,936.6703837080001,,,,,,,,936.3719115830002,936.3753092909999,None,,,,,,,,,,,203,bathroom,1,2024-03-13_15h47.31.880,image_similarity_rating,2023.2.3,None,2024-03-13 15h48.00.225345 +0100,
,116,127,330,330,stimuli/own/bathroom/116_bat.jpg,stimuli/own/bathroom/127_bat.jpg,,,,,,,,,0,57,57,329,951.0357111250003,,,,,,,,,,,951.320388458,951.4871270410001,951.4871270410001,951.4871270410001,951.4871270410001,951.4871270410001,951.4871270410001,951.4871270410001,951.4871270410001,951.4871270410001,958.104875541,7,-7,1,4.0,5.499950957999772,2.0,6.394352207999873,951.0290305000001,951.0357111250003,951.4871270410001,951.3203732909999,,,,,,,,951.025486791,951.0289826660003,None,,,,,,,,,,,203,bathroom,1,2024-03-13_15h47.31.880,image_similarity_rating,2023.2.3,None,2024-03-13 15h48.00.225345 +0100,
,116,138,339,339,stimuli/own/bathroom/116_bat.jpg,stimuli/own/bathroom/138_bat.jpg,,,,,,,,,0,58,58,338,958.1105973750002,,,,,,,,,,,958.404013958,958.5768002500001,958.5768002500001,958.5768002500001,958.5768002500001,958.5768002500001,958.5768002500001,958.5768002500001,958.5768002500001,958.5768002500001,965.855141708,-7,7,1,4.0,6.493281749999824,2.0,7.143123290999938,958.1086560000001,958.1105973750002,958.5768002500001,958.4039879580002,,,,,,,,958.1051015410001,958.1086079580002,None,,,,,,,,,,,203,bathroom,1,2024-03-13_15h47.31.880,image_similarity_rating,2023.2.3,None,2024-03-13 15h48.00.225345 +0100,
,125,139,502,502,stimuli/own/bathroom/125_bat.jpg,stimuli/own/bathroom/139_bat.jpg,,,,,,,,,0,59,59,501,965.8607422500002,,,,,,,,,,,966.1536295829999,966.320162791,966.320162791,966.320162791,966.320162791,966.320162791,966.320162791,966.320162791,966.320162791,966.320162791,973.3927421660003,7,-7,1,3.0,4.628551166999841,1.0,6.834730083000068,965.8588055410003,965.8607422500002,966.320162791,966.1536154160001,,,,,,,,965.855364666,965.8587580410001,None,,,,,,,,,,,203,bathroom,1,2024-03-13_15h47.31.880,image_similarity_rating,2023.2.3,None,2024-03-13 15h48.00.225345 +0100,
,102,138,64,64,stimuli/own/bathroom/102_bat.jpg,stimuli/own/bathroom/138_bat.jpg,,,,,,,,,0,60,60,63,973.4022806660003,,,,,,,,,,,973.68691375,973.8578517080002,973.8578517080002,973.8578517080002,973.8578517080002,973.8578517080002,973.8578517080002,973.8578517080002,973.8578517080002,973.8578517080002,978.0087633330002,7,-7,1,2.0,3.2718390420000105,2.0,1.7479872909998448,973.3964222500001,973.4022806660003,973.8578517080002,973.6868932079999,,,,,,,,973.3929714160001,973.396374916,None,,,,,,,,,,,203,bathroom,1,2024-03-13_15h47.31.880,image_similarity_rating,2023.2.3,None,2024-03-13 15h48.00.225345 +0100,
,102,123,51,51,stimuli/own/bathroom/102_bat.jpg,stimuli/own/bathroom/123_bat.jpg,,,,,,,,,0,61,61,50,978.0190237080003,,,,,,,,,,,978.3035380829999,978.473805541,978.473805541,978.473805541,978.473805541,978.473805541,978.473805541,978.473805541,978.473805541,978.473805541,1005.8587582080002,-7,7,1,3.0,24.926131500000338,2.0,27.23617704199978,978.012470458,978.0190237080003,978.473805541,978.3035210410001,,,,,,,,978.0089877500002,978.0124227500003,None,,,,,,,,,,,203,bathroom,1,2024-03-13_15h47.31.880,image_similarity_rating,2023.2.3,None,2024-03-13 15h48.00.225345 +0100,
,119,140,404,404,stimuli/own/bathroom/119_bat.jpg,stimuli/own/bathroom/140_bat.jpg,,,,,,,,,0,62,62,403,1005.8688169160002,,,,,,,,,,,1006.153546791,1006.3252168330002,1006.3252168330002,1006.3252168330002,1006.3252168330002,1006.3252168330002,1006.3252168330002,1006.3252168330002,1006.3252168330002,1006.3252168330002,1024.379799166,7,-7,1,3.0,17.881513709000046,2.0,16.856024958000035,1005.8624407499999,1005.8688169160002,1006.3252168330002,1006.1535298330002,,,,,,,,1005.8589812910002,1005.8623934580003,None,,,,,,,,,,,203,bathroom,1,2024-03-13_15h47.31.880,image_similarity_rating,2023.2.3,None,2024-03-13 15h48.00.225345 +0100,
,134,140,573,573,stimuli/own/bathroom/134_bat.jpg,stimuli/own/bathroom/140_bat.jpg,,,,,,,,,0,63,63,572,1024.3854535410003,,,,,,,,,,,1026.15344975,1026.3280081250002,1026.3280081250002,1026.3280081250002,1026.3280081250002,1026.3280081250002,1026.3280081250002,1026.3280081250002,1026.3280081250002,1026.3280081250002,1117.729665,-7,7,2,4.0,85.67982904099972,4.0,91.31580800000029,1025.857375416,1025.860970291,1026.3280081250002,1026.1534289160002,,,,,,,,1024.3800208330001,1025.8554993330001,space,1024.3854535410003,1.469829290999769,None,,,,,,,,203,bathroom,1,2024-03-13_15h47.31.880,image_similarity_rating,2023.2.3,None,2024-03-13 15h48.00.225345 +0100,
,129,138,537,537,stimuli/own/bathroom/129_bat.jpg,stimuli/own/bathroom/138_bat.jpg,,,,,,,,,0,64,64,536,1117.736700666,,,,,,,,,,,1118.019637791,1118.186567,1118.186567,1118.186567,1118.186567,1118.186567,1118.186567,1118.186567,1118.186567,1118.186567,1134.708309416,7,-7,2,2.0,16.52086008299966,2.0,8.463290584000333,1117.733910666,1117.736700666,1118.186567,1118.019623333,,,,,,,,1117.729886416,1117.733852958,None,,,,,,,,,,,203,bathroom,1,2024-03-13_15h47.31.880,image_similarity_rating,2023.2.3,None,2024-03-13 15h48.00.225345 +0100,
,103,127,87,87,stimuli/own/bathroom/103_bat.jpg,stimuli/own/bathroom/127_bat.jpg,,,,,,,,,0,65,65,86,1134.7184167500002,,,,,,,,,,,1135.002934083,1135.167884666,1135.167884666,1135.167884666,1135.167884666,1135.167884666,1135.167884666,1135.167884666,1135.167884666,1135.167884666,1150.762920125,-7,7,2,3.0,5.483904458000325,3.0,15.395802750000257,1134.7121035830003,1134.7184167500002,1135.167884666,1135.002920666,,,,,,,,1134.70853075,1134.7120562080001,None,,,,,,,,,,,203,bathroom,1,2024-03-13_15h47.31.880,image_similarity_rating,2023.2.3,None,2024-03-13 15h48.00.225345 +0100,
,112,127,258,258,stimuli/own/bathroom/112_bat.jpg,stimuli/own/bathroom/127_bat.jpg,,,,,,,,,0,66,66,257,1150.7851133330003,,,,,,,,,,,1151.0691184580003,1151.2347670830002,1151.2347670830002,1151.2347670830002,1151.2347670830002,1151.2347670830002,1151.2347670830002,1151.2347670830002,1151.2347670830002,1151.2347670830002,1167.095804625,7,-7,2,3.0,15.815493917000367,3.0,14.404178583999965,1150.76660075,1150.7851133330003,,1151.0690997910003,,,,,,,,1150.7631424580002,1150.7665534160003,None,,,,,,,,,,,203,bathroom,1,2024-03-13_15h47.31.880,image_similarity_rating,2023.2.3,None,2024-03-13 15h48.00.225345 +0100,
,101,103,2,2,stimuli/own/bathroom/101_bat.jpg,stimuli/own/bathroom/103_bat.jpg,,,,,,,,,0,67,67,1,1167.1014026660002,,,,,,,,,,,1167.38625175,1167.5531698330003,1167.5531698330003,1167.5531698330003,1167.5531698330003,1167.5531698330003,1167.5531698330003,1167.5531698330003,1167.5531698330003,1167.5531698330003,1189.6581052500003,-7,7,2,3.0,5.560522750000018,5.0,21.967968750000182,1167.0995719580003,1167.1014026660002,1167.5531698330003,1167.3862362910002,,,,,,,,1167.096027416,1167.099525375,None,,,,,,,,,,,203,bathroom,1,2024-03-13_15h47.31.880,image_similarity_rating,2023.2.3,None,2024-03-13 15h48.00.225345 +0100,
,130,137,546,546,stimuli/own/bathroom/130_bat.jpg,stimuli/own/bathroom/137_bat.jpg,,,,,,,,,0,68,68,545,1189.668348333,,,,,,,,,,,1189.9527665410003,1190.122921208,1190.122921208,1190.122921208,1190.122921208,1190.122921208,1190.122921208,1190.122921208,1190.122921208,1190.122921208,1198.2580875,7,-7,2,2.0,6.750931333000153,4.0,8.03625962499973,1189.6619157500002,1189.668348333,1190.122921208,1189.9527407080002,,,,,,,,1189.658328916,1189.6618676250002,None,,,,,,,,,,,203,bathroom,1,2024-03-13_15h47.31.880,image_similarity_rating,2023.2.3,None,2024-03-13 15h48.00.225345 +0100,
,105,135,154,154,stimuli/own/bathroom/105_bat.jpg,stimuli/own/bathroom/135_bat.jpg,,,,,,,,,0,69,69,153,1198.268255833,,,,,,,,,,,1198.5527600830003,1198.7209488750002,1198.7209488750002,1198.7209488750002,1198.7209488750002,1198.7209488750002,1198.7209488750002,1198.7209488750002,1198.7209488750002,1198.7209488750002,1214.737217791,-7,7,2,3.0,14.143455667000126,4.0,15.604628584000238,1198.261860208,1198.268255833,1198.7209488750002,1198.5527425000002,,,,,,,,1198.258310125,1198.261813208,None,,,,,,,,,,,203,bathroom,1,2024-03-13_15h47.31.880,image_similarity_rating,2023.2.3,None,2024-03-13 15h48.00.225345 +0100,
,102,139,65,605,stimuli/own/bathroom/102_bat.jpg,stimuli/own/bathroom/139_bat.jpg,,,,,,,,,0,70,70,604,1214.7429278330003,,,,,,,,,,,1215.0360415410003,1215.203601041,1215.203601041,1215.203601041,1215.203601041,1215.203601041,1215.203601041,1215.203601041,1215.203601041,1215.203601041,1219.659156,7,-7,2,4.0,4.344854208000015,1.0,3.2173635409999406,1214.7409796250001,1214.7429278330003,1215.203601041,1215.036024583,,,,,,,,1214.737439625,1214.7409327080002,None,,,,,,,,,,,203,bathroom,1,2024-03-13_15h47.31.880,image_similarity_rating,2023.2.3,None,2024-03-13 15h48.00.225345 +0100,
,121,125,428,428,stimuli/own/bathroom/121_bat.jpg,stimuli/own/bathroom/125_bat.jpg,,,,,,,,,0,71,71,427,1219.668000041,,,,,,,,,,,1219.952640583,1220.1178079160002,1220.1178079160002,1220.1178079160002,1220.1178079160002,1220.1178079160002,1220.1178079160002,1220.1178079160002,1220.1178079160002,1220.1178079160002,1225.375654916,-7,7,2,3.0,4.414430292000361,3.0,5.09573116699994,1219.66296425,1219.668000041,1220.1178079160002,1219.952627375,,,,,,,,1219.6593785000002,1219.6629164580002,None,,,,,,,,,,,203,bathroom,1,2024-03-13_15h47.31.880,image_similarity_rating,2023.2.3,None,2024-03-13 15h48.00.225345 +0100,
,101,116,11,11,stimuli/own/bathroom/101_bat.jpg,stimuli/own/bathroom/116_bat.jpg,,,,,,,,,0,72,72,10,1225.384741791,,,,,,,,,,,1225.66940975,1225.83739675,1225.83739675,1225.83739675,1225.83739675,1225.83739675,1225.83739675,1225.83739675,1225.83739675,1225.83739675,1231.783654875,-7,7,2,3.0,3.8933678329999566,5.0,5.66880566699956,1225.379500416,1225.384741791,1225.83739675,1225.6693926660002,,,,,,,,1225.3758745830003,1225.3794527080001,None,,,,,,,,,,,203,bathroom,1,2024-03-13_15h47.31.880,image_similarity_rating,2023.2.3,None,2024-03-13 15h48.00.225345 +0100,
,126,127,505,505,stimuli/own/bathroom/126_bat.jpg,stimuli/own/bathroom/127_bat.jpg,,,,,,,,,0,73,73,504,1231.7893026250001,,,,,,,,,,,1232.073295458,1232.2390452500001,1232.2390452500001,1232.2390452500001,1232.2390452500001,1232.2390452500001,1232.2390452500001,1232.2390452500001,1232.2390452500001,1232.2390452500001,1236.821906083,-7,7,2,2.0,3.213332666000042,1.0,4.3536318750002465,1231.7873754580003,1231.7893026250001,1232.2390452500001,1232.0732825830003,,,,,,,,1231.783895583,1231.7873259579999,None,,,,,,,,,,,203,bathroom,1,2024-03-13_15h47.31.880,image_similarity_rating,2023.2.3,None,2024-03-13 15h48.00.225345 +0100,
,106,134,182,182,stimuli/own/bathroom/106_bat.jpg,stimuli/own/bathroom/134_bat.jpg,,,,,,,,,0,74,74,181,1236.8346209160002,,,,,,,,,,,1237.119460875,1237.2857944160003,1237.2857944160003,1237.2857944160003,1237.2857944160003,1237.2857944160003,1237.2857944160003,1237.2857944160003,1237.2857944160003,1237.2857944160003,1241.138337,7,-7,2,1.0,2.567064500000015,4.0,3.750037207999867,1236.8257957910002,1236.8346209160002,1237.2857944160003,1237.119447291,,,,,,,,1236.8221369999999,1236.8257460410002,None,,,,,,,,,,,203,bathroom,1,2024-03-13_15h47.31.880,image_similarity_rating,2023.2.3,None,2024-03-13 15h48.00.225345 +0100,
,136,138,582,582,stimuli/own/bathroom/136_bat.jpg,stimuli/own/bathroom/138_bat.jpg,,,,,,,,,0,75,75,581,1241.1512944160002,,,,,,,,,,,1241.435992166,1241.603195125,1241.603195125,1241.603195125,1241.603195125,1241.603195125,1241.603195125,1241.603195125,1241.603195125,1241.603195125,1251.688596791,7,-7,2,1.0,7.237041417,5.0,10.096002207999845,1241.142346666,1241.1512944160002,1241.603195125,1241.435977458,,,,,,,,1241.1385751660002,1241.142296416,None,,,,,,,,,,,203,bathroom,1,2024-03-13_15h47.31.880,image_similarity_rating,2023.2.3,None,2024-03-13 15h48.00.225345 +0100,
,123,124,460,460,stimuli/own/bathroom/123_bat.jpg,stimuli/own/bathroom/124_bat.jpg,,,,,,,,,0,76,76,459,1251.701248791,,,,,,,,,,,1251.985870625,1252.150267875,1252.150267875,1252.150267875,1252.150267875,1252.150267875,1252.150267875,1252.150267875,1252.150267875,1252.150267875,1256.9538410830003,7,-7,2,2.0,4.506606625000131,4.0,3.3295585000000756,1251.692552625,1251.701248791,1252.150267875,1251.9858575,,,,,,,,1251.6888337080002,1251.692502708,None,,,,,,,,,,,203,bathroom,1,2024-03-13_15h47.31.880,image_similarity_rating,2023.2.3,None,2024-03-13 15h48.00.225345 +0100,
,126,141,517,517,stimuli/own/bathroom/126_bat.jpg,stimuli/own/bathroom/141_bat.jpg,,,,,,,,,0,77,77,516,1256.959451,,,,,,,,,,,1257.2525453750002,1257.4230587499999,1257.4230587499999,1257.4230587499999,1257.4230587499999,1257.4230587499999,1257.4230587499999,1257.4230587499999,1257.4230587499999,1257.4230587499999,1260.6723641660003,7,-7,2,3.0,1.8818188330001249,2.0,3.1465178329999617,1256.9576154580002,1256.959451,1257.4230587499999,1257.2525270000003,,,,,,,,1256.954063416,1256.957567833,None,,,,,,,,,,,203,bathroom,1,2024-03-13_15h47.31.880,image_similarity_rating,2023.2.3,None,2024-03-13 15h48.00.225345 +0100,
,113,114,271,271,stimuli/own/bathroom/113_bat.jpg,stimuli/own/bathroom/114_bat.jpg,,,,,,,,,0,78,78,270,1260.684862625,,,,,,,,,,,1260.9693681250003,1261.135005708,1261.135005708,1261.135005708,1261.135005708,1261.135005708,1261.135005708,1261.135005708,1261.135005708,1261.135005708,1267.717143,-7,7,2,3.0,6.567063916999814,2.0,4.231768750000356,1260.6760325410003,1260.684862625,1261.135005708,1260.9693490830002,,,,,,,,1260.67258225,1260.6759852910002,None,,,,,,,,,,,203,bathroom,1,2024-03-13_15h47.31.880,image_similarity_rating,2023.2.3,None,2024-03-13 15h48.00.225345 +0100,
,123,132,467,467,stimuli/own/bathroom/123_bat.jpg,stimuli/own/bathroom/132_bat.jpg,,,,,,,,,0,79,79,466,1267.7227645,,,,,,,,,,,1268.0066479580003,1268.172778125,1268.172778125,1268.172778125,1268.172778125,1268.172778125,1268.172778125,1268.172778125,1268.172778125,1268.172778125,1272.450939958,7,-7,2,3.0,4.261010249999799,1.0,3.6295102080002835,1267.7208668330002,1267.7227645,1268.172778125,1268.006635291,,,,,,,,1267.71736175,1267.72081925,None,,,,,,,,,,,203,bathroom,1,2024-03-13_15h47.31.880,image_similarity_rating,2023.2.3,None,2024-03-13 15h48.00.225345 +0100,
,105,117,138,138,stimuli/own/bathroom/105_bat.jpg,stimuli/own/bathroom/117_bat.jpg,,,,,,,,,0,80,80,137,1272.4567370410002,,,,,,,,,,,1272.752696833,1272.9224757500003,1272.9224757500003,1272.9224757500003,1272.9224757500003,1272.9224757500003,1272.9224757500003,1272.9224757500003,1272.9224757500003,1272.9224757500003,1284.3461314160002,-7,7,2,1.0,6.342165541999748,4.0,11.325003707999713,1272.4546377500003,1272.4567370410002,1272.9224757500003,1272.752680333,,,,,,,,1272.451157958,1272.4545906250003,None,,,,,,,,,,,203,bathroom,1,2024-03-13_15h47.31.880,image_similarity_rating,2023.2.3,None,2024-03-13 15h48.00.225345 +0100,
,105,116,137,137,stimuli/own/bathroom/105_bat.jpg,stimuli/own/bathroom/116_bat.jpg,,,,,,,,,0,81,81,136,1284.352428375,,,,,,,,,,,1284.6357904160002,1284.803753083,1284.803753083,1284.803753083,1284.803753083,1284.803753083,1284.803753083,1284.803753083,1284.803753083,1284.803753083,1289.5762324160003,-7,7,2,3.0,2.665478667000116,2.0,4.63310916599994,1284.3499386250003,1284.352428375,1284.803753083,1284.6357729160002,,,,,,,,1284.346350166,1284.3498911660001,None,,,,,,,,,,,203,bathroom,1,2024-03-13_15h47.31.880,image_similarity_rating,2023.2.3,None,2024-03-13 15h48.00.225345 +0100,
,125,141,504,504,stimuli/own/bathroom/125_bat.jpg,stimuli/own/bathroom/141_bat.jpg,,,,,,,,,0,82,82,503,1289.584186208,,,,,,,,,,,1289.8692362080003,1290.0372810410001,1290.0372810410001,1290.0372810410001,1290.0372810410001,1290.0372810410001,1290.0372810410001,1290.0372810410001,1290.0372810410001,1290.0372810410001,1297.387061625,-7,7,2,2.0,5.718991249999817,4.0,7.152285458000279,1289.5800298330003,1289.584186208,1290.0372810410001,1289.8692145000002,,,,,,,,1289.5764591660002,1289.5799824580001,None,,,,,,,,,,,203,bathroom,1,2024-03-13_15h47.31.880,image_similarity_rating,2023.2.3,None,2024-03-13 15h48.00.225345 +0100,
,136,141,585,585,stimuli/own/bathroom/136_bat.jpg,stimuli/own/bathroom/141_bat.jpg,,,,,,,,,0,83,83,584,1297.3927973330003,,,,,,,,,,,1297.6857524580003,1297.8560743330002,1297.8560743330002,1297.8560743330002,1297.8560743330002,1297.8560743330002,1297.8560743330002,1297.8560743330002,1297.8560743330002,1297.8560743330002,1304.512096791,-7,7,2,3.0,5.100761749999947,3.0,6.32159108399992,1297.390880916,1297.3927973330003,1297.8560743330002,1297.685735375,,,,,,,,1297.387284666,1297.39083375,None,,,,,,,,,,,203,bathroom,1,2024-03-13_15h47.31.880,image_similarity_rating,2023.2.3,None,2024-03-13 15h48.00.225345 +0100,
,124,130,480,480,stimuli/own/bathroom/124_bat.jpg,stimuli/own/bathroom/130_bat.jpg,,,,,,,,,0,84,84,479,1304.517763041,,,,,,,,,,,1304.8025795410001,1304.971906291,1304.971906291,1304.971906291,1304.971906291,1304.971906291,1304.971906291,1304.971906291,1304.971906291,1304.971906291,1311.3121102080001,-7,7,2,3.0,5.551641750000272,3.0,6.279944291999982,1304.5157941660002,1304.517763041,1304.971906291,1304.802560625,,,,,,,,1304.5123215410001,1304.5157446250003,None,,,,,,,,,,,203,bathroom,1,2024-03-13_15h47.31.880,image_similarity_rating,2023.2.3,None,2024-03-13 15h48.00.225345 +0100,
,105,123,144,144,stimuli/own/bathroom/105_bat.jpg,stimuli/own/bathroom/123_bat.jpg,,,,,,,,,0,85,85,143,1311.317580791,,,,,,,,,,,1311.6024084160001,1311.775134583,1311.775134583,1311.775134583,1311.775134583,1311.775134583,1311.775134583,1311.775134583,1311.775134583,1311.775134583,1318.945483708,-7,7,2,3.0,7.111287125000217,3.0,6.241340624999793,1311.315778166,1311.317580791,1311.775134583,1311.602390625,,,,,,,,1311.3123306250002,1311.315731166,None,,,,,,,,,,,203,bathroom,1,2024-03-13_15h47.31.880,image_similarity_rating,2023.2.3,None,2024-03-13 15h48.00.225345 +0100,
,120,136,419,419,stimuli/own/bathroom/120_bat.jpg,stimuli/own/bathroom/136_bat.jpg,,,,,,,,,0,86,86,418,1318.9509382080003,,,,,,,,,,,1319.237088875,1319.4039047080003,1319.4039047080003,1319.4039047080003,1319.4039047080003,1319.4039047080003,1319.4039047080003,1319.4039047080003,1319.4039047080003,1319.4039047080003,1322.778747125,-7,7,2,3.0,1.4792102909996174,3.0,3.328245333000268,1318.9491473750002,1318.9509382080003,1319.4039047080003,1319.2370612910001,,,,,,,,1318.945704291,1318.949099958,None,,,,,,,,,,,203,bathroom,1,2024-03-13_15h47.31.880,image_similarity_rating,2023.2.3,None,2024-03-13 15h48.00.225345 +0100,
,121,130,432,432,stimuli/own/bathroom/121_bat.jpg,stimuli/own/bathroom/130_bat.jpg,,,,,,,,,0,87,87,431,1322.7842145410002,,,,,,,,,,,1323.0693006660001,1323.2337049580003,1323.2337049580003,1323.2337049580003,1323.2337049580003,1323.2337049580003,1323.2337049580003,1323.2337049580003,1323.2337049580003,1323.2337049580003,1326.9548470000002,-7,7,2,3.0,3.6133508749999237,3.0,1.4127131249997547,1322.7824038750002,1322.7842145410002,1323.2337049580003,1323.069288291,,,,,,,,1322.7789649580002,1322.7823565,None,,,,,,,,,,,203,bathroom,1,2024-03-13_15h47.31.880,image_similarity_rating,2023.2.3,None,2024-03-13 15h48.00.225345 +0100,
,103,106,70,70,stimuli/own/bathroom/103_bat.jpg,stimuli/own/bathroom/106_bat.jpg,,,,,,,,,0,88,88,69,1326.967713541,,,,,,,,,,,1327.252313791,1327.422329958,1327.422329958,1327.422329958,1327.422329958,1327.422329958,1327.422329958,1327.422329958,1327.422329958,1327.422329958,1334.03307325,-7,7,2,4.0,5.795217249999951,3.0,6.474062541999956,1326.9587762910003,1326.967713541,1327.422329958,1327.2522865410003,,,,,,,,1326.9550779160002,1326.9587264160002,None,,,,,,,,,,,203,bathroom,1,2024-03-13_15h47.31.880,image_similarity_rating,2023.2.3,None,2024-03-13 15h48.00.225345 +0100,
,103,126,86,86,stimuli/own/bathroom/103_bat.jpg,stimuli/own/bathroom/126_bat.jpg,,,,,,,,,0,89,89,85,1334.039024458,,,,,,,,,,,1334.3233187500002,1334.488373583,1334.488373583,1334.488373583,1334.488373583,1334.488373583,1334.488373583,1334.488373583,1334.488373583,1334.488373583,1337.1383291250002,-7,7,2,2.0,2.6111007499998777,3.0,1.4216085419998308,1334.036781,1334.039024458,1334.488373583,1334.323301875,,,,,,,,1334.0333050410002,1334.036734,None,,,,,,,,,,,203,bathroom,1,2024-03-13_15h47.31.880,image_similarity_rating,2023.2.3,None,2024-03-13 15h48.00.225345 +0100,
,102,118,46,46,stimuli/own/bathroom/102_bat.jpg,stimuli/own/bathroom/118_bat.jpg,,,,,,,,,0,90,90,45,1337.150871916,,,,,,,,,,,1337.4355616250002,1337.602979166,1337.602979166,1337.602979166,1337.602979166,1337.602979166,1337.602979166,1337.602979166,1337.602979166,1337.602979166,1341.0078852500003,7,-7,2,2.0,2.0240992499998356,2.0,3.2557293330000903,1337.142042666,1337.150871916,1337.602979166,1337.435546,,,,,,,,1337.1385457500003,1337.141995583,None,,,,,,,,,,,203,bathroom,1,2024-03-13_15h47.31.880,image_similarity_rating,2023.2.3,None,2024-03-13 15h48.00.225345 +0100,
,111,123,228,228,stimuli/own/bathroom/111_bat.jpg,stimuli/own/bathroom/123_bat.jpg,,,,,,,,,0,91,91,227,1341.0179513750002,,,,,,,,,,,1341.3021336660001,1341.4704642910003,1341.4704642910003,1341.4704642910003,1341.4704642910003,1341.4704642910003,1341.4704642910003,1341.4704642910003,1341.4704642910003,1341.4704642910003,1350.220854541,7,-7,2,2.0,8.659541792000255,3.0,7.696689542000058,1341.0115653330001,1341.0179513750002,1341.4704642910003,1341.3021192910003,,,,,,,,1341.0081037910002,1341.011517833,None,,,,,,,,,,,203,bathroom,1,2024-03-13_15h47.31.880,image_similarity_rating,2023.2.3,None,2024-03-13 15h48.00.225345 +0100,
,113,134,288,288,stimuli/own/bathroom/113_bat.jpg,stimuli/own/bathroom/134_bat.jpg,,,,,,,,,0,92,92,287,1350.234187666,,,,,,,,,,,1350.5188995,1350.691302166,1350.691302166,1350.691302166,1350.691302166,1350.691302166,1350.691302166,1350.691302166,1350.691302166,1350.691302166,1359.595609875,7,-7,2,2.0,7.0609674160000395,2.0,8.731374707999748,1350.2247597910002,1350.234187666,1350.691302166,1350.5188825830003,,,,,,,,1350.221095916,1350.224709666,None,,,,,,,,,,,203,bathroom,1,2024-03-13_15h47.31.880,image_similarity_rating,2023.2.3,None,2024-03-13 15h48.00.225345 +0100,
,104,122,113,113,stimuli/own/bathroom/104_bat.jpg,stimuli/own/bathroom/122_bat.jpg,,,,,,,,,0,93,93,112,1359.6175021250003,,,,,,,,,,,1359.9016492080002,1360.072599541,1360.072599541,1360.072599541,1360.072599541,1360.072599541,1360.072599541,1360.072599541,1360.072599541,1360.072599541,1373.8662770000003,7,-7,2,3.0,13.436063625000315,2.0,2.7430946670001504,1359.5992626250002,1359.6175021250003,,1359.9016274580001,,,,,,,,1359.5958296250003,1359.599215041,None,,,,,,,,,,,203,bathroom,1,2024-03-13_15h47.31.880,image_similarity_rating,2023.2.3,None,2024-03-13 15h48.00.225345 +0100,
,122,125,445,445,stimuli/own/bathroom/122_bat.jpg,stimuli/own/bathroom/125_bat.jpg,,,,,,,,,0,94,94,444,1373.8717757910001,,,,,,,,,,,1374.1564059580003,1374.3265515,1374.3265515,1374.3265515,1374.3265515,1374.3265515,1374.3265515,1374.3265515,1374.3265515,1374.3265515,1382.3994837910002,-7,7,2,1.0,7.697711958000127,5.0,3.366962749999857,1373.870015958,1373.8717757910001,1374.3265515,1374.1563907500001,,,,,,,,1373.866515041,1373.8699679580002,None,,,,,,,,,,,203,bathroom,1,2024-03-13_15h47.31.880,image_similarity_rating,2023.2.3,None,2024-03-13 15h48.00.225345 +0100,
,124,127,478,478,stimuli/own/bathroom/124_bat.jpg,stimuli/own/bathroom/127_bat.jpg,,,,,,,,,0,95,95,477,1382.40526725,,,,,,,,,,,1382.6894250000003,1382.855119041,1382.855119041,1382.855119041,1382.855119041,1382.855119041,1382.855119041,1382.855119041,1382.855119041,1382.855119041,1394.688235333,-7,7,2,1.0,11.230419708000227,4.0,5.565628249999918,1382.4033364580002,1382.40526725,1382.855119041,1382.689411833,,,,,,,,1382.3997139159999,1382.403288666,None,,,,,,,,,,,203,bathroom,1,2024-03-13_15h47.31.880,image_similarity_rating,2023.2.3,None,2024-03-13 15h48.00.225345 +0100,
,114,122,302,302,stimuli/own/bathroom/114_bat.jpg,stimuli/own/bathroom/122_bat.jpg,,,,,,,,,0,96,96,301,1394.7007662080002,,,,,,,,,,,1394.9855210000003,1395.1566048750003,1395.1566048750003,1395.1566048750003,1395.1566048750003,1395.1566048750003,1395.1566048750003,1395.1566048750003,1395.1566048750003,1395.1566048750003,1399.491061291,-7,7,2,3.0,4.171727124999961,5.0,2.2979607909996957,1394.6921799580002,1394.7007662080002,1395.1566048750003,1394.985504208,,,,,,,,1394.6884793750003,1394.6921303330003,None,,,,,,,,,,,203,bathroom,1,2024-03-13_15h47.31.880,image_similarity_rating,2023.2.3,None,2024-03-13 15h48.00.225345 +0100,
,101,123,18,18,stimuli/own/bathroom/101_bat.jpg,stimuli/own/bathroom/123_bat.jpg,,,,,,,,,0,97,97,17,1399.500933,,,,,,,,,,,1399.7855552080002,1399.950295375,1399.950295375,1399.950295375,1399.950295375,1399.950295375,1399.950295375,1399.950295375,1399.950295375,1399.950295375,1407.933172916,7,-7,2,3.0,6.081598332999874,3.0,7.120494249999865,1399.494750041,1399.500933,1399.950295375,1399.7855419580003,,,,,,,,1399.491285791,1399.4947031250001,None,,,,,,,,,,,203,bathroom,1,2024-03-13_15h47.31.880,image_similarity_rating,2023.2.3,None,2024-03-13 15h48.00.225345 +0100,
,112,131,261,261,stimuli/own/bathroom/112_bat.jpg,stimuli/own/bathroom/131_bat.jpg,,,,,,,,,0,98,98,260,1407.9386602910001,,,,,,,,,,,1408.2234930410002,1408.3937801660002,1408.3937801660002,1408.3937801660002,1408.3937801660002,1408.3937801660002,1408.3937801660002,1408.3937801660002,1408.3937801660002,1408.3937801660002,1416.9832990410002,7,-7,2,2.0,8.427360666999903,3.0,7.426876874999834,1407.9369065000003,1407.9386602910001,1408.3937801660002,1408.223477541,,,,,,,,1407.9334015000002,1407.936856166,None,,,,,,,,,,,203,bathroom,1,2024-03-13_15h47.31.880,image_similarity_rating,2023.2.3,None,2024-03-13 15h48.00.225345 +0100,
,125,136,499,499,stimuli/own/bathroom/125_bat.jpg,stimuli/own/bathroom/136_bat.jpg,,,,,,,,,0,99,99,498,1416.9887611249999,,,,,,,,,,,1417.2725592080003,1417.4382752500003,1417.4382752500003,1417.4382752500003,1417.4382752500003,1417.4382752500003,1417.4382752500003,1417.4382752500003,1417.4382752500003,1417.4382752500003,1424.149284291,-7,7,2,2.0,4.5194162919997325,5.0,6.436581874999774,1416.986998791,1416.9887611249999,1417.4382752500003,1417.272547291,,,,,,,,1416.983517125,1416.9869514160002,None,,,,,,,,,,,203,bathroom,1,2024-03-13_15h47.31.880,image_similarity_rating,2023.2.3,None,2024-03-13 15h48.00.225345 +0100,
,136,139,583,600,stimuli/own/bathroom/136_bat.jpg,stimuli/own/bathroom/139_bat.jpg,,,,,,,,,0,100,100,599,1424.154961416,,,,,,,,,,,1424.43953025,1424.6075170830002,1424.6075170830002,1424.6075170830002,1424.6075170830002,1424.6075170830002,1424.6075170830002,1424.6075170830002,1424.6075170830002,1424.6075170830002,1432.659193875,7,-7,2,1.0,7.997710250000182,3.0,4.852330833999986,1424.153130041,1424.154961416,1424.6075170830002,1424.4395160410002,,,,,,,,1424.149510291,1424.1530813750003,None,,,,,,,,,,,203,bathroom,1,2024-03-13_15h47.31.880,image_similarity_rating,2023.2.3,None,2024-03-13 15h48.00.225345 +0100,
,118,135,379,379,stimuli/own/bathroom/118_bat.jpg,stimuli/own/bathroom/135_bat.jpg,,,,,,,,,0,101,101,378,1432.666997208,,,,,,,,,,,1432.951954041,1433.121843916,1433.121843916,1433.121843916,1433.121843916,1433.121843916,1433.121843916,1433.121843916,1433.121843916,1433.121843916,1438.579465,-7,7,2,1.0,4.587988791000043,1.0,5.237804833000155,1432.662856916,1432.666997208,1433.121843916,1432.9519378330003,,,,,,,,1432.6594134580002,1432.662809916,None,,,,,,,,,,,203,bathroom,1,2024-03-13_15h47.31.880,image_similarity_rating,2023.2.3,None,2024-03-13 15h48.00.225345 +0100,
,136,139,583,601,stimuli/own/bathroom/136_bat.jpg,stimuli/own/bathroom/139_bat.jpg,,,,,,,,,0,102,102,600,1438.5854083330003,,,,,,,,,,,1438.8685819160003,1439.0344465,1439.0344465,1439.0344465,1439.0344465,1439.0344465,1439.0344465,1439.0344465,1439.0344465,1439.0344465,1442.3952671250001,7,-7,2,1.0,2.3118457919999855,1.0,3.198066458000085,1438.5832304580001,1438.5854083330003,1439.0344465,1438.8685595,,,,,,,,1438.5796872080002,1438.583180666,None,,,,,,,,,,,203,bathroom,1,2024-03-13_15h47.31.880,image_similarity_rating,2023.2.3,None,2024-03-13 15h48.00.225345 +0100,
,103,113,74,74,stimuli/own/bathroom/103_bat.jpg,stimuli/own/bathroom/113_bat.jpg,,,,,,,,,0,103,103,73,1442.4174581660002,,,,,,,,,,,1442.7014324580002,1442.8678900000002,1442.8678900000002,1442.8678900000002,1442.8678900000002,1442.8678900000002,1442.8678900000002,1442.8678900000002,1442.8678900000002,1442.8678900000002,1449.708503833,-7,7,2,1.0,3.1785780830000476,5.0,6.80998875000023,1442.398913916,1442.4174581660002,,1442.7014112909999,,,,,,,,1442.3954837500003,1442.398867,None,,,,,,,,,,,203,bathroom,1,2024-03-13_15h47.31.880,image_similarity_rating,2023.2.3,None,2024-03-13 15h48.00.225345 +0100,
,109,112,191,191,stimuli/own/bathroom/109_bat.jpg,stimuli/own/bathroom/112_bat.jpg,,,,,,,,,0,104,104,190,1449.717740416,,,,,,,,,,,1450.00173875,1450.1671504580002,1450.1671504580002,1450.1671504580002,1450.1671504580002,1450.1671504580002,1450.1671504580002,1450.1671504580002,1450.1671504580002,1450.1671504580002,1470.145046416,-7,7,2,5.0,18.512223333000293,4.0,4.216968333000295,1449.712316125,1449.717740416,1450.1671504580002,1450.001725541,,,,,,,,1449.7087210410002,1449.7122689160003,None,,,,,,,,,,,203,bathroom,1,2024-03-13_15h47.31.880,image_similarity_rating,2023.2.3,None,2024-03-13 15h48.00.225345 +0100,
,105,130,150,150,stimuli/own/bathroom/105_bat.jpg,stimuli/own/bathroom/130_bat.jpg,,,,,,,,,0,105,105,149,1470.1672941660001,,,,,,,,,,,1470.451333416,1470.6203323750003,1470.6203323750003,1470.6203323750003,1470.6203323750003,1470.6203323750003,1470.6203323750003,1470.6203323750003,1470.6203323750003,1470.6203323750003,1484.4714955830002,-7,7,2,2.0,12.554408791000242,2.0,13.218672917000276,1470.1487461250001,1470.1672941660001,,1470.4513091660003,,,,,,,,1470.1452698750002,1470.148698875,None,,,,,,,,,,,203,bathroom,1,2024-03-13_15h47.31.880,image_similarity_rating,2023.2.3,None,2024-03-13 15h48.00.225345 +0100,
,117,121,346,346,stimuli/own/bathroom/117_bat.jpg,stimuli/own/bathroom/121_bat.jpg,,,,,,,,,0,106,106,345,1484.483765916,,,,,,,,,,,1484.7683987080002,1484.9350590410002,1484.9350590410002,1484.9350590410002,1484.9350590410002,1484.9350590410002,1484.9350590410002,1484.9350590410002,1484.9350590410002,1484.9350590410002,1489.1249329580003,7,-7,2,1.0,4.067536208000092,2.0,2.088211708000017,1484.4752757910003,1484.483765916,1484.9350590410002,1484.768383375,,,,,,,,1484.4717170410001,1484.475229,None,,,,,,,,,,,203,bathroom,1,2024-03-13_15h47.31.880,image_similarity_rating,2023.2.3,None,2024-03-13 15h48.00.225345 +0100,
,111,135,238,238,stimuli/own/bathroom/111_bat.jpg,stimuli/own/bathroom/135_bat.jpg,,,,,,,,,0,107,107,237,1489.133940291,,,,,,,,,,,1489.4183660410001,1489.585484458,1489.585484458,1489.585484458,1489.585484458,1489.585484458,1489.585484458,1489.585484458,1489.585484458,1489.585484458,1498.38640225,-7,7,2,2.0,8.762105666000025,4.0,5.572284291999949,1489.1286830000001,1489.133940291,1489.585484458,1489.41835075,,,,,,,,1489.1251515410002,1489.1286359580001,None,,,,,,,,,,,203,bathroom,1,2024-03-13_15h47.31.880,image_similarity_rating,2023.2.3,None,2024-03-13 15h48.00.225345 +0100,
,109,131,208,208,stimuli/own/bathroom/109_bat.jpg,stimuli/own/bathroom/131_bat.jpg,,,,,,,,,0,108,108,207,1498.391967666,,,,,,,,,,,1498.685006458,1498.8516335000002,1498.8516335000002,1498.8516335000002,1498.8516335000002,1498.8516335000002,1498.8516335000002,1498.8516335000002,1498.8516335000002,1498.8516335000002,1507.7779842080001,7,-7,2,2.0,7.813622915999986,4.0,8.77781158300013,1498.390160625,1498.391967666,1498.8516335000002,1498.6849910410003,,,,,,,,1498.386621125,1498.3901132910003,None,,,,,,,,,,,203,bathroom,1,2024-03-13_15h47.31.880,image_similarity_rating,2023.2.3,None,2024-03-13 15h48.00.225345 +0100,
,118,137,381,381,stimuli/own/bathroom/118_bat.jpg,stimuli/own/bathroom/137_bat.jpg,,,,,,,,,0,109,109,380,1507.783411791,,,,,,,,,,,1508.0685835830002,1508.2338093750002,1508.2338093750002,1508.2338093750002,1508.2338093750002,1508.2338093750002,1508.2338093750002,1508.2338093750002,1508.2338093750002,1508.2338093750002,1513.4738437080002,-7,7,2,2.0,4.817995708999661,4.0,3.442564500000117,1507.7816515830002,1507.783411791,1508.2338093750002,1508.068570708,,,,,,,,1507.7782037080003,1507.7816047080003,None,,,,,,,,,,,203,bathroom,1,2024-03-13_15h47.31.880,image_similarity_rating,2023.2.3,None,2024-03-13 15h48.00.225345 +0100,
,132,140,566,566,stimuli/own/bathroom/132_bat.jpg,stimuli/own/bathroom/140_bat.jpg,,,,,,,,,0,110,110,565,1513.4836362910003,,,,,,,,,,,1513.7682805000002,1513.933661708,1513.933661708,1513.933661708,1513.933661708,1513.933661708,1513.933661708,1513.933661708,1513.933661708,1513.933661708,1517.5367669580003,7,-7,2,2.0,2.1566374999997606,2.0,3.3146305840000423,1513.477515791,1513.4836362910003,1513.933661708,1513.7682670410002,,,,,,,,1513.4740664160001,1513.4774662500001,None,,,,,,,,,,,203,bathroom,1,2024-03-13_15h47.31.880,image_similarity_rating,2023.2.3,None,2024-03-13 15h48.00.225345 +0100,
,103,123,83,83,stimuli/own/bathroom/103_bat.jpg,stimuli/own/bathroom/123_bat.jpg,,,,,,,,,0,111,111,82,1517.5423734160001,,,,,,,,,,,1517.834939791,1518.003084958,1518.003084958,1518.003084958,1518.003084958,1518.003084958,1518.003084958,1518.003084958,1518.003084958,1518.003084958,1544.886935625,-7,7,2,2.0,26.846086042000024,4.0,22.35904245799975,1517.5404432910002,1517.5423734160001,1518.003084958,1517.834924041,,,,,,,,1517.536990458,1517.5403961660002,None,,,,,,,,,,,203,bathroom,1,2024-03-13_15h47.31.880,image_similarity_rating,2023.2.3,None,2024-03-13 15h48.00.225345 +0100,
,121,132,434,434,stimuli/own/bathroom/121_bat.jpg,stimuli/own/bathroom/132_bat.jpg,,,,,,,,,0,112,112,433,1544.8925565000002,,,,,,,,,,,1545.1848765000002,1545.3564075830002,1545.3564075830002,1545.3564075830002,1545.3564075830002,1545.3564075830002,1545.3564075830002,1545.3564075830002,1545.3564075830002,1545.3564075830002,1554.257097041,-7,7,2,3.0,8.77872887500007,6.0,4.033783916000175,1544.8906277080002,1544.8925565000002,1545.3564075830002,1545.1848522500002,,,,,,,,1544.8871595000003,1544.8905767500003,None,,,,,,,,,,,203,bathroom,1,2024-03-13_15h47.31.880,image_similarity_rating,2023.2.3,None,2024-03-13 15h48.00.225345 +0100,
,114,132,311,311,stimuli/own/bathroom/114_bat.jpg,stimuli/own/bathroom/132_bat.jpg,,,,,,,,,0,113,113,310,1554.266927375,,,,,,,,,,,1554.551468625,1554.716923875,1554.716923875,1554.716923875,1554.716923875,1554.716923875,1554.716923875,1554.716923875,1554.716923875,1554.716923875,1562.200020166,-7,7,2,3.0,7.476981958000124,4.0,6.492139667000174,1554.2608765410002,1554.266927375,1554.716923875,1554.551455041,,,,,,,,1554.257325625,1554.260828833,None,,,,,,,,,,,203,bathroom,1,2024-03-13_15h47.31.880,image_similarity_rating,2023.2.3,None,2024-03-13 15h48.00.225345 +0100,
,117,141,364,364,stimuli/own/bathroom/117_bat.jpg,stimuli/own/bathroom/141_bat.jpg,,,,,,,,,0,114,114,363,1562.2058182080002,,,,,,,,,,,1562.4887876250002,1562.655851875,1562.655851875,1562.655851875,1562.655851875,1562.655851875,1562.655851875,1562.655851875,1562.655851875,1562.655851875,1575.6401555,-7,7,2,2.0,9.757412708000174,3.0,12.430491832999905,1562.2040031660001,1562.2058182080002,1562.655851875,1562.488774875,,,,,,,,1562.2002480000003,1562.2039525830003,None,,,,,,,,,,,203,bathroom,1,2024-03-13_15h47.31.880,image_similarity_rating,2023.2.3,None,2024-03-13 15h48.00.225345 +0100,
,104,120,111,111,stimuli/own/bathroom/104_bat.jpg,stimuli/own/bathroom/120_bat.jpg,,,,,,,,,0,115,115,110,1575.650046125,,,,,,,,,,,1575.9354915410001,1576.101640958,1576.101640958,1576.101640958,1576.101640958,1576.101640958,1576.101640958,1576.101640958,1576.101640958,1576.101640958,1579.6280320830003,-7,7,2,3.0,3.4471204589999616,2.0,2.2802777920001063,1575.643854916,1575.650046125,1576.101640958,1575.9354785410003,,,,,,,,1575.640386625,1575.643807958,None,,,,,,,,,,,203,bathroom,1,2024-03-13_15h47.31.880,image_similarity_rating,2023.2.3,None,2024-03-13 15h48.00.225345 +0100,
,118,134,378,378,stimuli/own/bathroom/118_bat.jpg,stimuli/own/bathroom/134_bat.jpg,,,,,,,,,0,116,116,377,1579.6504215000002,,,,,,,,,,,1579.934187,1580.1014132080002,1580.1014132080002,1580.1014132080002,1580.1014132080002,1580.1014132080002,1580.1014132080002,1580.1014132080002,1580.1014132080002,1580.1014132080002,1586.119857291,-7,7,2,4.0,6.092782374999842,1.0,4.99492441700022,1579.63172775,1579.6504215000002,,1579.934162666,,,,,,,,1579.628253,1579.6316799580002,None,,,,,,,,,,,203,bathroom,1,2024-03-13_15h47.31.880,image_similarity_rating,2023.2.3,None,2024-03-13 15h48.00.225345 +0100,
,105,121,142,142,stimuli/own/bathroom/105_bat.jpg,stimuli/own/bathroom/121_bat.jpg,,,,,,,,,0,117,117,141,1586.125556833,,,,,,,,,,,1586.4187520410003,1586.585032833,1586.585032833,1586.585032833,1586.585032833,1586.585032833,1586.585032833,1586.585032833,1586.585032833,1586.585032833,1590.2778839580003,-7,7,2,2.0,3.6431103340000845,1.0,2.852586583000175,1586.1236217910002,1586.125556833,1586.585032833,1586.418736583,,,,,,,,1586.120080083,1586.123574416,None,,,,,,,,,,,203,bathroom,1,2024-03-13_15h47.31.880,image_similarity_rating,2023.2.3,None,2024-03-13 15h48.00.225345 +0100,
,116,118,321,321,stimuli/own/bathroom/116_bat.jpg,stimuli/own/bathroom/118_bat.jpg,,,,,,,,,0,118,118,320,1590.3000652910002,,,,,,,,,,,1590.5842973330002,1590.750904708,1590.750904708,1590.750904708,1590.750904708,1590.750904708,1590.750904708,1590.750904708,1590.750904708,1590.750904708,1607.652474958,7,-7,2,2.0,16.06246658300006,4.0,5.004927791999762,1590.2815776250002,1590.3000652910002,,1590.584277833,,,,,,,,1590.278104583,1590.2815282080003,None,,,,,,,,,,,203,bathroom,1,2024-03-13_15h47.31.880,image_similarity_rating,2023.2.3,None,2024-03-13 15h48.00.225345 +0100,
,127,135,523,523,stimuli/own/bathroom/127_bat.jpg,stimuli/own/bathroom/135_bat.jpg,,,,,,,,,0,119,119,522,1607.658123416,,,,,,,,,,,1607.9512886250002,1608.1168504580003,1608.1168504580003,1608.1168504580003,1608.1168504580003,1608.1168504580003,1608.1168504580003,1608.1168504580003,1608.1168504580003,1608.1168504580003,1614.6691293330002,7,-7,2,3.0,5.970891625000149,2.0,3.0203586669999822,1607.6562349580001,1607.658123416,1608.1168504580003,1607.951273333,,,,,,,,1607.6526968750002,1607.656187666,None,,,,,,,,,,,203,bathroom,1,2024-03-13_15h47.31.880,image_similarity_rating,2023.2.3,None,2024-03-13 15h48.00.225345 +0100,
,114,127,307,307,stimuli/own/bathroom/114_bat.jpg,stimuli/own/bathroom/127_bat.jpg,,,,,,,,,0,120,120,306,1614.6747294160002,,,,,,,,,,,1614.967912708,1615.133546458,1615.133546458,1615.133546458,1615.133546458,1615.133546458,1615.133546458,1615.133546458,1615.133546458,1615.133546458,1624.84076725,-7,7,2,2.0,8.753544083999714,5.0,9.464856332999716,1614.6728149580001,1614.6747294160002,1615.133546458,1614.967898958,,,,,,,,1614.6693497500003,1614.672767291,None,,,,,,,,,,,203,bathroom,1,2024-03-13_15h47.31.880,image_similarity_rating,2023.2.3,None,2024-03-13 15h48.00.225345 +0100,
,127,132,521,521,stimuli/own/bathroom/127_bat.jpg,stimuli/own/bathroom/132_bat.jpg,,,,,,,,,0,121,121,520,1624.8500284160002,,,,,,,,,,,1625.134501916,1625.3064754160002,1625.3064754160002,1625.3064754160002,1625.3064754160002,1625.3064754160002,1625.3064754160002,1625.3064754160002,1625.3064754160002,1625.3064754160002,1630.589929,-7,7,2,2.0,5.29835624999987,2.0,4.147664582999823,1624.844445125,1624.8500284160002,1625.3064754160002,1625.134485416,,,,,,,,1624.840997208,1624.844398333,None,,,,,,,,,,,203,bathroom,1,2024-03-13_15h47.31.880,image_similarity_rating,2023.2.3,None,2024-03-13 15h48.00.225345 +0100,
,102,120,48,48,stimuli/own/bathroom/102_bat.jpg,stimuli/own/bathroom/120_bat.jpg,,,,,,,,,0,122,122,47,1630.6000327080003,,,,,,,,,,,1630.8844645830002,1631.048482291,1631.048482291,1631.048482291,1631.048482291,1631.048482291,1631.048482291,1631.048482291,1631.048482291,1631.048482291,1640.406779625,7,-7,2,4.0,7.704200833000414,3.0,9.178147375000208,1630.593703583,1630.6000327080003,1631.048482291,1630.8844515000003,,,,,,,,1630.590146458,1630.5936562500003,None,,,,,,,,,,,203,bathroom,1,2024-03-13_15h47.31.880,image_similarity_rating,2023.2.3,None,2024-03-13 15h48.00.225345 +0100,
,111,132,236,236,stimuli/own/bathroom/111_bat.jpg,stimuli/own/bathroom/132_bat.jpg,,,,,,,,,0,123,123,235,1640.416988541,,,,,,,,,,,1640.701130958,1640.8743340409999,1640.8743340409999,1640.8743340409999,1640.8743340409999,1640.8743340409999,1640.8743340409999,1640.8743340409999,1640.8743340409999,1640.8743340409999,1650.1856450830003,7,-7,2,3.0,9.289934832999734,6.0,3.240836124999987,1640.4104655000003,1640.416988541,1640.8743340409999,1640.701115083,,,,,,,,1640.406998958,1640.4104183750003,None,,,,,,,,,,,203,bathroom,1,2024-03-13_15h47.31.880,image_similarity_rating,2023.2.3,None,2024-03-13 15h48.00.225345 +0100,
,119,127,393,393,stimuli/own/bathroom/119_bat.jpg,stimuli/own/bathroom/127_bat.jpg,,,,,,,,,0,124,124,392,1650.19124175,,,,,,,,,,,1650.4844367910002,1650.653842375,1650.653842375,1650.653842375,1650.653842375,1650.653842375,1650.653842375,1650.653842375,1650.653842375,1650.653842375,1655.2907725000002,-7,7,2,3.0,4.227344542000083,5.0,3.04534112500005,1650.18930725,1650.19124175,1650.653842375,1650.4844163330001,,,,,,,,1650.1858635830001,1650.189260083,None,,,,,,,,,,,203,bathroom,1,2024-03-13_15h47.31.880,image_similarity_rating,2023.2.3,None,2024-03-13 15h48.00.225345 +0100,
,122,136,454,454,stimuli/own/bathroom/122_bat.jpg,stimuli/own/bathroom/136_bat.jpg,,,,,,,,,0,125,125,453,1655.3002706250002,,,,,,,,,,,1655.5843392500003,1655.756570458,1655.756570458,1655.756570458,1655.756570458,1655.756570458,1655.756570458,1655.756570458,1655.756570458,1655.756570458,1661.1867138750001,7,-7,2,2.0,5.374013916999957,4.0,4.4790814170000885,1655.2944355410002,1655.3002706250002,1655.756570458,1655.5843134580002,,,,,,,,1655.290995125,1655.294388,None,,,,,,,,,,,203,bathroom,1,2024-03-13_15h47.31.880,image_similarity_rating,2023.2.3,None,2024-03-13 15h48.00.225345 +0100,
,101,137,30,30,stimuli/own/bathroom/101_bat.jpg,stimuli/own/bathroom/137_bat.jpg,,,,,,,,,0,126,126,29,1661.1926839160003,,,,,,,,,,,1669.734493916,1669.9093946660003,1669.9093946660003,1669.9093946660003,1669.9093946660003,1669.9093946660003,1669.9093946660003,1669.9093946660003,1669.9093946660003,1669.9093946660003,1687.7065007500003,7,-7,3,2.0,15.499563625000064,5.0,17.599876540999958,1669.4420978330002,1669.4505193749999,1669.9093946660003,1669.7344770830002,,,,,,,,1661.1869451250002,1669.4417367500002,space,1661.1926839160003,8.248892957999942,None,,,,,,,,203,bathroom,1,2024-03-13_15h47.31.880,image_similarity_rating,2023.2.3,None,2024-03-13 15h48.00.225345 +0100,
,111,117,222,222,stimuli/own/bathroom/111_bat.jpg,stimuli/own/bathroom/117_bat.jpg,,,,,,,,,0,127,127,221,1687.7165042500003,,,,,,,,,,,1688.0010192500001,1688.1678037500003,1688.1678037500003,1688.1678037500003,1688.1678037500003,1688.1678037500003,1688.1678037500003,1688.1678037500003,1688.1678037500003,1688.1678037500003,1693.1540697080002,-7,7,3,4.0,4.87036954200039,2.0,3.0810575829996196,1687.7107988750001,1687.7165042500003,1688.1678037500003,1688.001001708,,,,,,,,1687.706720166,1687.7107497500003,None,,,,,,,,,,,203,bathroom,1,2024-03-13_15h47.31.880,image_similarity_rating,2023.2.3,None,2024-03-13 15h48.00.225345 +0100,
,102,109,39,39,stimuli/own/bathroom/102_bat.jpg,stimuli/own/bathroom/109_bat.jpg,,,,,,,,,0,128,128,38,1693.166357208,,,,,,,,,,,1693.4509827500003,1693.6182135830002,1693.6182135830002,1693.6182135830002,1693.6182135830002,1693.6182135830002,1693.6182135830002,1693.6182135830002,1693.6182135830002,1693.6182135830002,1698.0863872080001,-7,7,3,4.0,4.438249667000036,2.0,3.707507790999898,1693.1577870000003,1693.166357208,1693.6182135830002,1693.4509567500002,,,,,,,,1693.1542875410003,1693.1577398750003,None,,,,,,,,,,,203,bathroom,1,2024-03-13_15h47.31.880,image_similarity_rating,2023.2.3,None,2024-03-13 15h48.00.225345 +0100,
,125,127,492,492,stimuli/own/bathroom/125_bat.jpg,stimuli/own/bathroom/127_bat.jpg,,,,,,,,,0,129,129,491,1698.0996712080002,,,,,,,,,,,1698.384394083,1698.5504402910003,1698.5504402910003,1698.5504402910003,1698.5504402910003,1698.5504402910003,1698.5504402910003,1698.5504402910003,1698.5504402910003,1698.5504402910003,1702.2902902910002,7,-7,3,4.0,2.286488291999831,2.0,3.6409740419999252,1698.0902755,1698.0996712080002,1698.5504402910003,1698.3843797910001,,,,,,,,1698.086626083,1698.0902264580002,None,,,,,,,,,,,203,bathroom,1,2024-03-13_15h47.31.880,image_similarity_rating,2023.2.3,None,2024-03-13 15h48.00.225345 +0100,
,121,138,439,439,stimuli/own/bathroom/121_bat.jpg,stimuli/own/bathroom/138_bat.jpg,,,,,,,,,0,130,130,438,1702.299712333,,,,,,,,,,,1702.584590916,1702.7574215410002,1702.7574215410002,1702.7574215410002,1702.7574215410002,1702.7574215410002,1702.7574215410002,1702.7574215410002,1702.7574215410002,1702.7574215410002,1706.1524687910003,7,-7,3,4.0,3.382525041000008,2.0,2.715416374999677,1702.2940555830003,1702.299712333,1702.7574215410002,1702.584569166,,,,,,,,1702.290512375,1702.2940086660003,None,,,,,,,,,,,203,bathroom,1,2024-03-13_15h47.31.880,image_similarity_rating,2023.2.3,None,2024-03-13 15h48.00.225345 +0100,
,113,125,281,281,stimuli/own/bathroom/113_bat.jpg,stimuli/own/bathroom/125_bat.jpg,,,,,,,,,0,131,131,280,1706.1579721660003,,,,,,,,,,,1706.4509674160001,1706.617826208,1706.617826208,1706.617826208,1706.617826208,1706.617826208,1706.617826208,1706.617826208,1706.617826208,1706.617826208,1709.4940277910002,7,-7,3,4.0,2.2002087500000016,2.0,2.8651519159998315,1706.156143,1706.1579721660003,1706.617826208,1706.45095225,,,,,,,,1706.1526892080003,1706.156096,None,,,,,,,,,,,203,bathroom,1,2024-03-13_15h47.31.880,image_similarity_rating,2023.2.3,None,2024-03-13 15h48.00.225345 +0100,
,104,124,115,115,stimuli/own/bathroom/104_bat.jpg,stimuli/own/bathroom/124_bat.jpg,,,,,,,,,0,132,132,114,1709.5163422500002,,,,,,,,,,,1709.8003620830002,1709.966618875,1709.966618875,1709.966618875,1709.966618875,1709.966618875,1709.966618875,1709.966618875,1709.966618875,1709.966618875,1713.124303291,7,-7,3,4.0,3.185953624999911,2.0,2.4780941670001084,1709.4978654580002,1709.5163422500002,,1709.8003434580003,,,,,,,,1709.494247458,1709.4978185410002,None,,,,,,,,,,,203,bathroom,1,2024-03-13_15h47.31.880,image_similarity_rating,2023.2.3,None,2024-03-13 15h48.00.225345 +0100,
,124,129,479,479,stimuli/own/bathroom/124_bat.jpg,stimuli/own/bathroom/129_bat.jpg,,,,,,,,,0,133,133,478,1713.132943375,,,,,,,,,,,1713.4175351660003,1713.58462825,1713.58462825,1713.58462825,1713.58462825,1713.58462825,1713.58462825,1713.58462825,1713.58462825,1713.58462825,1720.2649396660001,7,-7,3,2.0,4.754326750000018,4.0,6.574817374999839,1713.127957041,1713.132943375,1713.58462825,1713.4175195,,,,,,,,1713.1245215000001,1713.127910333,None,,,,,,,,,,,203,bathroom,1,2024-03-13_15h47.31.880,image_similarity_rating,2023.2.3,None,2024-03-13 15h48.00.225345 +0100,
,119,122,388,388,stimuli/own/bathroom/119_bat.jpg,stimuli/own/bathroom/122_bat.jpg,,,,,,,,,0,134,134,387,1720.2706006250003,,,,,,,,,,,1720.5547987910002,1720.7216565,1720.7216565,1720.7216565,1720.7216565,1720.7216565,1720.7216565,1720.7216565,1720.7216565,1720.7216565,1727.9275233330002,-7,7,3,3.0,5.680635416000314,1.0,7.058143374999872,1720.26866,1720.2706006250003,1720.7216565,1720.554780875,,,,,,,,1720.2651630410003,1720.268612875,None,,,,,,,,,,,203,bathroom,1,2024-03-13_15h47.31.880,image_similarity_rating,2023.2.3,None,2024-03-13 15h48.00.225345 +0100,
,126,131,508,508,stimuli/own/bathroom/126_bat.jpg,stimuli/own/bathroom/131_bat.jpg,,,,,,,,,0,135,135,507,1727.949838833,,,,,,,,,,,1728.2337465830003,1728.39951525,1728.39951525,1728.39951525,1728.39951525,1728.39951525,1728.39951525,1728.39951525,1728.39951525,1728.39951525,1732.0985320000002,-7,7,3,1.0,3.103601499999968,1.0,3.5123932920000698,1727.9311878330002,1727.949838833,,1728.2337255,,,,,,,,1727.927743083,1727.931141666,None,,,,,,,,,,,203,bathroom,1,2024-03-13_15h47.31.880,image_similarity_rating,2023.2.3,None,2024-03-13 15h48.00.225345 +0100,
,120,131,415,415,stimuli/own/bathroom/120_bat.jpg,stimuli/own/bathroom/131_bat.jpg,,,,,,,,,0,136,136,414,1732.1039694160002,,,,,,,,,,,1732.388484666,1732.5579287080002,1732.5579287080002,1732.5579287080002,1732.5579287080002,1732.5579287080002,1732.5579287080002,1732.5579287080002,1732.5579287080002,1732.5579287080002,1736.3980992500003,7,-7,3,1.0,3.791840959000183,1.0,1.528517458999886,1732.1022490410003,1732.1039694160002,1732.5579287080002,1732.3884690410002,,,,,,,,1732.0987697500002,1732.1022015830001,None,,,,,,,,,,,203,bathroom,1,2024-03-13_15h47.31.880,image_similarity_rating,2023.2.3,None,2024-03-13 15h48.00.225345 +0100,
,105,106,131,131,stimuli/own/bathroom/105_bat.jpg,stimuli/own/bathroom/106_bat.jpg,,,,,,,,,0,137,137,130,1736.403698166,,,,,,,,,,,1736.688247708,1736.854541458,1736.854541458,1736.854541458,1736.854541458,1736.854541458,1736.854541458,1736.854541458,1736.854541458,1736.854541458,1743.58219325,-7,7,3,3.0,5.365440832999866,1.0,6.3284832919998735,1736.4019490410003,1736.403698166,1736.854541458,1736.6882357910001,,,,,,,,1736.398318291,1736.401902333,None,,,,,,,,,,,203,bathroom,1,2024-03-13_15h47.31.880,image_similarity_rating,2023.2.3,None,2024-03-13 15h48.00.225345 +0100,
,127,138,526,526,stimuli/own/bathroom/127_bat.jpg,stimuli/own/bathroom/138_bat.jpg,,,,,,,,,0,138,138,525,1743.5878810410002,,,,,,,,,,,1743.8717548750003,1744.039667375,1744.039667375,1744.039667375,1744.039667375,1744.039667375,1744.039667375,1744.039667375,1744.039667375,1744.039667375,1745.986820458,-7,7,3,1.0,1.8282742499995948,1.0,0.9912117910002962,1743.5860637080002,1743.5878810410002,1744.039667375,1743.871740833,,,,,,,,1743.5824101660003,1743.586016,None,,,,,,,,,,,203,bathroom,1,2024-03-13_15h47.31.880,image_similarity_rating,2023.2.3,None,2024-03-13 15h48.00.225345 +0100,
,125,140,503,503,stimuli/own/bathroom/125_bat.jpg,stimuli/own/bathroom/140_bat.jpg,,,,,,,,,0,139,139,502,1745.999451,,,,,,,,,,,1746.284081208,1746.44948,1746.44948,1746.44948,1746.44948,1746.44948,1746.44948,1746.44948,1746.44948,1746.44948,1751.2194860410002,7,-7,3,2.0,4.072977042000275,1.0,4.581749457999649,1745.990793833,1745.999451,1746.44948,1746.2840682080002,,,,,,,,1745.987056708,1745.990743833,None,,,,,,,,,,,203,bathroom,1,2024-03-13_15h47.31.880,image_similarity_rating,2023.2.3,None,2024-03-13 15h48.00.225345 +0100,
,104,138,127,127,stimuli/own/bathroom/104_bat.jpg,stimuli/own/bathroom/138_bat.jpg,,,,,,,,,0,140,140,126,1751.2327843330002,,,,,,,,,,,1751.517446125,1751.6847572080003,1751.6847572080003,1751.6847572080003,1751.6847572080003,1751.6847572080003,1751.6847572080003,1751.6847572080003,1751.6847572080003,1751.6847572080003,1759.898327791,-7,7,3,3.0,7.97465454200028,2.0,4.351878292000038,1751.223369166,1751.2327843330002,1751.6847572080003,1751.517430958,,,,,,,,1751.2197186660003,1751.2233197080002,None,,,,,,,,,,,203,bathroom,1,2024-03-13_15h47.31.880,image_similarity_rating,2023.2.3,None,2024-03-13 15h48.00.225345 +0100,
,104,129,119,119,stimuli/own/bathroom/104_bat.jpg,stimuli/own/bathroom/129_bat.jpg,,,,,,,,,0,141,141,118,1759.903953416,,,,,,,,,,,1760.188109041,1760.3533597500002,1760.3533597500002,1760.3533597500002,1760.3533597500002,1760.3533597500002,1760.3533597500002,1760.3533597500002,1760.3533597500002,1760.3533597500002,1768.0150046660003,-7,7,3,4.0,6.647862917000111,2.0,7.449402000000191,1759.902036875,1759.903953416,1760.3533597500002,1760.188097291,,,,,,,,1759.8985715000001,1759.901989958,None,,,,,,,,,,,203,bathroom,1,2024-03-13_15h47.31.880,image_similarity_rating,2023.2.3,None,2024-03-13 15h48.00.225345 +0100,
,104,119,110,110,stimuli/own/bathroom/104_bat.jpg,stimuli/own/bathroom/119_bat.jpg,,,,,,,,,0,142,142,109,1768.0205089160002,,,,,,,,,,,1768.3045207080002,1768.4684681660003,1768.4684681660003,1768.4684681660003,1768.4684681660003,1768.4684681660003,1768.4684681660003,1768.4684681660003,1768.4684681660003,1768.4684681660003,1773.8111351250002,-7,7,3,3.0,5.052118250000149,2.0,3.807004124999821,1768.0187357910002,1768.0205089160002,1768.4684681660003,1768.3045103330003,,,,,,,,1768.015246958,1768.0186887080001,None,,,,,,,,,,,203,bathroom,1,2024-03-13_15h47.31.880,image_similarity_rating,2023.2.3,None,2024-03-13 15h48.00.225345 +0100,
,111,113,219,219,stimuli/own/bathroom/111_bat.jpg,stimuli/own/bathroom/113_bat.jpg,,,,,,,,,0,143,143,218,1773.817825375,,,,,,,,,,,1774.105364416,1774.2719922910003,1774.2719922910003,1774.2719922910003,1774.2719922910003,1774.2719922910003,1774.2719922910003,1774.2719922910003,1774.2719922910003,1774.2719922910003,1785.448796166,-7,7,3,3.0,10.017092291999688,2.0,10.76570295800002,1773.814821916,1773.817825375,1774.2719922910003,1774.105346958,,,,,,,,1773.8113553750002,1773.8147751660001,None,,,,,,,,,,,203,bathroom,1,2024-03-13_15h47.31.880,image_similarity_rating,2023.2.3,None,2024-03-13 15h48.00.225345 +0100,
,118,130,375,375,stimuli/own/bathroom/118_bat.jpg,stimuli/own/bathroom/130_bat.jpg,,,,,,,,,0,144,144,374,1785.454427333,,,,,,,,,,,1785.73807375,1785.9044405000002,1785.9044405000002,1785.9044405000002,1785.9044405000002,1785.9044405000002,1785.9044405000002,1785.9044405000002,1785.9044405000002,1785.9044405000002,1792.3024481250002,-7,7,3,3.0,6.29551979200005,1.0,2.869390249999924,1785.452525166,1785.454427333,1785.9044405000002,1785.738061416,,,,,,,,1785.449015458,1785.4524778749999,None,,,,,,,,,,,203,bathroom,1,2024-03-13_15h47.31.880,image_similarity_rating,2023.2.3,None,2024-03-13 15h48.00.225345 +0100,
,103,116,76,76,stimuli/own/bathroom/103_bat.jpg,stimuli/own/bathroom/116_bat.jpg,,,,,,,,,0,145,145,75,1792.308141916,,,,,,,,,,,1792.600562166,1792.7662130830001,1792.7662130830001,1792.7662130830001,1792.7662130830001,1792.7662130830001,1792.7662130830001,1792.7662130830001,1792.7662130830001,1792.7662130830001,1796.6036698750002,-7,7,3,3.0,2.3474344579999524,1.0,3.662038500000108,1792.3062067080002,1792.308141916,1792.7662130830001,1792.600546208,,,,,,,,1792.302668,1792.3061598750003,None,,,,,,,,,,,203,bathroom,1,2024-03-13_15h47.31.880,image_similarity_rating,2023.2.3,None,2024-03-13 15h48.00.225345 +0100,
,104,121,112,112,stimuli/own/bathroom/104_bat.jpg,stimuli/own/bathroom/121_bat.jpg,,,,,,,,,0,146,146,111,1796.6159866660003,,,,,,,,,,,1796.900472041,1797.0686116250001,1797.0686116250001,1797.0686116250001,1797.0686116250001,1797.0686116250001,1797.0686116250001,1797.0686116250001,1797.0686116250001,1797.0686116250001,1799.3371141250002,7,-7,3,1.0,2.1605739589999757,2.0,1.39503729199987,1796.607512708,1796.6159866660003,1797.0686116250001,1796.9004561250001,,,,,,,,1796.603890958,1796.6074658750001,None,,,,,,,,,,,203,bathroom,1,2024-03-13_15h47.31.880,image_similarity_rating,2023.2.3,None,2024-03-13 15h48.00.225345 +0100,
,129,134,533,533,stimuli/own/bathroom/129_bat.jpg,stimuli/own/bathroom/134_bat.jpg,,,,,,,,,0,147,147,532,1799.349380333,,,,,,,,,,,1799.6338332500002,1799.8005607910002,1799.8005607910002,1799.8005607910002,1799.8005607910002,1799.8005607910002,1799.8005607910002,1799.8005607910002,1799.8005607910002,1799.8005607910002,1805.7024267500003,7,-7,3,1.0,1.9386292909998701,5.0,5.690468666000015,1799.3408227080001,1799.349380333,1799.8005607910002,1799.6338105410002,,,,,,,,1799.3373334160003,1799.340776375,None,,,,,,,,,,,203,bathroom,1,2024-03-13_15h47.31.880,image_similarity_rating,2023.2.3,None,2024-03-13 15h48.00.225345 +0100,
,122,134,452,452,stimuli/own/bathroom/122_bat.jpg,stimuli/own/bathroom/134_bat.jpg,,,,,,,,,0,148,148,451,1805.7080294580003,,,,,,,,,,,1806.000618791,1806.167309583,1806.167309583,1806.167309583,1806.167309583,1806.167309583,1806.167309583,1806.167309583,1806.167309583,1806.167309583,1809.55215725,7,-7,3,4.0,3.2908154579999973,3.0,2.2679432499999166,1805.7061040830001,1805.7080294580003,1806.167309583,1806.0006029160002,,,,,,,,1805.702645875,1805.7060572910002,None,,,,,,,,,,,203,bathroom,1,2024-03-13_15h47.31.880,image_similarity_rating,2023.2.3,None,2024-03-13 15h48.00.225345 +0100,
,103,138,96,96,stimuli/own/bathroom/103_bat.jpg,stimuli/own/bathroom/138_bat.jpg,,,,,,,,,0,149,149,95,1809.558175541,,,,,,,,,,,1809.850444458,1810.0176076250002,1810.0176076250002,1810.0176076250002,1810.0176076250002,1810.0176076250002,1810.0176076250002,1810.0176076250002,1810.0176076250002,1810.0176076250002,1815.2857954580002,7,-7,3,3.0,5.289618374999918,5.0,4.218563166999957,1809.5560778330002,1809.558175541,1810.0176076250002,1809.8504286660002,,,,,,,,1809.552384416,1809.556029875,None,,,,,,,,,,,203,bathroom,1,2024-03-13_15h47.31.880,image_similarity_rating,2023.2.3,None,2024-03-13 15h48.00.225345 +0100,
,102,124,52,52,stimuli/own/bathroom/102_bat.jpg,stimuli/own/bathroom/124_bat.jpg,,,,,,,,,0,150,150,51,1815.291546625,,,,,,,,,,,1815.583914916,1815.75272475,1815.75272475,1815.75272475,1815.75272475,1815.75272475,1815.75272475,1815.75272475,1815.75272475,1815.75272475,1818.903650166,7,-7,3,3.0,2.015940000000228,2.0,2.9571788329999436,1815.289446208,1815.291546625,1815.75272475,1815.583897958,,,,,,,,1815.2860108330003,1815.289400166,None,,,,,,,,,,,203,bathroom,1,2024-03-13_15h47.31.880,image_similarity_rating,2023.2.3,None,2024-03-13 15h48.00.225345 +0100,
