sub_num,trial,block,task,is_practice,category,image,texture,duration,mask_dur,jitter,stim_time,time_of_resp,trial_response,mask_time,fix_time,jit_onset,trial_end,trial_accuracy,RT
133,1,0,typicality,1,bathroom,bathroom_practice2.tif,222,1.5,0,1.48333333333333,374.34489375,383.994480333,4,NaN,384.018315,384.038542458,385.515554791,NaN,NaN
133,2,0,typicality,1,bathroom,bathroom_practice4.tif,224,1.5,0,0.75,385.586750791,392.346883666,5,NaN,392.356833916,392.375561791,393.11892625,NaN,NaN
133,3,0,typicality,1,bathroom,bathroom_practice1.tif,221,1.5,0,1.93333333333333,393.125752583,398.002177083,5,NaN,398.009761916,398.028627125,399.955495166,NaN,NaN
133,4,0,typicality,1,bathroom,bathroom_practice5.tif,225,1.5,0,0.983333333333333,399.99292375,404.97013075,6,NaN,404.978134041,404.996955833,405.973642625,NaN,NaN
133,5,0,typicality,1,bathroom,bathroom_practice3.tif,223,1.5,0,0.883333333333333,405.982646583,409.30711325,7,NaN,409.317015833,409.336433166,410.21319175,NaN,NaN
133,1,1,typicality,0,bathroom,sun_aapitsgbtktqubfy.tif,122,1.5,0,0.866666666666667,417.866285333,421.882088,6,NaN,421.888687333,421.907181666,422.76721075,NaN,NaN
133,2,1,typicality,0,bathroom,sun_aleqenyvunhactkl.tif,142,1.5,0,1.03333333333333,422.789791375,426.266052333,3,NaN,426.272260291,426.29063425,427.317336166,NaN,NaN
133,3,1,typicality,0,bathroom,sun_ajlawzvmubibwbpy.tif,140,1.5,0,0.866666666666667,427.32785525,430.842635875,2,NaN,430.848309458,430.866648541,431.726654625,NaN,NaN
133,4,1,typicality,0,bathroom,sun_alkosphxlxwjwgjd.tif,144,1.5,0,1.61666666666667,431.732197583,437.074021375,3,NaN,437.081190875,437.099647375,438.709692041,NaN,NaN
133,5,1,typicality,0,bathroom,sun_anhioqovhscjqqwb.tif,148,1.5,0,0.883333333333333,438.728743458,443.322017375,4,NaN,443.32799775,443.346416458,444.2230905,NaN,NaN
133,6,1,typicality,0,bathroom,sun_alotolagknyrgtsk.tif,145,1.5,0,0.933333333333333,444.228481666,447.331433791,1,NaN,447.348693333,447.367992958,448.294664291,NaN,NaN
133,7,1,typicality,0,bathroom,sun_aghyqhbptboemmoq.tif,133,1.5,0,1.5,448.299924416,450.895619958,6,NaN,450.92601525,450.949186,452.442573625,NaN,NaN
133,8,1,typicality,0,bathroom,sun_asfwthctfqerjvxr.tif,159,1.5,0,1.36666666666667,452.453190375,455.762954416,3,NaN,455.768543,455.786951958,457.14700525,NaN,NaN
133,9,1,typicality,0,bathroom,sun_agyqfjcfkdcydepw.tif,135,1.5,0,0.85,457.164496166,460.065808583,2,NaN,460.071836416,460.090313,460.933653875,NaN,NaN
133,10,1,typicality,0,bathroom,sun_apeeialkgkuxddgh.tif,152,1.5,0,1.81666666666667,460.939373375,464.898343208,5,NaN,464.904250625,464.922667,466.732711416,NaN,NaN
133,11,1,typicality,0,bathroom,sun_acegryoqftbzowsg.tif,127,1.5,0,1.28333333333333,466.751138166,470.2986005,1,NaN,470.304275583,470.322891083,471.599604875,NaN,NaN
133,12,1,typicality,0,bathroom,sun_anryaplzeujmzfkd.tif,149,1.5,0,1.23333333333333,471.617094125,474.410066875,2,NaN,474.415849125,474.434094791,475.660811625,NaN,NaN
133,13,1,typicality,0,bathroom,sun_amzlamotzwfkwjco.tif,147,1.5,0,0.883333333333333,475.676322666,479.6105455,2,NaN,479.616153791,479.634450666,480.511122166,NaN,NaN
133,14,1,typicality,0,bathroom,sun_afcoljnjfoxjtgja.tif,130,1.5,0,0.866666666666667,480.515666916,483.470400125,1,NaN,483.496342541,483.519588375,484.379593208,NaN,NaN
133,15,1,typicality,0,bathroom,sun_aclfzgynxzxlbepz.tif,129,1.5,0,1.36666666666667,484.384203666,487.970183791,5,NaN,487.975759333,487.994059083,489.3540995,NaN,NaN
133,16,1,typicality,0,bathroom,sun_acduarbnmmoglmiv.tif,126,1.5,0,1.05,489.37306025,492.665980291,6,NaN,492.671689375,492.690103875,493.733477083,NaN,NaN
133,17,1,typicality,0,bathroom,sun_auzqhkafidnkrwmo.tif,164,1.5,0,1.21666666666667,493.742560333,496.882150833,5,NaN,496.888176666,496.906406,498.116446916,NaN,NaN
133,18,1,typicality,0,bathroom,sun_aofnryafpsjimzsb.tif,150,1.5,0,0.816666666666667,498.132613125,501.434312,2,NaN,501.439833833,501.458070541,502.268075958,NaN,NaN
133,19,1,typicality,0,bathroom,sun_apmqjbnwghzuhhzh.tif,156,1.5,0,1,502.274285416,505.962395958,5,NaN,505.967930916,505.986268375,506.979608,NaN,NaN
133,20,1,typicality,0,bathroom,sun_abjtwfukuwddzted.tif,125,1.5,0,1.21666666666667,506.98530425,510.130481666,3,NaN,510.1370385,510.155367958,511.365425458,NaN,NaN
133,21,1,typicality,0,bathroom,sun_awnqiikzaispgmwo.tif,166,1.5,0,1.46666666666667,511.383370541,514.073805458,5,NaN,514.079636458,514.098087791,515.558146416,NaN,NaN
133,22,1,typicality,0,bathroom,sun_aljolscmmzydegqp.tif,143,1.5,0,1.4,515.574512333,519.042119958,3,NaN,519.047836791,519.066167708,520.459539708,NaN,NaN
133,23,1,typicality,0,bathroom,sun_abapwbhyhkfixyex.tif,124,1.5,0,0.783333333333333,520.471167708,523.897602625,5,NaN,523.903699541,523.921961291,524.698632375,NaN,NaN
133,24,1,typicality,0,bathroom,labelme_sfxiulhjbhlyiyt.tif,121,1.5,0,1.21666666666667,524.703967291,527.81817175,6,NaN,527.825228,527.843601041,529.053638166,NaN,NaN
133,25,1,typicality,0,bathroom,sun_axldvoqbuvuggfmq.tif,167,1.5,0,1.35,529.072767583,531.898091833,5,NaN,531.903728333,531.92214825,533.26553775,NaN,NaN
133,1,2,typicality,0,bathroom,sun_aoybiabnpadelefl.tif,151,1.5,0,1.65,566.753256791,570.193608625,1,NaN,570.199408541,570.217841166,571.861224041,NaN,NaN
133,2,2,typicality,0,bathroom,sun_apkruvsevgegsdwp.tif,154,1.5,0,1.01666666666667,571.886147375,575.465328708,6,NaN,575.472604083,575.490803125,576.5008575,NaN,NaN
133,3,2,typicality,0,bathroom,sun_ahijqszoswveeyji.tif,138,1.5,0,1.58333333333333,576.509659958,580.0257385,5,NaN,580.031570583,580.049959625,581.626685875,NaN,NaN
133,4,2,typicality,0,bathroom,sun_aunuadmjocsddsrl.tif,162,1.5,0,0.7,581.644434833,585.434058,6,NaN,585.439598333,585.457741,586.151079125,NaN,NaN
133,5,2,typicality,0,bathroom,sun_apkxzenqapsujocq.tif,155,1.5,0,1.23333333333333,586.157128,590.898217791,6,NaN,590.903861208,590.922276625,592.148982458,NaN,NaN
133,6,2,typicality,0,bathroom,sun_akiytfaagpdsphgz.tif,141,1.5,0,0.816666666666667,592.166934375,596.44202525,7,NaN,596.447537,596.465869291,597.275876041,NaN,NaN
133,7,2,typicality,0,bathroom,sun_agrwbmhcpmfuwmsg.tif,134,1.5,0,0.733333333333333,597.281032166,600.192766291,4,NaN,600.22249175,600.245867916,600.972539083,NaN,NaN
133,8,2,typicality,0,bathroom,sun_agguqiubmwhqqunb.tif,132,1.5,0,1.15,600.977759958,605.17737775,6,NaN,605.183393416,605.201736291,606.345107291,NaN,NaN
133,9,2,typicality,0,bathroom,sun_axyrejkiiaqiurjk.tif,169,1.5,0,0.933333333333333,606.353158875,609.345418208,7,NaN,609.351264291,609.369542333,610.296213708,NaN,NaN
133,10,2,typicality,0,bathroom,sun_aavhrsfjbserjtht.tif,123,1.5,0,0.916666666666667,610.301304791,613.054386583,6,NaN,613.08261425,613.106287875,614.0162945,NaN,NaN
133,11,2,typicality,0,bathroom,sun_avhrdrntsqrjzccq.tif,165,1.5,0,1.26666666666667,614.021946666,617.161694708,3,NaN,617.168852,617.1871125,618.447164416,NaN,NaN
133,12,2,typicality,0,bathroom,sun_aqrpegblszgcoujh.tif,158,1.5,0,0.933333333333333,618.457744583,621.793791833,4,NaN,621.799373625,621.817810666,622.744484,NaN,NaN
133,13,2,typicality,0,bathroom,sun_ambriybtogmepttm.tif,146,1.5,0,1,622.755612625,626.321827666,2,NaN,626.327413833,626.345700458,627.339040583,NaN,NaN
133,14,2,typicality,0,bathroom,sun_acgyywnybuveqsro.tif,128,1.5,0,1,627.355287291,630.761449291,6,NaN,630.767137375,630.785505958,631.778844541,NaN,NaN
133,15,2,typicality,0,bathroom,sun_aggnnqpdorgxpvce.tif,131,1.5,0,1.21666666666667,631.783938,635.193843375,4,NaN,635.199350666,635.217741875,636.427794541,NaN,NaN
133,16,2,typicality,0,bathroom,sun_apjevzvycyhuqghb.tif,153,1.5,0,1.85,636.437790333,639.641124583,2,NaN,639.647026541,639.665405416,641.508784833,NaN,NaN
133,17,2,typicality,0,bathroom,sun_aspsyogrekjtfozg.tif,160,1.5,0,0.766666666666667,641.526812583,646.465682666,3,NaN,646.471528083,646.490136416,647.250142666,NaN,NaN
133,18,2,typicality,0,bathroom,sun_axxbkopsgyouuebh.tif,168,1.5,0,0.966666666666667,647.256950958,650.089531958,5,NaN,650.115090916,650.138757416,651.098763375,NaN,NaN
133,19,2,typicality,0,bathroom,sun_ahaulkltgpkeeemi.tif,136,1.5,0,1.4,651.1042695,656.121611166,3,NaN,656.12710825,656.145492125,657.538863625,NaN,NaN
133,20,2,typicality,0,bathroom,sun_apynckhmoftszqoq.tif,157,1.5,0,0.933333333333333,657.555997041,661.521135875,2,NaN,661.526934916,661.545290833,662.471961958,NaN,NaN
133,21,2,typicality,0,bathroom,sun_ahqjwnzgolcaoidx.tif,139,1.5,0,1.7,662.476724291,668.289584166,4,NaN,668.295217833,668.313585041,670.00697275,NaN,NaN
133,22,2,typicality,0,bathroom,sun_ahcvzmoyaycdoftf.tif,137,1.5,0,0.916666666666667,670.022272458,672.981773375,5,NaN,673.007748875,673.031135333,673.941141208,NaN,NaN
133,23,2,typicality,0,bathroom,sun_ausgutylgojavyoq.tif,163,1.5,0,0.833333333333333,673.954954083,676.885582416,3,NaN,676.908185875,676.931084666,677.757758,NaN,NaN
133,24,2,typicality,0,bathroom,sun_azqyogdvyhahyram.tif,170,1.5,0,0.783333333333333,677.771486541,681.177430208,6,NaN,681.184333166,681.202705708,681.979377333,NaN,NaN
133,25,2,typicality,0,bathroom,sun_atstyziqcmkahyxk.tif,161,1.5,0,1.4,681.984587375,684.405357916,5,NaN,684.429685666,684.45120075,685.844587541,NaN,NaN
