sub_num,trial,block,task,is_practice,category,image,texture,duration,mask_dur,jitter,stim_time,time_of_resp,trial_response,mask_time,fix_time,jit_onset,trial_end,trial_accuracy,RT
112,6,0,aesthetic,1,kitchen,kitchen_practice2.tif,227,1.5,0,1.08333333333333,2676.963262,2681.537719875,2,NaN,2681.544252333,2681.562746125,2682.639473708,NaN,NaN
112,7,0,aesthetic,1,kitchen,kitchen_practice1.tif,226,1.5,0,1.06666666666667,2682.647520916,2685.369653083,2,NaN,2685.37559575,2685.394164583,2686.454228041,NaN,NaN
112,8,0,aesthetic,1,kitchen,kitchen_practice4.tif,229,1.5,0,1.11666666666667,2686.46463675,2689.0180625,5,NaN,2689.023918583,2689.042273416,2690.152412541,NaN,NaN
112,9,0,aesthetic,1,kitchen,kitchen_practice3.tif,228,1.5,0,0.95,2690.160957416,2693.081378,5,NaN,2693.087558791,2693.105822,2694.049165833,NaN,NaN
112,10,0,aesthetic,1,kitchen,kitchen_practice5.tif,230,1.5,0,0.9,2694.053743041,2697.442079916,3,NaN,2697.447934416,2697.46629675,2698.359640291,NaN,NaN
112,1,1,aesthetic,0,kitchen,sun_ahljzhgcdpomplvg.tif,201,1.5,0,1.48333333333333,2702.158560166,2705.378304791,3,NaN,2705.38425225,2705.402540166,2706.879270083,NaN,NaN
112,2,1,aesthetic,0,kitchen,sun_afuyedyxivkhecmu.tif,195,1.5,0,1.46666666666667,2706.898080125,2709.153951916,1,NaN,2709.159828166,2709.178168458,2710.638263416,NaN,NaN
112,3,1,aesthetic,0,kitchen,sun_adgqasybjyktddhj.tif,188,1.5,0,0.766666666666667,2710.650296166,2713.330416458,2,NaN,2713.336667791,2713.3549235,2714.114931875,NaN,NaN
112,4,1,aesthetic,0,kitchen,sun_ahpczsiumwwocjkv.tif,202,1.5,0,1.16666666666667,2714.119216291,2717.069394875,2,NaN,2717.100018833,2717.123177916,2718.283257083,NaN,NaN
112,5,1,aesthetic,0,kitchen,sun_agorklincwxrdtga.tif,197,1.5,0,1.6,2718.292940791,2721.145549875,1,NaN,2721.151700583,2721.1700625,2722.763478666,NaN,NaN
112,6,1,aesthetic,0,kitchen,sun_auaiucuqpdausiva.tif,212,1.5,0,1.68333333333333,2722.781116125,2726.84918275,5,NaN,2726.855958625,2726.87440475,2728.551109583,NaN,NaN
112,7,1,aesthetic,0,kitchen,sun_aapllqyqlykszopd.tif,176,1.5,0,1.5,2728.560794333,2731.472601125,2,NaN,2731.504466541,2731.528026583,2733.021416041,NaN,NaN
112,8,1,aesthetic,0,kitchen,sun_awcpdzzznmweyyhv.tif,216,1.5,0,0.833333333333333,2733.039606458,2736.537705041,3,NaN,2736.543561125,2736.562033375,2737.388708125,NaN,NaN
112,9,1,aesthetic,0,kitchen,sun_aadbddgrdsjugojn.tif,174,1.5,0,0.9,2737.393183333,2739.949306,2,NaN,2739.980014166,2740.003303291,2740.89664525,NaN,NaN
112,10,1,aesthetic,0,kitchen,sun_aegoxogugdkwpmpj.tif,190,1.5,0,0.933333333333333,2740.910394791,2743.589084541,1,NaN,2743.619324,2743.64249375,2744.569169625,NaN,NaN
112,11,1,aesthetic,0,kitchen,sun_abrcnpqqhmjwekyf.tif,183,1.5,0,0.9,2744.573782125,2747.473847333,2,NaN,2747.504244291,2747.527574666,2748.420915875,NaN,NaN
112,12,1,aesthetic,0,kitchen,sun_avszsnwsbuqfgzbn.tif,215,1.5,0,0.85,2748.425498708,2750.90689175,2,NaN,2750.932013541,2750.954478625,2751.797818875,NaN,NaN
112,13,1,aesthetic,0,kitchen,labelme_kxvouciolcpqplr.tif,172,1.5,0,1.83333333333333,2751.802693333,2754.326197125,1,NaN,2754.35377225,2754.377646041,2756.204364916,NaN,NaN
112,14,1,aesthetic,0,kitchen,sun_agzzivivdpnawacl.tif,199,1.5,0,0.733333333333333,2756.219443208,2759.295893,2,NaN,2759.327844666,2759.351206416,2760.07788475,NaN,NaN
112,15,1,aesthetic,0,kitchen,sun_aunzlwrbjumxhwdj.tif,213,1.5,0,1.63333333333333,2760.082945583,2762.885765916,1,NaN,2762.915738208,2762.94002975,2764.566780583,NaN,NaN
112,16,1,aesthetic,0,kitchen,sun_aymvwlarqodbwuoc.tif,218,1.5,0,0.766666666666667,2764.579347625,2767.265207458,4,NaN,2767.2716165,2767.289886791,2768.049896583,NaN,NaN
112,17,1,aesthetic,0,kitchen,sun_abpwyqmlzafvklqo.tif,182,1.5,0,1.71666666666667,2768.054174375,2770.579460708,2,NaN,2770.597662541,2770.619570416,2772.329657666,NaN,NaN
112,18,1,aesthetic,0,kitchen,sun_abdxkyyxwfskuaqb.tif,180,1.5,0,1.51666666666667,2772.348903375,2774.948985625,1,NaN,2774.980029458,2775.003606,2776.513679541,NaN,NaN
112,19,1,aesthetic,0,kitchen,sun_aaxxjlsuzvqlgylf.tif,178,1.5,0,1.25,2776.525809541,2779.377571083,5,NaN,2779.383469333,2779.401757791,2780.645153791,NaN,NaN
112,20,1,aesthetic,0,kitchen,sun_azmutvzbxypaceni.tif,220,1.5,0,1.41666666666667,2780.656826375,2783.881932,3,NaN,2783.887829791,2783.9062495,2785.316335583,NaN,NaN
112,21,1,aesthetic,0,kitchen,sun_axyyrmzcupyhlivc.tif,217,1.5,0,1.1,2785.329615041,2788.521683208,3,NaN,2788.527763916,2788.545996958,2789.639418541,NaN,NaN
112,22,1,aesthetic,0,kitchen,sun_ajkqhtgcbgpcwrwn.tif,207,1.5,0,0.95,2789.648357416,2792.225817458,2,NaN,2792.231708958,2792.249963041,2793.193303,NaN,NaN
112,23,1,aesthetic,0,kitchen,sun_aamedkxepzlwuxes.tif,175,1.5,0,1.45,2793.197985,2795.717688958,1,NaN,2795.74655625,2795.769757416,2797.213154791,NaN,NaN
112,24,1,aesthetic,0,kitchen,sun_akcjzhbbjlbogpdi.tif,209,1.5,0,0.883333333333333,2797.233229666,2800.153880583,2,NaN,2800.159787416,2800.178429333,2801.0551045,NaN,NaN
112,25,1,aesthetic,0,kitchen,sun_ahywdevtimnqcsln.tif,204,1.5,0,1.23333333333333,2801.059380833,2803.980650333,2,NaN,2804.011162125,2804.033977,2805.260701333,NaN,NaN
112,1,2,aesthetic,0,kitchen,sun_aeqdocilnnpuvuhx.tif,193,1.5,0,1.78333333333333,2809.163266916,2811.80486,3,NaN,2811.833044333,2811.856504291,2813.633235791,NaN,NaN
112,2,2,aesthetic,0,kitchen,sun_aggjlwcdjsjcaemh.tif,196,1.5,0,1.8,2813.651364416,2816.438967,3,NaN,2816.469816666,2816.491798291,2818.285208791,NaN,NaN
112,3,2,aesthetic,0,kitchen,sun_aixorpehvfykdynp.tif,205,1.5,0,0.8,2818.3036875,2820.845011125,4,NaN,2820.875181458,2820.898622333,2821.691977416,NaN,NaN
112,4,2,aesthetic,0,kitchen,sun_acfmftudsenhrfhy.tif,184,1.5,0,1.01666666666667,2821.69788325,2824.416971833,4,NaN,2824.440236875,2824.463603208,2825.473609791,NaN,NaN
112,5,2,aesthetic,0,kitchen,sun_acxkpeoqbwcxfvip.tif,187,1.5,0,0.85,2825.4791565,2828.102317416,5,NaN,2828.1262575,2828.149013166,2828.992353083,NaN,NaN
112,6,2,aesthetic,0,kitchen,sun_admlmbcdswaszruo.tif,189,1.5,0,1.83333333333333,2828.997089958,2831.864435125,6,NaN,2831.896642708,2831.920036583,2833.746787291,NaN,NaN
112,7,2,aesthetic,0,kitchen,sun_aexklacwqwezaorf.tif,194,1.5,0,1.11666666666667,2833.766020958,2836.301392208,6,NaN,2836.331512458,2836.3551895,2837.4652685,NaN,NaN
112,8,2,aesthetic,0,kitchen,sun_agubuxuukhzyzpdp.tif,198,1.5,0,1.88333333333333,2837.474428041,2840.20171925,3,NaN,2840.207601541,2840.22601175,2842.102741541,NaN,NaN
112,9,2,aesthetic,0,kitchen,sun_aypmqwcualkenuoe.tif,219,1.5,0,0.916666666666667,2842.1204495,2845.721167458,4,NaN,2845.727089875,2845.745245625,2846.655253041,NaN,NaN
112,10,2,aesthetic,0,kitchen,labelme_rykdqxenmhulbdn.tif,173,1.5,0,1.05,2846.65985825,2849.425514083,3,NaN,2849.451105625,2849.474432166,2850.517865583,NaN,NaN
112,11,2,aesthetic,0,kitchen,sun_aqeaevwwwjoqhzvl.tif,211,1.5,0,1.35,2850.526040666,2853.353574458,3,NaN,2853.35959475,2853.378386291,2854.721793791,NaN,NaN
112,12,2,aesthetic,0,kitchen,sun_ahspylgoovwmwvgk.tif,203,1.5,0,1.01666666666667,2854.740664083,2857.497501208,5,NaN,2857.503451041,2857.521719916,2858.531813958,NaN,NaN
112,13,2,aesthetic,0,kitchen,sun_aehawpgmrlhlvcow.tif,191,1.5,0,2,2858.540153666,2861.440976291,7,NaN,2861.447080416,2861.465362541,2863.458783333,NaN,NaN
112,14,2,aesthetic,0,kitchen,sun_ahdycvpopffkzzsu.tif,200,1.5,0,0.9,2863.475263208,2866.43324425,2,NaN,2866.462062041,2866.484560958,2867.37790125,NaN,NaN
112,15,2,aesthetic,0,kitchen,sun_akchetnepxlcxhsu.tif,208,1.5,0,1.15,2867.382840583,2870.4183325,6,NaN,2870.440526625,2870.461878041,2871.605308916,NaN,NaN
112,16,2,aesthetic,0,kitchen,sun_abdenxonkemggwsq.tif,179,1.5,0,1.23333333333333,2871.614169875,2874.577291458,7,NaN,2874.583492625,2874.602004875,2875.828782625,NaN,NaN
112,17,2,aesthetic,0,kitchen,sun_ajcbwwvdlsvjyzje.tif,206,1.5,0,1.03333333333333,2875.847225583,2878.417428833,6,NaN,2878.423692708,2878.44203625,2879.468794791,NaN,NaN
112,18,2,aesthetic,0,kitchen,sun_acgtpgfybqjmzeyw.tif,185,1.5,0,0.783333333333333,2879.47751925,2882.601022875,5,NaN,2882.607162875,2882.625454375,2883.402132083,NaN,NaN
112,19,2,aesthetic,0,kitchen,sun_acwjdupvyjsugpay.tif,186,1.5,0,0.766666666666667,2883.406268833,2886.857430125,4,NaN,2886.863348708,2886.881638041,2887.641646291,NaN,NaN
112,20,2,aesthetic,0,kitchen,sun_auticobqsbwgoppi.tif,214,1.5,0,1.18333333333333,2887.646031375,2891.008740333,2,NaN,2891.015538,2891.033851041,2892.210610833,NaN,NaN
112,21,2,aesthetic,0,kitchen,sun_aenotlpyftoioydp.tif,192,1.5,0,0.7,2892.221549708,2894.873357541,2,NaN,2894.879218458,2894.897584875,2895.590925833,NaN,NaN
112,22,2,aesthetic,0,kitchen,labelme_brsyyvweiuaazfr.tif,171,1.5,0,0.7,2895.595105041,2898.084570666,2,NaN,2898.112793125,2898.136147791,2898.829490875,NaN,NaN
112,23,2,aesthetic,0,kitchen,sun_abftihopvusyfakt.tif,181,1.5,0,1.55,2898.834068583,2901.725315375,7,NaN,2901.757087541,2901.781193666,2903.324602666,NaN,NaN
112,24,2,aesthetic,0,kitchen,sun_aarfiyshqohlwkmo.tif,177,1.5,0,1.16666666666667,2903.343139458,2907.080653708,5,NaN,2907.086790875,2907.105337583,2908.265402208,NaN,NaN
112,25,2,aesthetic,0,kitchen,sun_amjjdeyrggfqgmom.tif,210,1.5,0,1.68333333333333,2908.274210791,2911.281612291,6,NaN,2911.287864375,2911.306189583,2912.982930708,NaN,NaN
