sub_num,trial,block,task,is_practice,category,image,texture,duration,mask_dur,jitter,stim_time,time_of_resp,trial_response,mask_time,fix_time,jit_onset,trial_end,trial_accuracy,RT
115,1,0,aesthetic,1,bathroom,bathroom_practice1.tif,221,1.5,0,1.6,11840.348802,11846.960444959,4,NaN,11846.967621125,11846.986325834,11848.580127375,NaN,NaN
115,2,0,aesthetic,1,bathroom,bathroom_practice2.tif,222,1.5,0,1.26666666666667,11848.603419667,11852.824328334,3,NaN,11852.830424459,11852.848944542,11854.109135667,NaN,NaN
115,3,0,aesthetic,1,bathroom,bathroom_practice3.tif,223,1.5,0,1.15,11854.125984084,11857.569343542,4,NaN,11857.57501875,11857.593453334,11858.73682525,NaN,NaN
115,4,0,aesthetic,1,bathroom,bathroom_practice4.tif,224,1.5,0,1.75,11858.747058834,11863.84912925,5,NaN,11863.854615792,11863.873068209,11865.616444459,NaN,NaN
115,5,0,aesthetic,1,bathroom,bathroom_practice5.tif,225,1.5,0,0.85,11865.637332542,11869.601065459,4,NaN,11869.606554459,11869.62503525,11870.468374542,NaN,NaN
115,1,1,aesthetic,0,bathroom,sun_acgyywnybuveqsro.tif,128,1.5,0,0.933333333333333,11876.1810685,11879.672423625,6,NaN,11879.678661209,11879.697235625,11880.623922334,NaN,NaN
115,2,1,aesthetic,0,bathroom,sun_ahcvzmoyaycdoftf.tif,137,1.5,0,1.18333333333333,11880.629344167,11883.509193584,4,NaN,11883.53842,11883.562445125,11884.739159417,NaN,NaN
115,3,1,aesthetic,0,bathroom,sun_ahqjwnzgolcaoidx.tif,139,1.5,0,1.56666666666667,11884.751432875,11887.801185875,3,NaN,11887.806679209,11887.825203709,11889.385249709,NaN,NaN
115,4,1,aesthetic,0,bathroom,sun_ambriybtogmepttm.tif,146,1.5,0,1.38333333333333,11889.403534292,11893.048210959,6,NaN,11893.055828417,11893.074276084,11894.450998417,NaN,NaN
115,5,1,aesthetic,0,bathroom,sun_apkruvsevgegsdwp.tif,154,1.5,0,1.23333333333333,11894.470172542,11898.312239292,2,NaN,11898.318314792,11898.336674334,11899.563396084,NaN,NaN
115,6,1,aesthetic,0,bathroom,sun_apkxzenqapsujocq.tif,155,1.5,0,1.83333333333333,11899.581494,11902.872838667,4,NaN,11902.87845925,11902.896852167,11904.723560625,NaN,NaN
115,7,1,aesthetic,0,bathroom,sun_agyqfjcfkdcydepw.tif,135,1.5,0,1.1,11904.744539792,11908.905164209,4,NaN,11908.910718125,11908.929083042,11910.022460917,NaN,NaN
115,8,1,aesthetic,0,bathroom,sun_anhioqovhscjqqwb.tif,148,1.5,0,1.71666666666667,11910.031988334,11914.761163042,5,NaN,11914.766649917,11914.784789042,11916.494825542,NaN,NaN
115,9,1,aesthetic,0,bathroom,sun_alotolagknyrgtsk.tif,145,1.5,0,1.01666666666667,11916.513302084,11920.448468834,4,NaN,11920.454212292,11920.47247225,11921.482506167,NaN,NaN
115,10,1,aesthetic,0,bathroom,sun_auzqhkafidnkrwmo.tif,164,1.5,0,1.36666666666667,11921.49425,11924.904302334,5,NaN,11924.910273917,11924.928685625,11926.288732084,NaN,NaN
115,11,1,aesthetic,0,bathroom,sun_agguqiubmwhqqunb.tif,132,1.5,0,0.75,11926.308146084,11931.089080459,4,NaN,11931.094671959,11931.113023292,11931.856360167,NaN,NaN
115,12,1,aesthetic,0,bathroom,sun_acduarbnmmoglmiv.tif,126,1.5,0,1.31666666666667,11931.861331875,11935.889107625,2,NaN,11935.894805,11935.913125709,11937.223174959,NaN,NaN
115,13,1,aesthetic,0,bathroom,sun_aclfzgynxzxlbepz.tif,129,1.5,0,1.33333333333333,11937.237326875,11940.288479542,2,NaN,11940.294198417,11940.312629167,11941.639341834,NaN,NaN
115,14,1,aesthetic,0,bathroom,sun_axxbkopsgyouuebh.tif,168,1.5,0,1.41666666666667,11941.659164959,11945.472393792,2,NaN,11945.478121125,11945.496492417,11946.906540834,NaN,NaN
115,15,1,aesthetic,0,bathroom,sun_avhrdrntsqrjzccq.tif,165,1.5,0,1.93333333333333,11946.925873375,11950.7449515,7,NaN,11950.750499125,11950.768686917,11952.695397167,NaN,NaN
115,16,1,aesthetic,0,bathroom,sun_ahijqszoswveeyji.tif,138,1.5,0,1.68333333333333,11952.716206334,11955.910036084,5,NaN,11955.937718959,11955.957336125,11957.634035125,NaN,NaN
115,17,1,aesthetic,0,bathroom,sun_atstyziqcmkahyxk.tif,161,1.5,0,0.783333333333333,11957.653537459,11960.572110417,2,NaN,11960.601384125,11960.624568959,11961.401240792,NaN,NaN
115,18,1,aesthetic,0,bathroom,sun_asfwthctfqerjvxr.tif,159,1.5,0,1.93333333333333,11961.406152417,11964.292040625,3,NaN,11964.318457792,11964.34152975,11966.2682305,NaN,NaN
115,19,1,aesthetic,0,bathroom,sun_aofnryafpsjimzsb.tif,150,1.5,0,1.18333333333333,11966.286530167,11969.545361792,6,NaN,11969.555108459,11969.574228167,11970.7509155,NaN,NaN
115,20,1,aesthetic,0,bathroom,sun_afcoljnjfoxjtgja.tif,130,1.5,0,1.61666666666667,11970.76036175,11973.82486725,4,NaN,11973.830344334,11973.848762209,11975.458801042,NaN,NaN
115,21,1,aesthetic,0,bathroom,sun_akiytfaagpdsphgz.tif,141,1.5,0,1.16666666666667,11975.475455292,11978.333975667,7,NaN,11978.363896584,11978.387459292,11979.547489334,NaN,NaN
115,22,1,aesthetic,0,bathroom,sun_awnqiikzaispgmwo.tif,166,1.5,0,1.85,11979.559311375,11982.952149584,5,NaN,11982.9578635,11982.976188042,11984.819567,NaN,NaN
115,23,1,aesthetic,0,bathroom,sun_apjevzvycyhuqghb.tif,153,1.5,0,1.68333333333333,11984.835919292,11988.376360292,3,NaN,11988.381910459,11988.400411042,11990.077118459,NaN,NaN
115,24,1,aesthetic,0,bathroom,sun_apynckhmoftszqoq.tif,157,1.5,0,1.98333333333333,11990.092935417,11994.160589125,4,NaN,11994.166187334,11994.184471167,11996.161186209,NaN,NaN
115,25,1,aesthetic,0,bathroom,sun_aoybiabnpadelefl.tif,151,1.5,0,1.28333333333333,11996.178364875,12000.352638209,5,NaN,12000.358098375,12000.376369542,12001.653083459,NaN,NaN
115,1,2,aesthetic,0,bathroom,sun_apmqjbnwghzuhhzh.tif,156,1.5,0,0.9,12006.7094455,12009.895832459,4,NaN,12009.902630917,12009.921091334,12010.814428875,NaN,NaN
115,2,2,aesthetic,0,bathroom,sun_aapitsgbtktqubfy.tif,122,1.5,0,1.95,12010.819182709,12013.547757292,5,NaN,12013.576758125,12013.600151625,12015.543516917,NaN,NaN
115,3,2,aesthetic,0,bathroom,sun_axyrejkiiaqiurjk.tif,169,1.5,0,1,12015.558251,12018.544127834,6,NaN,12018.573017792,12018.596064792,12019.589403209,NaN,NaN
115,4,2,aesthetic,0,bathroom,sun_ahaulkltgpkeeemi.tif,136,1.5,0,0.733333333333333,12019.594843625,12022.546094834,2,NaN,12022.576380834,12022.600301667,12023.327000125,NaN,NaN
115,5,2,aesthetic,0,bathroom,sun_amzlamotzwfkwjco.tif,147,1.5,0,1.2,12023.331726584,12026.487970875,6,NaN,12026.495180875,12026.513566834,12027.706938042,NaN,NaN
115,6,2,aesthetic,0,bathroom,sun_aunuadmjocsddsrl.tif,162,1.5,0,1.21666666666667,12027.719420417,12030.720178709,3,NaN,12030.725626125,12030.744081209,12031.954130417,NaN,NaN
115,7,2,aesthetic,0,bathroom,sun_azqyogdvyhahyram.tif,170,1.5,0,0.933333333333333,12031.968800625,12035.112325417,1,NaN,12035.117820417,12035.136171709,12036.062844792,NaN,NaN
115,8,2,aesthetic,0,bathroom,sun_aqrpegblszgcoujh.tif,158,1.5,0,0.916666666666667,12036.068317375,12038.876528417,5,NaN,12038.90543075,12038.928762334,12039.838766584,NaN,NaN
115,9,2,aesthetic,0,bathroom,sun_aspsyogrekjtfozg.tif,160,1.5,0,1.1,12039.843694334,12043.184509042,6,NaN,12043.189882375,12043.208284959,12044.301674625,NaN,NaN
115,10,2,aesthetic,0,bathroom,sun_axldvoqbuvuggfmq.tif,167,1.5,0,1.16666666666667,12044.310860459,12047.015931417,4,NaN,12047.021508584,12047.039909875,12048.199960584,NaN,NaN
115,11,2,aesthetic,0,bathroom,sun_abjtwfukuwddzted.tif,125,1.5,0,0.783333333333333,12048.211403,12051.183966875,4,NaN,12051.189677625,12051.208123584,12051.984796792,NaN,NaN
115,12,2,aesthetic,0,bathroom,sun_abapwbhyhkfixyex.tif,124,1.5,0,1.95,12051.989305,12054.691974125,4,NaN,12054.721032584,12054.743234209,12056.686612542,NaN,NaN
115,13,2,aesthetic,0,bathroom,sun_anryaplzeujmzfkd.tif,149,1.5,0,1.05,12056.70557675,12059.615354292,3,NaN,12059.6448055,12059.668197167,12060.711574959,NaN,NaN
115,14,2,aesthetic,0,bathroom,sun_ausgutylgojavyoq.tif,163,1.5,0,1.03333333333333,12060.723078709,12063.975957917,3,NaN,12063.981621709,12063.999890042,12065.026599292,NaN,NaN
115,15,2,aesthetic,0,bathroom,sun_aggnnqpdorgxpvce.tif,131,1.5,0,1.45,12065.036505792,12067.951910709,3,NaN,12067.957603834,12067.976235417,12069.419614084,NaN,NaN
115,16,2,aesthetic,0,bathroom,sun_aljolscmmzydegqp.tif,143,1.5,0,0.966666666666667,12069.435144959,12072.472050417,3,NaN,12072.477610167,12072.496045125,12073.4560505,NaN,NaN
115,17,2,aesthetic,0,bathroom,sun_aghyqhbptboemmoq.tif,133,1.5,0,0.966666666666667,12073.460721167,12076.543053375,2,NaN,12076.564806459,12076.584721792,12077.544727,NaN,NaN
115,18,2,aesthetic,0,bathroom,sun_alkosphxlxwjwgjd.tif,144,1.5,0,1.2,12077.550153834,12080.222872625,4,NaN,12080.251393375,12080.274384875,12081.467750334,NaN,NaN
115,19,2,aesthetic,0,bathroom,sun_apeeialkgkuxddgh.tif,152,1.5,0,0.933333333333333,12081.478895542,12084.24026075,2,NaN,12084.245801709,12084.264061917,12085.190734209,NaN,NaN
115,20,2,aesthetic,0,bathroom,sun_aleqenyvunhactkl.tif,142,1.5,0,1.31666666666667,12085.198411209,12087.891427959,3,NaN,12087.920268334,12087.943796875,12089.253847625,NaN,NaN
115,21,2,aesthetic,0,bathroom,sun_ajlawzvmubibwbpy.tif,140,1.5,0,1.18333333333333,12089.275152667,12092.079611542,4,NaN,12092.085438542,12092.103830875,12093.280531292,NaN,NaN
115,22,2,aesthetic,0,bathroom,labelme_sfxiulhjbhlyiyt.tif,121,1.5,0,1.71666666666667,12093.289328625,12096.672323167,3,NaN,12096.677806709,12096.696254625,12098.406288917,NaN,NaN
115,23,2,aesthetic,0,bathroom,sun_aavhrsfjbserjtht.tif,123,1.5,0,1.53333333333333,12098.425052084,12101.40029125,3,NaN,12101.429597875,12101.453191167,12102.979889625,NaN,NaN
115,24,2,aesthetic,0,bathroom,sun_acegryoqftbzowsg.tif,127,1.5,0,0.933333333333333,12102.999805459,12106.248104292,5,NaN,12106.253609959,12106.272032042,12107.198704459,NaN,NaN
115,25,2,aesthetic,0,bathroom,sun_agrwbmhcpmfuwmsg.tif,134,1.5,0,0.916666666666667,12107.203061209,12110.212619042,4,NaN,12110.241059417,12110.262239042,12111.172244334,NaN,NaN
