sub_num,trial,block,task,is_practice,category,image,texture,duration,mask_dur,jitter,stim_time,time_of_resp,trial_response,mask_time,fix_time,jit_onset,trial_end,trial_accuracy,RT
104,6,0,familiarity,1,kitchen,kitchen_practice2.tif,227,1.5,0,0.733333333333333,3282.77154075,3288.876871666,3,NaN,3288.8824405,3288.900772666,3289.627450541,NaN,NaN
104,7,0,familiarity,1,kitchen,kitchen_practice3.tif,228,1.5,0,1.3,3289.631993125,3293.676411458,2,NaN,3293.682044458,3293.70039725,3294.99380575,NaN,NaN
104,8,0,familiarity,1,kitchen,kitchen_practice1.tif,226,1.5,0,2,3295.005311958,3297.988508041,1,NaN,3297.9938335,3298.011970958,3300.005391166,NaN,NaN
104,9,0,familiarity,1,kitchen,kitchen_practice5.tif,230,1.5,0,1.81666666666667,3300.018988083,3303.7403855,4,NaN,3303.74603875,3303.764379375,3305.574443291,NaN,NaN
104,10,0,familiarity,1,kitchen,kitchen_practice4.tif,229,1.5,0,0.75,3305.590444166,3310.140631333,3,NaN,3310.146302708,3310.164618625,3310.907961958,NaN,NaN
104,1,1,familiarity,0,kitchen,sun_acxkpeoqbwcxfvip.tif,187,1.5,0,0.866666666666667,3315.703616041,3319.203980208,4,NaN,3319.210702625,3319.229370458,3320.089440375,NaN,NaN
104,2,1,familiarity,0,kitchen,sun_aggjlwcdjsjcaemh.tif,196,1.5,0,1.01666666666667,3320.094769958,3323.852242208,4,NaN,3323.857999208,3323.876513583,3324.886710583,NaN,NaN
104,3,1,familiarity,0,kitchen,sun_agorklincwxrdtga.tif,197,1.5,0,1.78333333333333,3324.89580425,3329.40458075,3,NaN,3329.410142125,3329.428371666,3331.205110291,NaN,NaN
104,4,1,familiarity,0,kitchen,sun_aadbddgrdsjugojn.tif,174,1.5,0,1.85,3331.221829166,3335.019860708,1,NaN,3335.025906125,3335.044878333,3336.888282458,NaN,NaN
104,5,1,familiarity,0,kitchen,sun_ahdycvpopffkzzsu.tif,200,1.5,0,1.83333333333333,3336.905142458,3341.5166285,2,NaN,3341.522222875,3341.540589083,3343.367319333,NaN,NaN
104,6,1,familiarity,0,kitchen,sun_ahljzhgcdpomplvg.tif,201,1.5,0,1.56666666666667,3343.385760541,3347.220450916,2,NaN,3347.226071916,3347.244330833,3348.804416208,NaN,NaN
104,7,1,familiarity,0,kitchen,sun_agzzivivdpnawacl.tif,199,1.5,0,1.31666666666667,3348.822361291,3352.259842958,1,NaN,3352.265513083,3352.283822791,3353.593903625,NaN,NaN
104,8,1,familiarity,0,kitchen,sun_ahspylgoovwmwvgk.tif,203,1.5,0,1.75,3353.613231625,3358.347882666,2,NaN,3358.353877958,3358.37239825,3360.115837375,NaN,NaN
104,9,1,familiarity,0,kitchen,sun_azmutvzbxypaceni.tif,220,1.5,0,1.9,3360.136602583,3363.739912583,3,NaN,3363.746088333,3363.764645833,3365.658079291,NaN,NaN
104,10,1,familiarity,0,kitchen,sun_agubuxuukhzyzpdp.tif,198,1.5,0,1.76666666666667,3365.6779125,3369.708552291,2,NaN,3369.7140915,3369.732426833,3371.492494125,NaN,NaN
104,11,1,familiarity,0,kitchen,labelme_kxvouciolcpqplr.tif,172,1.5,0,1.05,3371.513863333,3375.563879875,3,NaN,3375.56946075,3375.587831291,3376.631246583,NaN,NaN
104,12,1,familiarity,0,kitchen,labelme_brsyyvweiuaazfr.tif,171,1.5,0,1.58333333333333,3376.639322333,3380.340562791,2,NaN,3380.346039875,3380.364304,3381.941032166,NaN,NaN
104,13,1,familiarity,0,kitchen,sun_aegoxogugdkwpmpj.tif,190,1.5,0,0.983333333333333,3381.960125166,3387.436314666,1,NaN,3387.441807916,3387.4601665,3388.436844125,NaN,NaN
104,14,1,familiarity,0,kitchen,sun_adgqasybjyktddhj.tif,188,1.5,0,0.733333333333333,3388.441336291,3392.100079833,4,NaN,3392.105643458,3392.124000708,3392.850674166,NaN,NaN
104,15,1,familiarity,0,kitchen,sun_akchetnepxlcxhsu.tif,208,1.5,0,1.13333333333333,3392.854933583,3396.339597,5,NaN,3396.345321,3396.363788041,3397.490559875,NaN,NaN
104,16,1,familiarity,0,kitchen,sun_acgtpgfybqjmzeyw.tif,185,1.5,0,1.58333333333333,3397.500482166,3401.94799075,5,NaN,3401.953580375,3401.972017583,3403.548745083,NaN,NaN
104,17,1,familiarity,0,kitchen,sun_abrcnpqqhmjwekyf.tif,183,1.5,0,0.783333333333333,3403.56638675,3407.699783875,6,NaN,3407.70546125,3407.723833416,3408.500509833,NaN,NaN
104,18,1,familiarity,0,kitchen,sun_aapllqyqlykszopd.tif,176,1.5,0,0.8,3408.509170708,3414.916406625,5,NaN,3414.921949541,3414.940263791,3415.7336045,NaN,NaN
104,19,1,familiarity,0,kitchen,sun_aymvwlarqodbwuoc.tif,218,1.5,0,1.7,3415.738132125,3419.331690291,4,NaN,3419.337480416,3419.355802,3421.049219083,NaN,NaN
104,20,1,familiarity,0,kitchen,sun_abftihopvusyfakt.tif,181,1.5,0,1.48333333333333,3421.06168625,3425.588346625,6,NaN,3425.593756916,3425.612056125,3427.088779083,NaN,NaN
104,21,1,familiarity,0,kitchen,sun_acwjdupvyjsugpay.tif,186,1.5,0,0.966666666666667,3427.103669083,3430.492595125,4,NaN,3430.498332416,3430.516632458,3431.476639791,NaN,NaN
104,22,1,familiarity,0,kitchen,sun_aexklacwqwezaorf.tif,194,1.5,0,1.28333333333333,3431.481223,3434.563737791,2,NaN,3434.571869833,3434.590871666,3435.867603458,NaN,NaN
104,23,1,familiarity,0,kitchen,sun_auaiucuqpdausiva.tif,212,1.5,0,0.783333333333333,3435.877920916,3439.780192208,1,NaN,3439.785753083,3439.804066541,3440.58074175,NaN,NaN
104,24,1,familiarity,0,kitchen,sun_aamedkxepzlwuxes.tif,175,1.5,0,1.36666666666667,3440.585042208,3444.955269208,3,NaN,3444.9639785,3444.982369333,3446.342443125,NaN,NaN
104,25,1,familiarity,0,kitchen,labelme_rykdqxenmhulbdn.tif,173,1.5,0,1.45,3446.358461,3449.531290875,3,NaN,3449.537109875,3449.555437125,3450.998839166,NaN,NaN
104,1,2,familiarity,0,kitchen,sun_ajcbwwvdlsvjyzje.tif,206,1.5,0,1.81666666666667,3455.298284125,3460.379595583,2,NaN,3460.385253458,3460.403639666,3462.213862625,NaN,NaN
104,2,2,familiarity,0,kitchen,sun_aypmqwcualkenuoe.tif,219,1.5,0,0.816666666666667,3462.233073916,3465.184403541,1,NaN,3465.213304,3465.237133333,3466.0471415,NaN,NaN
104,3,2,familiarity,0,kitchen,sun_ahpczsiumwwocjkv.tif,202,1.5,0,0.9,3466.051907375,3469.235194458,1,NaN,3469.241782166,3469.260713541,3470.154056458,NaN,NaN
104,4,2,familiarity,0,kitchen,sun_acfmftudsenhrfhy.tif,184,1.5,0,0.933333333333333,3470.158583458,3474.324207083,5,NaN,3474.329579,3474.34812525,3475.274799416,NaN,NaN
104,5,2,familiarity,0,kitchen,sun_afuyedyxivkhecmu.tif,195,1.5,0,1.48333333333333,3475.27936475,3479.46015,1,NaN,3479.465663375,3479.484132708,3480.96088725,NaN,NaN
104,6,2,familiarity,0,kitchen,sun_axyyrmzcupyhlivc.tif,217,1.5,0,1.48333333333333,3480.980674041,3485.403934708,3,NaN,3485.409490541,3485.427763083,3486.904494041,NaN,NaN
104,7,2,familiarity,0,kitchen,sun_aenotlpyftoioydp.tif,192,1.5,0,1.43333333333333,3486.922351791,3490.579045666,1,NaN,3490.585012625,3490.603439208,3492.030174208,NaN,NaN
104,8,2,familiarity,0,kitchen,sun_avszsnwsbuqfgzbn.tif,215,1.5,0,0.733333333333333,3492.047356833,3495.147460833,1,NaN,3495.153044166,3495.171215666,3495.897888833,NaN,NaN
104,9,2,familiarity,0,kitchen,sun_abpwyqmlzafvklqo.tif,182,1.5,0,0.966666666666667,3495.908681208,3499.531912541,5,NaN,3499.537377416,3499.555690125,3500.515701291,NaN,NaN
104,10,2,familiarity,0,kitchen,sun_aixorpehvfykdynp.tif,205,1.5,0,0.916666666666667,3500.525386875,3503.756092458,6,NaN,3503.7617375,3503.780208458,3504.690217166,NaN,NaN
104,11,2,familiarity,0,kitchen,sun_abdxkyyxwfskuaqb.tif,180,1.5,0,1.03333333333333,3504.694889958,3508.82760675,2,NaN,3508.833085541,3508.851342708,3509.878115791,NaN,NaN
104,12,2,familiarity,0,kitchen,sun_abdenxonkemggwsq.tif,179,1.5,0,0.733333333333333,3509.886214166,3513.259701625,3,NaN,3513.265315125,3513.283692083,3514.0103665,NaN,NaN
104,13,2,familiarity,0,kitchen,sun_aehawpgmrlhlvcow.tif,191,1.5,0,1.13333333333333,3514.025302791,3517.499004458,5,NaN,3517.504845083,3517.523181166,3518.649929333,NaN,NaN
104,14,2,familiarity,0,kitchen,sun_ajkqhtgcbgpcwrwn.tif,207,1.5,0,0.883333333333333,3518.660918416,3522.611693875,5,NaN,3522.6172485,3522.635622958,3523.512296416,NaN,NaN
104,15,2,familiarity,0,kitchen,sun_aarfiyshqohlwkmo.tif,177,1.5,0,1.85,3523.525284791,3527.362879083,4,NaN,3527.3688425,3527.387126083,3529.230545625,NaN,NaN
104,16,2,familiarity,0,kitchen,sun_aeqdocilnnpuvuhx.tif,193,1.5,0,0.733333333333333,3529.24903525,3533.195887541,2,NaN,3533.201330916,3533.219689791,3533.946365041,NaN,NaN
104,17,2,familiarity,0,kitchen,sun_aqeaevwwwjoqhzvl.tif,211,1.5,0,1.95,3533.950917708,3537.811625125,1,NaN,3537.817151875,3537.835480916,3539.778902125,NaN,NaN
104,18,2,familiarity,0,kitchen,sun_auticobqsbwgoppi.tif,214,1.5,0,1.1,3539.798631583,3543.74757125,4,NaN,3543.753044083,3543.77130225,3544.864694541,NaN,NaN
104,19,2,familiarity,0,kitchen,sun_aaxxjlsuzvqlgylf.tif,178,1.5,0,1.31666666666667,3544.873147125,3549.003488958,3,NaN,3549.009938333,3549.028170208,3550.33824175,NaN,NaN
104,20,2,familiarity,0,kitchen,sun_amjjdeyrggfqgmom.tif,210,1.5,0,1.78333333333333,3550.356291833,3553.611150625,1,NaN,3553.616705541,3553.635001833,3555.411754333,NaN,NaN
104,21,2,familiarity,0,kitchen,sun_aunzlwrbjumxhwdj.tif,213,1.5,0,1.33333333333333,3555.425194416,3559.155356625,1,NaN,3559.160817208,3559.179129583,3560.505899041,NaN,NaN
104,22,2,familiarity,0,kitchen,sun_awcpdzzznmweyyhv.tif,216,1.5,0,0.95,3560.523086208,3565.739386666,4,NaN,3565.744918333,3565.7633625,3566.706706583,NaN,NaN
104,23,2,familiarity,0,kitchen,sun_akcjzhbbjlbogpdi.tif,209,1.5,0,1.93333333333333,3566.71128325,3571.02708325,6,NaN,3571.032755708,3571.051031125,3572.977787666,NaN,NaN
104,24,2,familiarity,0,kitchen,sun_ahywdevtimnqcsln.tif,204,1.5,0,1.28333333333333,3572.995365541,3577.723644541,6,NaN,3577.729069458,3577.7473565,3579.024123208,NaN,NaN
104,25,2,familiarity,0,kitchen,sun_admlmbcdswaszruo.tif,189,1.5,0,1.43333333333333,3579.034224041,3582.307753583,6,NaN,3582.313260041,3582.331510833,3583.758273833,NaN,NaN
