sub_num,trial,block,task,is_practice,category,image,texture,duration,mask_dur,jitter,stim_time,time_of_resp,trial_response,mask_time,fix_time,jit_onset,trial_end,trial_accuracy,RT
111,1,0,usability,1,bathroom,bathroom_practice3.tif,223,1.5,0,0.983333333333333,1302.465971208,1305.992621875,6,NaN,1305.998889833,1306.017744666,1306.994472916,NaN,NaN
111,2,0,usability,1,bathroom,bathroom_practice4.tif,224,1.5,0,1.78333333333333,1307.001251791,1310.576485666,7,NaN,1310.582314583,1310.600681708,1312.37753775,NaN,NaN
111,3,0,usability,1,bathroom,bathroom_practice5.tif,225,1.5,0,1.78333333333333,1312.393097291,1315.063643208,4,NaN,1315.089026916,1315.111683208,1316.8884005,NaN,NaN
111,4,0,usability,1,bathroom,bathroom_practice2.tif,222,1.5,0,1.26666666666667,1316.903967333,1319.979918625,3,NaN,1320.008541916,1320.032009458,1321.292048583,NaN,NaN
111,5,0,usability,1,bathroom,bathroom_practice1.tif,221,1.5,0,1.05,1321.310777833,1323.976637125,3,NaN,1323.982033208,1324.0003085,1325.043671833,NaN,NaN
111,1,1,usability,0,bathroom,sun_apynckhmoftszqoq.tif,157,1.5,0,1.01666666666667,1329.204357333,1332.504005375,1,NaN,1332.509609583,1332.527930791,1333.537971375,NaN,NaN
111,2,1,usability,0,bathroom,sun_avhrdrntsqrjzccq.tif,165,1.5,0,1.61666666666667,1333.545811541,1335.799980041,7,NaN,1335.80644475,1335.824808708,1337.434852875,NaN,NaN
111,3,1,usability,0,bathroom,sun_apkxzenqapsujocq.tif,155,1.5,0,1.16666666666667,1337.448178708,1339.895251416,4,NaN,1339.925016666,1339.947017833,1341.107062833,NaN,NaN
111,4,1,usability,0,bathroom,sun_aoybiabnpadelefl.tif,151,1.5,0,0.983333333333333,1341.116463625,1344.096030166,6,NaN,1344.101630416,1344.119878291,1345.096549708,NaN,NaN
111,5,1,usability,0,bathroom,sun_aggnnqpdorgxpvce.tif,131,1.5,0,0.783333333333333,1345.101090916,1348.248095583,5,NaN,1348.256323916,1348.275268833,1349.051939583,NaN,NaN
111,6,1,usability,0,bathroom,sun_ambriybtogmepttm.tif,146,1.5,0,0.816666666666667,1349.056491416,1353.288599708,6,NaN,1353.293974333,1353.3123075,1354.122311833,NaN,NaN
111,7,1,usability,0,bathroom,sun_agrwbmhcpmfuwmsg.tif,134,1.5,0,1.1,1354.134372458,1356.912043,5,NaN,1356.940905375,1356.964593458,1358.057978541,NaN,NaN
111,8,1,usability,0,bathroom,sun_amzlamotzwfkwjco.tif,147,1.5,0,1.65,1358.065462916,1361.143883125,4,NaN,1361.149265208,1361.1676745,1362.811046458,NaN,NaN
111,9,1,usability,0,bathroom,sun_afcoljnjfoxjtgja.tif,130,1.5,0,1.13333333333333,1362.827927458,1365.536379041,6,NaN,1365.5641545,1365.587285625,1366.714003083,NaN,NaN
111,10,1,usability,0,bathroom,sun_aofnryafpsjimzsb.tif,150,1.5,0,0.766666666666667,1366.725175,1369.384628333,5,NaN,1369.390049375,1369.408397291,1370.168403166,NaN,NaN
111,11,1,usability,0,bathroom,sun_apeeialkgkuxddgh.tif,152,1.5,0,1.25,1370.173554416,1372.859062583,3,NaN,1372.887880583,1372.909296375,1374.152680875,NaN,NaN
111,12,1,usability,0,bathroom,sun_aavhrsfjbserjtht.tif,123,1.5,0,1.5,1374.170514916,1376.624248625,3,NaN,1376.629679541,1376.648071,1378.141453875,NaN,NaN
111,13,1,usability,0,bathroom,labelme_sfxiulhjbhlyiyt.tif,121,1.5,0,1.56666666666667,1378.159373583,1382.040081416,2,NaN,1382.045379208,1382.063700166,1383.623726625,NaN,NaN
111,14,1,usability,0,bathroom,sun_alkosphxlxwjwgjd.tif,144,1.5,0,1.45,1383.636426375,1386.576032208,4,NaN,1386.581434958,1386.599607166,1388.042982666,NaN,NaN
111,15,1,usability,0,bathroom,sun_atstyziqcmkahyxk.tif,161,1.5,0,1.53333333333333,1388.058329291,1390.991523791,1,NaN,1390.997426958,1391.015654416,1392.542350375,NaN,NaN
111,16,1,usability,0,bathroom,sun_aleqenyvunhactkl.tif,142,1.5,0,0.8,1392.554340291,1395.368096041,2,NaN,1395.373505916,1395.391989625,1396.185327166,NaN,NaN
111,17,1,usability,0,bathroom,sun_ahaulkltgpkeeemi.tif,136,1.5,0,0.933333333333333,1396.189478375,1398.731254166,3,NaN,1398.760465916,1398.78326775,1399.709939041,NaN,NaN
111,18,1,usability,0,bathroom,sun_aljolscmmzydegqp.tif,143,1.5,0,1.75,1399.7173875,1403.903519916,4,NaN,1403.909483791,1403.927752666,1405.671123416,NaN,NaN
111,19,1,usability,0,bathroom,sun_ahijqszoswveeyji.tif,138,1.5,0,1.48333333333333,1405.689738375,1408.431915166,4,NaN,1408.461150791,1408.486290791,1409.96300075,NaN,NaN
111,20,1,usability,0,bathroom,sun_aclfzgynxzxlbepz.tif,129,1.5,0,1.03333333333333,1409.980498666,1412.640162708,5,NaN,1412.645703666,1412.664040166,1413.690743916,NaN,NaN
111,21,1,usability,0,bathroom,sun_alotolagknyrgtsk.tif,145,1.5,0,1.23333333333333,1413.698789041,1416.807919875,5,NaN,1416.813574958,1416.8318665,1418.058565125,NaN,NaN
111,22,1,usability,0,bathroom,sun_axxbkopsgyouuebh.tif,168,1.5,0,1.28333333333333,1418.075703708,1420.743543916,2,NaN,1420.749269375,1420.767710583,1422.044408333,NaN,NaN
111,23,1,usability,0,bathroom,sun_ahcvzmoyaycdoftf.tif,137,1.5,0,1.66666666666667,1422.06295,1425.7761155,6,NaN,1425.781516625,1425.799826583,1427.45987825,NaN,NaN
111,24,1,usability,0,bathroom,sun_aghyqhbptboemmoq.tif,133,1.5,0,1.26666666666667,1427.4776625,1430.2646345,4,NaN,1430.293908916,1430.315157416,1431.575204916,NaN,NaN
111,25,1,usability,0,bathroom,sun_awnqiikzaispgmwo.tif,166,1.5,0,1.4,1431.593010125,1434.631862583,4,NaN,1434.637408083,1434.655801541,1436.049191791,NaN,NaN
111,1,2,usability,0,bathroom,sun_abjtwfukuwddzted.tif,125,1.5,0,1.66666666666667,1444.954879958,1450.120146166,3,NaN,1450.125489041,1450.143858458,1451.803890791,NaN,NaN
111,2,2,usability,0,bathroom,sun_aqrpegblszgcoujh.tif,158,1.5,0,1.85,1451.821327125,1454.367531791,4,NaN,1454.39606475,1454.419619708,1456.263004166,NaN,NaN
111,3,2,usability,0,bathroom,sun_acgyywnybuveqsro.tif,128,1.5,0,1.65,1456.280585541,1459.217067458,6,NaN,1459.246177625,1459.269959708,1460.913342708,NaN,NaN
111,4,2,usability,0,bathroom,sun_azqyogdvyhahyram.tif,170,1.5,0,0.95,1460.931123791,1463.877524666,2,NaN,1463.902416666,1463.923732416,1464.867070541,NaN,NaN
111,5,2,usability,0,bathroom,sun_apmqjbnwghzuhhzh.tif,156,1.5,0,0.783333333333333,1464.883625958,1467.60906275,1,NaN,1467.637828916,1467.661293458,1468.437964666,NaN,NaN
111,6,2,usability,0,bathroom,sun_ajlawzvmubibwbpy.tif,140,1.5,0,1.13333333333333,1468.44262275,1471.671601833,6,NaN,1471.677412583,1471.695814666,1472.822498916,NaN,NaN
111,7,2,usability,0,bathroom,sun_akiytfaagpdsphgz.tif,141,1.5,0,1.63333333333333,1472.832683958,1476.015306333,6,NaN,1476.021171875,1476.039540666,1477.666245291,NaN,NaN
111,8,2,usability,0,bathroom,sun_acduarbnmmoglmiv.tif,126,1.5,0,1.2,1477.6818215,1480.183650625,1,NaN,1480.18917575,1480.207512291,1481.400901041,NaN,NaN
111,9,2,usability,0,bathroom,sun_ahqjwnzgolcaoidx.tif,139,1.5,0,1.71666666666667,1481.413148958,1483.863520416,2,NaN,1483.869174375,1483.887222833,1485.597253875,NaN,NaN
111,10,2,usability,0,bathroom,sun_asfwthctfqerjvxr.tif,159,1.5,0,0.9,1485.613659291,1488.278788708,2,NaN,1488.308308708,1488.332112625,1489.225451666,NaN,NaN
111,11,2,usability,0,bathroom,sun_apjevzvycyhuqghb.tif,153,1.5,0,0.9,1489.230026708,1491.988839625,6,NaN,1492.01708675,1492.039912416,1492.933250958,NaN,NaN
111,12,2,usability,0,bathroom,sun_agguqiubmwhqqunb.tif,132,1.5,0,0.766666666666667,1492.937823958,1495.357407875,3,NaN,1495.386263625,1495.409605666,1496.169608625,NaN,NaN
111,13,2,usability,0,bathroom,sun_acegryoqftbzowsg.tif,127,1.5,0,0.966666666666667,1496.174134916,1499.431166958,4,NaN,1499.436753166,1499.455057666,1500.415061875,NaN,NaN
111,14,2,usability,0,bathroom,sun_apkruvsevgegsdwp.tif,154,1.5,0,0.7,1500.419583125,1503.560269541,1,NaN,1503.569353,1503.587950166,1504.281286583,NaN,NaN
111,15,2,usability,0,bathroom,sun_aunuadmjocsddsrl.tif,162,1.5,0,1.1,1504.285797083,1506.860594458,2,NaN,1506.885626708,1506.908637458,1508.002004458,NaN,NaN
111,16,2,usability,0,bathroom,sun_axyrejkiiaqiurjk.tif,169,1.5,0,1.33333333333333,1508.009867041,1510.711328958,7,NaN,1510.717042458,1510.735248708,1512.061960875,NaN,NaN
111,17,2,usability,0,bathroom,sun_ausgutylgojavyoq.tif,163,1.5,0,1.15,1512.078731375,1514.591457625,2,NaN,1514.596686416,1514.615102458,1515.758469333,NaN,NaN
111,18,2,usability,0,bathroom,sun_aapitsgbtktqubfy.tif,122,1.5,0,1.28333333333333,1515.766763375,1519.056115708,4,NaN,1519.0615795,1519.079922,1520.356626583,NaN,NaN
111,19,2,usability,0,bathroom,sun_agyqfjcfkdcydepw.tif,135,1.5,0,1.35,1520.373864625,1523.128288125,6,NaN,1523.133817291,1523.151921666,1524.495298416,NaN,NaN
111,20,2,usability,0,bathroom,sun_abapwbhyhkfixyex.tif,124,1.5,0,1.43333333333333,1524.508389958,1527.255925541,5,NaN,1527.261261291,1527.279666458,1528.706380625,NaN,NaN
111,21,2,usability,0,bathroom,sun_auzqhkafidnkrwmo.tif,164,1.5,0,0.916666666666667,1528.719231416,1531.47200575,5,NaN,1531.477386833,1531.495844541,1532.40585175,NaN,NaN
111,22,2,usability,0,bathroom,sun_anryaplzeujmzfkd.tif,149,1.5,0,0.766666666666667,1532.411166208,1535.672111083,5,NaN,1535.678090208,1535.696395416,1536.456399958,NaN,NaN
111,23,2,usability,0,bathroom,sun_anhioqovhscjqqwb.tif,148,1.5,0,0.866666666666667,1536.46089875,1539.411789125,6,NaN,1539.440074541,1539.463034125,1540.323038875,NaN,NaN
111,24,2,usability,0,bathroom,sun_axldvoqbuvuggfmq.tif,167,1.5,0,0.833333333333333,1540.327623791,1543.284257166,3,NaN,1543.302549791,1543.324653666,1544.151323541,NaN,NaN
111,25,2,usability,0,bathroom,sun_aspsyogrekjtfozg.tif,160,1.5,0,0.75,1544.155899625,1546.812335166,4,NaN,1546.840220958,1546.863830958,1547.607168791,NaN,NaN
