sub_num,trial,block,task,is_practice,category,image,texture,duration,mask_dur,jitter,stim_time,time_of_resp,trial_response,mask_time,fix_time,jit_onset,trial_end,trial_accuracy,RT
134,1,0,aesthetic,1,bathroom,bathroom_practice1.tif,221,1.5,0,1.6,16427.520765792,16430.335657792,3,NaN,16430.360096209,16430.383408292,16431.976779459,NaN,NaN
134,2,0,aesthetic,1,bathroom,bathroom_practice2.tif,222,1.5,0,1.26666666666667,16431.996934875,16434.975584834,2,NaN,16435.004605459,16435.027969709,16436.288023042,NaN,NaN
134,3,0,aesthetic,1,bathroom,bathroom_practice3.tif,223,1.5,0,1.15,16436.301321,16438.891882709,2,NaN,16438.897282167,16438.915555167,16440.058933959,NaN,NaN
134,4,0,aesthetic,1,bathroom,bathroom_practice4.tif,224,1.5,0,1.75,16440.068442709,16442.73153325,4,NaN,16442.737151542,16442.755477417,16444.498855459,NaN,NaN
134,5,0,aesthetic,1,bathroom,bathroom_practice5.tif,225,1.5,0,0.85,16444.513544292,16448.083169417,4,NaN,16448.090425417,16448.108761417,16448.952098667,NaN,NaN
134,1,1,aesthetic,0,bathroom,sun_acgyywnybuveqsro.tif,128,1.5,0,0.933333333333333,16456.599366875,16460.075150375,6,NaN,16460.082114334,16460.100438375,16461.02710875,NaN,NaN
134,2,1,aesthetic,0,bathroom,sun_ahcvzmoyaycdoftf.tif,137,1.5,0,1.18333333333333,16461.031404042,16463.391205209,5,NaN,16463.417249542,16463.438697125,16464.6154155,NaN,NaN
134,3,1,aesthetic,0,bathroom,sun_ahqjwnzgolcaoidx.tif,139,1.5,0,1.56666666666667,16464.62674625,16468.059682667,5,NaN,16468.065362542,16468.083732,16469.643785542,NaN,NaN
134,4,1,aesthetic,0,bathroom,sun_ambriybtogmepttm.tif,146,1.5,0,1.38333333333333,16469.661723834,16472.499542959,2,NaN,16472.50507475,16472.523498417,16473.900216042,NaN,NaN
134,5,1,aesthetic,0,bathroom,sun_apkruvsevgegsdwp.tif,154,1.5,0,1.23333333333333,16473.917992292,16477.57163525,3,NaN,16477.577326625,16477.595814459,16478.822527417,NaN,NaN
134,6,1,aesthetic,0,bathroom,sun_apkxzenqapsujocq.tif,155,1.5,0,1.83333333333333,16478.8396545,16482.931683459,2,NaN,16482.937133875,16482.955320417,16484.782026625,NaN,NaN
134,7,1,aesthetic,0,bathroom,sun_agyqfjcfkdcydepw.tif,135,1.5,0,1.1,16484.800750459,16489.251290125,1,NaN,16489.256917084,16489.275318917,16490.368694917,NaN,NaN
134,8,1,aesthetic,0,bathroom,sun_anhioqovhscjqqwb.tif,148,1.5,0,1.71666666666667,16490.378884042,16493.18001,6,NaN,16493.185427084,16493.203636709,16494.913670292,NaN,NaN
134,9,1,aesthetic,0,bathroom,sun_alotolagknyrgtsk.tif,145,1.5,0,1.01666666666667,16494.932994125,16497.692614584,1,NaN,16497.721524042,16497.745158625,16498.755214334,NaN,NaN
134,10,1,aesthetic,0,bathroom,sun_auzqhkafidnkrwmo.tif,164,1.5,0,1.36666666666667,16498.7628205,16502.819753792,5,NaN,16502.825214834,16502.843448917,16504.203502084,NaN,NaN
134,11,1,aesthetic,0,bathroom,sun_agguqiubmwhqqunb.tif,132,1.5,0,0.75,16504.217796292,16506.755424709,4,NaN,16506.760973584,16506.779325792,16507.522664417,NaN,NaN
134,12,1,aesthetic,0,bathroom,sun_acduarbnmmoglmiv.tif,126,1.5,0,1.31666666666667,16507.527062584,16510.400647334,2,NaN,16510.429217334,16510.452075042,16511.762130709,NaN,NaN
134,13,1,aesthetic,0,bathroom,sun_aclfzgynxzxlbepz.tif,129,1.5,0,1.33333333333333,16511.7800455,16514.667954917,2,NaN,16514.673557375,16514.691794292,16516.018497375,NaN,NaN
134,14,1,aesthetic,0,bathroom,sun_axxbkopsgyouuebh.tif,168,1.5,0,1.41666666666667,16516.036957542,16519.891874875,3,NaN,16519.897457584,16519.915790667,16521.325829084,NaN,NaN
134,15,1,aesthetic,0,bathroom,sun_avhrdrntsqrjzccq.tif,165,1.5,0,1.93333333333333,16521.337011375,16524.707456834,6,NaN,16524.712993292,16524.73130825,16526.658008792,NaN,NaN
134,16,1,aesthetic,0,bathroom,sun_ahijqszoswveeyji.tif,138,1.5,0,1.68333333333333,16526.678473334,16529.498746334,6,NaN,16529.524268792,16529.548383834,16531.225091417,NaN,NaN
134,17,1,aesthetic,0,bathroom,sun_atstyziqcmkahyxk.tif,161,1.5,0,0.783333333333333,16531.237029042,16533.947569625,2,NaN,16533.976336667,16534.000177625,16534.776857042,NaN,NaN
134,18,1,aesthetic,0,bathroom,sun_asfwthctfqerjvxr.tif,159,1.5,0,1.93333333333333,16534.783527709,16538.083199375,4,NaN,16538.088804709,16538.107179375,16540.033893959,NaN,NaN
134,19,1,aesthetic,0,bathroom,sun_aofnryafpsjimzsb.tif,150,1.5,0,1.18333333333333,16540.049478542,16542.882995542,5,NaN,16542.912687,16542.935657292,16544.112370459,NaN,NaN
134,20,1,aesthetic,0,bathroom,sun_afcoljnjfoxjtgja.tif,130,1.5,0,1.61666666666667,16544.12467075,16548.667349084,3,NaN,16548.673175834,16548.691569167,16550.30161325,NaN,NaN
134,21,1,aesthetic,0,bathroom,sun_akiytfaagpdsphgz.tif,141,1.5,0,1.16666666666667,16550.31997475,16553.122591584,7,NaN,16553.151687709,16553.175282917,16554.335338542,NaN,NaN
134,22,1,aesthetic,0,bathroom,sun_awnqiikzaispgmwo.tif,166,1.5,0,1.85,16554.347862459,16557.219130125,5,NaN,16557.224955584,16557.243397,16559.086782292,NaN,NaN
134,23,1,aesthetic,0,bathroom,sun_apjevzvycyhuqghb.tif,153,1.5,0,1.68333333333333,16559.106070167,16563.115081625,7,NaN,16563.12080175,16563.139139959,16564.815858667,NaN,NaN
134,24,1,aesthetic,0,bathroom,sun_apynckhmoftszqoq.tif,157,1.5,0,1.98333333333333,16564.829951584,16568.794789375,5,NaN,16568.800794209,16568.819092917,16570.795811125,NaN,NaN
134,25,1,aesthetic,0,bathroom,sun_aoybiabnpadelefl.tif,151,1.5,0,1.28333333333333,16570.815870917,16573.228105042,2,NaN,16573.251696375,16573.273334167,16574.550033625,NaN,NaN
134,1,2,aesthetic,0,bathroom,sun_apmqjbnwghzuhhzh.tif,156,1.5,0,0.9,16578.993998375,16583.0752235,3,NaN,16583.081433542,16583.0997825,16583.993121584,NaN,NaN
134,2,2,aesthetic,0,bathroom,sun_aapitsgbtktqubfy.tif,122,1.5,0,1.95,16583.997714667,16588.650843042,5,NaN,16588.657440125,16588.676082459,16590.6194495,NaN,NaN
134,3,2,aesthetic,0,bathroom,sun_axyrejkiiaqiurjk.tif,169,1.5,0,1,16590.635243875,16593.840562375,5,NaN,16593.869123959,16593.890519542,16594.883857834,NaN,NaN
134,4,2,aesthetic,0,bathroom,sun_ahaulkltgpkeeemi.tif,136,1.5,0,0.733333333333333,16594.88845025,16598.171093375,4,NaN,16598.176491709,16598.194785334,16598.921456459,NaN,NaN
134,5,2,aesthetic,0,bathroom,sun_amzlamotzwfkwjco.tif,147,1.5,0,1.2,16598.925792542,16601.756379334,2,NaN,16601.785215792,16601.808852125,16603.0022205,NaN,NaN
134,6,2,aesthetic,0,bathroom,sun_aunuadmjocsddsrl.tif,162,1.5,0,1.21666666666667,16603.015170875,16606.8508385,3,NaN,16606.856689375,16606.875035625,16608.085081875,NaN,NaN
134,7,2,aesthetic,0,bathroom,sun_azqyogdvyhahyram.tif,170,1.5,0,0.933333333333333,16608.104346334,16611.290799709,4,NaN,16611.29661875,16611.314912042,16612.241584709,NaN,NaN
134,8,2,aesthetic,0,bathroom,sun_aqrpegblszgcoujh.tif,158,1.5,0,0.916666666666667,16612.247318084,16615.506924,6,NaN,16615.512646334,16615.530849542,16616.440853959,NaN,NaN
134,9,2,aesthetic,0,bathroom,sun_aspsyogrekjtfozg.tif,160,1.5,0,1.1,16616.445437,16620.19459275,4,NaN,16620.200713167,16620.21895,16621.312317209,NaN,NaN
134,10,2,aesthetic,0,bathroom,sun_axldvoqbuvuggfmq.tif,167,1.5,0,1.16666666666667,16621.320199667,16624.43507875,4,NaN,16624.440469542,16624.458740792,16625.61877825,NaN,NaN
134,11,2,aesthetic,0,bathroom,sun_abjtwfukuwddzted.tif,125,1.5,0,0.783333333333333,16625.632361959,16628.555107875,2,NaN,16628.56049625,16628.57902075,16629.355690917,NaN,NaN
134,12,2,aesthetic,0,bathroom,sun_abapwbhyhkfixyex.tif,124,1.5,0,1.95,16629.360015292,16632.87510925,4,NaN,16632.880505334,16632.898746792,16634.842123459,NaN,NaN
134,13,2,aesthetic,0,bathroom,sun_anryaplzeujmzfkd.tif,149,1.5,0,1.05,16634.858186209,16637.662825334,3,NaN,16637.691486875,16637.714962709,16638.758344625,NaN,NaN
134,14,2,aesthetic,0,bathroom,sun_ausgutylgojavyoq.tif,163,1.5,0,1.03333333333333,16638.767362709,16641.570699459,3,NaN,16641.576442334,16641.59474575,16642.621450959,NaN,NaN
134,15,2,aesthetic,0,bathroom,sun_aggnnqpdorgxpvce.tif,131,1.5,0,1.45,16642.6287355,16645.426722959,5,NaN,16645.432459334,16645.4507805,16646.894148084,NaN,NaN
134,16,2,aesthetic,0,bathroom,sun_aljolscmmzydegqp.tif,143,1.5,0,0.966666666666667,16646.911776292,16649.707016167,1,NaN,16649.712413417,16649.730686292,16650.690691042,NaN,NaN
134,17,2,aesthetic,0,bathroom,sun_aghyqhbptboemmoq.tif,133,1.5,0,0.966666666666667,16650.695271167,16653.394006667,4,NaN,16653.417491709,16653.438571834,16654.398577125,NaN,NaN
134,18,2,aesthetic,0,bathroom,sun_alkosphxlxwjwgjd.tif,144,1.5,0,1.2,16654.403356959,16656.894820584,6,NaN,16656.921491667,16656.944766917,16658.138148792,NaN,NaN
134,19,2,aesthetic,0,bathroom,sun_apeeialkgkuxddgh.tif,152,1.5,0,0.933333333333333,16658.148224292,16662.147353667,3,NaN,16662.152907167,16662.171279917,16663.097951042,NaN,NaN
134,20,2,aesthetic,0,bathroom,sun_aleqenyvunhactkl.tif,142,1.5,0,1.31666666666667,16663.102702792,16665.830822,2,NaN,16665.8600035,16665.883143167,16667.193196792,NaN,NaN
134,21,2,aesthetic,0,bathroom,sun_ajlawzvmubibwbpy.tif,140,1.5,0,1.18333333333333,16667.208487334,16672.026449,6,NaN,16672.032089042,16672.050357584,16673.227067834,NaN,NaN
134,22,2,aesthetic,0,bathroom,labelme_sfxiulhjbhlyiyt.tif,121,1.5,0,1.71666666666667,16673.237167917,16675.683116959,3,NaN,16675.688590917,16675.706957417,16677.41698575,NaN,NaN
134,23,2,aesthetic,0,bathroom,sun_aavhrsfjbserjtht.tif,123,1.5,0,1.53333333333333,16677.4318265,16680.088439209,4,NaN,16680.120339042,16680.144357042,16681.671065792,NaN,NaN
134,24,2,aesthetic,0,bathroom,sun_acegryoqftbzowsg.tif,127,1.5,0,0.933333333333333,16681.692019625,16684.386967625,4,NaN,16684.392301042,16684.410566375,16685.337236625,NaN,NaN
134,25,2,aesthetic,0,bathroom,sun_agrwbmhcpmfuwmsg.tif,134,1.5,0,0.916666666666667,16685.341566417,16688.390174709,5,NaN,16688.410398834,16688.430286,16689.340290375,NaN,NaN
