sub_num,trial,block,task,is_practice,category,image,texture,duration,blank,mask_dur,jitter,stim_time,time_of_resp,trial_response,blank_time,mask_time,fix_time,jit_onset,trial_end,trial_accuracy,RT
108,1,4,categorization,0,bathroom,SHINEd_sun_alotolagknyrgtsk.tif,36,0.0333333333333333,0.0166666666666667,0.0833333333333333,1.66666666666667,876007.4242638,876008.0130514,74,876007.4596947,876007.4768004,876007.5614277,876008.0185141,876009.6835177,0,0.588787599932402
108,2,4,categorization,0,kitchen,SHINEd_sun_acxkpeoqbwcxfvip.tif,77,0.0333333333333333,0.0166666666666667,0.0833333333333333,1.7,876009.6877034,876011.2299646,74,876009.7228963,876009.7399918,876009.8231779,876011.2355367,876012.9338752,1,1.54226119990926
108,3,4,categorization,0,bathroom,SHINEd_sun_aapitsgbtktqubfy.tif,14,0.0333333333333333,0.0166666666666667,0.0833333333333333,0.9,876012.940031,876013.5339888,70,876012.9767866,876012.99404,876013.0757734,876013.5398414,876014.4381803,1,0.593957800068893
108,4,4,categorization,0,kitchen,SHINEd_labelme_brsyyvweiuaazfr.tif,61,0.0333333333333333,0.0166666666666667,0.0833333333333333,1.86666666666667,876014.4431867,876015.0451176,70,876014.4793071,876014.4972573,876014.5790816,876015.0509523,876016.9159582,0,0.601930900011212
108,5,4,categorization,0,bathroom,SHINEd_sun_anryaplzeujmzfkd.tif,41,0.0333333333333333,0.0166666666666667,0.0833333333333333,0.9,876016.9212825,876017.5571147,74,876016.9568784,876016.974091,876017.0569856,876017.5621562,876018.4604955,0,0.635832199943252
108,6,4,categorization,0,bathroom,SHINEd_sun_abjtwfukuwddzted.tif,17,0.0333333333333333,0.0166666666666667,0.0833333333333333,1.81666666666667,876018.465302,876019.357822,74,876018.502196,876018.518322,876018.6009627,876019.3625991,876021.1776052,0,0.892519999993965
108,7,4,categorization,0,kitchen,SHINEd_sun_acxkpeoqbwcxfvip.tif,77,0.0333333333333333,0.0166666666666667,0.0833333333333333,0.716666666666667,876021.1825058,876021.9891081,74,876021.2181298,876021.2357213,876021.318206,876021.9950383,876022.7100442,1,0.806602299911901
108,8,4,categorization,0,bathroom,SHINEd_sun_amzlamotzwfkwjco.tif,39,0.0333333333333333,0.0166666666666667,0.0833333333333333,1.05,876022.7148144,876023.5730178,74,876022.7503998,876022.7673441,876022.8505228,876023.5790462,876024.6273832,0,0.858203400042839
108,9,4,categorization,0,kitchen,SHINEd_sun_afuyedyxivkhecmu.tif,86,0.0333333333333333,0.0166666666666667,0.0833333333333333,0.8,876024.6324957,876025.3010613,74,876024.6695157,876024.6864242,876024.7685618,876025.3066066,876026.1049445,1,0.668565599946305
108,10,4,categorization,0,kitchen,SHINEd_sun_awcpdzzznmweyyhv.tif,105,0.0333333333333333,0.0166666666666667,0.0833333333333333,1.43333333333333,876026.1098965,876026.861725,70,876026.1457815,876026.1628914,876026.2458966,876026.866819,876028.2984903,0,0.751828499953263
108,11,4,categorization,0,kitchen,SHINEd_sun_ayqymgxqhxxiykiw.tif,109,0.0333333333333333,0.0166666666666667,0.0833333333333333,1.26666666666667,876028.3032759,876054.6211422,74,876028.3405179,876028.3569176,876028.4390184,876054.6269672,876055.8919731,1,26.3178662999999
108,12,4,categorization,0,kitchen,SHINEd_sun_azmutvzbxypaceni.tif,110,0.0333333333333333,0.0166666666666667,0.0833333333333333,0.716666666666667,876055.8964781,876056.7256601,74,876055.932208,876055.9493808,876056.0324712,876056.7309243,876057.4459285,1,0.829182000015862
108,13,4,categorization,0,bathroom,SHINEd_sun_amzlamotzwfkwjco.tif,39,0.0333333333333333,0.0166666666666667,0.0833333333333333,1.46666666666667,876057.4508702,876058.3019501,74,876057.4882207,876057.5050736,876057.5878518,876058.3067815,876059.7717859,0,0.851079900050536
108,14,4,categorization,0,bathroom,SHINEd_sun_aghyqhbptboemmoq.tif,26,0.0333333333333333,0.0166666666666667,0.0833333333333333,0.883333333333333,876059.776646,876060.6058313,70,876059.8133877,876059.8294197,876059.9124407,876060.6111852,876061.4928684,1,0.82918530004099
108,15,4,categorization,0,kitchen,SHINEd_sun_aaxxjlsuzvqlgylf.tif,68,0.0333333333333333,0.0166666666666667,0.0833333333333333,1.15,876061.4979375,876062.1731692,70,876061.5335712,876061.5516808,876061.6340179,876062.1791933,876063.3275306,0,0.675231699948199
108,16,4,categorization,0,bathroom,SHINEd_sun_afcoljnjfoxjtgja.tif,23,0.0333333333333333,0.0166666666666667,0.0833333333333333,0.966666666666667,876063.3321907,876064.2371004,70,876063.3694967,876063.3853916,876063.4693238,876064.2431076,876065.2081113,1,0.904909700038843
108,17,4,categorization,0,bathroom,SHINEd_sun_acgyywnybuveqsro.tif,19,0.0333333333333333,0.0166666666666667,0.0833333333333333,1.73333333333333,876065.2130001,876065.9170708,70,876065.2486798,876065.2670981,876065.3487056,876065.9232555,876067.6549263,1,0.704070699983276
108,18,4,categorization,0,bathroom,SHINEd_sun_akiytfaagpdsphgz.tif,32,0.0333333333333333,0.0166666666666667,0.0833333333333333,1.91666666666667,876067.6597315,876068.5889531,70,876067.6954994,876067.712489,876067.7955314,876068.5938541,876070.5088594,1,0.929221600061283
108,19,4,categorization,0,kitchen,SHINEd_sun_afuyedyxivkhecmu.tif,86,0.0333333333333333,0.0166666666666667,0.0833333333333333,1.38333333333333,876070.5138115,876071.1653926,74,876070.5497018,876070.5677806,876070.6505541,876071.1708206,876072.552505,1,0.651581099955365
108,20,4,categorization,0,bathroom,SHINEd_sun_aapitsgbtktqubfy.tif,14,0.0333333333333333,0.0166666666666667,0.0833333333333333,1.63333333333333,876072.5591822,876073.3094192,70,876072.5950826,876072.6119517,876072.6949114,876073.3145703,876074.9462414,1,0.750237000058405
108,21,4,categorization,0,kitchen,SHINEd_sun_ahywdevtimnqcsln.tif,94,0.0333333333333333,0.0166666666666667,0.0833333333333333,0.833333333333333,876074.9511702,876075.6778277,74,876074.9885022,876075.0052348,876075.0875971,876075.6827932,876076.5144636,1,0.726657500024885
108,22,4,categorization,0,kitchen,SHINEd_sun_aymvwlarqodbwuoc.tif,107,0.0333333333333333,0.0166666666666667,0.0833333333333333,0.95,876076.5193207,876077.1891053,74,876076.5561404,876076.5736121,876076.6552878,876077.1946939,876078.1430323,1,0.669784600031562
108,23,4,categorization,0,kitchen,SHINEd_sun_afuyedyxivkhecmu.tif,86,0.0333333333333333,0.0166666666666667,0.0833333333333333,0.766666666666667,876078.1493781,876078.7897577,70,876078.1863305,876078.2033106,876078.2849427,876078.7955001,876079.5605041,0,0.640379600110464
108,24,4,categorization,0,bathroom,SHINEd_labelme_xbsnnlvmskdknsb.tif,12,0.0333333333333333,0.0166666666666667,0.0833333333333333,0.75,876079.5654833,876080.3901375,70,876079.6015728,876079.6184375,876079.7013783,876080.395387,876081.143725,1,0.824654199997894
108,25,4,categorization,0,bathroom,SHINEd_labelme_sfxiulhjbhlyiyt.tif,11,0.0333333333333333,0.0166666666666667,0.0833333333333333,0.75,876081.1485521,876082.1410328,74,876081.1842245,876081.2013313,876081.2841982,876082.1468477,876082.895185,0,0.992480699904263
108,26,4,categorization,0,kitchen,SHINEd_sun_aehawpgmrlhlvcow.tif,82,0.0333333333333333,0.0166666666666667,0.0833333333333333,0.966666666666667,876082.9000387,876083.509084,74,876082.9368895,876082.9527618,876083.036118,876083.5146507,876084.4796881,1,0.609045300050639
108,27,4,categorization,0,bathroom,SHINEd_sun_anryaplzeujmzfkd.tif,41,0.0333333333333333,0.0166666666666667,0.0833333333333333,1.2,876084.4846607,876085.285091,70,876084.5208442,876084.5377855,876084.6204725,876085.2908381,876086.4891746,1,0.800430300063454
108,28,4,categorization,0,kitchen,SHINEd_sun_aamedkxepzlwuxes.tif,65,0.0333333333333333,0.0166666666666667,0.0833333333333333,1.15,876086.4949736,876087.237876,70,876086.5318158,876086.5492493,876086.6317079,876087.2431009,876088.3914382,0,0.742902399972081
108,29,4,categorization,0,bathroom,SHINEd_sun_ahcvzmoyaycdoftf.tif,29,0.0333333333333333,0.0166666666666667,0.0833333333333333,1.26666666666667,876088.3967962,876088.957121,74,876088.432919,876088.4495056,876088.5341117,876088.9629347,876090.2279404,0,0.560324800084345
108,30,4,categorization,0,bathroom,SHINEd_sun_aavhrsfjbserjtht.tif,15,0.0333333333333333,0.0166666666666667,0.0833333333333333,1,876090.232462,876091.053665,70,876090.2679162,876090.2854982,876090.3681515,876091.0590254,876092.0573632,1,0.821203000028618
108,31,4,categorization,0,bathroom,SHINEd_sun_aunuadmjocsddsrl.tif,53,0.0333333333333333,0.0166666666666667,0.0833333333333333,1.46666666666667,876092.0630878,876092.9979738,70,876092.1003394,876092.1170522,876092.1997037,876093.0033694,876094.4683877,1,0.934886000002734
108,32,4,categorization,0,kitchen,SHINEd_sun_adcrxklhlbwrbkgm.tif,78,0.0333333333333333,0.0166666666666667,0.0833333333333333,1.8,876094.4746635,876095.6931001,70,876094.5119721,876094.5278215,876094.6118168,876095.6993474,876097.4976852,0,1.21843660005834
108,33,4,categorization,0,bathroom,SHINEd_sun_aapitsgbtktqubfy.tif,14,0.0333333333333333,0.0166666666666667,0.0833333333333333,0.95,876097.5025833,876098.1010155,70,876097.5384903,876097.554983,876097.6382757,876098.1061181,876099.0544566,1,0.598432200029492
108,34,4,categorization,0,bathroom,SHINEd_sun_aunuadmjocsddsrl.tif,53,0.0333333333333333,0.0166666666666667,0.0833333333333333,1.21666666666667,876099.0605158,876099.7010913,74,876099.0965267,876099.1132685,876099.1961127,876099.7073463,876100.9223502,0,0.640575499972329
108,35,4,categorization,0,kitchen,SHINEd_sun_adcrxklhlbwrbkgm.tif,78,0.0333333333333333,0.0166666666666667,0.0833333333333333,1.8,876100.9273562,876101.8460967,70,876100.9642385,876100.9799502,876101.0632915,876101.8510879,876103.6494262,0,0.918740500113927
108,36,4,categorization,0,kitchen,SHINEd_sun_aamedkxepzlwuxes.tif,65,0.0333333333333333,0.0166666666666667,0.0833333333333333,1.16666666666667,876103.6542035,876104.2456879,74,876103.6917631,876103.7082505,876103.7917216,876104.2506222,876105.4156267,1,0.591484399978071
108,37,4,categorization,0,bathroom,SHINEd_sun_ahcvzmoyaycdoftf.tif,29,0.0333333333333333,0.0166666666666667,0.0833333333333333,1.16666666666667,876105.4204976,876106.1177789,70,876105.4565419,876105.473348,876105.5572042,876106.1225073,876107.2875116,1,0.697281299973838
108,38,4,categorization,0,bathroom,SHINEd_sun_axyrejkiiaqiurjk.tif,59,0.0333333333333333,0.0166666666666667,0.0833333333333333,1.65,876107.2922678,876108.413822,74,876107.3280157,876107.3462176,876107.4277786,876108.4192132,876110.0675513,0,1.12155420007184
108,39,4,categorization,0,kitchen,SHINEd_sun_awcpdzzznmweyyhv.tif,105,0.0333333333333333,0.0166666666666667,0.0833333333333333,0.933333333333333,876110.0722731,876110.77308,74,876110.1083078,876110.1261184,876110.2078234,876110.778929,876111.7105998,1,0.700806899927557
108,40,4,categorization,0,bathroom,SHINEd_sun_atyjprilyfyzpbjv.tif,52,0.0333333333333333,0.0166666666666667,0.0833333333333333,0.95,876111.7152227,876112.4850858,70,876111.7512932,876111.7675204,876111.8517344,876112.4911711,876113.4395099,1,0.76986310002394
108,41,4,categorization,0,kitchen,SHINEd_labelme_kxvouciolcpqplr.tif,62,0.0333333333333333,0.0166666666666667,0.0833333333333333,0.75,876113.4441505,876114.4531041,74,876113.4795035,876113.4972143,876113.5798592,876114.4588308,876115.2071682,1,1.00895359995775
108,42,4,categorization,0,bathroom,SHINEd_sun_agguqiubmwhqqunb.tif,25,0.0333333333333333,0.0166666666666667,0.0833333333333333,0.833333333333333,876115.2119601,876115.9010967,74,876115.2476214,876115.2646754,876115.3475774,876115.9060595,876116.7377304,0,0.68913660000544
108,43,4,categorization,0,bathroom,SHINEd_sun_aljolscmmzydegqp.tif,34,0.0333333333333333,0.0166666666666667,0.0833333333333333,1.33333333333333,876116.7423837,876117.5739211,74,876116.7785733,876116.7952651,876116.8780919,876117.5785833,876118.9102689,0,0.83153740002308
108,44,4,categorization,0,bathroom,SHINEd_sun_agrwbmhcpmfuwmsg.tif,27,0.0333333333333333,0.0166666666666667,0.0833333333333333,0.983333333333333,876118.9169807,876119.9178089,74,876118.9525765,876118.9720824,876119.0528218,876119.9235587,876120.9052304,0,1.0008282000199
108,45,4,categorization,0,kitchen,SHINEd_sun_aegoxogugdkwpmpj.tif,81,0.0333333333333333,0.0166666666666667,0.0833333333333333,1.25,876120.9096253,876121.6697851,70,876120.9454109,876120.9624197,876121.0457051,876121.674761,876122.9230981,0,0.760159800061956
108,46,4,categorization,0,bathroom,SHINEd_sun_aamrfepkhweyewue.tif,13,0.0333333333333333,0.0166666666666667,0.0833333333333333,0.833333333333333,876122.9294131,876123.6698018,70,876122.9662407,876122.9835759,876123.0652414,876123.6748048,876124.5064756,1,0.740388700040057
108,47,4,categorization,0,bathroom,SHINEd_sun_agrwbmhcpmfuwmsg.tif,27,0.0333333333333333,0.0166666666666667,0.0833333333333333,1.91666666666667,876124.5114939,876125.1971086,70,876124.5473259,876124.5654382,876124.6486645,876125.2029865,876127.1179904,1,0.685614700079896
108,48,4,categorization,0,kitchen,SHINEd_sun_abpwyqmlzafvklqo.tif,72,0.0333333333333333,0.0166666666666667,0.0833333333333333,1.76666666666667,876127.1224136,876127.8930618,74,876127.1584252,876127.1760888,876127.2592945,876127.8988026,876129.6638063,1,0.770648200064898
108,49,4,categorization,0,kitchen,SHINEd_sun_adcrxklhlbwrbkgm.tif,78,0.0333333333333333,0.0166666666666667,0.0833333333333333,1.41666666666667,876129.6683596,876130.5730429,74,876129.7041046,876129.72215,876129.8054758,876130.5785483,876131.9935522,1,0.904683299944736
108,50,4,categorization,0,kitchen,SHINEd_sun_ahpczsiumwwocjkv.tif,93,0.0333333333333333,0.0166666666666667,0.0833333333333333,1.43333333333333,876131.9987913,876132.6299308,74,876132.0356678,876132.0527462,876132.1342456,876132.6346097,876134.066298,1,0.631139499950223
