sub_num,trial,block,task,is_practice,category,image,texture,duration,mask_dur,jitter,stim_time,time_of_resp,trial_response,mask_time,fix_time,jit_onset,trial_end,trial_accuracy,RT
116,6,0,complexity,1,kitchen,kitchen_practice5.tif,230,1.5,0,1.46666666666667,3912.990056083,3918.035464208,1,NaN,3918.041084875,3918.059429333,3919.519523833,NaN,NaN
116,7,0,complexity,1,kitchen,kitchen_practice2.tif,227,1.5,0,1.31666666666667,3919.53756475,3922.731900625,7,NaN,3922.737660625,3922.755957166,3924.0660495,NaN,NaN
116,8,0,complexity,1,kitchen,kitchen_practice4.tif,229,1.5,0,1.76666666666667,3924.085145125,3926.82714075,7,NaN,3926.832794416,3926.851304916,3928.611410041,NaN,NaN
116,9,0,complexity,1,kitchen,kitchen_practice1.tif,226,1.5,0,0.816666666666667,3928.629726208,3932.171160625,7,NaN,3932.17832575,3932.196667833,3933.006676083,NaN,NaN
116,10,0,complexity,1,kitchen,kitchen_practice3.tif,228,1.5,0,0.9,3933.011093,3936.5467385,5,NaN,3936.552745916,3936.571134333,3937.464476375,NaN,NaN
116,1,1,complexity,0,kitchen,sun_avszsnwsbuqfgzbn.tif,215,1.5,0,1.15,3942.950654416,3946.28318,6,NaN,3946.288716958,3946.307173833,3947.450574708,NaN,NaN
116,2,1,complexity,0,kitchen,sun_ahpczsiumwwocjkv.tif,202,1.5,0,1.33333333333333,3947.459696541,3951.035697416,2,NaN,3951.041236291,3951.059943375,3952.386712625,NaN,NaN
116,3,1,complexity,0,kitchen,sun_aeqdocilnnpuvuhx.tif,193,1.5,0,1.75,3952.405140416,3955.291576791,5,NaN,3955.29731025,3955.315689833,3957.059104708,NaN,NaN
116,4,1,complexity,0,kitchen,sun_ahywdevtimnqcsln.tif,204,1.5,0,1.2,3957.078019208,3960.538154916,5,NaN,3960.563913166,3960.584010583,3961.777438625,NaN,NaN
116,5,1,complexity,0,kitchen,sun_aqeaevwwwjoqhzvl.tif,211,1.5,0,1.46666666666667,3961.790229083,3965.747649833,6,NaN,3965.753169875,3965.771432,3967.231535833,NaN,NaN
116,6,1,complexity,0,kitchen,sun_aehawpgmrlhlvcow.tif,191,1.5,0,1.01666666666667,3967.251538583,3971.106704166,6,NaN,3971.112605125,3971.13093375,3972.141007125,NaN,NaN
116,7,1,complexity,0,kitchen,sun_agorklincwxrdtga.tif,197,1.5,0,1.18333333333333,3972.149111291,3975.49877625,7,NaN,3975.504617666,3975.522970916,3976.699734875,NaN,NaN
116,8,1,complexity,0,kitchen,sun_agzzivivdpnawacl.tif,199,1.5,0,1.03333333333333,3976.712011958,3980.066924166,3,NaN,3980.072643333,3980.090947708,3981.117705416,NaN,NaN
116,9,1,complexity,0,kitchen,sun_acfmftudsenhrfhy.tif,184,1.5,0,1.25,3981.128121291,3984.090641083,5,NaN,3984.096514375,3984.114822791,3985.358217458,NaN,NaN
116,10,1,complexity,0,kitchen,sun_aarfiyshqohlwkmo.tif,177,1.5,0,0.733333333333333,3985.375175291,3988.1945645,5,NaN,3988.200490625,3988.218783166,3988.945459083,NaN,NaN
116,11,1,complexity,0,kitchen,labelme_rykdqxenmhulbdn.tif,173,1.5,0,1.01666666666667,3988.949937208,3992.698529708,4,NaN,3992.704500333,3992.722796541,3993.732861333,NaN,NaN
116,12,1,complexity,0,kitchen,sun_aexklacwqwezaorf.tif,194,1.5,0,1.53333333333333,3993.741160208,3996.531160625,6,NaN,3996.536621458,3996.554891833,3998.081629916,NaN,NaN
116,13,1,complexity,0,kitchen,sun_aunzlwrbjumxhwdj.tif,213,1.5,0,1.33333333333333,3998.098436041,4001.643157833,3,NaN,4001.648692083,4001.667073875,4002.993816541,NaN,NaN
116,14,1,complexity,0,kitchen,sun_ahljzhgcdpomplvg.tif,201,1.5,0,1.53333333333333,4003.003188833,4006.931105375,1,NaN,4006.936717833,4006.954939375,4008.481679166,NaN,NaN
116,15,1,complexity,0,kitchen,labelme_kxvouciolcpqplr.tif,172,1.5,0,1.01666666666667,4008.498963708,4011.61060025,1,NaN,4011.616414125,4011.634694041,4012.644757708,NaN,NaN
116,16,1,complexity,0,kitchen,sun_awcpdzzznmweyyhv.tif,216,1.5,0,1.23333333333333,4012.652949666,4015.803468125,6,NaN,4015.809122958,4015.827567333,4017.054307625,NaN,NaN
116,17,1,complexity,0,kitchen,sun_aaxxjlsuzvqlgylf.tif,178,1.5,0,1.18333333333333,4017.068119583,4019.747556458,7,NaN,4019.752979708,4019.77125525,4020.947999041,NaN,NaN
116,18,1,complexity,0,kitchen,sun_aamedkxepzlwuxes.tif,175,1.5,0,0.783333333333333,4020.958163208,4024.13115975,5,NaN,4024.136911041,4024.155295458,4024.931970708,NaN,NaN
116,19,1,complexity,0,kitchen,sun_ajcbwwvdlsvjyzje.tif,206,1.5,0,1.73333333333333,4024.936391208,4028.426535333,6,NaN,4028.432329791,4028.45062825,4030.177380166,NaN,NaN
116,20,1,complexity,0,kitchen,sun_azmutvzbxypaceni.tif,220,1.5,0,1.21666666666667,4030.196093583,4033.479395291,3,NaN,4033.508509625,4033.531573791,4034.741652083,NaN,NaN
116,21,1,complexity,0,kitchen,sun_acxkpeoqbwcxfvip.tif,187,1.5,0,1.26666666666667,4034.76034675,4037.346575333,7,NaN,4037.352446333,4037.370752083,4038.630852625,NaN,NaN
116,22,1,complexity,0,kitchen,sun_aggjlwcdjsjcaemh.tif,196,1.5,0,0.783333333333333,4038.644717541,4041.643255333,5,NaN,4041.649121541,4041.667446541,4042.444119833,NaN,NaN
116,23,1,complexity,0,kitchen,sun_aadbddgrdsjugojn.tif,174,1.5,0,1.48333333333333,4042.448666958,4045.41983775,4,NaN,4045.449678125,4045.472873458,4046.949609666,NaN,NaN
116,24,1,complexity,0,kitchen,sun_acwjdupvyjsugpay.tif,186,1.5,0,1.36666666666667,4046.967931125,4050.203172125,2,NaN,4050.208828875,4050.227305416,4051.587408791,NaN,NaN
116,25,1,complexity,0,kitchen,sun_auticobqsbwgoppi.tif,214,1.5,0,0.983333333333333,4051.606192333,4055.027162333,1,NaN,4055.032686166,4055.051051833,4056.027727291,NaN,NaN
116,1,2,complexity,0,kitchen,sun_aixorpehvfykdynp.tif,205,1.5,0,1.26666666666667,4060.750992791,4063.7825495,3,NaN,4063.810204625,4063.829815541,4065.089918791,NaN,NaN
116,2,2,complexity,0,kitchen,sun_aypmqwcualkenuoe.tif,219,1.5,0,1.11666666666667,4065.108222833,4068.082460333,7,NaN,4068.088251791,4068.106599625,4069.216665666,NaN,NaN
116,3,2,complexity,0,kitchen,sun_aymvwlarqodbwuoc.tif,218,1.5,0,1.43333333333333,4069.225795791,4072.6585885,4,NaN,4072.664176166,4072.682487416,4074.109218708,NaN,NaN
116,4,2,complexity,0,kitchen,sun_amjjdeyrggfqgmom.tif,210,1.5,0,0.8,4074.126237666,4079.523028791,3,NaN,4079.528496083,4079.54676725,4080.340107458,NaN,NaN
116,5,2,complexity,0,kitchen,sun_akcjzhbbjlbogpdi.tif,209,1.5,0,0.733333333333333,4080.344889541,4083.426168791,4,NaN,4083.435526458,4083.454526083,4084.181202125,NaN,NaN
116,6,2,complexity,0,kitchen,sun_abdxkyyxwfskuaqb.tif,180,1.5,0,1.03333333333333,4084.1856775,4088.331158041,5,NaN,4088.336635541,4088.354906,4089.381656041,NaN,NaN
116,7,2,complexity,0,kitchen,sun_acgtpgfybqjmzeyw.tif,185,1.5,0,1.56666666666667,4089.3928265,4093.69943375,4,NaN,4093.705149291,4093.723437125,4095.283548208,NaN,NaN
116,8,2,complexity,0,kitchen,sun_ahdycvpopffkzzsu.tif,200,1.5,0,0.866666666666667,4095.3013015,4099.082969583,2,NaN,4099.088468541,4099.106717708,4099.966724083,NaN,NaN
116,9,2,complexity,0,kitchen,sun_ajkqhtgcbgpcwrwn.tif,207,1.5,0,0.716666666666667,4099.97139575,4102.981171541,4,NaN,4102.996839416,4103.017763458,4103.727771166,NaN,NaN
116,10,2,complexity,0,kitchen,sun_agubuxuukhzyzpdp.tif,198,1.5,0,1.33333333333333,4103.732783916,4107.050537666,4,NaN,4107.0561485,4107.074490083,4108.401248208,NaN,NaN
116,11,2,complexity,0,kitchen,sun_aegoxogugdkwpmpj.tif,190,1.5,0,1.01666666666667,4108.420170708,4111.898858208,5,NaN,4111.904598875,4111.922963458,4112.933034583,NaN,NaN
116,12,2,complexity,0,kitchen,sun_aenotlpyftoioydp.tif,192,1.5,0,0.733333333333333,4112.941924541,4116.250851625,3,NaN,4116.256470416,4116.2748885,4117.001561541,NaN,NaN
116,13,2,complexity,0,kitchen,sun_auaiucuqpdausiva.tif,212,1.5,0,1.38333333333333,4117.005933625,4120.546368458,6,NaN,4120.552102708,4120.570456083,4121.947212625,NaN,NaN
116,14,2,complexity,0,kitchen,sun_aapllqyqlykszopd.tif,176,1.5,0,1.06666666666667,4121.964751291,4125.874786625,5,NaN,4125.880423416,4125.898815791,4126.958924125,NaN,NaN
116,15,2,complexity,0,kitchen,sun_adgqasybjyktddhj.tif,188,1.5,0,0.85,4126.966569333,4131.618763416,4,NaN,4131.624457791,4131.64380175,4132.487142416,NaN,NaN
116,16,2,complexity,0,kitchen,labelme_brsyyvweiuaazfr.tif,171,1.5,0,0.9,4132.491515041,4136.162619958,6,NaN,4136.168142708,4136.186518416,4137.07985875,NaN,NaN
116,17,2,complexity,0,kitchen,sun_admlmbcdswaszruo.tif,189,1.5,0,1.55,4137.084365833,4140.218957916,3,NaN,4140.224985375,4140.243335625,4141.786770875,NaN,NaN
116,18,2,complexity,0,kitchen,sun_abrcnpqqhmjwekyf.tif,183,1.5,0,0.7,4141.80521625,4145.410776208,4,NaN,4145.416554791,4145.434945958,4146.12828725,NaN,NaN
116,19,2,complexity,0,kitchen,sun_abdenxonkemggwsq.tif,179,1.5,0,0.716666666666667,4146.132798583,4149.306804,7,NaN,4149.31266625,4149.330980416,4150.040989916,NaN,NaN
116,20,2,complexity,0,kitchen,sun_akchetnepxlcxhsu.tif,208,1.5,0,0.85,4150.045470666,4153.394160791,5,NaN,4153.400019916,4153.418345666,4154.261692,NaN,NaN
116,21,2,complexity,0,kitchen,sun_axyyrmzcupyhlivc.tif,217,1.5,0,1.35,4154.266259791,4158.658547041,7,NaN,4158.664196583,4158.682564125,4160.025970083,NaN,NaN
116,22,2,complexity,0,kitchen,sun_abftihopvusyfakt.tif,181,1.5,0,1.96666666666667,4160.041435833,4163.386879375,5,NaN,4163.392512791,4163.41086375,4165.37094375,NaN,NaN
116,23,2,complexity,0,kitchen,sun_afuyedyxivkhecmu.tif,195,1.5,0,0.933333333333333,4165.388040458,4168.810251541,7,NaN,4168.816246166,4168.83455325,4169.761228625,NaN,NaN
116,24,2,complexity,0,kitchen,sun_ahspylgoovwmwvgk.tif,203,1.5,0,1.33333333333333,4169.765748791,4173.122635041,4,NaN,4173.128120541,4173.146652041,4174.473406958,NaN,NaN
116,25,2,complexity,0,kitchen,sun_abpwyqmlzafvklqo.tif,182,1.5,0,1.16666666666667,4174.491704083,4177.578959958,2,NaN,4177.584531666,4177.602945,4178.763038333,NaN,NaN
