sub_num,trial,block,task,is_practice,category,image,texture,duration,mask_dur,jitter,stim_time,time_of_resp,trial_response,mask_time,fix_time,jit_onset,trial_end,trial_accuracy,RT
138,6,0,usability,1,kitchen,kitchen_practice2.tif,227,1.5,0,1.13333333333333,2376.570956625,2379.247728583,6,NaN,2379.271531791,2379.295471833,2380.422235125,NaN,NaN
138,7,0,usability,1,kitchen,kitchen_practice3.tif,228,1.5,0,0.933333333333333,2380.433643041,2382.61922225,7,NaN,2382.624964958,2382.643185208,2383.569862583,NaN,NaN
138,8,0,usability,1,kitchen,kitchen_practice1.tif,226,1.5,0,1.48333333333333,2383.591056541,2385.849074333,7,NaN,2385.878627541,2385.902612708,2387.37934725,NaN,NaN
138,9,0,usability,1,kitchen,kitchen_practice4.tif,229,1.5,0,1.33333333333333,2387.39601225,2390.091908791,7,NaN,2390.097392666,2390.115773166,2391.442535458,NaN,NaN
138,10,0,usability,1,kitchen,kitchen_practice5.tif,230,1.5,0,1.3,2391.453095541,2394.002953875,4,NaN,2394.008651125,2394.026712416,2395.320148125,NaN,NaN
138,1,1,usability,0,kitchen,sun_amjjdeyrggfqgmom.tif,210,1.5,0,1.91666666666667,2400.185789083,2402.845135291,7,NaN,2402.871604958,2402.895108583,2404.805183375,NaN,NaN
138,2,1,usability,0,kitchen,sun_aymvwlarqodbwuoc.tif,218,1.5,0,0.85,2404.824009083,2407.499614833,6,NaN,2407.523721958,2407.545026833,2408.388369125,NaN,NaN
138,3,1,usability,0,kitchen,labelme_rykdqxenmhulbdn.tif,173,1.5,0,0.7,2408.393259375,2410.815174458,4,NaN,2410.843610083,2410.86685825,2411.560199208,NaN,NaN
138,4,1,usability,0,kitchen,sun_adgqasybjyktddhj.tif,188,1.5,0,1.6,2411.574142083,2414.464490166,3,NaN,2414.493661,2414.517134333,2416.110536666,NaN,NaN
138,5,1,usability,0,kitchen,sun_aehawpgmrlhlvcow.tif,191,1.5,0,1.13333333333333,2416.126780541,2418.671461416,7,NaN,2418.696261208,2418.719251916,2419.845980458,NaN,NaN
138,6,1,usability,0,kitchen,sun_aadbddgrdsjugojn.tif,174,1.5,0,0.716666666666667,2419.862646333,2422.443476708,4,NaN,2422.448979375,2422.467444125,2423.177452666,NaN,NaN
138,7,1,usability,0,kitchen,sun_acwjdupvyjsugpay.tif,186,1.5,0,1.6,2423.190803416,2425.639254791,3,NaN,2425.666024,2425.688547916,2427.281963166,NaN,NaN
138,8,1,usability,0,kitchen,sun_aixorpehvfykdynp.tif,205,1.5,0,1.68333333333333,2427.299011333,2429.999552958,5,NaN,2430.028713416,2430.052222791,2431.728983666,NaN,NaN
138,9,1,usability,0,kitchen,sun_auaiucuqpdausiva.tif,212,1.5,0,1.41666666666667,2431.747047,2434.070725833,7,NaN,2434.1000825,2434.123641791,2435.5337285,NaN,NaN
138,10,1,usability,0,kitchen,sun_aamedkxepzlwuxes.tif,175,1.5,0,1,2435.5453465,2438.355575,3,NaN,2438.361058625,2438.379430625,2439.372772,NaN,NaN
138,11,1,usability,0,kitchen,sun_ahpczsiumwwocjkv.tif,202,1.5,0,1.33333333333333,2439.377134833,2442.096002208,6,NaN,2442.126993041,2442.150706791,2443.47745375,NaN,NaN
138,12,1,usability,0,kitchen,sun_aenotlpyftoioydp.tif,192,1.5,0,1.15,2443.489875125,2446.706905458,2,NaN,2446.712751458,2446.731079875,2447.874502458,NaN,NaN
138,13,1,usability,0,kitchen,sun_aexklacwqwezaorf.tif,194,1.5,0,1.86666666666667,2447.886573125,2450.683102208,7,NaN,2450.6887455,2450.70705475,2452.567132541,NaN,NaN
138,14,1,usability,0,kitchen,sun_aapllqyqlykszopd.tif,176,1.5,0,1.18333333333333,2452.585819458,2455.758660416,3,NaN,2455.787957333,2455.81174875,2456.98846125,NaN,NaN
138,15,1,usability,0,kitchen,sun_ahywdevtimnqcsln.tif,204,1.5,0,1.71666666666667,2457.00042775,2459.458626375,3,NaN,2459.464502,2459.482717125,2461.192817125,NaN,NaN
138,16,1,usability,0,kitchen,sun_aggjlwcdjsjcaemh.tif,196,1.5,0,1.1,2461.207139708,2463.62856375,4,NaN,2463.654484083,2463.67824225,2464.771641333,NaN,NaN
138,17,1,usability,0,kitchen,sun_acxkpeoqbwcxfvip.tif,187,1.5,0,0.983333333333333,2464.789369041,2467.283454208,7,NaN,2467.288849708,2467.307849458,2468.28452525,NaN,NaN
138,18,1,usability,0,kitchen,sun_aeqdocilnnpuvuhx.tif,193,1.5,0,0.916666666666667,2468.288919,2470.97075325,7,NaN,2471.000354708,2471.024056833,2471.934063208,NaN,NaN
138,19,1,usability,0,kitchen,sun_akcjzhbbjlbogpdi.tif,209,1.5,0,0.716666666666667,2471.940468791,2474.547433541,4,NaN,2474.576683333,2474.599811416,2475.309818541,NaN,NaN
138,20,1,usability,0,kitchen,sun_ajcbwwvdlsvjyzje.tif,206,1.5,0,0.883333333333333,2475.314628875,2478.198747166,4,NaN,2478.227592041,2478.250911,2479.127584583,NaN,NaN
138,21,1,usability,0,kitchen,sun_azmutvzbxypaceni.tif,220,1.5,0,1.93333333333333,2479.132173208,2481.9079975,4,NaN,2481.937319041,2481.961717333,2483.888486541,NaN,NaN
138,22,1,usability,0,kitchen,sun_awcpdzzznmweyyhv.tif,216,1.5,0,0.9,2483.908171041,2486.78793025,6,NaN,2486.817420625,2486.841362083,2487.734704333,NaN,NaN
138,23,1,usability,0,kitchen,sun_aunzlwrbjumxhwdj.tif,213,1.5,0,1.13333333333333,2487.7403705,2490.406870125,1,NaN,2490.435482916,2490.458996,2491.585757833,NaN,NaN
138,24,1,usability,0,kitchen,labelme_kxvouciolcpqplr.tif,172,1.5,0,0.766666666666667,2491.595682833,2494.035440083,2,NaN,2494.040901875,2494.059231291,2494.819238666,NaN,NaN
138,25,1,usability,0,kitchen,sun_agubuxuukhzyzpdp.tif,198,1.5,0,0.966666666666667,2494.823532458,2497.244785875,5,NaN,2497.27423475,2497.297466875,2498.25747475,NaN,NaN
138,1,2,usability,0,kitchen,sun_ajkqhtgcbgpcwrwn.tif,207,1.5,0,1.56666666666667,2501.606263333,2504.834713,2,NaN,2504.840408166,2504.858626083,2506.418703916,NaN,NaN
138,2,2,usability,0,kitchen,sun_avszsnwsbuqfgzbn.tif,215,1.5,0,1.2,2506.437766333,2509.866957041,7,NaN,2509.872589125,2509.890944958,2511.084379333,NaN,NaN
138,3,2,usability,0,kitchen,sun_admlmbcdswaszruo.tif,189,1.5,0,1.73333333333333,2511.095050541,2513.315381833,5,NaN,2513.3208385,2513.339121416,2515.065879666,NaN,NaN
138,4,2,usability,0,kitchen,sun_abdxkyyxwfskuaqb.tif,180,1.5,0,1.61666666666667,2515.085059333,2517.786903625,5,NaN,2517.809390875,2517.832734958,2519.4428395,NaN,NaN
138,5,2,usability,0,kitchen,sun_aypmqwcualkenuoe.tif,219,1.5,0,1.38333333333333,2519.454170583,2522.818305916,6,NaN,2522.847251791,2522.870297416,2524.24705425,NaN,NaN
138,6,2,usability,0,kitchen,sun_agzzivivdpnawacl.tif,199,1.5,0,1.73333333333333,2524.267014958,2527.91433425,4,NaN,2527.920267708,2527.938590541,2529.665349375,NaN,NaN
138,7,2,usability,0,kitchen,sun_aaxxjlsuzvqlgylf.tif,178,1.5,0,1.96666666666667,2529.684471125,2531.97770175,6,NaN,2532.007480458,2532.03062375,2533.990700666,NaN,NaN
138,8,2,usability,0,kitchen,sun_abftihopvusyfakt.tif,181,1.5,0,0.883333333333333,2534.010846916,2536.390179708,6,NaN,2536.419633041,2536.443588625,2537.320264,NaN,NaN
138,9,2,usability,0,kitchen,sun_agorklincwxrdtga.tif,197,1.5,0,1.06666666666667,2537.325230666,2539.626134333,6,NaN,2539.655255916,2539.67863125,2540.738735708,NaN,NaN
138,10,2,usability,0,kitchen,labelme_brsyyvweiuaazfr.tif,171,1.5,0,1.06666666666667,2540.758129291,2543.946888875,5,NaN,2543.952334375,2543.97078225,2545.030864791,NaN,NaN
138,11,2,usability,0,kitchen,sun_afuyedyxivkhecmu.tif,195,1.5,0,0.966666666666667,2545.040860541,2547.466884041,6,NaN,2547.472517166,2547.490856166,2548.450865083,NaN,NaN
138,12,2,usability,0,kitchen,sun_aegoxogugdkwpmpj.tif,190,1.5,0,1.78333333333333,2548.455172958,2550.954585458,6,NaN,2550.9806465,2551.004450541,2552.781175583,NaN,NaN
138,13,2,usability,0,kitchen,sun_axyyrmzcupyhlivc.tif,217,1.5,0,1.68333333333333,2552.797721291,2555.302658166,4,NaN,2555.32977,2555.353610666,2557.030351833,NaN,NaN
138,14,2,usability,0,kitchen,sun_abpwyqmlzafvklqo.tif,182,1.5,0,0.983333333333333,2557.04748375,2560.99502675,2,NaN,2561.000444458,2561.018805333,2561.995480708,NaN,NaN
138,15,2,usability,0,kitchen,sun_abdenxonkemggwsq.tif,179,1.5,0,1.33333333333333,2562.006777416,2564.378630666,7,NaN,2564.405115833,2564.426467708,2565.753193,NaN,NaN
138,16,2,usability,0,kitchen,sun_acgtpgfybqjmzeyw.tif,185,1.5,0,1.56666666666667,2565.773170125,2568.306193458,3,NaN,2568.312039541,2568.330285625,2569.890572875,NaN,NaN
138,17,2,usability,0,kitchen,sun_ahspylgoovwmwvgk.tif,203,1.5,0,1.66666666666667,2569.906869083,2572.41919,5,NaN,2572.42458875,2572.442797666,2574.102856833,NaN,NaN
138,18,2,usability,0,kitchen,sun_auticobqsbwgoppi.tif,214,1.5,0,1.86666666666667,2574.122631791,2576.767615125,1,NaN,2576.796899166,2576.820284625,2578.680361541,NaN,NaN
138,19,2,usability,0,kitchen,sun_aqeaevwwwjoqhzvl.tif,211,1.5,0,1.95,2578.696966958,2581.202882541,6,NaN,2581.208355458,2581.226596708,2583.170018375,NaN,NaN
138,20,2,usability,0,kitchen,sun_acfmftudsenhrfhy.tif,184,1.5,0,0.966666666666667,2583.190957583,2585.782088,6,NaN,2585.811187583,2585.834607083,2586.794615041,NaN,NaN
138,21,2,usability,0,kitchen,sun_abrcnpqqhmjwekyf.tif,183,1.5,0,1.43333333333333,2586.806589291,2589.262341375,6,NaN,2589.290694083,2589.313988708,2590.74072725,NaN,NaN
138,22,2,usability,0,kitchen,sun_ahdycvpopffkzzsu.tif,200,1.5,0,0.85,2590.760741875,2593.051056916,3,NaN,2593.056632333,2593.075117125,2593.918458625,NaN,NaN
138,23,2,usability,0,kitchen,sun_ahljzhgcdpomplvg.tif,201,1.5,0,1.53333333333333,2593.922784833,2596.821857416,3,NaN,2596.851009583,2596.874437708,2598.401201416,NaN,NaN
138,24,2,usability,0,kitchen,sun_akchetnepxlcxhsu.tif,208,1.5,0,1.18333333333333,2598.41909225,2601.346790541,3,NaN,2601.352266875,2601.370679,2602.547439916,NaN,NaN
138,25,2,usability,0,kitchen,sun_aarfiyshqohlwkmo.tif,177,1.5,0,1.86666666666667,2602.559093666,2604.955013416,3,NaN,2604.96047825,2604.978820541,2606.83888325,NaN,NaN
