sub_num,trial,block,task,is_practice,category,image,texture,duration,mask_dur,jitter,stim_time,time_of_resp,trial_response,mask_time,fix_time,jit_onset,trial_end,trial_accuracy,RT
104,1,0,familiarity,1,bathroom,bathroom_practice1.tif,221,1.5,0,0.916666666666667,1353.523364333,1358.781075333,4,NaN,1358.788084916,1358.806404958,1359.716411333,NaN,NaN
104,2,0,familiarity,1,bathroom,bathroom_practice2.tif,222,1.5,0,0.85,1359.72103725,1363.532808375,1,NaN,1363.538254416,1363.556452166,1364.39979025,NaN,NaN
104,3,0,familiarity,1,bathroom,bathroom_practice3.tif,223,1.5,0,0.883333333333333,1364.40412625,1369.132752625,5,NaN,1369.138247375,1369.156567833,1370.033240125,NaN,NaN
104,4,0,familiarity,1,bathroom,bathroom_practice5.tif,225,1.5,0,1.43333333333333,1370.037840791,1377.620378958,4,NaN,1377.626071833,1377.644698833,1379.071393458,NaN,NaN
104,5,0,familiarity,1,bathroom,bathroom_practice4.tif,224,1.5,0,1.53333333333333,1379.080917708,1385.73281525,2,NaN,1385.73826025,1385.756618791,1387.283330541,NaN,NaN
104,1,1,familiarity,0,bathroom,sun_ahcvzmoyaycdoftf.tif,137,1.5,0,1.26666666666667,1393.588641041,1403.268531833,5,NaN,1403.274500375,1403.292968458,1404.553026291,NaN,NaN
104,2,1,familiarity,0,bathroom,sun_aggnnqpdorgxpvce.tif,131,1.5,0,1.76666666666667,1404.572503416,1408.820721666,2,NaN,1408.826295666,1408.844651083,1410.604704666,NaN,NaN
104,3,1,familiarity,0,bathroom,sun_aclfzgynxzxlbepz.tif,129,1.5,0,1.46666666666667,1410.622921791,1415.316227416,2,NaN,1415.321734333,1415.339936791,1416.799978583,NaN,NaN
104,4,1,familiarity,0,bathroom,sun_apmqjbnwghzuhhzh.tif,156,1.5,0,1.28333333333333,1416.818765083,1423.340073666,3,NaN,1423.345688416,1423.364017541,1424.640719083,NaN,NaN
104,5,1,familiarity,0,bathroom,sun_acegryoqftbzowsg.tif,127,1.5,0,0.966666666666667,1424.658208833,1430.364647416,4,NaN,1430.370199916,1430.388478083,1431.348483458,NaN,NaN
104,6,1,familiarity,0,bathroom,sun_alkosphxlxwjwgjd.tif,144,1.5,0,0.783333333333333,1431.353558416,1434.68386125,2,NaN,1434.690170125,1434.70858125,1435.4852535,NaN,NaN
104,7,1,familiarity,0,bathroom,sun_acgyywnybuveqsro.tif,128,1.5,0,1.21666666666667,1435.490087041,1439.548635416,1,NaN,1439.554026333,1439.572301208,1440.78233575,NaN,NaN
104,8,1,familiarity,0,bathroom,sun_anhioqovhscjqqwb.tif,148,1.5,0,1.4,1440.800034541,1443.948412291,1,NaN,1443.953794583,1443.972048333,1445.365438458,NaN,NaN
104,9,1,familiarity,0,bathroom,sun_aspsyogrekjtfozg.tif,160,1.5,0,1.3,1445.383370291,1449.028075083,1,NaN,1449.033686333,1449.052526875,1450.345904083,NaN,NaN
104,10,1,familiarity,0,bathroom,sun_ahqjwnzgolcaoidx.tif,139,1.5,0,0.95,1450.363396958,1454.172151041,2,NaN,1454.177587666,1454.195929125,1455.139267375,NaN,NaN
104,11,1,familiarity,0,bathroom,sun_ausgutylgojavyoq.tif,163,1.5,0,1.96666666666667,1455.143978958,1459.099882833,4,NaN,1459.105576041,1459.123882166,1461.083909833,NaN,NaN
104,12,1,familiarity,0,bathroom,sun_axyrejkiiaqiurjk.tif,169,1.5,0,1.13333333333333,1461.094034875,1464.595660208,1,NaN,1464.601704041,1464.620530875,1465.7472355,NaN,NaN
104,13,1,familiarity,0,bathroom,sun_agrwbmhcpmfuwmsg.tif,134,1.5,0,0.933333333333333,1465.75661225,1471.412202208,5,NaN,1471.417634125,1471.436082583,1472.362755875,NaN,NaN
104,14,1,familiarity,0,bathroom,sun_axxbkopsgyouuebh.tif,168,1.5,0,1.6,1472.3678405,1477.915782,6,NaN,1477.92203375,1477.940391166,1479.533777916,NaN,NaN
104,15,1,familiarity,0,bathroom,sun_akiytfaagpdsphgz.tif,141,1.5,0,1.38333333333333,1479.550404375,1483.500597708,3,NaN,1483.506496458,1483.524815583,1484.901535625,NaN,NaN
104,16,1,familiarity,0,bathroom,sun_aavhrsfjbserjtht.tif,123,1.5,0,1.58333333333333,1484.920596583,1489.468131916,2,NaN,1489.47376375,1489.49218525,1491.068894541,NaN,NaN
104,17,1,familiarity,0,bathroom,sun_auzqhkafidnkrwmo.tif,164,1.5,0,0.966666666666667,1491.080068916,1495.07599475,1,NaN,1495.081453875,1495.099874541,1496.059878916,NaN,NaN
104,18,1,familiarity,0,bathroom,sun_amzlamotzwfkwjco.tif,147,1.5,0,0.983333333333333,1496.064801375,1500.31593775,1,NaN,1500.32183725,1500.340136291,1501.316807916,NaN,NaN
104,19,1,familiarity,0,bathroom,sun_asfwthctfqerjvxr.tif,159,1.5,0,0.8,1501.321708125,1508.04386475,1,NaN,1508.050119416,1508.068692583,1508.862032541,NaN,NaN
104,20,1,familiarity,0,bathroom,sun_apkxzenqapsujocq.tif,155,1.5,0,0.7,1508.867515583,1513.699971166,7,NaN,1513.705530083,1513.723847125,1514.41718675,NaN,NaN
104,21,1,familiarity,0,bathroom,sun_anryaplzeujmzfkd.tif,149,1.5,0,0.716666666666667,1514.422555458,1518.772177,2,NaN,1518.777689125,1518.7960895,1519.506094541,NaN,NaN
104,22,1,familiarity,0,bathroom,sun_atstyziqcmkahyxk.tif,161,1.5,0,1.76666666666667,1519.510922958,1524.763911791,3,NaN,1524.7693305,1524.787539708,1526.5475755,NaN,NaN
104,23,1,familiarity,0,bathroom,sun_ajlawzvmubibwbpy.tif,140,1.5,0,1.7,1526.565598833,1531.147693041,4,NaN,1531.153586375,1531.171858208,1532.865250583,NaN,NaN
104,24,1,familiarity,0,bathroom,sun_aljolscmmzydegqp.tif,143,1.5,0,1.38333333333333,1532.882337666,1536.540079083,2,NaN,1536.547598958,1536.565990083,1537.942705,NaN,NaN
104,25,1,familiarity,0,bathroom,sun_afcoljnjfoxjtgja.tif,130,1.5,0,0.766666666666667,1537.960233125,1542.2757895,2,NaN,1542.281431208,1542.299809666,1543.059816166,NaN,NaN
104,1,2,familiarity,0,bathroom,sun_azqyogdvyhahyram.tif,170,1.5,0,0.85,1548.19868075,1551.931313416,4,NaN,1551.937167208,1551.955462708,1552.79880275,NaN,NaN
104,2,2,familiarity,0,bathroom,sun_agguqiubmwhqqunb.tif,132,1.5,0,1.53333333333333,1552.804081083,1556.859758625,7,NaN,1556.865157875,1556.883458458,1558.410170458,NaN,NaN
104,3,2,familiarity,0,bathroom,sun_avhrdrntsqrjzccq.tif,165,1.5,0,0.7,1558.427581833,1562.219656125,2,NaN,1562.225460833,1562.243801125,1562.937139791,NaN,NaN
104,4,2,familiarity,0,bathroom,sun_aunuadmjocsddsrl.tif,162,1.5,0,1.36666666666667,1562.942504958,1567.83521525,1,NaN,1567.84105925,1567.859329125,1569.219361833,NaN,NaN
104,5,2,familiarity,0,bathroom,sun_abapwbhyhkfixyex.tif,124,1.5,0,0.716666666666667,1569.23851675,1573.868164,3,NaN,1573.873570833,1573.891775416,1574.601781708,NaN,NaN
104,6,2,familiarity,0,bathroom,sun_alotolagknyrgtsk.tif,145,1.5,0,1.38333333333333,1574.60698,1577.939843041,1,NaN,1577.946080708,1577.964428666,1579.341133083,NaN,NaN
104,7,2,familiarity,0,bathroom,labelme_sfxiulhjbhlyiyt.tif,121,1.5,0,0.916666666666667,1579.355693708,1583.58709175,5,NaN,1583.592928583,1583.611264208,1584.521269625,NaN,NaN
104,8,2,familiarity,0,bathroom,sun_aqrpegblszgcoujh.tif,158,1.5,0,1.58333333333333,1584.534867041,1588.963158,1,NaN,1588.968931791,1588.987131208,1590.563839666,NaN,NaN
104,9,2,familiarity,0,bathroom,sun_ahijqszoswveeyji.tif,138,1.5,0,1.25,1590.581478833,1593.639056791,2,NaN,1593.66738125,1593.6913665,1594.934743708,NaN,NaN
104,10,2,familiarity,0,bathroom,sun_axldvoqbuvuggfmq.tif,167,1.5,0,0.95,1594.954741458,1600.907196208,5,NaN,1600.912881416,1600.931249291,1601.874587208,NaN,NaN
104,11,2,familiarity,0,bathroom,sun_ahaulkltgpkeeemi.tif,136,1.5,0,1.4,1601.879085791,1607.939665958,4,NaN,1607.945099583,1607.963471541,1609.356844625,NaN,NaN
104,12,2,familiarity,0,bathroom,sun_aghyqhbptboemmoq.tif,133,1.5,0,0.766666666666667,1609.373849333,1612.81114375,5,NaN,1612.816748791,1612.835132666,1613.595139875,NaN,NaN
104,13,2,familiarity,0,bathroom,sun_apynckhmoftszqoq.tif,157,1.5,0,0.733333333333333,1613.601187041,1617.410932625,1,NaN,1617.416756375,1617.43514975,1618.161821875,NaN,NaN
104,14,2,familiarity,0,bathroom,sun_apeeialkgkuxddgh.tif,152,1.5,0,1.06666666666667,1618.166347458,1623.531931416,4,NaN,1623.53787525,1623.556487083,1624.616524583,NaN,NaN
104,15,2,familiarity,0,bathroom,sun_agyqfjcfkdcydepw.tif,135,1.5,0,1.33333333333333,1624.624651375,1629.899322375,2,NaN,1629.904968083,1629.923374166,1631.250078625,NaN,NaN
104,16,2,familiarity,0,bathroom,sun_aleqenyvunhactkl.tif,142,1.5,0,1.41666666666667,1631.265007083,1635.403582375,1,NaN,1635.408994833,1635.427264708,1636.837310166,NaN,NaN
104,17,2,familiarity,0,bathroom,sun_aapitsgbtktqubfy.tif,122,1.5,0,1.95,1636.855281041,1641.595202416,3,NaN,1641.600712833,1641.619729541,1643.563105833,NaN,NaN
104,18,2,familiarity,0,bathroom,sun_ambriybtogmepttm.tif,146,1.5,0,0.866666666666667,1643.58053825,1647.010831166,1,NaN,1647.017064875,1647.035373833,1647.895379166,NaN,NaN
104,19,2,familiarity,0,bathroom,sun_apkruvsevgegsdwp.tif,154,1.5,0,0.983333333333333,1647.900748083,1652.291731541,5,NaN,1652.29709475,1652.315442416,1653.292113041,NaN,NaN
104,20,2,familiarity,0,bathroom,sun_awnqiikzaispgmwo.tif,166,1.5,0,0.983333333333333,1653.2966465,1656.890967541,4,NaN,1656.896700958,1656.915082625,1657.891755666,NaN,NaN
104,21,2,familiarity,0,bathroom,sun_abjtwfukuwddzted.tif,125,1.5,0,0.766666666666667,1657.897364416,1661.571544916,1,NaN,1661.576960416,1661.595349208,1662.355353916,NaN,NaN
104,22,2,familiarity,0,bathroom,sun_acduarbnmmoglmiv.tif,126,1.5,0,0.833333333333333,1662.360574125,1666.035002625,1,NaN,1666.040820625,1666.059157291,1666.885830375,NaN,NaN
104,23,2,familiarity,0,bathroom,sun_apjevzvycyhuqghb.tif,153,1.5,0,0.833333333333333,1666.890977041,1675.491489291,3,NaN,1675.497708541,1675.516201333,1676.342875166,NaN,NaN
104,24,2,familiarity,0,bathroom,sun_aofnryafpsjimzsb.tif,150,1.5,0,0.716666666666667,1676.348322875,1680.24304225,2,NaN,1680.249375125,1680.268156041,1680.978160166,NaN,NaN
104,25,2,familiarity,0,bathroom,sun_aoybiabnpadelefl.tif,151,1.5,0,1.71666666666667,1680.982737416,1684.226779416,1,NaN,1684.232618541,1684.251481125,1685.961523666,NaN,NaN
