sub_num,trial,block,task,is_practice,category,image,texture,duration,mask_dur,jitter,stim_time,time_of_resp,trial_response,mask_time,fix_time,jit_onset,trial_end,trial_accuracy,RT
136,1,0,aesthetic,1,bathroom,bathroom_practice1.tif,221,1.5,0,1.6,1508.829918208,1512.382871833,4,NaN,1512.388701166,1512.40704975,1514.000429583,NaN,NaN
136,2,0,aesthetic,1,bathroom,bathroom_practice2.tif,222,1.5,0,1.26666666666667,1514.019543041,1517.10849125,3,NaN,1517.137812041,1517.16099175,1518.421027625,NaN,NaN
136,3,0,aesthetic,1,bathroom,bathroom_practice3.tif,223,1.5,0,1.15,1518.4408175,1521.823303333,3,NaN,1521.828905666,1521.847210416,1522.990595333,NaN,NaN
136,4,0,aesthetic,1,bathroom,bathroom_practice4.tif,224,1.5,0,1.75,1523.000145875,1526.055100791,4,NaN,1526.060680833,1526.07900825,1527.822388458,NaN,NaN
136,5,0,aesthetic,1,bathroom,bathroom_practice5.tif,225,1.5,0,0.85,1527.841684,1530.515273666,5,NaN,1530.540783208,1530.563327125,1531.406664791,NaN,NaN
136,1,1,aesthetic,0,bathroom,sun_acgyywnybuveqsro.tif,128,1.5,0,0.933333333333333,1536.714990083,1539.611263916,6,NaN,1539.640449166,1539.662511666,1540.589184375,NaN,NaN
136,2,1,aesthetic,0,bathroom,sun_ahcvzmoyaycdoftf.tif,137,1.5,0,1.18333333333333,1540.594064208,1543.058860958,5,NaN,1543.085649458,1543.109079875,1544.285792,NaN,NaN
136,3,1,aesthetic,0,bathroom,sun_ahqjwnzgolcaoidx.tif,139,1.5,0,1.56666666666667,1544.296370208,1547.279619,5,NaN,1547.285104916,1547.30354025,1548.863575833,NaN,NaN
136,4,1,aesthetic,0,bathroom,sun_ambriybtogmepttm.tif,146,1.5,0,1.38333333333333,1548.882212166,1551.751613083,5,NaN,1551.757133291,1551.775623875,1553.152342958,NaN,NaN
136,5,1,aesthetic,0,bathroom,sun_apkruvsevgegsdwp.tif,154,1.5,0,1.23333333333333,1553.170929166,1558.663312166,1,NaN,1558.66883675,1558.687382125,1559.914077041,NaN,NaN
136,6,1,aesthetic,0,bathroom,sun_apkxzenqapsujocq.tif,155,1.5,0,1.83333333333333,1559.92947425,1563.166962541,3,NaN,1563.17282625,1563.191384125,1565.0181025,NaN,NaN
136,7,1,aesthetic,0,bathroom,sun_agyqfjcfkdcydepw.tif,135,1.5,0,1.1,1565.037131125,1570.9586555,4,NaN,1570.964472625,1570.982826833,1572.076202291,NaN,NaN
136,8,1,aesthetic,0,bathroom,sun_anhioqovhscjqqwb.tif,148,1.5,0,1.71666666666667,1572.084691208,1575.886900125,4,NaN,1575.893196875,1575.911508125,1577.621555875,NaN,NaN
136,9,1,aesthetic,0,bathroom,sun_alotolagknyrgtsk.tif,145,1.5,0,1.01666666666667,1577.636065166,1580.374872833,5,NaN,1580.392876791,1580.413817833,1581.4238235,NaN,NaN
136,10,1,aesthetic,0,bathroom,sun_auzqhkafidnkrwmo.tif,164,1.5,0,1.36666666666667,1581.432433041,1584.14290375,5,NaN,1584.148599625,1584.167014833,1585.527047166,NaN,NaN
136,11,1,aesthetic,0,bathroom,sun_agguqiubmwhqqunb.tif,132,1.5,0,0.75,1585.543267,1588.670582125,3,NaN,1588.676236583,1588.694412833,1589.437750083,NaN,NaN
136,12,1,aesthetic,0,bathroom,sun_acduarbnmmoglmiv.tif,126,1.5,0,1.31666666666667,1589.443081208,1592.703341916,5,NaN,1592.708730083,1592.7271255,1594.037177041,NaN,NaN
136,13,1,aesthetic,0,bathroom,sun_aclfzgynxzxlbepz.tif,129,1.5,0,1.33333333333333,1594.054988625,1597.966618583,3,NaN,1597.972342041,1597.990707375,1599.31742125,NaN,NaN
136,14,1,aesthetic,0,bathroom,sun_axxbkopsgyouuebh.tif,168,1.5,0,1.41666666666667,1599.334783041,1602.286973,3,NaN,1602.292385458,1602.310657291,1603.720695291,NaN,NaN
136,15,1,aesthetic,0,bathroom,sun_avhrdrntsqrjzccq.tif,165,1.5,0,1.93333333333333,1603.731376166,1606.566294625,5,NaN,1606.572142541,1606.590411916,1608.517120833,NaN,NaN
136,16,1,aesthetic,0,bathroom,sun_ahijqszoswveeyji.tif,138,1.5,0,1.68333333333333,1608.535111125,1611.395941041,6,NaN,1611.425296958,1611.446980666,1613.123689791,NaN,NaN
136,17,1,aesthetic,0,bathroom,sun_atstyziqcmkahyxk.tif,161,1.5,0,0.783333333333333,1613.141484,1615.762255166,3,NaN,1615.786646208,1615.809877958,1616.586582208,NaN,NaN
136,18,1,aesthetic,0,bathroom,sun_asfwthctfqerjvxr.tif,159,1.5,0,1.93333333333333,1616.601957916,1621.582668125,3,NaN,1621.588429083,1621.606989125,1623.533683541,NaN,NaN
136,19,1,aesthetic,0,bathroom,sun_aofnryafpsjimzsb.tif,150,1.5,0,1.18333333333333,1623.549426541,1626.282263,4,NaN,1626.311391416,1626.33444475,1627.511145208,NaN,NaN
136,20,1,aesthetic,0,bathroom,sun_afcoljnjfoxjtgja.tif,130,1.5,0,1.61666666666667,1627.52134675,1631.36726675,3,NaN,1631.372783208,1631.391138708,1633.0011905,NaN,NaN
136,21,1,aesthetic,0,bathroom,sun_akiytfaagpdsphgz.tif,141,1.5,0,1.16666666666667,1633.019507916,1636.638576625,5,NaN,1636.64653,1636.664946208,1637.824983458,NaN,NaN
136,22,1,aesthetic,0,bathroom,sun_awnqiikzaispgmwo.tif,166,1.5,0,1.85,1637.83371,1640.742200791,3,NaN,1640.748182791,1640.766600958,1642.609984125,NaN,NaN
136,23,1,aesthetic,0,bathroom,sun_apjevzvycyhuqghb.tif,153,1.5,0,1.68333333333333,1642.628315708,1646.182284333,4,NaN,1646.188973333,1646.207327541,1647.884044666,NaN,NaN
136,24,1,aesthetic,0,bathroom,sun_apynckhmoftszqoq.tif,157,1.5,0,1.98333333333333,1647.903346958,1650.662731083,3,NaN,1650.692074708,1650.715131666,1652.691842041,NaN,NaN
136,25,1,aesthetic,0,bathroom,sun_aoybiabnpadelefl.tif,151,1.5,0,1.28333333333333,1652.7083035,1656.198685041,4,NaN,1656.204973125,1656.22349225,1657.500175958,NaN,NaN
136,1,2,aesthetic,0,bathroom,sun_apmqjbnwghzuhhzh.tif,156,1.5,0,0.9,1662.844087041,1666.831100875,3,NaN,1666.836692791,1666.855185958,1667.748523166,NaN,NaN
136,2,2,aesthetic,0,bathroom,sun_aapitsgbtktqubfy.tif,122,1.5,0,1.95,1667.75302975,1671.942272791,4,NaN,1671.948226791,1671.966763333,1673.910141958,NaN,NaN
136,3,2,aesthetic,0,bathroom,sun_axyrejkiiaqiurjk.tif,169,1.5,0,1,1673.92895775,1676.54612,5,NaN,1676.575048958,1676.598382291,1677.591719375,NaN,NaN
136,4,2,aesthetic,0,bathroom,sun_ahaulkltgpkeeemi.tif,136,1.5,0,0.733333333333333,1677.59647875,1681.398627541,5,NaN,1681.404199958,1681.422448541,1682.149120541,NaN,NaN
136,5,2,aesthetic,0,bathroom,sun_amzlamotzwfkwjco.tif,147,1.5,0,1.2,1682.153782458,1688.302808875,4,NaN,1688.308870375,1688.327144916,1689.520514625,NaN,NaN
136,6,2,aesthetic,0,bathroom,sun_aunuadmjocsddsrl.tif,162,1.5,0,1.21666666666667,1689.53011075,1692.711043166,3,NaN,1692.716489625,1692.734859833,1693.944898625,NaN,NaN
136,7,2,aesthetic,0,bathroom,sun_azqyogdvyhahyram.tif,170,1.5,0,0.933333333333333,1693.961651708,1697.414430208,4,NaN,1697.420068666,1697.438390208,1698.365063041,NaN,NaN
136,8,2,aesthetic,0,bathroom,sun_aqrpegblszgcoujh.tif,158,1.5,0,0.916666666666667,1698.369799125,1702.310047666,5,NaN,1702.315906541,1702.33425925,1703.244263125,NaN,NaN
136,9,2,aesthetic,0,bathroom,sun_aspsyogrekjtfozg.tif,160,1.5,0,1.1,1703.248868458,1706.046900125,6,NaN,1706.077385916,1706.100782583,1707.194147166,NaN,NaN
136,10,2,aesthetic,0,bathroom,sun_axldvoqbuvuggfmq.tif,167,1.5,0,1.16666666666667,1707.205331208,1711.89430175,4,NaN,1711.899887166,1711.918230958,1713.078262333,NaN,NaN
136,11,2,aesthetic,0,bathroom,sun_abjtwfukuwddzted.tif,125,1.5,0,0.783333333333333,1713.087032791,1715.838293,3,NaN,1715.843996708,1715.862407208,1716.639078625,NaN,NaN
136,12,2,aesthetic,0,bathroom,sun_abapwbhyhkfixyex.tif,124,1.5,0,1.95,1716.644049875,1721.525903416,4,NaN,1721.531749583,1721.550139375,1723.49350375,NaN,NaN
136,13,2,aesthetic,0,bathroom,sun_anryaplzeujmzfkd.tif,149,1.5,0,1.05,1723.5071485,1728.926155166,4,NaN,1728.931675375,1728.950031916,1729.993406,NaN,NaN
136,14,2,aesthetic,0,bathroom,sun_ausgutylgojavyoq.tif,163,1.5,0,1.03333333333333,1730.001597583,1732.741957666,2,NaN,1732.7478055,1732.766150708,1733.792867333,NaN,NaN
136,15,2,aesthetic,0,bathroom,sun_aggnnqpdorgxpvce.tif,131,1.5,0,1.45,1733.803175625,1737.502069875,5,NaN,1737.50770475,1737.525913625,1738.969291291,NaN,NaN
136,16,2,aesthetic,0,bathroom,sun_aljolscmmzydegqp.tif,143,1.5,0,0.966666666666667,1738.9873195,1741.638265083,5,NaN,1741.643754416,1741.661910291,1742.621914166,NaN,NaN
136,17,2,aesthetic,0,bathroom,sun_aghyqhbptboemmoq.tif,133,1.5,0,0.966666666666667,1742.626631708,1746.078395,4,NaN,1746.083783833,1746.102075416,1747.062081208,NaN,NaN
136,18,2,aesthetic,0,bathroom,sun_alkosphxlxwjwgjd.tif,144,1.5,0,1.2,1747.066710291,1749.835820583,5,NaN,1749.8642805,1749.887445125,1751.080820083,NaN,NaN
136,19,2,aesthetic,0,bathroom,sun_apeeialkgkuxddgh.tif,152,1.5,0,0.933333333333333,1751.091461541,1754.254415166,4,NaN,1754.259833625,1754.278152791,1755.204824666,NaN,NaN
136,20,2,aesthetic,0,bathroom,sun_aleqenyvunhactkl.tif,142,1.5,0,1.31666666666667,1755.209094291,1758.094997125,6,NaN,1758.123638708,1758.146433125,1759.456466958,NaN,NaN
136,21,2,aesthetic,0,bathroom,sun_ajlawzvmubibwbpy.tif,140,1.5,0,1.18333333333333,1759.468131958,1762.990040208,5,NaN,1762.995623166,1763.014074333,1764.190789125,NaN,NaN
136,22,2,aesthetic,0,bathroom,labelme_sfxiulhjbhlyiyt.tif,121,1.5,0,1.71666666666667,1764.202817791,1767.046589583,3,NaN,1767.052002875,1767.070376458,1768.780427166,NaN,NaN
136,23,2,aesthetic,0,bathroom,sun_aavhrsfjbserjtht.tif,123,1.5,0,1.53333333333333,1768.796653583,1771.741620208,6,NaN,1771.765389666,1771.787121083,1773.313829458,NaN,NaN
136,24,2,aesthetic,0,bathroom,sun_acegryoqftbzowsg.tif,127,1.5,0,0.933333333333333,1773.334665333,1776.1656275,5,NaN,1776.171641666,1776.189989875,1777.116662041,NaN,NaN
136,25,2,aesthetic,0,bathroom,sun_agrwbmhcpmfuwmsg.tif,134,1.5,0,0.916666666666667,1777.121285416,1780.253796791,3,NaN,1780.260335458,1780.278667708,1781.188672125,NaN,NaN
