sub_num,trial,block,task,is_practice,category,image,texture,duration,mask_dur,jitter,stim_time,time_of_resp,trial_response,mask_time,fix_time,jit_onset,trial_end,trial_accuracy,RT
128,1,0,categorization,1,kitchen,SHINEd_kitchen_practice5.tif,120,0.0666666666666667,0.0666666666666667,1.21666666666667,782.739859375,788.200100875,9,782.805626166,782.866695875,788.238159458,789.448385666,1,5.46024149999994
128,2,0,categorization,1,bathroom,SHINEd_bathroom_practice4.tif,114,0.0666666666666667,0.0666666666666667,1.36666666666667,789.509041,793.150153833,13,789.582175708,789.6413305,793.177986083,794.538185333,1,3.64111283299997
128,3,0,categorization,1,bathroom,SHINEd_bathroom_practice2.tif,112,0.0666666666666667,0.0666666666666667,1.85,794.590969291,798.150219,13,794.664816333,794.724978875,798.166783125,800.010309958,1,3.55924970900003
128,4,0,categorization,1,bathroom,SHINEd_bathroom_practice1.tif,111,0.0666666666666667,0.0666666666666667,1.55,800.037242458,800.898891666,13,800.106873875,800.170649333,800.929724,802.473283,1,0.861649208000017
128,5,0,categorization,1,bathroom,SHINEd_bathroom_practice3.tif,113,0.0666666666666667,0.0666666666666667,1.48333333333333,802.50571,806.121249916,9,802.5785955,802.639152541,806.142949125,807.620543291,0,3.61553991599999
128,6,0,categorization,1,bathroom,SHINEd_bathroom_practice5.tif,115,0.0666666666666667,0.0666666666666667,1.15,807.776175291,809.694828833,9,807.844607958,807.909493416,809.71222475,810.8557435,0,1.91865354200002
128,7,0,categorization,1,kitchen,SHINEd_kitchen_practice4.tif,119,0.0666666666666667,0.0666666666666667,0.733333333333333,810.866086375,812.414243708,9,810.933132208,810.999663208,812.442607541,813.169279458,1,1.54815733299995
128,8,0,categorization,1,kitchen,SHINEd_kitchen_practice3.tif,118,0.0666666666666667,0.0666666666666667,1.6,813.174664791,814.606573625,9,813.236434708,813.297332208,814.61644475,816.209818916,1,1.43190883399996
128,9,0,categorization,1,kitchen,SHINEd_kitchen_practice1.tif,116,0.0666666666666667,0.0666666666666667,0.716666666666667,816.230089083,818.358404666,9,816.29663575,816.362664666,818.364868333,819.074874625,1,2.1283155829999
128,10,0,categorization,1,kitchen,SHINEd_kitchen_practice2.tif,117,0.0666666666666667,0.0666666666666667,1.21666666666667,819.080413958,820.19781575,9,819.142360333,819.203091541,820.204894125,821.414928583,1,1.11740179200001
128,1,1,categorization,0,bathroom,SHINEd_sun_abapwbhyhkfixyex.tif,14,0.0666666666666667,0.0666666666666667,1.23333333333333,840.804266791,844.399929916,13,840.866405583,840.927147375,844.41663575,845.643336083,1,3.59566312499999
128,2,1,categorization,0,bathroom,SHINEd_sun_aoybiabnpadelefl.tif,41,0.0666666666666667,0.0666666666666667,0.783333333333333,845.661099708,847.038809916,9,845.727521083,845.793548166,847.069831208,847.846504791,0,1.37771020799994
128,3,1,categorization,0,kitchen,SHINEd_sun_acxkpeoqbwcxfvip.tif,77,0.0666666666666667,0.0666666666666667,0.75,847.85183925,848.854377375,9,847.913581583,847.974468291,848.860000833,849.603339916,1,1.002538125
128,4,1,categorization,0,kitchen,SHINEd_sun_ajcbwwvdlsvjyzje.tif,96,0.0666666666666667,0.0666666666666667,1.23333333333333,849.608868083,851.406275375,13,849.670762541,849.731515125,851.417023541,852.643743541,0,1.797407292
128,5,1,categorization,0,bathroom,SHINEd_sun_ahqjwnzgolcaoidx.tif,29,0.0666666666666667,0.0666666666666667,1.13333333333333,852.65895275,854.087806791,9,852.726354916,852.79114125,854.116222375,855.242947375,0,1.42885404100002
128,6,1,categorization,0,bathroom,SHINEd_sun_agguqiubmwhqqunb.tif,22,0.0666666666666667,0.0666666666666667,0.95,855.252978125,857.885853375,9,855.317752625,855.383897708,857.902768208,858.846105625,0,2.63287524999998
128,7,1,categorization,0,bathroom,SHINEd_sun_afcoljnjfoxjtgja.tif,20,0.0666666666666667,0.0666666666666667,0.733333333333333,858.850990541,860.646439625,13,858.912780666,858.973523291,860.659302791,861.385973208,1,1.79544908399998
128,8,1,categorization,0,bathroom,SHINEd_sun_ambriybtogmepttm.tif,36,0.0666666666666667,0.0666666666666667,1.31666666666667,861.390414708,864.23853075,9,861.452115291,861.513023625,864.248646875,865.558693958,0,2.84811604200002
128,9,1,categorization,0,bathroom,SHINEd_sun_aavhrsfjbserjtht.tif,13,0.0666666666666667,0.0666666666666667,0.8,865.575884625,868.126609791,13,865.643467875,865.708364541,868.144616125,868.93795475,1,2.55072516600001
128,10,1,categorization,0,bathroom,SHINEd_sun_apjevzvycyhuqghb.tif,43,0.0666666666666667,0.0666666666666667,0.716666666666667,868.943142833,871.358362291,9,869.004787666,869.065864416,871.367917083,872.077922416,0,2.41521945800002
128,11,1,categorization,0,kitchen,SHINEd_sun_ajkqhtgcbgpcwrwn.tif,97,0.0666666666666667,0.0666666666666667,0.916666666666667,872.084945291,873.381571875,9,872.1467535,872.207927625,873.393321916,874.303329041,1,1.29662658399991
128,12,1,categorization,0,bathroom,SHINEd_sun_apeeialkgkuxddgh.tif,42,0.0666666666666667,0.0666666666666667,0.95,874.308652458,877.933242,9,874.370397833,874.431309583,877.950722041,878.894062541,0,3.62458954199997
128,13,1,categorization,0,kitchen,SHINEd_sun_akchetnepxlcxhsu.tif,98,0.0666666666666667,0.0666666666666667,0.833333333333333,878.901604041,880.206086416,13,878.963243541,879.024211416,880.209760458,881.036433041,0,1.30448237499991
128,14,1,categorization,0,kitchen,SHINEd_sun_abrcnpqqhmjwekyf.tif,73,0.0666666666666667,0.0666666666666667,0.75,881.04162625,882.854276583,9,881.103280875,881.164245958,882.866965333,883.610306125,1,1.81265033299997
128,15,1,categorization,0,kitchen,SHINEd_sun_aenotlpyftoioydp.tif,82,0.0666666666666667,0.0666666666666667,1.53333333333333,883.615968708,884.558552375,9,883.67776625,883.738582833,884.573698333,886.100401333,1,0.942583667000008
128,16,1,categorization,0,kitchen,SHINEd_sun_admlmbcdswaszruo.tif,79,0.0666666666666667,0.0666666666666667,1.05,886.117239166,886.928974166,9,886.184362125,886.249680833,886.955522833,887.998888625,1,0.811734999999999
128,17,1,categorization,0,kitchen,SHINEd_sun_aunzlwrbjumxhwdj.tif,103,0.0666666666666667,0.0666666666666667,0.9,888.009413958,889.122848583,9,888.074675666,888.140486583,889.148002416,890.041345875,1,1.11343462499997
128,18,1,categorization,0,kitchen,SHINEd_sun_akcjzhbbjlbogpdi.tif,99,0.0666666666666667,0.0666666666666667,1.18333333333333,890.04681075,890.918535041,9,890.108489083,890.169383166,890.938085458,892.114808208,1,0.871724291000078
128,19,1,categorization,0,kitchen,SHINEd_sun_abpwyqmlzafvklqo.tif,72,0.0666666666666667,0.0666666666666667,0.9,892.123761833,893.111399958,9,892.190572666,892.256252333,893.12841125,894.021801833,1,0.987638124999989
128,20,1,categorization,0,bathroom,SHINEd_sun_aunuadmjocsddsrl.tif,52,0.0666666666666667,0.0666666666666667,1.66666666666667,894.02933125,895.318519333,9,894.091214041,894.151930041,895.337280041,896.997334416,0,1.289188083
128,21,1,categorization,0,kitchen,SHINEd_labelme_kxvouciolcpqplr.tif,62,0.0666666666666667,0.0666666666666667,1.13333333333333,897.0141055,897.790079458,9,897.080498458,897.146335875,897.819468041,898.946189666,1,0.775973958000009
128,22,1,categorization,0,kitchen,SHINEd_labelme_rykdqxenmhulbdn.tif,63,0.0666666666666667,0.0666666666666667,1.3,898.955561416,899.855620291,9,899.020661166,899.087974375,899.877899833,901.171283625,1,0.900058875000013
128,23,1,categorization,0,bathroom,SHINEd_sun_asfwthctfqerjvxr.tif,49,0.0666666666666667,0.0666666666666667,1.93333333333333,901.188922,902.422087916,13,901.2540265,901.320104041,902.444641,904.371348291,1,1.23316591599996
128,24,1,categorization,0,bathroom,SHINEd_sun_axldvoqbuvuggfmq.tif,57,0.0666666666666667,0.0666666666666667,1,904.388437791,905.407760333,13,904.455250541,904.520934666,905.426932708,906.420273333,1,1.01932254200005
128,25,1,categorization,0,bathroom,SHINEd_sun_abjtwfukuwddzted.tif,15,0.0666666666666667,0.0666666666666667,0.883333333333333,906.426145958,907.277628916,13,906.487866958,906.548723791,907.28384325,908.160516458,1,0.85148295800002
128,26,1,categorization,0,bathroom,SHINEd_sun_axxbkopsgyouuebh.tif,58,0.0666666666666667,0.0666666666666667,1.95,908.167140625,908.917666,13,908.228874208,908.289684,908.925192458,910.868586333,1,0.750525375000052
128,27,1,categorization,0,bathroom,SHINEd_sun_agrwbmhcpmfuwmsg.tif,24,0.0666666666666667,0.0666666666666667,1.25,910.886525875,911.961272708,13,910.953011833,911.01890225,911.974654791,913.21803025,1,1.07474683300006
128,28,1,categorization,0,bathroom,SHINEd_sun_aqrpegblszgcoujh.tif,48,0.0666666666666667,0.0666666666666667,1.95,913.227816125,914.063955208,13,913.292890791,913.3550025,914.07665175,916.020035458,1,0.836139083000035
128,29,1,categorization,0,kitchen,SHINEd_sun_abdenxonkemggwsq.tif,69,0.0666666666666667,0.0666666666666667,1.91666666666667,916.036522458,917.00055225,13,916.103353166,916.167397458,917.023946041,918.933981125,0,0.964029792000019
128,30,1,categorization,0,bathroom,SHINEd_sun_aapitsgbtktqubfy.tif,12,0.0666666666666667,0.0666666666666667,1.41666666666667,918.952699375,919.842439,13,919.0194805,919.085665,919.857860625,921.267890333,1,0.889739625000061
128,31,1,categorization,0,bathroom,SHINEd_sun_agyqfjcfkdcydepw.tif,25,0.0666666666666667,0.0666666666666667,0.716666666666667,921.278194708,922.562230875,9,921.344585708,921.409742916,922.585405833,923.295411541,0,1.28403616699995
128,32,1,categorization,0,bathroom,SHINEd_sun_aofnryafpsjimzsb.tif,40,0.0666666666666667,0.0666666666666667,1.28333333333333,923.300807583,924.7898605,13,923.362591333,923.423375291,924.80939425,926.086101208,1,1.48905291699998
128,33,1,categorization,0,kitchen,SHINEd_sun_ahpczsiumwwocjkv.tif,92,0.0666666666666667,0.0666666666666667,0.9,926.103509458,928.158262083,9,926.170402958,926.235619375,928.171432,929.064772125,1,2.05475262499999
128,34,1,categorization,0,bathroom,SHINEd_sun_aggnnqpdorgxpvce.tif,21,0.0666666666666667,0.0666666666666667,0.8,929.070429541,930.101501708,9,929.132263208,929.193054,930.112380375,930.905720583,0,1.03107216700005
128,35,1,categorization,0,kitchen,SHINEd_sun_auaiucuqpdausiva.tif,102,0.0666666666666667,0.0666666666666667,1.01666666666667,930.9112515,931.90175825,13,930.972808458,931.033794875,931.919458125,932.929507416,0,0.990506749999895
128,36,1,categorization,0,bathroom,SHINEd_sun_aclfzgynxzxlbepz.tif,19,0.0666666666666667,0.0666666666666667,0.85,932.937662125,933.784347458,13,933.002136458,933.068164958,933.807475375,934.650852375,1,0.846685332999982
128,37,1,categorization,0,bathroom,SHINEd_sun_apynckhmoftszqoq.tif,47,0.0666666666666667,0.0666666666666667,1.51666666666667,934.664011958,936.086210166,13,934.730507708,934.796237791,936.098973166,937.609030625,1,1.42219820800005
128,38,1,categorization,0,kitchen,SHINEd_sun_amjjdeyrggfqgmom.tif,100,0.0666666666666667,0.0666666666666667,1.83333333333333,937.626747625,939.414286708,9,937.694584625,937.759193916,939.428279916,941.254972375,1,1.78753908299996
128,39,1,categorization,0,bathroom,SHINEd_sun_apkxzenqapsujocq.tif,45,0.0666666666666667,0.0666666666666667,0.716666666666667,941.264109791,942.613411125,13,941.329642666,941.394609416,942.630680125,943.340685083,1,1.34930133399996
128,40,1,categorization,0,kitchen,SHINEd_sun_aadbddgrdsjugojn.tif,64,0.0666666666666667,0.0666666666666667,0.9,943.345118791,944.413510125,9,943.406886458,943.467798166,944.419632166,945.312970125,1,1.06839133400001
128,41,1,categorization,0,kitchen,SHINEd_sun_aegoxogugdkwpmpj.tif,80,0.0666666666666667,0.0666666666666667,0.916666666666667,945.317725916,946.438181666,9,945.379389583,945.440344208,946.442140208,947.352143916,1,1.12045575000002
128,42,1,categorization,0,kitchen,SHINEd_sun_avszsnwsbuqfgzbn.tif,105,0.0666666666666667,0.0666666666666667,0.816666666666667,947.35676975,948.229379083,9,947.418495125,947.47946375,948.247882958,949.057888333,1,0.872609333000014
128,43,1,categorization,0,kitchen,SHINEd_sun_ahywdevtimnqcsln.tif,94,0.0666666666666667,0.0666666666666667,1.88333333333333,949.063142,949.989589416,9,949.124771375,949.185826125,950.004861375,951.881567958,1,0.926447415999974
128,44,1,categorization,0,kitchen,SHINEd_sun_agzzivivdpnawacl.tif,89,0.0666666666666667,0.0666666666666667,0.9,951.898285541,952.549708,9,951.96452,952.030419291,952.569521791,953.462859541,1,0.651422459000059
128,45,1,categorization,0,bathroom,SHINEd_sun_ahaulkltgpkeeemi.tif,26,0.0666666666666667,0.0666666666666667,1,953.467691833,954.501406958,9,953.529378958,953.590313791,954.509037583,955.502375416,0,1.03371512499996
128,46,1,categorization,0,kitchen,SHINEd_sun_aarfiyshqohlwkmo.tif,67,0.0666666666666667,0.0666666666666667,0.733333333333333,955.507619333,957.045967958,9,955.569278083,955.630279791,957.066362625,957.793036541,1,1.53834862500003
128,47,1,categorization,0,kitchen,SHINEd_sun_ahdycvpopffkzzsu.tif,90,0.0666666666666667,0.0666666666666667,0.883333333333333,957.798717,958.837620625,9,957.860741208,957.921377875,958.856530416,959.733201625,1,1.03890362499999
128,48,1,categorization,0,kitchen,SHINEd_sun_aggjlwcdjsjcaemh.tif,86,0.0666666666666667,0.0666666666666667,1.73333333333333,959.738413,961.053743583,9,959.800132541,959.861054291,961.062984333,962.789712208,1,1.31533058299999
128,49,1,categorization,0,kitchen,SHINEd_sun_acwjdupvyjsugpay.tif,76,0.0666666666666667,0.0666666666666667,1.91666666666667,962.805653,963.606523916,9,962.87258525,962.938261833,963.627003416,965.537058375,1,0.800870916000008
128,50,1,categorization,0,bathroom,SHINEd_sun_aleqenyvunhactkl.tif,32,0.0666666666666667,0.0666666666666667,1.35,965.553950333,966.533086708,13,965.620746583,965.686626416,966.559287291,967.902645625,1,0.979136375000053
128,1,2,categorization,0,kitchen,SHINEd_sun_ahspylgoovwmwvgk.tif,93,0.0666666666666667,0.0666666666666667,0.95,980.186550916,981.237671625,9,980.249145375,980.30924275,981.244419041,982.187757166,1,1.05112070899997
128,2,2,categorization,0,kitchen,SHINEd_sun_aamedkxepzlwuxes.tif,65,0.0666666666666667,0.0666666666666667,0.75,982.192509625,982.917256583,9,982.254250708,982.315246625,982.933702708,983.677041916,1,0.724746958000082
128,3,2,categorization,0,bathroom,SHINEd_sun_anhioqovhscjqqwb.tif,38,0.0666666666666667,0.0666666666666667,1.68333333333333,983.682146125,984.309314916,13,983.743863625,983.804743791,984.323284166,985.999984833,1,0.627168790999917
128,4,2,categorization,0,bathroom,SHINEd_sun_aljolscmmzydegqp.tif,33,0.0666666666666667,0.0666666666666667,0.816666666666667,986.019273833,988.853127458,13,986.085747625,986.152118791,988.871298,989.68130275,1,2.83385362499996
128,5,2,categorization,0,bathroom,SHINEd_sun_acgyywnybuveqsro.tif,18,0.0666666666666667,0.0666666666666667,0.916666666666667,989.686183166,990.365950083,13,989.747952166,989.808801916,990.377208125,991.287212875,1,0.679766917000052
128,6,2,categorization,0,kitchen,SHINEd_sun_azmutvzbxypaceni.tif,110,0.0666666666666667,0.0666666666666667,1.21666666666667,991.291845291,992.093235833,9,991.353590833,991.41457275,992.099615208,993.309672458,1,0.801390542000036
128,7,2,categorization,0,bathroom,SHINEd_sun_aghyqhbptboemmoq.tif,23,0.0666666666666667,0.0666666666666667,0.9,993.320159333,994.0021575,13,993.38490325,993.452769958,994.026146416,994.919523625,1,0.681998166999961
128,8,2,categorization,0,kitchen,SHINEd_labelme_brsyyvweiuaazfr.tif,61,0.0666666666666667,0.0666666666666667,1.65,994.93564825,996.005353125,13,995.002037125,995.06798325,996.020427125,997.663793291,0,1.06970487500007
128,9,2,categorization,0,kitchen,SHINEd_sun_ahljzhgcdpomplvg.tif,91,0.0666666666666667,0.0666666666666667,1.15,997.679927666,998.448217083,9,997.746372,997.8132625,998.469349416,999.612724875,1,0.768289417000005
128,10,2,categorization,0,kitchen,SHINEd_sun_adgqasybjyktddhj.tif,78,0.0666666666666667,0.0666666666666667,1.13333333333333,999.621488833,1000.490403791,9,999.687727291,999.754643875,1000.51140175,1001.63810725,1,0.868914958000005
128,11,2,categorization,0,bathroom,SHINEd_sun_acduarbnmmoglmiv.tif,16,0.0666666666666667,0.0666666666666667,1.76666666666667,1001.647525833,1003.063674416,9,1001.7142045,1001.779773166,1003.088604958,1004.848661541,0,1.41614858299999
128,12,2,categorization,0,kitchen,SHINEd_sun_aixorpehvfykdynp.tif,95,0.0666666666666667,0.0666666666666667,1.8,1004.866806833,1005.606470708,9,1004.9334895,1004.999652458,1005.622713916,1007.416099541,1,0.739663874999906
128,13,2,categorization,0,bathroom,SHINEd_sun_apkruvsevgegsdwp.tif,44,0.0666666666666667,0.0666666666666667,0.9,1007.42985825,1008.305944333,13,1007.496920708,1007.56216925,1008.316685916,1009.210024333,1,0.876086082999905
128,14,2,categorization,0,kitchen,SHINEd_sun_aaxxjlsuzvqlgylf.tif,68,0.0666666666666667,0.0666666666666667,0.716666666666667,1009.21501775,1009.837131083,9,1009.276772708,1009.337840916,1009.85656575,1010.566572458,1,0.622113333000016
128,15,2,categorization,0,bathroom,SHINEd_sun_atstyziqcmkahyxk.tif,51,0.0666666666666667,0.0666666666666667,1.36666666666667,1010.572074,1011.253226166,13,1010.633772708,1010.694708791,1011.263218666,1012.623255916,1,0.681152165999947
128,16,2,categorization,0,bathroom,SHINEd_sun_ajlawzvmubibwbpy.tif,30,0.0666666666666667,0.0666666666666667,0.916666666666667,1012.637007541,1013.22578325,9,1012.703487708,1012.7696285,1013.240785916,1014.150820083,0,0.588775708999947
128,17,2,categorization,0,bathroom,SHINEd_sun_ausgutylgojavyoq.tif,53,0.0666666666666667,0.0666666666666667,0.716666666666667,1014.169323083,1014.877099583,13,1014.235719,1014.294902625,1014.880182083,1015.590185791,1,0.707776500000023
128,18,2,categorization,0,bathroom,SHINEd_sun_ahcvzmoyaycdoftf.tif,27,0.0666666666666667,0.0666666666666667,0.766666666666667,1015.5949965,1016.765735333,9,1015.656619666,1015.717653708,1016.770026333,1017.530030916,0,1.17073883299997
128,19,2,categorization,0,kitchen,SHINEd_sun_aexklacwqwezaorf.tif,84,0.0666666666666667,0.0666666666666667,1.06666666666667,1017.534609583,1018.9814315,9,1017.59643375,1017.657230708,1018.992659583,1020.052699291,1,1.44682191699997
128,20,2,categorization,0,bathroom,SHINEd_sun_anryaplzeujmzfkd.tif,39,0.0666666666666667,0.0666666666666667,0.8,1020.061067333,1020.958979666,13,1020.125703083,1020.192133333,1020.981528,1021.774921041,1,0.897912333000022
128,21,2,categorization,0,bathroom,SHINEd_sun_alkosphxlxwjwgjd.tif,34,0.0666666666666667,0.0666666666666667,0.866666666666667,1021.791291916,1023.013213583,13,1021.858209291,1021.923578208,1023.026323041,1023.886327083,1,1.22192166700006
128,22,2,categorization,0,bathroom,SHINEd_sun_avhrdrntsqrjzccq.tif,55,0.0666666666666667,0.0666666666666667,1.48333333333333,1023.891000166,1024.781835333,9,1023.952737125,1024.013785416,1024.798865208,1026.275579458,0,0.890835166999864
128,23,2,categorization,0,bathroom,SHINEd_sun_awnqiikzaispgmwo.tif,56,0.0666666666666667,0.0666666666666667,1.1,1026.293011333,1026.998819875,13,1026.35987275,1026.42544,1027.014524916,1028.107909916,1,0.705808541999886
128,24,2,categorization,0,kitchen,SHINEd_sun_aapllqyqlykszopd.tif,66,0.0666666666666667,0.0666666666666667,0.783333333333333,1028.117169125,1029.881720833,13,1028.182174083,1028.249401958,1029.909995083,1030.686667416,0,1.764551708
128,25,2,categorization,0,kitchen,SHINEd_sun_agorklincwxrdtga.tif,87,0.0666666666666667,0.0666666666666667,0.866666666666667,1030.691295875,1031.301808916,9,1030.752988625,1030.814088375,1031.315944666,1032.175949708,1,0.610513041000104
128,26,2,categorization,0,kitchen,SHINEd_sun_agubuxuukhzyzpdp.tif,88,0.0666666666666667,0.0666666666666667,1.83333333333333,1032.180758583,1033.173534458,9,1032.242676875,1032.303328291,1033.188696375,1035.01541975,1,0.992775875000007
128,27,2,categorization,0,kitchen,SHINEd_sun_acgtpgfybqjmzeyw.tif,75,0.0666666666666667,0.0666666666666667,0.7,1035.029765083,1035.834900333,9,1035.097316833,1035.162122166,1035.850211583,1036.543552333,1,0.805135249999921
128,28,2,categorization,0,bathroom,SHINEd_sun_acegryoqftbzowsg.tif,17,0.0666666666666667,0.0666666666666667,1.33333333333333,1036.548365291,1037.389074,9,1036.610144875,1036.670979833,1037.406054291,1038.732768416,0,0.840708708999955
128,29,2,categorization,0,kitchen,SHINEd_sun_aehawpgmrlhlvcow.tif,81,0.0666666666666667,0.0666666666666667,1.33333333333333,1038.750002708,1039.616178,9,1038.816868041,1038.882488041,1039.639260083,1040.965974291,1,0.86617529199998
128,30,2,categorization,0,kitchen,SHINEd_sun_abftihopvusyfakt.tif,71,0.0666666666666667,0.0666666666666667,1.38333333333333,1040.986951166,1042.002657541,9,1041.054441083,1041.119035208,1042.025605041,1043.402305875,1,1.01570637500004
128,31,2,categorization,0,bathroom,SHINEd_sun_alotolagknyrgtsk.tif,35,0.0666666666666667,0.0666666666666667,1.25,1043.413104875,1044.518636041,9,1043.479662541,1043.545286083,1044.534271333,1045.777661708,0,1.10553116599999
128,32,2,categorization,0,bathroom,SHINEd_sun_auzqhkafidnkrwmo.tif,54,0.0666666666666667,0.0666666666666667,1.55,1045.793754458,1046.545914125,13,1045.861217166,1045.92660075,1046.566415833,1048.109799791,1,0.752159667000114
128,33,2,categorization,0,bathroom,SHINEd_sun_aspsyogrekjtfozg.tif,50,0.0666666666666667,0.0666666666666667,1.61666666666667,1048.122846958,1048.929066833,9,1048.1899775,1048.255278291,1048.945059208,1050.555107,0,0.806219874999897
128,34,2,categorization,0,kitchen,SHINEd_sun_awcpdzzznmweyyhv.tif,106,0.0666666666666667,0.0666666666666667,1.33333333333333,1050.571962666,1051.481710875,9,1050.639258958,1050.704764583,1051.494044458,1052.820762833,1,0.909748209000099
128,35,2,categorization,0,kitchen,SHINEd_sun_aymvwlarqodbwuoc.tif,108,0.0666666666666667,0.0666666666666667,0.833333333333333,1052.838009041,1053.726720291,9,1052.904476708,1052.970603583,1053.743354958,1054.570031458,1,0.888711249999915
128,36,2,categorization,0,bathroom,SHINEd_labelme_sfxiulhjbhlyiyt.tif,11,0.0666666666666667,0.0666666666666667,1.45,1054.576149375,1055.765189333,9,1054.637868708,1054.698834458,1055.784104791,1057.227474083,0,1.18903995799997
128,37,2,categorization,0,kitchen,SHINEd_sun_aypmqwcualkenuoe.tif,109,0.0666666666666667,0.0666666666666667,0.933333333333333,1057.237886375,1058.0702315,13,1057.303602791,1057.368812291,1058.091891416,1059.018566541,0,0.832345125000074
128,38,2,categorization,0,bathroom,SHINEd_sun_azqyogdvyhahyram.tif,60,0.0666666666666667,0.0666666666666667,1.65,1059.023241666,1059.885705708,13,1059.085029708,1059.145822208,1059.89779475,1061.541185291,1,0.862464041999829
128,39,2,categorization,0,bathroom,SHINEd_sun_axyrejkiiaqiurjk.tif,59,0.0666666666666667,0.0666666666666667,1.23333333333333,1061.558869125,1062.359054583,9,1061.626047625,1061.69111275,1062.381167208,1063.607872541,0,0.800185457999987
128,40,2,categorization,0,kitchen,SHINEd_sun_aeqdocilnnpuvuhx.tif,83,0.0666666666666667,0.0666666666666667,0.766666666666667,1063.622377125,1065.064744458,9,1063.689371041,1063.7552275,1065.079693333,1065.839697208,1,1.44236733299999
128,41,2,categorization,0,kitchen,SHINEd_sun_afuyedyxivkhecmu.tif,85,0.0666666666666667,0.0666666666666667,1.78333333333333,1065.844565333,1066.509535625,9,1065.906268333,1065.967299625,1066.519022375,1068.295729125,1,0.664970291999907
128,42,2,categorization,0,kitchen,SHINEd_sun_auticobqsbwgoppi.tif,104,0.0666666666666667,0.0666666666666667,1.11666666666667,1068.30938225,1069.046126083,9,1068.37598625,1068.442026291,1069.064750416,1070.174792958,1,0.736743832999991
128,43,2,categorization,0,bathroom,SHINEd_sun_amzlamotzwfkwjco.tif,37,0.0666666666666667,0.0666666666666667,1.85,1070.183718958,1071.167173625,9,1070.248679541,1070.316733458,1071.190277,1073.033647041,0,0.983454666999933
128,44,2,categorization,0,kitchen,SHINEd_sun_acfmftudsenhrfhy.tif,74,0.0666666666666667,0.0666666666666667,0.733333333333333,1073.052082083,1073.9698795,9,1073.118509833,1073.184339916,1073.991347791,1074.71802,1,0.917797416999974
128,45,2,categorization,0,bathroom,SHINEd_sun_ahijqszoswveeyji.tif,28,0.0666666666666667,0.0666666666666667,0.783333333333333,1074.723555041,1075.429188083,9,1074.785387208,1074.8462065,1075.447937958,1076.224609041,0,0.705633042000045
128,46,2,categorization,0,kitchen,SHINEd_sun_abdxkyyxwfskuaqb.tif,70,0.0666666666666667,0.0666666666666667,1.5,1076.229260416,1078.725101791,13,1076.290819458,1076.351828583,1078.73736675,1080.230735791,0,2.49584137500005
128,47,2,categorization,0,kitchen,SHINEd_sun_axyyrmzcupyhlivc.tif,107,0.0666666666666667,0.0666666666666667,0.733333333333333,1080.2488455,1081.162011833,9,1080.317477791,1080.38181225,1081.188148041,1081.9148225,1,0.913166332999936
128,48,2,categorization,0,bathroom,SHINEd_sun_apmqjbnwghzuhhzh.tif,46,0.0666666666666667,0.0666666666666667,1.1,1081.920785375,1082.821248916,13,1081.9824425,1082.043478333,1082.828713541,1083.922082375,1,0.900463541000136
128,49,2,categorization,0,bathroom,SHINEd_sun_akiytfaagpdsphgz.tif,31,0.0666666666666667,0.0666666666666667,1.6,1083.931764833,1084.927600708,9,1083.996858375,1084.064053958,1084.953308875,1086.546678875,0,0.995835875000012
128,50,2,categorization,0,kitchen,SHINEd_sun_aqeaevwwwjoqhzvl.tif,101,0.0666666666666667,0.0666666666666667,1.06666666666667,1086.565648375,1087.449364458,9,1086.631737583,1086.698194583,1087.470537333,1088.530578625,1,0.883716083000081
128,1,3,categorization,0,kitchen,SHINEd_sun_aqeaevwwwjoqhzvl.tif,101,0.0666666666666667,0.0666666666666667,0.85,1098.653382791,1099.605305041,13,1098.715875333,1098.776097916,1099.611435208,1100.454773958,0,0.951922250000052
128,2,3,categorization,0,kitchen,SHINEd_sun_ahdycvpopffkzzsu.tif,90,0.0666666666666667,0.0666666666666667,1.65,1100.460341541,1101.061588375,9,1100.521969791,1100.583045125,1101.068202291,1102.711579958,1,0.601246833999994
128,3,3,categorization,0,bathroom,SHINEd_sun_apeeialkgkuxddgh.tif,42,0.0666666666666667,0.0666666666666667,0.783333333333333,1102.729735625,1103.642016791,13,1102.79624325,1102.862117041,1103.668670458,1104.445342791,1,0.912281165999957
128,4,3,categorization,0,kitchen,SHINEd_sun_akcjzhbbjlbogpdi.tif,99,0.0666666666666667,0.0666666666666667,0.933333333333333,1104.451146625,1105.093257208,9,1104.512881208,1104.573848625,1105.109495916,1106.036167666,1,0.642110582999976
128,5,3,categorization,0,kitchen,SHINEd_sun_aadbddgrdsjugojn.tif,64,0.0666666666666667,0.0666666666666667,0.866666666666667,1106.041044875,1106.941366208,9,1106.102719375,1106.163658625,1106.948969666,1107.808975208,1,0.900321333000193
128,6,3,categorization,0,bathroom,SHINEd_sun_amzlamotzwfkwjco.tif,37,0.0666666666666667,0.0666666666666667,1.11666666666667,1107.814262666,1108.7574925,9,1107.875908708,1107.936907916,1108.772024583,1109.882068333,0,0.943229833999794
128,7,3,categorization,0,kitchen,SHINEd_sun_abrcnpqqhmjwekyf.tif,73,0.0666666666666667,0.0666666666666667,0.966666666666667,1109.890785541,1110.864663208,9,1109.955523416,1110.023146916,1110.878286375,1111.838331333,1,0.973877666999897
128,8,3,categorization,0,kitchen,SHINEd_sun_aaxxjlsuzvqlgylf.tif,68,0.0666666666666667,0.0666666666666667,1.78333333333333,1111.850381125,1112.580818791,9,1111.913002416,1111.972923666,1112.591492708,1114.368208083,1,0.730437665999943
128,9,3,categorization,0,kitchen,SHINEd_sun_acwjdupvyjsugpay.tif,76,0.0666666666666667,0.0666666666666667,1.55,1114.385419333,1115.030949916,9,1114.452202583,1114.517907625,1115.057582625,1116.600962375,1,0.645530582999982
128,10,3,categorization,0,kitchen,SHINEd_sun_aegoxogugdkwpmpj.tif,80,0.0666666666666667,0.0666666666666667,1.41666666666667,1116.617250875,1117.352584916,9,1116.684035125,1116.750249333,1117.372331333,1118.782381583,1,0.735334040999987
128,11,3,categorization,0,kitchen,SHINEd_sun_auaiucuqpdausiva.tif,102,0.0666666666666667,0.0666666666666667,0.8,1118.802025125,1119.824953208,9,1118.869111791,1118.9348425,1119.841188,1120.634527833,1,1.0229280829999
128,12,3,categorization,0,kitchen,SHINEd_sun_adgqasybjyktddhj.tif,78,0.0666666666666667,0.0666666666666667,1.28333333333333,1120.640358958,1121.316783833,9,1120.702142791,1120.763024958,1121.331516083,1122.608241833,1,0.676424875000066
128,13,3,categorization,0,bathroom,SHINEd_sun_agyqfjcfkdcydepw.tif,25,0.0666666666666667,0.0666666666666667,1.66666666666667,1122.625842083,1123.876658333,9,1122.692111708,1122.7583105,1123.900814708,1125.560852833,0,1.25081625000007
128,14,3,categorization,0,bathroom,SHINEd_sun_ahqjwnzgolcaoidx.tif,29,0.0666666666666667,0.0666666666666667,1.81666666666667,1125.577437833,1126.204946958,13,1125.643811291,1125.710006375,1126.233159666,1128.043214833,1,0.62750912499996
128,15,3,categorization,0,bathroom,SHINEd_sun_ahijqszoswveeyji.tif,28,0.0666666666666667,0.0666666666666667,1.35,1128.059665458,1128.848943625,13,1128.126112,1128.192362916,1128.865360625,1130.208730083,1,0.78927816700002
128,16,3,categorization,0,bathroom,SHINEd_sun_ausgutylgojavyoq.tif,53,0.0666666666666667,0.0666666666666667,0.916666666666667,1130.221492875,1130.797454375,13,1130.288260916,1130.354381416,1130.827384208,1131.737433625,1,0.575961499999949
128,17,3,categorization,0,kitchen,SHINEd_sun_ajcbwwvdlsvjyzje.tif,96,0.0666666666666667,0.0666666666666667,0.916666666666667,1131.752789083,1132.605095791,9,1131.819741666,1131.885340083,1132.621177416,1133.531181833,1,0.852306708000015
128,18,3,categorization,0,kitchen,SHINEd_sun_abftihopvusyfakt.tif,71,0.0666666666666667,0.0666666666666667,1.31666666666667,1133.53620275,1134.716960708,9,1133.598028208,1133.658962666,1134.727758458,1136.03781175,1,1.18075795799996
128,19,3,categorization,0,kitchen,SHINEd_sun_abdxkyyxwfskuaqb.tif,70,0.0666666666666667,0.0666666666666667,1.45,1136.0536245,1137.192957708,13,1136.12023775,1136.186352166,1137.207825666,1138.65119225,0,1.13933320799993
128,20,3,categorization,0,bathroom,SHINEd_sun_awnqiikzaispgmwo.tif,56,0.0666666666666667,0.0666666666666667,0.95,1138.669966708,1139.512906666,9,1138.73674225,1138.802630875,1139.542657083,1140.485996625,0,0.842939957999988
128,21,3,categorization,0,bathroom,SHINEd_sun_abjtwfukuwddzted.tif,15,0.0666666666666667,0.0666666666666667,1.38333333333333,1140.491460666,1141.788681416,9,1140.553171833,1140.614320291,1141.799865916,1143.176573833,0,1.29722074999995
128,22,3,categorization,0,bathroom,SHINEd_sun_abapwbhyhkfixyex.tif,14,0.0666666666666667,0.0666666666666667,1.16666666666667,1143.193871958,1143.911472208,13,1143.258469375,1143.325831916,1143.932234875,1145.092287708,1,0.717600250000032
128,23,3,categorization,0,kitchen,SHINEd_sun_acgtpgfybqjmzeyw.tif,75,0.0666666666666667,0.0666666666666667,1.61666666666667,1145.103083041,1145.695717333,9,1145.169701916,1145.234145208,1145.72421225,1147.334250166,1,0.592634291999957
128,24,3,categorization,0,kitchen,SHINEd_sun_azmutvzbxypaceni.tif,110,0.0666666666666667,0.0666666666666667,1.38333333333333,1147.348336958,1148.277365166,13,1147.415553916,1147.48079675,1148.303901333,1149.680618541,0,0.929028208000091
128,25,3,categorization,0,bathroom,SHINEd_sun_avhrdrntsqrjzccq.tif,55,0.0666666666666667,0.0666666666666667,1.78333333333333,1149.697633,1151.893174666,9,1149.763822291,1149.829797958,1151.899284166,1153.675987916,0,2.19554166600005
128,26,3,categorization,0,kitchen,SHINEd_sun_auticobqsbwgoppi.tif,104,0.0666666666666667,0.0666666666666667,0.783333333333333,1153.692682375,1154.538451416,9,1153.759396541,1153.82549375,1154.565512291,1155.342186375,1,0.84576904100004
128,27,3,categorization,0,bathroom,SHINEd_sun_aclfzgynxzxlbepz.tif,19,0.0666666666666667,0.0666666666666667,1.65,1155.347051541,1155.996916458,13,1155.408946083,1155.469732458,1156.005317791,1157.648684708,1,0.649864917000059
128,28,3,categorization,0,bathroom,SHINEd_sun_aunuadmjocsddsrl.tif,52,0.0666666666666667,0.0666666666666667,1.86666666666667,1157.668029291,1158.51021675,9,1157.734418583,1157.800531083,1158.540418958,1160.400454541,0,0.842187458999888
128,29,3,categorization,0,kitchen,SHINEd_sun_agzzivivdpnawacl.tif,89,0.0666666666666667,0.0666666666666667,1.23333333333333,1160.418315916,1164.081658083,9,1160.485155958,1160.550893708,1164.103589791,1165.330294333,1,3.66334216700011
128,30,3,categorization,0,kitchen,SHINEd_sun_aunzlwrbjumxhwdj.tif,103,0.0666666666666667,0.0666666666666667,0.7,1165.340531125,1167.244997875,13,1165.405528208,1165.473202125,1167.259032958,1167.952371666,0,1.90446674999998
128,31,3,categorization,0,kitchen,SHINEd_sun_avszsnwsbuqfgzbn.tif,105,0.0666666666666667,0.0666666666666667,0.716666666666667,1167.957158458,1169.516591458,9,1168.018998625,1168.079753833,1169.53213625,1170.242143083,1,1.5594329999999
128,32,3,categorization,0,bathroom,SHINEd_sun_afcoljnjfoxjtgja.tif,20,0.0666666666666667,0.0666666666666667,1.05,1170.24726875,1174.581583291,9,1170.309011791,1170.369961458,1174.598109291,1175.641475875,0,4.33431454099991
128,33,3,categorization,0,kitchen,SHINEd_sun_admlmbcdswaszruo.tif,79,0.0666666666666667,0.0666666666666667,1.1,1175.651163416,1179.631544291,13,1175.7161155,1175.782347333,1179.651262583,1180.744628541,0,3.98038087500004
128,34,3,categorization,0,bathroom,SHINEd_labelme_sfxiulhjbhlyiyt.tif,11,0.0666666666666667,0.0666666666666667,1.13333333333333,1180.752164583,1181.442214833,9,1180.8167235,1180.884584916,1181.457146208,1182.58386375,0,0.690050250000013
128,35,3,categorization,0,bathroom,SHINEd_sun_acgyywnybuveqsro.tif,18,0.0666666666666667,0.0666666666666667,1.38333333333333,1182.601450916,1183.452654833,9,1182.66774775,1182.732145166,1183.467529791,1184.844232666,0,0.851203917000021
128,36,3,categorization,0,kitchen,SHINEd_sun_ahljzhgcdpomplvg.tif,91,0.0666666666666667,0.0666666666666667,1.5,1184.861759333,1185.717275666,9,1184.9281015,1184.994145916,1185.733178833,1187.22657125,1,0.855516332999969
128,37,3,categorization,0,kitchen,SHINEd_sun_agubuxuukhzyzpdp.tif,88,0.0666666666666667,0.0666666666666667,1.61666666666667,1187.236227041,1188.37516125,9,1187.30102725,1187.3630175,1188.402751,1190.0128015,1,1.13893420900013
128,38,3,categorization,0,bathroom,SHINEd_sun_ambriybtogmepttm.tif,36,0.0666666666666667,0.0666666666666667,0.983333333333333,1190.029301625,1190.9607645,9,1190.095902208,1190.1615515,1190.984705875,1191.961379791,0,0.931462875000079
128,39,3,categorization,0,bathroom,SHINEd_sun_acduarbnmmoglmiv.tif,16,0.0666666666666667,0.0666666666666667,1.3,1191.967158125,1195.514335041,13,1192.028914541,1192.089773916,1195.530814125,1196.824188375,1,3.54717691600013
128,40,3,categorization,0,bathroom,SHINEd_sun_asfwthctfqerjvxr.tif,49,0.0666666666666667,0.0666666666666667,1.03333333333333,1196.842205416,1197.694836,13,1196.908471041,1196.974741541,1197.713998333,1198.74071,1,0.852630583999826
128,41,3,categorization,0,bathroom,SHINEd_sun_auzqhkafidnkrwmo.tif,54,0.0666666666666667,0.0666666666666667,1.45,1198.750471125,1199.548216166,13,1198.815279041,1198.881633791,1199.571675125,1201.0150495,1,0.797745040999871
128,42,3,categorization,0,kitchen,SHINEd_sun_ahspylgoovwmwvgk.tif,93,0.0666666666666667,0.0666666666666667,1.23333333333333,1201.03163425,1201.760768833,9,1201.098303416,1201.164078,1201.787080333,1203.013794958,1,0.729134582999905
128,43,3,categorization,0,kitchen,SHINEd_labelme_brsyyvweiuaazfr.tif,61,0.0666666666666667,0.0666666666666667,1.26666666666667,1203.030107041,1203.928840041,9,1203.096125875,1203.162056208,1203.952181375,1205.212227041,1,0.898732999999993
128,44,3,categorization,0,bathroom,SHINEd_sun_acegryoqftbzowsg.tif,17,0.0666666666666667,0.0666666666666667,1.03333333333333,1205.222027083,1205.972170125,13,1205.286448791,1205.351253791,1205.990651541,1207.017360958,1,0.750143041999991
128,45,3,categorization,0,kitchen,SHINEd_sun_aeqdocilnnpuvuhx.tif,83,0.0666666666666667,0.0666666666666667,1.31666666666667,1207.034577375,1207.684185916,9,1207.101393875,1207.159428541,1207.694738875,1209.004773,1,0.649608540999907
128,46,3,categorization,0,bathroom,SHINEd_sun_apkruvsevgegsdwp.tif,44,0.0666666666666667,0.0666666666666667,1.7,1209.020362166,1209.726097916,9,1209.086930083,1209.153146166,1209.742230791,1211.435607125,0,0.705735750000031
128,47,3,categorization,0,bathroom,SHINEd_sun_axldvoqbuvuggfmq.tif,57,0.0666666666666667,0.0666666666666667,1.35,1211.452474166,1212.143505166,9,1211.519210625,1211.585079333,1212.157347958,1213.50073825,0,0.691031000000066
128,48,3,categorization,0,kitchen,SHINEd_sun_aggjlwcdjsjcaemh.tif,86,0.0666666666666667,0.0666666666666667,0.8,1213.518024333,1214.506409875,9,1213.583246916,1213.650702375,1214.52210475,1215.315444833,1,0.988385541999833
128,49,3,categorization,0,bathroom,SHINEd_sun_aljolscmmzydegqp.tif,33,0.0666666666666667,0.0666666666666667,0.766666666666667,1215.32042525,1216.324442833,9,1215.382169875,1215.443097,1216.328786416,1217.088790625,0,1.00401758299995
128,50,3,categorization,0,bathroom,SHINEd_sun_atstyziqcmkahyxk.tif,51,0.0666666666666667,0.0666666666666667,1.38333333333333,1217.093739083,1218.628353833,9,1217.155674416,1217.216379375,1218.635246958,1220.0119705,0,1.53461474999995
128,1,4,categorization,0,bathroom,SHINEd_sun_akiytfaagpdsphgz.tif,31,0.0666666666666667,0.0666666666666667,1,1256.40153325,1257.796731625,9,1256.463830916,1256.524321791,1257.81016475,1258.803503125,0,1.39519837499984
128,2,4,categorization,0,kitchen,SHINEd_sun_abpwyqmlzafvklqo.tif,72,0.0666666666666667,0.0666666666666667,0.966666666666667,1258.808476,1259.563922625,9,1258.870111625,1258.931103958,1259.5829895,1260.542994375,1,0.755446625000104
128,3,4,categorization,0,bathroom,SHINEd_sun_anhioqovhscjqqwb.tif,38,0.0666666666666667,0.0666666666666667,1.75,1260.54955525,1261.467910416,13,1260.611363541,1260.672234708,1261.474003333,1263.21737425,1,0.918355166000083
128,4,4,categorization,0,kitchen,SHINEd_sun_afuyedyxivkhecmu.tif,85,0.0666666666666667,0.0666666666666667,1.68333333333333,1263.226959583,1264.057450541,9,1263.290938291,1263.353397541,1264.076292583,1265.753008291,1,0.830490957999928
128,5,4,categorization,0,kitchen,SHINEd_sun_aenotlpyftoioydp.tif,82,0.0666666666666667,0.0666666666666667,1.58333333333333,1265.769255166,1267.324448583,9,1265.835681333,1265.9014605,1267.337213125,1268.913929666,1,1.55519341700005
128,6,4,categorization,0,bathroom,SHINEd_sun_aggnnqpdorgxpvce.tif,21,0.0666666666666667,0.0666666666666667,1,1268.932174916,1270.086552375,9,1268.999122916,1269.065718791,1270.106572666,1271.099910375,0,1.15437745900022
128,7,4,categorization,0,kitchen,SHINEd_labelme_rykdqxenmhulbdn.tif,63,0.0666666666666667,0.0666666666666667,1.33333333333333,1271.104585458,1272.124098291,9,1271.166275291,1271.227307541,1272.129812375,1273.456528041,1,1.01951283300014
128,8,4,categorization,0,bathroom,SHINEd_sun_alotolagknyrgtsk.tif,35,0.0666666666666667,0.0666666666666667,1.26666666666667,1273.473476291,1274.36176375,9,1273.539979041,1273.60578275,1274.378334458,1275.638376375,0,0.888287458999912
128,9,4,categorization,0,bathroom,SHINEd_sun_aofnryafpsjimzsb.tif,40,0.0666666666666667,0.0666666666666667,0.883333333333333,1275.656292291,1276.381720541,9,1275.724095708,1275.788717875,1276.412016458,1277.288704541,0,0.72542825000005
128,10,4,categorization,0,kitchen,SHINEd_sun_ahpczsiumwwocjkv.tif,92,0.0666666666666667,0.0666666666666667,1.26666666666667,1277.299256125,1278.060538166,9,1277.3648455,1277.429365791,1278.065243666,1279.325278375,1,0.761282040999959
128,11,4,categorization,0,kitchen,SHINEd_sun_awcpdzzznmweyyhv.tif,106,0.0666666666666667,0.0666666666666667,2,1279.335452458,1280.125100875,9,1279.399900208,1279.467610458,1280.14005275,1282.133429916,1,0.78964841700008
128,12,4,categorization,0,bathroom,SHINEd_sun_aleqenyvunhactkl.tif,32,0.0666666666666667,0.0666666666666667,0.733333333333333,1282.151039916,1282.871183541,13,1282.217621833,1282.283382875,1282.889520958,1283.616192916,1,0.720143624999992
128,13,4,categorization,0,bathroom,SHINEd_sun_axxbkopsgyouuebh.tif,58,0.0666666666666667,0.0666666666666667,0.883333333333333,1283.621046666,1284.48392225,13,1283.682698041,1283.7436565,1284.495617458,1285.372288208,1,0.862875583999994
128,14,4,categorization,0,kitchen,SHINEd_sun_amjjdeyrggfqgmom.tif,100,0.0666666666666667,0.0666666666666667,0.983333333333333,1285.376958791,1286.011952583,9,1285.438652458,1285.499569125,1286.017999125,1286.994671708,1,0.634993791999932
128,15,4,categorization,0,kitchen,SHINEd_sun_aarfiyshqohlwkmo.tif,67,0.0666666666666667,0.0666666666666667,1.56666666666667,1287.000096166,1287.955904125,9,1287.061676,1287.122734541,1287.974963,1289.534998666,1,0.955807958999912
128,16,4,categorization,0,kitchen,SHINEd_sun_aexklacwqwezaorf.tif,84,0.0666666666666667,0.0666666666666667,1.08333333333333,1289.551731375,1290.566011916,9,1289.618192208,1289.684523291,1290.591101208,1291.667821958,1,1.01428054100006
128,17,4,categorization,0,kitchen,SHINEd_sun_acfmftudsenhrfhy.tif,74,0.0666666666666667,0.0666666666666667,0.75,1291.676892125,1292.86032,9,1291.741347958,1291.809026,1292.883408625,1293.626787416,1,1.18342787500001
128,18,4,categorization,0,bathroom,SHINEd_sun_aspsyogrekjtfozg.tif,50,0.0666666666666667,0.0666666666666667,0.966666666666667,1293.641380625,1294.24442225,13,1293.705626625,1293.764451958,1294.249658791,1295.209664083,1,0.60304162500006
128,19,4,categorization,0,bathroom,SHINEd_sun_apmqjbnwghzuhhzh.tif,46,0.0666666666666667,0.0666666666666667,1.63333333333333,1295.21566775,1295.820784875,13,1295.277360625,1295.338387458,1295.840328625,1297.467053458,1,0.605117125000106
128,20,4,categorization,0,bathroom,SHINEd_sun_aoybiabnpadelefl.tif,41,0.0666666666666667,0.0666666666666667,1.46666666666667,1297.484666041,1298.238096666,9,1297.551144625,1297.617106625,1298.256632833,1299.716682333,0,0.753430624999964
128,21,4,categorization,0,kitchen,SHINEd_sun_aixorpehvfykdynp.tif,95,0.0666666666666667,0.0666666666666667,0.933333333333333,1299.736000416,1300.781993833,9,1299.802927583,1299.869121291,1300.809120833,1301.7357925,1,1.04599341699986
128,22,4,categorization,0,bathroom,SHINEd_sun_aapitsgbtktqubfy.tif,12,0.0666666666666667,0.0666666666666667,1.45,1301.740553166,1302.492670541,13,1301.802337833,1301.86309975,1302.498403791,1303.941776041,1,0.752117375000125
128,23,4,categorization,0,bathroom,SHINEd_sun_agrwbmhcpmfuwmsg.tif,24,0.0666666666666667,0.0666666666666667,0.966666666666667,1303.959386375,1304.7506825,9,1304.027019958,1304.092022583,1304.764480958,1305.724488083,0,0.791296125000144
128,24,4,categorization,0,kitchen,SHINEd_sun_acxkpeoqbwcxfvip.tif,77,0.0666666666666667,0.0666666666666667,0.816666666666667,1305.730079,1306.523952625,9,1305.791869333,1305.852788625,1306.537934416,1307.347939333,1,0.79387362500006
128,25,4,categorization,0,bathroom,SHINEd_sun_apjevzvycyhuqghb.tif,43,0.0666666666666667,0.0666666666666667,1.96666666666667,1307.352631375,1307.987866583,9,1307.414249416,1307.475210125,1307.993936666,1309.953977875,0,0.635235207999813
128,26,4,categorization,0,bathroom,SHINEd_sun_ahcvzmoyaycdoftf.tif,27,0.0666666666666667,0.0666666666666667,0.916666666666667,1309.970841583,1310.630165166,13,1310.037022541,1310.103136958,1310.659510708,1311.569515625,1,0.659323583000059
128,27,4,categorization,0,bathroom,SHINEd_sun_anryaplzeujmzfkd.tif,39,0.0666666666666667,0.0666666666666667,1.28333333333333,1311.574317458,1312.179864708,9,1311.636010875,1311.697150125,1312.199304333,1313.476005541,0,0.605547249999972
128,28,4,categorization,0,bathroom,SHINEd_sun_apynckhmoftszqoq.tif,47,0.0666666666666667,0.0666666666666667,1.8,1313.492713291,1314.191948875,13,1313.559070791,1313.626152541,1314.21606075,1316.009452833,1,0.699235584000007
128,29,4,categorization,0,kitchen,SHINEd_sun_ajkqhtgcbgpcwrwn.tif,97,0.0666666666666667,0.0666666666666667,1.33333333333333,1316.026267125,1316.740905125,9,1316.092845333,1316.159033083,1316.765725666,1318.092442375,1,0.714637999999923
128,30,4,categorization,0,kitchen,SHINEd_sun_aapllqyqlykszopd.tif,66,0.0666666666666667,0.0666666666666667,1.06666666666667,1318.109528666,1318.87367725,9,1318.176038041,1318.242082,1318.898940833,1319.958983125,1,0.76414858399994
128,31,4,categorization,0,bathroom,SHINEd_sun_aqrpegblszgcoujh.tif,48,0.0666666666666667,0.0666666666666667,1.03333333333333,1319.968541791,1320.662346041,13,1320.034868458,1320.100956875,1320.691016333,1321.717718833,1,0.693804250000085
128,32,4,categorization,0,kitchen,SHINEd_sun_agorklincwxrdtga.tif,87,0.0666666666666667,0.0666666666666667,0.733333333333333,1321.734338666,1322.548495416,9,1321.801294125,1321.866728708,1322.552401333,1323.279074375,1,0.814156749999938
128,33,4,categorization,0,kitchen,SHINEd_sun_aymvwlarqodbwuoc.tif,108,0.0666666666666667,0.0666666666666667,0.766666666666667,1323.28388775,1324.324062916,9,1323.34548025,1323.406601291,1324.342101041,1325.102106416,1,1.04017516599993
128,34,4,categorization,0,bathroom,SHINEd_sun_azqyogdvyhahyram.tif,60,0.0666666666666667,0.0666666666666667,1.1,1325.106858666,1325.827955375,13,1325.168560958,1325.229558333,1325.831477,1326.924861708,1,0.721096708999994
128,35,4,categorization,0,kitchen,SHINEd_sun_axyyrmzcupyhlivc.tif,107,0.0666666666666667,0.0666666666666667,1.81666666666667,1326.933929166,1327.981262625,13,1326.998923375,1327.065727666,1328.005867333,1329.815905375,0,1.0473334589999
128,36,4,categorization,0,kitchen,SHINEd_sun_aamedkxepzlwuxes.tif,65,0.0666666666666667,0.0666666666666667,0.883333333333333,1329.83052925,1332.020138916,9,1329.896655541,1329.962999041,1332.032139333,1332.908810125,1,2.18960966600002
128,37,4,categorization,0,kitchen,SHINEd_sun_aypmqwcualkenuoe.tif,109,0.0666666666666667,0.0666666666666667,1.7,1332.913552583,1333.707725291,9,1332.975463166,1333.036242875,1333.721422458,1335.414800916,1,0.794172708000133
128,38,4,categorization,0,kitchen,SHINEd_sun_akchetnepxlcxhsu.tif,98,0.0666666666666667,0.0666666666666667,1.58333333333333,1335.426733375,1336.16035775,9,1335.492778041,1335.558916416,1336.181576541,1337.758292583,1,0.73362437500009
128,39,4,categorization,0,bathroom,SHINEd_sun_aavhrsfjbserjtht.tif,13,0.0666666666666667,0.0666666666666667,0.833333333333333,1337.772759708,1338.851975708,9,1337.839143,1337.905064791,1338.878653625,1339.705328958,0,1.07921600000009
128,40,4,categorization,0,bathroom,SHINEd_sun_axyrejkiiaqiurjk.tif,59,0.0666666666666667,0.0666666666666667,0.95,1339.710250458,1340.555843791,9,1339.772050125,1339.833219041,1340.568518583,1341.511857458,0,0.845593332999897
128,41,4,categorization,0,kitchen,SHINEd_sun_aehawpgmrlhlvcow.tif,81,0.0666666666666667,0.0666666666666667,1.06666666666667,1341.516682083,1342.364042708,9,1341.578292,1341.639333958,1342.374721291,1343.434764291,1,0.847360624999965
128,42,4,categorization,0,bathroom,SHINEd_sun_apkxzenqapsujocq.tif,45,0.0666666666666667,0.0666666666666667,1.68333333333333,1343.443332916,1344.1353005,9,1343.508140125,1343.574076375,1344.164241583,1345.840955041,0,0.691967584000167
128,43,4,categorization,0,bathroom,SHINEd_sun_alkosphxlxwjwgjd.tif,34,0.0666666666666667,0.0666666666666667,1.31666666666667,1345.858362083,1346.617235833,9,1345.924848833,1345.990518833,1346.647073083,1347.95712925,0,0.758873750000021
128,44,4,categorization,0,bathroom,SHINEd_sun_aghyqhbptboemmoq.tif,23,0.0666666666666667,0.0666666666666667,1.61666666666667,1347.974411666,1351.580320625,13,1348.041210208,1348.1067775,1351.596856875,1353.206890083,1,3.60590895900009
128,45,4,categorization,0,bathroom,SHINEd_sun_ajlawzvmubibwbpy.tif,30,0.0666666666666667,0.0666666666666667,1.15,1353.216741666,1354.05603675,13,1353.281650291,1353.345709833,1354.068068375,1355.211450958,1,0.839295084000014
128,46,4,categorization,0,kitchen,SHINEd_sun_abdenxonkemggwsq.tif,69,0.0666666666666667,0.0666666666666667,1.25,1355.219950125,1356.3184825,9,1355.284678708,1355.349102708,1356.33885325,1357.582224916,1,1.0985323750001
128,47,4,categorization,0,kitchen,SHINEd_sun_ahywdevtimnqcsln.tif,94,0.0666666666666667,0.0666666666666667,1.1,1357.602353458,1358.523819708,9,1357.669103041,1357.73488025,1358.541189125,1359.634578958,1,0.921466250000094
128,48,4,categorization,0,bathroom,SHINEd_sun_agguqiubmwhqqunb.tif,22,0.0666666666666667,0.0666666666666667,0.9,1359.643827458,1360.62245525,13,1359.708702791,1359.776132625,1360.649290083,1361.542659625,1,0.978627791999997
128,49,4,categorization,0,bathroom,SHINEd_sun_ahaulkltgpkeeemi.tif,26,0.0666666666666667,0.0666666666666667,1.3,1361.558443583,1362.332054958,13,1361.621120291,1361.68107,1362.350085541,1363.643469666,1,0.773611374999973
128,50,4,categorization,0,kitchen,SHINEd_labelme_kxvouciolcpqplr.tif,62,0.0666666666666667,0.0666666666666667,1.25,1363.661894375,1364.231469166,9,1363.728391958,1363.794129,1364.250493958,1365.493837,1,0.569574790999923
128,1,5,categorization,0,kitchen,SHINEd_sun_adgqasybjyktddhj.tif,78,0.0666666666666667,0.0666666666666667,1.7,1373.304161916,1374.98049475,9,1373.365881,1373.4267915,1374.9961065,1376.689488708,1,1.67633283399982
128,2,5,categorization,0,bathroom,SHINEd_sun_alotolagknyrgtsk.tif,35,0.0666666666666667,0.0666666666666667,1.81666666666667,1376.707140958,1377.763655041,9,1376.773733541,1376.839575166,1377.778885333,1379.588944791,0,1.05651408299991
128,3,5,categorization,0,bathroom,SHINEd_sun_apmqjbnwghzuhhzh.tif,46,0.0666666666666667,0.0666666666666667,1.23333333333333,1379.606630416,1380.726886833,13,1379.673336666,1379.73906725,1380.745794583,1381.972497708,1,1.12025641700006
128,4,5,categorization,0,kitchen,SHINEd_sun_aunzlwrbjumxhwdj.tif,103,0.0666666666666667,0.0666666666666667,1.4,1381.989333458,1382.799861791,9,1382.056377208,1382.121775333,1382.828770208,1384.222149291,1,0.810528333000093
128,5,5,categorization,0,kitchen,SHINEd_sun_aaxxjlsuzvqlgylf.tif,68,0.0666666666666667,0.0666666666666667,1.03333333333333,1384.2397515,1385.177588291,9,1384.307953166,1384.373202666,1385.196245916,1386.222955666,1,0.937836790999881
128,6,5,categorization,0,kitchen,SHINEd_sun_acfmftudsenhrfhy.tif,74,0.0666666666666667,0.0666666666666667,1.38333333333333,1386.233314,1386.951672375,9,1386.298181125,1386.364307541,1386.970571833,1388.347295291,1,0.71835837499998
128,7,5,categorization,0,kitchen,SHINEd_sun_amjjdeyrggfqgmom.tif,100,0.0666666666666667,0.0666666666666667,2,1388.357223583,1389.164428375,9,1388.422460083,1388.490016333,1389.179607666,1391.172992291,1,0.807204791999993
128,8,5,categorization,0,kitchen,SHINEd_sun_akcjzhbbjlbogpdi.tif,99,0.0666666666666667,0.0666666666666667,1.85,1391.190844125,1391.99814625,9,1391.255342583,1391.321044833,1392.028128541,1393.871514958,1,0.807302124999978
128,9,5,categorization,0,kitchen,SHINEd_sun_aapllqyqlykszopd.tif,66,0.0666666666666667,0.0666666666666667,0.816666666666667,1393.882234583,1394.676508041,9,1393.949372916,1394.014949541,1394.7045555,1395.514563791,1,0.794273458000134
128,10,5,categorization,0,kitchen,SHINEd_sun_aamedkxepzlwuxes.tif,65,0.0666666666666667,0.0666666666666667,1.85,1395.519385541,1396.331638291,9,1395.581125875,1395.642120166,1396.343964125,1398.187328958,1,0.812252749999971
128,11,5,categorization,0,kitchen,SHINEd_sun_abpwyqmlzafvklqo.tif,72,0.0666666666666667,0.0666666666666667,0.733333333333333,1398.20404575,1398.8681485,9,1398.270708791,1398.336106083,1398.891236375,1399.617910791,1,0.664102749999984
128,12,5,categorization,0,bathroom,SHINEd_sun_anhioqovhscjqqwb.tif,38,0.0666666666666667,0.0666666666666667,0.716666666666667,1399.622703375,1400.235741666,13,1399.684337708,1399.74537725,1400.247261291,1400.957266708,1,0.613038291000066
128,13,5,categorization,0,bathroom,SHINEd_sun_avhrdrntsqrjzccq.tif,55,0.0666666666666667,0.0666666666666667,0.833333333333333,1400.961984375,1401.867915125,13,1401.023773041,1401.084596625,1401.886547083,1402.713218958,1,0.905930750000152
128,14,5,categorization,0,kitchen,SHINEd_sun_agubuxuukhzyzpdp.tif,88,0.0666666666666667,0.0666666666666667,0.95,1402.718373208,1403.403758625,9,1402.780096625,1402.840950416,1403.409400958,1404.352739375,1,0.685385416999907
128,15,5,categorization,0,bathroom,SHINEd_sun_agyqfjcfkdcydepw.tif,25,0.0666666666666667,0.0666666666666667,1.96666666666667,1404.35736325,1405.139650541,9,1404.418995125,1404.480013916,1405.148917125,1407.108965833,0,0.782287291000102
128,16,5,categorization,0,bathroom,SHINEd_sun_ajlawzvmubibwbpy.tif,30,0.0666666666666667,0.0666666666666667,1.86666666666667,1407.124761375,1407.808203291,13,1407.191523541,1407.251866833,1407.824403041,1409.684449625,1,0.683441915999992
128,17,5,categorization,0,kitchen,SHINEd_sun_aegoxogugdkwpmpj.tif,80,0.0666666666666667,0.0666666666666667,1.51666666666667,1409.701279583,1410.297183,9,1409.768007291,1409.833727083,1410.3236835,1411.833756916,1,0.595903416999818
128,18,5,categorization,0,bathroom,SHINEd_sun_asfwthctfqerjvxr.tif,49,0.0666666666666667,0.0666666666666667,1.3,1411.849039333,1412.89317575,9,1411.915934416,1411.981833125,1412.921914708,1414.215281375,0,1.04413641699989
128,19,5,categorization,0,bathroom,SHINEd_sun_aunuadmjocsddsrl.tif,52,0.0666666666666667,0.0666666666666667,1.91666666666667,1414.234443458,1415.072574916,9,1414.301272625,1414.366776,1415.089760875,1416.999808583,0,0.838131457999907
128,20,5,categorization,0,bathroom,SHINEd_sun_aclfzgynxzxlbepz.tif,19,0.0666666666666667,0.0666666666666667,1.23333333333333,1417.016510333,1417.925638458,13,1417.082958583,1417.14891925,1417.95568625,1419.18240925,1,0.909128125000052
128,21,5,categorization,0,bathroom,SHINEd_sun_apeeialkgkuxddgh.tif,42,0.0666666666666667,0.0666666666666667,0.866666666666667,1419.200627791,1419.913543166,13,1419.265838875,1419.33327575,1419.940073833,1420.800122125,1,0.712915374999966
128,22,5,categorization,0,bathroom,SHINEd_sun_aleqenyvunhactkl.tif,32,0.0666666666666667,0.0666666666666667,0.8,1420.816885541,1422.012027208,13,1420.88378675,1420.949175416,1422.017810625,1422.811150083,1,1.19514166700014
128,23,5,categorization,0,bathroom,SHINEd_sun_aapitsgbtktqubfy.tif,12,0.0666666666666667,0.0666666666666667,1.51666666666667,1422.815768333,1423.571897666,13,1422.877523416,1422.93867475,1423.590518416,1425.100554458,1,0.75612933299999
128,24,5,categorization,0,kitchen,SHINEd_labelme_rykdqxenmhulbdn.tif,63,0.0666666666666667,0.0666666666666667,1.18333333333333,1425.11816475,1425.856807875,9,1425.184732791,1425.248760833,1425.870992291,1427.047715833,1,0.738643124999953
128,25,5,categorization,0,kitchen,SHINEd_sun_aqeaevwwwjoqhzvl.tif,101,0.0666666666666667,0.0666666666666667,1.6,1427.056426583,1427.921193166,9,1427.122377958,1427.188540916,1427.944981416,1429.538359166,1,0.864766582999891
128,26,5,categorization,0,kitchen,SHINEd_sun_auaiucuqpdausiva.tif,102,0.0666666666666667,0.0666666666666667,1.56666666666667,1429.550745375,1430.283436291,9,1429.617238541,1429.682982583,1430.305819791,1431.865873958,1,0.732690916000138
128,27,5,categorization,0,kitchen,SHINEd_sun_axyyrmzcupyhlivc.tif,107,0.0666666666666667,0.0666666666666667,1.36666666666667,1431.88318725,1432.665504083,9,1431.949698666,1432.015410583,1432.688857958,1434.048900625,1,0.782316833000095
128,28,5,categorization,0,bathroom,SHINEd_sun_awnqiikzaispgmwo.tif,56,0.0666666666666667,0.0666666666666667,1.53333333333333,1434.066700791,1434.8526405,13,1434.13347775,1434.199291541,1434.87228525,1436.398991666,1,0.785939709000104
128,29,5,categorization,0,kitchen,SHINEd_sun_azmutvzbxypaceni.tif,110,0.0666666666666667,0.0666666666666667,1.4,1436.416693125,1437.0464665,9,1436.483537458,1436.549629208,1437.072556583,1438.46593225,1,0.629773375000013
128,30,5,categorization,0,kitchen,SHINEd_sun_aypmqwcualkenuoe.tif,109,0.0666666666666667,0.0666666666666667,1.06666666666667,1438.483465291,1439.29273625,9,1438.550282916,1438.616325375,1439.304432875,1440.364468916,1,0.80927095900006
128,31,5,categorization,0,bathroom,SHINEd_sun_axldvoqbuvuggfmq.tif,57,0.0666666666666667,0.0666666666666667,1.63333333333333,1440.37421725,1441.144403208,9,1440.439204041,1440.50545825,1441.161594916,1442.788318833,0,0.770185958000184
128,32,5,categorization,0,kitchen,SHINEd_sun_ahspylgoovwmwvgk.tif,93,0.0666666666666667,0.0666666666666667,1.8,1442.806314791,1443.428933125,9,1442.873231083,1442.938661875,1443.444540833,1445.237909291,1,0.622618333999981
128,33,5,categorization,0,kitchen,SHINEd_sun_ahpczsiumwwocjkv.tif,92,0.0666666666666667,0.0666666666666667,1.53333333333333,1445.249254708,1445.849218833,9,1445.314598416,1445.378554208,1445.868063291,1447.394769166,1,0.599964124999815
128,34,5,categorization,0,bathroom,SHINEd_sun_abjtwfukuwddzted.tif,15,0.0666666666666667,0.0666666666666667,0.766666666666667,1447.406494583,1447.97994025,13,1447.473276583,1447.539146208,1447.995005291,1448.75504425,1,0.573445666999987
128,35,5,categorization,0,bathroom,SHINEd_sun_auzqhkafidnkrwmo.tif,54,0.0666666666666667,0.0666666666666667,1.86666666666667,1448.771397291,1449.923176125,9,1448.838228,1448.90392325,1449.93972425,1451.799776291,0,1.15177883399997
128,36,5,categorization,0,kitchen,SHINEd_sun_ahdycvpopffkzzsu.tif,90,0.0666666666666667,0.0666666666666667,1.13333333333333,1451.818621,1452.531570583,9,1451.885446416,1451.95124875,1452.558128541,1453.684831833,1,0.712949583000182
128,37,5,categorization,0,kitchen,SHINEd_sun_aarfiyshqohlwkmo.tif,67,0.0666666666666667,0.0666666666666667,1.73333333333333,1453.693443416,1454.515997333,9,1453.758481375,1453.825881041,1454.531918666,1456.258617666,1,0.82255391700005
128,38,5,categorization,0,kitchen,SHINEd_sun_ajcbwwvdlsvjyzje.tif,96,0.0666666666666667,0.0666666666666667,0.766666666666667,1456.273467208,1458.227874291,9,1456.340055291,1456.405875791,1458.241933416,1459.001938208,1,1.95440708299998
128,39,5,categorization,0,bathroom,SHINEd_sun_afcoljnjfoxjtgja.tif,20,0.0666666666666667,0.0666666666666667,1.85,1459.006609708,1459.7079065,9,1459.068357083,1459.129310083,1459.7143995,1461.557781333,0,0.701296791999994
128,40,5,categorization,0,bathroom,SHINEd_sun_apkruvsevgegsdwp.tif,44,0.0666666666666667,0.0666666666666667,0.966666666666667,1461.5750155,1462.246139416,9,1461.641532208,1461.707730625,1462.263925625,1463.223933,0,0.671123915999942
128,41,5,categorization,0,bathroom,SHINEd_sun_aoybiabnpadelefl.tif,41,0.0666666666666667,0.0666666666666667,1.06666666666667,1463.2286655,1463.963208041,9,1463.290354583,1463.351384625,1463.969804875,1465.029854166,0,0.734542540999882
128,42,5,categorization,0,kitchen,SHINEd_sun_ahywdevtimnqcsln.tif,94,0.0666666666666667,0.0666666666666667,1.38333333333333,1465.038177875,1465.722893083,9,1465.102821916,1465.168402791,1465.740993625,1467.117704291,1,0.684715207999943
128,43,5,categorization,0,bathroom,SHINEd_sun_alkosphxlxwjwgjd.tif,34,0.0666666666666667,0.0666666666666667,0.766666666666667,1467.12752425,1467.92754275,9,1467.193266083,1467.255728166,1467.944921708,1468.704978375,0,0.800018499999851
128,44,5,categorization,0,kitchen,SHINEd_sun_aeqdocilnnpuvuhx.tif,83,0.0666666666666667,0.0666666666666667,0.866666666666667,1468.720796583,1469.459300125,9,1468.787107,1468.853230416,1469.471788666,1470.331793791,1,0.738503541999989
128,45,5,categorization,0,kitchen,SHINEd_sun_aggjlwcdjsjcaemh.tif,86,0.0666666666666667,0.0666666666666667,1.25,1470.3364745,1471.100015041,9,1470.398194541,1470.459063958,1471.111156375,1472.354534875,1,0.763540541000111
128,46,5,categorization,0,bathroom,SHINEd_sun_aljolscmmzydegqp.tif,33,0.0666666666666667,0.0666666666666667,1.03333333333333,1472.373135291,1473.0327965,13,1472.439877083,1472.5053125,1473.062029708,1474.088747041,1,0.659661208999978
128,47,5,categorization,0,kitchen,SHINEd_sun_acwjdupvyjsugpay.tif,76,0.0666666666666667,0.0666666666666667,0.783333333333333,1474.104373666,1474.811650083,9,1474.167035583,1474.227052791,1474.829103541,1475.605776333,1,0.707276417000003
128,48,5,categorization,0,bathroom,SHINEd_sun_acduarbnmmoglmiv.tif,16,0.0666666666666667,0.0666666666666667,0.7,1475.610637708,1476.419057291,13,1475.672375625,1475.733454166,1476.435603666,1477.128941541,1,0.808419582999932
128,49,5,categorization,0,bathroom,SHINEd_sun_acegryoqftbzowsg.tif,17,0.0666666666666667,0.0666666666666667,1.75,1477.13366225,1478.179474541,9,1477.195344416,1477.256401708,1478.191630666,1479.935010416,0,1.04581229099995
128,50,5,categorization,0,kitchen,SHINEd_labelme_kxvouciolcpqplr.tif,62,0.0666666666666667,0.0666666666666667,1.36666666666667,1479.951784583,1481.285778125,9,1480.018535083,1480.084712375,1481.306357458,1482.6663965,1,1.33399354199992
128,1,6,categorization,0,kitchen,SHINEd_sun_afuyedyxivkhecmu.tif,85,0.0666666666666667,0.0666666666666667,0.966666666666667,1493.591280208,1494.515956458,9,1493.653693083,1493.713924083,1494.53288425,1495.492890166,1,0.924676249999948
128,2,6,categorization,0,bathroom,SHINEd_sun_ahqjwnzgolcaoidx.tif,29,0.0666666666666667,0.0666666666666667,1.73333333333333,1495.498318416,1496.867011625,13,1495.560071416,1495.620943458,1496.873490625,1498.600196291,1,1.36869320899996
128,3,6,categorization,0,kitchen,SHINEd_sun_aehawpgmrlhlvcow.tif,81,0.0666666666666667,0.0666666666666667,1.91666666666667,1498.618018166,1499.39000425,9,1498.684644666,1498.750413791,1499.40539875,1501.315434166,1,0.771986083999991
128,4,6,categorization,0,kitchen,SHINEd_sun_abrcnpqqhmjwekyf.tif,73,0.0666666666666667,0.0666666666666667,0.766666666666667,1501.325744041,1502.193164583,9,1501.390700583,1501.458009541,1502.214501916,1502.974508166,1,0.867420541999991
128,5,6,categorization,0,bathroom,SHINEd_sun_aghyqhbptboemmoq.tif,23,0.0666666666666667,0.0666666666666667,0.916666666666667,1502.981659416,1503.747720125,13,1503.043350666,1503.104334083,1503.756219875,1504.666224541,1,0.76606070899993
128,6,6,categorization,0,kitchen,SHINEd_sun_acgtpgfybqjmzeyw.tif,75,0.0666666666666667,0.0666666666666667,1.18333333333333,1504.671742125,1505.331138333,9,1504.733403208,1504.794294208,1505.345839833,1506.522546041,1,0.659396207999862
128,7,6,categorization,0,bathroom,SHINEd_sun_atstyziqcmkahyxk.tif,51,0.0666666666666667,0.0666666666666667,1.8,1506.531714333,1507.229853958,13,1506.598508791,1506.663892,1507.251903166,1509.045296541,1,0.69813962499984
128,8,6,categorization,0,bathroom,SHINEd_sun_acgyywnybuveqsro.tif,18,0.0666666666666667,0.0666666666666667,0.883333333333333,1509.063233583,1509.700553,9,1509.129670166,1509.195821791,1509.718797375,1510.595473625,0,0.637319416999844
128,9,6,categorization,0,kitchen,SHINEd_sun_abftihopvusyfakt.tif,71,0.0666666666666667,0.0666666666666667,1.83333333333333,1510.601049583,1511.371303208,9,1510.662992916,1510.723597333,1511.375416166,1513.2021295,1,0.770253624999896
128,10,6,categorization,0,bathroom,SHINEd_sun_apkxzenqapsujocq.tif,45,0.0666666666666667,0.0666666666666667,1.76666666666667,1513.215124583,1513.989224708,13,1513.279574833,1513.345959541,1514.018540125,1515.778593583,1,0.774100124999904
128,11,6,categorization,0,kitchen,SHINEd_sun_agorklincwxrdtga.tif,87,0.0666666666666667,0.0666666666666667,0.983333333333333,1515.79671725,1516.421102041,9,1515.863329916,1515.929626458,1516.435826083,1517.4124995,1,0.624384791000011
128,12,6,categorization,0,bathroom,SHINEd_sun_agguqiubmwhqqunb.tif,22,0.0666666666666667,0.0666666666666667,0.883333333333333,1517.417502333,1518.619624166,9,1517.479294041,1517.54007775,1518.625839375,1519.502511458,0,1.20212183300009
128,13,6,categorization,0,kitchen,SHINEd_sun_ahljzhgcdpomplvg.tif,91,0.0666666666666667,0.0666666666666667,0.85,1519.5070245,1520.307208291,9,1519.568956583,1519.629688458,1520.315172916,1521.158512208,1,0.800183791000109
128,14,6,categorization,0,kitchen,SHINEd_sun_agzzivivdpnawacl.tif,89,0.0666666666666667,0.0666666666666667,0.733333333333333,1521.164470875,1521.8672035,9,1521.226303875,1521.287309958,1521.872534541,1522.599207458,1,0.702732624999953
128,15,6,categorization,0,bathroom,SHINEd_sun_apynckhmoftszqoq.tif,47,0.0666666666666667,0.0666666666666667,1.88333333333333,1522.6039825,1523.355040625,13,1522.665634916,1522.726495041,1523.361765791,1525.238467,1,0.751058124999872
128,16,6,categorization,0,kitchen,SHINEd_sun_acxkpeoqbwcxfvip.tif,77,0.0666666666666667,0.0666666666666667,0.816666666666667,1525.248892125,1525.894841541,9,1525.313627625,1525.379596125,1525.919196958,1526.7292045,1,0.645949415999894
128,17,6,categorization,0,kitchen,SHINEd_labelme_brsyyvweiuaazfr.tif,61,0.0666666666666667,0.0666666666666667,1.9,1526.734828875,1527.666786541,9,1526.796516458,1526.857390625,1527.676011041,1529.569378416,1,0.931957666000017
128,18,6,categorization,0,bathroom,SHINEd_sun_anryaplzeujmzfkd.tif,39,0.0666666666666667,0.0666666666666667,0.983333333333333,1529.584704,1531.371103958,9,1529.651103958,1529.716815833,1531.385718625,1532.362390916,0,1.78639995799995
128,19,6,categorization,0,kitchen,SHINEd_sun_abdxkyyxwfskuaqb.tif,70,0.0666666666666667,0.0666666666666667,0.75,1532.367869416,1533.259270666,13,1532.429660333,1532.490489291,1533.275485625,1534.01882375,0,0.891401249999944
128,20,6,categorization,0,kitchen,SHINEd_sun_aixorpehvfykdynp.tif,95,0.0666666666666667,0.0666666666666667,1.6,1534.024306583,1534.706766916,9,1534.085887041,1534.146950875,1534.715722333,1536.309094333,1,0.682460333000108
128,21,6,categorization,0,kitchen,SHINEd_sun_auticobqsbwgoppi.tif,104,0.0666666666666667,0.0666666666666667,1.58333333333333,1536.326917458,1536.98894,9,1536.393660125,1536.459129083,1537.015814208,1538.592526916,1,0.662022541999931
128,22,6,categorization,0,kitchen,SHINEd_sun_aenotlpyftoioydp.tif,82,0.0666666666666667,0.0666666666666667,1.11666666666667,1538.609917166,1539.340398416,9,1538.676699625,1538.741943625,1539.363762875,1540.473799333,1,0.730481249999912
128,23,6,categorization,0,kitchen,SHINEd_sun_admlmbcdswaszruo.tif,79,0.0666666666666667,0.0666666666666667,1.53333333333333,1540.482922333,1541.168050375,9,1540.547324041,1540.615426416,1541.188604333,1542.715315041,1,0.68512804199986
128,24,6,categorization,0,kitchen,SHINEd_sun_aadbddgrdsjugojn.tif,64,0.0666666666666667,0.0666666666666667,1.48333333333333,1542.732840208,1543.54067875,9,1542.799496041,1542.865070833,1543.554329291,1545.031043833,1,0.807838542000127
128,25,6,categorization,0,bathroom,SHINEd_sun_aggnnqpdorgxpvce.tif,21,0.0666666666666667,0.0666666666666667,1.1,1545.049629,1546.028908958,9,1545.116357958,1545.181768625,1546.054592875,1547.147981333,0,0.979279958000006
128,26,6,categorization,0,bathroom,SHINEd_sun_agrwbmhcpmfuwmsg.tif,24,0.0666666666666667,0.0666666666666667,0.933333333333333,1547.158162208,1547.832737333,9,1547.223103208,1547.28927125,1547.862840458,1548.789551833,0,0.674575125000047
128,27,6,categorization,0,bathroom,SHINEd_labelme_sfxiulhjbhlyiyt.tif,11,0.0666666666666667,0.0666666666666667,0.816666666666667,1548.805817541,1549.802852,13,1548.872725666,1548.938413416,1549.807160333,1550.617165625,1,0.997034459000133
128,28,6,categorization,0,bathroom,SHINEd_sun_axyrejkiiaqiurjk.tif,59,0.0666666666666667,0.0666666666666667,1.78333333333333,1550.621993875,1551.283115958,9,1550.68375925,1550.744654166,1551.296391,1553.073096625,0,0.661122083000009
128,29,6,categorization,0,bathroom,SHINEd_sun_ambriybtogmepttm.tif,36,0.0666666666666667,0.0666666666666667,0.766666666666667,1553.090156,1553.75133475,9,1553.1565985,1553.221003208,1553.7773245,1554.537330916,0,0.66117875000009
128,30,6,categorization,0,kitchen,SHINEd_sun_awcpdzzznmweyyhv.tif,106,0.0666666666666667,0.0666666666666667,1.45,1554.543045333,1555.219527958,9,1554.604763958,1554.665727708,1555.234182375,1556.677572833,1,0.676482625000062
128,31,6,categorization,0,bathroom,SHINEd_sun_amzlamotzwfkwjco.tif,37,0.0666666666666667,0.0666666666666667,0.75,1556.695776708,1557.317983583,9,1556.761792541,1556.827899875,1557.334150208,1558.0775285,0,0.622206874999847
128,32,6,categorization,0,kitchen,SHINEd_sun_akchetnepxlcxhsu.tif,98,0.0666666666666667,0.0666666666666667,1.36666666666667,1558.093709166,1558.931596875,13,1558.160083416,1558.225717083,1558.94492925,1560.304963333,0,0.837887708999915
128,33,6,categorization,0,bathroom,SHINEd_sun_aofnryafpsjimzsb.tif,40,0.0666666666666667,0.0666666666666667,0.75,1560.323895416,1561.120428083,13,1560.391221333,1560.4569375,1561.147256,1561.890631875,1,0.796532667000065
128,34,6,categorization,0,kitchen,SHINEd_sun_aymvwlarqodbwuoc.tif,108,0.0666666666666667,0.0666666666666667,0.783333333333333,1561.907757458,1562.603709083,9,1561.974769791,1562.03260525,1562.617843375,1563.394515833,1,0.695951624999907
128,35,6,categorization,0,bathroom,SHINEd_sun_aavhrsfjbserjtht.tif,13,0.0666666666666667,0.0666666666666667,1.11666666666667,1563.399375458,1564.202947458,9,1563.461017041,1563.521996333,1564.207221125,1565.317262541,0,0.803572000000031
128,36,6,categorization,0,bathroom,SHINEd_sun_ahcvzmoyaycdoftf.tif,27,0.0666666666666667,0.0666666666666667,0.766666666666667,1565.32657225,1565.997322875,13,1565.391146416,1565.457595375,1566.013120291,1566.773164291,1,0.670750624999982
128,37,6,categorization,0,bathroom,SHINEd_sun_aspsyogrekjtfozg.tif,50,0.0666666666666667,0.0666666666666667,0.716666666666667,1566.788962541,1567.434910333,9,1566.8555385,1566.921486416,1567.439939375,1568.149943833,0,0.645947792000015
128,38,6,categorization,0,kitchen,SHINEd_sun_ajkqhtgcbgpcwrwn.tif,97,0.0666666666666667,0.0666666666666667,1.33333333333333,1568.155435,1569.04263125,9,1568.217042458,1568.278126291,1569.047215291,1570.373925625,1,0.887196250000216
128,39,6,categorization,0,bathroom,SHINEd_sun_ahijqszoswveeyji.tif,28,0.0666666666666667,0.0666666666666667,1.75,1570.391845583,1571.070042916,13,1570.458571375,1570.524495625,1571.09762425,1572.841006416,1,0.678197332999844
128,40,6,categorization,0,bathroom,SHINEd_sun_ausgutylgojavyoq.tif,53,0.0666666666666667,0.0666666666666667,1.13333333333333,1572.857708541,1573.660569458,13,1572.924296041,1572.990727666,1573.680750166,1574.807456166,1,0.802860917000089
128,41,6,categorization,0,bathroom,SHINEd_sun_abapwbhyhkfixyex.tif,14,0.0666666666666667,0.0666666666666667,1.63333333333333,1574.817059333,1575.480877166,9,1574.882090333,1574.9494685,1575.506049583,1577.132772625,0,0.663817832999939
128,42,6,categorization,0,bathroom,SHINEd_sun_apjevzvycyhuqghb.tif,43,0.0666666666666667,0.0666666666666667,1.43333333333333,1577.144602166,1577.852958458,9,1577.2091765,1577.274487,1577.881146083,1579.307859666,0,0.70835629200019
128,43,6,categorization,0,kitchen,SHINEd_sun_aexklacwqwezaorf.tif,84,0.0666666666666667,0.0666666666666667,1.83333333333333,1579.319257708,1580.043477541,9,1579.384028833,1579.451791125,1580.057446208,1581.884136791,1,0.724219833000006
128,44,6,categorization,0,bathroom,SHINEd_sun_axxbkopsgyouuebh.tif,58,0.0666666666666667,0.0666666666666667,1.93333333333333,1581.893664958,1583.125584833,13,1581.960523291,1582.025779125,1583.147375541,1585.074084458,1,1.2319198749999
128,45,6,categorization,0,bathroom,SHINEd_sun_ahaulkltgpkeeemi.tif,26,0.0666666666666667,0.0666666666666667,1.26666666666667,1585.093101166,1586.627131,13,1585.160197166,1585.2232365,1586.642299125,1587.90235275,1,1.53402983399997
128,46,6,categorization,0,bathroom,SHINEd_sun_azqyogdvyhahyram.tif,60,0.0666666666666667,0.0666666666666667,1.86666666666667,1587.920779875,1589.123377375,13,1587.987678875,1588.053420833,1589.143279583,1591.003334,1,1.20259749999991
128,47,6,categorization,0,kitchen,SHINEd_sun_abdenxonkemggwsq.tif,69,0.0666666666666667,0.0666666666666667,1.41666666666667,1591.016526041,1591.679563166,9,1591.083237458,1591.149037625,1591.705328208,1593.115387416,1,0.663037125000074
128,48,6,categorization,0,bathroom,SHINEd_sun_aqrpegblszgcoujh.tif,48,0.0666666666666667,0.0666666666666667,1.11666666666667,1593.133101916,1593.7928325,13,1593.200364125,1593.261261666,1593.817985208,1594.928025458,1,0.659730584000044
128,49,6,categorization,0,bathroom,SHINEd_sun_akiytfaagpdsphgz.tif,31,0.0666666666666667,0.0666666666666667,1.8,1594.939071708,1595.647088833,13,1595.003654208,1595.071782708,1595.661205875,1597.454575375,1,0.708017124999969
128,50,6,categorization,0,kitchen,SHINEd_sun_avszsnwsbuqfgzbn.tif,105,0.0666666666666667,0.0666666666666667,1.25,1597.470965041,1598.072599833,9,1597.537942125,1597.603707458,1598.09372175,1599.337078291,1,0.601634791999913
128,1,7,categorization,0,kitchen,SHINEd_sun_akchetnepxlcxhsu.tif,98,0.0666666666666667,0.0666666666666667,0.883333333333333,1611.599241625,1612.779145333,13,1611.66174075,1611.721875833,1612.791003666,1613.667675208,0,1.17990370799998
128,2,7,categorization,0,bathroom,SHINEd_sun_apkxzenqapsujocq.tif,45,0.0666666666666667,0.0666666666666667,1.03333333333333,1613.672503875,1614.955483,13,1613.734222875,1613.795165791,1614.964268375,1615.990983625,1,1.28297912499988
128,3,7,categorization,0,kitchen,SHINEd_sun_aenotlpyftoioydp.tif,82,0.0666666666666667,0.0666666666666667,1.06666666666667,1616.002148416,1616.646726291,9,1616.067554291,1616.133093041,1616.672790875,1617.732844291,1,0.644577875000095
128,4,7,categorization,0,bathroom,SHINEd_sun_ahcvzmoyaycdoftf.tif,27,0.0666666666666667,0.0666666666666667,0.833333333333333,1617.749259625,1618.450997541,13,1617.816116375,1617.881673708,1618.467479083,1619.294149458,1,0.701737916000184
128,5,7,categorization,0,kitchen,SHINEd_sun_abrcnpqqhmjwekyf.tif,73,0.0666666666666667,0.0666666666666667,0.716666666666667,1619.298778333,1620.242689208,9,1619.360460791,1619.421450041,1620.256843541,1620.966848625,1,0.943910875000029
128,6,7,categorization,0,bathroom,SHINEd_labelme_sfxiulhjbhlyiyt.tif,11,0.0666666666666667,0.0666666666666667,0.733333333333333,1620.971518041,1621.675119791,13,1621.033091208,1621.094127958,1621.67955,1622.406222375,1,0.703601749999962
128,7,7,categorization,0,kitchen,SHINEd_sun_akcjzhbbjlbogpdi.tif,99,0.0666666666666667,0.0666666666666667,1.38333333333333,1622.41107525,1623.074865416,9,1622.472711541,1622.533659875,1623.085718166,1624.462421333,1,0.663790165999899
128,8,7,categorization,0,kitchen,SHINEd_sun_ahpczsiumwwocjkv.tif,92,0.0666666666666667,0.0666666666666667,0.9,1624.479315125,1625.202126416,13,1624.5454885,1624.611876666,1625.216382583,1626.109764125,0,0.722811290999971
128,9,7,categorization,0,bathroom,SHINEd_sun_ambriybtogmepttm.tif,36,0.0666666666666667,0.0666666666666667,0.816666666666667,1626.125960458,1626.819367083,13,1626.188410583,1626.248719875,1626.834226041,1627.644231,1,0.69340662500008
128,10,7,categorization,0,kitchen,SHINEd_sun_aeqdocilnnpuvuhx.tif,83,0.0666666666666667,0.0666666666666667,0.85,1627.648866916,1628.451035,9,1627.710522333,1627.771457,1628.456594666,1629.2999325,1,0.802168083999959
128,11,7,categorization,0,bathroom,SHINEd_sun_aleqenyvunhactkl.tif,32,0.0666666666666667,0.0666666666666667,1.6,1629.3047405,1630.523021083,13,1629.366439583,1629.427385041,1630.529542333,1632.122928625,1,1.21828058300002
128,12,7,categorization,0,bathroom,SHINEd_sun_ahqjwnzgolcaoidx.tif,29,0.0666666666666667,0.0666666666666667,1.75,1632.140035541,1632.712041666,9,1632.206868416,1632.272774291,1632.728488625,1634.471862333,0,0.572006124999916
128,13,7,categorization,0,bathroom,SHINEd_sun_abapwbhyhkfixyex.tif,14,0.0666666666666667,0.0666666666666667,1.1,1634.489739583,1635.794571416,9,1634.556339416,1634.622120041,1635.81127675,1636.904659208,0,1.30483183299998
128,14,7,categorization,0,bathroom,SHINEd_sun_apkruvsevgegsdwp.tif,44,0.0666666666666667,0.0666666666666667,1.46666666666667,1636.91521,1638.316170291,13,1636.98014275,1637.047615625,1638.340002416,1639.800057958,1,1.40096029100005
128,15,7,categorization,0,bathroom,SHINEd_sun_agyqfjcfkdcydepw.tif,25,0.0666666666666667,0.0666666666666667,1.25,1639.817879333,1640.84738,9,1639.884310208,1639.950577041,1640.873995875,1642.117368875,0,1.02950066699987
128,16,7,categorization,0,bathroom,SHINEd_sun_awnqiikzaispgmwo.tif,56,0.0666666666666667,0.0666666666666667,1.13333333333333,1642.135185708,1642.791003958,13,1642.20147,1642.268008125,1642.807438208,1643.934148958,1,0.655818249999811
128,17,7,categorization,0,bathroom,SHINEd_sun_ahijqszoswveeyji.tif,28,0.0666666666666667,0.0666666666666667,1.33333333333333,1643.951527375,1644.691321291,9,1644.014314791,1644.074267791,1644.709357458,1646.036070625,0,0.739793915999826
128,18,7,categorization,0,bathroom,SHINEd_sun_avhrdrntsqrjzccq.tif,55,0.0666666666666667,0.0666666666666667,1.86666666666667,1646.048616625,1647.019005958,9,1646.115178333,1646.181133666,1647.036763708,1648.89679775,0,0.970389332999957
128,19,7,categorization,0,bathroom,SHINEd_sun_acduarbnmmoglmiv.tif,16,0.0666666666666667,0.0666666666666667,1.58333333333333,1648.91587525,1649.664495166,13,1648.982252333,1649.048132375,1649.688194208,1651.264907375,1,0.748619916000052
128,20,7,categorization,0,kitchen,SHINEd_sun_aapllqyqlykszopd.tif,66,0.0666666666666667,0.0666666666666667,1.05,1651.276014791,1652.310610375,9,1651.343039458,1651.407152666,1652.329836708,1653.373224583,1,1.03459558399982
128,21,7,categorization,0,bathroom,SHINEd_sun_aofnryafpsjimzsb.tif,40,0.0666666666666667,0.0666666666666667,0.9,1653.381661125,1654.516865083,9,1653.445614625,1653.5121005,1654.537661625,1655.431013041,0,1.13520395800015
128,22,7,categorization,0,kitchen,SHINEd_sun_aqeaevwwwjoqhzvl.tif,101,0.0666666666666667,0.0666666666666667,0.7,1655.4377245,1656.115111333,9,1655.499452583,1655.560480125,1656.129167458,1656.8225055,1,0.6773868329999
128,23,7,categorization,0,kitchen,SHINEd_sun_aypmqwcualkenuoe.tif,109,0.0666666666666667,0.0666666666666667,0.933333333333333,1656.827270166,1657.491226583,9,1656.888974333,1656.949908833,1657.501749791,1658.428421166,1,0.663956417000009
128,24,7,categorization,0,kitchen,SHINEd_sun_aehawpgmrlhlvcow.tif,81,0.0666666666666667,0.0666666666666667,1.95,1658.433063916,1659.2983075,9,1658.494696791,1658.555602541,1659.307543666,1661.250928708,1,0.865243583999927
128,25,7,categorization,0,bathroom,SHINEd_sun_azqyogdvyhahyram.tif,60,0.0666666666666667,0.0666666666666667,1.06666666666667,1661.261164458,1661.911574416,13,1661.325935916,1661.392096208,1661.931776166,1662.991816958,1,0.650409957999955
128,26,7,categorization,0,bathroom,SHINEd_sun_aljolscmmzydegqp.tif,33,0.0666666666666667,0.0666666666666667,1.2,1663.000435375,1663.700142791,13,1663.065251166,1663.1298905,1663.718942208,1664.912329916,1,0.69970741599991
128,27,7,categorization,0,bathroom,SHINEd_sun_aapitsgbtktqubfy.tif,12,0.0666666666666667,0.0666666666666667,0.75,1664.928994666,1665.923220416,13,1664.993783708,1665.053177583,1665.938475625,1666.681813875,1,0.994225749999941
128,28,7,categorization,0,bathroom,SHINEd_sun_ajlawzvmubibwbpy.tif,30,0.0666666666666667,0.0666666666666667,0.816666666666667,1666.686448625,1667.571119125,13,1666.748140833,1666.809002208,1667.577670791,1668.387676041,1,0.884670500000084
128,29,7,categorization,0,bathroom,SHINEd_sun_aqrpegblszgcoujh.tif,48,0.0666666666666667,0.0666666666666667,1.96666666666667,1668.392497333,1669.882412833,9,1668.454154291,1668.515092791,1669.900592416,1671.86062675,0,1.48991550000005
128,30,7,categorization,0,bathroom,SHINEd_sun_axxbkopsgyouuebh.tif,58,0.0666666666666667,0.0666666666666667,1.2,1671.878392041,1672.604878375,13,1671.9446075,1672.011039708,1672.633981541,1673.827352958,1,0.726486333999901
128,31,7,categorization,0,bathroom,SHINEd_sun_acgyywnybuveqsro.tif,18,0.0666666666666667,0.0666666666666667,0.883333333333333,1673.837119416,1674.492094708,13,1673.903739541,1673.96938475,1674.508803458,1675.385512333,1,0.654975292000017
128,32,7,categorization,0,bathroom,SHINEd_sun_aoybiabnpadelefl.tif,41,0.0666666666666667,0.0666666666666667,1.33333333333333,1675.394920041,1676.274585458,13,1675.461553166,1675.527232333,1676.279675125,1677.60638875,1,0.879665417000069
128,33,7,categorization,0,bathroom,SHINEd_sun_aavhrsfjbserjtht.tif,13,0.0666666666666667,0.0666666666666667,1.45,1677.6191355,1678.86049,9,1677.686636458,1677.751655583,1678.873890166,1680.317272708,0,1.24135449999994
128,34,7,categorization,0,kitchen,SHINEd_sun_agubuxuukhzyzpdp.tif,88,0.0666666666666667,0.0666666666666667,1.15,1680.334135166,1681.004004166,9,1680.400981416,1680.466678791,1681.02287625,1682.166260625,1,0.669869000000062
128,35,7,categorization,0,bathroom,SHINEd_sun_alotolagknyrgtsk.tif,35,0.0666666666666667,0.0666666666666667,0.966666666666667,1682.176797,1682.837526291,9,1682.241169125,1682.309414625,1682.865854958,1683.825889875,0,0.660729290999825
128,36,7,categorization,0,bathroom,SHINEd_sun_aclfzgynxzxlbepz.tif,19,0.0666666666666667,0.0666666666666667,1.45,1683.842070916,1684.522819708,13,1683.908473458,1683.974463291,1684.5264365,1685.96982225,1,0.680748792000031
128,37,7,categorization,0,bathroom,SHINEd_sun_asfwthctfqerjvxr.tif,49,0.0666666666666667,0.0666666666666667,0.8,1685.987095458,1686.78835275,13,1686.053717041,1686.119569708,1686.809191166,1687.602568333,1,0.801257291999946
128,38,7,categorization,0,kitchen,SHINEd_sun_awcpdzzznmweyyhv.tif,106,0.0666666666666667,0.0666666666666667,1.45,1687.618110583,1688.234410625,9,1687.6807115,1687.740783041,1688.242816583,1689.686195416,1,0.616300041999921
128,39,7,categorization,0,bathroom,SHINEd_sun_agrwbmhcpmfuwmsg.tif,24,0.0666666666666667,0.0666666666666667,1.1,1689.702417458,1690.491591458,13,1689.769291041,1689.834801875,1690.507146833,1691.600513333,1,0.789174000000003
128,40,7,categorization,0,kitchen,SHINEd_sun_auaiucuqpdausiva.tif,102,0.0666666666666667,0.0666666666666667,1.16666666666667,1691.608513958,1692.550623083,9,1691.673334708,1691.741002833,1692.581124083,1693.74116925,1,0.942109124999888
128,41,7,categorization,0,kitchen,SHINEd_sun_auticobqsbwgoppi.tif,104,0.0666666666666667,0.0666666666666667,1.31666666666667,1693.756623416,1694.796380375,9,1693.82312225,1693.888871416,1694.811244958,1696.121279458,1,1.03975695899999
128,42,7,categorization,0,kitchen,SHINEd_sun_ajkqhtgcbgpcwrwn.tif,97,0.0666666666666667,0.0666666666666667,1.68333333333333,1696.137751875,1696.76507225,9,1696.205320375,1696.270241916,1696.79349875,1698.470208791,1,0.627320374999954
128,43,7,categorization,0,kitchen,SHINEd_sun_abftihopvusyfakt.tif,71,0.0666666666666667,0.0666666666666667,0.966666666666667,1698.483052166,1699.116933041,9,1698.550271583,1698.615495125,1699.138676,1700.0986865,1,0.633880874999932
128,44,7,categorization,0,bathroom,SHINEd_sun_aggnnqpdorgxpvce.tif,21,0.0666666666666667,0.0666666666666667,1.4,1700.104567166,1700.84255975,9,1700.166281791,1700.227216333,1700.845977458,1702.239343833,0,0.73799258400004
128,45,7,categorization,0,kitchen,SHINEd_sun_abdenxonkemggwsq.tif,69,0.0666666666666667,0.0666666666666667,0.783333333333333,1702.255754541,1702.917559958,9,1702.3221455,1702.38831775,1702.94474975,1703.72145075,1,0.661805417000096
128,46,7,categorization,0,kitchen,SHINEd_sun_acfmftudsenhrfhy.tif,74,0.0666666666666667,0.0666666666666667,1.08333333333333,1703.738105083,1704.434073166,9,1703.804614666,1703.870509625,1704.439179,1705.515902291,1,0.695968083000025
128,47,7,categorization,0,kitchen,SHINEd_sun_avszsnwsbuqfgzbn.tif,105,0.0666666666666667,0.0666666666666667,1.43333333333333,1705.525244375,1706.254634041,9,1705.589630541,1705.657024958,1706.27954825,1707.706251208,1,0.729389665999861
128,48,7,categorization,0,kitchen,SHINEd_sun_aymvwlarqodbwuoc.tif,108,0.0666666666666667,0.0666666666666667,1.75,1707.72390475,1708.514245958,9,1707.791590708,1707.856463958,1708.528681416,1710.272068541,1,0.790341207999973
128,49,7,categorization,0,kitchen,SHINEd_sun_aaxxjlsuzvqlgylf.tif,68,0.0666666666666667,0.0666666666666667,1.21666666666667,1710.29003225,1710.95940475,9,1710.356687791,1710.422317666,1710.978647125,1712.18869925,1,0.669372500000009
128,50,7,categorization,0,bathroom,SHINEd_sun_akiytfaagpdsphgz.tif,31,0.0666666666666667,0.0666666666666667,1.31666666666667,1712.206094875,1713.258359375,9,1712.272468333,1712.333438708,1713.271235041,1714.581288208,0,1.05226450000009
128,1,8,categorization,0,bathroom,SHINEd_sun_auzqhkafidnkrwmo.tif,54,0.0666666666666667,0.0666666666666667,1.18333333333333,1856.285247416,1857.713670666,13,1856.347673708,1856.408140625,1857.727444125,1858.904165875,1,1.42842325000015
128,2,8,categorization,0,kitchen,SHINEd_sun_azmutvzbxypaceni.tif,110,0.0666666666666667,0.0666666666666667,0.983333333333333,1858.915258375,1859.635730958,9,1858.981827833,1859.047597416,1859.65413775,1860.630835125,1,0.720472583000173
128,3,8,categorization,0,kitchen,SHINEd_sun_ahspylgoovwmwvgk.tif,93,0.0666666666666667,0.0666666666666667,1.65,1860.648029125,1861.473927666,9,1860.7149885,1860.781194916,1861.483421833,1863.1267975,1,0.825898541000015
128,4,8,categorization,0,bathroom,SHINEd_sun_ahaulkltgpkeeemi.tif,26,0.0666666666666667,0.0666666666666667,1.23333333333333,1863.143165,1863.766721291,13,1863.208031958,1863.272444375,1863.795724541,1865.022450791,1,0.623556291000114
128,5,8,categorization,0,bathroom,SHINEd_sun_apjevzvycyhuqghb.tif,43,0.0666666666666667,0.0666666666666667,0.916666666666667,1865.039054125,1866.014477708,13,1865.105592166,1865.171528666,1866.02716425,1866.937171666,1,0.975423583000065
128,6,8,categorization,0,kitchen,SHINEd_sun_aunzlwrbjumxhwdj.tif,103,0.0666666666666667,0.0666666666666667,1.56666666666667,1866.942829083,1867.633435583,9,1867.004577208,1867.065497583,1867.650783041,1869.210796041,1,0.690606499999831
128,7,8,categorization,0,bathroom,SHINEd_sun_amzlamotzwfkwjco.tif,37,0.0666666666666667,0.0666666666666667,1.63333333333333,1869.219780041,1870.092638208,9,1869.284569541,1869.347090125,1870.120516541,1871.747220958,0,0.872858167000004
128,8,8,categorization,0,bathroom,SHINEd_sun_apeeialkgkuxddgh.tif,42,0.0666666666666667,0.0666666666666667,1.1,1871.76559425,1872.483173208,13,1871.832711875,1871.898281875,1872.505439958,1873.598811,1,0.717578957999876
128,9,8,categorization,0,bathroom,SHINEd_sun_anryaplzeujmzfkd.tif,39,0.0666666666666667,0.0666666666666667,1.38333333333333,1873.6089295,1874.81029775,13,1873.674067333,1873.741235958,1874.832384875,1876.209111333,1,1.20136825000009
128,10,8,categorization,0,kitchen,SHINEd_sun_aegoxogugdkwpmpj.tif,80,0.0666666666666667,0.0666666666666667,0.766666666666667,1876.22656975,1877.949490916,13,1876.293467458,1876.3588405,1877.965534416,1878.725540708,0,1.72292116600011
128,11,8,categorization,0,bathroom,SHINEd_sun_axldvoqbuvuggfmq.tif,57,0.0666666666666667,0.0666666666666667,1.45,1878.731063125,1880.585747375,13,1878.792898166,1878.853668458,1880.58924125,1882.032627625,1,1.85468424999999
128,12,8,categorization,0,kitchen,SHINEd_sun_ahljzhgcdpomplvg.tif,91,0.0666666666666667,0.0666666666666667,0.983333333333333,1882.050797791,1882.770398541,9,1882.117552333,1882.183084458,1882.789362,1883.766035875,1,0.719600750000154
128,13,8,categorization,0,bathroom,SHINEd_sun_abjtwfukuwddzted.tif,15,0.0666666666666667,0.0666666666666667,0.716666666666667,1883.771889291,1885.114024333,13,1883.833615958,1883.894519208,1885.130509458,1885.840513958,1,1.34213504200011
128,14,8,categorization,0,bathroom,SHINEd_sun_apmqjbnwghzuhhzh.tif,46,0.0666666666666667,0.0666666666666667,1.41666666666667,1885.846378208,1887.578015833,13,1885.908119791,1885.969043625,1887.58789875,1888.997937916,1,1.73163762500008
128,15,8,categorization,0,kitchen,SHINEd_sun_abdxkyyxwfskuaqb.tif,70,0.0666666666666667,0.0666666666666667,1.21666666666667,1889.015716583,1890.429350625,9,1889.081984083,1889.148010041,1890.457164041,1891.667220458,1,1.41363404200001
128,16,8,categorization,0,kitchen,SHINEd_sun_aadbddgrdsjugojn.tif,64,0.0666666666666667,0.0666666666666667,1.61666666666667,1891.683628333,1892.326366875,9,1891.750622541,1891.815934708,1892.355260041,1893.965300291,1,0.642738542000188
128,17,8,categorization,0,kitchen,SHINEd_sun_ajcbwwvdlsvjyzje.tif,96,0.0666666666666667,0.0666666666666667,0.783333333333333,1893.983362666,1894.809761625,13,1894.05003725,1894.115661041,1894.838707833,1895.615421541,0,0.826398959000016
128,18,8,categorization,0,kitchen,SHINEd_sun_acgtpgfybqjmzeyw.tif,75,0.0666666666666667,0.0666666666666667,1.98333333333333,1895.631752458,1896.561737166,9,1895.698365458,1895.755994625,1896.574821916,1898.551523958,1,0.92998470800012
128,19,8,categorization,0,kitchen,SHINEd_sun_aamedkxepzlwuxes.tif,65,0.0666666666666667,0.0666666666666667,0.983333333333333,1898.568618458,1899.362609291,13,1898.633772833,1898.701044583,1899.371841375,1900.348514875,0,0.793990832999953
128,20,8,categorization,0,bathroom,SHINEd_sun_axyrejkiiaqiurjk.tif,59,0.0666666666666667,0.0666666666666667,0.8,1900.353419625,1901.314006291,9,1900.415098541,1900.476097541,1901.327802125,1902.121140291,0,0.960586665999926
128,21,8,categorization,0,kitchen,SHINEd_labelme_brsyyvweiuaazfr.tif,61,0.0666666666666667,0.0666666666666667,0.733333333333333,1902.125991375,1902.970015625,9,1902.187824041,1902.248585791,1902.984147416,1903.7108195,1,0.844024250000075
128,22,8,categorization,0,kitchen,SHINEd_sun_axyyrmzcupyhlivc.tif,107,0.0666666666666667,0.0666666666666667,0.966666666666667,1903.715532416,1904.353927041,9,1903.777300291,1903.838074416,1904.373417375,1905.333422541,1,0.638394624999819
128,23,8,categorization,0,kitchen,SHINEd_sun_aixorpehvfykdynp.tif,95,0.0666666666666667,0.0666666666666667,0.866666666666667,1905.338072041,1906.122087,9,1905.399837916,1905.460811833,1906.129245208,1906.989248875,1,0.784014958999933
128,24,8,categorization,0,kitchen,SHINEd_sun_aexklacwqwezaorf.tif,84,0.0666666666666667,0.0666666666666667,1.23333333333333,1906.993907583,1907.713604166,9,1907.055569458,1907.11654275,1907.718252666,1908.94497475,1,0.719696583000086
128,25,8,categorization,0,bathroom,SHINEd_sun_agguqiubmwhqqunb.tif,22,0.0666666666666667,0.0666666666666667,1.9,1908.956858791,1909.618325833,9,1909.023111833,1909.089366791,1909.645921791,1911.539432208,0,0.661467041999913
128,26,8,categorization,0,bathroom,SHINEd_sun_aspsyogrekjtfozg.tif,50,0.0666666666666667,0.0666666666666667,0.866666666666667,1911.553244083,1912.260706166,9,1911.619692083,1911.685682333,1912.2745835,1913.134590916,0,0.707462083000109
128,27,8,categorization,0,bathroom,SHINEd_sun_aunuadmjocsddsrl.tif,52,0.0666666666666667,0.0666666666666667,0.966666666666667,1913.140288916,1913.93792175,9,1913.201905708,1913.262963,1913.948150708,1914.908156166,0,0.797632834000069
128,28,8,categorization,0,kitchen,SHINEd_sun_agorklincwxrdtga.tif,87,0.0666666666666667,0.0666666666666667,0.916666666666667,1914.912811833,1915.570124625,9,1914.974623125,1915.035404125,1915.587153958,1916.497158333,1,0.657312792000084
128,29,8,categorization,0,kitchen,SHINEd_sun_admlmbcdswaszruo.tif,79,0.0666666666666667,0.0666666666666667,0.916666666666667,1916.501980583,1917.114189166,9,1916.563612416,1916.624542625,1917.1264735,1918.036478083,1,0.612208582999983
128,30,8,categorization,0,bathroom,SHINEd_sun_apynckhmoftszqoq.tif,47,0.0666666666666667,0.0666666666666667,1.4,1918.041184041,1918.937158458,9,1918.102784,1918.163725458,1918.949382583,1920.342768,0,0.895974417000161
128,31,8,categorization,0,kitchen,SHINEd_sun_aarfiyshqohlwkmo.tif,67,0.0666666666666667,0.0666666666666667,1.75,1920.360762041,1921.292254916,9,1920.426840208,1920.492726125,1921.314684375,1923.058067,1,0.931492875000004
128,32,8,categorization,0,kitchen,SHINEd_sun_afuyedyxivkhecmu.tif,85,0.0666666666666667,0.0666666666666667,1.25,1923.073396833,1923.846631125,9,1923.140134333,1923.205088041,1923.860755625,1925.104145,1,0.77323429199987
128,33,8,categorization,0,bathroom,SHINEd_sun_anhioqovhscjqqwb.tif,38,0.0666666666666667,0.0666666666666667,1.05,1925.121836,1925.661104833,13,1925.188620041,1925.250072916,1925.689891083,1926.733261916,1,0.539268833000051
128,34,8,categorization,0,kitchen,SHINEd_sun_amjjdeyrggfqgmom.tif,100,0.0666666666666667,0.0666666666666667,1.06666666666667,1926.748798416,1927.385875458,9,1926.815456416,1926.881113958,1927.399709416,1928.459761125,1,0.637077042000101
128,35,8,categorization,0,kitchen,SHINEd_labelme_kxvouciolcpqplr.tif,62,0.0666666666666667,0.0666666666666667,1.21666666666667,1928.467614583,1929.796780333,9,1928.532044791,1928.597349333,1929.820569375,1931.030624375,1,1.3291657499999
128,36,8,categorization,0,kitchen,SHINEd_sun_abpwyqmlzafvklqo.tif,72,0.0666666666666667,0.0666666666666667,0.95,1931.048517833,1931.941626833,9,1931.114662583,1931.180731375,1931.970633666,1932.913972375,1,0.893109000000095
128,37,8,categorization,0,bathroom,SHINEd_sun_afcoljnjfoxjtgja.tif,20,0.0666666666666667,0.0666666666666667,0.9,1932.919749,1933.633147041,9,1932.98146925,1933.042432625,1933.644407125,1934.537746416,0,0.713398041000119
128,38,8,categorization,0,bathroom,SHINEd_sun_aghyqhbptboemmoq.tif,23,0.0666666666666667,0.0666666666666667,1.78333333333333,1934.542438916,1935.945740541,13,1934.604539916,1934.665145125,1935.950976708,1937.727679083,1,1.40330162500004
128,39,8,categorization,0,kitchen,SHINEd_sun_ahdycvpopffkzzsu.tif,90,0.0666666666666667,0.0666666666666667,1.16666666666667,1937.74497225,1938.391452333,9,1937.811601208,1937.877557583,1938.416674416,1939.576726708,1,0.646480082999915
128,40,8,categorization,0,bathroom,SHINEd_sun_ausgutylgojavyoq.tif,53,0.0666666666666667,0.0666666666666667,0.783333333333333,1939.585837708,1940.6184185,13,1939.652146583,1939.718107666,1940.641477041,1941.4181995,1,1.03258079199986
128,41,8,categorization,0,kitchen,SHINEd_sun_agzzivivdpnawacl.tif,89,0.0666666666666667,0.0666666666666667,1.23333333333333,1941.432605375,1942.265757916,9,1941.499112291,1941.557411791,1942.276103791,1943.5028085,1,0.83315254099989
128,42,8,categorization,0,kitchen,SHINEd_sun_adgqasybjyktddhj.tif,78,0.0666666666666667,0.0666666666666667,0.9,1943.514533333,1944.258055666,9,1943.581438666,1943.647129041,1944.287039666,1945.18041175,1,0.743522333000101
128,43,8,categorization,0,kitchen,SHINEd_sun_acxkpeoqbwcxfvip.tif,77,0.0666666666666667,0.0666666666666667,0.7,1945.197454583,1946.1053815,9,1945.262428,1945.323053208,1946.125355083,1946.81869275,1,0.907926916999941
128,44,8,categorization,0,kitchen,SHINEd_sun_acwjdupvyjsugpay.tif,76,0.0666666666666667,0.0666666666666667,1.23333333333333,1946.823367916,1947.52147775,9,1946.885003958,1946.945930625,1947.530905125,1948.75761225,1,0.698109833999979
128,45,8,categorization,0,bathroom,SHINEd_sun_acegryoqftbzowsg.tif,17,0.0666666666666667,0.0666666666666667,1,1948.7731095,1949.703075125,9,1948.839678333,1948.905429041,1949.728276166,1950.721618833,0,0.929965625000023
128,46,8,categorization,0,kitchen,SHINEd_sun_ahywdevtimnqcsln.tif,94,0.0666666666666667,0.0666666666666667,1.38333333333333,1950.727233375,1951.44157125,9,1950.788985125,1950.849774666,1951.451678625,1952.828389166,1,0.714337874999956
128,47,8,categorization,0,bathroom,SHINEd_sun_alkosphxlxwjwgjd.tif,34,0.0666666666666667,0.0666666666666667,1.3,1952.845052833,1953.578083958,13,1952.911421916,1952.977446125,1953.600148541,1954.893515875,1,0.733031125000025
128,48,8,categorization,0,kitchen,SHINEd_sun_aggjlwcdjsjcaemh.tif,86,0.0666666666666667,0.0666666666666667,0.833333333333333,1954.909476416,1955.599044916,9,1954.975713125,1955.041710541,1955.614044916,1956.440755041,1,0.68956849999995
128,49,8,categorization,0,kitchen,SHINEd_labelme_rykdqxenmhulbdn.tif,63,0.0666666666666667,0.0666666666666667,0.95,1956.456207,1957.689528583,9,1956.522762375,1956.588535625,1957.707196833,1958.650535,1,1.23332158300013
128,50,8,categorization,0,bathroom,SHINEd_sun_atstyziqcmkahyxk.tif,51,0.0666666666666667,0.0666666666666667,1.43333333333333,1958.655216625,1959.449421583,13,1958.716880958,1958.777740833,1959.462845833,1960.889552166,1,0.794204957999909
128,1,9,categorization,0,bathroom,SHINEd_sun_aqrpegblszgcoujh.tif,48,0.0666666666666667,0.0666666666666667,1.08333333333333,1968.670274208,1970.409411083,13,1968.732765583,1968.793183541,1970.428834333,1971.505556416,1,1.73913687499999
128,2,9,categorization,0,bathroom,SHINEd_sun_agguqiubmwhqqunb.tif,22,0.0666666666666667,0.0666666666666667,0.8,1971.513825958,1972.683544666,13,1971.578444041,1971.645922958,1972.704245583,1973.497586916,1,1.16971870799989
128,3,9,categorization,0,bathroom,SHINEd_sun_apynckhmoftszqoq.tif,47,0.0666666666666667,0.0666666666666667,0.833333333333333,1973.503296,1974.457990875,9,1973.565111541,1973.625896291,1974.461431125,1975.288101375,0,0.954694874999859
128,4,9,categorization,0,bathroom,SHINEd_sun_apkruvsevgegsdwp.tif,44,0.0666666666666667,0.0666666666666667,1.45,1975.292834916,1975.993817916,13,1975.3545885,1975.415499041,1976.000877791,1977.444261625,1,0.700982999999951
128,5,9,categorization,0,bathroom,SHINEd_sun_aofnryafpsjimzsb.tif,40,0.0666666666666667,0.0666666666666667,1.3,1977.464143958,1978.186979458,13,1977.530373416,1977.597046916,1978.202576041,1979.495945625,1,0.722835499999974
128,6,9,categorization,0,kitchen,SHINEd_sun_aymvwlarqodbwuoc.tif,108,0.0666666666666667,0.0666666666666667,1.21666666666667,1979.514172625,1980.309181333,9,1979.580499708,1979.647167083,1980.33679675,1981.546846333,1,0.795008708000069
128,7,9,categorization,0,bathroom,SHINEd_sun_ahijqszoswveeyji.tif,28,0.0666666666666667,0.0666666666666667,0.733333333333333,1981.563784666,1982.6296045,9,1981.630507833,1981.696776625,1982.653244083,1983.379955125,0,1.06581983399997
128,8,9,categorization,0,bathroom,SHINEd_sun_ahqjwnzgolcaoidx.tif,29,0.0666666666666667,0.0666666666666667,1.03333333333333,1983.389339125,1984.433465333,13,1983.452097375,1983.511955833,1984.447787833,1985.474507125,1,1.04412620799985
128,9,9,categorization,0,kitchen,SHINEd_sun_abpwyqmlzafvklqo.tif,72,0.0666666666666667,0.0666666666666667,1.1,1985.48358175,1986.280963541,9,1985.547642458,1985.614916208,1986.304637541,1987.398030083,1,0.797381790999907
128,10,9,categorization,0,kitchen,SHINEd_sun_akcjzhbbjlbogpdi.tif,99,0.0666666666666667,0.0666666666666667,1.25,1987.408998833,1988.168969166,9,1987.475274416,1987.541325583,1988.177133541,1989.420502,1,0.759970332999956
128,11,9,categorization,0,kitchen,SHINEd_sun_aixorpehvfykdynp.tif,95,0.0666666666666667,0.0666666666666667,1.4,1989.431244958,1990.141568041,9,1989.49644075,1989.563940416,1990.171007,1991.564397166,1,0.710323083000048
128,12,9,categorization,0,bathroom,SHINEd_sun_acgyywnybuveqsro.tif,18,0.0666666666666667,0.0666666666666667,1.43333333333333,1991.580986291,1992.239253916,13,1991.647404,1991.7139655,1992.252921708,1993.6796405,1,0.658267625000008
128,13,9,categorization,0,kitchen,SHINEd_sun_aenotlpyftoioydp.tif,82,0.0666666666666667,0.0666666666666667,1.26666666666667,1993.697073,1994.323886625,9,1993.764024166,1993.829364666,1994.352678125,1995.612720125,1,0.626813624999841
128,14,9,categorization,0,kitchen,SHINEd_sun_adgqasybjyktddhj.tif,78,0.0666666666666667,0.0666666666666667,0.916666666666667,1995.63047925,1996.312628375,9,1995.697323541,1995.763763041,1996.337173375,1997.247199666,1,0.682149125000024
128,15,9,categorization,0,kitchen,SHINEd_labelme_brsyyvweiuaazfr.tif,61,0.0666666666666667,0.0666666666666667,1.05,1997.25691475,1998.489783625,9,1997.322281041,1997.382746208,1998.501951583,1999.545325541,1,1.23286887499989
128,16,9,categorization,0,bathroom,SHINEd_sun_aunuadmjocsddsrl.tif,52,0.0666666666666667,0.0666666666666667,1.53333333333333,1999.553481583,2000.323141541,9,1999.61814625,1999.684261541,2000.340520291,2001.8672415,0,0.769659958000148
128,17,9,categorization,0,kitchen,SHINEd_sun_admlmbcdswaszruo.tif,79,0.0666666666666667,0.0666666666666667,1.11666666666667,2001.883432583,2002.474501666,9,2001.949968541,2002.016228625,2002.488594958,2003.598647166,1,0.591069082999866
128,18,9,categorization,0,kitchen,SHINEd_sun_awcpdzzznmweyyhv.tif,106,0.0666666666666667,0.0666666666666667,1.05,2003.612928291,2004.297262875,9,2003.677016625,2003.736596916,2004.305332625,2005.348704916,1,0.684334583999998
128,19,9,categorization,0,bathroom,SHINEd_sun_agrwbmhcpmfuwmsg.tif,24,0.0666666666666667,0.0666666666666667,1.66666666666667,2005.356235208,2006.268529458,9,2005.42039925,2005.486921333,2006.293241583,2007.953293208,0,0.912294250000059
128,20,9,categorization,0,kitchen,SHINEd_sun_acwjdupvyjsugpay.tif,76,0.0666666666666667,0.0666666666666667,1.98333333333333,2007.97142325,2008.646384041,9,2008.038147708,2008.103724083,2008.6591975,2010.635900875,1,0.674960790999876
128,21,9,categorization,0,bathroom,SHINEd_sun_ahcvzmoyaycdoftf.tif,27,0.0666666666666667,0.0666666666666667,1.06666666666667,2010.653403041,2011.427226791,13,2010.720060875,2010.785920875,2011.441722833,2012.50177625,1,0.77382375000002
128,22,9,categorization,0,bathroom,SHINEd_sun_axyrejkiiaqiurjk.tif,59,0.0666666666666667,0.0666666666666667,1.31666666666667,2012.511901583,2013.829666,9,2012.576822916,2012.643047083,2013.852900416,2015.162941791,0,1.31776441700003
128,23,9,categorization,0,kitchen,SHINEd_sun_akchetnepxlcxhsu.tif,98,0.0666666666666667,0.0666666666666667,1.78333333333333,2015.181399666,2016.013366541,9,2015.246440833,2015.311268625,2016.034831291,2017.811530375,1,0.831966875000035
128,24,9,categorization,0,kitchen,SHINEd_sun_aypmqwcualkenuoe.tif,109,0.0666666666666667,0.0666666666666667,0.816666666666667,2017.830711375,2019.385141875,9,2017.897212583,2017.962897416,2019.398434333,2020.208438291,1,1.55443050000008
