sub_num,trial,block,task,is_practice,category,image,texture,duration,mask_dur,jitter,stim_time,time_of_resp,trial_response,mask_time,fix_time,jit_onset,trial_end,trial_accuracy,RT
128,1,16,categorization,0,bathroom,SHINEd_sun_afcoljnjfoxjtgja.tif,20,0.0666666666666667,0.0666666666666667,1.56666666666667,2791.77129375,2792.670505083,13,2791.833914791,2791.89396275,2792.679364083,2794.239405625,1,0.899211333000039
128,2,16,categorization,0,kitchen,SHINEd_sun_awcpdzzznmweyyhv.tif,106,0.0666666666666667,0.0666666666666667,1.38333333333333,2794.257858875,2794.899908375,9,2794.325121791,2794.390739541,2794.912870333,2796.289578083,1,0.642049500000212
128,3,16,categorization,0,kitchen,SHINEd_sun_aypmqwcualkenuoe.tif,109,0.0666666666666667,0.0666666666666667,1.95,2796.307267916,2796.980131041,9,2796.374262041,2796.440060916,2796.995774416,2798.939164625,1,0.672863124999822
128,4,16,categorization,0,kitchen,SHINEd_sun_aeqdocilnnpuvuhx.tif,83,0.0666666666666667,0.0666666666666667,0.833333333333333,2798.953537208,2800.05652575,9,2799.02037325,2799.08607775,2800.075511375,2800.902184791,1,1.10298854200028
128,5,16,categorization,0,kitchen,SHINEd_sun_aexklacwqwezaorf.tif,84,0.0666666666666667,0.0666666666666667,1.06666666666667,2800.908402166,2801.670185291,9,2800.970125541,2801.031048666,2801.682776375,2802.742825458,1,0.761783124999965
128,6,16,categorization,0,bathroom,SHINEd_sun_apjevzvycyhuqghb.tif,43,0.0666666666666667,0.0666666666666667,1.15,2802.751147708,2803.32153175,9,2802.815353958,2802.881544625,2803.337242833,2804.480628958,0,0.57038404199966
128,7,16,categorization,0,bathroom,SHINEd_sun_ausgutylgojavyoq.tif,53,0.0666666666666667,0.0666666666666667,0.866666666666667,2804.496879458,2805.181648125,13,2804.563298041,2804.629513916,2805.198666333,2806.058670541,1,0.684768666999844
128,8,16,categorization,0,bathroom,SHINEd_sun_akiytfaagpdsphgz.tif,31,0.0666666666666667,0.0666666666666667,1.03333333333333,2806.063524208,2806.974502083,13,2806.125201333,2806.186145833,2806.988389291,2808.015094291,1,0.910977874999844
128,9,16,categorization,0,bathroom,SHINEd_sun_aggnnqpdorgxpvce.tif,21,0.0666666666666667,0.0666666666666667,1.85,2808.026219291,2809.666662625,9,2808.091280791,2808.157438583,2809.699544833,2811.542933416,0,1.64044333399988
128,10,16,categorization,0,kitchen,SHINEd_labelme_brsyyvweiuaazfr.tif,61,0.0666666666666667,0.0666666666666667,1.25,2811.561204833,2812.280251416,9,2811.627978333,2811.694038666,2812.300553625,2813.543946958,1,0.719046582999908
128,11,16,categorization,0,bathroom,SHINEd_sun_avhrdrntsqrjzccq.tif,55,0.0666666666666667,0.0666666666666667,1.55,2813.560689458,2814.4652715,9,2813.627522708,2813.69343275,2814.483191291,2816.026572166,0,0.904582042000129
128,12,16,categorization,0,kitchen,SHINEd_sun_aapllqyqlykszopd.tif,66,0.0666666666666667,0.0666666666666667,0.933333333333333,2816.042532291,2816.615194375,13,2816.109321875,2816.175180291,2816.631492458,2817.558173,0,0.572662084000058
128,13,16,categorization,0,bathroom,SHINEd_sun_acegryoqftbzowsg.tif,17,0.0666666666666667,0.0666666666666667,1.3,2817.56450275,2818.30194325,13,2817.626293833,2817.687211416,2818.305667666,2819.5990565,1,0.737440500000048
128,14,16,categorization,0,kitchen,SHINEd_sun_auaiucuqpdausiva.tif,102,0.0666666666666667,0.0666666666666667,0.883333333333333,2819.615015375,2820.553795541,13,2819.681507375,2819.747275541,2820.570100541,2821.446772416,0,0.938780166000015
128,15,16,categorization,0,kitchen,SHINEd_labelme_kxvouciolcpqplr.tif,62,0.0666666666666667,0.0666666666666667,0.866666666666667,2821.452415333,2822.005966708,9,2821.514144375,2821.575097916,2822.010158333,2822.870165,1,0.553551375000097
128,16,16,categorization,0,bathroom,SHINEd_sun_apynckhmoftszqoq.tif,47,0.0666666666666667,0.0666666666666667,1.91666666666667,2822.875772833,2823.645868583,9,2822.937454416,2822.998369458,2823.650224583,2825.560267,0,0.770095749999655
128,17,16,categorization,0,bathroom,SHINEd_labelme_sfxiulhjbhlyiyt.tif,11,0.0666666666666667,0.0666666666666667,0.95,2825.576757291,2826.415477875,13,2825.643138666,2825.709448166,2826.431921708,2827.375258875,1,0.83872058399993
128,18,16,categorization,0,bathroom,SHINEd_sun_ahqjwnzgolcaoidx.tif,29,0.0666666666666667,0.0666666666666667,0.883333333333333,2827.380203666,2828.782007416,13,2827.441859583,2827.502778625,2828.788863875,2829.665536041,1,1.40180375
128,19,16,categorization,0,kitchen,SHINEd_sun_abdxkyyxwfskuaqb.tif,70,0.0666666666666667,0.0666666666666667,0.933333333333333,2829.670597541,2830.230043458,9,2829.73232,2829.793258541,2830.244998125,2831.171670958,1,0.559445917000176
128,20,16,categorization,0,bathroom,SHINEd_sun_anhioqovhscjqqwb.tif,38,0.0666666666666667,0.0666666666666667,0.716666666666667,2831.176303791,2831.797755375,13,2831.237916,2831.298878833,2831.800679916,2832.5106855,1,0.62145158400017
128,21,16,categorization,0,kitchen,SHINEd_sun_adgqasybjyktddhj.tif,78,0.0666666666666667,0.0666666666666667,1.23333333333333,2832.51538325,2833.117731125,9,2832.577079291,2832.638336375,2833.123396583,2834.350109666,1,0.60234787499985
128,22,16,categorization,0,bathroom,SHINEd_sun_awnqiikzaispgmwo.tif,56,0.0666666666666667,0.0666666666666667,0.833333333333333,2834.364904208,2835.360614875,13,2834.431515791,2834.49742975,2835.38584875,2836.212526333,1,0.995710666999912
128,23,16,categorization,0,bathroom,SHINEd_sun_axxbkopsgyouuebh.tif,58,0.0666666666666667,0.0666666666666667,1.05,2836.218230875,2836.949749125,13,2836.279958,2836.341096791,2836.959797875,2838.003177833,1,0.731518250000136
128,24,16,categorization,0,bathroom,SHINEd_sun_auzqhkafidnkrwmo.tif,54,0.0666666666666667,0.0666666666666667,1.46666666666667,2838.012596208,2838.723524041,13,2838.076906291,2838.143449375,2838.749907416,2840.209943416,1,0.710927832999914
128,25,16,categorization,0,bathroom,SHINEd_sun_acduarbnmmoglmiv.tif,16,0.0666666666666667,0.0666666666666667,1.68333333333333,2840.227168291,2841.10150325,9,2840.294479541,2840.359971708,2841.116562291,2842.793271166,0,0.874334958999953
128,26,16,categorization,0,bathroom,SHINEd_sun_alkosphxlxwjwgjd.tif,34,0.0666666666666667,0.0666666666666667,0.883333333333333,2842.812027208,2843.534768291,13,2842.87902275,2842.945243541,2843.5519725,2844.428647916,1,0.722741083000074
128,27,16,categorization,0,bathroom,SHINEd_sun_aqrpegblszgcoujh.tif,48,0.0666666666666667,0.0666666666666667,1.16666666666667,2844.433667291,2845.230350666,13,2844.495336958,2844.556283291,2845.2415115,2846.401548291,1,0.796683375000157
128,28,16,categorization,0,kitchen,SHINEd_sun_abpwyqmlzafvklqo.tif,72,0.0666666666666667,0.0666666666666667,0.766666666666667,2846.411002833,2847.099060125,9,2846.477493375,2846.543514666,2847.11613375,2847.876168208,1,0.688057291999939
128,29,16,categorization,0,kitchen,SHINEd_sun_aggjlwcdjsjcaemh.tif,86,0.0666666666666667,0.0666666666666667,0.8,2847.892825916,2848.621738208,9,2847.95960825,2848.025533333,2848.62794275,2849.421280666,1,0.728912291999677
128,30,16,categorization,0,bathroom,SHINEd_sun_apeeialkgkuxddgh.tif,42,0.0666666666666667,0.0666666666666667,1.03333333333333,2849.42612575,2850.109844208,13,2849.487670375,2849.548764833,2850.117602708,2851.144311291,1,0.68371845799993
128,31,16,categorization,0,bathroom,SHINEd_sun_aclfzgynxzxlbepz.tif,19,0.0666666666666667,0.0666666666666667,1.35,2851.154409458,2851.799085416,13,2851.218373416,2851.285429333,2851.824908208,2853.168283791,1,0.64467595799988
128,32,16,categorization,0,kitchen,SHINEd_sun_ajkqhtgcbgpcwrwn.tif,97,0.0666666666666667,0.0666666666666667,0.95,2853.176316958,2854.157585875,13,2853.238050833,2853.298908791,2854.167305083,2855.110644333,0,0.981268917000307
128,33,16,categorization,0,bathroom,SHINEd_sun_aghyqhbptboemmoq.tif,23,0.0666666666666667,0.0666666666666667,0.766666666666667,2855.115301458,2855.773768041,13,2855.177049916,2855.23800725,2855.789859166,2856.549866791,1,0.658466583000063
128,34,16,categorization,0,kitchen,SHINEd_sun_abdenxonkemggwsq.tif,69,0.0666666666666667,0.0666666666666667,1.08333333333333,2856.555438375,2857.326429875,9,2856.617137291,2856.677987583,2857.329835666,2858.406558708,1,0.770991500000036
128,35,16,categorization,0,kitchen,SHINEd_sun_acfmftudsenhrfhy.tif,74,0.0666666666666667,0.0666666666666667,1.16666666666667,2858.414926583,2859.43129825,9,2858.479439208,2858.547238208,2859.453925583,2860.613965458,1,1.01637166699993
128,36,16,categorization,0,kitchen,SHINEd_sun_aunzlwrbjumxhwdj.tif,103,0.0666666666666667,0.0666666666666667,1.71666666666667,2860.622723625,2861.36904225,9,2860.68880625,2860.755269583,2861.393591,2863.103644333,1,0.746318624999731
128,37,16,categorization,0,kitchen,SHINEd_sun_ahspylgoovwmwvgk.tif,93,0.0666666666666667,0.0666666666666667,0.966666666666667,2863.118507,2863.786739458,9,2863.184895833,2863.248913333,2863.805138708,2864.76514475,1,0.668232457999693
128,38,16,categorization,0,kitchen,SHINEd_sun_afuyedyxivkhecmu.tif,85,0.0666666666666667,0.0666666666666667,0.966666666666667,2864.770650916,2865.357974416,9,2864.832334666,2864.893409166,2865.361710375,2866.321715625,1,0.587323500000366
128,39,16,categorization,0,bathroom,SHINEd_sun_acgyywnybuveqsro.tif,18,0.0666666666666667,0.0666666666666667,0.75,2866.326528958,2866.942182666,9,2866.388152125,2866.449302458,2866.951062958,2867.694402,0,0.615653708000082
128,40,16,categorization,0,kitchen,SHINEd_sun_aadbddgrdsjugojn.tif,64,0.0666666666666667,0.0666666666666667,1.05,2867.699071625,2868.325730375,9,2867.760741458,2867.821667416,2868.340375083,2869.383753625,1,0.626658749999933
128,41,16,categorization,0,bathroom,SHINEd_sun_apkruvsevgegsdwp.tif,44,0.0666666666666667,0.0666666666666667,0.85,2869.392617,2870.200605583,13,2869.456741166,2869.523418916,2870.229880583,2871.073269458,1,0.807988583000224
128,42,16,categorization,0,bathroom,SHINEd_sun_ajlawzvmubibwbpy.tif,30,0.0666666666666667,0.0666666666666667,1.25,2871.084475208,2871.973873875,13,2871.151061291,2871.211291041,2871.980322375,2873.223690083,1,0.889398667000023
128,43,16,categorization,0,bathroom,SHINEd_sun_amzlamotzwfkwjco.tif,37,0.0666666666666667,0.0666666666666667,1.1,2873.233808791,2874.2327735,13,2873.299134791,2873.360163083,2874.249102791,2875.34247525,1,0.99896470900012
128,44,16,categorization,0,bathroom,SHINEd_sun_anryaplzeujmzfkd.tif,39,0.0666666666666667,0.0666666666666667,0.866666666666667,2875.350358208,2876.395280416,13,2875.414850166,2875.479501458,2876.4191265,2877.279156125,1,1.04492220799966
128,45,16,categorization,0,bathroom,SHINEd_sun_ahcvzmoyaycdoftf.tif,27,0.0666666666666667,0.0666666666666667,0.716666666666667,2877.289278166,2878.125500458,13,2877.352166583,2877.412046083,2878.130543083,2878.840548708,1,0.836222292000002
128,46,16,categorization,0,bathroom,SHINEd_sun_aoybiabnpadelefl.tif,41,0.0666666666666667,0.0666666666666667,1.98333333333333,2878.845638458,2879.725371166,9,2878.907291916,2878.968269958,2879.736881583,2881.713601916,0,0.87973270800012
128,47,16,categorization,0,bathroom,SHINEd_sun_azqyogdvyhahyram.tif,60,0.0666666666666667,0.0666666666666667,1.93333333333333,2881.727506916,2882.671201083,13,2881.794040291,2881.860337125,2882.699946583,2884.626657125,1,0.943694167000103
128,48,16,categorization,0,bathroom,SHINEd_sun_agguqiubmwhqqunb.tif,22,0.0666666666666667,0.0666666666666667,0.8,2884.64467125,2885.502552375,13,2884.711140041,2884.777104166,2885.516238,2886.309578625,1,0.857881124999949
128,49,16,categorization,0,kitchen,SHINEd_sun_aixorpehvfykdynp.tif,95,0.0666666666666667,0.0666666666666667,1.71666666666667,2886.315355791,2887.102359916,9,2886.377055125,2886.438019791,2887.106854791,2888.816895958,1,0.787004124999839
128,50,16,categorization,0,kitchen,SHINEd_sun_aymvwlarqodbwuoc.tif,108,0.0666666666666667,0.0666666666666667,1.96666666666667,2888.836019166,2889.578342875,9,2888.902988708,2888.968489958,2889.608933125,2891.568964958,1,0.742323709000175
