sub_num,trial,block,task,is_practice,category,image,texture,duration,mask_dur,jitter,stim_time,time_of_resp,trial_response,mask_time,fix_time,jit_onset,trial_end,trial_accuracy,RT
118,1,0,categorization,1,bathroom,SHINEd_bathroom_practice2.tif,112,0.0666666666666667,0.0666666666666667,1.21666666666667,21806.987234916,21811.314768208,9,21807.054296041,21807.113195208,21811.3506545,21812.560891458,0,4.32753329200204
118,2,0,categorization,1,kitchen,SHINEd_kitchen_practice4.tif,119,0.0666666666666667,0.0666666666666667,1.36666666666667,21812.615379166,21814.434718291,13,21812.688634375,21812.749119333,21814.480927125,21815.84117625,0,1.81933912499881
118,3,0,categorization,1,bathroom,SHINEd_bathroom_practice1.tif,111,0.0666666666666667,0.0666666666666667,1.85,21815.894032666,21817.607967458,9,21815.968408083,21816.028477833,21817.615522833,21819.459021208,0,1.71393479199833
118,4,0,categorization,1,kitchen,SHINEd_kitchen_practice3.tif,118,0.0666666666666667,0.0666666666666667,1.55,21819.476428625,21820.976702375,9,21819.54465725,21819.610265708,21820.996810375,21822.540336125,1,1.50027374999991
118,5,0,categorization,1,bathroom,SHINEd_bathroom_practice4.tif,114,0.0666666666666667,0.0666666666666667,1.48333333333333,21822.569019958,21823.719729541,13,21822.642242166,21822.702613208,21823.756189708,21825.233848875,1,1.15070958300203
118,6,0,categorization,1,bathroom,SHINEd_bathroom_practice5.tif,115,0.0666666666666667,0.0666666666666667,1.15,21825.260816833,21826.263417708,13,21825.329014083,21825.394225583,21826.284873166,21827.428404833,1,1.00260087499919
118,7,0,categorization,1,kitchen,SHINEd_kitchen_practice1.tif,116,0.0666666666666667,0.0666666666666667,0.733333333333333,21827.438925083,21828.233229625,9,21827.503840291,21827.569744166,21828.260079666,21828.986783291,1,0.794304541999736
118,8,0,categorization,1,bathroom,SHINEd_bathroom_practice3.tif,113,0.0666666666666667,0.0666666666666667,1.6,21829.004114416,21830.040373958,13,21829.070855833,21829.136590375,21830.055413458,21831.648812666,1,1.03625954200106
118,9,0,categorization,1,kitchen,SHINEd_kitchen_practice2.tif,117,0.0666666666666667,0.0666666666666667,0.716666666666667,21831.669139333,21832.367867083,9,21831.736015625,21831.8021125,21832.392026916,21833.102095833,1,0.698727750001126
118,10,0,categorization,1,kitchen,SHINEd_kitchen_practice5.tif,120,0.0666666666666667,0.0666666666666667,1.21666666666667,21833.118837125,21834.023823416,9,21833.181536541,21833.241618666,21834.027041041,21835.237095833,1,0.904986290999659
118,1,1,categorization,0,bathroom,SHINEd_sun_anryaplzeujmzfkd.tif,39,0.0666666666666667,0.0666666666666667,1.23333333333333,21882.734681083,21883.671922208,9,21882.796593125,21882.857448791,21883.675992,21884.902720083,0,0.937241125000583
118,2,1,categorization,0,kitchen,SHINEd_sun_akchetnepxlcxhsu.tif,98,0.0666666666666667,0.0666666666666667,0.783333333333333,21884.920665375,21885.56031575,13,21884.987531833,21885.05345125,21885.576274583,21886.352983333,0,0.639650375000201
118,3,1,categorization,0,bathroom,SHINEd_sun_apkxzenqapsujocq.tif,45,0.0666666666666667,0.0666666666666667,0.75,21886.36912025,21887.064406375,13,21886.435821375,21886.501602041,21887.070767583,21887.8141065,1,0.695286124999257
118,4,1,categorization,0,bathroom,SHINEd_sun_aleqenyvunhactkl.tif,32,0.0666666666666667,0.0666666666666667,1.23333333333333,21887.8190965,21888.66369975,13,21887.880828083,21887.941757041,21888.677172625,21889.903884041,1,0.844603249999636
118,5,1,categorization,0,bathroom,SHINEd_sun_axxbkopsgyouuebh.tif,58,0.0666666666666667,0.0666666666666667,1.13333333333333,21889.920671583,21890.572471125,13,21889.987549708,21890.053063958,21890.593057458,21891.719773666,1,0.651799541999935
118,6,1,categorization,0,bathroom,SHINEd_sun_aavhrsfjbserjtht.tif,13,0.0666666666666667,0.0666666666666667,0.95,21891.728373916,21892.279803291,9,21891.790841166,21891.850966083,21892.286098541,21893.229435958,0,0.551429374998406
118,7,1,categorization,0,kitchen,SHINEd_sun_abdxkyyxwfskuaqb.tif,70,0.0666666666666667,0.0666666666666667,0.733333333333333,21893.2343595,21893.936481541,9,21893.29602425,21893.357146708,21893.942299,21894.668970791,1,0.70212204100244
118,8,1,categorization,0,bathroom,SHINEd_sun_aunuadmjocsddsrl.tif,52,0.0666666666666667,0.0666666666666667,1.31666666666667,21894.673767958,21895.28756325,13,21894.735468541,21894.796348875,21895.29838425,21896.608438125,1,0.61379529199985
118,9,1,categorization,0,kitchen,SHINEd_sun_ahljzhgcdpomplvg.tif,91,0.0666666666666667,0.0666666666666667,0.8,21896.616252125,21898.095714333,13,21896.680155416,21896.745410833,21898.12161975,21898.914959333,0,1.47946220800077
118,10,1,categorization,0,bathroom,SHINEd_sun_alkosphxlxwjwgjd.tif,34,0.0666666666666667,0.0666666666666667,0.716666666666667,21898.9202215,21899.927432875,9,21898.982070583,21899.042930083,21899.944859291,21900.654863958,0,1.00721137499932
118,11,1,categorization,0,kitchen,SHINEd_sun_aeqdocilnnpuvuhx.tif,83,0.0666666666666667,0.0666666666666667,0.916666666666667,21900.660052291,21901.167764958,13,21900.721841041,21900.782612166,21901.184647,21902.094651625,0,0.507712667000305
118,12,1,categorization,0,kitchen,SHINEd_sun_aqeaevwwwjoqhzvl.tif,101,0.0666666666666667,0.0666666666666667,0.95,21902.09960275,21902.496082458,9,21902.161364916,21902.222247208,21902.507411875,21903.450750583,1,0.396479708000697
118,13,1,categorization,0,kitchen,SHINEd_sun_amjjdeyrggfqgmom.tif,100,0.0666666666666667,0.0666666666666667,0.833333333333333,21903.455542833,21903.81553525,13,21903.517234875,21903.578211208,21903.829992458,21904.656664833,0,0.359992417001195
118,14,1,categorization,0,bathroom,SHINEd_sun_acegryoqftbzowsg.tif,17,0.0666666666666667,0.0666666666666667,0.75,21904.661499291,21905.015934625,9,21904.723158791,21904.784121083,21905.019208,21905.762545291,0,0.3544353340003
118,15,1,categorization,0,bathroom,SHINEd_sun_apkruvsevgegsdwp.tif,44,0.0666666666666667,0.0666666666666667,1.53333333333333,21905.766846375,21906.095473208,13,21905.828534083,21905.8894515,21906.107837583,21907.634562875,1,0.328626832997543
118,16,1,categorization,0,kitchen,SHINEd_sun_aexklacwqwezaorf.tif,84,0.0666666666666667,0.0666666666666667,1.05,21907.651947541,21908.328138541,9,21907.7185915,21907.784539541,21908.357806,21909.401183416,1,0.676191000002291
118,17,1,categorization,0,kitchen,SHINEd_sun_aapllqyqlykszopd.tif,66,0.0666666666666667,0.0666666666666667,0.9,21909.412711666,21909.756780791,13,21909.476794833,21909.543594708,21909.782175458,21910.675556416,0,0.344069125003443
118,18,1,categorization,0,kitchen,SHINEd_sun_ahywdevtimnqcsln.tif,94,0.0666666666666667,0.0666666666666667,1.18333333333333,21910.701311125,21911.447943791,9,21910.770452416,21910.833995541,21911.453038541,21912.629763333,1,0.746632665999641
118,19,1,categorization,0,bathroom,SHINEd_sun_azqyogdvyhahyram.tif,60,0.0666666666666667,0.0666666666666667,0.9,21912.639716625,21913.271577416,13,21912.706504,21912.77224575,21913.29544975,21914.188837625,1,0.631860790999781
118,20,1,categorization,0,bathroom,SHINEd_sun_apmqjbnwghzuhhzh.tif,46,0.0666666666666667,0.0666666666666667,1.66666666666667,21914.205843,21914.663533416,13,21914.273388416,21914.338465291,21914.674231666,21916.334282083,1,0.457690415998513
118,21,1,categorization,0,kitchen,SHINEd_sun_aggjlwcdjsjcaemh.tif,86,0.0666666666666667,0.0666666666666667,1.13333333333333,21916.351748875,21916.855474083,13,21916.418535625,21916.484409208,21916.87391425,21918.000628041,0,0.503725208000105
118,22,1,categorization,0,kitchen,SHINEd_sun_acwjdupvyjsugpay.tif,76,0.0666666666666667,0.0666666666666667,1.3,21918.009856041,21918.363550458,9,21918.075973958,21918.142415083,21918.381738833,21919.675109958,1,0.353694417000952
118,23,1,categorization,0,kitchen,SHINEd_sun_aymvwlarqodbwuoc.tif,108,0.0666666666666667,0.0666666666666667,1.93333333333333,21919.6936805,21920.031626041,13,21919.760440833,21919.825925,21920.045176875,21921.9718955,0,0.337945540999499
118,24,1,categorization,0,kitchen,SHINEd_labelme_kxvouciolcpqplr.tif,62,0.0666666666666667,0.0666666666666667,1,21921.990411125,21922.674786916,9,21922.057152708,21922.122535875,21922.69561425,21923.688953625,1,0.684375790999184
118,25,1,categorization,0,kitchen,SHINEd_sun_aixorpehvfykdynp.tif,95,0.0666666666666667,0.0666666666666667,0.883333333333333,21923.694070416,21924.176199041,13,21923.755843833,21923.8167375,21924.185389041,21925.062059958,0,0.482128625000769
118,26,1,categorization,0,bathroom,SHINEd_sun_atstyziqcmkahyxk.tif,51,0.0666666666666667,0.0666666666666667,1.95,21925.06686175,21925.383889333,9,21925.128525625,21925.189488416,21925.391329875,21927.334709333,0,0.31702758299798
118,27,1,categorization,0,kitchen,SHINEd_sun_ahpczsiumwwocjkv.tif,92,0.0666666666666667,0.0666666666666667,1.25,21927.35296875,21927.491574416,13,21927.419515583,21927.479108208,21927.517193875,21928.760563166,0,0.138605665997602
118,28,1,categorization,0,kitchen,SHINEd_sun_abdenxonkemggwsq.tif,69,0.0666666666666667,0.0666666666666667,1.95,21928.777470375,21929.139973666,9,21928.843784791,21928.910108458,21929.166374583,21931.109771166,1,0.362503290998575
118,29,1,categorization,0,kitchen,SHINEd_sun_aunzlwrbjumxhwdj.tif,103,0.0666666666666667,0.0666666666666667,1.91666666666667,21931.126569583,21931.50630875,13,21931.193054,21931.259091541,21931.530753875,21933.440795875,0,0.379739166997751
118,30,1,categorization,0,kitchen,SHINEd_sun_abftihopvusyfakt.tif,71,0.0666666666666667,0.0666666666666667,1.41666666666667,21933.460469416,21933.809902875,9,21933.525491916,21933.59295725,21933.832701125,21935.24276,1,0.349433458999556
118,31,1,categorization,0,kitchen,SHINEd_sun_acxkpeoqbwcxfvip.tif,77,0.0666666666666667,0.0666666666666667,0.716666666666667,21935.260354958,21935.700552791,13,21935.327041583,21935.392938166,21935.715226125,21936.425268541,0,0.44019783299882
118,32,1,categorization,0,bathroom,SHINEd_sun_akiytfaagpdsphgz.tif,31,0.0666666666666667,0.0666666666666667,1.28333333333333,21936.440256583,21948.55157875,13,21936.506962,21936.572720291,21948.57550575,21949.852228375,1,12.1113221670021
118,33,1,categorization,0,bathroom,SHINEd_sun_anhioqovhscjqqwb.tif,38,0.0666666666666667,0.0666666666666667,0.9,21949.870725166,21950.517404458,13,21949.937462125,21950.003416,21950.543403,21951.436789125,1,0.646679292000044
118,34,1,categorization,0,bathroom,SHINEd_sun_aofnryafpsjimzsb.tif,40,0.0666666666666667,0.0666666666666667,0.8,21951.453165833,21952.184112291,9,21951.518430708,21951.585537333,21952.187976666,21952.981313666,0,0.73094645799938
118,35,1,categorization,0,kitchen,SHINEd_sun_aadbddgrdsjugojn.tif,64,0.0666666666666667,0.0666666666666667,1.01666666666667,21952.986289791,21953.807420208,9,21953.047952375,21953.108960541,21953.810751416,21954.820796125,1,0.821130416999949
118,36,1,categorization,0,bathroom,SHINEd_sun_apynckhmoftszqoq.tif,47,0.0666666666666667,0.0666666666666667,0.85,21954.829908333,21955.6421695,9,21954.894526958,21954.960455625,21955.6672605,21956.510649916,0,0.812261167000543
118,37,1,categorization,0,bathroom,SHINEd_sun_ahijqszoswveeyji.tif,28,0.0666666666666667,0.0666666666666667,1.51666666666667,21956.527467583,21957.152233041,9,21956.594316916,21956.659696458,21957.16167975,21958.671715916,0,0.624765458000184
118,38,1,categorization,0,bathroom,SHINEd_sun_ambriybtogmepttm.tif,36,0.0666666666666667,0.0666666666666667,1.83333333333333,21958.690716708,21959.161472125,13,21958.757354541,21958.823147583,21959.177652583,21961.004358958,1,0.470755417001783
118,39,1,categorization,0,kitchen,SHINEd_sun_admlmbcdswaszruo.tif,79,0.0666666666666667,0.0666666666666667,0.716666666666667,21961.019701541,21961.603467541,9,21961.08629375,21961.152158208,21961.625902333,21962.335960666,1,0.583765999999741
118,40,1,categorization,0,kitchen,SHINEd_sun_aamedkxepzlwuxes.tif,65,0.0666666666666667,0.0666666666666667,0.9,21962.35348775,21963.063618666,9,21962.418798375,21962.476690416,21963.078354041,21963.971692958,1,0.710130916002527
118,41,1,categorization,0,kitchen,SHINEd_sun_ahdycvpopffkzzsu.tif,90,0.0666666666666667,0.0666666666666667,0.916666666666667,21963.976770375,21964.631945875,9,21964.038438625,21964.099355,21964.651225166,21965.561230625,1,0.655175500000041
118,42,1,categorization,0,bathroom,SHINEd_sun_apeeialkgkuxddgh.tif,42,0.0666666666666667,0.0666666666666667,0.816666666666667,21965.56618625,21966.223694291,13,21965.627826833,21965.688799083,21966.240829458,21967.050832583,1,0.657508041000256
118,43,1,categorization,0,kitchen,SHINEd_labelme_rykdqxenmhulbdn.tif,63,0.0666666666666667,0.0666666666666667,1.88333333333333,21967.055898041,21967.695387208,13,21967.117559958,21967.178526958,21967.71392275,21969.590651041,0,0.639489167002466
118,44,1,categorization,0,bathroom,SHINEd_sun_awnqiikzaispgmwo.tif,56,0.0666666666666667,0.0666666666666667,0.9,21969.60940775,21970.578945166,13,21969.676246458,21969.741820458,21970.598253625,21971.491593041,1,0.969537416000094
118,45,1,categorization,0,bathroom,SHINEd_sun_aspsyogrekjtfozg.tif,50,0.0666666666666667,0.0666666666666667,1,21971.496448125,21973.703566916,13,21971.558302958,21971.619107,21973.721550583,21974.714889291,1,2.20711879100054
118,46,1,categorization,0,kitchen,SHINEd_sun_aenotlpyftoioydp.tif,82,0.0666666666666667,0.0666666666666667,0.733333333333333,21974.7196265,21975.383782208,9,21974.781197083,21974.842257583,21975.394169291,21976.120840125,1,0.66415570800018
118,47,1,categorization,0,kitchen,SHINEd_sun_akcjzhbbjlbogpdi.tif,99,0.0666666666666667,0.0666666666666667,0.883333333333333,21976.125722041,21976.751751625,9,21976.187417416,21976.248308833,21976.76675225,21977.643422875,1,0.626029584000207
118,48,1,categorization,0,bathroom,SHINEd_sun_alotolagknyrgtsk.tif,35,0.0666666666666667,0.0666666666666667,1.73333333333333,21977.648424625,21978.359552375,13,21977.7102365,21977.77104725,21978.372748916,21980.099461583,1,0.711127750000742
118,49,1,categorization,0,bathroom,SHINEd_sun_aggnnqpdorgxpvce.tif,21,0.0666666666666667,0.0666666666666667,1.91666666666667,21980.12033825,21980.706662833,9,21980.188200708,21980.256971958,21980.730177375,21982.640229458,0,0.586324583000533
118,50,1,categorization,0,kitchen,SHINEd_sun_auaiucuqpdausiva.tif,102,0.0666666666666667,0.0666666666666667,1.35,21982.658916875,21983.126992083,13,21982.725874291,21982.791258375,21983.14785975,21984.491246166,0,0.468075207998481
118,1,2,categorization,0,bathroom,SHINEd_sun_aqrpegblszgcoujh.tif,48,0.0666666666666667,0.0666666666666667,0.95,21992.767366458,21993.543193583,9,21992.829273041,21992.890024083,21993.558609208,21994.501948916,0,0.775827124998614
118,2,2,categorization,0,kitchen,SHINEd_sun_ajcbwwvdlsvjyzje.tif,96,0.0666666666666667,0.0666666666666667,0.75,21994.50732175,21996.503506041,9,21994.569038333,21994.629990375,21996.515685916,21997.259023416,1,1.99618429100155
118,3,2,categorization,0,kitchen,SHINEd_sun_ajkqhtgcbgpcwrwn.tif,97,0.0666666666666667,0.0666666666666667,1.68333333333333,21997.265421291,21997.983604,9,21997.327153375,21997.388114416,21997.990259208,21999.666973833,1,0.718182709002576
118,4,2,categorization,0,kitchen,SHINEd_sun_agorklincwxrdtga.tif,87,0.0666666666666667,0.0666666666666667,0.816666666666667,21999.684810958,22000.466849791,13,21999.751627,21999.817269416,22000.4903275,22001.300334125,0,0.782038833000115
118,5,2,categorization,0,kitchen,SHINEd_sun_agzzivivdpnawacl.tif,89,0.0666666666666667,0.0666666666666667,0.916666666666667,22001.305995916,22001.855956708,13,22001.367589,22001.428751625,22001.863920958,22002.773925958,0,0.549960792002821
118,6,2,categorization,0,kitchen,SHINEd_sun_aehawpgmrlhlvcow.tif,81,0.0666666666666667,0.0666666666666667,1.21666666666667,22002.778872583,22003.255313125,9,22002.840551791,22002.901444458,22003.270372416,22004.480422083,1,0.476440541999182
118,7,2,categorization,0,bathroom,SHINEd_sun_acgyywnybuveqsro.tif,18,0.0666666666666667,0.0666666666666667,0.9,22004.501033416,22005.310874625,13,22004.567718541,22004.633688666,22005.340129708,22006.233499416,1,0.809841209000297
118,8,2,categorization,0,bathroom,SHINEd_sun_aapitsgbtktqubfy.tif,12,0.0666666666666667,0.0666666666666667,1.65,22006.250309958,22007.119306583,13,22006.312985125,22006.37297325,22007.124999541,22008.768388583,1,0.868996625002183
118,9,2,categorization,0,kitchen,SHINEd_sun_acfmftudsenhrfhy.tif,74,0.0666666666666667,0.0666666666666667,1.15,22008.786545333,22009.674372125,13,22008.853703666,22008.919012333,22009.692163791,22010.835536791,0,0.887826791997213
118,10,2,categorization,0,kitchen,SHINEd_sun_auticobqsbwgoppi.tif,104,0.0666666666666667,0.0666666666666667,1.13333333333333,22010.846735166,22011.447423708,9,22010.913075125,22010.979358625,22011.467778583,22012.594503208,1,0.600688541999261
118,11,2,categorization,0,bathroom,SHINEd_sun_agrwbmhcpmfuwmsg.tif,24,0.0666666666666667,0.0666666666666667,1.76666666666667,22012.612826208,22013.303873125,9,22012.679536875,22012.737116041,22013.322367916,22015.082409708,0,0.691046917003405
118,12,2,categorization,0,bathroom,SHINEd_sun_asfwthctfqerjvxr.tif,49,0.0666666666666667,0.0666666666666667,1.8,22015.100875333,22016.312089166,9,22015.167397625,22015.233866083,22016.340638833,22018.134038333,0,1.21121383300124
118,13,2,categorization,0,kitchen,SHINEd_sun_azmutvzbxypaceni.tif,110,0.0666666666666667,0.0666666666666667,0.9,22018.152112791,22019.391100375,9,22018.219221291,22018.284785875,22019.404638541,22020.297976625,1,1.23898758400173
118,14,2,categorization,0,bathroom,SHINEd_sun_agyqfjcfkdcydepw.tif,25,0.0666666666666667,0.0666666666666667,0.716666666666667,22020.302714625,22021.463808875,13,22020.364533708,22020.4255585,22021.477520416,22022.187525166,1,1.16109425000104
118,15,2,categorization,0,bathroom,SHINEd_sun_abjtwfukuwddzted.tif,15,0.0666666666666667,0.0666666666666667,1.36666666666667,22022.19223725,22023.431552,13,22022.253881166,22022.314842375,22023.450534916,22024.810591458,1,1.23931474999699
118,16,2,categorization,0,kitchen,SHINEd_sun_avszsnwsbuqfgzbn.tif,105,0.0666666666666667,0.0666666666666667,0.916666666666667,22024.82837925,22026.135037625,9,22024.895126375,22024.960855458,22026.152395375,22027.06240125,1,1.30665837500055
118,17,2,categorization,0,bathroom,SHINEd_sun_agguqiubmwhqqunb.tif,22,0.0666666666666667,0.0666666666666667,0.716666666666667,22027.068018583,22028.927746916,13,22027.129825166,22027.190629125,22028.943379333,22029.653383041,1,1.85972833300184
118,18,2,categorization,0,kitchen,SHINEd_sun_abrcnpqqhmjwekyf.tif,73,0.0666666666666667,0.0666666666666667,0.766666666666667,22029.658335458,22030.551636,9,22029.720146375,22029.781003125,22030.566423833,22031.326426958,1,0.893300542000361
118,19,2,categorization,0,bathroom,SHINEd_sun_ahqjwnzgolcaoidx.tif,29,0.0666666666666667,0.0666666666666667,1.06666666666667,22031.3321255,22032.479439875,13,22031.393941916,22031.454786625,22032.49037125,22033.550429791,1,1.14731437499722
118,20,2,categorization,0,bathroom,SHINEd_sun_axyrejkiiaqiurjk.tif,59,0.0666666666666667,0.0666666666666667,0.8,22033.55918175,22034.443533958,9,22033.623683583,22033.68934725,22034.462420708,22035.255790958,0,0.884352208002383
118,21,2,categorization,0,kitchen,SHINEd_sun_aegoxogugdkwpmpj.tif,80,0.0666666666666667,0.0666666666666667,0.866666666666667,22035.272091291,22035.879614958,9,22035.339113416,22035.404680333,22035.890213208,22036.750218166,1,0.607523667000351
118,22,2,categorization,0,bathroom,SHINEd_sun_ajlawzvmubibwbpy.tif,30,0.0666666666666667,0.0666666666666667,1.48333333333333,22036.755150125,22037.559635416,13,22036.816891833,22036.877756625,22037.562888125,22039.039616041,1,0.804485291002493
118,23,2,categorization,0,bathroom,SHINEd_sun_auzqhkafidnkrwmo.tif,54,0.0666666666666667,0.0666666666666667,1.1,22039.056980291,22039.462907416,9,22039.123645291,22039.189617,22039.476989166,22040.570372708,0,0.405927125000744
118,24,2,categorization,0,kitchen,SHINEd_sun_acgtpgfybqjmzeyw.tif,75,0.0666666666666667,0.0666666666666667,0.783333333333333,22040.58976025,22041.111446291,9,22040.654295166,22040.712963458,22041.114716166,22041.891388916,1,0.521686041000066
118,25,2,categorization,0,bathroom,SHINEd_sun_amzlamotzwfkwjco.tif,37,0.0666666666666667,0.0666666666666667,0.866666666666667,22041.896361541,22042.279242666,13,22041.958237458,22042.018986833,22042.287541708,22043.1475465,1,0.382881125002314
118,26,2,categorization,0,kitchen,SHINEd_sun_aypmqwcualkenuoe.tif,109,0.0666666666666667,0.0666666666666667,1.83333333333333,22043.152740208,22043.871013,9,22043.214377,22043.275339375,22043.877262416,22045.703978958,1,0.718272792000789
118,27,2,categorization,0,bathroom,SHINEd_sun_avhrdrntsqrjzccq.tif,55,0.0666666666666667,0.0666666666666667,0.7,22045.723133375,22046.141076291,13,22045.789738041,22045.855912125,22046.162566541,22046.855959083,1,0.417942916003085
118,28,2,categorization,0,kitchen,SHINEd_sun_ahspylgoovwmwvgk.tif,93,0.0666666666666667,0.0666666666666667,1.33333333333333,22046.870117375,22047.471495791,9,22046.936683333,22046.994496958,22047.479686333,22048.806414958,1,0.601378415998624
118,29,2,categorization,0,kitchen,SHINEd_sun_agubuxuukhzyzpdp.tif,88,0.0666666666666667,0.0666666666666667,1.33333333333333,22048.825192083,22049.163266375,13,22048.891939375,22048.957403708,22049.179913,22050.506620833,0,0.338074291998055
118,30,2,categorization,0,kitchen,SHINEd_sun_abpwyqmlzafvklqo.tif,72,0.0666666666666667,0.0666666666666667,1.38333333333333,22050.526576791,22050.855011083,9,22050.593317541,22050.649966625,22050.868410666,22052.245124791,1,0.328434292001475
118,31,2,categorization,0,bathroom,SHINEd_sun_axldvoqbuvuggfmq.tif,57,0.0666666666666667,0.0666666666666667,1.25,22052.266994416,22052.582592208,13,22052.334619583,22052.399954458,22052.607261375,22053.850633791,1,0.315597791999608
118,32,2,categorization,0,bathroom,SHINEd_sun_aghyqhbptboemmoq.tif,23,0.0666666666666667,0.0666666666666667,1.55,22053.869774666,22054.750949541,9,22053.937150583,22053.999020583,22054.767849833,22056.311234416,0,0.881174875001307
118,33,2,categorization,0,bathroom,SHINEd_sun_aoybiabnpadelefl.tif,41,0.0666666666666667,0.0666666666666667,1.61666666666667,22056.329926041,22056.6899655,13,22056.396501958,22056.462032208,22056.718153916,22058.3281915,1,0.360039459003019
118,34,2,categorization,0,bathroom,SHINEd_sun_aclfzgynxzxlbepz.tif,19,0.0666666666666667,0.0666666666666667,1.33333333333333,22058.347189125,22062.730333166,9,22058.413366875,22058.4799505,22062.749182541,22064.075913,0,4.38314404099947
118,35,2,categorization,0,bathroom,SHINEd_sun_ahcvzmoyaycdoftf.tif,27,0.0666666666666667,0.0666666666666667,0.833333333333333,22064.095774125,22064.9883205,13,22064.162308125,22064.228152666,22065.0184395,22065.845114416,1,0.892546375001984
118,36,2,categorization,0,bathroom,SHINEd_sun_abapwbhyhkfixyex.tif,14,0.0666666666666667,0.0666666666666667,1.45,22065.851329833,22066.8392485,9,22065.913223125,22065.973966958,22066.842910666,22068.286304583,0,0.987918667000486
118,37,2,categorization,0,bathroom,SHINEd_sun_ahaulkltgpkeeemi.tif,26,0.0666666666666667,0.0666666666666667,0.933333333333333,22068.305868375,22069.559947291,13,22068.372782583,22068.43863175,22069.581746833,22070.50842,1,1.25407891600116
118,38,2,categorization,0,kitchen,SHINEd_labelme_brsyyvweiuaazfr.tif,61,0.0666666666666667,0.0666666666666667,1.65,22070.515180416,22071.319262458,9,22070.576958583,22070.637658708,22071.323156375,22072.966529458,1,0.804082041999209
118,39,2,categorization,0,kitchen,SHINEd_sun_adgqasybjyktddhj.tif,78,0.0666666666666667,0.0666666666666667,1.23333333333333,22072.985691,22073.681597958,13,22073.052779083,22073.118479291,22073.709024583,22074.935730791,0,0.695906957997067
118,40,2,categorization,0,bathroom,SHINEd_sun_acduarbnmmoglmiv.tif,16,0.0666666666666667,0.0666666666666667,0.766666666666667,22074.954901791,22076.467900583,9,22075.021974375,22075.0878495,22076.498465875,22077.258470541,0,1.51299879200087
118,41,2,categorization,0,kitchen,SHINEd_sun_awcpdzzznmweyyhv.tif,106,0.0666666666666667,0.0666666666666667,1.78333333333333,22077.265198791,22078.407237416,9,22077.327013208,22077.387847458,22078.423040208,22080.199747791,1,1.14203862499926
118,42,2,categorization,0,bathroom,SHINEd_labelme_sfxiulhjbhlyiyt.tif,11,0.0666666666666667,0.0666666666666667,1.11666666666667,22080.218506708,22081.0420455,13,22080.285279666,22080.351549333,22081.056839041,22082.1668955,1,0.823538791999454
118,43,2,categorization,0,kitchen,SHINEd_sun_axyyrmzcupyhlivc.tif,107,0.0666666666666667,0.0666666666666667,1.85,22082.177483125,22083.678406541,9,22082.242201375,22082.309954083,22083.7035485,22085.546900041,1,1.50092341599884
118,44,2,categorization,0,kitchen,SHINEd_sun_afuyedyxivkhecmu.tif,85,0.0666666666666667,0.0666666666666667,0.733333333333333,22085.558302375,22086.329994041,9,22085.625229375,22085.690892333,22086.346810666,22087.073481708,1,0.771691665999242
118,45,2,categorization,0,bathroom,SHINEd_sun_ausgutylgojavyoq.tif,53,0.0666666666666667,0.0666666666666667,0.783333333333333,22087.079427833,22088.167554375,13,22087.141124083,22087.202008166,22088.187606666,22088.964278666,1,1.08812654199937
118,46,2,categorization,0,kitchen,SHINEd_sun_aarfiyshqohlwkmo.tif,67,0.0666666666666667,0.0666666666666667,1.5,22088.968988708,22089.671261458,9,22089.030731041,22089.091588666,22089.676682291,22091.170077291,1,0.702272750000702
118,47,2,categorization,0,bathroom,SHINEd_sun_afcoljnjfoxjtgja.tif,20,0.0666666666666667,0.0666666666666667,0.733333333333333,22091.188727791,22092.199656291,9,22091.255737041,22091.321101791,22092.227247875,22092.953919416,0,1.01092849999986
118,48,2,categorization,0,bathroom,SHINEd_sun_aljolscmmzydegqp.tif,33,0.0666666666666667,0.0666666666666667,1.1,22092.959648541,22094.607181625,9,22093.021321666,22093.082438625,22094.618565333,22095.711937666,0,1.64753308400032
118,49,2,categorization,0,bathroom,SHINEd_sun_apjevzvycyhuqghb.tif,43,0.0666666666666667,0.0666666666666667,1.6,22095.72145025,22096.52045325,9,22095.786517625,22095.853832708,22096.542711708,22098.136088833,0,0.799003000000084
118,50,2,categorization,0,kitchen,SHINEd_sun_aaxxjlsuzvqlgylf.tif,68,0.0666666666666667,0.0666666666666667,1.06666666666667,22098.155597625,22099.227032083,13,22098.222887375,22098.288070416,22099.243200375,22100.30324125,0,1.07143445800102
118,1,3,categorization,0,kitchen,SHINEd_labelme_brsyyvweiuaazfr.tif,61,0.0666666666666667,0.0666666666666667,0.85,22136.138943,22137.182468458,9,22136.201036625,22136.262020166,22137.19791025,22138.041248791,1,1.04352545799702
118,2,3,categorization,0,bathroom,SHINEd_sun_apkxzenqapsujocq.tif,45,0.0666666666666667,0.0666666666666667,1.65,22138.046229416,22138.702841958,13,22138.107971625,22138.168904375,22138.721315958,22140.364702416,1,0.656612541999493
118,3,3,categorization,0,bathroom,SHINEd_sun_awnqiikzaispgmwo.tif,56,0.0666666666666667,0.0666666666666667,0.783333333333333,22140.383515583,22141.298627875,13,22140.44988025,22140.516158083,22141.322862916,22142.099534625,1,0.91511229200114
118,4,3,categorization,0,kitchen,SHINEd_sun_abpwyqmlzafvklqo.tif,72,0.0666666666666667,0.0666666666666667,0.933333333333333,22142.104737833,22142.983357708,9,22142.166472166,22142.227548208,22142.996565041,22143.923236041,1,0.878619874998549
118,5,3,categorization,0,kitchen,SHINEd_labelme_rykdqxenmhulbdn.tif,63,0.0666666666666667,0.0666666666666667,0.866666666666667,22143.928199375,22144.791209125,13,22143.990018541,22144.050848041,22144.8027475,22145.66275125,0,0.863009749999037
118,6,3,categorization,0,kitchen,SHINEd_sun_aypmqwcualkenuoe.tif,109,0.0666666666666667,0.0666666666666667,1.11666666666667,22145.6681255,22146.351456291,9,22145.729788625,22145.790761666,22146.3590865,22147.46914,1,0.683330790998298
118,7,3,categorization,0,bathroom,SHINEd_sun_ahaulkltgpkeeemi.tif,26,0.0666666666666667,0.0666666666666667,0.966666666666667,22147.479119833,22148.135841791,13,22147.543907166,22147.610353583,22148.148964583,22149.109008375,1,0.65672195800289
118,8,3,categorization,0,bathroom,SHINEd_sun_ahijqszoswveeyji.tif,28,0.0666666666666667,0.0666666666666667,1.78333333333333,22149.124566,22149.767507583,9,22149.191040083,22149.256978375,22149.7756525,22151.552355875,0,0.642941583002539
118,9,3,categorization,0,kitchen,SHINEd_sun_aggjlwcdjsjcaemh.tif,86,0.0666666666666667,0.0666666666666667,1.55,22151.565265541,22152.227544375,9,22151.631933416,22151.698085083,22152.2544475,22153.797840916,1,0.662278833999153
118,10,3,categorization,0,bathroom,SHINEd_sun_apjevzvycyhuqghb.tif,43,0.0666666666666667,0.0666666666666667,1.41666666666667,22153.816457333,22154.458799041,9,22153.8831325,22153.948839708,22154.488785958,22155.898834125,0,0.642341708000458
118,11,3,categorization,0,bathroom,SHINEd_sun_ajlawzvmubibwbpy.tif,30,0.0666666666666667,0.0666666666666667,0.8,22155.916941291,22156.611993083,9,22155.983844,22156.049628291,22156.63951575,22157.432895,0,0.695051791997685
118,12,3,categorization,0,bathroom,SHINEd_sun_alotolagknyrgtsk.tif,35,0.0666666666666667,0.0666666666666667,1.28333333333333,22157.45121875,22158.8144195,9,22157.516281833,22157.575395458,22158.827712708,22160.104435208,0,1.36320074999821
118,13,3,categorization,0,kitchen,SHINEd_sun_aarfiyshqohlwkmo.tif,67,0.0666666666666667,0.0666666666666667,1.66666666666667,22160.122453666,22160.76428275,9,22160.189472708,22160.255111541,22160.777158791,22162.437202083,1,0.641829083997436
118,14,3,categorization,0,kitchen,SHINEd_sun_aqeaevwwwjoqhzvl.tif,101,0.0666666666666667,0.0666666666666667,1.81666666666667,22162.455325625,22163.23461875,13,22162.52217975,22162.587900791,22163.26112975,22165.07117375,0,0.779293125000549
118,15,3,categorization,0,kitchen,SHINEd_sun_ajcbwwvdlsvjyzje.tif,96,0.0666666666666667,0.0666666666666667,1.35,22165.090633416,22165.730656625,13,22165.157592291,22165.223176458,22165.745680166,22167.089057375,0,0.640023209001811
118,16,3,categorization,0,bathroom,SHINEd_sun_aunuadmjocsddsrl.tif,52,0.0666666666666667,0.0666666666666667,0.916666666666667,22167.108800208,22167.65917375,13,22167.176223125,22167.241481791,22167.681792958,22168.59184575,1,0.550373541998852
118,17,3,categorization,0,kitchen,SHINEd_sun_aixorpehvfykdynp.tif,95,0.0666666666666667,0.0666666666666667,0.916666666666667,22168.608029875,22169.358392333,9,22168.674630375,22168.741258083,22169.376712,22170.286718083,1,0.750362458002201
118,18,3,categorization,0,bathroom,SHINEd_sun_aspsyogrekjtfozg.tif,50,0.0666666666666667,0.0666666666666667,1.31666666666667,22170.291682166,22170.910931291,13,22170.35346,22170.414349083,22170.916063291,22172.226112833,1,0.619249125000351
118,19,3,categorization,0,bathroom,SHINEd_sun_aljolscmmzydegqp.tif,33,0.0666666666666667,0.0666666666666667,1.45,22172.244892958,22173.11003175,13,22172.311264833,22172.377208041,22173.133391291,22174.576769875,1,0.865138791999925
118,20,3,categorization,0,kitchen,SHINEd_sun_acgtpgfybqjmzeyw.tif,75,0.0666666666666667,0.0666666666666667,0.95,22174.595117583,22175.230281375,9,22174.662984375,22174.727649458,22175.250599166,22176.19398875,1,0.635163791997911
118,21,3,categorization,0,bathroom,SHINEd_sun_ahcvzmoyaycdoftf.tif,27,0.0666666666666667,0.0666666666666667,1.38333333333333,22176.210965166,22177.047399333,13,22176.275420541,22176.334468,22177.053170666,22178.42988325,1,0.836434167002153
118,22,3,categorization,0,kitchen,SHINEd_sun_aamedkxepzlwuxes.tif,65,0.0666666666666667,0.0666666666666667,1.16666666666667,22178.449895916,22179.258264041,9,22178.516585125,22178.58245675,22179.271357083,22180.43139475,1,0.808368124999106
118,23,3,categorization,0,bathroom,SHINEd_sun_aggnnqpdorgxpvce.tif,21,0.0666666666666667,0.0666666666666667,1.61666666666667,22180.440935041,22181.534524625,9,22180.507567541,22180.573361166,22181.563415666,22183.173462041,0,1.09358958400117
118,24,3,categorization,0,kitchen,SHINEd_sun_akcjzhbbjlbogpdi.tif,99,0.0666666666666667,0.0666666666666667,1.38333333333333,22183.190666166,22183.975357333,9,22183.2573155,22183.323248041,22183.996209458,22185.372917958,1,0.784691167002165
118,25,3,categorization,0,bathroom,SHINEd_sun_aapitsgbtktqubfy.tif,12,0.0666666666666667,0.0666666666666667,1.78333333333333,22185.39061575,22186.264927416,13,22185.457695625,22185.521709125,22186.294703791,22188.071424333,1,0.874311666000722
118,26,3,categorization,0,kitchen,SHINEd_sun_aeqdocilnnpuvuhx.tif,83,0.0666666666666667,0.0666666666666667,0.783333333333333,22188.088691625,22188.710962541,9,22188.155305708,22188.221489166,22188.727518666,22189.504189416,1,0.62227091600289
118,27,3,categorization,0,kitchen,SHINEd_sun_agorklincwxrdtga.tif,87,0.0666666666666667,0.0666666666666667,1.65,22189.509307583,22190.375089333,13,22189.571032625,22189.631969833,22190.383930833,22192.027309541,0,0.86578174999886
118,28,3,categorization,0,kitchen,SHINEd_sun_ahdycvpopffkzzsu.tif,90,0.0666666666666667,0.0666666666666667,1.86666666666667,22192.0454645,22192.342158833,9,22192.1118535,22192.177366916,22192.367203208,22194.227263041,1,0.296694332999323
118,29,3,categorization,0,bathroom,SHINEd_sun_ausgutylgojavyoq.tif,53,0.0666666666666667,0.0666666666666667,1.23333333333333,22194.245375708,22194.705488833,13,22194.312015541,22194.377855416,22194.734102833,22195.960818916,1,0.460113124998315
118,30,3,categorization,0,bathroom,SHINEd_sun_amzlamotzwfkwjco.tif,37,0.0666666666666667,0.0666666666666667,0.7,22195.978461,22196.267568791,9,22196.044796666,22196.110752291,22196.283020958,22196.976394541,0,0.289107791002607
118,31,3,categorization,0,kitchen,SHINEd_sun_auticobqsbwgoppi.tif,104,0.0666666666666667,0.0666666666666667,0.716666666666667,22196.98985375,22197.431786041,9,22197.0564825,22197.122197708,22197.462353333,22198.172356916,1,0.44193229099983
118,32,3,categorization,0,bathroom,SHINEd_sun_aoybiabnpadelefl.tif,41,0.0666666666666667,0.0666666666666667,1.05,22198.176805375,22198.510664666,9,22198.238827583,22198.299562541,22198.518042375,22199.561421833,0,0.333859291000408
118,33,3,categorization,0,kitchen,SHINEd_sun_aenotlpyftoioydp.tif,82,0.0666666666666667,0.0666666666666667,1.1,22199.570501625,22199.848351291,13,22199.634863166,22199.701328708,22199.87456,22200.967950291,0,0.277849665999383
118,34,3,categorization,0,kitchen,SHINEd_sun_afuyedyxivkhecmu.tif,85,0.0666666666666667,0.0666666666666667,1.13333333333333,22200.983543166,22201.2020565,13,22201.050151583,22201.115898041,22201.222048458,22202.3487625,0,0.218513333998999
118,35,3,categorization,0,kitchen,SHINEd_sun_ahljzhgcdpomplvg.tif,91,0.0666666666666667,0.0666666666666667,1.38333333333333,22202.359204916,22202.630010125,13,22202.424094125,22202.491835916,22202.647821416,22204.024546625,0,0.270805209001992
118,36,3,categorization,0,bathroom,SHINEd_sun_ahqjwnzgolcaoidx.tif,29,0.0666666666666667,0.0666666666666667,1.5,22204.042936291,22205.11044075,9,22204.109390125,22204.175297291,22205.127630291,22206.621004416,0,1.06750445899888
118,37,3,categorization,0,kitchen,SHINEd_sun_adgqasybjyktddhj.tif,78,0.0666666666666667,0.0666666666666667,1.61666666666667,22206.633072958,22207.277979625,9,22206.69932475,22206.76556575,22207.305284208,22208.915343458,1,0.644906666999304
118,38,3,categorization,0,bathroom,SHINEd_labelme_sfxiulhjbhlyiyt.tif,11,0.0666666666666667,0.0666666666666667,0.983333333333333,22208.934161208,22209.69879675,13,22209.000643166,22209.066756208,22209.723291083,22210.699964791,1,0.764635542000178
118,39,3,categorization,0,kitchen,SHINEd_sun_abdxkyyxwfskuaqb.tif,70,0.0666666666666667,0.0666666666666667,1.3,22210.705720375,22211.614393375,9,22210.767369708,22210.828384541,22211.63025775,22212.923648041,1,0.908672999998089
118,40,3,categorization,0,bathroom,SHINEd_sun_axldvoqbuvuggfmq.tif,57,0.0666666666666667,0.0666666666666667,1.03333333333333,22212.9412665,22213.584828875,13,22213.009160625,22213.073824291,22213.594968541,22214.621691125,1,0.643562374996691
118,41,3,categorization,0,kitchen,SHINEd_sun_agzzivivdpnawacl.tif,89,0.0666666666666667,0.0666666666666667,1.45,22214.637606166,22215.006231625,9,22214.70005675,22214.760317458,22215.01224075,22216.455622791,1,0.368625458999304
118,42,3,categorization,0,bathroom,SHINEd_sun_atstyziqcmkahyxk.tif,51,0.0666666666666667,0.0666666666666667,1.23333333333333,22216.473819041,22217.1843025,13,22216.540505375,22216.606395916,22217.193692375,22218.420395,1,0.710483459002717
118,43,3,categorization,0,kitchen,SHINEd_sun_aehawpgmrlhlvcow.tif,81,0.0666666666666667,0.0666666666666667,1.26666666666667,22218.439759125,22219.265362333,9,22218.506744708,22218.572106791,22219.276792,22220.536815458,1,0.825603207998938
118,44,3,categorization,0,kitchen,SHINEd_sun_acfmftudsenhrfhy.tif,74,0.0666666666666667,0.0666666666666667,1.03333333333333,22220.547635583,22221.195937833,9,22220.614550166,22220.681028416,22221.221512625,22222.248242083,1,0.648302249999688
118,45,3,categorization,0,kitchen,SHINEd_sun_aapllqyqlykszopd.tif,66,0.0666666666666667,0.0666666666666667,1.31666666666667,22222.266442333,22222.902661083,9,22222.33322,22222.391016625,22222.909569125,22224.219623041,1,0.636218750001717
118,46,3,categorization,0,bathroom,SHINEd_sun_agrwbmhcpmfuwmsg.tif,24,0.0666666666666667,0.0666666666666667,1.7,22224.237794833,22224.760134208,9,22224.304496541,22224.3706225,22224.776602958,22226.469973791,0,0.522339375002048
118,47,3,categorization,0,bathroom,SHINEd_sun_aleqenyvunhactkl.tif,32,0.0666666666666667,0.0666666666666667,1.35,22226.488323583,22227.071695875,13,22226.555121166,22226.620960791,22227.09420275,22228.437591166,1,0.583372292003332
118,48,3,categorization,0,bathroom,SHINEd_sun_apeeialkgkuxddgh.tif,42,0.0666666666666667,0.0666666666666667,0.8,22228.455389,22228.928797791,9,22228.522328291,22228.588005791,22228.943798541,22229.737173791,0,0.473408791000111
118,49,3,categorization,0,bathroom,SHINEd_sun_aghyqhbptboemmoq.tif,23,0.0666666666666667,0.0666666666666667,0.766666666666667,22229.750327583,22230.2481145,9,22229.817065166,22229.883371625,22230.273536541,22231.033541666,0,0.497786916999758
118,50,3,categorization,0,bathroom,SHINEd_sun_apmqjbnwghzuhhzh.tif,46,0.0666666666666667,0.0666666666666667,1.38333333333333,22231.038587583,22231.670615666,13,22231.100240166,22231.161436625,22231.679918,22233.056631041,1,0.632028083000478
118,1,4,categorization,0,kitchen,SHINEd_sun_auaiucuqpdausiva.tif,102,0.0666666666666667,0.0666666666666667,1,22245.226216166,22246.342118041,9,22245.28846025,22245.348936,22246.351487833,22247.344826041,1,1.11590187500042
118,2,4,categorization,0,kitchen,SHINEd_labelme_kxvouciolcpqplr.tif,62,0.0666666666666667,0.0666666666666667,0.966666666666667,22247.350303041,22248.3507165,13,22247.412051791,22247.472889375,22248.358690458,22249.318696666,0,1.00041345900172
118,3,4,categorization,0,bathroom,SHINEd_sun_aclfzgynxzxlbepz.tif,19,0.0666666666666667,0.0666666666666667,1.75,22249.324376125,22250.214257708,13,22249.386171125,22249.446995291,22250.232451458,22251.975835291,1,0.889881582999806
118,4,4,categorization,0,bathroom,SHINEd_sun_auzqhkafidnkrwmo.tif,54,0.0666666666666667,0.0666666666666667,1.68333333333333,22251.995263208,22253.203184833,13,22252.061898791,22252.127638541,22253.216645958,22254.893362041,1,1.2079216250022
118,5,4,categorization,0,kitchen,SHINEd_sun_acwjdupvyjsugpay.tif,76,0.0666666666666667,0.0666666666666667,1.58333333333333,22254.910821666,22255.52036725,9,22254.9776695,22255.044373708,22255.5321455,22257.108861041,1,0.609545584000443
118,6,4,categorization,0,kitchen,SHINEd_sun_abrcnpqqhmjwekyf.tif,73,0.0666666666666667,0.0666666666666667,1,22257.120787041,22257.839555333,9,22257.188245666,22257.25316325,22257.860084333,22258.853423041,1,0.718768292001187
118,7,4,categorization,0,kitchen,SHINEd_sun_acxkpeoqbwcxfvip.tif,77,0.0666666666666667,0.0666666666666667,1.33333333333333,22258.859442541,22259.454628541,9,22258.921066416,22258.982142166,22259.467103,22260.793829166,1,0.595185999998648
118,8,4,categorization,0,bathroom,SHINEd_sun_alkosphxlxwjwgjd.tif,34,0.0666666666666667,0.0666666666666667,1.26666666666667,22260.811801833,22261.503165958,13,22260.878200708,22260.943920916,22261.5147685,22262.774810416,1,0.69136412500302
118,9,4,categorization,0,kitchen,SHINEd_sun_akchetnepxlcxhsu.tif,98,0.0666666666666667,0.0666666666666667,0.883333333333333,22262.791678291,22263.466057541,13,22262.858229,22262.924555833,22263.478468625,22264.355190666,0,0.674379250001948
118,10,4,categorization,0,kitchen,SHINEd_sun_aadbddgrdsjugojn.tif,64,0.0666666666666667,0.0666666666666667,1.26666666666667,22264.369438625,22265.310027041,13,22264.436624166,22264.502056291,22265.321008958,22266.581060791,0,0.940588416000537
118,11,4,categorization,0,kitchen,SHINEd_sun_aaxxjlsuzvqlgylf.tif,68,0.0666666666666667,0.0666666666666667,2,22266.599453333,22267.289366333,9,22266.66601375,22266.729476458,22267.319492,22269.312863375,1,0.689912999998342
118,12,4,categorization,0,kitchen,SHINEd_sun_amjjdeyrggfqgmom.tif,100,0.0666666666666667,0.0666666666666667,0.733333333333333,22269.332795375,22270.010067125,9,22269.39908475,22269.465400041,22270.038965041,22270.765637625,1,0.677271749998908
118,13,4,categorization,0,kitchen,SHINEd_sun_aexklacwqwezaorf.tif,84,0.0666666666666667,0.0666666666666667,0.883333333333333,22270.770638208,22271.558061166,9,22270.832286916,22270.893282166,22271.561548833,22272.438219333,1,0.787422958001116
118,14,4,categorization,0,bathroom,SHINEd_sun_aofnryafpsjimzsb.tif,40,0.0666666666666667,0.0666666666666667,0.983333333333333,22272.443622166,22273.174157291,9,22272.505437,22272.566164416,22273.184759541,22274.161431333,0,0.730535124999733
118,15,4,categorization,0,kitchen,SHINEd_sun_agubuxuukhzyzpdp.tif,88,0.0666666666666667,0.0666666666666667,1.56666666666667,22274.1667795,22274.934350541,9,22274.22849675,22274.289408041,22274.941252666,22276.501293541,1,0.767571041000338
118,16,4,categorization,0,kitchen,SHINEd_sun_admlmbcdswaszruo.tif,79,0.0666666666666667,0.0666666666666667,1.08333333333333,22276.519783416,22277.267457083,13,22276.586640833,22276.652602791,22277.292547291,22278.369272458,0,0.747673666999617
118,17,4,categorization,0,bathroom,SHINEd_sun_anhioqovhscjqqwb.tif,38,0.0666666666666667,0.0666666666666667,0.75,22278.381426375,22279.315644583,13,22278.447213208,22278.514024166,22279.337495791,22280.080867166,1,0.934218207999947
118,18,4,categorization,0,bathroom,SHINEd_sun_ambriybtogmepttm.tif,36,0.0666666666666667,0.0666666666666667,0.966666666666667,22280.099341166,22280.798740875,13,22280.165987083,22280.231832125,22280.817632625,22281.777637875,1,0.699399709003046
118,19,4,categorization,0,kitchen,SHINEd_sun_aunzlwrbjumxhwdj.tif,103,0.0666666666666667,0.0666666666666667,1.63333333333333,22281.782634625,22282.461928,13,22281.8445205,22281.905357708,22282.474088291,22284.100817083,0,0.67929337500027
118,20,4,categorization,0,bathroom,SHINEd_sun_asfwthctfqerjvxr.tif,49,0.0666666666666667,0.0666666666666667,1.46666666666667,22284.1181245,22284.851849666,9,22284.185156458,22284.250441375,22284.874086708,22286.334130583,0,0.733725165999203
118,21,4,categorization,0,bathroom,SHINEd_sun_apynckhmoftszqoq.tif,47,0.0666666666666667,0.0666666666666667,0.933333333333333,22286.348918166,22287.0717585,9,22286.415660666,22286.481507125,22287.087473125,22288.014147,0,0.722840333997738
118,22,4,categorization,0,bathroom,SHINEd_sun_acegryoqftbzowsg.tif,17,0.0666666666666667,0.0666666666666667,1.45,22288.020169291,22288.55063625,9,22288.081827833,22288.142849125,22288.561479333,22290.004861708,0,0.53046695899684
118,23,4,categorization,0,bathroom,SHINEd_sun_agguqiubmwhqqunb.tif,22,0.0666666666666667,0.0666666666666667,0.966666666666667,22290.022978833,22290.885587666,9,22290.090006375,22290.155480583,22290.911613833,22291.871619125,0,0.862608833002014
118,24,4,categorization,0,bathroom,SHINEd_sun_axxbkopsgyouuebh.tif,58,0.0666666666666667,0.0666666666666667,0.816666666666667,22291.877426625,22292.974913958,9,22291.939098833,22292.000081291,22292.985446833,22293.795452166,0,1.09748733300148
118,25,4,categorization,0,kitchen,SHINEd_sun_abdenxonkemggwsq.tif,69,0.0666666666666667,0.0666666666666667,1.96666666666667,22293.79999725,22295.037878375,9,22293.8618055,22293.92256375,22295.041400916,22297.001448041,1,1.23788112499824
118,26,4,categorization,0,bathroom,SHINEd_sun_abjtwfukuwddzted.tif,15,0.0666666666666667,0.0666666666666667,0.916666666666667,22297.020348333,22297.704245958,13,22297.086713416,22297.152945416,22297.726236666,22298.636243333,1,0.6838976250001
118,27,4,categorization,0,kitchen,SHINEd_sun_awcpdzzznmweyyhv.tif,106,0.0666666666666667,0.0666666666666667,1.28333333333333,22298.642125791,22299.350453291,9,22298.703890958,22298.764799458,22299.366986041,22300.643705708,1,0.708327500000451
118,28,4,categorization,0,bathroom,SHINEd_sun_anryaplzeujmzfkd.tif,39,0.0666666666666667,0.0666666666666667,1.8,22300.66069975,22301.341718916,13,22300.727196291,22300.793132791,22301.366196083,22303.159579291,1,0.681019166000624
118,29,4,categorization,0,kitchen,SHINEd_sun_ahywdevtimnqcsln.tif,94,0.0666666666666667,0.0666666666666667,1.33333333333333,22303.178888791,22304.655033458,9,22303.245188958,22303.311389916,22304.664371833,22305.991092291,1,1.47614466699815
118,30,4,categorization,0,kitchen,SHINEd_sun_azmutvzbxypaceni.tif,110,0.0666666666666667,0.0666666666666667,1.06666666666667,22306.007639375,22306.941732166,9,22306.074342291,22306.140535041,22306.963695708,22308.0237545,1,0.934092791001603
118,31,4,categorization,0,kitchen,SHINEd_sun_ajkqhtgcbgpcwrwn.tif,97,0.0666666666666667,0.0666666666666667,1.03333333333333,22308.037473416,22308.848755541,13,22308.1030145,22308.168913458,22308.875654833,22309.90237925,0,0.811282124999707
118,32,4,categorization,0,bathroom,SHINEd_sun_agyqfjcfkdcydepw.tif,25,0.0666666666666667,0.0666666666666667,0.733333333333333,22309.918796125,22310.51054625,13,22309.985866375,22310.043161916,22310.528379541,22311.255052708,1,0.591750125000544
118,33,4,categorization,0,kitchen,SHINEd_sun_ahpczsiumwwocjkv.tif,92,0.0666666666666667,0.0666666666666667,0.766666666666667,22311.260282458,22311.63075475,9,22311.321979541,22311.382887583,22311.634806583,22312.394811083,1,0.370472292001068
118,34,4,categorization,0,bathroom,SHINEd_sun_akiytfaagpdsphgz.tif,31,0.0666666666666667,0.0666666666666667,1.1,22312.400110583,22312.958672,9,22312.461812458,22312.522772708,22312.9747205,22314.068110833,0,0.558561417001329
118,35,4,categorization,0,kitchen,SHINEd_sun_avszsnwsbuqfgzbn.tif,105,0.0666666666666667,0.0666666666666667,1.81666666666667,22314.078584458,22314.561753458,13,22314.143329,22314.211017291,22314.5843895,22316.394423541,0,0.483169000002817
118,36,4,categorization,0,kitchen,SHINEd_sun_aegoxogugdkwpmpj.tif,80,0.0666666666666667,0.0666666666666667,0.883333333333333,22316.412520791,22316.955297,9,22316.478860666,22316.545239541,22316.985103208,22317.861815875,1,0.542776209000294
118,37,4,categorization,0,bathroom,SHINEd_sun_aavhrsfjbserjtht.tif,13,0.0666666666666667,0.0666666666666667,1.7,22317.878556583,22318.598717791,9,22317.9450775,22318.011226875,22318.613632041,22320.307017291,0,0.720161207998899
118,38,4,categorization,0,bathroom,SHINEd_sun_apkruvsevgegsdwp.tif,44,0.0666666666666667,0.0666666666666667,1.58333333333333,22320.324357833,22321.203826875,9,22320.391108541,22320.457247125,22321.230446125,22322.80715675,0,0.879469041999982
118,39,4,categorization,0,bathroom,SHINEd_sun_axyrejkiiaqiurjk.tif,59,0.0666666666666667,0.0666666666666667,0.833333333333333,22322.8223415,22323.279551083,13,22322.889206875,22322.954967833,22323.293936666,22324.120658625,1,0.457209583000804
118,40,4,categorization,0,bathroom,SHINEd_sun_aqrpegblszgcoujh.tif,48,0.0666666666666667,0.0666666666666667,0.95,22324.137679583,22324.646557166,13,22324.204031125,22324.269194791,22324.654565916,22325.59790375,1,0.508877583000867
118,41,4,categorization,0,kitchen,SHINEd_sun_ahspylgoovwmwvgk.tif,93,0.0666666666666667,0.0666666666666667,1.06666666666667,22325.6028455,22326.326189958,9,22325.664544666,22325.725477666,22326.344298166,22327.40435825,1,0.723344457997882
118,42,4,categorization,0,bathroom,SHINEd_sun_azqyogdvyhahyram.tif,60,0.0666666666666667,0.0666666666666667,1.68333333333333,22327.415639875,22328.565911166,13,22327.479980833,22327.54673875,22328.58647625,22330.263204583,1,1.15027129100054
118,43,4,categorization,0,bathroom,SHINEd_sun_abapwbhyhkfixyex.tif,14,0.0666666666666667,0.0666666666666667,1.31666666666667,22330.283594291,22331.009471666,9,22330.35026075,22330.416588958,22331.022070333,22332.332127916,0,0.725877374999982
118,44,4,categorization,0,kitchen,SHINEd_sun_axyyrmzcupyhlivc.tif,107,0.0666666666666667,0.0666666666666667,1.61666666666667,22332.3505275,22333.122103541,13,22332.417248875,22332.482684541,22333.138134541,22334.748178583,0,0.771576041002845
118,45,4,categorization,0,kitchen,SHINEd_sun_aymvwlarqodbwuoc.tif,108,0.0666666666666667,0.0666666666666667,1.15,22334.765495375,22335.393505458,9,22334.832172916,22334.898013916,22335.421350083,22336.5647195,1,0.628010083000845
118,46,4,categorization,0,bathroom,SHINEd_sun_acgyywnybuveqsro.tif,18,0.0666666666666667,0.0666666666666667,1.25,22336.57462825,22337.231448958,13,22336.641188083,22336.706964958,22337.246409416,22338.489804125,1,0.656820707998122
118,47,4,categorization,0,bathroom,SHINEd_sun_acduarbnmmoglmiv.tif,16,0.0666666666666667,0.0666666666666667,1.1,22338.499862875,22339.192354541,9,22338.564808666,22338.63241325,22339.221748125,22340.315121291,0,0.692491665999114
118,48,4,categorization,0,bathroom,SHINEd_sun_afcoljnjfoxjtgja.tif,20,0.0666666666666667,0.0666666666666667,0.9,22340.334045333,22341.0941805,9,22340.400805125,22340.466701625,22341.102751083,22341.996089625,0,0.760135167001863
118,49,4,categorization,0,kitchen,SHINEd_sun_abftihopvusyfakt.tif,71,0.0666666666666667,0.0666666666666667,1.3,22342.001267416,22342.829826791,9,22342.062952083,22342.123986916,22342.842619375,22344.136000875,1,0.828559375000623
118,50,4,categorization,0,bathroom,SHINEd_sun_avhrdrntsqrjzccq.tif,55,0.0666666666666667,0.0666666666666667,1.25,22344.154116416,22344.826294625,13,22344.220901541,22344.286516625,22344.841425958,22346.08481625,1,0.672178208998957
118,1,5,categorization,0,kitchen,SHINEd_sun_aarfiyshqohlwkmo.tif,67,0.0666666666666667,0.0666666666666667,1.7,22355.18922325,22357.046654916,9,22355.252201541,22355.312309125,22357.064921083,22358.758304458,1,1.8574316660015
118,2,5,categorization,0,kitchen,SHINEd_sun_abdxkyyxwfskuaqb.tif,70,0.0666666666666667,0.0666666666666667,1.81666666666667,22358.7766195,22360.566399583,13,22358.843496958,22358.908897583,22360.578366791,22362.388406625,0,1.78978008299964
118,3,5,categorization,0,bathroom,SHINEd_sun_aoybiabnpadelefl.tif,41,0.0666666666666667,0.0666666666666667,1.23333333333333,22362.406387458,22363.239344041,9,22362.4732215,22362.539305708,22363.262749458,22364.489469208,0,0.83295658300267
118,4,5,categorization,0,bathroom,SHINEd_sun_ajlawzvmubibwbpy.tif,30,0.0666666666666667,0.0666666666666667,1.4,22364.507216166,22366.103963166,13,22364.573954458,22364.639906208,22366.1328335,22367.526232458,1,1.5967469999996
118,5,5,categorization,0,bathroom,SHINEd_sun_ahaulkltgpkeeemi.tif,26,0.0666666666666667,0.0666666666666667,1.03333333333333,22367.535900208,22368.191630125,13,22367.602743125,22367.668620625,22368.207984541,22369.234713125,1,0.655729916998098
118,6,5,categorization,0,kitchen,SHINEd_sun_ajcbwwvdlsvjyzje.tif,96,0.0666666666666667,0.0666666666666667,1.38333333333333,22369.244541791,22370.040492166,13,22369.309539333,22369.377206833,22370.06721825,22371.443939916,0,0.795950375002576
118,7,5,categorization,0,kitchen,SHINEd_sun_aqeaevwwwjoqhzvl.tif,101,0.0666666666666667,0.0666666666666667,2,22371.45394425,22372.585421958,13,22371.519371041,22371.585086666,22372.609567458,22374.602965166,0,1.1314777080006
118,8,5,categorization,0,bathroom,SHINEd_sun_apkruvsevgegsdwp.tif,44,0.0666666666666667,0.0666666666666667,1.85,22374.619773875,22375.320671875,13,22374.686891541,22374.7522655,22375.342569416,22377.185963083,1,0.700897999999142
118,9,5,categorization,0,kitchen,SHINEd_sun_ahljzhgcdpomplvg.tif,91,0.0666666666666667,0.0666666666666667,0.816666666666667,22377.204031833,22377.902601416,9,22377.271175583,22377.336494625,22377.926526541,22378.736532833,1,0.69856958300079
118,10,5,categorization,0,bathroom,SHINEd_sun_amzlamotzwfkwjco.tif,37,0.0666666666666667,0.0666666666666667,1.85,22378.742018791,22379.518437541,13,22378.80367725,22378.864836041,22379.533135666,22381.3765295,1,0.776418749999721
118,11,5,categorization,0,kitchen,SHINEd_sun_ahpczsiumwwocjkv.tif,92,0.0666666666666667,0.0666666666666667,0.733333333333333,22381.395225791,22382.206895291,9,22381.461487541,22381.526270458,22382.232730833,22382.959403,1,0.811669500002608
118,12,5,categorization,0,bathroom,SHINEd_sun_asfwthctfqerjvxr.tif,49,0.0666666666666667,0.0666666666666667,0.716666666666667,22382.965282333,22383.750555416,9,22383.02716275,22383.088159791,22383.756804833,22384.466809583,0,0.785273083001812
118,13,5,categorization,0,bathroom,SHINEd_sun_atstyziqcmkahyxk.tif,51,0.0666666666666667,0.0666666666666667,0.833333333333333,22384.471720708,22385.198165166,13,22384.533392458,22384.594828708,22385.213339583,22386.040010916,1,0.726444457999605
118,14,5,categorization,0,kitchen,SHINEd_sun_axyyrmzcupyhlivc.tif,107,0.0666666666666667,0.0666666666666667,0.95,22386.044858666,22386.934311,9,22386.106640416,22386.1675375,22386.952709166,22387.896047666,1,0.889452334002272
118,15,5,categorization,0,bathroom,SHINEd_sun_anryaplzeujmzfkd.tif,39,0.0666666666666667,0.0666666666666667,1.96666666666667,22387.90095675,22388.501546875,13,22387.962624416,22388.02363875,22388.5089335,22390.468988916,1,0.600590124999144
118,16,5,categorization,0,bathroom,SHINEd_sun_apynckhmoftszqoq.tif,47,0.0666666666666667,0.0666666666666667,1.86666666666667,22390.487568333,22390.975061291,13,22390.554184583,22390.619969416,22390.992795375,22392.852840291,1,0.487492958000075
118,17,5,categorization,0,bathroom,SHINEd_sun_aavhrsfjbserjtht.tif,13,0.0666666666666667,0.0666666666666667,1.51666666666667,22392.870780708,22393.25989825,9,22392.937684833,22393.003263583,22393.275753958,22394.785814,0,0.38911754199944
118,18,5,categorization,0,bathroom,SHINEd_sun_alotolagknyrgtsk.tif,35,0.0666666666666667,0.0666666666666667,1.3,22394.804264625,22395.070296916,13,22394.870744041,22394.937241208,22395.093766833,22396.387149416,1,0.266032291001466
118,19,5,categorization,0,kitchen,SHINEd_sun_aexklacwqwezaorf.tif,84,0.0666666666666667,0.0666666666666667,1.91666666666667,22396.398534916,22396.678101208,9,22396.460413208,22396.521129625,22396.689678666,22398.599741375,1,0.279566291999799
118,20,5,categorization,0,kitchen,SHINEd_sun_auaiucuqpdausiva.tif,102,0.0666666666666667,0.0666666666666667,1.23333333333333,22398.616052416,22400.093951416,13,22398.68271225,22398.748733916,22400.101109208,22401.327819041,0,1.47789900000134
118,21,5,categorization,0,kitchen,SHINEd_sun_aenotlpyftoioydp.tif,82,0.0666666666666667,0.0666666666666667,0.866666666666667,22401.340541583,22401.977660625,9,22401.407286833,22401.470224416,22401.992746166,22402.852809416,1,0.637119042003178
118,22,5,categorization,0,kitchen,SHINEd_sun_ahywdevtimnqcsln.tif,94,0.0666666666666667,0.0666666666666667,0.8,22402.869174583,22403.47792375,9,22402.936000791,22403.001476208,22403.486561625,22404.279900125,1,0.608749167000497
118,23,5,categorization,0,kitchen,SHINEd_sun_awcpdzzznmweyyhv.tif,106,0.0666666666666667,0.0666666666666667,1.51666666666667,22404.284823416,22404.637570541,13,22404.346543958,22404.407432,22404.642529416,22406.152573541,0,0.352747124998132
118,24,5,categorization,0,bathroom,SHINEd_sun_ahijqszoswveeyji.tif,28,0.0666666666666667,0.0666666666666667,1.18333333333333,22406.170326458,22406.490964,9,22406.23694375,22406.3029075,22406.509013208,22407.685722333,0,0.32063754200135
118,25,5,categorization,0,bathroom,SHINEd_sun_acduarbnmmoglmiv.tif,16,0.0666666666666667,0.0666666666666667,1.6,22407.704336,22408.085464416,13,22407.766829875,22407.826944625,22408.095389375,22409.688772875,1,0.381128416000138
118,26,5,categorization,0,kitchen,SHINEd_sun_akcjzhbbjlbogpdi.tif,99,0.0666666666666667,0.0666666666666667,1.56666666666667,22409.708036083,22414.461909166,9,22409.774678041,22409.840817541,22414.477653875,22416.037695458,1,4.75387308299833
118,27,5,categorization,0,kitchen,SHINEd_sun_amjjdeyrggfqgmom.tif,100,0.0666666666666667,0.0666666666666667,1.36666666666667,22416.051294458,22416.591176833,9,22416.117601,22416.184065875,22416.606669291,22417.966729958,1,0.539882375000161
118,28,5,categorization,0,kitchen,SHINEd_sun_ajkqhtgcbgpcwrwn.tif,97,0.0666666666666667,0.0666666666666667,1.53333333333333,22417.984504625,22418.529559708,9,22418.051231875,22418.117589291,22418.557545208,22420.084257833,1,0.54505508299917
118,29,5,categorization,0,bathroom,SHINEd_sun_axxbkopsgyouuebh.tif,58,0.0666666666666667,0.0666666666666667,1.4,22420.103328708,22420.917474875,13,22420.170088833,22420.235923458,22420.94233275,22422.335726833,1,0.814146167002036
118,30,5,categorization,0,bathroom,SHINEd_sun_avhrdrntsqrjzccq.tif,55,0.0666666666666667,0.0666666666666667,1.06666666666667,22422.353378875,22423.033662875,9,22422.421630666,22422.486359375,22423.059623458,22424.119684375,0,0.680284000001848
118,31,5,categorization,0,kitchen,SHINEd_sun_aypmqwcualkenuoe.tif,109,0.0666666666666667,0.0666666666666667,1.63333333333333,22424.13145575,22424.802396416,9,22424.196352,22424.263757125,22424.8201825,22426.446890791,1,0.670940665997477
118,32,5,categorization,0,bathroom,SHINEd_sun_akiytfaagpdsphgz.tif,31,0.0666666666666667,0.0666666666666667,1.8,22426.46553225,22427.214389125,13,22426.532104166,22426.598520833,22427.238937625,22429.032323333,1,0.748856875001366
118,33,5,categorization,0,kitchen,SHINEd_labelme_rykdqxenmhulbdn.tif,63,0.0666666666666667,0.0666666666666667,1.53333333333333,22429.050889791,22429.470445791,9,22429.117845958,22429.183821291,22429.48883025,22431.015553458,1,0.419556000000739
118,34,5,categorization,0,bathroom,SHINEd_sun_aleqenyvunhactkl.tif,32,0.0666666666666667,0.0666666666666667,0.766666666666667,22431.033563833,22431.432152041,13,22431.100602291,22431.166628083,22431.456927875,22432.216991125,1,0.398588208001456
118,35,5,categorization,0,kitchen,SHINEd_sun_abrcnpqqhmjwekyf.tif,73,0.0666666666666667,0.0666666666666667,1.86666666666667,22432.230339625,22432.6620555,9,22432.297160708,22432.362851208,22432.682240166,22434.542287916,1,0.431715875001828
118,36,5,categorization,0,bathroom,SHINEd_sun_anhioqovhscjqqwb.tif,38,0.0666666666666667,0.0666666666666667,1.13333333333333,22434.560395708,22434.902843541,13,22434.627073541,22434.692827791,22434.932547875,22436.059253958,1,0.342447833001643
118,37,5,categorization,0,bathroom,SHINEd_sun_acgyywnybuveqsro.tif,18,0.0666666666666667,0.0666666666666667,1.73333333333333,22436.070023791,22436.659530833,13,22436.135376291,22436.202491458,22436.674877,22438.401580291,1,0.58950704200106
118,38,5,categorization,0,kitchen,SHINEd_sun_aadbddgrdsjugojn.tif,64,0.0666666666666667,0.0666666666666667,0.766666666666667,22438.419762875,22438.722208791,9,22438.486529708,22438.552430125,22438.742113,22439.502161166,1,0.302445916000579
118,39,5,categorization,0,kitchen,SHINEd_sun_ahdycvpopffkzzsu.tif,90,0.0666666666666667,0.0666666666666667,1.85,22439.510873041,22439.870717833,13,22439.575529791,22439.64326475,22439.899424583,22441.742807125,0,0.35984479200124
118,40,5,categorization,0,kitchen,SHINEd_sun_admlmbcdswaszruo.tif,79,0.0666666666666667,0.0666666666666667,0.966666666666667,22441.763192458,22442.622826,9,22441.830317125,22441.895852583,22442.6525635,22443.612568791,1,0.859633542000665
118,41,5,categorization,0,bathroom,SHINEd_sun_ahcvzmoyaycdoftf.tif,27,0.0666666666666667,0.0666666666666667,1.06666666666667,22443.617728083,22444.333407416,13,22443.679404375,22443.740373625,22444.342273541,22445.402321333,1,0.715679332999571
118,42,5,categorization,0,bathroom,SHINEd_sun_apeeialkgkuxddgh.tif,42,0.0666666666666667,0.0666666666666667,1.38333333333333,22445.41366025,22446.1269635,13,22445.477909541,22445.544943583,22446.151328041,22447.52805675,1,0.713303249998717
118,43,5,categorization,0,kitchen,SHINEd_sun_ahspylgoovwmwvgk.tif,93,0.0666666666666667,0.0666666666666667,0.766666666666667,22447.538704583,22448.178789708,9,22447.605432541,22447.671280083,22448.193509625,22448.953558416,1,0.640085125000041
118,44,5,categorization,0,kitchen,SHINEd_labelme_kxvouciolcpqplr.tif,62,0.0666666666666667,0.0666666666666667,0.866666666666667,22448.970448083,22449.797837541,9,22449.0373335,22449.102974291,22449.805498875,22450.665505625,1,0.827389457997924
118,45,5,categorization,0,kitchen,SHINEd_sun_auticobqsbwgoppi.tif,104,0.0666666666666667,0.0666666666666667,1.25,22450.67055875,22451.445508166,9,22450.732153166,22450.793290625,22451.462031916,22452.705423291,1,0.774949416001618
118,46,5,categorization,0,bathroom,SHINEd_sun_aggnnqpdorgxpvce.tif,21,0.0666666666666667,0.0666666666666667,1.03333333333333,22452.72305525,22453.769846416,13,22452.790002791,22452.85567275,22453.795532583,22454.822249958,1,1.046791165998
118,47,5,categorization,0,kitchen,SHINEd_sun_agzzivivdpnawacl.tif,89,0.0666666666666667,0.0666666666666667,0.783333333333333,22454.83415225,22455.494838625,9,22454.8984055,22454.965228708,22455.52051425,22456.297236208,1,0.660686374998477
118,48,5,categorization,0,kitchen,SHINEd_sun_aeqdocilnnpuvuhx.tif,83,0.0666666666666667,0.0666666666666667,0.7,22456.314998041,22457.189933,13,22456.381867833,22456.447467666,22457.200023041,22457.89336175,0,0.874934958999802
118,49,5,categorization,0,bathroom,SHINEd_sun_aljolscmmzydegqp.tif,33,0.0666666666666667,0.0666666666666667,1.75,22457.898804125,22458.293685625,9,22457.960387208,22458.021444791,22458.306602916,22460.049986541,0,0.394881500000338
118,50,5,categorization,0,bathroom,SHINEd_sun_aunuadmjocsddsrl.tif,52,0.0666666666666667,0.0666666666666667,1.36666666666667,22460.068103625,22461.16007775,13,22460.135369458,22460.200806916,22461.172462583,22462.532519625,1,1.09197412499998
118,1,6,categorization,0,kitchen,SHINEd_sun_aymvwlarqodbwuoc.tif,108,0.0666666666666667,0.0666666666666667,0.966666666666667,22469.473166458,22470.389360958,9,22469.534903791,22469.595782666,22470.397732791,22471.357737166,1,0.916194500001438
118,2,6,categorization,0,kitchen,SHINEd_sun_acgtpgfybqjmzeyw.tif,75,0.0666666666666667,0.0666666666666667,1.73333333333333,22471.36337725,22471.950234166,9,22471.425076541,22471.486010958,22471.954702875,22473.681430166,1,0.586856916001125
118,3,6,categorization,0,kitchen,SHINEd_sun_acwjdupvyjsugpay.tif,76,0.0666666666666667,0.0666666666666667,1.91666666666667,22473.698736,22474.262427583,9,22473.765559458,22473.831258875,22474.287935791,22476.197991375,1,0.563691583000036
118,4,6,categorization,0,bathroom,SHINEd_labelme_sfxiulhjbhlyiyt.tif,11,0.0666666666666667,0.0666666666666667,0.766666666666667,22476.215535125,22476.785806125,13,22476.281674,22476.348180708,22476.804412375,22477.564418125,1,0.570271000000503
118,5,6,categorization,0,bathroom,SHINEd_sun_axldvoqbuvuggfmq.tif,57,0.0666666666666667,0.0666666666666667,0.916666666666667,22477.569549666,22478.301664541,13,22477.631188208,22477.692186125,22478.310709125,22479.220713166,1,0.732114874997933
118,6,6,categorization,0,bathroom,SHINEd_sun_agguqiubmwhqqunb.tif,22,0.0666666666666667,0.0666666666666667,1.18333333333333,22479.226480791,22479.86131,13,22479.288194666,22479.34912425,22479.867667041,22481.044373166,1,0.6348292090006
118,7,6,categorization,0,bathroom,SHINEd_sun_agyqfjcfkdcydepw.tif,25,0.0666666666666667,0.0666666666666667,1.8,22481.054155833,22481.681604375,9,22481.120888666,22481.186635958,22481.709731041,22483.503101916,0,0.627448541999911
118,8,6,categorization,0,kitchen,SHINEd_sun_abdenxonkemggwsq.tif,69,0.0666666666666667,0.0666666666666667,0.883333333333333,22483.513655708,22484.373693083,9,22483.578838708,22483.646263875,22484.402881125,22485.279551916,1,0.860037374997773
118,9,6,categorization,0,bathroom,SHINEd_sun_agrwbmhcpmfuwmsg.tif,24,0.0666666666666667,0.0666666666666667,1.83333333333333,22485.285240541,22486.373115416,9,22485.346948958,22485.408042041,22486.3769095,22488.203623083,0,1.08787487500013
118,10,6,categorization,0,kitchen,SHINEd_labelme_brsyyvweiuaazfr.tif,61,0.0666666666666667,0.0666666666666667,1.76666666666667,22488.220080125,22488.7779655,13,22488.286574458,22488.352648041,22488.79166375,22490.551712666,0,0.557885375001206
118,11,6,categorization,0,kitchen,SHINEd_sun_agubuxuukhzyzpdp.tif,88,0.0666666666666667,0.0666666666666667,0.983333333333333,22490.566930625,22491.285025041,9,22490.633556041,22490.699503708,22491.305793166,22492.282466291,1,0.718094416002714
118,12,6,categorization,0,kitchen,SHINEd_sun_akchetnepxlcxhsu.tif,98,0.0666666666666667,0.0666666666666667,0.883333333333333,22492.288089125,22492.997690333,13,22492.349802083,22492.410798708,22493.01283275,22493.889504875,0,0.709601208000095
118,13,6,categorization,0,kitchen,SHINEd_sun_avszsnwsbuqfgzbn.tif,105,0.0666666666666667,0.0666666666666667,0.85,22493.895971958,22494.366122458,9,22493.957763083,22494.018659541,22494.370867416,22495.214205333,1,0.470150499997544
118,14,6,categorization,0,kitchen,SHINEd_sun_adgqasybjyktddhj.tif,78,0.0666666666666667,0.0666666666666667,0.733333333333333,22495.219186916,22495.869719666,9,22495.280949208,22495.341739625,22495.877149583,22496.60381975,1,0.650532749998092
118,15,6,categorization,0,bathroom,SHINEd_sun_azqyogdvyhahyram.tif,60,0.0666666666666667,0.0666666666666667,1.88333333333333,22496.608783208,22497.125368291,13,22496.670661625,22496.731417208,22497.133500125,22499.010208458,1,0.516585082998063
118,16,6,categorization,0,kitchen,SHINEd_sun_acfmftudsenhrfhy.tif,74,0.0666666666666667,0.0666666666666667,0.816666666666667,22499.028476416,22499.993468041,13,22499.095236333,22499.161031833,22500.017674125,22500.827679708,0,0.964991625001858
118,17,6,categorization,0,bathroom,SHINEd_sun_ambriybtogmepttm.tif,36,0.0666666666666667,0.0666666666666667,1.9,22500.83334675,22501.693831583,9,22500.895246375,22500.956020583,22501.707940625,22503.6013285,0,0.860484832999646
118,18,6,categorization,0,kitchen,SHINEd_sun_abpwyqmlzafvklqo.tif,72,0.0666666666666667,0.0666666666666667,0.983333333333333,22503.618002166,22504.289008166,9,22503.684634291,22503.751039375,22504.307236375,22505.2839085,1,0.671006000000489
118,19,6,categorization,0,kitchen,SHINEd_sun_aggjlwcdjsjcaemh.tif,86,0.0666666666666667,0.0666666666666667,0.75,22505.288968875,22506.125859875,13,22505.350519291,22505.411593291,22506.130376916,22506.873714791,0,0.836890999999014
118,20,6,categorization,0,kitchen,SHINEd_sun_agorklincwxrdtga.tif,87,0.0666666666666667,0.0666666666666667,1.6,22506.879738333,22507.541488375,9,22506.941574583,22507.002534083,22507.554509916,22509.147896416,1,0.661750042003405
118,21,6,categorization,0,bathroom,SHINEd_sun_awnqiikzaispgmwo.tif,56,0.0666666666666667,0.0666666666666667,1.58333333333333,22509.165001791,22509.856910166,13,22509.23138,22509.297100791,22509.886853375,22511.463555583,1,0.691908374999912
118,22,6,categorization,0,bathroom,SHINEd_sun_apkxzenqapsujocq.tif,45,0.0666666666666667,0.0666666666666667,1.11666666666667,22511.472921166,22512.088101416,13,22511.537555125,22511.605374833,22512.111179125,22513.2212355,1,0.615180249998957
118,23,6,categorization,0,bathroom,SHINEd_sun_alkosphxlxwjwgjd.tif,34,0.0666666666666667,0.0666666666666667,1.53333333333333,22513.230622916,22513.844840958,13,22513.295245291,22513.363058583,22513.869374041,22515.396095375,1,0.614218042002904
118,24,6,categorization,0,kitchen,SHINEd_sun_aixorpehvfykdynp.tif,95,0.0666666666666667,0.0666666666666667,1.48333333333333,22515.414600875,22516.146625375,9,22515.479240541,22515.545476541,22516.168314458,22517.64501925,1,0.732024500000989
118,25,6,categorization,0,bathroom,SHINEd_sun_acegryoqftbzowsg.tif,17,0.0666666666666667,0.0666666666666667,1.1,22517.66083575,22518.186860416,9,22517.727847166,22517.793604541,22518.2161505,22519.309541583,0,0.526024666000012
118,26,6,categorization,0,kitchen,SHINEd_sun_aapllqyqlykszopd.tif,66,0.0666666666666667,0.0666666666666667,0.933333333333333,22519.326273,22520.301038,9,22519.392703583,22519.456628875,22520.308469083,22521.235139916,1,0.974765000002662
118,27,6,categorization,0,kitchen,SHINEd_sun_azmutvzbxypaceni.tif,110,0.0666666666666667,0.0666666666666667,0.816666666666667,22521.240744458,22521.861232833,13,22521.302504208,22521.363365416,22521.865428375,22522.675433833,0,0.620488374999695
118,28,6,categorization,0,kitchen,SHINEd_sun_aegoxogugdkwpmpj.tif,80,0.0666666666666667,0.0666666666666667,1.78333333333333,22522.680880833,22523.213376458,9,22522.742676666,22522.803525916,22523.222085291,22524.998806291,1,0.532495625000593
118,29,6,categorization,0,bathroom,SHINEd_sun_aapitsgbtktqubfy.tif,12,0.0666666666666667,0.0666666666666667,0.766666666666667,22525.016217958,22525.817541458,13,22525.083094916,22525.149131291,22525.839107458,22526.599113708,1,0.801323499999853
118,30,6,categorization,0,kitchen,SHINEd_sun_aehawpgmrlhlvcow.tif,81,0.0666666666666667,0.0666666666666667,1.45,22526.604857291,22527.333415666,13,22526.666477958,22526.727631125,22527.346391791,22528.789771166,0,0.728558374998101
118,31,6,categorization,0,bathroom,SHINEd_sun_axyrejkiiaqiurjk.tif,59,0.0666666666666667,0.0666666666666667,0.75,22528.807828583,22529.55847925,9,22528.874393291,22528.940569,22529.579413208,22530.322795958,0,0.750650666999718
118,32,6,categorization,0,bathroom,SHINEd_sun_aofnryafpsjimzsb.tif,40,0.0666666666666667,0.0666666666666667,1.36666666666667,22530.337553416,22530.940974333,9,22530.402813291,22530.461250791,22530.946578375,22532.306621958,0,0.603420916999312
118,33,6,categorization,0,bathroom,SHINEd_sun_aspsyogrekjtfozg.tif,50,0.0666666666666667,0.0666666666666667,0.75,22532.325989083,22533.462608083,9,22532.393251125,22532.458505166,22533.480478333,22534.223817916,0,1.13661899999715
118,34,6,categorization,0,bathroom,SHINEd_sun_apjevzvycyhuqghb.tif,43,0.0666666666666667,0.0666666666666667,0.783333333333333,22534.2295745,22535.293840708,9,22534.291344333,22534.352217833,22535.304059375,22536.08072975,0,1.06426620799903
118,35,6,categorization,0,kitchen,SHINEd_sun_aaxxjlsuzvqlgylf.tif,68,0.0666666666666667,0.0666666666666667,1.11666666666667,22536.08566975,22538.461015625,13,22536.147379958,22536.208284166,22538.477361666,22539.5874225,0,2.37534587499977
118,36,6,categorization,0,bathroom,SHINEd_sun_afcoljnjfoxjtgja.tif,20,0.0666666666666667,0.0666666666666667,0.766666666666667,22539.598203666,22540.621062583,13,22539.663186625,22539.730818333,22540.635773583,22541.395829416,1,1.02285891700012
118,37,6,categorization,0,kitchen,SHINEd_sun_acxkpeoqbwcxfvip.tif,77,0.0666666666666667,0.0666666666666667,0.716666666666667,22541.411889625,22542.053187333,9,22541.476655875,22541.535285458,22542.070511666,22542.780516791,1,0.641297707999911
118,38,6,categorization,0,kitchen,SHINEd_sun_aunzlwrbjumxhwdj.tif,103,0.0666666666666667,0.0666666666666667,1.33333333333333,22542.786140666,22543.389748583,9,22542.84792775,22542.908767166,22543.394010125,22544.720738083,1,0.603607916997134
118,39,6,categorization,0,bathroom,SHINEd_sun_aclfzgynxzxlbepz.tif,19,0.0666666666666667,0.0666666666666667,1.75,22544.738178125,22545.51170425,13,22544.805062,22544.870897583,22545.525529583,22547.268906333,1,0.77352612499817
118,40,6,categorization,0,bathroom,SHINEd_sun_ausgutylgojavyoq.tif,53,0.0666666666666667,0.0666666666666667,1.13333333333333,22547.2822665,22547.967932333,13,22547.349032416,22547.414548708,22547.987497666,22549.114208291,1,0.685665832999803
118,41,6,categorization,0,kitchen,SHINEd_sun_aamedkxepzlwuxes.tif,65,0.0666666666666667,0.0666666666666667,1.63333333333333,22549.124217791,22549.582850833,9,22549.189192125,22549.256714208,22549.595373291,22551.222083583,1,0.458633042002475
118,42,6,categorization,0,bathroom,SHINEd_sun_auzqhkafidnkrwmo.tif,54,0.0666666666666667,0.0666666666666667,1.43333333333333,22551.240327583,22551.976009041,13,22551.307051583,22551.372592833,22551.995629333,22553.42234025,1,0.735681458001636
118,43,6,categorization,0,bathroom,SHINEd_sun_aghyqhbptboemmoq.tif,23,0.0666666666666667,0.0666666666666667,1.83333333333333,22553.440734791,22554.095374958,9,22553.506179041,22553.573340083,22554.112357916,22555.939078,0,0.654640167002071
118,44,6,categorization,0,bathroom,SHINEd_sun_abapwbhyhkfixyex.tif,14,0.0666666666666667,0.0666666666666667,1.93333333333333,22555.957113125,22556.450791041,13,22556.023814458,22556.089953666,22556.479688708,22558.406395666,1,0.493677915997978
118,45,6,categorization,0,bathroom,SHINEd_sun_ahqjwnzgolcaoidx.tif,29,0.0666666666666667,0.0666666666666667,1.26666666666667,22558.42344675,22559.15296375,9,22558.490102958,22558.55613025,22559.17917925,22560.439224333,0,0.72951699999976
118,46,6,categorization,0,kitchen,SHINEd_sun_abftihopvusyfakt.tif,71,0.0666666666666667,0.0666666666666667,1.86666666666667,22560.456779875,22561.046193166,9,22560.523719666,22560.589452708,22561.061907041,22562.921956875,1,0.589413290999801
118,47,6,categorization,0,bathroom,SHINEd_sun_aqrpegblszgcoujh.tif,48,0.0666666666666667,0.0666666666666667,1.41666666666667,22562.941137791,22563.583443416,9,22563.007824833,22563.073614125,22563.6136865,22565.023734958,0,0.642305624998698
118,48,6,categorization,0,bathroom,SHINEd_sun_apmqjbnwghzuhhzh.tif,46,0.0666666666666667,0.0666666666666667,1.11666666666667,22565.042689958,22565.673210625,13,22565.109121791,22565.175235708,22565.69848675,22566.808543708,1,0.630520666996745
118,49,6,categorization,0,bathroom,SHINEd_sun_abjtwfukuwddzted.tif,15,0.0666666666666667,0.0666666666666667,1.8,22566.820001583,22567.485356125,13,22566.886669125,22566.952660833,22567.508392791,22569.301768666,1,0.665354541997658
118,50,6,categorization,0,kitchen,SHINEd_sun_afuyedyxivkhecmu.tif,85,0.0666666666666667,0.0666666666666667,1.25,22569.319708458,22570.05470625,9,22569.386662333,22569.452664708,22570.074758958,22571.318153791,1,0.734997792002105
118,1,7,categorization,0,bathroom,SHINEd_sun_apkxzenqapsujocq.tif,45,0.0666666666666667,0.0666666666666667,0.883333333333333,22576.955907625,22577.852903708,13,22577.0184315,22577.078804291,22577.8640185,22578.740690791,1,0.896996082999976
118,2,7,categorization,0,bathroom,SHINEd_sun_axxbkopsgyouuebh.tif,58,0.0666666666666667,0.0666666666666667,1.03333333333333,22578.745927,22579.325716916,13,22578.807634125,22578.868471,22579.337045458,22580.363771625,1,0.579789915998845
118,3,7,categorization,0,kitchen,SHINEd_sun_akcjzhbbjlbogpdi.tif,99,0.0666666666666667,0.0666666666666667,1.06666666666667,22580.375986416,22581.276880166,9,22580.440360458,22580.507480583,22581.297269666,22582.357322666,1,0.90089375000025
118,4,7,categorization,0,bathroom,SHINEd_sun_alotolagknyrgtsk.tif,35,0.0666666666666667,0.0666666666666667,0.833333333333333,22582.373775833,22583.189535416,13,22582.439484083,22582.497650666,22583.200122458,22584.026793541,1,0.815759583001636
118,5,7,categorization,0,bathroom,SHINEd_sun_abjtwfukuwddzted.tif,15,0.0666666666666667,0.0666666666666667,0.716666666666667,22584.031839666,22584.461561625,9,22584.093440583,22584.154443916,22584.473152125,22585.183157583,0,0.429721959000744
118,6,7,categorization,0,bathroom,SHINEd_sun_axldvoqbuvuggfmq.tif,57,0.0666666666666667,0.0666666666666667,0.733333333333333,22585.187727791,22585.517449333,13,22585.249355666,22585.310492416,22585.528901541,22586.255573666,1,0.329721542002517
118,7,7,categorization,0,bathroom,SHINEd_sun_ahijqszoswveeyji.tif,28,0.0666666666666667,0.0666666666666667,1.38333333333333,22586.260207791,22586.532881291,9,22586.322077416,22586.382907,22586.551367791,22587.928080375,0,0.272673499999655
118,8,7,categorization,0,bathroom,SHINEd_sun_aspsyogrekjtfozg.tif,50,0.0666666666666667,0.0666666666666667,0.9,22587.945586041,22588.47252275,13,22588.011801333,22588.078072916,22588.501471583,22589.394844291,1,0.5269367089968
118,9,7,categorization,0,kitchen,SHINEd_sun_ahljzhgcdpomplvg.tif,91,0.0666666666666667,0.0666666666666667,0.816666666666667,22589.411347916,22590.093051583,9,22589.47588225,22589.542534958,22590.111307,22590.921310416,1,0.681703666999965
118,10,7,categorization,0,kitchen,SHINEd_sun_acgtpgfybqjmzeyw.tif,75,0.0666666666666667,0.0666666666666667,0.85,22590.926297041,22591.276963208,9,22590.988246375,22591.048913083,22591.283989,22592.127327833,1,0.350666166999872
118,11,7,categorization,0,kitchen,SHINEd_sun_abdenxonkemggwsq.tif,69,0.0666666666666667,0.0666666666666667,1.6,22592.132025916,22592.644986375,9,22592.193808291,22592.254664125,22592.656491458,22594.249873541,1,0.512960459000169
118,12,7,categorization,0,bathroom,SHINEd_sun_amzlamotzwfkwjco.tif,37,0.0666666666666667,0.0666666666666667,1.75,22594.267228208,22594.894991375,13,22594.333941541,22594.400058,22594.923366708,22596.666740333,1,0.627763167001831
118,13,7,categorization,0,kitchen,SHINEd_sun_aamedkxepzlwuxes.tif,65,0.0666666666666667,0.0666666666666667,1.1,22596.683548291,22597.293540625,9,22596.750120083,22596.816011208,22597.322501291,22598.415894541,1,0.609992334000708
118,14,7,categorization,0,kitchen,SHINEd_sun_afuyedyxivkhecmu.tif,85,0.0666666666666667,0.0666666666666667,1.46666666666667,22598.424140708,22599.09500375,9,22598.488593333,22598.556663416,22599.112892875,22600.5729385,1,0.670863041999837
118,15,7,categorization,0,bathroom,SHINEd_sun_avhrdrntsqrjzccq.tif,55,0.0666666666666667,0.0666666666666667,1.25,22600.589586875,22601.127932875,9,22600.656294875,22600.722331458,22601.145122375,22602.388520166,0,0.538345999997546
118,16,7,categorization,0,kitchen,SHINEd_sun_ajcbwwvdlsvjyzje.tif,96,0.0666666666666667,0.0666666666666667,1.13333333333333,22602.407521375,22602.741613125,13,22602.474241708,22602.531599583,22602.750001083,22603.876721166,0,0.334091749999061
118,17,7,categorization,0,kitchen,SHINEd_sun_acwjdupvyjsugpay.tif,76,0.0666666666666667,0.0666666666666667,1.33333333333333,22603.88639325,22604.278300666,13,22603.951663375,22604.019265416,22604.291439458,22605.618168625,0,0.391907416000322
118,18,7,categorization,0,kitchen,SHINEd_labelme_kxvouciolcpqplr.tif,62,0.0666666666666667,0.0666666666666667,1.86666666666667,22605.635674708,22606.309581416,9,22605.702006791,22605.768147791,22606.320519291,22608.180562708,1,0.673906708001596
118,19,7,categorization,0,kitchen,SHINEd_sun_acfmftudsenhrfhy.tif,74,0.0666666666666667,0.0666666666666667,1.58333333333333,22608.198155541,22609.082749333,9,22608.264762625,22608.330785041,22609.103977958,22610.680705958,1,0.884593792001397
118,20,7,categorization,0,bathroom,SHINEd_sun_axyrejkiiaqiurjk.tif,59,0.0666666666666667,0.0666666666666667,1.05,22610.698623125,22611.456923416,9,22610.765536708,22610.830939375,22611.468570541,22612.511957916,0,0.758300290999614
118,21,7,categorization,0,bathroom,SHINEd_sun_aavhrsfjbserjtht.tif,13,0.0666666666666667,0.0666666666666667,0.9,22612.525624708,22613.358463083,9,22612.590553958,22612.656588833,22613.381554916,22614.274936041,0,0.832838375001302
118,22,7,categorization,0,kitchen,SHINEd_sun_ahpczsiumwwocjkv.tif,92,0.0666666666666667,0.0666666666666667,0.7,22614.289359125,22615.077451791,9,22614.355679416,22614.422198833,22615.091270916,22615.784608583,1,0.788092666000011
118,23,7,categorization,0,kitchen,SHINEd_sun_auticobqsbwgoppi.tif,104,0.0666666666666667,0.0666666666666667,0.933333333333333,22615.789691041,22616.3653835,13,22615.851362666,22615.9124595,22616.381061833,22617.307734125,0,0.575692458998674
118,24,7,categorization,0,kitchen,SHINEd_sun_aqeaevwwwjoqhzvl.tif,101,0.0666666666666667,0.0666666666666667,1.95,22617.312595,22619.501243166,9,22617.374269208,22617.435228083,22619.521083125,22621.464472583,1,2.18864816600035
118,25,7,categorization,0,kitchen,SHINEd_sun_agubuxuukhzyzpdp.tif,88,0.0666666666666667,0.0666666666666667,1.06666666666667,22621.472784541,22622.286724875,9,22621.537548875,22621.606365583,22622.312860666,22623.372917166,1,0.813940333999199
118,26,7,categorization,0,bathroom,SHINEd_sun_akiytfaagpdsphgz.tif,31,0.0666666666666667,0.0666666666666667,1.2,22623.384273958,22624.041121166,13,22623.448836416,22623.515064,22624.054015708,22625.2473975,1,0.656847207999817
118,27,7,categorization,0,bathroom,SHINEd_sun_ambriybtogmepttm.tif,36,0.0666666666666667,0.0666666666666667,0.75,22625.264649708,22625.917163041,9,22625.331351333,22625.392311583,22625.927550666,22626.670887208,0,0.652513332999661
118,28,7,categorization,0,kitchen,SHINEd_sun_aegoxogugdkwpmpj.tif,80,0.0666666666666667,0.0666666666666667,0.816666666666667,22626.675767833,22627.388758666,9,22626.737530458,22626.798431125,22627.400233833,22628.210237875,1,0.712990832998912
118,29,7,categorization,0,kitchen,SHINEd_sun_awcpdzzznmweyyhv.tif,106,0.0666666666666667,0.0666666666666667,1.96666666666667,22628.215148583,22628.620709125,9,22628.276905708,22628.337725625,22628.639431833,22630.599475916,1,0.405560541999876
118,30,7,categorization,0,kitchen,SHINEd_sun_ahdycvpopffkzzsu.tif,90,0.0666666666666667,0.0666666666666667,1.2,22630.616881583,22631.209118958,9,22630.683451625,22630.749589708,22631.221609041,22632.415004875,1,0.592237374999968
118,31,7,categorization,0,kitchen,SHINEd_sun_aehawpgmrlhlvcow.tif,81,0.0666666666666667,0.0666666666666667,0.883333333333333,22632.430811375,22632.975846083,9,22632.497436541,22632.563339333,22633.003051041,22633.87976825,1,0.545034708000458
118,32,7,categorization,0,kitchen,SHINEd_sun_aarfiyshqohlwkmo.tif,67,0.0666666666666667,0.0666666666666667,1.33333333333333,22633.897349291,22634.532959625,9,22633.964199916,22634.030018458,22634.549172,22635.875894458,1,0.635610334000376
118,33,7,categorization,0,bathroom,SHINEd_sun_ausgutylgojavyoq.tif,53,0.0666666666666667,0.0666666666666667,1.45,22635.894873291,22636.423156166,9,22635.962783791,22636.028065208,22636.451943541,22637.895332625,0,0.528282875002333
118,34,7,categorization,0,kitchen,SHINEd_sun_auaiucuqpdausiva.tif,102,0.0666666666666667,0.0666666666666667,1.15,22637.911276541,22638.429026916,9,22637.979186,22638.044246666,22638.451334083,22639.594723,1,0.517750375001924
118,35,7,categorization,0,kitchen,SHINEd_sun_aaxxjlsuzvqlgylf.tif,68,0.0666666666666667,0.0666666666666667,0.966666666666667,22639.614162041,22640.269383583,9,22639.681170916,22639.745083083,22640.280337125,22641.240341916,1,0.655221541997889
118,36,7,categorization,0,kitchen,SHINEd_sun_admlmbcdswaszruo.tif,79,0.0666666666666667,0.0666666666666667,1.45,22641.246099666,22641.820769583,9,22641.308043875,22641.368759833,22641.83735475,22643.280728958,1,0.574669916997664
118,37,7,categorization,0,bathroom,SHINEd_sun_aunuadmjocsddsrl.tif,52,0.0666666666666667,0.0666666666666667,0.8,22643.298019708,22643.934079833,9,22643.364663666,22643.430598875,22643.953636833,22644.747023291,0,0.636060125001677
118,38,7,categorization,0,bathroom,SHINEd_sun_aqrpegblszgcoujh.tif,48,0.0666666666666667,0.0666666666666667,1.45,22644.76388775,22645.492531333,13,22644.830383541,22644.895131833,22645.496787083,22646.940165583,1,0.728643582999212
118,39,7,categorization,0,kitchen,SHINEd_sun_abpwyqmlzafvklqo.tif,72,0.0666666666666667,0.0666666666666667,1.1,22646.956585833,22647.510671833,9,22647.023244541,22647.088924666,22647.527124541,22648.620518875,1,0.554086000000098
118,40,7,categorization,0,bathroom,SHINEd_sun_aleqenyvunhactkl.tif,32,0.0666666666666667,0.0666666666666667,1.16666666666667,22648.637955166,22649.221205833,9,22648.70516675,22648.770532875,22649.243892791,22650.403942791,0,0.583250667001266
118,41,7,categorization,0,bathroom,SHINEd_sun_ahqjwnzgolcaoidx.tif,29,0.0666666666666667,0.0666666666666667,1.31666666666667,22650.420753875,22650.885185333,13,22650.487624625,22650.553149083,22650.888862125,22652.198902625,1,0.464431458000035
118,42,7,categorization,0,kitchen,SHINEd_sun_abdxkyyxwfskuaqb.tif,70,0.0666666666666667,0.0666666666666667,1.68333333333333,22652.216091333,22652.564425958,13,22652.282934833,22652.349222791,22652.588998416,22654.265709458,0,0.348334624999552
118,43,7,categorization,0,kitchen,SHINEd_sun_aymvwlarqodbwuoc.tif,108,0.0666666666666667,0.0666666666666667,0.966666666666667,22654.282622375,22654.829534,9,22654.349498958,22654.415468375,22654.855299125,22655.815336375,1,0.546911624998756
118,44,7,categorization,0,kitchen,SHINEd_sun_amjjdeyrggfqgmom.tif,100,0.0666666666666667,0.0666666666666667,1.4,22655.833076458,22656.836830708,9,22655.900446375,22655.966126583,22656.852143333,22658.245512916,1,1.00375425000311
118,45,7,categorization,0,bathroom,SHINEd_sun_anryaplzeujmzfkd.tif,39,0.0666666666666667,0.0666666666666667,0.783333333333333,22658.264335458,22658.806092916,13,22658.33139325,22658.396885,22658.819092125,22659.595807333,1,0.541757457998756
118,46,7,categorization,0,kitchen,SHINEd_sun_aenotlpyftoioydp.tif,82,0.0666666666666667,0.0666666666666667,1.08333333333333,22659.614276166,22660.796604666,13,22659.681092583,22659.746773541,22660.8159065,22661.892618208,0,1.18232849999913
118,47,7,categorization,0,bathroom,SHINEd_sun_aofnryafpsjimzsb.tif,40,0.0666666666666667,0.0666666666666667,1.43333333333333,22661.902253208,22662.80285375,9,22661.96686275,22662.035934833,22662.825776541,22664.252519333,0,0.900600541997846
118,48,7,categorization,0,kitchen,SHINEd_sun_aeqdocilnnpuvuhx.tif,83,0.0666666666666667,0.0666666666666667,1.75,22664.271338291,22664.617027541,13,22664.339678166,22664.40375875,22664.643836125,22666.38722175,0,0.34568924999985
118,49,7,categorization,0,bathroom,SHINEd_sun_awnqiikzaispgmwo.tif,56,0.0666666666666667,0.0666666666666667,1.21666666666667,22666.40583725,22668.300959416,13,22666.472808333,22666.538423375,22668.307901666,22669.517959375,1,1.89512216599906
118,50,7,categorization,0,bathroom,SHINEd_sun_agguqiubmwhqqunb.tif,22,0.0666666666666667,0.0666666666666667,1.31666666666667,22669.527289083,22669.99833825,9,22669.595469875,22669.659684333,22670.015753333,22671.325763416,0,0.471049167001183
118,1,8,categorization,0,kitchen,SHINEd_sun_aadbddgrdsjugojn.tif,64,0.0666666666666667,0.0666666666666667,1.18333333333333,22677.321300958,22678.037019875,9,22677.383879791,22677.444052708,22678.045887375,22679.222612,1,0.715718916999322
118,2,8,categorization,0,bathroom,SHINEd_sun_afcoljnjfoxjtgja.tif,20,0.0666666666666667,0.0666666666666667,0.983333333333333,22679.232356458,22679.778607958,9,22679.299005708,22679.3653575,22679.804960125,22680.781673166,0,0.546251499999926
118,3,8,categorization,0,bathroom,SHINEd_sun_acgyywnybuveqsro.tif,18,0.0666666666666667,0.0666666666666667,1.65,22680.797499333,22681.532497666,13,22680.864276125,22680.929848625,22681.548515541,22683.1918895,1,0.734998333002295
118,4,8,categorization,0,bathroom,SHINEd_sun_aghyqhbptboemmoq.tif,23,0.0666666666666667,0.0666666666666667,1.23333333333333,22683.209836,22683.998360166,13,22683.27645625,22683.342208333,22684.014550125,22685.24127475,1,0.788524165996932
118,5,8,categorization,0,bathroom,SHINEd_sun_apeeialkgkuxddgh.tif,42,0.0666666666666667,0.0666666666666667,0.916666666666667,22685.259481625,22685.798341625,13,22685.325842291,22685.391577666,22685.813883875,22686.723931666,1,0.538860000000568
118,6,8,categorization,0,bathroom,SHINEd_sun_acegryoqftbzowsg.tif,17,0.0666666666666667,0.0666666666666667,1.56666666666667,22686.740611458,22687.436427625,9,22686.8071295,22686.872721875,22687.441468,22689.001510083,0,0.695816167000885
118,7,8,categorization,0,kitchen,SHINEd_sun_axyyrmzcupyhlivc.tif,107,0.0666666666666667,0.0666666666666667,1.63333333333333,22689.019271125,22689.672871541,13,22689.086452416,22689.152290041,22689.691744333,22691.318464083,0,0.6536004160007
118,8,8,categorization,0,bathroom,SHINEd_sun_aclfzgynxzxlbepz.tif,19,0.0666666666666667,0.0666666666666667,1.1,22691.333519041,22692.012741541,13,22691.400429291,22691.465405541,22692.038824583,22693.132200083,1,0.679222499999014
118,9,8,categorization,0,bathroom,SHINEd_sun_apmqjbnwghzuhhzh.tif,46,0.0666666666666667,0.0666666666666667,1.38333333333333,22693.142048416,22693.580356791,9,22693.2070555,22693.27441475,22693.597279416,22694.974011,0,0.438308374999906
118,10,8,categorization,0,bathroom,SHINEd_sun_anhioqovhscjqqwb.tif,38,0.0666666666666667,0.0666666666666667,0.766666666666667,22694.992239958,22695.404543666,9,22695.056419666,22695.115323166,22695.417254375,22696.177260208,0,0.412303708002582
118,11,8,categorization,0,kitchen,SHINEd_sun_agorklincwxrdtga.tif,87,0.0666666666666667,0.0666666666666667,1.45,22696.181928875,22696.692618,13,22696.24355325,22696.304593625,22696.706429625,22698.149803625,0,0.510689124999772
118,12,8,categorization,0,kitchen,SHINEd_sun_aixorpehvfykdynp.tif,95,0.0666666666666667,0.0666666666666667,0.983333333333333,22698.167460958,22698.719503208,9,22698.23415025,22698.299870541,22698.739424958,22699.716130208,1,0.55204225000125
118,13,8,categorization,0,bathroom,SHINEd_sun_acduarbnmmoglmiv.tif,16,0.0666666666666667,0.0666666666666667,0.716666666666667,22699.732728,22700.036823583,13,22699.799458375,22699.857744333,22700.042759583,22700.752763041,1,0.304095583000162
118,14,8,categorization,0,bathroom,SHINEd_sun_azqyogdvyhahyram.tif,60,0.0666666666666667,0.0666666666666667,1.41666666666667,22700.757361833,22701.140800541,9,22700.818994,22700.880174958,22701.148763625,22702.558822333,0,0.383438708002359
118,15,8,categorization,0,kitchen,SHINEd_sun_aapllqyqlykszopd.tif,66,0.0666666666666667,0.0666666666666667,1.21666666666667,22702.577815333,22702.874132083,13,22702.64463025,22702.710340916,22702.89970825,22704.109764583,0,0.296316750002006
118,16,8,categorization,0,kitchen,SHINEd_sun_aexklacwqwezaorf.tif,84,0.0666666666666667,0.0666666666666667,1.61666666666667,22704.126755916,22704.636993208,9,22704.193325583,22704.253728,22704.655870333,22706.2659325,1,0.510237292000966
118,17,8,categorization,0,kitchen,SHINEd_sun_azmutvzbxypaceni.tif,110,0.0666666666666667,0.0666666666666667,0.783333333333333,22706.28298225,22706.956426375,9,22706.349728875,22706.415429333,22706.971203875,22707.747925708,1,0.67344412500097
118,18,8,categorization,0,kitchen,SHINEd_sun_abftihopvusyfakt.tif,71,0.0666666666666667,0.0666666666666667,1.98333333333333,22707.763937375,22708.261246625,13,22707.826512583,22707.886629166,22708.271963083,22710.248693,0,0.497309250000399
118,19,8,categorization,0,bathroom,SHINEd_sun_asfwthctfqerjvxr.tif,49,0.0666666666666667,0.0666666666666667,0.983333333333333,22710.266399791,22710.589689291,9,22710.33311575,22710.398338958,22710.604505458,22711.581176833,0,0.323289500000101
118,20,8,categorization,0,bathroom,SHINEd_sun_apkruvsevgegsdwp.tif,44,0.0666666666666667,0.0666666666666667,0.8,22711.586254375,22711.884761291,9,22711.648038375,22711.708852958,22711.893884333,22712.687221791,0,0.298506915998587
118,21,8,categorization,0,bathroom,SHINEd_sun_ajlawzvmubibwbpy.tif,30,0.0666666666666667,0.0666666666666667,0.733333333333333,22712.691578166,22713.044491916,9,22712.753356583,22712.81413375,22713.049216958,22713.775888083,0,0.35291375000088
118,22,8,categorization,0,kitchen,SHINEd_sun_agzzivivdpnawacl.tif,89,0.0666666666666667,0.0666666666666667,0.966666666666667,22713.780508041,22714.133083291,13,22713.842333916,22713.903154958,22714.13838675,22715.098390541,0,0.352575249999063
118,23,8,categorization,0,kitchen,SHINEd_labelme_rykdqxenmhulbdn.tif,63,0.0666666666666667,0.0666666666666667,0.866666666666667,22715.103308416,22715.372581666,13,22715.164942875,22715.226111125,22715.377787041,22716.237792125,0,0.269273249999969
118,24,8,categorization,0,bathroom,SHINEd_sun_aljolscmmzydegqp.tif,33,0.0666666666666667,0.0666666666666667,1.23333333333333,22716.242388291,22716.365352208,9,22716.304097208,22716.364980083,22716.38335625,22717.61007825,0,0.122963916997833
118,25,8,categorization,0,kitchen,SHINEd_sun_ahywdevtimnqcsln.tif,94,0.0666666666666667,0.0666666666666667,1.9,22717.620854041,22717.74129575,9,22717.687421791,22717.753935416,22717.777444833,22719.670815833,1,0.120441708997532
118,26,8,categorization,0,bathroom,SHINEd_sun_ahaulkltgpkeeemi.tif,26,0.0666666666666667,0.0666666666666667,0.866666666666667,22719.689684875,22722.25301475,9,22719.756327291,22719.82234475,22722.258461833,22723.118466416,0,2.56332987499991
118,27,8,categorization,0,bathroom,SHINEd_sun_ahcvzmoyaycdoftf.tif,27,0.0666666666666667,0.0666666666666667,0.966666666666667,22723.123341333,22723.828817625,13,22723.185087583,22723.246006708,22723.847867833,22724.807874166,1,0.705476291997911
118,28,8,categorization,0,kitchen,SHINEd_sun_aypmqwcualkenuoe.tif,109,0.0666666666666667,0.0666666666666667,0.916666666666667,22724.813453291,22726.084848,13,22724.875214,22724.93609675,22726.088487291,22726.998492708,0,1.27139470899783
118,29,8,categorization,0,bathroom,SHINEd_sun_aggnnqpdorgxpvce.tif,21,0.0666666666666667,0.0666666666666667,0.916666666666667,22727.003434,22728.644144458,9,22727.065209958,22727.126018333,22728.661783041,22729.571788,0,1.64071045800301
118,30,8,categorization,0,bathroom,SHINEd_sun_alkosphxlxwjwgjd.tif,34,0.0666666666666667,0.0666666666666667,1.4,22729.576763,22731.341090083,13,22729.638655541,22729.699436833,22731.352045916,22732.74542775,1,1.76432708299762
118,31,8,categorization,0,bathroom,SHINEd_sun_aapitsgbtktqubfy.tif,12,0.0666666666666667,0.0666666666666667,1.75,22732.765910666,22735.11702725,13,22732.832706833,22732.898663666,22735.134997625,22736.87836875,1,2.3511165839991
118,32,8,categorization,0,kitchen,SHINEd_sun_akchetnepxlcxhsu.tif,98,0.0666666666666667,0.0666666666666667,1.25,22736.898019416,22737.636994,13,22736.965317708,22737.031088833,22737.654556458,22738.897950166,0,0.738974584000971
118,33,8,categorization,0,bathroom,SHINEd_sun_agrwbmhcpmfuwmsg.tif,24,0.0666666666666667,0.0666666666666667,1.05,22738.915925291,22739.824336416,13,22738.983141708,22739.048839666,22739.837694541,22740.881079083,1,0.908411125001294
118,34,8,categorization,0,kitchen,SHINEd_sun_ahspylgoovwmwvgk.tif,93,0.0666666666666667,0.0666666666666667,1.06666666666667,22740.893170041,22741.432009083,9,22740.958009666,22741.02429225,22741.445767833,22742.505813875,1,0.5388390420012
118,35,8,categorization,0,kitchen,SHINEd_sun_abrcnpqqhmjwekyf.tif,73,0.0666666666666667,0.0666666666666667,1.21666666666667,22742.523787833,22743.228352166,9,22742.591351,22742.656191041,22743.242228916,22744.452292,1,0.704564332998416
118,36,8,categorization,0,bathroom,SHINEd_sun_apynckhmoftszqoq.tif,47,0.0666666666666667,0.0666666666666667,0.95,22744.470950625,22744.938376583,13,22744.537926541,22744.603320125,22744.959766458,22745.903157625,1,0.467425957998785
118,37,8,categorization,0,bathroom,SHINEd_sun_agyqfjcfkdcydepw.tif,25,0.0666666666666667,0.0666666666666667,0.9,22745.919683041,22746.837015458,13,22745.986676041,22746.052143708,22746.854622833,22747.747961708,1,0.91733241700058
118,38,8,categorization,0,kitchen,SHINEd_sun_avszsnwsbuqfgzbn.tif,105,0.0666666666666667,0.0666666666666667,1.78333333333333,22747.753160333,22748.604300166,9,22747.814865916,22747.875987708,22748.611278791,22750.387980208,1,0.851139833001071
118,39,8,categorization,0,kitchen,SHINEd_sun_aunzlwrbjumxhwdj.tif,103,0.0666666666666667,0.0666666666666667,1.16666666666667,22750.40624575,22751.101460958,9,22750.472857,22750.538709,22751.128440083,22752.288486291,1,0.695215208001173
118,40,8,categorization,0,bathroom,SHINEd_sun_atstyziqcmkahyxk.tif,51,0.0666666666666667,0.0666666666666667,0.783333333333333,22752.299467666,22753.0932175,13,22752.363340833,22752.43182825,22753.121693125,22753.898418958,1,0.793749834003393
118,41,8,categorization,0,kitchen,SHINEd_sun_aggjlwcdjsjcaemh.tif,86,0.0666666666666667,0.0666666666666667,1.23333333333333,22753.915013583,22754.692455208,13,22753.981875,22754.047461083,22754.699911625,22755.926614583,0,0.777441625003121
118,42,8,categorization,0,kitchen,SHINEd_sun_acxkpeoqbwcxfvip.tif,77,0.0666666666666667,0.0666666666666667,0.9,22755.943883625,22756.308043875,9,22756.010112208,22756.076356041,22756.333206458,22757.226582166,1,0.364160249999259
118,43,8,categorization,0,bathroom,SHINEd_sun_abapwbhyhkfixyex.tif,14,0.0666666666666667,0.0666666666666667,0.7,22757.243355333,22757.900139166,13,22757.310007375,22757.376066125,22757.912006708,22758.605346375,1,0.656783832997462
118,44,8,categorization,0,bathroom,SHINEd_sun_apjevzvycyhuqghb.tif,43,0.0666666666666667,0.0666666666666667,1.23333333333333,22758.612154166,22759.268868583,9,22758.673899916,22758.734792166,22759.28709,22760.513792083,0,0.65671441700033
118,45,8,categorization,0,bathroom,SHINEd_labelme_sfxiulhjbhlyiyt.tif,11,0.0666666666666667,0.0666666666666667,1,22760.531762833,22761.320113375,13,22760.598414583,22760.664448291,22761.336934625,22762.330328916,1,0.788350541999534
118,46,8,categorization,0,kitchen,SHINEd_labelme_brsyyvweiuaazfr.tif,61,0.0666666666666667,0.0666666666666667,1.38333333333333,22762.34698075,22762.708855625,13,22762.409902833,22762.469767541,22762.721517416,22764.09822075,0,0.361874874997739
118,47,8,categorization,0,bathroom,SHINEd_sun_auzqhkafidnkrwmo.tif,54,0.0666666666666667,0.0666666666666667,1.3,22764.115387916,22764.8626665,9,22764.1822675,22764.248161208,22764.887508416,22766.180897333,0,0.747278584000014
118,48,8,categorization,0,kitchen,SHINEd_sun_ajkqhtgcbgpcwrwn.tif,97,0.0666666666666667,0.0666666666666667,0.833333333333333,22766.197905375,22767.284421958,9,22766.264695333,22766.330394833,22767.303247458,22768.129919833,1,1.08651658300005
118,49,8,categorization,0,bathroom,SHINEd_sun_aoybiabnpadelefl.tif,41,0.0666666666666667,0.0666666666666667,0.95,22768.135669458,22768.868061583,13,22768.197696541,22768.258333291,22768.877053333,22769.820390041,1,0.732392125002661
118,50,8,categorization,0,kitchen,SHINEd_sun_adgqasybjyktddhj.tif,78,0.0666666666666667,0.0666666666666667,1.43333333333333,22769.82572375,22770.268585083,9,22769.887630708,22769.948281583,22770.283571,22771.710297666,1,0.442861332998291
118,1,9,categorization,0,kitchen,SHINEd_sun_ahpczsiumwwocjkv.tif,92,0.0666666666666667,0.0666666666666667,1.08333333333333,22778.7304405,22780.37253875,9,22778.792881125,22778.85309,22780.388802125,22781.465509666,1,1.64209825000216
118,2,9,categorization,0,kitchen,SHINEd_sun_aehawpgmrlhlvcow.tif,81,0.0666666666666667,0.0666666666666667,0.8,22781.474504458,22782.560478041,9,22781.539722083,22781.605531708,22782.578720916,22783.372106458,1,1.08597358299812
118,3,9,categorization,0,kitchen,SHINEd_sun_admlmbcdswaszruo.tif,79,0.0666666666666667,0.0666666666666667,0.833333333333333,22783.386866666,22784.004588583,9,22783.453685166,22783.510325583,22784.012167458,22784.838838916,1,0.6177219170022
118,4,9,categorization,0,bathroom,SHINEd_sun_aunuadmjocsddsrl.tif,52,0.0666666666666667,0.0666666666666667,1.45,22784.844859125,22785.548604916,9,22784.906725416,22784.9675975,22785.552748166,22786.996131833,0,0.703745790997345
118,5,9,categorization,0,kitchen,SHINEd_sun_aunzlwrbjumxhwdj.tif,103,0.0666666666666667,0.0666666666666667,1.3,22787.013823083,22788.047676791,9,22787.08036325,22787.146436416,22788.069623875,22789.363019791,1,1.03385370799879
118,6,9,categorization,0,kitchen,SHINEd_sun_akchetnepxlcxhsu.tif,98,0.0666666666666667,0.0666666666666667,1.21666666666667,22789.381748041,22790.03706125,13,22789.448415291,22789.512963875,22790.051707375,22791.26173975,0,0.655313209001179
118,7,9,categorization,0,bathroom,SHINEd_sun_aqrpegblszgcoujh.tif,48,0.0666666666666667,0.0666666666666667,0.733333333333333,22791.27228325,22791.801688875,13,22791.339030708,22791.404661625,22791.827769833,22792.554493,1,0.529405624998617
118,8,9,categorization,0,bathroom,SHINEd_sun_agguqiubmwhqqunb.tif,22,0.0666666666666667,0.0666666666666667,1.03333333333333,22792.569734083,22793.096141083,13,22792.636486791,22792.702410208,22793.125596041,22794.152305708,1,0.526406999997562
118,9,9,categorization,0,bathroom,SHINEd_sun_aofnryafpsjimzsb.tif,40,0.0666666666666667,0.0666666666666667,1.1,22794.162869291,22794.576451125,9,22794.22722125,22794.293765541,22794.599639958,22795.693022583,0,0.41358183400007
118,10,9,categorization,0,bathroom,SHINEd_sun_amzlamotzwfkwjco.tif,37,0.0666666666666667,0.0666666666666667,1.25,22795.709900041,22796.012101166,13,22795.776153708,22795.842681666,22796.032378916,22797.275757125,1,0.302201124999556
118,11,9,categorization,0,bathroom,SHINEd_sun_asfwthctfqerjvxr.tif,49,0.0666666666666667,0.0666666666666667,1.4,22797.297020416,22797.590863458,13,22797.364423625,22797.430466166,22797.602769375,22798.996149916,1,0.293843041999935
