sub_num,trial,block,task,is_practice,category,image,texture,duration,mask_dur,jitter,stim_time,time_of_resp,trial_response,mask_time,fix_time,jit_onset,trial_end,trial_accuracy,RT
118,1,17,categorization,0,kitchen,SHINEd_sun_aymvwlarqodbwuoc.tif,108,0.0666666666666667,0.0666666666666667,0.9,23753.812364375,23754.7530415,9,23753.874786458,23753.935049375,23754.770646833,23755.663986208,1,0.940677124999638
118,2,17,categorization,0,kitchen,SHINEd_sun_acgtpgfybqjmzeyw.tif,75,0.0666666666666667,0.0666666666666667,1.65,23755.669045208,23756.304836583,9,23755.730744958,23755.791633166,23756.310590625,23757.953975,1,0.635791374999826
118,3,17,categorization,0,bathroom,SHINEd_sun_ahaulkltgpkeeemi.tif,26,0.0666666666666667,0.0666666666666667,1.18333333333333,23757.972848333,23758.502365958,9,23758.039760625,23758.105529,23758.528692916,23759.705399875,0,0.529517625000153
118,4,17,categorization,0,kitchen,SHINEd_sun_avszsnwsbuqfgzbn.tif,105,0.0666666666666667,0.0666666666666667,1.18333333333333,23759.716214291,23760.483084333,9,23759.78283375,23759.848913833,23760.505757583,23761.682486458,1,0.766870041999937
118,5,17,categorization,0,kitchen,SHINEd_sun_aenotlpyftoioydp.tif,82,0.0666666666666667,0.0666666666666667,0.766666666666667,23761.699215166,23762.547377833,9,23761.766028416,23761.8318935,23762.572181708,23763.332219958,1,0.848162666999997
118,6,17,categorization,0,bathroom,SHINEd_sun_ahcvzmoyaycdoftf.tif,27,0.0666666666666667,0.0666666666666667,1.1,23763.349058083,23763.953124791,13,23763.415417083,23763.479405208,23763.96539775,23765.058769583,1,0.604066708001483
118,7,17,categorization,0,kitchen,SHINEd_sun_abpwyqmlzafvklqo.tif,72,0.0666666666666667,0.0666666666666667,1.98333333333333,23765.068935916,23765.820226166,9,23765.133782708,23765.201391,23765.841212541,23767.81792425,1,0.751290250002057
118,8,17,categorization,0,kitchen,SHINEd_sun_acfmftudsenhrfhy.tif,74,0.0666666666666667,0.0666666666666667,0.8,23767.837792708,23768.437024916,9,23767.904377083,23767.970049791,23768.45995375,23769.253293,1,0.599232207998284
118,9,17,categorization,0,bathroom,SHINEd_sun_apjevzvycyhuqghb.tif,43,0.0666666666666667,0.0666666666666667,1.68333333333333,23769.259357833,23769.832975041,9,23769.321161875,23769.381957458,23769.8505285,23771.527229291,0,0.573617207999632
118,10,17,categorization,0,kitchen,SHINEd_sun_agubuxuukhzyzpdp.tif,88,0.0666666666666667,0.0666666666666667,1.73333333333333,23771.540646583,23773.849116791,9,23771.607815791,23771.67314525,23773.859033208,23775.585747333,1,2.30847020800138
118,11,17,categorization,0,kitchen,SHINEd_sun_ahdycvpopffkzzsu.tif,90,0.0666666666666667,0.0666666666666667,0.766666666666667,23775.601235666,23776.570040708,13,23775.668265833,23775.7350175,23776.591455958,23777.351461541,0,0.968805042000895
118,12,17,categorization,0,kitchen,SHINEd_sun_auaiucuqpdausiva.tif,102,0.0666666666666667,0.0666666666666667,1.43333333333333,23777.357217,23778.040284708,13,23777.419076041,23777.4799135,23778.048506291,23779.475194208,0,0.683067707999726
118,13,17,categorization,0,bathroom,SHINEd_sun_apynckhmoftszqoq.tif,47,0.0666666666666667,0.0666666666666667,0.7,23779.484583416,23780.020377666,13,23779.549760958,23779.617228625,23780.040320208,23780.73370675,1,0.535794249997707
118,14,17,categorization,0,bathroom,SHINEd_sun_anhioqovhscjqqwb.tif,38,0.0666666666666667,0.0666666666666667,1.01666666666667,23780.749743458,23781.488770416,13,23780.816578291,23780.882428166,23781.500895833,23782.510945041,1,0.739026957999158
118,15,17,categorization,0,bathroom,SHINEd_sun_apeeialkgkuxddgh.tif,42,0.0666666666666667,0.0666666666666667,1.71666666666667,23782.522151916,23783.363602583,9,23782.587270041,23782.653478333,23783.392938791,23785.102988666,0,0.841450666997844
118,16,17,categorization,0,bathroom,SHINEd_sun_amzlamotzwfkwjco.tif,37,0.0666666666666667,0.0666666666666667,1.73333333333333,23785.121134875,23785.865724791,13,23785.188025916,23785.253404125,23785.893490791,23787.620220333,1,0.744589916001132
118,17,17,categorization,0,kitchen,SHINEd_sun_ahljzhgcdpomplvg.tif,91,0.0666666666666667,0.0666666666666667,1.93333333333333,23787.638459958,23788.356352166,13,23787.705124333,23787.771420291,23788.378068958,23790.30478975,0,0.717892207998375
118,18,17,categorization,0,kitchen,SHINEd_sun_auticobqsbwgoppi.tif,104,0.0666666666666667,0.0666666666666667,1.1,23790.327028666,23790.931597708,9,23790.394119375,23790.459631416,23790.949110625,23792.042497666,1,0.604569041999639
118,19,17,categorization,0,kitchen,SHINEd_sun_aehawpgmrlhlvcow.tif,81,0.0666666666666667,0.0666666666666667,0.933333333333333,23792.051977166,23792.573474166,13,23792.116859291,23792.184369333,23792.590383041,23793.517088708,0,0.521497000001546
118,20,17,categorization,0,kitchen,SHINEd_labelme_rykdqxenmhulbdn.tif,63,0.0666666666666667,0.0666666666666667,1.16666666666667,23793.526334083,23793.865349708,13,23793.593166,23793.658664958,23793.881468041,23795.041519833,0,0.339015625002503
118,21,17,categorization,0,bathroom,SHINEd_sun_apkruvsevgegsdwp.tif,44,0.0666666666666667,0.0666666666666667,1.08333333333333,23795.051745416,23795.579386,9,23795.118652958,23795.184433416,23795.607679791,23796.684404666,0,0.527640584001347
118,22,17,categorization,0,bathroom,SHINEd_sun_atstyziqcmkahyxk.tif,51,0.0666666666666667,0.0666666666666667,1.36666666666667,23796.700603958,23797.112053916,13,23796.767308625,23796.833603875,23797.119494041,23798.479542625,1,0.411449957999139
118,23,17,categorization,0,kitchen,SHINEd_sun_abdxkyyxwfskuaqb.tif,70,0.0666666666666667,0.0666666666666667,1.85,23798.497280125,23798.83865325,9,23798.564072541,23798.629417708,23798.851603,23800.694991291,1,0.341373125000246
118,24,17,categorization,0,bathroom,SHINEd_labelme_sfxiulhjbhlyiyt.tif,11,0.0666666666666667,0.0666666666666667,1.1,23800.715132666,23801.056065916,13,23800.781962583,23800.8479925,23801.070306041,23802.163682291,1,0.340933250001399
118,25,17,categorization,0,kitchen,SHINEd_sun_aadbddgrdsjugojn.tif,64,0.0666666666666667,0.0666666666666667,1.71666666666667,23802.181025625,23802.792016625,13,23802.248217583,23802.31370275,23802.799576875,23804.509613708,0,0.610991000001377
118,26,17,categorization,0,kitchen,SHINEd_sun_abrcnpqqhmjwekyf.tif,73,0.0666666666666667,0.0666666666666667,1.6,23804.52699575,23804.906526583,9,23804.594040916,23804.659450458,23804.933754708,23806.52713575,1,0.379530833000899
118,27,17,categorization,0,kitchen,SHINEd_sun_afuyedyxivkhecmu.tif,85,0.0666666666666667,0.0666666666666667,0.85,23806.544681166,23806.915549375,13,23806.6114285,23806.677320083,23806.933474458,23807.776868125,0,0.370868209000037
118,28,17,categorization,0,kitchen,SHINEd_sun_abdenxonkemggwsq.tif,69,0.0666666666666667,0.0666666666666667,1.35,23807.792568458,23808.208449916,9,23807.858828833,23807.925266041,23808.227792916,23809.571181,1,0.415881458000513
118,29,17,categorization,0,bathroom,SHINEd_sun_afcoljnjfoxjtgja.tif,20,0.0666666666666667,0.0666666666666667,1.65,23809.589582208,23809.962923625,9,23809.6565445,23809.722069291,23809.978032958,23811.621421333,0,0.373341417001939
118,30,17,categorization,0,kitchen,SHINEd_sun_aexklacwqwezaorf.tif,84,0.0666666666666667,0.0666666666666667,1.35,23811.639576083,23811.992681375,13,23811.706919708,23811.772242125,23812.011971125,23813.355360916,0,0.353105292000691
118,31,17,categorization,0,kitchen,SHINEd_sun_aeqdocilnnpuvuhx.tif,83,0.0666666666666667,0.0666666666666667,1.63333333333333,23813.376739708,23813.752111041,9,23813.439268208,23813.499494916,23813.767858375,23815.394574416,1,0.375371333000658
118,32,17,categorization,0,bathroom,SHINEd_sun_alkosphxlxwjwgjd.tif,34,0.0666666666666667,0.0666666666666667,1.1,23815.411222208,23815.620261625,13,23815.475900416,23815.542006791,23815.648318583,23816.741703333,1,0.209039417000895
118,33,17,categorization,0,bathroom,SHINEd_sun_aggnnqpdorgxpvce.tif,21,0.0666666666666667,0.0666666666666667,1.11666666666667,23816.759024666,23817.080849625,9,23816.821656166,23816.881662958,23817.100100416,23818.2101455,0,0.321824958999059
118,34,17,categorization,0,bathroom,SHINEd_sun_aapitsgbtktqubfy.tif,12,0.0666666666666667,0.0666666666666667,1.5,23818.220298958,23818.855671791,9,23818.284885,23818.353108333,23818.875918666,23820.369288,0,0.635372832999565
118,35,17,categorization,0,kitchen,SHINEd_sun_acxkpeoqbwcxfvip.tif,77,0.0666666666666667,0.0666666666666667,1.28333333333333,23820.386907125,23820.7215015,13,23820.452884416,23820.519623833,23820.742559875,23822.019282791,0,0.334594374999142
118,36,17,categorization,0,kitchen,SHINEd_sun_adgqasybjyktddhj.tif,78,0.0666666666666667,0.0666666666666667,1.7,23822.037579041,23822.680604541,9,23822.104208583,23822.169944666,23822.689142708,23824.382536333,1,0.643025500001386
118,37,17,categorization,0,kitchen,SHINEd_sun_axyyrmzcupyhlivc.tif,107,0.0666666666666667,0.0666666666666667,1.08333333333333,23824.40003875,23824.881200916,9,23824.466870958,23824.5328635,23824.906104916,23825.982834541,1,0.481162166001013
118,38,17,categorization,0,bathroom,SHINEd_sun_ausgutylgojavyoq.tif,53,0.0666666666666667,0.0666666666666667,1.65,23825.995836125,23826.326157291,13,23826.06077175,23826.126946916,23826.350123,23827.993508166,1,0.33032116600225
118,39,17,categorization,0,kitchen,SHINEd_sun_aqeaevwwwjoqhzvl.tif,101,0.0666666666666667,0.0666666666666667,1.31666666666667,23828.00458025,23828.34406925,9,23828.066404166,23828.127232291,23828.362415166,23829.672475375,1,0.339489000001777
118,40,17,categorization,0,bathroom,SHINEd_sun_axxbkopsgyouuebh.tif,58,0.0666666666666667,0.0666666666666667,0.95,23829.691889375,23830.129691416,13,23829.758743416,23829.824837291,23830.147441208,23831.090830208,1,0.437802041000396
118,41,17,categorization,0,kitchen,SHINEd_sun_awcpdzzznmweyyhv.tif,106,0.0666666666666667,0.0666666666666667,1.43333333333333,23831.108473833,23831.808801625,9,23831.175242583,23831.2407945,23831.826034291,23833.252763458,1,0.70032779200119
118,42,17,categorization,0,bathroom,SHINEd_sun_axldvoqbuvuggfmq.tif,57,0.0666666666666667,0.0666666666666667,1.66666666666667,23833.271573541,23833.976479458,9,23833.337872958,23833.403945083,23833.993026166,23835.653085958,0,0.704905917002179
118,43,17,categorization,0,bathroom,SHINEd_sun_acegryoqftbzowsg.tif,17,0.0666666666666667,0.0666666666666667,0.933333333333333,23835.668107291,23835.995696,13,23835.734800708,23835.800770166,23836.023833708,23836.950541583,1,0.327588709002157
118,44,17,categorization,0,kitchen,SHINEd_sun_akchetnepxlcxhsu.tif,98,0.0666666666666667,0.0666666666666667,0.833333333333333,23836.966543041,23837.304093333,13,23837.033423666,23837.091000125,23837.309474375,23838.136148541,0,0.337550292002561
118,45,17,categorization,0,bathroom,SHINEd_sun_ahijqszoswveeyji.tif,28,0.0666666666666667,0.0666666666666667,1.26666666666667,23838.141629791,23838.551850541,13,23838.203307416,23838.264465416,23838.566229166,23839.826264916,1,0.410220750000008
118,46,17,categorization,0,kitchen,SHINEd_sun_agzzivivdpnawacl.tif,89,0.0666666666666667,0.0666666666666667,1.93333333333333,23839.842307166,23841.229678375,9,23839.909116333,23839.974907041,23841.250156208,23843.176863166,1,1.38737120899896
118,47,17,categorization,0,bathroom,SHINEd_sun_aavhrsfjbserjtht.tif,13,0.0666666666666667,0.0666666666666667,1.06666666666667,23843.194773541,23846.112801416,9,23843.261469958,23843.32725,23846.130261458,23847.190302958,0,2.9180278749991
118,48,17,categorization,0,bathroom,SHINEd_sun_acgyywnybuveqsro.tif,18,0.0666666666666667,0.0666666666666667,0.766666666666667,23847.198879416,23847.9355455,13,23847.263530125,23847.329852916,23847.952582833,23848.712625833,1,0.736666084001627
118,49,17,categorization,0,kitchen,SHINEd_sun_azmutvzbxypaceni.tif,110,0.0666666666666667,0.0666666666666667,0.833333333333333,23848.729312333,23849.55204375,9,23848.796064625,23848.861870875,23849.563771875,23850.390444083,1,0.822731417003524
118,50,17,categorization,0,bathroom,SHINEd_sun_akiytfaagpdsphgz.tif,31,0.0666666666666667,0.0666666666666667,1.46666666666667,23850.396158958,23850.896078833,13,23850.457792541,23850.518812083,23850.903985875,23852.364045583,1,0.499919875001069
