sub_num,trial,block,task,is_practice,category,image,texture,duration,mask_dur,jitter,stim_time,time_of_resp,trial_response,mask_time,fix_time,jit_onset,trial_end,trial_accuracy,RT
118,1,9,categorization,0,kitchen,SHINEd_sun_ahpczsiumwwocjkv.tif,92,0.0666666666666667,0.0666666666666667,1.08333333333333,22778.7304405,22780.37253875,9,22778.792881125,22778.85309,22780.388802125,22781.465509666,1,1.64209825000216
118,2,9,categorization,0,kitchen,SHINEd_sun_aehawpgmrlhlvcow.tif,81,0.0666666666666667,0.0666666666666667,0.8,22781.474504458,22782.560478041,9,22781.539722083,22781.605531708,22782.578720916,22783.372106458,1,1.08597358299812
118,3,9,categorization,0,kitchen,SHINEd_sun_admlmbcdswaszruo.tif,79,0.0666666666666667,0.0666666666666667,0.833333333333333,22783.386866666,22784.004588583,9,22783.453685166,22783.510325583,22784.012167458,22784.838838916,1,0.6177219170022
118,4,9,categorization,0,bathroom,SHINEd_sun_aunuadmjocsddsrl.tif,52,0.0666666666666667,0.0666666666666667,1.45,22784.844859125,22785.548604916,9,22784.906725416,22784.9675975,22785.552748166,22786.996131833,0,0.703745790997345
118,5,9,categorization,0,kitchen,SHINEd_sun_aunzlwrbjumxhwdj.tif,103,0.0666666666666667,0.0666666666666667,1.3,22787.013823083,22788.047676791,9,22787.08036325,22787.146436416,22788.069623875,22789.363019791,1,1.03385370799879
118,6,9,categorization,0,kitchen,SHINEd_sun_akchetnepxlcxhsu.tif,98,0.0666666666666667,0.0666666666666667,1.21666666666667,22789.381748041,22790.03706125,13,22789.448415291,22789.512963875,22790.051707375,22791.26173975,0,0.655313209001179
118,7,9,categorization,0,bathroom,SHINEd_sun_aqrpegblszgcoujh.tif,48,0.0666666666666667,0.0666666666666667,0.733333333333333,22791.27228325,22791.801688875,13,22791.339030708,22791.404661625,22791.827769833,22792.554493,1,0.529405624998617
118,8,9,categorization,0,bathroom,SHINEd_sun_agguqiubmwhqqunb.tif,22,0.0666666666666667,0.0666666666666667,1.03333333333333,22792.569734083,22793.096141083,13,22792.636486791,22792.702410208,22793.125596041,22794.152305708,1,0.526406999997562
118,9,9,categorization,0,bathroom,SHINEd_sun_aofnryafpsjimzsb.tif,40,0.0666666666666667,0.0666666666666667,1.1,22794.162869291,22794.576451125,9,22794.22722125,22794.293765541,22794.599639958,22795.693022583,0,0.41358183400007
118,10,9,categorization,0,bathroom,SHINEd_sun_amzlamotzwfkwjco.tif,37,0.0666666666666667,0.0666666666666667,1.25,22795.709900041,22796.012101166,13,22795.776153708,22795.842681666,22796.032378916,22797.275757125,1,0.302201124999556
118,11,9,categorization,0,bathroom,SHINEd_sun_asfwthctfqerjvxr.tif,49,0.0666666666666667,0.0666666666666667,1.4,22797.297020416,22797.590863458,13,22797.364423625,22797.430466166,22797.602769375,22798.996149916,1,0.293843041999935
118,12,9,categorization,0,kitchen,SHINEd_labelme_kxvouciolcpqplr.tif,62,0.0666666666666667,0.0666666666666667,1.43333333333333,22799.015057208,22799.135154958,13,22799.081191958,22799.138796125,22799.157169333,22800.583872125,0,0.12009775000115
118,13,9,categorization,0,kitchen,SHINEd_sun_aamedkxepzlwuxes.tif,65,0.0666666666666667,0.0666666666666667,1.26666666666667,22800.601439458,22800.756791125,9,22800.668721958,22800.733832375,22800.772536208,22802.032598458,1,0.155351666999195
118,14,9,categorization,0,kitchen,SHINEd_sun_acwjdupvyjsugpay.tif,76,0.0666666666666667,0.0666666666666667,0.916666666666667,22802.050783583,22803.564218958,13,22802.117561,22802.183404791,22803.56920125,22804.4792065,0,1.51343537499997
118,15,9,categorization,0,bathroom,SHINEd_sun_ahijqszoswveeyji.tif,28,0.0666666666666667,0.0666666666666667,1.05,22804.484179583,22806.380802375,9,22804.546039041,22804.606783916,22806.392781666,22807.436159916,0,1.89662279199911
118,16,9,categorization,0,bathroom,SHINEd_sun_ausgutylgojavyoq.tif,53,0.0666666666666667,0.0666666666666667,1.53333333333333,22807.447762708,22808.087260583,13,22807.512211708,22807.577767875,22808.117804666,22809.644518208,1,0.639497874999506
118,17,9,categorization,0,kitchen,SHINEd_sun_awcpdzzznmweyyhv.tif,106,0.0666666666666667,0.0666666666666667,1.11666666666667,22809.663377541,22809.997155166,13,22809.729954583,22809.795948416,22810.01880875,22811.128852291,0,0.33377762499731
118,18,9,categorization,0,bathroom,SHINEd_sun_axyrejkiiaqiurjk.tif,59,0.0666666666666667,0.0666666666666667,1.05,22811.146633125,22811.700198166,9,22811.213539708,22811.279013583,22811.71506225,22812.758439666,0,0.553565040998365
118,19,9,categorization,0,kitchen,SHINEd_sun_afuyedyxivkhecmu.tif,85,0.0666666666666667,0.0666666666666667,1.66666666666667,22812.768983333,22813.336843541,9,22812.8334,22812.899706958,22813.355905333,22815.015961125,1,0.567860208000639
118,20,9,categorization,0,kitchen,SHINEd_sun_akcjzhbbjlbogpdi.tif,99,0.0666666666666667,0.0666666666666667,1.98333333333333,22815.031541875,22815.302345833,13,22815.098297458,22815.164109916,22815.320108875,22817.296836041,0,0.270803957999306
118,21,9,categorization,0,bathroom,SHINEd_sun_apynckhmoftszqoq.tif,47,0.0666666666666667,0.0666666666666667,1.06666666666667,22817.315212416,22817.837361791,9,22817.38187,22817.447874791,22817.853822416,22818.913874416,0,0.522149374999572
118,22,9,categorization,0,kitchen,SHINEd_sun_azmutvzbxypaceni.tif,110,0.0666666666666667,0.0666666666666667,1.31666666666667,22818.935569791,22819.316124208,13,22819.002372416,22819.068145958,22819.320683791,22820.630742666,0,0.380554416999075
118,23,9,categorization,0,bathroom,SHINEd_sun_aavhrsfjbserjtht.tif,13,0.0666666666666667,0.0666666666666667,1.78333333333333,22820.649486583,22820.865330833,9,22820.716654625,22820.782720041,22820.889931166,22822.666650291,0,0.215844250000373
118,24,9,categorization,0,kitchen,SHINEd_sun_abdxkyyxwfskuaqb.tif,70,0.0666666666666667,0.0666666666666667,0.816666666666667,22822.684091208,22824.859885875,13,22822.751054416,22822.816841291,22824.869572375,22825.6795785,0,2.17579466700045
118,25,9,categorization,0,bathroom,SHINEd_sun_atstyziqcmkahyxk.tif,51,0.0666666666666667,0.0666666666666667,0.933333333333333,22825.684505708,22828.959406666,13,22825.74618925,22825.80720675,22828.992690166,22829.919361625,1,3.27490095800022
118,26,9,categorization,0,bathroom,SHINEd_sun_abjtwfukuwddzted.tif,15,0.0666666666666667,0.0666666666666667,1.33333333333333,22829.923784958,22830.604318208,9,22829.98554675,22830.046466875,22830.614923666,22831.941650791,0,0.680533250000735
118,27,9,categorization,0,kitchen,SHINEd_sun_aeqdocilnnpuvuhx.tif,83,0.0666666666666667,0.0666666666666667,0.833333333333333,22831.960048791,22832.748873,9,22832.0263425,22832.092622791,22832.765114833,22833.591825208,1,0.788824209001177
118,28,9,categorization,0,kitchen,SHINEd_sun_abpwyqmlzafvklqo.tif,72,0.0666666666666667,0.0666666666666667,0.933333333333333,22833.608997,22834.292132041,9,22833.675401708,22833.733058541,22834.301754583,22835.22842475,1,0.683135040999332
118,29,9,categorization,0,kitchen,SHINEd_sun_aexklacwqwezaorf.tif,84,0.0666666666666667,0.0666666666666667,1.85,22835.233480375,22835.956437083,13,22835.295234291,22835.356114583,22835.974907083,22837.818296916,0,0.722956707999401
118,30,9,categorization,0,bathroom,SHINEd_sun_ahaulkltgpkeeemi.tif,26,0.0666666666666667,0.0666666666666667,0.966666666666667,22837.831930041,22838.525254666,13,22837.899038291,22837.964793541,22838.555080791,22839.515085,1,0.693324625000969
118,31,9,categorization,0,bathroom,SHINEd_sun_afcoljnjfoxjtgja.tif,20,0.0666666666666667,0.0666666666666667,0.766666666666667,22839.520217416,22840.179720958,13,22839.581970791,22839.642861083,22840.194895291,22840.954900666,1,0.659503541999584
118,32,9,categorization,0,bathroom,SHINEd_sun_ajlawzvmubibwbpy.tif,30,0.0666666666666667,0.0666666666666667,1.15,22840.961643166,22841.70066125,9,22841.023418083,22841.084232166,22841.719471458,22842.86285175,0,0.739018084001145
118,33,9,categorization,0,bathroom,SHINEd_sun_auzqhkafidnkrwmo.tif,54,0.0666666666666667,0.0666666666666667,0.75,22842.87246975,22843.966094583,9,22842.93907025,22843.004835333,22843.994787458,22844.738162625,0,1.09362483299992
118,34,9,categorization,0,kitchen,SHINEd_sun_acgtpgfybqjmzeyw.tif,75,0.0666666666666667,0.0666666666666667,0.9,22844.750126125,22846.907745083,13,22844.812731541,22844.873030166,22846.925999583,22847.819336708,0,2.15761895800097
118,35,9,categorization,0,bathroom,SHINEd_sun_axxbkopsgyouuebh.tif,58,0.0666666666666667,0.0666666666666667,1.88333333333333,22847.824247041,22848.58800975,13,22847.8860375,22847.947083458,22848.599072583,22850.475788916,1,0.76376270900073
118,36,9,categorization,0,kitchen,SHINEd_sun_aqeaevwwwjoqhzvl.tif,101,0.0666666666666667,0.0666666666666667,1.65,22850.4943515,22851.271423333,9,22850.561554,22850.62692525,22851.29968175,22852.943074,1,0.777071832999354
118,37,9,categorization,0,kitchen,SHINEd_labelme_rykdqxenmhulbdn.tif,63,0.0666666666666667,0.0666666666666667,0.816666666666667,22852.960817666,22853.692487625,9,22853.027706166,22853.093263375,22853.716112125,22854.526118333,1,0.73166995900101
118,38,9,categorization,0,bathroom,SHINEd_sun_avhrdrntsqrjzccq.tif,55,0.0666666666666667,0.0666666666666667,0.9,22854.53169125,22856.419907333,13,22854.593466416,22854.654279625,22856.440509291,22857.333846708,1,1.88821608299986
118,39,9,categorization,0,bathroom,SHINEd_sun_ambriybtogmepttm.tif,36,0.0666666666666667,0.0666666666666667,0.733333333333333,22857.33867075,22858.340656875,9,22857.400386625,22857.461313708,22858.347004,22859.07367575,0,1.00198612500026
118,40,9,categorization,0,bathroom,SHINEd_sun_aclfzgynxzxlbepz.tif,19,0.0666666666666667,0.0666666666666667,0.85,22859.078666166,22859.908018833,13,22859.140228083,22859.201451,22859.920284833,22860.763622416,1,0.82935266700224
118,41,9,categorization,0,kitchen,SHINEd_sun_ahdycvpopffkzzsu.tif,90,0.0666666666666667,0.0666666666666667,1.58333333333333,22860.768714875,22861.500563,13,22860.830319958,22860.891344375,22861.509787291,22863.086491583,0,0.731848125000397
118,42,9,categorization,0,kitchen,SHINEd_sun_aegoxogugdkwpmpj.tif,80,0.0666666666666667,0.0666666666666667,1.8,22863.105068375,22863.799082166,9,22863.171986291,22863.237380083,22863.827197875,22865.620586333,1,0.694013790998724
118,43,9,categorization,0,kitchen,SHINEd_sun_ajcbwwvdlsvjyzje.tif,96,0.0666666666666667,0.0666666666666667,1.3,22865.640240166,22866.101468416,13,22865.706861166,22865.772855666,22866.129277916,22867.42265375,0,0.461228249998385
118,44,9,categorization,0,kitchen,SHINEd_sun_aixorpehvfykdynp.tif,95,0.0666666666666667,0.0666666666666667,0.766666666666667,22867.440795666,22867.814484958,9,22867.505620333,22867.570574833,22867.843685041,22868.6037275,1,0.373689291998744
118,45,9,categorization,0,kitchen,SHINEd_sun_abftihopvusyfakt.tif,71,0.0666666666666667,0.0666666666666667,1.15,22868.618589041,22869.843582541,13,22868.685328333,22868.7513675,22869.853595833,22870.996972625,0,1.22499349999998
118,46,9,categorization,0,bathroom,SHINEd_sun_aghyqhbptboemmoq.tif,23,0.0666666666666667,0.0666666666666667,1.36666666666667,22871.005946208,22871.72553075,9,22871.072533083,22871.138178875,22871.744263375,22873.104310833,0,0.719584542002849
118,47,9,categorization,0,bathroom,SHINEd_sun_aapitsgbtktqubfy.tif,12,0.0666666666666667,0.0666666666666667,0.783333333333333,22873.116686333,22873.766066958,9,22873.183380375,22873.24916375,22873.789470208,22874.566185166,0,0.649380625000049
118,48,9,categorization,0,bathroom,SHINEd_sun_alotolagknyrgtsk.tif,35,0.0666666666666667,0.0666666666666667,1.25,22874.581807708,22875.172118375,13,22874.648351416,22874.71415675,22875.183138208,22876.426511125,1,0.590310667001177
118,49,9,categorization,0,kitchen,SHINEd_sun_aymvwlarqodbwuoc.tif,108,0.0666666666666667,0.0666666666666667,1.5,22876.444241125,22878.963742291,13,22876.511083375,22876.576963458,22878.979054125,22880.472444791,0,2.51950116599983
118,50,9,categorization,0,bathroom,SHINEd_sun_anhioqovhscjqqwb.tif,38,0.0666666666666667,0.0666666666666667,1.03333333333333,22880.489292166,22881.281625291,9,22880.557033958,22880.622275333,22881.312207458,22882.338934208,0,0.792333125002187
