sub_num,trial,block,task,is_practice,category,image,texture,duration,mask_dur,jitter,stim_time,time_of_resp,trial_response,mask_time,fix_time,jit_onset,trial_end,trial_accuracy,RT
118,1,8,categorization,0,kitchen,SHINEd_sun_aadbddgrdsjugojn.tif,64,0.0666666666666667,0.0666666666666667,1.18333333333333,22677.321300958,22678.037019875,9,22677.383879791,22677.444052708,22678.045887375,22679.222612,1,0.715718916999322
118,2,8,categorization,0,bathroom,SHINEd_sun_afcoljnjfoxjtgja.tif,20,0.0666666666666667,0.0666666666666667,0.983333333333333,22679.232356458,22679.778607958,9,22679.299005708,22679.3653575,22679.804960125,22680.781673166,0,0.546251499999926
118,3,8,categorization,0,bathroom,SHINEd_sun_acgyywnybuveqsro.tif,18,0.0666666666666667,0.0666666666666667,1.65,22680.797499333,22681.532497666,13,22680.864276125,22680.929848625,22681.548515541,22683.1918895,1,0.734998333002295
118,4,8,categorization,0,bathroom,SHINEd_sun_aghyqhbptboemmoq.tif,23,0.0666666666666667,0.0666666666666667,1.23333333333333,22683.209836,22683.998360166,13,22683.27645625,22683.342208333,22684.014550125,22685.24127475,1,0.788524165996932
118,5,8,categorization,0,bathroom,SHINEd_sun_apeeialkgkuxddgh.tif,42,0.0666666666666667,0.0666666666666667,0.916666666666667,22685.259481625,22685.798341625,13,22685.325842291,22685.391577666,22685.813883875,22686.723931666,1,0.538860000000568
118,6,8,categorization,0,bathroom,SHINEd_sun_acegryoqftbzowsg.tif,17,0.0666666666666667,0.0666666666666667,1.56666666666667,22686.740611458,22687.436427625,9,22686.8071295,22686.872721875,22687.441468,22689.001510083,0,0.695816167000885
118,7,8,categorization,0,kitchen,SHINEd_sun_axyyrmzcupyhlivc.tif,107,0.0666666666666667,0.0666666666666667,1.63333333333333,22689.019271125,22689.672871541,13,22689.086452416,22689.152290041,22689.691744333,22691.318464083,0,0.6536004160007
118,8,8,categorization,0,bathroom,SHINEd_sun_aclfzgynxzxlbepz.tif,19,0.0666666666666667,0.0666666666666667,1.1,22691.333519041,22692.012741541,13,22691.400429291,22691.465405541,22692.038824583,22693.132200083,1,0.679222499999014
118,9,8,categorization,0,bathroom,SHINEd_sun_apmqjbnwghzuhhzh.tif,46,0.0666666666666667,0.0666666666666667,1.38333333333333,22693.142048416,22693.580356791,9,22693.2070555,22693.27441475,22693.597279416,22694.974011,0,0.438308374999906
118,10,8,categorization,0,bathroom,SHINEd_sun_anhioqovhscjqqwb.tif,38,0.0666666666666667,0.0666666666666667,0.766666666666667,22694.992239958,22695.404543666,9,22695.056419666,22695.115323166,22695.417254375,22696.177260208,0,0.412303708002582
118,11,8,categorization,0,kitchen,SHINEd_sun_agorklincwxrdtga.tif,87,0.0666666666666667,0.0666666666666667,1.45,22696.181928875,22696.692618,13,22696.24355325,22696.304593625,22696.706429625,22698.149803625,0,0.510689124999772
118,12,8,categorization,0,kitchen,SHINEd_sun_aixorpehvfykdynp.tif,95,0.0666666666666667,0.0666666666666667,0.983333333333333,22698.167460958,22698.719503208,9,22698.23415025,22698.299870541,22698.739424958,22699.716130208,1,0.55204225000125
118,13,8,categorization,0,bathroom,SHINEd_sun_acduarbnmmoglmiv.tif,16,0.0666666666666667,0.0666666666666667,0.716666666666667,22699.732728,22700.036823583,13,22699.799458375,22699.857744333,22700.042759583,22700.752763041,1,0.304095583000162
118,14,8,categorization,0,bathroom,SHINEd_sun_azqyogdvyhahyram.tif,60,0.0666666666666667,0.0666666666666667,1.41666666666667,22700.757361833,22701.140800541,9,22700.818994,22700.880174958,22701.148763625,22702.558822333,0,0.383438708002359
118,15,8,categorization,0,kitchen,SHINEd_sun_aapllqyqlykszopd.tif,66,0.0666666666666667,0.0666666666666667,1.21666666666667,22702.577815333,22702.874132083,13,22702.64463025,22702.710340916,22702.89970825,22704.109764583,0,0.296316750002006
118,16,8,categorization,0,kitchen,SHINEd_sun_aexklacwqwezaorf.tif,84,0.0666666666666667,0.0666666666666667,1.61666666666667,22704.126755916,22704.636993208,9,22704.193325583,22704.253728,22704.655870333,22706.2659325,1,0.510237292000966
118,17,8,categorization,0,kitchen,SHINEd_sun_azmutvzbxypaceni.tif,110,0.0666666666666667,0.0666666666666667,0.783333333333333,22706.28298225,22706.956426375,9,22706.349728875,22706.415429333,22706.971203875,22707.747925708,1,0.67344412500097
118,18,8,categorization,0,kitchen,SHINEd_sun_abftihopvusyfakt.tif,71,0.0666666666666667,0.0666666666666667,1.98333333333333,22707.763937375,22708.261246625,13,22707.826512583,22707.886629166,22708.271963083,22710.248693,0,0.497309250000399
118,19,8,categorization,0,bathroom,SHINEd_sun_asfwthctfqerjvxr.tif,49,0.0666666666666667,0.0666666666666667,0.983333333333333,22710.266399791,22710.589689291,9,22710.33311575,22710.398338958,22710.604505458,22711.581176833,0,0.323289500000101
118,20,8,categorization,0,bathroom,SHINEd_sun_apkruvsevgegsdwp.tif,44,0.0666666666666667,0.0666666666666667,0.8,22711.586254375,22711.884761291,9,22711.648038375,22711.708852958,22711.893884333,22712.687221791,0,0.298506915998587
118,21,8,categorization,0,bathroom,SHINEd_sun_ajlawzvmubibwbpy.tif,30,0.0666666666666667,0.0666666666666667,0.733333333333333,22712.691578166,22713.044491916,9,22712.753356583,22712.81413375,22713.049216958,22713.775888083,0,0.35291375000088
118,22,8,categorization,0,kitchen,SHINEd_sun_agzzivivdpnawacl.tif,89,0.0666666666666667,0.0666666666666667,0.966666666666667,22713.780508041,22714.133083291,13,22713.842333916,22713.903154958,22714.13838675,22715.098390541,0,0.352575249999063
118,23,8,categorization,0,kitchen,SHINEd_labelme_rykdqxenmhulbdn.tif,63,0.0666666666666667,0.0666666666666667,0.866666666666667,22715.103308416,22715.372581666,13,22715.164942875,22715.226111125,22715.377787041,22716.237792125,0,0.269273249999969
118,24,8,categorization,0,bathroom,SHINEd_sun_aljolscmmzydegqp.tif,33,0.0666666666666667,0.0666666666666667,1.23333333333333,22716.242388291,22716.365352208,9,22716.304097208,22716.364980083,22716.38335625,22717.61007825,0,0.122963916997833
118,25,8,categorization,0,kitchen,SHINEd_sun_ahywdevtimnqcsln.tif,94,0.0666666666666667,0.0666666666666667,1.9,22717.620854041,22717.74129575,9,22717.687421791,22717.753935416,22717.777444833,22719.670815833,1,0.120441708997532
118,26,8,categorization,0,bathroom,SHINEd_sun_ahaulkltgpkeeemi.tif,26,0.0666666666666667,0.0666666666666667,0.866666666666667,22719.689684875,22722.25301475,9,22719.756327291,22719.82234475,22722.258461833,22723.118466416,0,2.56332987499991
118,27,8,categorization,0,bathroom,SHINEd_sun_ahcvzmoyaycdoftf.tif,27,0.0666666666666667,0.0666666666666667,0.966666666666667,22723.123341333,22723.828817625,13,22723.185087583,22723.246006708,22723.847867833,22724.807874166,1,0.705476291997911
118,28,8,categorization,0,kitchen,SHINEd_sun_aypmqwcualkenuoe.tif,109,0.0666666666666667,0.0666666666666667,0.916666666666667,22724.813453291,22726.084848,13,22724.875214,22724.93609675,22726.088487291,22726.998492708,0,1.27139470899783
118,29,8,categorization,0,bathroom,SHINEd_sun_aggnnqpdorgxpvce.tif,21,0.0666666666666667,0.0666666666666667,0.916666666666667,22727.003434,22728.644144458,9,22727.065209958,22727.126018333,22728.661783041,22729.571788,0,1.64071045800301
118,30,8,categorization,0,bathroom,SHINEd_sun_alkosphxlxwjwgjd.tif,34,0.0666666666666667,0.0666666666666667,1.4,22729.576763,22731.341090083,13,22729.638655541,22729.699436833,22731.352045916,22732.74542775,1,1.76432708299762
118,31,8,categorization,0,bathroom,SHINEd_sun_aapitsgbtktqubfy.tif,12,0.0666666666666667,0.0666666666666667,1.75,22732.765910666,22735.11702725,13,22732.832706833,22732.898663666,22735.134997625,22736.87836875,1,2.3511165839991
118,32,8,categorization,0,kitchen,SHINEd_sun_akchetnepxlcxhsu.tif,98,0.0666666666666667,0.0666666666666667,1.25,22736.898019416,22737.636994,13,22736.965317708,22737.031088833,22737.654556458,22738.897950166,0,0.738974584000971
118,33,8,categorization,0,bathroom,SHINEd_sun_agrwbmhcpmfuwmsg.tif,24,0.0666666666666667,0.0666666666666667,1.05,22738.915925291,22739.824336416,13,22738.983141708,22739.048839666,22739.837694541,22740.881079083,1,0.908411125001294
118,34,8,categorization,0,kitchen,SHINEd_sun_ahspylgoovwmwvgk.tif,93,0.0666666666666667,0.0666666666666667,1.06666666666667,22740.893170041,22741.432009083,9,22740.958009666,22741.02429225,22741.445767833,22742.505813875,1,0.5388390420012
118,35,8,categorization,0,kitchen,SHINEd_sun_abrcnpqqhmjwekyf.tif,73,0.0666666666666667,0.0666666666666667,1.21666666666667,22742.523787833,22743.228352166,9,22742.591351,22742.656191041,22743.242228916,22744.452292,1,0.704564332998416
118,36,8,categorization,0,bathroom,SHINEd_sun_apynckhmoftszqoq.tif,47,0.0666666666666667,0.0666666666666667,0.95,22744.470950625,22744.938376583,13,22744.537926541,22744.603320125,22744.959766458,22745.903157625,1,0.467425957998785
118,37,8,categorization,0,bathroom,SHINEd_sun_agyqfjcfkdcydepw.tif,25,0.0666666666666667,0.0666666666666667,0.9,22745.919683041,22746.837015458,13,22745.986676041,22746.052143708,22746.854622833,22747.747961708,1,0.91733241700058
118,38,8,categorization,0,kitchen,SHINEd_sun_avszsnwsbuqfgzbn.tif,105,0.0666666666666667,0.0666666666666667,1.78333333333333,22747.753160333,22748.604300166,9,22747.814865916,22747.875987708,22748.611278791,22750.387980208,1,0.851139833001071
118,39,8,categorization,0,kitchen,SHINEd_sun_aunzlwrbjumxhwdj.tif,103,0.0666666666666667,0.0666666666666667,1.16666666666667,22750.40624575,22751.101460958,9,22750.472857,22750.538709,22751.128440083,22752.288486291,1,0.695215208001173
118,40,8,categorization,0,bathroom,SHINEd_sun_atstyziqcmkahyxk.tif,51,0.0666666666666667,0.0666666666666667,0.783333333333333,22752.299467666,22753.0932175,13,22752.363340833,22752.43182825,22753.121693125,22753.898418958,1,0.793749834003393
118,41,8,categorization,0,kitchen,SHINEd_sun_aggjlwcdjsjcaemh.tif,86,0.0666666666666667,0.0666666666666667,1.23333333333333,22753.915013583,22754.692455208,13,22753.981875,22754.047461083,22754.699911625,22755.926614583,0,0.777441625003121
118,42,8,categorization,0,kitchen,SHINEd_sun_acxkpeoqbwcxfvip.tif,77,0.0666666666666667,0.0666666666666667,0.9,22755.943883625,22756.308043875,9,22756.010112208,22756.076356041,22756.333206458,22757.226582166,1,0.364160249999259
118,43,8,categorization,0,bathroom,SHINEd_sun_abapwbhyhkfixyex.tif,14,0.0666666666666667,0.0666666666666667,0.7,22757.243355333,22757.900139166,13,22757.310007375,22757.376066125,22757.912006708,22758.605346375,1,0.656783832997462
118,44,8,categorization,0,bathroom,SHINEd_sun_apjevzvycyhuqghb.tif,43,0.0666666666666667,0.0666666666666667,1.23333333333333,22758.612154166,22759.268868583,9,22758.673899916,22758.734792166,22759.28709,22760.513792083,0,0.65671441700033
118,45,8,categorization,0,bathroom,SHINEd_labelme_sfxiulhjbhlyiyt.tif,11,0.0666666666666667,0.0666666666666667,1,22760.531762833,22761.320113375,13,22760.598414583,22760.664448291,22761.336934625,22762.330328916,1,0.788350541999534
118,46,8,categorization,0,kitchen,SHINEd_labelme_brsyyvweiuaazfr.tif,61,0.0666666666666667,0.0666666666666667,1.38333333333333,22762.34698075,22762.708855625,13,22762.409902833,22762.469767541,22762.721517416,22764.09822075,0,0.361874874997739
118,47,8,categorization,0,bathroom,SHINEd_sun_auzqhkafidnkrwmo.tif,54,0.0666666666666667,0.0666666666666667,1.3,22764.115387916,22764.8626665,9,22764.1822675,22764.248161208,22764.887508416,22766.180897333,0,0.747278584000014
118,48,8,categorization,0,kitchen,SHINEd_sun_ajkqhtgcbgpcwrwn.tif,97,0.0666666666666667,0.0666666666666667,0.833333333333333,22766.197905375,22767.284421958,9,22766.264695333,22766.330394833,22767.303247458,22768.129919833,1,1.08651658300005
118,49,8,categorization,0,bathroom,SHINEd_sun_aoybiabnpadelefl.tif,41,0.0666666666666667,0.0666666666666667,0.95,22768.135669458,22768.868061583,13,22768.197696541,22768.258333291,22768.877053333,22769.820390041,1,0.732392125002661
118,50,8,categorization,0,kitchen,SHINEd_sun_adgqasybjyktddhj.tif,78,0.0666666666666667,0.0666666666666667,1.43333333333333,22769.82572375,22770.268585083,9,22769.887630708,22769.948281583,22770.283571,22771.710297666,1,0.442861332998291
