sub_num,trial,block,task,is_practice,category,image,texture,duration,mask_dur,jitter,stim_time,time_of_resp,trial_response,mask_time,fix_time,jit_onset,trial_end,trial_accuracy,RT
139,6,0,typicality,1,kitchen,kitchen_practice2.tif,227,1.5,0,0.966666666666667,2338.695019833,2343.705236625,5,NaN,2343.726896708,2343.748075875,2344.708186333,NaN,NaN
139,7,0,typicality,1,kitchen,kitchen_practice5.tif,230,1.5,0,1.58333333333333,2344.724683291,2347.6787605,6,NaN,2347.729740958,2347.756125666,2349.333035125,NaN,NaN
139,8,0,typicality,1,kitchen,kitchen_practice1.tif,226,1.5,0,1.03333333333333,2349.361918291,2352.837047583,4,NaN,2352.870540833,2352.894787666,2353.921544125,NaN,NaN
139,9,0,typicality,1,kitchen,kitchen_practice4.tif,229,1.5,0,1.68333333333333,2353.94139425,2358.857005541,4,NaN,2358.863844833,2358.882262625,2360.559011666,NaN,NaN
139,10,0,typicality,1,kitchen,kitchen_practice3.tif,228,1.5,0,1.45,2360.590399833,2364.601231791,2,NaN,2364.610422666,2364.628779375,2366.072208791,NaN,NaN
139,1,1,typicality,0,kitchen,sun_agubuxuukhzyzpdp.tif,198,1.5,0,0.733333333333333,2372.881779166,2377.009414958,3,NaN,2377.015543166,2377.033963125,2377.760637666,NaN,NaN
139,2,1,typicality,0,kitchen,sun_ahpczsiumwwocjkv.tif,202,1.5,0,1.18333333333333,2377.765018583,2380.91297375,5,NaN,2380.919332958,2380.937706166,2382.114416125,NaN,NaN
139,3,1,typicality,0,kitchen,sun_aapllqyqlykszopd.tif,176,1.5,0,0.7,2382.123506125,2385.169289958,4,NaN,2385.174792916,2385.192999583,2385.886343958,NaN,NaN
139,4,1,typicality,0,kitchen,sun_auaiucuqpdausiva.tif,212,1.5,0,1.2,2385.89061375,2388.669000083,2,NaN,2388.6947665,2388.718069166,2389.911470833,NaN,NaN
139,5,1,typicality,0,kitchen,sun_adgqasybjyktddhj.tif,188,1.5,0,0.966666666666667,2389.924225583,2394.55364625,3,NaN,2394.559322125,2394.577581,2395.537587458,NaN,NaN
139,6,1,typicality,0,kitchen,sun_aaxxjlsuzvqlgylf.tif,178,1.5,0,1.3,2395.542388125,2400.585411291,4,NaN,2400.591322708,2400.609698375,2401.903119833,NaN,NaN
139,7,1,typicality,0,kitchen,labelme_kxvouciolcpqplr.tif,172,1.5,0,1.65,2401.92117,2406.281123458,3,NaN,2406.286861625,2406.305289666,2407.948712166,NaN,NaN
139,8,1,typicality,0,kitchen,sun_amjjdeyrggfqgmom.tif,210,1.5,0,1.63333333333333,2407.9659895,2410.978064458,2,NaN,2411.005316666,2411.029368166,2412.656106708,NaN,NaN
139,9,1,typicality,0,kitchen,sun_acfmftudsenhrfhy.tif,184,1.5,0,0.9,2412.678070958,2415.88792775,4,NaN,2415.916052625,2415.939746458,2416.83308975,NaN,NaN
139,10,1,typicality,0,kitchen,sun_aypmqwcualkenuoe.tif,219,1.5,0,0.95,2416.837783458,2419.852539458,5,NaN,2419.881588666,2419.905156458,2420.848496666,NaN,NaN
139,11,1,typicality,0,kitchen,sun_avszsnwsbuqfgzbn.tif,215,1.5,0,0.816666666666667,2420.853305916,2424.705143791,4,NaN,2424.710806708,2424.729212916,2425.53922275,NaN,NaN
139,12,1,typicality,0,kitchen,sun_aarfiyshqohlwkmo.tif,177,1.5,0,1.96666666666667,2425.543806833,2429.208573916,4,NaN,2429.215400208,2429.233741916,2431.193808375,NaN,NaN
139,13,1,typicality,0,kitchen,sun_aeqdocilnnpuvuhx.tif,193,1.5,0,0.783333333333333,2431.211611666,2435.497529958,5,NaN,2435.503387791,2435.521791875,2436.298469,NaN,NaN
139,14,1,typicality,0,kitchen,sun_ahdycvpopffkzzsu.tif,200,1.5,0,0.733333333333333,2436.302939333,2443.640790333,3,NaN,2443.646578083,2443.6648445,2444.391519,NaN,NaN
139,15,1,typicality,0,kitchen,sun_acgtpgfybqjmzeyw.tif,185,1.5,0,1.9,2444.395849125,2447.728375625,6,NaN,2447.734035916,2447.752477041,2449.645915375,NaN,NaN
139,16,1,typicality,0,kitchen,sun_aqeaevwwwjoqhzvl.tif,211,1.5,0,0.75,2449.662602958,2452.950227583,2,NaN,2452.974068291,2452.993681,2453.737023083,NaN,NaN
139,17,1,typicality,0,kitchen,sun_aenotlpyftoioydp.tif,192,1.5,0,0.916666666666667,2453.742102791,2456.98495,2,NaN,2456.991971708,2457.01014725,2457.920154125,NaN,NaN
139,18,1,typicality,0,kitchen,sun_ajkqhtgcbgpcwrwn.tif,207,1.5,0,0.733333333333333,2457.92591575,2460.693964291,2,NaN,2460.724265083,2460.747577125,2461.474255458,NaN,NaN
139,19,1,typicality,0,kitchen,sun_acxkpeoqbwcxfvip.tif,187,1.5,0,1.81666666666667,2461.479149666,2464.889451875,4,NaN,2464.894956875,2464.913263791,2466.723330166,NaN,NaN
139,20,1,typicality,0,kitchen,labelme_rykdqxenmhulbdn.tif,173,1.5,0,1.16666666666667,2466.740379333,2469.624501458,6,NaN,2469.654609166,2469.677981166,2470.838039625,NaN,NaN
139,21,1,typicality,0,kitchen,sun_agorklincwxrdtga.tif,197,1.5,0,1.81666666666667,2470.848030416,2473.776676791,5,NaN,2473.78258125,2473.8009995,2475.611068666,NaN,NaN
139,22,1,typicality,0,kitchen,sun_aexklacwqwezaorf.tif,194,1.5,0,1.35,2475.626579291,2478.977027833,6,NaN,2478.984126708,2479.002426708,2480.345822291,NaN,NaN
139,23,1,typicality,0,kitchen,sun_ahywdevtimnqcsln.tif,204,1.5,0,1.25,2480.362060833,2483.448326958,6,NaN,2483.454697541,2483.473168791,2484.716588416,NaN,NaN
139,24,1,typicality,0,kitchen,sun_aamedkxepzlwuxes.tif,175,1.5,0,1.05,2484.732989458,2488.136314541,6,NaN,2488.1423835,2488.160615,2489.204004083,NaN,NaN
139,25,1,typicality,0,kitchen,sun_ajcbwwvdlsvjyzje.tif,206,1.5,0,0.916666666666667,2489.213252291,2491.792626083,7,NaN,2491.798344375,2491.816753875,2492.726765208,NaN,NaN
139,1,2,typicality,0,kitchen,sun_awcpdzzznmweyyhv.tif,216,1.5,0,1.56666666666667,2497.718264041,2500.865322208,6,NaN,2500.872657125,2500.891081875,2502.451144875,NaN,NaN
139,2,2,typicality,0,kitchen,sun_aegoxogugdkwpmpj.tif,190,1.5,0,0.883333333333333,2502.469733083,2504.952723291,5,NaN,2504.958416875,2504.97658025,2505.8532555,NaN,NaN
139,3,2,typicality,0,kitchen,sun_aixorpehvfykdynp.tif,205,1.5,0,0.75,2505.858843916,2509.904622625,7,NaN,2509.910478708,2509.92877675,2510.672120875,NaN,NaN
139,4,2,typicality,0,kitchen,sun_aehawpgmrlhlvcow.tif,191,1.5,0,1.23333333333333,2510.676502583,2514.384600875,3,NaN,2514.390522041,2514.408895416,2515.635622333,NaN,NaN
139,5,2,typicality,0,kitchen,sun_acwjdupvyjsugpay.tif,186,1.5,0,0.85,2515.650029541,2518.624387416,7,NaN,2518.63034275,2518.648857833,2519.492199958,NaN,NaN
139,6,2,typicality,0,kitchen,labelme_brsyyvweiuaazfr.tif,171,1.5,0,0.916666666666667,2519.496715875,2523.168547291,4,NaN,2523.174266375,2523.192530833,2524.102541291,NaN,NaN
139,7,2,typicality,0,kitchen,sun_akchetnepxlcxhsu.tif,208,1.5,0,1.75,2524.106915875,2526.916372958,5,NaN,2526.945146541,2526.967985083,2528.711380625,NaN,NaN
139,8,2,typicality,0,kitchen,sun_ahljzhgcdpomplvg.tif,201,1.5,0,1.43333333333333,2528.728015458,2531.70832725,5,NaN,2531.737307333,2531.760811791,2533.187564958,NaN,NaN
139,9,2,typicality,0,kitchen,sun_abpwyqmlzafvklqo.tif,182,1.5,0,0.783333333333333,2533.204948625,2535.816652291,6,NaN,2535.822474583,2535.841175125,2536.617848791,NaN,NaN
139,10,2,typicality,0,kitchen,sun_axyyrmzcupyhlivc.tif,217,1.5,0,1.76666666666667,2536.622143666,2540.601016708,4,NaN,2540.606875625,2540.625321291,2542.385389125,NaN,NaN
139,11,2,typicality,0,kitchen,sun_auticobqsbwgoppi.tif,214,1.5,0,1.78333333333333,2542.401040291,2545.576104375,7,NaN,2545.6028175,2545.626467125,2547.403204541,NaN,NaN
139,12,2,typicality,0,kitchen,sun_aymvwlarqodbwuoc.tif,218,1.5,0,1.85,2547.420678083,2550.418616708,4,NaN,2550.445861166,2550.469549208,2552.31296425,NaN,NaN
139,13,2,typicality,0,kitchen,sun_ahspylgoovwmwvgk.tif,203,1.5,0,1.18333333333333,2552.332568875,2555.598403916,3,NaN,2555.628883458,2555.652610166,2556.829339833,NaN,NaN
139,14,2,typicality,0,kitchen,sun_aggjlwcdjsjcaemh.tif,196,1.5,0,1.01666666666667,2556.840397416,2560.024259791,4,NaN,2560.030293583,2560.048683666,2561.058754916,NaN,NaN
139,15,2,typicality,0,kitchen,sun_aunzlwrbjumxhwdj.tif,213,1.5,0,1.65,2561.06652425,2564.224578958,5,NaN,2564.230334916,2564.248642375,2565.892070666,NaN,NaN
139,16,2,typicality,0,kitchen,sun_abrcnpqqhmjwekyf.tif,183,1.5,0,1.83333333333333,2565.909883041,2572.216054333,5,NaN,2572.222002958,2572.240451041,2574.067216541,NaN,NaN
139,17,2,typicality,0,kitchen,sun_agzzivivdpnawacl.tif,199,1.5,0,1.58333333333333,2574.085728,2580.616340541,5,NaN,2580.622265291,2580.640738416,2582.217474875,NaN,NaN
139,18,2,typicality,0,kitchen,sun_abftihopvusyfakt.tif,181,1.5,0,1.85,2582.2332595,2587.4802605,6,NaN,2587.486289083,2587.504629083,2589.348048833,NaN,NaN
139,19,2,typicality,0,kitchen,sun_afuyedyxivkhecmu.tif,195,1.5,0,0.766666666666667,2589.366027958,2593.904496416,5,NaN,2593.910600541,2593.928908166,2594.688915,NaN,NaN
139,20,2,typicality,0,kitchen,sun_aadbddgrdsjugojn.tif,174,1.5,0,0.716666666666667,2594.693434125,2598.552952541,5,NaN,2598.558696125,2598.5769245,2599.286930625,NaN,NaN
139,21,2,typicality,0,kitchen,sun_azmutvzbxypaceni.tif,220,1.5,0,1.38333333333333,2599.29205875,2606.104073791,4,NaN,2606.111132833,2606.129651416,2607.506414,NaN,NaN
139,22,2,typicality,0,kitchen,sun_abdxkyyxwfskuaqb.tif,180,1.5,0,0.866666666666667,2607.528097375,2614.200900083,4,NaN,2614.206531708,2614.224985458,2615.084994875,NaN,NaN
139,23,2,typicality,0,kitchen,sun_akcjzhbbjlbogpdi.tif,209,1.5,0,1.4,2615.089770833,2618.792672125,4,NaN,2618.798941041,2618.817398625,2620.210801333,NaN,NaN
139,24,2,typicality,0,kitchen,sun_admlmbcdswaszruo.tif,189,1.5,0,1,2620.228693916,2624.231986458,4,NaN,2624.238394625,2624.257154875,2625.250495125,NaN,NaN
139,25,2,typicality,0,kitchen,sun_abdenxonkemggwsq.tif,179,1.5,0,1.28333333333333,2625.254946333,2629.536754916,5,NaN,2629.542444708,2629.560741208,2630.83746825,NaN,NaN
