sub_num,trial,block,task,is_practice,category,image,texture,duration,mask_dur,jitter,stim_time,time_of_resp,trial_response,mask_time,fix_time,jit_onset,trial_end,trial_accuracy,RT
114,6,0,complexity,1,kitchen,kitchen_practice5.tif,230,1.5,0,1.46666666666667,5172.353188375,5178.5443625,4,NaN,5178.55124475,5178.569991125,5180.030552708,NaN,NaN
114,7,0,complexity,1,kitchen,kitchen_practice2.tif,227,1.5,0,1.31666666666667,5180.052280708,5183.048302333,7,NaN,5183.054544333,5183.072955333,5184.383131708,NaN,NaN
114,8,0,complexity,1,kitchen,kitchen_practice4.tif,229,1.5,0,1.76666666666667,5184.40201325,5187.456608417,7,NaN,5187.462272625,5187.480709625,5189.240741875,NaN,NaN
114,9,0,complexity,1,kitchen,kitchen_practice1.tif,226,1.5,0,0.816666666666667,5189.259813917,5192.400589583,6,NaN,5192.430077417,5192.452999125,5193.263003292,NaN,NaN
114,10,0,complexity,1,kitchen,kitchen_practice3.tif,228,1.5,0,0.9,5193.267811083,5199.505135833,4,NaN,5199.510730875,5199.529004458,5200.422343292,NaN,NaN
114,1,1,complexity,0,kitchen,sun_avszsnwsbuqfgzbn.tif,215,1.5,0,1.15,5206.206723917,5209.568846625,7,NaN,5209.574955083,5209.593268542,5210.736642042,NaN,NaN
114,2,1,complexity,0,kitchen,sun_ahpczsiumwwocjkv.tif,202,1.5,0,1.33333333333333,5210.745969125,5214.320821625,3,NaN,5214.326505708,5214.345218667,5215.671938,NaN,NaN
114,3,1,complexity,0,kitchen,sun_aeqdocilnnpuvuhx.tif,193,1.5,0,1.75,5215.689509167,5218.384568917,6,NaN,5218.390169708,5218.408561958,5220.151947875,NaN,NaN
114,4,1,complexity,0,kitchen,sun_ahywdevtimnqcsln.tif,204,1.5,0,1.2,5220.171073542,5223.832605458,6,NaN,5223.83937425,5223.857707125,5225.0510885,NaN,NaN
114,5,1,complexity,0,kitchen,sun_aqeaevwwwjoqhzvl.tif,211,1.5,0,1.46666666666667,5225.06280075,5228.057277125,7,NaN,5228.062879958,5228.081298083,5229.541331292,NaN,NaN
114,6,1,complexity,0,kitchen,sun_aehawpgmrlhlvcow.tif,191,1.5,0,1.01666666666667,5229.560890958,5232.6409865,5,NaN,5232.6467145,5232.664938083,5233.674976,NaN,NaN
114,7,1,complexity,0,kitchen,sun_agorklincwxrdtga.tif,197,1.5,0,1.18333333333333,5233.68390175,5236.713195333,5,NaN,5236.718687333,5236.737028375,5237.913732375,NaN,NaN
114,8,1,complexity,0,kitchen,sun_agzzivivdpnawacl.tif,199,1.5,0,1.03333333333333,5237.922678542,5241.705187833,6,NaN,5241.710722042,5241.728829125,5242.755533083,NaN,NaN
114,9,1,complexity,0,kitchen,sun_acfmftudsenhrfhy.tif,184,1.5,0,1.25,5242.766331542,5245.552192042,7,NaN,5245.558258083,5245.576748333,5246.82014075,NaN,NaN
114,10,1,complexity,0,kitchen,sun_aarfiyshqohlwkmo.tif,177,1.5,0,0.733333333333333,5246.837107625,5249.824881583,7,NaN,5249.830434167,5249.848704417,5250.57537625,NaN,NaN
114,11,1,complexity,0,kitchen,labelme_rykdqxenmhulbdn.tif,173,1.5,0,1.01666666666667,5250.580423958,5254.984777083,4,NaN,5254.99045575,5255.008805708,5256.018850958,NaN,NaN
114,12,1,complexity,0,kitchen,sun_aexklacwqwezaorf.tif,194,1.5,0,1.53333333333333,5256.028953125,5258.768935292,7,NaN,5258.774587042,5258.792931208,5260.319638875,NaN,NaN
114,13,1,complexity,0,kitchen,sun_aunzlwrbjumxhwdj.tif,213,1.5,0,1.33333333333333,5260.338727042,5265.352164292,3,NaN,5265.358881458,5265.377748917,5266.70446575,NaN,NaN
114,14,1,complexity,0,kitchen,sun_ahljzhgcdpomplvg.tif,201,1.5,0,1.53333333333333,5266.724202542,5269.873019417,4,NaN,5269.878593333,5269.896878333,5271.423601875,NaN,NaN
114,15,1,complexity,0,kitchen,labelme_kxvouciolcpqplr.tif,172,1.5,0,1.01666666666667,5271.442175167,5274.377171583,2,NaN,5274.382767208,5274.401120875,5275.4111635,NaN,NaN
114,16,1,complexity,0,kitchen,sun_awcpdzzznmweyyhv.tif,216,1.5,0,1.23333333333333,5275.421086083,5278.336260875,5,NaN,5278.342169625,5278.360531042,5279.587247958,NaN,NaN
114,17,1,complexity,0,kitchen,sun_aaxxjlsuzvqlgylf.tif,178,1.5,0,1.18333333333333,5279.606566458,5282.776959417,6,NaN,5282.782667792,5282.800975792,5283.977675333,NaN,NaN
114,18,1,complexity,0,kitchen,sun_aamedkxepzlwuxes.tif,175,1.5,0,0.783333333333333,5283.989616042,5287.816448917,6,NaN,5287.822796583,5287.841213,5288.617885958,NaN,NaN
114,19,1,complexity,0,kitchen,sun_ajcbwwvdlsvjyzje.tif,206,1.5,0,1.73333333333333,5288.623043625,5291.605081958,6,NaN,5291.634256792,5291.657508625,5293.384211083,NaN,NaN
114,20,1,complexity,0,kitchen,sun_azmutvzbxypaceni.tif,220,1.5,0,1.21666666666667,5293.400413458,5297.104398042,2,NaN,5297.11053075,5297.128717333,5298.338758042,NaN,NaN
114,21,1,complexity,0,kitchen,sun_acxkpeoqbwcxfvip.tif,187,1.5,0,1.26666666666667,5298.356431042,5302.056759292,5,NaN,5302.062343542,5302.080730292,5303.340763208,NaN,NaN
114,22,1,complexity,0,kitchen,sun_aggjlwcdjsjcaemh.tif,196,1.5,0,0.783333333333333,5303.358788542,5306.687997,6,NaN,5306.694086875,5306.712396792,5307.489067167,NaN,NaN
114,23,1,complexity,0,kitchen,sun_aadbddgrdsjugojn.tif,174,1.5,0,1.48333333333333,5307.494921458,5310.768915792,5,NaN,5310.775779917,5310.794083042,5312.270780208,NaN,NaN
114,24,1,complexity,0,kitchen,sun_acwjdupvyjsugpay.tif,186,1.5,0,1.36666666666667,5312.289183125,5316.096202833,2,NaN,5316.102012875,5316.120303083,5317.480357708,NaN,NaN
114,25,1,complexity,0,kitchen,sun_auticobqsbwgoppi.tif,214,1.5,0,0.983333333333333,5317.499435,5320.480670708,3,NaN,5320.486318042,5320.504804708,5321.481476958,NaN,NaN
114,1,2,complexity,0,kitchen,sun_aixorpehvfykdynp.tif,205,1.5,0,1.26666666666667,5326.348923542,5329.432507875,4,NaN,5329.440766083,5329.459251667,5330.719299208,NaN,NaN
114,2,2,complexity,0,kitchen,sun_aypmqwcualkenuoe.tif,219,1.5,0,1.11666666666667,5330.739349708,5333.888856042,7,NaN,5333.894541,5333.912695167,5335.022742,NaN,NaN
114,3,2,complexity,0,kitchen,sun_aymvwlarqodbwuoc.tif,218,1.5,0,1.43333333333333,5335.031105542,5339.343835708,5,NaN,5339.350047125,5339.368488292,5340.795207708,NaN,NaN
114,4,2,complexity,0,kitchen,sun_amjjdeyrggfqgmom.tif,210,1.5,0,0.8,5340.813961083,5345.008832333,4,NaN,5345.014442292,5345.032681333,5345.826019875,NaN,NaN
114,5,2,complexity,0,kitchen,sun_akcjzhbbjlbogpdi.tif,209,1.5,0,0.733333333333333,5345.831046417,5350.760541792,3,NaN,5350.766179292,5350.784477792,5351.511151583,NaN,NaN
114,6,2,complexity,0,kitchen,sun_abdxkyyxwfskuaqb.tif,180,1.5,0,1.03333333333333,5351.516159958,5354.864410125,5,NaN,5354.871365125,5354.889706125,5355.916422208,NaN,NaN
114,7,2,complexity,0,kitchen,sun_acgtpgfybqjmzeyw.tif,185,1.5,0,1.56666666666667,5355.926544917,5358.664038583,4,NaN,5358.669779,5358.688118792,5360.248151792,NaN,NaN
114,8,2,complexity,0,kitchen,sun_ahdycvpopffkzzsu.tif,200,1.5,0,0.866666666666667,5360.266502917,5363.036849625,4,NaN,5363.065639375,5363.088626833,5363.948632083,NaN,NaN
114,9,2,complexity,0,kitchen,sun_ajkqhtgcbgpcwrwn.tif,207,1.5,0,0.716666666666667,5363.954001958,5367.7287745,4,NaN,5367.734565333,5367.752820833,5368.462826292,NaN,NaN
114,10,2,complexity,0,kitchen,sun_agubuxuukhzyzpdp.tif,198,1.5,0,1.33333333333333,5368.468031583,5371.848586292,5,NaN,5371.85516975,5371.87346275,5373.200173958,NaN,NaN
114,11,2,complexity,0,kitchen,sun_aegoxogugdkwpmpj.tif,190,1.5,0,1.01666666666667,5373.219318375,5377.000708333,6,NaN,5377.006468375,5377.02473425,5378.034784667,NaN,NaN
114,12,2,complexity,0,kitchen,sun_aenotlpyftoioydp.tif,192,1.5,0,0.733333333333333,5378.045711833,5381.880583125,3,NaN,5381.8863645,5381.904756708,5382.631429042,NaN,NaN
114,13,2,complexity,0,kitchen,sun_auaiucuqpdausiva.tif,212,1.5,0,1.38333333333333,5382.636767583,5385.799766875,7,NaN,5385.807262458,5385.825585125,5387.202304792,NaN,NaN
114,14,2,complexity,0,kitchen,sun_aapllqyqlykszopd.tif,176,1.5,0,1.06666666666667,5387.216781583,5391.607762917,5,NaN,5391.613988958,5391.632355708,5392.692397,NaN,NaN
114,15,2,complexity,0,kitchen,sun_adgqasybjyktddhj.tif,188,1.5,0,0.85,5392.701283583,5397.775997208,3,NaN,5397.781839833,5397.800210667,5398.643550375,NaN,NaN
114,16,2,complexity,0,kitchen,labelme_brsyyvweiuaazfr.tif,171,1.5,0,0.9,5398.648750417,5401.576515083,3,NaN,5401.605241875,5401.628104125,5402.521442083,NaN,NaN
114,17,2,complexity,0,kitchen,sun_admlmbcdswaszruo.tif,189,1.5,0,1.55,5402.527930167,5405.539612708,4,NaN,5405.567346417,5405.587339875,5407.130730375,NaN,NaN
114,18,2,complexity,0,kitchen,sun_abrcnpqqhmjwekyf.tif,183,1.5,0,0.7,5407.145384708,5410.255635292,3,NaN,5410.261870417,5410.280252833,5410.973591333,NaN,NaN
114,19,2,complexity,0,kitchen,sun_abdenxonkemggwsq.tif,179,1.5,0,0.716666666666667,5410.978782542,5415.703732292,5,NaN,5415.709797583,5415.728118542,5416.438124333,NaN,NaN
114,20,2,complexity,0,kitchen,sun_akchetnepxlcxhsu.tif,208,1.5,0,0.85,5416.444329375,5419.720507792,4,NaN,5419.727210333,5419.745467375,5420.588804875,NaN,NaN
114,21,2,complexity,0,kitchen,sun_axyyrmzcupyhlivc.tif,217,1.5,0,1.35,5420.59390725,5423.8397375,3,NaN,5423.8466385,5423.864932958,5425.208307542,NaN,NaN
114,22,2,complexity,0,kitchen,sun_abftihopvusyfakt.tif,181,1.5,0,1.96666666666667,5425.226212583,5430.336203583,3,NaN,5430.341879875,5430.360138083,5432.320176167,NaN,NaN
114,23,2,complexity,0,kitchen,sun_afuyedyxivkhecmu.tif,195,1.5,0,0.933333333333333,5432.338747833,5435.968693042,6,NaN,5435.974446458,5435.992960583,5436.919632417,NaN,NaN
114,24,2,complexity,0,kitchen,sun_ahspylgoovwmwvgk.tif,203,1.5,0,1.33333333333333,5436.925140458,5440.072723583,3,NaN,5440.079823042,5440.098251,5441.424962458,NaN,NaN
114,25,2,complexity,0,kitchen,sun_abpwyqmlzafvklqo.tif,182,1.5,0,1.16666666666667,5441.440906417,5444.359927917,3,NaN,5444.365678083,5444.384151458,5445.54418925,NaN,NaN
