sub_num,trial,block,task,is_practice,category,image,texture,duration,mask_dur,jitter,stim_time,time_of_resp,trial_response,mask_time,fix_time,jit_onset,trial_end,trial_accuracy,RT
108,1,4,categorization,0,kitchen,SHINEd_sun_akcjzhbbjlbogpdi.tif,99,0.05,0.0666666666666667,1,1190.208586208,1191.044122916,13,1190.254385666,1190.314966458,1191.050704541,1192.044043458,0,0.835536708000063
108,2,4,categorization,0,kitchen,SHINEd_sun_aggjlwcdjsjcaemh.tif,86,0.05,0.0666666666666667,0.966666666666667,1192.048996166,1192.683846833,9,1192.094070125,1192.1550475,1192.690237541,1193.650242333,1,0.63485066699991
108,3,4,categorization,0,bathroom,SHINEd_sun_apmqjbnwghzuhhzh.tif,46,0.05,0.0666666666666667,1.75,1193.655499,1194.323579416,9,1193.700502916,1193.761465708,1194.330049791,1196.073437791,0,0.668080416000066
108,4,4,categorization,0,kitchen,SHINEd_sun_aehawpgmrlhlvcow.tif,81,0.05,0.0666666666666667,1.68333333333333,1196.088247541,1196.861102333,13,1196.138419583,1196.204350208,1196.876840208,1198.55356275,0,0.772854791999862
108,5,4,categorization,0,bathroom,SHINEd_sun_abapwbhyhkfixyex.tif,14,0.05,0.0666666666666667,1.58333333333333,1198.571820791,1199.400924333,9,1198.621764416,1198.687859833,1199.427563458,1201.004265708,0,0.829103541999984
108,6,4,categorization,0,kitchen,SHINEd_sun_ahljzhgcdpomplvg.tif,91,0.05,0.0666666666666667,1,1201.022253166,1201.773182875,9,1201.072667,1201.137317791,1201.793801958,1202.787140833,1,0.750929709000047
108,7,4,categorization,0,bathroom,SHINEd_sun_avhrdrntsqrjzccq.tif,55,0.05,0.0666666666666667,1.33333333333333,1202.792033333,1203.507253666,9,1202.837081125,1202.898064291,1203.516668291,1204.843379208,0,0.715220332999934
108,8,4,categorization,0,bathroom,SHINEd_sun_ahcvzmoyaycdoftf.tif,27,0.05,0.0666666666666667,1.26666666666667,1204.863013583,1205.539734208,13,1204.913881,1204.979908333,1205.570016125,1206.830065125,1,0.676720624999916
108,9,4,categorization,0,bathroom,SHINEd_sun_asfwthctfqerjvxr.tif,49,0.05,0.0666666666666667,0.883333333333333,1206.847984666,1207.645065125,9,1206.898608083,1206.964319375,1207.671271458,1208.547980458,0,0.797080458999972
108,10,4,categorization,0,kitchen,SHINEd_labelme_rykdqxenmhulbdn.tif,63,0.05,0.0666666666666667,1.26666666666667,1208.565237458,1209.723638416,9,1208.615232583,1208.6817825,1209.733727,1210.993771791,1,1.15840095800013
108,11,4,categorization,0,kitchen,SHINEd_sun_ajkqhtgcbgpcwrwn.tif,97,0.05,0.0666666666666667,2,1211.009475833,1211.848800916,9,1211.059165791,1211.123798333,1211.862817333,1213.856187,1,0.839325083000176
108,12,4,categorization,0,bathroom,SHINEd_sun_alkosphxlxwjwgjd.tif,34,0.05,0.0666666666666667,0.733333333333333,1213.876416958,1214.637158458,13,1213.926668625,1213.992410791,1214.66565775,1215.392329375,1,0.760741499999995
108,13,4,categorization,0,kitchen,SHINEd_sun_agzzivivdpnawacl.tif,89,0.05,0.0666666666666667,0.883333333333333,1215.397309416,1216.331697291,13,1215.442379375,1215.503330041,1216.338957666,1217.215628791,0,0.934387874999857
108,14,4,categorization,0,kitchen,SHINEd_sun_aaxxjlsuzvqlgylf.tif,68,0.05,0.0666666666666667,0.983333333333333,1217.22068725,1217.963108708,9,1217.265667458,1217.326784541,1217.979029166,1218.955700458,1,0.742421457999853
108,15,4,categorization,0,bathroom,SHINEd_sun_aunuadmjocsddsrl.tif,52,0.05,0.0666666666666667,1.56666666666667,1218.961468958,1219.651775791,9,1219.006542625,1219.067439,1219.66926875,1221.229310375,0,0.690306833000022
108,16,4,categorization,0,kitchen,SHINEd_sun_aqeaevwwwjoqhzvl.tif,101,0.05,0.0666666666666667,1.08333333333333,1221.247103583,1221.923159625,9,1221.297009583,1221.363287125,1221.953162375,1223.029865416,1,0.676056042000027
108,17,4,categorization,0,bathroom,SHINEd_sun_alotolagknyrgtsk.tif,35,0.05,0.0666666666666667,0.75,1223.042183333,1223.76728275,9,1223.089896833,1223.15727325,1223.797137416,1224.540515625,0,0.725099417000138
108,18,4,categorization,0,bathroom,SHINEd_sun_agyqfjcfkdcydepw.tif,25,0.05,0.0666666666666667,0.966666666666667,1224.556854291,1225.275884541,9,1224.606532208,1224.672678208,1225.291823833,1226.251828708,0,0.71903025000006
108,19,4,categorization,0,bathroom,SHINEd_sun_apjevzvycyhuqghb.tif,43,0.05,0.0666666666666667,1.63333333333333,1226.256805291,1226.89161175,9,1226.301959166,1226.362814166,1226.898422416,1228.525143791,0,0.634806458999947
108,20,4,categorization,0,kitchen,SHINEd_sun_admlmbcdswaszruo.tif,79,0.05,0.0666666666666667,1.46666666666667,1228.54011375,1229.565513416,9,1228.590096958,1228.652958375,1229.59284375,1231.052897625,1,1.02539966599988
108,21,4,categorization,0,kitchen,SHINEd_sun_aapllqyqlykszopd.tif,66,0.05,0.0666666666666667,0.933333333333333,1231.070381916,1231.680618666,13,1231.119347916,1231.186467333,1231.7099565,1232.636656333,0,0.610236750000013
108,22,4,categorization,0,kitchen,SHINEd_labelme_kxvouciolcpqplr.tif,62,0.05,0.0666666666666667,1.45,1232.64492125,1233.300028791,9,1232.690830333,1232.751017916,1233.319809583,1234.763222041,1,0.655107541000007
108,23,4,categorization,0,kitchen,SHINEd_sun_aeqdocilnnpuvuhx.tif,83,0.05,0.0666666666666667,0.966666666666667,1234.7798525,1235.417531125,9,1234.830126125,1234.895953416,1235.435907583,1236.395958625,1,0.637678625000035
108,24,4,categorization,0,kitchen,SHINEd_sun_abpwyqmlzafvklqo.tif,72,0.05,0.0666666666666667,0.816666666666667,1236.408493208,1236.979543875,9,1236.453702125,1236.515017916,1236.984050333,1237.794055791,1,0.571050667000009
108,25,4,categorization,0,bathroom,SHINEd_sun_apynckhmoftszqoq.tif,47,0.05,0.0666666666666667,1.96666666666667,1237.798897791,1238.403748916,13,1237.843930791,1237.904864,1238.423560708,1240.383598625,1,0.604851125000096
108,26,4,categorization,0,bathroom,SHINEd_sun_akiytfaagpdsphgz.tif,31,0.05,0.0666666666666667,0.916666666666667,1240.401954041,1241.143138,9,1240.452239541,1240.51841775,1241.156347875,1242.066353208,0,0.741183958999954
108,27,4,categorization,0,bathroom,SHINEd_sun_aljolscmmzydegqp.tif,33,0.05,0.0666666666666667,1.28333333333333,1242.071404,1242.907611041,9,1242.116459791,1242.177441958,1242.912842,1244.189541083,0,0.83620704100008
108,28,4,categorization,0,kitchen,SHINEd_sun_aixorpehvfykdynp.tif,95,0.05,0.0666666666666667,1.8,1244.208212333,1244.964720625,13,1244.258313458,1244.324174958,1244.979743791,1246.773120875,0,0.756508292000035
108,29,4,categorization,0,bathroom,SHINEd_sun_aclfzgynxzxlbepz.tif,19,0.05,0.0666666666666667,1.33333333333333,1246.790894125,1247.518914625,13,1246.840795166,1246.906896375,1247.546575125,1248.873292166,1,0.728020499999957
108,30,4,categorization,0,kitchen,SHINEd_sun_acxkpeoqbwcxfvip.tif,77,0.05,0.0666666666666667,1.06666666666667,1248.890625583,1249.476907458,13,1248.939782291,1249.004317416,1249.493419916,1250.553461291,0,0.586281874999941
108,31,4,categorization,0,bathroom,SHINEd_sun_aleqenyvunhactkl.tif,32,0.05,0.0666666666666667,1.03333333333333,1250.567206166,1251.155827916,13,1250.617293708,1250.674711041,1251.159815791,1252.186524041,1,0.588621749999902
108,32,4,categorization,0,kitchen,SHINEd_sun_awcpdzzznmweyyhv.tif,106,0.05,0.0666666666666667,0.733333333333333,1252.197841416,1252.913806291,9,1252.24603225,1252.312995708,1252.936305375,1253.663028208,1,0.715964874999827
108,33,4,categorization,0,kitchen,SHINEd_sun_amjjdeyrggfqgmom.tif,100,0.05,0.0666666666666667,0.766666666666667,1253.679362875,1254.339648541,13,1253.72910725,1253.795472375,1254.34790625,1255.107911875,0,0.660285666000163
108,34,4,categorization,0,kitchen,SHINEd_sun_aenotlpyftoioydp.tif,82,0.05,0.0666666666666667,1.1,1255.112863208,1255.867594708,9,1255.157988041,1255.218849375,1255.8705185,1256.963892416,1,0.754731500000162
108,35,4,categorization,0,kitchen,SHINEd_sun_abdxkyyxwfskuaqb.tif,70,0.05,0.0666666666666667,1.81666666666667,1256.974767541,1257.827765166,9,1257.022689125,1257.085530166,1257.841188416,1259.651238208,1,0.852997625000171
108,36,4,categorization,0,kitchen,SHINEd_sun_agorklincwxrdtga.tif,87,0.05,0.0666666666666667,0.883333333333333,1259.668965083,1260.265347916,9,1259.719134666,1259.784956541,1260.291266708,1261.167939458,1,0.596382833000007
108,37,4,categorization,0,kitchen,SHINEd_labelme_brsyyvweiuaazfr.tif,61,0.05,0.0666666666666667,1.7,1261.172966166,1262.723221166,13,1261.217928,1261.278966125,1262.731221041,1264.4246095,0,1.55025500000011
108,38,4,categorization,0,kitchen,SHINEd_sun_akchetnepxlcxhsu.tif,98,0.05,0.0666666666666667,1.58333333333333,1264.441642666,1265.151124458,9,1264.492353333,1264.557790458,1265.162462166,1266.739163625,1,0.709481791999906
108,39,4,categorization,0,kitchen,SHINEd_sun_ahywdevtimnqcsln.tif,94,0.05,0.0666666666666667,0.833333333333333,1266.757110666,1267.38964325,9,1266.806913875,1266.873050791,1267.413104541,1268.239819291,1,0.632532584000046
108,40,4,categorization,0,bathroom,SHINEd_sun_acegryoqftbzowsg.tif,17,0.05,0.0666666666666667,0.95,1268.255712,1269.139832833,9,1268.301681166,1268.361762291,1269.146797083,1270.090134166,0,0.884120832999997
108,41,4,categorization,0,bathroom,SHINEd_sun_afcoljnjfoxjtgja.tif,20,0.05,0.0666666666666667,1.06666666666667,1270.095029041,1271.059686041,9,1270.139957,1270.201005291,1271.069784625,1272.129818125,0,0.964656999999988
108,42,4,categorization,0,kitchen,SHINEd_sun_auaiucuqpdausiva.tif,102,0.05,0.0666666666666667,1.68333333333333,1272.138589708,1273.007212166,9,1272.18684125,1272.252654333,1273.025364291,1274.702066375,1,0.868622458000118
108,43,4,categorization,0,bathroom,SHINEd_sun_anryaplzeujmzfkd.tif,39,0.05,0.0666666666666667,1.31666666666667,1274.719614458,1275.4492345,9,1274.769598875,1274.835865166,1275.475854708,1276.785903625,0,0.729620042000079
108,44,4,categorization,0,kitchen,SHINEd_sun_aunzlwrbjumxhwdj.tif,103,0.05,0.0666666666666667,1.61666666666667,1276.803919791,1277.574197916,9,1276.853734708,1276.920485833,1277.5933605,1279.203399125,1,0.770278125000004
108,45,4,categorization,0,kitchen,SHINEd_sun_abdenxonkemggwsq.tif,69,0.05,0.0666666666666667,1.15,1279.220866166,1279.928188541,9,1279.27018675,1279.337194166,1279.942528916,1281.085904416,1,0.707322375000103
108,46,4,categorization,0,kitchen,SHINEd_sun_agubuxuukhzyzpdp.tif,88,0.05,0.0666666666666667,1.25,1281.095713666,1281.688096416,9,1281.143902583,1281.212018083,1281.718364208,1282.961735208,1,0.59238275000007
108,47,4,categorization,0,bathroom,SHINEd_sun_aofnryafpsjimzsb.tif,40,0.05,0.0666666666666667,1.1,1282.979287416,1283.626775625,9,1283.025309666,1283.085376041,1283.637395333,1284.730773,0,0.647488208999903
108,48,4,categorization,0,bathroom,SHINEd_sun_ausgutylgojavyoq.tif,53,0.05,0.0666666666666667,0.9,1284.739989541,1285.520599916,9,1284.787629416,1284.853984958,1285.543893791,1286.437271625,0,0.780610374999924
108,49,4,categorization,0,bathroom,SHINEd_sun_ahaulkltgpkeeemi.tif,26,0.05,0.0666666666666667,1.3,1286.45334175,1287.507171541,9,1286.503187666,1286.569332291,1287.521214458,1288.814594208,0,1.053829791
108,50,4,categorization,0,bathroom,SHINEd_sun_ahqjwnzgolcaoidx.tif,29,0.05,0.0666666666666667,1.25,1288.832363833,1289.603882666,13,1288.882053625,1288.948704625,1289.62136375,1290.864741833,1,0.771518832999845
