sub_num,trial,block,task,is_practice,category,image,texture,duration,mask_dur,jitter,stim_time,time_of_resp,trial_response,mask_time,fix_time,jit_onset,trial_end,trial_accuracy,RT
108,1,24,categorization,0,kitchen,SHINEd_sun_aexklacwqwezaorf.tif,84,0.05,0.0666666666666667,0.733333333333333,3426.917979791,3428.025627625,13,3426.963744166,3427.024583666,3428.042981083,3428.7696535,0,1.10764783400009
108,2,24,categorization,0,bathroom,SHINEd_sun_aqrpegblszgcoujh.tif,48,0.05,0.0666666666666667,1.26666666666667,3428.774976541,3429.298271875,13,3428.82003,3428.881013666,3429.316167375,3430.5761985,1,0.523295334000068
108,3,24,categorization,0,kitchen,SHINEd_sun_abpwyqmlzafvklqo.tif,72,0.05,0.0666666666666667,0.75,3430.593807708,3430.938805958,9,3430.643636875,3430.709781041,3430.965552708,3431.708918166,1,0.344998250000117
108,4,24,categorization,0,bathroom,SHINEd_sun_azqyogdvyhahyram.tif,60,0.05,0.0666666666666667,1.08333333333333,3431.723989,3432.108653875,9,3431.773533833,3431.839971916,3432.129800416,3433.206500583,0,0.384664874999999
108,5,24,categorization,0,kitchen,SHINEd_sun_ajkqhtgcbgpcwrwn.tif,97,0.05,0.0666666666666667,1.28333333333333,3433.216318416,3433.605741041,13,3433.2644505,3433.329817833,3433.618520375,3434.895239541,0,0.389422624999952
108,6,24,categorization,0,kitchen,SHINEd_labelme_kxvouciolcpqplr.tif,62,0.05,0.0666666666666667,0.9,3434.912488083,3435.178129708,13,3434.962453,3435.028497333,3435.197813375,3436.091152666,0,0.265641625000171
108,7,24,categorization,0,bathroom,SHINEd_sun_aofnryafpsjimzsb.tif,40,0.05,0.0666666666666667,1.8,3436.096455333,3436.441354875,13,3436.141343916,3436.202522041,3436.454190208,3438.247564916,1,0.344899541999894
108,8,24,categorization,0,bathroom,SHINEd_sun_asfwthctfqerjvxr.tif,49,0.05,0.0666666666666667,1.06666666666667,3438.268198291,3439.786229458,9,3438.318103,3438.384279416,3439.80362675,3440.863675,0,1.51803116700012
108,9,24,categorization,0,kitchen,SHINEd_labelme_rykdqxenmhulbdn.tif,63,0.05,0.0666666666666667,0.783333333333333,3440.87486975,3441.239433541,9,3440.922718,3440.989266416,3441.262264375,3442.038981625,1,0.36456379099991
108,10,24,categorization,0,bathroom,SHINEd_sun_apjevzvycyhuqghb.tif,43,0.05,0.0666666666666667,0.966666666666667,3442.052944083,3442.450902416,9,3442.102907375,3442.169002875,3442.475407083,3443.435412083,0,0.397958333000133
108,11,24,categorization,0,kitchen,SHINEd_sun_aamedkxepzlwuxes.tif,65,0.05,0.0666666666666667,0.95,3443.441184583,3443.858238041,9,3443.486221166,3443.547146708,3443.8656155,3444.808952916,1,0.417053457999828
108,12,24,categorization,0,kitchen,SHINEd_sun_ahljzhgcdpomplvg.tif,91,0.05,0.0666666666666667,0.966666666666667,3444.816702375,3445.249716083,13,3444.862120083,3444.922662375,3445.257608833,3446.217613791,0,0.433013707999635
108,13,24,categorization,0,kitchen,SHINEd_sun_acxkpeoqbwcxfvip.tif,77,0.05,0.0666666666666667,1.31666666666667,3446.223204166,3446.706349416,9,3446.268141083,3446.329163208,3446.714238958,3448.024271083,1,0.483145250000234
108,14,24,categorization,0,kitchen,SHINEd_sun_akcjzhbbjlbogpdi.tif,99,0.05,0.0666666666666667,0.766666666666667,3448.042088875,3448.333781875,9,3448.091920791,3448.158603875,3448.347640375,3449.107676125,1,0.291693000000123
108,15,24,categorization,0,bathroom,SHINEd_sun_ambriybtogmepttm.tif,36,0.05,0.0666666666666667,1.61666666666667,3449.117536125,3449.549296458,9,3449.165473375,3449.233712458,3449.57399325,3451.18403375,0,0.431760333000057
108,16,24,categorization,0,bathroom,SHINEd_labelme_sfxiulhjbhlyiyt.tif,11,0.05,0.0666666666666667,1.93333333333333,3451.201793583,3451.486483041,13,3451.251736208,3451.317974416,3451.507856541,3453.434559125,1,0.28468945800023
108,17,24,categorization,0,bathroom,SHINEd_sun_acduarbnmmoglmiv.tif,16,0.05,0.0666666666666667,0.733333333333333,3453.449972583,3453.998659666,9,3453.499826791,3453.565959875,3454.021574041,3454.748248208,0,0.548687083000004
108,18,24,categorization,0,bathroom,SHINEd_sun_ahaulkltgpkeeemi.tif,26,0.05,0.0666666666666667,1.63333333333333,3454.754007166,3455.233704458,13,3454.799052625,3454.860304708,3455.245337833,3456.872038041,1,0.479697291999855
108,19,24,categorization,0,bathroom,SHINEd_sun_ausgutylgojavyoq.tif,53,0.05,0.0666666666666667,1.51666666666667,3456.888663083,3457.222847,9,3456.938020791,3457.004708458,3457.2435975,3458.75363825,0,0.334183916999791
108,20,24,categorization,0,kitchen,SHINEd_sun_auticobqsbwgoppi.tif,104,0.05,0.0666666666666667,1.68333333333333,3458.770042125,3459.16250575,9,3458.819940041,3458.886148666,3459.192655208,3460.869363541,1,0.392463624999891
108,21,24,categorization,0,bathroom,SHINEd_sun_ahcvzmoyaycdoftf.tif,27,0.05,0.0666666666666667,1.28333333333333,3460.885911041,3461.406216083,9,3460.935770375,3461.002056083,3461.424290458,3462.700999333,0,0.520305042000018
108,22,24,categorization,0,bathroom,SHINEd_sun_axxbkopsgyouuebh.tif,58,0.05,0.0666666666666667,0.766666666666667,3462.718145916,3463.091250875,13,3462.767698666,3462.834217041,3463.10727225,3463.867315916,1,0.373104958999647
108,23,24,categorization,0,kitchen,SHINEd_sun_agzzivivdpnawacl.tif,89,0.05,0.0666666666666667,1.1,3463.882639375,3464.319107958,13,3463.932631875,3463.998711833,3464.338115916,3465.431502541,0,0.436468583000078
108,24,24,categorization,0,bathroom,SHINEd_sun_avhrdrntsqrjzccq.tif,55,0.05,0.0666666666666667,1.55,3465.44261125,3465.871639666,9,3465.490495583,3465.558598875,3465.898358,3467.441721916,0,0.429028416000165
108,25,24,categorization,0,bathroom,SHINEd_sun_auzqhkafidnkrwmo.tif,54,0.05,0.0666666666666667,1.88333333333333,3467.451554916,3467.914900958,13,3467.501295333,3467.567715375,3467.941130333,3469.817833458,1,0.463346042000012
108,26,24,categorization,0,kitchen,SHINEd_sun_aegoxogugdkwpmpj.tif,80,0.05,0.0666666666666667,1.05,3469.836344791,3470.246951958,9,3469.886218041,3469.95245375,3470.275890166,3471.319277166,1,0.410607166999853
108,27,24,categorization,0,kitchen,SHINEd_sun_ahdycvpopffkzzsu.tif,90,0.05,0.0666666666666667,0.933333333333333,3471.3349565,3471.802041666,13,3471.384584833,3471.451171416,3471.819796625,3472.746467333,0,0.467085166000288
108,28,24,categorization,0,bathroom,SHINEd_sun_agrwbmhcpmfuwmsg.tif,24,0.05,0.0666666666666667,1.4,3472.752063541,3473.305552666,13,3472.797536291,3472.858140083,3473.30993525,3474.703318458,1,0.553489124999942
108,29,24,categorization,0,bathroom,SHINEd_sun_amzlamotzwfkwjco.tif,37,0.05,0.0666666666666667,1.85,3474.71959125,3475.155995291,9,3474.769221541,3474.835992875,3475.175370833,3477.018756666,0,0.43640404100006
108,30,24,categorization,0,kitchen,SHINEd_sun_acfmftudsenhrfhy.tif,74,0.05,0.0666666666666667,1.2,3477.03499025,3477.486156666,13,3477.083325916,3477.151113833,3477.507464666,3478.700848291,0,0.451166415999978
108,31,24,categorization,0,kitchen,SHINEd_sun_ajcbwwvdlsvjyzje.tif,96,0.05,0.0666666666666667,1.33333333333333,3478.717595083,3479.131805,13,3478.767494666,3478.833645958,3479.156223375,3480.482930416,0,0.41420991699988
108,32,24,categorization,0,kitchen,SHINEd_sun_afuyedyxivkhecmu.tif,85,0.05,0.0666666666666667,0.8,3480.501094666,3480.937965583,9,3480.550989333,3480.60880375,3480.944295375,3481.737633125,1,0.436870916999851
108,33,24,categorization,0,kitchen,SHINEd_sun_aymvwlarqodbwuoc.tif,108,0.05,0.0666666666666667,0.7,3481.742508041,3482.274050875,9,3481.787849,3481.848514625,3482.283714291,3482.97705225,1,0.531542833999993
108,34,24,categorization,0,kitchen,SHINEd_sun_aapllqyqlykszopd.tif,66,0.05,0.0666666666666667,1.26666666666667,3482.982357875,3483.465637416,13,3483.02727725,3483.088409208,3483.473532916,3484.733576666,0,0.483279540999774
108,35,24,categorization,0,bathroom,SHINEd_sun_apkxzenqapsujocq.tif,45,0.05,0.0666666666666667,1.98333333333333,3484.74947225,3485.13732575,9,3484.798977,3484.865455958,3485.153826041,3487.130530958,0,0.387853499999892
108,36,24,categorization,0,kitchen,SHINEd_sun_acwjdupvyjsugpay.tif,76,0.05,0.0666666666666667,1.18333333333333,3487.141728291,3487.525204333,13,3487.191687833,3487.257478125,3487.547194666,3488.723905375,0,0.383476041999984
108,37,24,categorization,0,kitchen,SHINEd_sun_abdxkyyxwfskuaqb.tif,70,0.05,0.0666666666666667,0.916666666666667,3488.741139,3489.107441458,9,3488.791080791,3488.85707725,3489.130062833,3490.040094375,1,0.366302457999609
108,38,24,categorization,0,bathroom,SHINEd_sun_alotolagknyrgtsk.tif,35,0.05,0.0666666666666667,1,3490.056022125,3490.487112958,9,3490.105721041,3490.172088625,3490.512089041,3491.505428041,0,0.431090833000326
108,39,24,categorization,0,bathroom,SHINEd_sun_anryaplzeujmzfkd.tif,39,0.05,0.0666666666666667,1.63333333333333,3491.511253416,3491.962076125,9,3491.556209958,3491.6172475,3491.969067416,3493.595782833,0,0.450822709000022
108,40,24,categorization,0,bathroom,SHINEd_sun_aljolscmmzydegqp.tif,33,0.05,0.0666666666666667,1.36666666666667,3493.61417325,3494.141982125,9,3493.663652208,3493.73004025,3494.169937333,3495.5299675,0,0.527808875000119
108,41,24,categorization,0,kitchen,SHINEd_sun_aggjlwcdjsjcaemh.tif,86,0.05,0.0666666666666667,1.1,3495.548178333,3495.918629791,9,3495.597960041,3495.664305291,3495.936924,3497.030298541,1,0.370451457999934
108,42,24,categorization,0,bathroom,SHINEd_sun_ajlawzvmubibwbpy.tif,30,0.05,0.0666666666666667,1.43333333333333,3497.046220958,3497.409647,9,3497.09315925,3497.1624015,3497.414838041,3498.841543416,0,0.363426041999901
108,43,24,categorization,0,kitchen,SHINEd_sun_aqeaevwwwjoqhzvl.tif,101,0.05,0.0666666666666667,0.883333333333333,3498.858697666,3499.355261541,9,3498.908413333,3498.97477625,3499.381979125,3500.258685208,1,0.496563874999993
108,44,24,categorization,0,kitchen,SHINEd_sun_aadbddgrdsjugojn.tif,64,0.05,0.0666666666666667,1.86666666666667,3500.275063083,3500.625810541,9,3500.325173375,3500.391012375,3500.643341791,3502.503388875,1,0.350747458000114
108,45,24,categorization,0,kitchen,SHINEd_sun_aehawpgmrlhlvcow.tif,81,0.05,0.0666666666666667,0.966666666666667,3502.519773125,3502.8673655,13,3502.569548916,3502.636186291,3502.89276425,3503.852769583,0,0.347592374999749
108,46,24,categorization,0,kitchen,SHINEd_sun_aenotlpyftoioydp.tif,82,0.05,0.0666666666666667,1.86666666666667,3503.858664791,3504.257374166,9,3503.903603041,3503.965123541,3504.266955666,3506.12700875,1,0.398709374999726
108,47,24,categorization,0,bathroom,SHINEd_sun_awnqiikzaispgmwo.tif,56,0.05,0.0666666666666667,1.33333333333333,3506.137889041,3506.410497875,9,3506.187766875,3506.253924291,3506.426358291,3507.753066625,0,0.272608834000039
108,48,24,categorization,0,bathroom,SHINEd_sun_abapwbhyhkfixyex.tif,14,0.05,0.0666666666666667,0.766666666666667,3507.769670416,3508.1987795,13,3507.819591541,3507.885987916,3508.225832166,3508.985872541,1,0.429109084000174
108,49,24,categorization,0,bathroom,SHINEd_sun_aclfzgynxzxlbepz.tif,19,0.05,0.0666666666666667,1,3508.998233458,3509.462529708,9,3509.048111958,3509.112813333,3509.485962291,3510.479301541,0,0.464296250000189
108,50,24,categorization,0,kitchen,SHINEd_sun_azmutvzbxypaceni.tif,110,0.05,0.0666666666666667,0.716666666666667,3510.484274958,3510.873924041,13,3510.529246916,3510.590284291,3510.892446916,3511.602452416,0,0.389649083000222
