sub_num,trial,block,task,is_practice,category,image,texture,duration,mask_dur,jitter,stim_time,time_of_resp,trial_response,mask_time,fix_time,jit_onset,trial_end,trial_accuracy,RT
108,1,3,categorization,0,kitchen,SHINEd_sun_azmutvzbxypaceni.tif,110,0.05,0.0666666666666667,0.85,1082.63269925,1083.476189416,13,1082.678622583,1082.738714666,1083.4907795,1084.334117333,0,0.84349016599981
108,2,3,categorization,0,bathroom,SHINEd_sun_axldvoqbuvuggfmq.tif,57,0.05,0.0666666666666667,1.65,1084.33884275,1085.083746375,13,1084.383937958,1084.444831875,1085.096503041,1086.739877791,1,0.744903625000006
108,3,3,categorization,0,bathroom,SHINEd_sun_ambriybtogmepttm.tif,36,0.05,0.0666666666666667,0.783333333333333,1086.756959,1087.682865125,9,1086.806854958,1086.873089583,1087.71365775,1088.490329166,0,0.925906124999983
108,4,3,categorization,0,kitchen,SHINEd_sun_adgqasybjyktddhj.tif,78,0.05,0.0666666666666667,0.933333333333333,1088.496066958,1089.2837565,13,1088.541122583,1088.602078708,1089.287166583,1090.213837333,0,0.787689541999953
108,5,3,categorization,0,bathroom,SHINEd_sun_aghyqhbptboemmoq.tif,23,0.05,0.0666666666666667,0.866666666666667,1090.219559375,1090.8757145,9,1090.264567833,1090.325537958,1090.894574166,1091.7545795,0,0.656155124999941
108,6,3,categorization,0,bathroom,SHINEd_sun_ajlawzvmubibwbpy.tif,30,0.05,0.0666666666666667,1.11666666666667,1091.759361833,1092.412076541,13,1091.804369875,1091.865800666,1092.417782,1093.527829583,1,0.652714708000076
108,7,3,categorization,0,kitchen,SHINEd_sun_aadbddgrdsjugojn.tif,64,0.05,0.0666666666666667,0.966666666666667,1093.538501833,1094.215984208,13,1093.5867595,1093.654789583,1094.244956,1095.205013125,0,0.677482374999954
108,8,3,categorization,0,kitchen,SHINEd_sun_acgtpgfybqjmzeyw.tif,75,0.05,0.0666666666666667,1.78333333333333,1095.221483041,1095.796564833,9,1095.271619583,1095.337398625,1095.806598416,1097.583320041,1,0.575081791999992
108,9,3,categorization,0,bathroom,SHINEd_sun_azqyogdvyhahyram.tif,60,0.05,0.0666666666666667,1.55,1097.601631458,1098.286192541,13,1097.651714208,1097.717979916,1098.307841333,1099.851223833,1,0.684561083000062
108,10,3,categorization,0,kitchen,SHINEd_sun_ahdycvpopffkzzsu.tif,90,0.05,0.0666666666666667,1.41666666666667,1099.870004791,1100.390424708,9,1099.92018525,1099.986172083,1100.408441583,1101.81848375,1,0.520419917000027
108,11,3,categorization,0,bathroom,SHINEd_sun_acgyywnybuveqsro.tif,18,0.05,0.0666666666666667,0.8,1101.836499125,1102.313451791,13,1101.886513583,1101.9528995,1102.3429175,1103.136305125,1,0.476952665999988
108,12,3,categorization,0,kitchen,SHINEd_sun_abrcnpqqhmjwekyf.tif,73,0.05,0.0666666666666667,1.28333333333333,1103.14681475,1103.828009916,13,1103.196928208,1103.262930875,1103.83191775,1105.108617458,0,0.681195165999952
108,13,3,categorization,0,kitchen,SHINEd_sun_abftihopvusyfakt.tif,71,0.05,0.0666666666666667,1.66666666666667,1105.119606708,1105.738287666,9,1105.169666166,1105.235614541,1105.758748791,1107.418793958,1,0.618680957999914
108,14,3,categorization,0,kitchen,SHINEd_sun_afuyedyxivkhecmu.tif,85,0.05,0.0666666666666667,1.81666666666667,1107.436628,1108.054156666,13,1107.486689333,1107.552489625,1108.075850125,1109.885883833,0,0.617528665999998
108,15,3,categorization,0,bathroom,SHINEd_sun_ahijqszoswveeyji.tif,28,0.05,0.0666666666666667,1.35,1109.903874791,1110.469507041,13,1109.954138166,1110.020480166,1110.493628583,1111.837003291,1,0.565632250000135
108,16,3,categorization,0,kitchen,SHINEd_sun_ahspylgoovwmwvgk.tif,93,0.05,0.0666666666666667,0.916666666666667,1111.854971166,1112.40496,13,1111.905036708,1111.970981166,1112.427274083,1113.337308166,0,0.549988834000033
108,17,3,categorization,0,kitchen,SHINEd_sun_aexklacwqwezaorf.tif,84,0.05,0.0666666666666667,0.916666666666667,1113.353688916,1114.084345291,13,1113.403758375,1113.470066958,1114.089327958,1114.999333333,0,0.730656375000081
108,18,3,categorization,0,bathroom,SHINEd_sun_agrwbmhcpmfuwmsg.tif,24,0.05,0.0666666666666667,1.31666666666667,1115.004244916,1115.499858833,9,1115.049259583,1115.110241291,1115.512302875,1116.8223415,0,0.495613916999901
108,19,3,categorization,0,kitchen,SHINEd_sun_aymvwlarqodbwuoc.tif,108,0.05,0.0666666666666667,1.45,1116.838857541,1117.322827,9,1116.888485041,1116.95518875,1117.345314708,1118.788680458,1,0.483969459000036
108,20,3,categorization,0,bathroom,SHINEd_sun_apeeialkgkuxddgh.tif,42,0.05,0.0666666666666667,0.95,1118.8061575,1119.333519875,13,1118.8561675,1118.922459,1119.362038166,1120.305426625,1,0.527362375000166
108,21,3,categorization,0,bathroom,SHINEd_sun_aspsyogrekjtfozg.tif,50,0.05,0.0666666666666667,1.38333333333333,1120.321341541,1120.9404765,13,1120.369549791,1120.43773725,1120.956567916,1122.333286958,1,0.619134958999894
108,22,3,categorization,0,bathroom,SHINEd_sun_agguqiubmwhqqunb.tif,22,0.05,0.0666666666666667,1.16666666666667,1122.349439958,1123.005839416,9,1122.399393958,1122.465754541,1123.02116175,1124.181196833,0,0.656399458000124
108,23,3,categorization,0,bathroom,SHINEd_sun_auzqhkafidnkrwmo.tif,54,0.05,0.0666666666666667,1.61666666666667,1124.196666166,1124.727541333,13,1124.246545208,1124.312750666,1124.75272,1126.362774125,1,0.530875166999976
108,24,3,categorization,0,kitchen,SHINEd_sun_ajcbwwvdlsvjyzje.tif,96,0.05,0.0666666666666667,1.38333333333333,1126.380339375,1127.008151791,9,1126.43145425,1126.49633325,1127.035967958,1128.412673958,1,0.627812416000097
108,25,3,categorization,0,bathroom,SHINEd_sun_amzlamotzwfkwjco.tif,37,0.05,0.0666666666666667,1.78333333333333,1128.430325041,1128.912275958,13,1128.480308791,1128.54647625,1128.936624916,1130.713345958,1,0.481950916999949
108,26,3,categorization,0,bathroom,SHINEd_sun_aoybiabnpadelefl.tif,41,0.05,0.0666666666666667,0.783333333333333,1130.730158958,1131.175295375,9,1130.779849958,1130.846654208,1131.20245725,1131.979176125,0,0.445136416999958
108,27,3,categorization,0,kitchen,SHINEd_sun_aarfiyshqohlwkmo.tif,67,0.05,0.0666666666666667,1.65,1131.996833708,1133.435371166,9,1132.046710083,1132.1128195,1133.449199083,1135.092553333,1,1.43853745800016
108,28,3,categorization,0,bathroom,SHINEd_sun_anhioqovhscjqqwb.tif,38,0.05,0.0666666666666667,1.86666666666667,1135.10258625,1136.167076916,13,1135.153705291,1135.219169416,1136.192398,1138.052433416,1,1.06449066599998
108,29,3,categorization,0,kitchen,SHINEd_sun_acwjdupvyjsugpay.tif,76,0.05,0.0666666666666667,1.23333333333333,1138.068571125,1139.28707275,9,1138.119911,1138.184716375,1139.30695425,1140.533676375,1,1.21850162500004
108,30,3,categorization,0,bathroom,SHINEd_sun_aqrpegblszgcoujh.tif,48,0.05,0.0666666666666667,0.7,1140.551205833,1141.524865416,13,1140.601575791,1140.667448541,1141.540374333,1142.233749,1,0.973659582999971
108,31,3,categorization,0,bathroom,SHINEd_sun_abjtwfukuwddzted.tif,15,0.05,0.0666666666666667,0.716666666666667,1142.248036208,1143.13250825,13,1142.298769583,1142.35622775,1143.141397,1143.851402166,1,0.88447204199997
108,32,3,categorization,0,bathroom,SHINEd_sun_apkruvsevgegsdwp.tif,44,0.05,0.0666666666666667,1.05,1143.857126125,1144.611608,13,1143.902249416,1143.963093208,1144.614707958,1145.6580825,1,0.75448187500001
108,33,3,categorization,0,bathroom,SHINEd_sun_acduarbnmmoglmiv.tif,16,0.05,0.0666666666666667,1.1,1145.669621583,1146.42479925,13,1145.718446916,1145.784748333,1146.43925225,1147.532626125,1,0.755177666999998
108,34,3,categorization,0,bathroom,SHINEd_sun_apkxzenqapsujocq.tif,45,0.05,0.0666666666666667,1.13333333333333,1147.549021583,1148.299387708,13,1147.599014333,1147.665510958,1148.317899541,1149.444608333,1,0.750366125000028
108,35,3,categorization,0,kitchen,SHINEd_sun_acfmftudsenhrfhy.tif,74,0.05,0.0666666666666667,1.38333333333333,1149.454952541,1150.317529791,9,1149.503072458,1149.571148541,1150.344109416,1151.720822041,1,0.862577249999958
108,36,3,categorization,0,bathroom,SHINEd_sun_aggnnqpdorgxpvce.tif,21,0.05,0.0666666666666667,1.5,1151.73941625,1152.437701041,9,1151.789440666,1151.855436541,1152.462078833,1153.955441083,0,0.698284791000106
108,37,3,categorization,0,bathroom,SHINEd_sun_atstyziqcmkahyxk.tif,51,0.05,0.0666666666666667,1.61666666666667,1153.972972416,1154.619679208,9,1154.022822416,1154.089229458,1154.644856041,1156.254894083,0,0.646706792000032
108,38,3,categorization,0,bathroom,SHINEd_sun_aapitsgbtktqubfy.tif,12,0.05,0.0666666666666667,0.983333333333333,1156.272416291,1156.797965416,13,1156.322323875,1156.388809416,1156.810791625,1157.787514666,1,0.525549124999998
108,39,3,categorization,0,bathroom,SHINEd_sun_awnqiikzaispgmwo.tif,56,0.05,0.0666666666666667,1.3,1157.804015875,1158.411945125,13,1157.849973,1157.909955666,1158.428680666,1159.722049625,1,0.607929250000097
108,40,3,categorization,0,bathroom,SHINEd_sun_axxbkopsgyouuebh.tif,58,0.05,0.0666666666666667,1.03333333333333,1159.739069291,1160.195127208,9,1159.789239916,1159.85502,1160.21107525,1161.237779041,0,0.456057916999953
108,41,3,categorization,0,kitchen,SHINEd_sun_ahpczsiumwwocjkv.tif,92,0.05,0.0666666666666667,1.45,1161.25373975,1162.043763291,9,1161.304301,1161.370001041,1162.055733291,1163.49911025,1,0.790023540999982
108,42,3,categorization,0,kitchen,SHINEd_sun_aegoxogugdkwpmpj.tif,80,0.05,0.0666666666666667,1.23333333333333,1163.515739291,1164.277464125,9,1163.565743083,1163.63222175,1164.305581958,1165.532284166,1,0.761724834000006
108,43,3,categorization,0,kitchen,SHINEd_sun_avszsnwsbuqfgzbn.tif,105,0.05,0.0666666666666667,1.26666666666667,1165.5475915,1166.315108666,13,1165.597492083,1165.6641255,1166.337237666,1167.597278041,0,0.767517166000061
108,44,3,categorization,0,kitchen,SHINEd_sun_axyyrmzcupyhlivc.tif,107,0.05,0.0666666666666667,1.03333333333333,1167.615739416,1168.161292166,13,1167.665953541,1167.732017375,1168.188812333,1169.215510833,0,0.54555275000007
108,45,3,categorization,0,bathroom,SHINEd_sun_axyrejkiiaqiurjk.tif,59,0.05,0.0666666666666667,1.31666666666667,1169.231507583,1169.883456833,13,1169.281753458,1169.347885375,1169.900539166,1171.21058525,1,0.651949250000143
108,46,3,categorization,0,bathroom,SHINEd_labelme_sfxiulhjbhlyiyt.tif,11,0.05,0.0666666666666667,1.7,1171.229954,1171.897843791,13,1171.279968625,1171.34617625,1171.919352625,1173.612718125,1,0.667889791000107
108,47,3,categorization,0,kitchen,SHINEd_sun_auticobqsbwgoppi.tif,104,0.05,0.0666666666666667,1.35,1173.630487666,1174.387677375,9,1173.680684583,1173.746915291,1174.403646916,1175.747036125,1,0.757189709000158
108,48,3,categorization,0,kitchen,SHINEd_sun_aamedkxepzlwuxes.tif,65,0.05,0.0666666666666667,0.8,1175.766342083,1176.420966291,9,1175.817508083,1175.882987458,1176.440241833,1177.233618125,1,0.654624208000087
108,49,3,categorization,0,bathroom,SHINEd_sun_aavhrsfjbserjtht.tif,13,0.05,0.0666666666666667,0.766666666666667,1177.251257,1178.099277416,9,1177.300265458,1177.368434333,1178.103990458,1178.8639965,0,0.848020416000054
108,50,3,categorization,0,kitchen,SHINEd_sun_aypmqwcualkenuoe.tif,109,0.05,0.0666666666666667,1.38333333333333,1178.868954125,1180.100192625,9,1178.913894958,1178.974923041,1180.110686875,1181.48739825,1,1.23123850000002
