sub_num,trial,block,task,is_practice,category,image,texture,duration,mask_dur,jitter,stim_time,time_of_resp,trial_response,mask_time,fix_time,jit_onset,trial_end,trial_accuracy,RT
139,1,0,typicality,1,bathroom,bathroom_practice2.tif,222,1.5,0,1.48333333333333,735.423200208,744.741092833,5,NaN,744.764157291,744.7848385,746.261707708,NaN,NaN
139,2,0,typicality,1,bathroom,bathroom_practice4.tif,224,1.5,0,0.75,746.329267125,751.9892225,6,NaN,751.999147916,752.018099583,752.761447541,NaN,NaN
139,3,0,typicality,1,bathroom,bathroom_practice1.tif,221,1.5,0,1.93333333333333,752.769037666,757.702084625,2,NaN,757.7092925,757.72810125,759.654931875,NaN,NaN
139,4,0,typicality,1,bathroom,bathroom_practice5.tif,225,1.5,0,0.983333333333333,759.685116583,763.605332291,1,NaN,763.612927916,763.631724041,764.608407041,NaN,NaN
139,5,0,typicality,1,bathroom,bathroom_practice3.tif,223,1.5,0,0.883333333333333,764.618559541,769.773762583,3,NaN,769.783965083,769.803318708,770.68006125,NaN,NaN
139,1,1,typicality,0,bathroom,sun_aapitsgbtktqubfy.tif,122,1.5,0,0.866666666666667,778.965097208,785.878023666,6,NaN,785.884780583,785.903411708,786.763429166,NaN,NaN
139,2,1,typicality,0,bathroom,sun_aleqenyvunhactkl.tif,142,1.5,0,1.03333333333333,786.768880166,790.197880666,2,NaN,790.203770791,790.222142,791.248859375,NaN,NaN
139,3,1,typicality,0,bathroom,sun_ajlawzvmubibwbpy.tif,140,1.5,0,0.866666666666667,791.257834583,796.021313458,4,NaN,796.027094875,796.0454175,796.905423708,NaN,NaN
139,4,1,typicality,0,bathroom,sun_alkosphxlxwjwgjd.tif,144,1.5,0,1.61666666666667,796.910319666,800.100964625,6,NaN,800.107892,800.126265833,801.736313125,NaN,NaN
139,5,1,typicality,0,bathroom,sun_anhioqovhscjqqwb.tif,148,1.5,0,0.883333333333333,801.753630208,804.659590166,1,NaN,804.689360083,804.710944208,805.587614791,NaN,NaN
139,6,1,typicality,0,bathroom,sun_alotolagknyrgtsk.tif,145,1.5,0,0.933333333333333,805.592123333,808.28081625,1,NaN,808.308335083,808.331726625,809.258398166,NaN,NaN
139,7,1,typicality,0,bathroom,sun_aghyqhbptboemmoq.tif,133,1.5,0,1.5,809.263142916,818.821156166,3,NaN,818.827021916,818.845346833,820.338732708,NaN,NaN
139,8,1,typicality,0,bathroom,sun_asfwthctfqerjvxr.tif,159,1.5,0,1.36666666666667,820.354679541,825.853771666,5,NaN,825.859545208,825.877829125,827.23787025,NaN,NaN
139,9,1,typicality,0,bathroom,sun_agyqfjcfkdcydepw.tif,135,1.5,0,0.85,827.254986958,830.125767166,2,NaN,830.131453125,830.149817583,830.99315625,NaN,NaN
139,10,1,typicality,0,bathroom,sun_apeeialkgkuxddgh.tif,152,1.5,0,1.81666666666667,830.997488625,833.965825583,6,NaN,833.996374708,834.021136041,835.83117875,NaN,NaN
139,11,1,typicality,0,bathroom,sun_acegryoqftbzowsg.tif,127,1.5,0,1.28333333333333,835.850705875,839.637194583,7,NaN,839.642856083,839.661212,840.937927708,NaN,NaN
139,12,1,typicality,0,bathroom,sun_anryaplzeujmzfkd.tif,149,1.5,0,1.23333333333333,840.954412083,847.341007041,2,NaN,847.347039958,847.365449291,848.592163166,NaN,NaN
139,13,1,typicality,0,bathroom,sun_amzlamotzwfkwjco.tif,147,1.5,0,0.883333333333333,848.61017625,851.389054708,1,NaN,851.394814791,851.413175125,852.289845791,NaN,NaN
139,14,1,typicality,0,bathroom,sun_afcoljnjfoxjtgja.tif,130,1.5,0,0.866666666666667,852.29445125,856.101027958,5,NaN,856.106903166,856.125229125,856.985235125,NaN,NaN
139,15,1,typicality,0,bathroom,sun_aclfzgynxzxlbepz.tif,129,1.5,0,1.36666666666667,856.989753,861.181301,4,NaN,861.186975875,861.20525575,862.565298083,NaN,NaN
139,16,1,typicality,0,bathroom,sun_acduarbnmmoglmiv.tif,126,1.5,0,1.05,862.576248208,867.669011041,5,NaN,867.674864958,867.69312125,868.736505583,NaN,NaN
139,17,1,typicality,0,bathroom,sun_auzqhkafidnkrwmo.tif,164,1.5,0,1.21666666666667,868.75055025,872.133821875,5,NaN,872.139334916,872.157672375,873.367728958,NaN,NaN
139,18,1,typicality,0,bathroom,sun_aofnryafpsjimzsb.tif,150,1.5,0,0.816666666666667,873.386622291,877.204978416,3,NaN,877.210763375,877.229091958,878.039096875,NaN,NaN
139,19,1,typicality,0,bathroom,sun_apmqjbnwghzuhhzh.tif,156,1.5,0,1,878.043801875,882.341582083,2,NaN,882.348526375,882.366870833,883.360209375,NaN,NaN
139,20,1,typicality,0,bathroom,sun_abjtwfukuwddzted.tif,125,1.5,0,1.21666666666667,883.365008916,887.069000208,2,NaN,887.074822458,887.093197,888.30324575,NaN,NaN
139,21,1,typicality,0,bathroom,sun_awnqiikzaispgmwo.tif,166,1.5,0,1.46666666666667,888.320181083,891.517202875,2,NaN,891.522729375,891.540927541,893.000986916,NaN,NaN
139,22,1,typicality,0,bathroom,sun_aljolscmmzydegqp.tif,143,1.5,0,1.4,893.017632583,896.557548,1,NaN,896.5631245,896.5813895,897.974782166,NaN,NaN
139,23,1,typicality,0,bathroom,sun_abapwbhyhkfixyex.tif,124,1.5,0,0.783333333333333,897.989307958,901.245414,3,NaN,901.251021541,901.269150833,902.045823708,NaN,NaN
139,24,1,typicality,0,bathroom,labelme_sfxiulhjbhlyiyt.tif,121,1.5,0,1.21666666666667,902.050844208,906.2846055,5,NaN,906.29050475,906.308764333,907.518791208,NaN,NaN
139,25,1,typicality,0,bathroom,sun_axldvoqbuvuggfmq.tif,167,1.5,0,1.35,907.528308166,910.844834666,4,NaN,910.85060175,910.868847666,912.212215583,NaN,NaN
139,1,2,typicality,0,bathroom,sun_aoybiabnpadelefl.tif,151,1.5,0,1.65,918.339326625,921.7412505,1,NaN,921.746824958,921.765257166,923.408635375,NaN,NaN
139,2,2,typicality,0,bathroom,sun_apkruvsevgegsdwp.tif,154,1.5,0,1.01666666666667,923.422861291,927.453201666,5,NaN,927.458808083,927.477230791,928.487270291,NaN,NaN
139,3,2,typicality,0,bathroom,sun_ahijqszoswveeyji.tif,138,1.5,0,1.58333333333333,928.500305208,931.565331541,3,NaN,931.570883458,931.589305,933.166005916,NaN,NaN
139,4,2,typicality,0,bathroom,sun_aunuadmjocsddsrl.tif,162,1.5,0,0.7,933.183825125,936.4330065,4,NaN,936.462283375,936.485459583,937.1787985,NaN,NaN
139,5,2,typicality,0,bathroom,sun_apkxzenqapsujocq.tif,155,1.5,0,1.23333333333333,937.184054541,940.452597333,6,NaN,940.4586975,940.477107875,941.703820791,NaN,NaN
139,6,2,typicality,0,bathroom,sun_akiytfaagpdsphgz.tif,141,1.5,0,0.816666666666667,941.721300666,945.213606916,3,NaN,945.219268791,945.237517708,946.047524208,NaN,NaN
139,7,2,typicality,0,bathroom,sun_agrwbmhcpmfuwmsg.tif,134,1.5,0,0.733333333333333,946.05196075,949.837182916,5,NaN,949.842757916,949.861122375,950.587793083,NaN,NaN
139,8,2,typicality,0,bathroom,sun_agguqiubmwhqqunb.tif,132,1.5,0,1.15,950.59214,955.084748416,5,NaN,955.090506375,955.108844791,956.252235541,NaN,NaN
139,9,2,typicality,0,bathroom,sun_axyrejkiiaqiurjk.tif,169,1.5,0,0.933333333333333,956.260653958,960.629128,4,NaN,960.634676083,960.652866916,961.579538208,NaN,NaN
139,10,2,typicality,0,bathroom,sun_aavhrsfjbserjtht.tif,123,1.5,0,0.916666666666667,961.58418575,965.589448875,5,NaN,965.594995541,965.613370166,966.523376083,NaN,NaN
139,11,2,typicality,0,bathroom,sun_avhrdrntsqrjzccq.tif,165,1.5,0,1.26666666666667,966.527858125,969.7883705,4,NaN,969.794457416,969.812835,971.072888333,NaN,NaN
139,12,2,typicality,0,bathroom,sun_aqrpegblszgcoujh.tif,158,1.5,0,0.933333333333333,971.08738925,974.428839375,5,NaN,974.434516458,974.452629958,975.379301458,NaN,NaN
139,13,2,typicality,0,bathroom,sun_ambriybtogmepttm.tif,146,1.5,0,1,975.384210333,979.469054416,3,NaN,979.4746135,979.492802958,980.4861425,NaN,NaN
139,14,2,typicality,0,bathroom,sun_acgyywnybuveqsro.tif,128,1.5,0,1,980.491513583,983.52469575,1,NaN,983.548596958,983.568513416,984.561853416,NaN,NaN
139,15,2,typicality,0,bathroom,sun_aggnnqpdorgxpvce.tif,131,1.5,0,1.21666666666667,984.567029166,987.805485791,5,NaN,987.811854791,987.830130208,989.040182083,NaN,NaN
139,16,2,typicality,0,bathroom,sun_apjevzvycyhuqghb.tif,153,1.5,0,1.85,989.055472208,992.23720275,1,NaN,992.242719708,992.261097166,994.104480708,NaN,NaN
139,17,2,typicality,0,bathroom,sun_aspsyogrekjtfozg.tif,160,1.5,0,0.766666666666667,994.121368541,997.436695333,2,NaN,997.443080833,997.461426291,998.221430666,NaN,NaN
139,18,2,typicality,0,bathroom,sun_axxbkopsgyouuebh.tif,168,1.5,0,0.966666666666667,998.232276333,1002.740487583,3,NaN,1002.746301875,1002.764643458,1003.72465,NaN,NaN
139,19,2,typicality,0,bathroom,sun_ahaulkltgpkeeemi.tif,136,1.5,0,1.4,1003.729293875,1009.948784375,6,NaN,1009.954583916,1009.972932916,1011.366304958,NaN,NaN
139,20,2,typicality,0,bathroom,sun_apynckhmoftszqoq.tif,157,1.5,0,0.933333333333333,1011.387124166,1014.917599,1,NaN,1014.923290166,1014.941591541,1015.868263666,NaN,NaN
139,21,2,typicality,0,bathroom,sun_ahqjwnzgolcaoidx.tif,139,1.5,0,1.7,1015.873062041,1021.621265083,4,NaN,1021.627179291,1021.64568075,1023.339052833,NaN,NaN
139,22,2,typicality,0,bathroom,sun_ahcvzmoyaycdoftf.tif,137,1.5,0,0.916666666666667,1023.356535458,1026.762289583,7,NaN,1026.787952458,1026.811342,1027.721346791,NaN,NaN
139,23,2,typicality,0,bathroom,sun_ausgutylgojavyoq.tif,163,1.5,0,0.833333333333333,1027.72626925,1030.989212583,2,NaN,1030.997091333,1031.016035166,1031.842706333,NaN,NaN
139,24,2,typicality,0,bathroom,sun_azqyogdvyhahyram.tif,170,1.5,0,0.783333333333333,1031.847365875,1036.172603541,5,NaN,1036.178615708,1036.196901625,1036.97357175,NaN,NaN
139,25,2,typicality,0,bathroom,sun_atstyziqcmkahyxk.tif,161,1.5,0,1.4,1036.978084458,1040.476698541,6,NaN,1040.483041166,1040.501214375,1041.894601,NaN,NaN
