sub_num,trial,block,task,is_practice,category,image,texture,duration,mask_dur,jitter,stim_time,time_of_resp,trial_response,mask_time,fix_time,jit_onset,trial_end,trial_accuracy,RT
121,1,5,categorization,0,kitchen,SHINEd_sun_abdxkyyxwfskuaqb.tif,70,0.0666666666666667,0.0666666666666667,1.7,23378.7517,23379.558202167,9,23378.813561958,23378.874778208,23379.576842167,23381.270216292,1,0.806502167000872
121,2,5,categorization,0,kitchen,SHINEd_sun_agzzivivdpnawacl.tif,89,0.0666666666666667,0.0666666666666667,1.81666666666667,23381.288204375,23382.421999,9,23381.356574042,23381.420844792,23382.444408208,23384.254447708,1,1.1337946249987
121,3,5,categorization,0,bathroom,SHINEd_labelme_sfxiulhjbhlyiyt.tif,11,0.0666666666666667,0.0666666666666667,1.23333333333333,23384.2640405,23385.01505425,13,23384.329952958,23384.396893167,23385.036603292,23386.263298958,1,0.75101375000304
121,4,5,categorization,0,kitchen,SHINEd_sun_aehawpgmrlhlvcow.tif,81,0.0666666666666667,0.0666666666666667,1.4,23386.274640667,23387.671756708,13,23386.342999208,23386.407705375,23387.699888375,23389.093273917,0,1.39711604100012
121,5,5,categorization,0,kitchen,SHINEd_sun_aypmqwcualkenuoe.tif,109,0.0666666666666667,0.0666666666666667,1.03333333333333,23389.112883,23389.7697305,13,23389.179803625,23389.245978458,23389.785018,23390.811692417,0,0.656847499998548
121,6,5,categorization,0,kitchen,SHINEd_sun_auticobqsbwgoppi.tif,104,0.0666666666666667,0.0666666666666667,1.38333333333333,23390.823320542,23391.731293708,13,23390.887903667,23390.955332,23391.761830417,23393.138537792,0,0.907973165998555
121,7,5,categorization,0,kitchen,SHINEd_sun_awcpdzzznmweyyhv.tif,106,0.0666666666666667,0.0666666666666667,2,23393.154854375,23393.769384708,13,23393.221489667,23393.287491792,23393.793873125,23395.787259167,0,0.614530333001312
121,8,5,categorization,0,kitchen,SHINEd_sun_aadbddgrdsjugojn.tif,64,0.0666666666666667,0.0666666666666667,1.85,23395.803294167,23396.613802625,13,23395.870119417,23395.935879958,23396.642472667,23398.485861875,0,0.810508458002005
121,9,5,categorization,0,bathroom,SHINEd_sun_agguqiubmwhqqunb.tif,22,0.0666666666666667,0.0666666666666667,0.816666666666667,23398.502358208,23399.068239375,13,23398.569222917,23398.635210292,23399.091848875,23399.901853417,1,0.565881167000043
121,10,5,categorization,0,kitchen,SHINEd_sun_aunzlwrbjumxhwdj.tif,103,0.0666666666666667,0.0666666666666667,1.85,23399.907013125,23400.758118458,9,23399.968807417,23400.029792375,23400.764991667,23402.608376625,1,0.851105333000305
121,11,5,categorization,0,kitchen,SHINEd_sun_auaiucuqpdausiva.tif,102,0.0666666666666667,0.0666666666666667,0.733333333333333,23402.631028708,23403.9503005,13,23402.697789542,23402.764174625,23403.967093375,23404.693765458,0,1.3192717919992
121,12,5,categorization,0,bathroom,SHINEd_sun_aoybiabnpadelefl.tif,41,0.0666666666666667,0.0666666666666667,0.716666666666667,23404.69862425,23405.373757542,9,23404.760477167,23404.821641833,23405.390409458,23406.100414167,0,0.675133291999373
121,13,5,categorization,0,kitchen,SHINEd_labelme_kxvouciolcpqplr.tif,62,0.0666666666666667,0.0666666666666667,0.833333333333333,23406.105331667,23407.109836417,9,23406.167143375,23406.228412542,23407.1140495,23407.9407215,1,1.00450474999889
121,14,5,categorization,0,bathroom,SHINEd_sun_aghyqhbptboemmoq.tif,23,0.0666666666666667,0.0666666666666667,0.95,23407.945644708,23408.790444875,13,23408.007295208,23408.068316292,23408.803609333,23409.7469475,1,0.844800167000358
121,15,5,categorization,0,kitchen,SHINEd_sun_acxkpeoqbwcxfvip.tif,77,0.0666666666666667,0.0666666666666667,1.96666666666667,23409.752319375,23410.670037333,9,23409.814113958,23409.875013208,23410.676920917,23412.63697525,1,0.917717958000139
121,16,5,categorization,0,kitchen,SHINEd_sun_aamedkxepzlwuxes.tif,65,0.0666666666666667,0.0666666666666667,1.86666666666667,23412.654376458,23413.75066475,9,23412.721053917,23412.787792417,23413.756938625,23415.616996208,1,1.09628829200301
121,17,5,categorization,0,bathroom,SHINEd_sun_awnqiikzaispgmwo.tif,56,0.0666666666666667,0.0666666666666667,1.51666666666667,23415.634569958,23416.406436167,9,23415.701305625,23415.7675965,23416.423578375,23417.9336305,0,0.77186620899738
121,18,5,categorization,0,kitchen,SHINEd_labelme_rykdqxenmhulbdn.tif,63,0.0666666666666667,0.0666666666666667,1.3,23417.950568583,23419.646302875,9,23418.017439625,23418.083309792,23419.652790042,23420.946157542,1,1.69573429199954
121,19,5,categorization,0,bathroom,SHINEd_sun_agrwbmhcpmfuwmsg.tif,24,0.0666666666666667,0.0666666666666667,1.91666666666667,23420.963323958,23422.155009833,9,23421.029640875,23421.09601675,23422.168304083,23424.078357125,0,1.19168587500099
121,20,5,categorization,0,kitchen,SHINEd_sun_abpwyqmlzafvklqo.tif,72,0.0666666666666667,0.0666666666666667,1.23333333333333,23424.096656833,23424.855945833,9,23424.163480208,23424.228068167,23424.884572125,23426.111284125,1,0.759288999997807
121,21,5,categorization,0,bathroom,SHINEd_sun_afcoljnjfoxjtgja.tif,20,0.0666666666666667,0.0666666666666667,0.866666666666667,23426.129846792,23432.645927958,9,23426.195704833,23426.260618708,23432.663477958,23433.5234835,0,6.51608116600255
121,22,5,categorization,0,kitchen,SHINEd_sun_abdenxonkemggwsq.tif,69,0.0666666666666667,0.0666666666666667,0.8,23433.52797225,23435.08648525,13,23433.589582708,23433.65082875,23435.103438083,23435.896775417,0,1.55851299999995
121,23,5,categorization,0,kitchen,SHINEd_sun_acfmftudsenhrfhy.tif,74,0.0666666666666667,0.0666666666666667,1.51666666666667,23435.901863625,23437.022574042,13,23435.963725917,23436.024674417,23437.026995208,23438.537036667,0,1.12071041699892
121,24,5,categorization,0,kitchen,SHINEd_sun_akchetnepxlcxhsu.tif,98,0.0666666666666667,0.0666666666666667,1.18333333333333,23438.552814083,23439.219644875,13,23438.620565125,23438.68576375,23439.242085833,23440.418808875,0,0.666830792000837
121,25,5,categorization,0,bathroom,SHINEd_sun_apmqjbnwghzuhhzh.tif,46,0.0666666666666667,0.0666666666666667,1.6,23440.428774708,23441.294768792,9,23440.4958155,23440.561477667,23441.317905125,23442.911292958,0,0.865994083997066
121,26,5,categorization,0,bathroom,SHINEd_sun_aunuadmjocsddsrl.tif,52,0.0666666666666667,0.0666666666666667,1.56666666666667,23442.929921208,23443.126462833,13,23442.996611917,23443.063080083,23443.152608333,23444.712663,1,0.196541624998645
121,27,5,categorization,0,bathroom,SHINEd_sun_ambriybtogmepttm.tif,36,0.0666666666666667,0.0666666666666667,1.36666666666667,23444.730114792,23445.85181775,9,23444.796976083,23444.863060208,23445.8693695,23447.229431667,0,1.12170295800024
121,28,5,categorization,0,bathroom,SHINEd_sun_aljolscmmzydegqp.tif,33,0.0666666666666667,0.0666666666666667,1.53333333333333,23447.247406458,23447.890101083,13,23447.314046542,23447.380433375,23447.920301958,23449.447024792,1,0.64269462500306
121,29,5,categorization,0,kitchen,SHINEd_sun_abrcnpqqhmjwekyf.tif,73,0.0666666666666667,0.0666666666666667,1.4,23449.465252167,23450.729536375,9,23449.53207725,23449.598109333,23450.756695875,23452.1500665,1,1.26428420800221
121,30,5,categorization,0,kitchen,SHINEd_sun_aymvwlarqodbwuoc.tif,108,0.0666666666666667,0.0666666666666667,1.06666666666667,23452.166800917,23452.82417625,13,23452.232231333,23452.294960542,23452.851428208,23453.911475125,0,0.657375333001255
121,31,5,categorization,0,bathroom,SHINEd_sun_anryaplzeujmzfkd.tif,39,0.0666666666666667,0.0666666666666667,1.63333333333333,23453.921016833,23454.528711042,9,23453.9867845,23454.053952708,23454.542980042,23456.169680542,0,0.607694209000329
121,32,5,categorization,0,kitchen,SHINEd_sun_azmutvzbxypaceni.tif,110,0.0666666666666667,0.0666666666666667,1.8,23456.187717125,23456.668169958,13,23456.252713375,23456.320098625,23456.693071792,23458.486456167,0,0.480452832998708
121,33,5,categorization,0,bathroom,SHINEd_sun_azqyogdvyhahyram.tif,60,0.0666666666666667,0.0666666666666667,1.53333333333333,23458.50467975,23459.120435958,9,23458.571461917,23458.637664292,23459.1434395,23460.670142833,0,0.615756208000676
121,34,5,categorization,0,kitchen,SHINEd_sun_acgtpgfybqjmzeyw.tif,75,0.0666666666666667,0.0666666666666667,0.766666666666667,23460.686360417,23460.969602542,13,23460.753234417,23460.819152167,23460.992370833,23461.752420125,0,0.283242125002289
121,35,5,categorization,0,kitchen,SHINEd_sun_axyyrmzcupyhlivc.tif,107,0.0666666666666667,0.0666666666666667,1.86666666666667,23461.766455167,23461.992482208,9,23461.833399333,23461.899371458,23462.004659208,23463.864702417,1,0.226027041000634
121,36,5,categorization,0,bathroom,SHINEd_sun_auzqhkafidnkrwmo.tif,54,0.0666666666666667,0.0666666666666667,1.13333333333333,23463.882982792,23465.08547625,9,23463.949657542,23464.015880917,23465.101999917,23466.228701833,0,1.20249345799675
121,37,5,categorization,0,bathroom,SHINEd_sun_abapwbhyhkfixyex.tif,14,0.0666666666666667,0.0666666666666667,1.73333333333333,23466.237401417,23467.058076333,9,23466.301838833,23466.370380167,23467.076311125,23468.803034,0,0.820674916001735
121,38,5,categorization,0,bathroom,SHINEd_sun_abjtwfukuwddzted.tif,15,0.0666666666666667,0.0666666666666667,0.766666666666667,23468.817331167,23469.49075675,13,23468.884297125,23468.949968167,23469.505797667,23470.2658145,1,0.673425583001517
121,39,5,categorization,0,kitchen,SHINEd_sun_ahdycvpopffkzzsu.tif,90,0.0666666666666667,0.0666666666666667,1.85,23470.277755833,23471.10208275,9,23470.34392225,23470.401940208,23471.12076,23472.964137042,1,0.824326916997961
121,40,5,categorization,0,kitchen,SHINEd_sun_ahspylgoovwmwvgk.tif,93,0.0666666666666667,0.0666666666666667,0.966666666666667,23472.982420917,23474.248074042,9,23473.049278083,23473.11545725,23474.268592125,23475.228595875,1,1.26565312499952
121,41,5,categorization,0,kitchen,SHINEd_sun_ajkqhtgcbgpcwrwn.tif,97,0.0666666666666667,0.0666666666666667,1.06666666666667,23475.233373542,23475.973541333,13,23475.295185125,23475.356217458,23475.991831375,23477.051882625,0,0.740167791002023
121,42,5,categorization,0,bathroom,SHINEd_sun_aapitsgbtktqubfy.tif,12,0.0666666666666667,0.0666666666666667,1.38333333333333,23477.063213292,23477.738802333,13,23477.12862,23477.194381833,23477.7674645,23479.14417675,1,0.675589040998602
121,43,5,categorization,0,kitchen,SHINEd_sun_aeqdocilnnpuvuhx.tif,83,0.0666666666666667,0.0666666666666667,0.766666666666667,23479.164294125,23479.883084375,13,23479.23096875,23479.297323917,23479.90378675,23480.663841083,0,0.718790250000893
121,44,5,categorization,0,bathroom,SHINEd_sun_amzlamotzwfkwjco.tif,37,0.0666666666666667,0.0666666666666667,0.866666666666667,23480.680045583,23481.758453333,9,23480.7466575,23480.812835208,23481.764879667,23482.624883417,0,1.07840774999931
121,45,5,categorization,0,bathroom,SHINEd_sun_avhrdrntsqrjzccq.tif,55,0.0666666666666667,0.0666666666666667,1.25,23482.629728375,23483.3184355,9,23482.691490083,23482.752576875,23483.338201333,23484.581564917,0,0.688707125002111
121,46,5,categorization,0,bathroom,SHINEd_sun_atstyziqcmkahyxk.tif,51,0.0666666666666667,0.0666666666666667,1.03333333333333,23484.599425458,23484.719912083,9,23484.666186333,23484.733442417,23484.756946667,23485.783660542,0,0.120486625000922
121,47,5,categorization,0,kitchen,SHINEd_sun_aaxxjlsuzvqlgylf.tif,68,0.0666666666666667,0.0666666666666667,0.783333333333333,23485.798109625,23486.861813708,9,23485.864614542,23485.931176417,23486.866871667,23487.643541417,1,1.06370408300063
121,48,5,categorization,0,kitchen,SHINEd_sun_ahywdevtimnqcsln.tif,94,0.0666666666666667,0.0666666666666667,0.7,23487.64879825,23488.622071042,9,23487.710502583,23487.771568458,23488.64012425,23489.333462792,1,0.97327279199817
121,49,5,categorization,0,kitchen,SHINEd_sun_ahljzhgcdpomplvg.tif,91,0.0666666666666667,0.0666666666666667,1.75,23489.338666542,23490.101467,13,23489.400453167,23489.461503458,23490.113260833,23491.856732917,0,0.762800458000129
121,50,5,categorization,0,kitchen,SHINEd_sun_aarfiyshqohlwkmo.tif,67,0.0666666666666667,0.0666666666666667,1.36666666666667,23491.87437775,23493.017239458,9,23491.940881292,23492.00734025,23493.047445625,23494.407487667,1,1.14286170800187
