sub_num,trial,block,task,is_practice,category,image,texture,duration,mask_dur,jitter,stim_time,time_of_resp,trial_response,mask_time,fix_time,jit_onset,trial_end,trial_accuracy,RT
121,1,1,categorization,0,bathroom,SHINEd_sun_axldvoqbuvuggfmq.tif,57,0.0666666666666667,0.0666666666666667,1.23333333333333,22896.107793,22897.191786167,13,22896.170393875,22896.230649833,22897.199201083,22898.425907958,1,1.08399316700161
121,2,1,categorization,0,bathroom,SHINEd_sun_apmqjbnwghzuhhzh.tif,46,0.0666666666666667,0.0666666666666667,0.783333333333333,22898.437640875,22899.476992375,13,22898.504870667,22898.570928208,22899.493336833,22900.270026292,1,1.03935149999961
121,3,1,categorization,0,bathroom,SHINEd_sun_aghyqhbptboemmoq.tif,23,0.0666666666666667,0.0666666666666667,0.75,22900.2794805,22936.159835458,13,22900.342118375,22900.4023535,22936.171533875,22936.914872958,1,35.880354957997
121,4,1,categorization,0,kitchen,SHINEd_sun_aegoxogugdkwpmpj.tif,80,0.0666666666666667,0.0666666666666667,1.23333333333333,22936.919883208,22938.40038425,9,22936.981628542,22937.042623583,22938.411718583,22939.638431667,1,1.48050104199865
121,5,1,categorization,0,kitchen,SHINEd_sun_aypmqwcualkenuoe.tif,109,0.0666666666666667,0.0666666666666667,1.13333333333333,22939.651943167,22941.132747208,13,22939.719985125,22939.784698208,22941.160703042,22942.287416625,0,1.48080404100256
121,6,1,categorization,0,bathroom,SHINEd_sun_aljolscmmzydegqp.tif,33,0.0666666666666667,0.0666666666666667,0.95,22942.296153458,22943.507087708,13,22942.361072625,22942.428903292,22943.537152667,22944.480489458,1,1.21093425000072
121,7,1,categorization,0,bathroom,SHINEd_sun_aunuadmjocsddsrl.tif,52,0.0666666666666667,0.0666666666666667,0.733333333333333,22944.485626542,22945.792008292,13,22944.547622083,22944.608298917,22945.811251,22946.537923167,1,1.30638175000058
121,8,1,categorization,0,kitchen,SHINEd_sun_ahljzhgcdpomplvg.tif,91,0.0666666666666667,0.0666666666666667,1.31666666666667,22946.542914333,22947.648297875,13,22946.60469175,22946.665702083,22947.667784625,22948.977830583,0,1.10538354199889
121,9,1,categorization,0,kitchen,SHINEd_sun_aqeaevwwwjoqhzvl.tif,101,0.0666666666666667,0.0666666666666667,0.8,22948.998895958,22949.953102625,9,22949.06563325,22949.131724958,22949.971289458,22950.764631875,1,0.954206667000108
121,10,1,categorization,0,kitchen,SHINEd_labelme_brsyyvweiuaazfr.tif,61,0.0666666666666667,0.0666666666666667,0.716666666666667,22950.770788417,22951.671789,13,22950.83246825,22950.893528167,22951.679284875,22952.389288917,0,0.901000582998677
121,11,1,categorization,0,bathroom,SHINEd_sun_awnqiikzaispgmwo.tif,56,0.0666666666666667,0.0666666666666667,0.916666666666667,22952.395788958,22953.191575292,13,22952.457598625,22952.5184845,22953.203705667,22954.113709292,1,0.795786333997967
121,12,1,categorization,0,bathroom,SHINEd_sun_avhrdrntsqrjzccq.tif,55,0.0666666666666667,0.0666666666666667,0.95,22954.11850175,22955.279580208,9,22954.180272875,22954.241199292,22955.293479875,22956.236816417,0,1.1610784580007
121,13,1,categorization,0,kitchen,SHINEd_sun_azmutvzbxypaceni.tif,110,0.0666666666666667,0.0666666666666667,0.833333333333333,22956.241592125,22957.63234475,13,22956.303357375,22956.36420825,22957.650295333,22958.476966417,0,1.39075262500046
121,14,1,categorization,0,bathroom,SHINEd_labelme_sfxiulhjbhlyiyt.tif,11,0.0666666666666667,0.0666666666666667,0.75,22958.481963875,22959.591516458,13,22958.543673708,22958.604742792,22959.607033,22960.350371583,1,1.10955258299873
121,15,1,categorization,0,bathroom,SHINEd_sun_apkxzenqapsujocq.tif,45,0.0666666666666667,0.0666666666666667,1.53333333333333,22960.35536625,22961.464453792,13,22960.417061292,22960.478097833,22961.479931042,22963.006650167,1,1.10908754199772
121,16,1,categorization,0,bathroom,SHINEd_sun_abapwbhyhkfixyex.tif,14,0.0666666666666667,0.0666666666666667,1.05,22963.022934292,22964.071504208,9,22963.091089125,22963.155544417,22964.0955745,22965.138960833,0,1.04856991600172
121,17,1,categorization,0,kitchen,SHINEd_sun_avszsnwsbuqfgzbn.tif,105,0.0666666666666667,0.0666666666666667,0.9,22965.149352792,22966.28292725,9,22965.214379458,22965.280470708,22966.301750333,22967.19508975,1,1.1335744579992
121,18,1,categorization,0,bathroom,SHINEd_sun_aapitsgbtktqubfy.tif,12,0.0666666666666667,0.0666666666666667,1.18333333333333,22967.200413875,22968.280342125,9,22967.2622325,22967.323180708,22968.292017917,22969.468731167,0,1.07992824999747
121,19,1,categorization,0,kitchen,SHINEd_sun_abpwyqmlzafvklqo.tif,72,0.0666666666666667,0.0666666666666667,0.9,22969.480003833,22970.788780542,13,22969.546764458,22969.612948125,22970.804417,22971.697755667,0,1.30877670900009
121,20,1,categorization,0,bathroom,SHINEd_sun_aleqenyvunhactkl.tif,32,0.0666666666666667,0.0666666666666667,1.66666666666667,22971.702877375,22972.504122625,13,22971.764709417,22971.825626625,22972.510729792,22974.170770042,1,0.801245250000648
121,21,1,categorization,0,bathroom,SHINEd_sun_aavhrsfjbserjtht.tif,13,0.0666666666666667,0.0666666666666667,1.13333333333333,22974.189375292,22975.016572917,9,22974.254245917,22974.320532208,22975.043668167,22976.170373167,0,0.827197624999826
121,22,1,categorization,0,kitchen,SHINEd_sun_axyyrmzcupyhlivc.tif,107,0.0666666666666667,0.0666666666666667,1.3,22976.180752083,22976.989836708,13,22976.244752833,22976.309564917,22977.016090167,22978.309454833,0,0.809084624997922
121,23,1,categorization,0,bathroom,SHINEd_sun_axxbkopsgyouuebh.tif,58,0.0666666666666667,0.0666666666666667,1.93333333333333,22978.319561292,22978.98846675,13,22978.386543958,22978.452359583,22979.00875,22980.935456583,1,0.668905458001973
121,24,1,categorization,0,bathroom,SHINEd_sun_akiytfaagpdsphgz.tif,31,0.0666666666666667,0.0666666666666667,1,22980.952810875,22981.8234505,9,22981.021109125,22981.08554875,22981.841351958,22982.8346915,0,0.870639625001786
121,25,1,categorization,0,bathroom,SHINEd_sun_aclfzgynxzxlbepz.tif,19,0.0666666666666667,0.0666666666666667,0.883333333333333,22982.840327417,22983.687640042,9,22982.902085458,22982.963041167,22983.698125208,22984.574796542,0,0.847312624999176
121,26,1,categorization,0,kitchen,SHINEd_sun_adgqasybjyktddhj.tif,78,0.0666666666666667,0.0666666666666667,1.95,22984.579684708,22985.343608167,9,22984.641421458,22984.702339042,22985.354079,22987.297448125,1,0.763923459002399
121,27,1,categorization,0,kitchen,SHINEd_sun_amjjdeyrggfqgmom.tif,100,0.0666666666666667,0.0666666666666667,1.25,22987.316247917,22988.162949375,9,22987.383029958,22987.449309708,22988.189119875,22989.432509167,1,0.846701458001917
121,28,1,categorization,0,kitchen,SHINEd_sun_awcpdzzznmweyyhv.tif,106,0.0666666666666667,0.0666666666666667,1.95,22989.451285875,22990.577219167,13,22989.518005042,22989.584404542,22990.607739458,22992.551125,0,1.12593329200172
121,29,1,categorization,0,kitchen,SHINEd_sun_acxkpeoqbwcxfvip.tif,77,0.0666666666666667,0.0666666666666667,1.91666666666667,22992.569727292,22993.258484208,9,22992.637910458,22992.702484708,22993.274954458,22995.185002083,1,0.688756915998965
121,30,1,categorization,0,kitchen,SHINEd_sun_aggjlwcdjsjcaemh.tif,86,0.0666666666666667,0.0666666666666667,1.41666666666667,22995.202446208,22995.876271958,9,22995.270913875,22995.335249208,22995.891288708,22997.301330417,1,0.673825750000105
121,31,1,categorization,0,bathroom,SHINEd_sun_ahcvzmoyaycdoftf.tif,27,0.0666666666666667,0.0666666666666667,0.716666666666667,22997.318654208,22998.644847083,13,22997.387478625,22997.451659208,22998.676625208,22999.386628792,1,1.32619287499983
121,32,1,categorization,0,kitchen,SHINEd_sun_aunzlwrbjumxhwdj.tif,103,0.0666666666666667,0.0666666666666667,1.28333333333333,22999.391652458,23000.343959042,9,22999.453327833,22999.514858958,23000.34982725,23001.626540375,1,0.952306583996688
121,33,1,categorization,0,kitchen,SHINEd_sun_ahywdevtimnqcsln.tif,94,0.0666666666666667,0.0666666666666667,0.9,23001.643996792,23002.458560583,9,23001.711766292,23001.777475708,23002.484231875,23003.377604167,1,0.814563790998363
121,34,1,categorization,0,kitchen,SHINEd_sun_ahspylgoovwmwvgk.tif,93,0.0666666666666667,0.0666666666666667,0.8,23003.385412333,23004.368025,9,23003.447053875,23003.508126333,23004.376644417,23005.169981292,1,0.982612667001376
121,35,1,categorization,0,bathroom,SHINEd_sun_apynckhmoftszqoq.tif,47,0.0666666666666667,0.0666666666666667,1.01666666666667,23005.175469125,23006.399737125,13,23005.237168208,23005.298355083,23006.416904917,23007.426955625,1,1.22426800000176
121,36,1,categorization,0,bathroom,SHINEd_sun_azqyogdvyhahyram.tif,60,0.0666666666666667,0.0666666666666667,0.85,23007.439786375,23008.173567542,13,23007.505551458,23007.571394583,23008.194004375,23009.037383375,1,0.733781167000416
121,37,1,categorization,0,bathroom,SHINEd_sun_agyqfjcfkdcydepw.tif,25,0.0666666666666667,0.0666666666666667,1.51666666666667,23009.054285667,23009.8478385,13,23009.120768167,23009.187240708,23009.856424667,23011.366461167,1,0.793552833001741
121,38,1,categorization,0,bathroom,SHINEd_sun_ahqjwnzgolcaoidx.tif,29,0.0666666666666667,0.0666666666666667,1.83333333333333,23011.384894958,23012.587601375,13,23011.451671833,23011.51839225,23012.608237375,23014.434940625,1,1.20270641699972
121,39,1,categorization,0,bathroom,SHINEd_sun_acduarbnmmoglmiv.tif,16,0.0666666666666667,0.0666666666666667,0.716666666666667,23014.452978667,23015.823415417,13,23014.519831208,23014.587310708,23015.839894458,23016.549899083,1,1.3704367499995
121,40,1,categorization,0,kitchen,SHINEd_sun_auticobqsbwgoppi.tif,104,0.0666666666666667,0.0666666666666667,0.9,23016.554921208,23017.511474417,9,23016.616750208,23016.677708,23017.530319417,23018.423657042,1,0.95655320899823
121,41,1,categorization,0,kitchen,SHINEd_labelme_rykdqxenmhulbdn.tif,63,0.0666666666666667,0.0666666666666667,0.916666666666667,23018.428726125,23019.383810917,9,23018.490594958,23018.551625625,23019.403505792,23020.313511292,1,0.95508479199998
121,42,1,categorization,0,bathroom,SHINEd_sun_aqrpegblszgcoujh.tif,48,0.0666666666666667,0.0666666666666667,0.816666666666667,23020.31825875,23021.1510935,13,23020.379993708,23020.4410415,23021.159650208,23021.969653292,1,0.832834749999165
121,43,1,categorization,0,bathroom,SHINEd_sun_apeeialkgkuxddgh.tif,42,0.0666666666666667,0.0666666666666667,1.88333333333333,23021.975172167,23022.767587708,13,23022.036833625,23022.09787925,23022.783125542,23024.659824708,1,0.792415541000082
121,44,1,categorization,0,kitchen,SHINEd_sun_aadbddgrdsjugojn.tif,64,0.0666666666666667,0.0666666666666667,0.9,23024.676902667,23025.495486042,13,23024.745771125,23024.809943292,23025.515365875,23026.408703958,0,0.818583374999434
121,45,1,categorization,0,kitchen,SHINEd_sun_ahpczsiumwwocjkv.tif,92,0.0666666666666667,0.0666666666666667,1,23026.413808375,23027.232205917,9,23026.475404208,23026.53676725,23027.238922667,23028.232259833,1,0.81839754199973
121,46,1,categorization,0,bathroom,SHINEd_sun_agguqiubmwhqqunb.tif,22,0.0666666666666667,0.0666666666666667,0.733333333333333,23028.237207042,23028.871096792,13,23028.298878333,23028.359982042,23028.878669875,23029.605339708,1,0.633889750002709
121,47,1,categorization,0,kitchen,SHINEd_sun_agubuxuukhzyzpdp.tif,88,0.0666666666666667,0.0666666666666667,0.883333333333333,23029.612065833,23030.648158375,13,23029.673765583,23029.73483825,23030.65335925,23031.530030292,0,1.0360925419991
121,48,1,categorization,0,bathroom,SHINEd_sun_axyrejkiiaqiurjk.tif,59,0.0666666666666667,0.0666666666666667,1.73333333333333,23031.535008875,23032.535994542,9,23031.596665083,23031.658196792,23032.543699917,23034.270381875,0,1.00098566700035
121,49,1,categorization,0,bathroom,SHINEd_sun_aoybiabnpadelefl.tif,41,0.0666666666666667,0.0666666666666667,1.91666666666667,23034.28107,23035.372603292,9,23034.348114167,23034.41394775,23035.3856755,23037.295719333,0,1.09153329199762
121,50,1,categorization,0,kitchen,SHINEd_sun_abdenxonkemggwsq.tif,69,0.0666666666666667,0.0666666666666667,1.35,23037.314749917,23038.361788042,9,23037.38176075,23037.448004542,23038.388025792,23039.7314115,1,1.04703812499793
