sub_num,trial,block,task,is_practice,category,image,texture,duration,mask_dur,jitter,stim_time,time_of_resp,trial_response,mask_time,fix_time,jit_onset,trial_end,trial_accuracy,RT
121,1,17,categorization,0,bathroom,SHINEd_sun_apmqjbnwghzuhhzh.tif,46,0.0666666666666667,0.0666666666666667,0.9,24725.746100417,24726.568834167,13,24725.808535208,24725.86881525,24726.587333667,24727.480670375,1,0.822733749999315
121,2,17,categorization,0,bathroom,SHINEd_sun_aspsyogrekjtfozg.tif,50,0.0666666666666667,0.0666666666666667,1.65,24727.487592667,24728.377017083,13,24727.549333,24727.61021225,24728.395236042,24730.038609375,1,0.889424416000111
121,3,17,categorization,0,bathroom,SHINEd_sun_atstyziqcmkahyxk.tif,51,0.0666666666666667,0.0666666666666667,1.18333333333333,24730.057136375,24730.8676235,9,24730.123898417,24730.189197167,24730.895981917,24732.072696333,0,0.810487124999781
121,4,17,categorization,0,bathroom,SHINEd_sun_apkruvsevgegsdwp.tif,44,0.0666666666666667,0.0666666666666667,1.18333333333333,24732.0821955,24732.751067125,13,24732.149060542,24732.213831542,24732.769831042,24733.946543208,1,0.668871624999156
121,5,17,categorization,0,bathroom,SHINEd_sun_auzqhkafidnkrwmo.tif,54,0.0666666666666667,0.0666666666666667,0.766666666666667,24733.96420625,24734.96929125,13,24734.027214625,24734.087062042,24734.989041917,24735.749045583,1,1.00508500000069
121,6,17,categorization,0,kitchen,SHINEd_sun_agzzivivdpnawacl.tif,89,0.0666666666666667,0.0666666666666667,1.1,24735.753891417,24736.744578333,13,24735.815580792,24735.876462792,24736.762002042,24737.85539325,0,0.990686916000413
121,7,17,categorization,0,bathroom,SHINEd_sun_aghyqhbptboemmoq.tif,23,0.0666666666666667,0.0666666666666667,1.98333333333333,24737.865603708,24738.689155583,13,24737.930906333,24738.000173208,24738.706602083,24740.683323792,1,0.823551875000703
121,8,17,categorization,0,bathroom,SHINEd_sun_apjevzvycyhuqghb.tif,43,0.0666666666666667,0.0666666666666667,0.8,24740.702925333,24741.378741792,9,24740.770138292,24740.835851083,24741.390620042,24742.183957125,0,0.675816458999179
121,9,17,categorization,0,bathroom,SHINEd_sun_aljolscmmzydegqp.tif,33,0.0666666666666667,0.0666666666666667,1.68333333333333,24742.188975667,24742.833557417,9,24742.250597875,24742.31207375,24742.847293417,24744.524006667,0,0.644581750002544
121,10,17,categorization,0,kitchen,SHINEd_sun_avszsnwsbuqfgzbn.tif,105,0.0666666666666667,0.0666666666666667,1.73333333333333,24744.541570042,24745.336643333,9,24744.608274917,24744.674115833,24745.364304208,24747.091006958,1,0.795073290999426
121,11,17,categorization,0,bathroom,SHINEd_sun_ahaulkltgpkeeemi.tif,26,0.0666666666666667,0.0666666666666667,0.766666666666667,24747.109539875,24747.921727042,9,24747.176258833,24747.242320167,24747.948379208,24748.708383917,0,0.812187167000957
121,12,17,categorization,0,kitchen,SHINEd_sun_aehawpgmrlhlvcow.tif,81,0.0666666666666667,0.0666666666666667,1.43333333333333,24748.71352975,24749.289070042,9,24748.775237333,24748.836190875,24749.30465325,24750.731370667,1,0.575540292000369
121,13,17,categorization,0,bathroom,SHINEd_sun_akiytfaagpdsphgz.tif,31,0.0666666666666667,0.0666666666666667,0.7,24750.747206833,24751.505115,9,24750.815039292,24750.880034125,24751.518859167,24752.212240417,0,0.757908167001005
121,14,17,categorization,0,bathroom,SHINEd_sun_aqrpegblszgcoujh.tif,48,0.0666666666666667,0.0666666666666667,1.01666666666667,24752.226777167,24753.065466833,13,24752.29132025,24752.35962325,24753.078640375,24754.088676042,1,0.838689665997663
121,15,17,categorization,0,bathroom,SHINEd_sun_axyrejkiiaqiurjk.tif,59,0.0666666666666667,0.0666666666666667,1.71666666666667,24754.099329167,24754.936661958,9,24754.164171958,24754.229979083,24754.952652333,24756.662707917,0,0.837332791001245
121,16,17,categorization,0,kitchen,SHINEd_sun_acgtpgfybqjmzeyw.tif,75,0.0666666666666667,0.0666666666666667,1.73333333333333,24756.679281125,24757.525197042,9,24756.7480715,24756.811795583,24757.551428542,24759.278131042,1,0.84591591699791
121,17,17,categorization,0,kitchen,SHINEd_sun_ajkqhtgcbgpcwrwn.tif,97,0.0666666666666667,0.0666666666666667,1.93333333333333,24759.296674042,24760.250491125,13,24759.363459917,24759.429271958,24760.267880125,24762.1945725,0,0.953817082998285
121,18,17,categorization,0,bathroom,SHINEd_sun_aggnnqpdorgxpvce.tif,21,0.0666666666666667,0.0666666666666667,1.1,24762.206107625,24762.88360825,9,24762.270744,24762.338886667,24762.912078917,24764.005456625,0,0.677500624999084
121,19,17,categorization,0,kitchen,SHINEd_sun_auaiucuqpdausiva.tif,102,0.0666666666666667,0.0666666666666667,0.933333333333333,24764.014919917,24764.739060458,9,24764.079404917,24764.147285917,24764.75311925,24765.6798265,1,0.724140540998633
121,20,17,categorization,0,bathroom,SHINEd_sun_agyqfjcfkdcydepw.tif,25,0.0666666666666667,0.0666666666666667,1.16666666666667,24765.69612375,24766.817265375,9,24765.762885542,24765.828575208,24766.830577042,24767.99061325,0,1.12114162500075
121,21,17,categorization,0,bathroom,SHINEd_sun_apynckhmoftszqoq.tif,47,0.0666666666666667,0.0666666666666667,1.08333333333333,24767.99974275,24768.762798125,13,24768.067941167,24768.132307667,24768.787911333,24769.864634375,1,0.763055375002295
121,22,17,categorization,0,bathroom,SHINEd_sun_aleqenyvunhactkl.tif,32,0.0666666666666667,0.0666666666666667,1.36666666666667,24769.877268917,24770.704818708,13,24769.939068583,24769.99996475,24770.718910208,24772.078963542,1,0.82754979099991
121,23,17,categorization,0,kitchen,SHINEd_sun_ahdycvpopffkzzsu.tif,90,0.0666666666666667,0.0666666666666667,1.85,24772.097287167,24772.949091625,13,24772.165277167,24772.227930042,24772.967678667,24774.811048083,0,0.851804458001425
121,24,17,categorization,0,kitchen,SHINEd_sun_ajcbwwvdlsvjyzje.tif,96,0.0666666666666667,0.0666666666666667,1.1,24774.828013167,24775.8340365,9,24774.896525625,24774.959753958,24775.848688208,24776.942053292,1,1.00602333300048
121,25,17,categorization,0,bathroom,SHINEd_sun_asfwthctfqerjvxr.tif,49,0.0666666666666667,0.0666666666666667,1.71666666666667,24776.95048,24777.70439325,13,24777.015126333,24777.083193833,24777.722349375,24779.432404,1,0.753913249998732
121,26,17,categorization,0,kitchen,SHINEd_sun_ahspylgoovwmwvgk.tif,93,0.0666666666666667,0.0666666666666667,1.6,24779.449113917,24780.145913375,9,24779.517293083,24779.581396917,24780.171255042,24781.764629542,1,0.696799458000896
121,27,17,categorization,0,bathroom,SHINEd_sun_abapwbhyhkfixyex.tif,14,0.0666666666666667,0.0666666666666667,0.85,24781.780654083,24782.45813475,9,24781.848131042,24781.91317025,24782.486773667,24783.330112792,0,0.677480667000054
121,28,17,categorization,0,bathroom,SHINEd_sun_aclfzgynxzxlbepz.tif,19,0.0666666666666667,0.0666666666666667,1.35,24783.337272875,24784.032575417,13,24783.399094,24783.459955583,24784.045545042,24785.388921583,1,0.695302542000718
121,29,17,categorization,0,kitchen,SHINEd_sun_acfmftudsenhrfhy.tif,74,0.0666666666666667,0.0666666666666667,1.65,24785.407779375,24786.234539792,9,24785.474523042,24785.540682958,24786.244802833,24787.888169333,1,0.826760416999605
121,30,17,categorization,0,bathroom,SHINEd_labelme_sfxiulhjbhlyiyt.tif,11,0.0666666666666667,0.0666666666666667,1.35,24787.90779775,24788.697467458,13,24787.9743915,24788.040881542,24788.713608417,24790.056985667,1,0.789669708003203
121,31,17,categorization,0,kitchen,SHINEd_sun_aggjlwcdjsjcaemh.tif,86,0.0666666666666667,0.0666666666666667,1.63333333333333,24790.07557125,24790.709535375,9,24790.142192542,24790.206838,24790.730408542,24792.357127292,1,0.633964125001512
121,32,17,categorization,0,kitchen,SHINEd_sun_akchetnepxlcxhsu.tif,98,0.0666666666666667,0.0666666666666667,1.1,24792.376683667,24793.6351525,13,24792.443295208,24792.509213417,24793.650211167,24794.743594708,0,1.25846883299891
121,33,17,categorization,0,bathroom,SHINEd_sun_aunuadmjocsddsrl.tif,52,0.0666666666666667,0.0666666666666667,1.11666666666667,24794.7550455,24795.546132167,9,24794.820102208,24794.886438167,24795.576462542,24796.686474417,0,0.791086667002673
121,34,17,categorization,0,kitchen,SHINEd_sun_azmutvzbxypaceni.tif,110,0.0666666666666667,0.0666666666666667,1.5,24796.692661583,24797.417025125,9,24796.7548715,24796.815335708,24797.433936042,24798.927307417,1,0.724363541998173
121,35,17,categorization,0,bathroom,SHINEd_sun_ambriybtogmepttm.tif,36,0.0666666666666667,0.0666666666666667,1.28333333333333,24798.945503667,24799.613873,9,24799.013723333,24799.078049208,24799.634605792,24800.911304,0,0.668369332997827
121,36,17,categorization,0,bathroom,SHINEd_sun_alotolagknyrgtsk.tif,35,0.0666666666666667,0.0666666666666667,1.7,24800.929270667,24801.578668,9,24800.996197458,24801.061722042,24801.60173075,24803.295097125,0,0.649397332999797
121,37,17,categorization,0,bathroom,SHINEd_sun_axxbkopsgyouuebh.tif,58,0.0666666666666667,0.0666666666666667,1.08333333333333,24803.312588583,24804.013394292,13,24803.379608625,24803.445175292,24804.035347,24805.112058833,1,0.700805708998814
121,38,17,categorization,0,kitchen,SHINEd_sun_ahljzhgcdpomplvg.tif,91,0.0666666666666667,0.0666666666666667,1.65,24805.12229325,24805.804290542,9,24805.186812833,24805.254310875,24805.827496875,24807.47086925,1,0.681997292002052
121,39,17,categorization,0,kitchen,SHINEd_sun_abftihopvusyfakt.tif,71,0.0666666666666667,0.0666666666666667,1.31666666666667,24807.491273542,24807.880346,13,24807.557395417,24807.623578958,24807.895965375,24809.206019625,0,0.389072458001465
121,40,17,categorization,0,bathroom,SHINEd_sun_azqyogdvyhahyram.tif,60,0.0666666666666667,0.0666666666666667,0.95,24809.2243445,24809.903946042,9,24809.291131708,24809.356788125,24809.930201583,24810.873587458,0,0.679601542000455
121,41,17,categorization,0,bathroom,SHINEd_sun_acegryoqftbzowsg.tif,17,0.0666666666666667,0.0666666666666667,1.43333333333333,24810.890487417,24811.640359042,9,24810.95712375,24811.023007625,24811.658782,24813.085502833,0,0.749871625001106
121,42,17,categorization,0,bathroom,SHINEd_sun_apeeialkgkuxddgh.tif,42,0.0666666666666667,0.0666666666666667,1.66666666666667,24813.10256225,24813.893044292,13,24813.171229167,24813.235577625,24813.9081715,24815.568234583,1,0.790482042000804
121,43,17,categorization,0,bathroom,SHINEd_sun_afcoljnjfoxjtgja.tif,20,0.0666666666666667,0.0666666666666667,0.933333333333333,24815.585335208,24816.280226375,9,24815.65351725,24815.7178605,24816.306244667,24817.232915667,0,0.694891167000605
121,44,17,categorization,0,kitchen,SHINEd_sun_aegoxogugdkwpmpj.tif,80,0.0666666666666667,0.0666666666666667,0.833333333333333,24817.237876125,24818.0085475,13,24817.299497833,24817.36060325,24818.012781792,24818.839452083,0,0.770671375001257
121,45,17,categorization,0,kitchen,SHINEd_sun_admlmbcdswaszruo.tif,79,0.0666666666666667,0.0666666666666667,1.26666666666667,24818.844585375,24819.817293458,9,24818.906331583,24818.9671715,24819.83612525,24821.096157208,1,0.972708082997997
121,46,17,categorization,0,kitchen,SHINEd_sun_aenotlpyftoioydp.tif,82,0.0666666666666667,0.0666666666666667,1.93333333333333,24821.106330875,24821.859404167,9,24821.173004542,24821.238867833,24821.878511375,24823.80523375,1,0.753073291998589
121,47,17,categorization,0,bathroom,SHINEd_sun_acduarbnmmoglmiv.tif,16,0.0666666666666667,0.0666666666666667,1.06666666666667,24823.823245375,24824.710417042,13,24823.890350542,24823.9558665,24824.729194792,24825.7892425,1,0.887171667000075
121,48,17,categorization,0,kitchen,SHINEd_sun_aeqdocilnnpuvuhx.tif,83,0.0666666666666667,0.0666666666666667,0.766666666666667,24825.800168333,24826.522064708,9,24825.864626333,24825.93197075,24826.537811,24827.297845042,1,0.721896374998323
121,49,17,categorization,0,kitchen,SHINEd_labelme_rykdqxenmhulbdn.tif,63,0.0666666666666667,0.0666666666666667,0.833333333333333,24827.313610042,24827.944644875,9,24827.380033917,24827.446206083,24827.948687083,24828.775359125,1,0.631034832997102
121,50,17,categorization,0,kitchen,SHINEd_sun_aaxxjlsuzvqlgylf.tif,68,0.0666666666666667,0.0666666666666667,1.46666666666667,24828.780307667,24829.561204958,9,24828.841919958,24828.902992917,24829.57176975,24831.031801,1,0.780897291002475
