sub_num,trial,block,task,is_practice,category,image,texture,duration,mask_dur,jitter,stim_time,time_of_resp,trial_response,mask_time,fix_time,jit_onset,trial_end,trial_accuracy,RT
121,1,0,categorization,1,kitchen,SHINEd_kitchen_practice5.tif,120,0.0666666666666667,0.0666666666666667,1.21666666666667,22861.892365,22863.400574708,13,22861.958501708,22862.018462958,22863.422441125,22864.632640125,0,1.50820970800123
121,2,0,categorization,1,bathroom,SHINEd_bathroom_practice5.tif,115,0.0666666666666667,0.0666666666666667,1.36666666666667,22864.681168208,22866.193579167,13,22864.756019167,22864.814860792,22866.225732667,22867.585958917,1,1.51241095899968
121,3,0,categorization,1,kitchen,SHINEd_kitchen_practice2.tif,117,0.0666666666666667,0.0666666666666667,1.85,22867.635700208,22868.562935375,9,22867.710774792,22867.770859833,22868.597450083,22870.44101675,1,0.927235167000617
121,4,0,categorization,1,bathroom,SHINEd_bathroom_practice1.tif,111,0.0666666666666667,0.0666666666666667,1.55,22870.467426583,22871.329494458,13,22870.53811825,22870.601754708,22871.361799708,22872.905370958,1,0.86206787500123
121,5,0,categorization,1,kitchen,SHINEd_kitchen_practice3.tif,118,0.0666666666666667,0.0666666666666667,1.48333333333333,22872.933559042,22873.541365083,9,22873.007207875,22873.068409667,22873.585506583,22875.063159833,1,0.607806041000003
121,6,0,categorization,1,kitchen,SHINEd_kitchen_practice1.tif,116,0.0666666666666667,0.0666666666666667,1.15,22875.090548625,22876.366100333,13,22875.159077625,22875.224537792,22876.400980708,22877.544485292,0,1.27555170800042
121,7,0,categorization,1,bathroom,SHINEd_bathroom_practice4.tif,114,0.0666666666666667,0.0666666666666667,0.733333333333333,22877.557363917,22878.512658,13,22877.625414417,22877.691336542,22878.532014958,22879.258869292,1,0.955294082999899
121,8,0,categorization,1,bathroom,SHINEd_bathroom_practice2.tif,112,0.0666666666666667,0.0666666666666667,1.6,22879.2778165,22880.648649,13,22879.344923542,22879.411485083,22880.66442925,22882.2577825,1,1.37083249999705
121,9,0,categorization,1,kitchen,SHINEd_kitchen_practice4.tif,119,0.0666666666666667,0.0666666666666667,0.716666666666667,22882.271403,22884.159959625,9,22882.338353417,22882.404446667,22884.174042,22884.884046333,1,1.88855662500282
121,10,0,categorization,1,bathroom,SHINEd_bathroom_practice3.tif,113,0.0666666666666667,0.0666666666666667,1.21666666666667,22884.889104625,22885.824698083,13,22884.950974625,22885.011885375,22885.830835875,22887.040878375,1,0.935593458001676
121,1,1,categorization,0,bathroom,SHINEd_sun_axldvoqbuvuggfmq.tif,57,0.0666666666666667,0.0666666666666667,1.23333333333333,22896.107793,22897.191786167,13,22896.170393875,22896.230649833,22897.199201083,22898.425907958,1,1.08399316700161
121,2,1,categorization,0,bathroom,SHINEd_sun_apmqjbnwghzuhhzh.tif,46,0.0666666666666667,0.0666666666666667,0.783333333333333,22898.437640875,22899.476992375,13,22898.504870667,22898.570928208,22899.493336833,22900.270026292,1,1.03935149999961
121,3,1,categorization,0,bathroom,SHINEd_sun_aghyqhbptboemmoq.tif,23,0.0666666666666667,0.0666666666666667,0.75,22900.2794805,22936.159835458,13,22900.342118375,22900.4023535,22936.171533875,22936.914872958,1,35.880354957997
121,4,1,categorization,0,kitchen,SHINEd_sun_aegoxogugdkwpmpj.tif,80,0.0666666666666667,0.0666666666666667,1.23333333333333,22936.919883208,22938.40038425,9,22936.981628542,22937.042623583,22938.411718583,22939.638431667,1,1.48050104199865
121,5,1,categorization,0,kitchen,SHINEd_sun_aypmqwcualkenuoe.tif,109,0.0666666666666667,0.0666666666666667,1.13333333333333,22939.651943167,22941.132747208,13,22939.719985125,22939.784698208,22941.160703042,22942.287416625,0,1.48080404100256
121,6,1,categorization,0,bathroom,SHINEd_sun_aljolscmmzydegqp.tif,33,0.0666666666666667,0.0666666666666667,0.95,22942.296153458,22943.507087708,13,22942.361072625,22942.428903292,22943.537152667,22944.480489458,1,1.21093425000072
121,7,1,categorization,0,bathroom,SHINEd_sun_aunuadmjocsddsrl.tif,52,0.0666666666666667,0.0666666666666667,0.733333333333333,22944.485626542,22945.792008292,13,22944.547622083,22944.608298917,22945.811251,22946.537923167,1,1.30638175000058
121,8,1,categorization,0,kitchen,SHINEd_sun_ahljzhgcdpomplvg.tif,91,0.0666666666666667,0.0666666666666667,1.31666666666667,22946.542914333,22947.648297875,13,22946.60469175,22946.665702083,22947.667784625,22948.977830583,0,1.10538354199889
121,9,1,categorization,0,kitchen,SHINEd_sun_aqeaevwwwjoqhzvl.tif,101,0.0666666666666667,0.0666666666666667,0.8,22948.998895958,22949.953102625,9,22949.06563325,22949.131724958,22949.971289458,22950.764631875,1,0.954206667000108
121,10,1,categorization,0,kitchen,SHINEd_labelme_brsyyvweiuaazfr.tif,61,0.0666666666666667,0.0666666666666667,0.716666666666667,22950.770788417,22951.671789,13,22950.83246825,22950.893528167,22951.679284875,22952.389288917,0,0.901000582998677
121,11,1,categorization,0,bathroom,SHINEd_sun_awnqiikzaispgmwo.tif,56,0.0666666666666667,0.0666666666666667,0.916666666666667,22952.395788958,22953.191575292,13,22952.457598625,22952.5184845,22953.203705667,22954.113709292,1,0.795786333997967
121,12,1,categorization,0,bathroom,SHINEd_sun_avhrdrntsqrjzccq.tif,55,0.0666666666666667,0.0666666666666667,0.95,22954.11850175,22955.279580208,9,22954.180272875,22954.241199292,22955.293479875,22956.236816417,0,1.1610784580007
121,13,1,categorization,0,kitchen,SHINEd_sun_azmutvzbxypaceni.tif,110,0.0666666666666667,0.0666666666666667,0.833333333333333,22956.241592125,22957.63234475,13,22956.303357375,22956.36420825,22957.650295333,22958.476966417,0,1.39075262500046
121,14,1,categorization,0,bathroom,SHINEd_labelme_sfxiulhjbhlyiyt.tif,11,0.0666666666666667,0.0666666666666667,0.75,22958.481963875,22959.591516458,13,22958.543673708,22958.604742792,22959.607033,22960.350371583,1,1.10955258299873
121,15,1,categorization,0,bathroom,SHINEd_sun_apkxzenqapsujocq.tif,45,0.0666666666666667,0.0666666666666667,1.53333333333333,22960.35536625,22961.464453792,13,22960.417061292,22960.478097833,22961.479931042,22963.006650167,1,1.10908754199772
121,16,1,categorization,0,bathroom,SHINEd_sun_abapwbhyhkfixyex.tif,14,0.0666666666666667,0.0666666666666667,1.05,22963.022934292,22964.071504208,9,22963.091089125,22963.155544417,22964.0955745,22965.138960833,0,1.04856991600172
121,17,1,categorization,0,kitchen,SHINEd_sun_avszsnwsbuqfgzbn.tif,105,0.0666666666666667,0.0666666666666667,0.9,22965.149352792,22966.28292725,9,22965.214379458,22965.280470708,22966.301750333,22967.19508975,1,1.1335744579992
121,18,1,categorization,0,bathroom,SHINEd_sun_aapitsgbtktqubfy.tif,12,0.0666666666666667,0.0666666666666667,1.18333333333333,22967.200413875,22968.280342125,9,22967.2622325,22967.323180708,22968.292017917,22969.468731167,0,1.07992824999747
121,19,1,categorization,0,kitchen,SHINEd_sun_abpwyqmlzafvklqo.tif,72,0.0666666666666667,0.0666666666666667,0.9,22969.480003833,22970.788780542,13,22969.546764458,22969.612948125,22970.804417,22971.697755667,0,1.30877670900009
121,20,1,categorization,0,bathroom,SHINEd_sun_aleqenyvunhactkl.tif,32,0.0666666666666667,0.0666666666666667,1.66666666666667,22971.702877375,22972.504122625,13,22971.764709417,22971.825626625,22972.510729792,22974.170770042,1,0.801245250000648
121,21,1,categorization,0,bathroom,SHINEd_sun_aavhrsfjbserjtht.tif,13,0.0666666666666667,0.0666666666666667,1.13333333333333,22974.189375292,22975.016572917,9,22974.254245917,22974.320532208,22975.043668167,22976.170373167,0,0.827197624999826
121,22,1,categorization,0,kitchen,SHINEd_sun_axyyrmzcupyhlivc.tif,107,0.0666666666666667,0.0666666666666667,1.3,22976.180752083,22976.989836708,13,22976.244752833,22976.309564917,22977.016090167,22978.309454833,0,0.809084624997922
121,23,1,categorization,0,bathroom,SHINEd_sun_axxbkopsgyouuebh.tif,58,0.0666666666666667,0.0666666666666667,1.93333333333333,22978.319561292,22978.98846675,13,22978.386543958,22978.452359583,22979.00875,22980.935456583,1,0.668905458001973
121,24,1,categorization,0,bathroom,SHINEd_sun_akiytfaagpdsphgz.tif,31,0.0666666666666667,0.0666666666666667,1,22980.952810875,22981.8234505,9,22981.021109125,22981.08554875,22981.841351958,22982.8346915,0,0.870639625001786
121,25,1,categorization,0,bathroom,SHINEd_sun_aclfzgynxzxlbepz.tif,19,0.0666666666666667,0.0666666666666667,0.883333333333333,22982.840327417,22983.687640042,9,22982.902085458,22982.963041167,22983.698125208,22984.574796542,0,0.847312624999176
121,26,1,categorization,0,kitchen,SHINEd_sun_adgqasybjyktddhj.tif,78,0.0666666666666667,0.0666666666666667,1.95,22984.579684708,22985.343608167,9,22984.641421458,22984.702339042,22985.354079,22987.297448125,1,0.763923459002399
121,27,1,categorization,0,kitchen,SHINEd_sun_amjjdeyrggfqgmom.tif,100,0.0666666666666667,0.0666666666666667,1.25,22987.316247917,22988.162949375,9,22987.383029958,22987.449309708,22988.189119875,22989.432509167,1,0.846701458001917
121,28,1,categorization,0,kitchen,SHINEd_sun_awcpdzzznmweyyhv.tif,106,0.0666666666666667,0.0666666666666667,1.95,22989.451285875,22990.577219167,13,22989.518005042,22989.584404542,22990.607739458,22992.551125,0,1.12593329200172
121,29,1,categorization,0,kitchen,SHINEd_sun_acxkpeoqbwcxfvip.tif,77,0.0666666666666667,0.0666666666666667,1.91666666666667,22992.569727292,22993.258484208,9,22992.637910458,22992.702484708,22993.274954458,22995.185002083,1,0.688756915998965
121,30,1,categorization,0,kitchen,SHINEd_sun_aggjlwcdjsjcaemh.tif,86,0.0666666666666667,0.0666666666666667,1.41666666666667,22995.202446208,22995.876271958,9,22995.270913875,22995.335249208,22995.891288708,22997.301330417,1,0.673825750000105
121,31,1,categorization,0,bathroom,SHINEd_sun_ahcvzmoyaycdoftf.tif,27,0.0666666666666667,0.0666666666666667,0.716666666666667,22997.318654208,22998.644847083,13,22997.387478625,22997.451659208,22998.676625208,22999.386628792,1,1.32619287499983
121,32,1,categorization,0,kitchen,SHINEd_sun_aunzlwrbjumxhwdj.tif,103,0.0666666666666667,0.0666666666666667,1.28333333333333,22999.391652458,23000.343959042,9,22999.453327833,22999.514858958,23000.34982725,23001.626540375,1,0.952306583996688
121,33,1,categorization,0,kitchen,SHINEd_sun_ahywdevtimnqcsln.tif,94,0.0666666666666667,0.0666666666666667,0.9,23001.643996792,23002.458560583,9,23001.711766292,23001.777475708,23002.484231875,23003.377604167,1,0.814563790998363
121,34,1,categorization,0,kitchen,SHINEd_sun_ahspylgoovwmwvgk.tif,93,0.0666666666666667,0.0666666666666667,0.8,23003.385412333,23004.368025,9,23003.447053875,23003.508126333,23004.376644417,23005.169981292,1,0.982612667001376
121,35,1,categorization,0,bathroom,SHINEd_sun_apynckhmoftszqoq.tif,47,0.0666666666666667,0.0666666666666667,1.01666666666667,23005.175469125,23006.399737125,13,23005.237168208,23005.298355083,23006.416904917,23007.426955625,1,1.22426800000176
121,36,1,categorization,0,bathroom,SHINEd_sun_azqyogdvyhahyram.tif,60,0.0666666666666667,0.0666666666666667,0.85,23007.439786375,23008.173567542,13,23007.505551458,23007.571394583,23008.194004375,23009.037383375,1,0.733781167000416
121,37,1,categorization,0,bathroom,SHINEd_sun_agyqfjcfkdcydepw.tif,25,0.0666666666666667,0.0666666666666667,1.51666666666667,23009.054285667,23009.8478385,13,23009.120768167,23009.187240708,23009.856424667,23011.366461167,1,0.793552833001741
121,38,1,categorization,0,bathroom,SHINEd_sun_ahqjwnzgolcaoidx.tif,29,0.0666666666666667,0.0666666666666667,1.83333333333333,23011.384894958,23012.587601375,13,23011.451671833,23011.51839225,23012.608237375,23014.434940625,1,1.20270641699972
121,39,1,categorization,0,bathroom,SHINEd_sun_acduarbnmmoglmiv.tif,16,0.0666666666666667,0.0666666666666667,0.716666666666667,23014.452978667,23015.823415417,13,23014.519831208,23014.587310708,23015.839894458,23016.549899083,1,1.3704367499995
121,40,1,categorization,0,kitchen,SHINEd_sun_auticobqsbwgoppi.tif,104,0.0666666666666667,0.0666666666666667,0.9,23016.554921208,23017.511474417,9,23016.616750208,23016.677708,23017.530319417,23018.423657042,1,0.95655320899823
121,41,1,categorization,0,kitchen,SHINEd_labelme_rykdqxenmhulbdn.tif,63,0.0666666666666667,0.0666666666666667,0.916666666666667,23018.428726125,23019.383810917,9,23018.490594958,23018.551625625,23019.403505792,23020.313511292,1,0.95508479199998
121,42,1,categorization,0,bathroom,SHINEd_sun_aqrpegblszgcoujh.tif,48,0.0666666666666667,0.0666666666666667,0.816666666666667,23020.31825875,23021.1510935,13,23020.379993708,23020.4410415,23021.159650208,23021.969653292,1,0.832834749999165
121,43,1,categorization,0,bathroom,SHINEd_sun_apeeialkgkuxddgh.tif,42,0.0666666666666667,0.0666666666666667,1.88333333333333,23021.975172167,23022.767587708,13,23022.036833625,23022.09787925,23022.783125542,23024.659824708,1,0.792415541000082
121,44,1,categorization,0,kitchen,SHINEd_sun_aadbddgrdsjugojn.tif,64,0.0666666666666667,0.0666666666666667,0.9,23024.676902667,23025.495486042,13,23024.745771125,23024.809943292,23025.515365875,23026.408703958,0,0.818583374999434
121,45,1,categorization,0,kitchen,SHINEd_sun_ahpczsiumwwocjkv.tif,92,0.0666666666666667,0.0666666666666667,1,23026.413808375,23027.232205917,9,23026.475404208,23026.53676725,23027.238922667,23028.232259833,1,0.81839754199973
121,46,1,categorization,0,bathroom,SHINEd_sun_agguqiubmwhqqunb.tif,22,0.0666666666666667,0.0666666666666667,0.733333333333333,23028.237207042,23028.871096792,13,23028.298878333,23028.359982042,23028.878669875,23029.605339708,1,0.633889750002709
121,47,1,categorization,0,kitchen,SHINEd_sun_agubuxuukhzyzpdp.tif,88,0.0666666666666667,0.0666666666666667,0.883333333333333,23029.612065833,23030.648158375,13,23029.673765583,23029.73483825,23030.65335925,23031.530030292,0,1.0360925419991
121,48,1,categorization,0,bathroom,SHINEd_sun_axyrejkiiaqiurjk.tif,59,0.0666666666666667,0.0666666666666667,1.73333333333333,23031.535008875,23032.535994542,9,23031.596665083,23031.658196792,23032.543699917,23034.270381875,0,1.00098566700035
121,49,1,categorization,0,bathroom,SHINEd_sun_aoybiabnpadelefl.tif,41,0.0666666666666667,0.0666666666666667,1.91666666666667,23034.28107,23035.372603292,9,23034.348114167,23034.41394775,23035.3856755,23037.295719333,0,1.09153329199762
121,50,1,categorization,0,kitchen,SHINEd_sun_abdenxonkemggwsq.tif,69,0.0666666666666667,0.0666666666666667,1.35,23037.314749917,23038.361788042,9,23037.38176075,23037.448004542,23038.388025792,23039.7314115,1,1.04703812499793
121,1,2,categorization,0,bathroom,SHINEd_sun_acegryoqftbzowsg.tif,17,0.0666666666666667,0.0666666666666667,0.95,23046.995981667,23047.895409083,9,23047.057620042,23047.118792583,23047.903879417,23048.847218167,0,0.899427415999526
121,2,2,categorization,0,bathroom,SHINEd_sun_ajlawzvmubibwbpy.tif,30,0.0666666666666667,0.0666666666666667,0.75,23048.852263167,23049.648089625,9,23048.913944167,23048.975074875,23049.660794958,23050.404131708,0,0.795826458001102
121,3,2,categorization,0,kitchen,SHINEd_sun_aarfiyshqohlwkmo.tif,67,0.0666666666666667,0.0666666666666667,1.68333333333333,23050.409244542,23051.35202125,9,23050.470872625,23050.532014417,23051.36790575,23053.0446035,1,0.942776708001475
121,4,2,categorization,0,bathroom,SHINEd_sun_alkosphxlxwjwgjd.tif,34,0.0666666666666667,0.0666666666666667,0.816666666666667,23053.064749167,23053.800691958,13,23053.131593583,23053.198124292,23053.820139792,23054.630145917,1,0.735942791001435
121,5,2,categorization,0,bathroom,SHINEd_sun_ausgutylgojavyoq.tif,53,0.0666666666666667,0.0666666666666667,0.916666666666667,23054.635965125,23055.551653917,13,23054.697716875,23054.75884,23055.561322125,23056.471325292,1,0.915688791999855
121,6,2,categorization,0,kitchen,SHINEd_sun_abftihopvusyfakt.tif,71,0.0666666666666667,0.0666666666666667,1.21666666666667,23056.476324,23057.32782,9,23056.538062625,23056.599139208,23057.334500167,23058.544555167,1,0.851495999999315
121,7,2,categorization,0,bathroom,SHINEd_sun_ahaulkltgpkeeemi.tif,26,0.0666666666666667,0.0666666666666667,0.9,23058.561267375,23059.377674458,13,23058.629725333,23058.694044042,23059.399597792,23060.292970833,1,0.816407082998921
121,8,2,categorization,0,bathroom,SHINEd_sun_apjevzvycyhuqghb.tif,43,0.0666666666666667,0.0666666666666667,1.65,23060.302556,23061.343743875,9,23060.368825917,23060.435411042,23061.354556292,23062.99793825,0,1.04118787500192
121,9,2,categorization,0,bathroom,SHINEd_sun_auzqhkafidnkrwmo.tif,54,0.0666666666666667,0.0666666666666667,1.15,23063.015805333,23064.066783167,9,23063.082668875,23063.148800833,23064.08882325,23065.232210792,0,1.05097783399833
121,10,2,categorization,0,bathroom,SHINEd_sun_anryaplzeujmzfkd.tif,39,0.0666666666666667,0.0666666666666667,1.13333333333333,23065.241507417,23066.12354,9,23065.307775375,23065.376033375,23066.14912925,23067.275844833,0,0.882032583002001
121,11,2,categorization,0,kitchen,SHINEd_sun_ahdycvpopffkzzsu.tif,90,0.0666666666666667,0.0666666666666667,1.76666666666667,23067.28523575,23068.268035917,9,23067.352530542,23067.41840525,23068.290141083,23070.050193292,1,0.982800166999368
121,12,2,categorization,0,kitchen,SHINEd_sun_aixorpehvfykdynp.tif,95,0.0666666666666667,0.0666666666666667,1.8,23070.068708083,23070.831322625,9,23070.135532292,23070.198989375,23070.8558615,23072.649251125,1,0.762614541999938
121,13,2,categorization,0,bathroom,SHINEd_sun_atstyziqcmkahyxk.tif,51,0.0666666666666667,0.0666666666666667,0.9,23072.6636765,23073.380052542,13,23072.730331167,23072.796682458,23073.403546375,23074.296884333,1,0.716376042000775
121,14,2,categorization,0,kitchen,SHINEd_sun_aenotlpyftoioydp.tif,82,0.0666666666666667,0.0666666666666667,0.716666666666667,23074.301993167,23075.007473833,9,23074.3636165,23074.424750875,23075.026798292,23075.736803375,1,0.705480666001677
121,15,2,categorization,0,kitchen,SHINEd_sun_aymvwlarqodbwuoc.tif,108,0.0666666666666667,0.0666666666666667,1.36666666666667,23075.74163875,23076.559809042,9,23075.80332425,23075.864428667,23076.566318375,23077.926362208,1,0.818170291997376
121,16,2,categorization,0,bathroom,SHINEd_sun_anhioqovhscjqqwb.tif,38,0.0666666666666667,0.0666666666666667,0.916666666666667,23077.943606417,23078.564690667,13,23078.011600875,23078.076629125,23078.582851625,23079.492899875,1,0.621084250000422
121,17,2,categorization,0,kitchen,SHINEd_sun_aehawpgmrlhlvcow.tif,81,0.0666666666666667,0.0666666666666667,0.716666666666667,23079.509353208,23080.311125792,9,23079.575571333,23079.634534875,23080.319721958,23081.029727083,1,0.801772583999991
121,18,2,categorization,0,bathroom,SHINEd_sun_aofnryafpsjimzsb.tif,40,0.0666666666666667,0.0666666666666667,0.766666666666667,23081.034787625,23081.78343925,9,23081.096515708,23081.157457375,23081.792722917,23082.552726667,0,0.748651624999184
121,19,2,categorization,0,bathroom,SHINEd_sun_acgyywnybuveqsro.tif,18,0.0666666666666667,0.0666666666666667,1.06666666666667,23082.557650042,23083.607686125,9,23082.619349375,23082.680498375,23083.616161333,23084.676207708,0,1.05003608300103
121,20,2,categorization,0,kitchen,SHINEd_sun_aeqdocilnnpuvuhx.tif,83,0.0666666666666667,0.0666666666666667,0.8,23084.688619333,23085.635814,9,23084.753779875,23084.819509042,23085.659727792,23086.453095667,1,0.947194667001895
121,21,2,categorization,0,kitchen,SHINEd_sun_ajkqhtgcbgpcwrwn.tif,97,0.0666666666666667,0.0666666666666667,0.866666666666667,23086.47021775,23087.231982,9,23086.536914458,23086.6030555,23087.238904083,23088.098908875,1,0.761764250000851
121,22,2,categorization,0,bathroom,SHINEd_sun_ambriybtogmepttm.tif,36,0.0666666666666667,0.0666666666666667,1.48333333333333,23088.103725333,23088.703390667,9,23088.165449,23088.22649425,23088.711792875,23090.188507958,0,0.599665334000747
121,23,2,categorization,0,kitchen,SHINEd_sun_akchetnepxlcxhsu.tif,98,0.0666666666666667,0.0666666666666667,1.1,23090.200093042,23090.924144417,9,23090.265156875,23090.330097542,23090.935733542,23092.029100417,1,0.724051375000272
121,24,2,categorization,0,bathroom,SHINEd_sun_asfwthctfqerjvxr.tif,49,0.0666666666666667,0.0666666666666667,0.783333333333333,23092.041219583,23092.633349208,9,23092.105963,23092.173664,23092.663429208,23093.440137,0,0.592129625001689
121,25,2,categorization,0,kitchen,SHINEd_sun_agzzivivdpnawacl.tif,89,0.0666666666666667,0.0666666666666667,0.866666666666667,23093.4568575,23094.374889958,9,23093.523514583,23093.589753833,23094.391664542,23095.251670125,1,0.918032457997469
121,26,2,categorization,0,kitchen,SHINEd_sun_akcjzhbbjlbogpdi.tif,99,0.0666666666666667,0.0666666666666667,1.83333333333333,23095.256552375,23096.270845542,13,23095.318135375,23095.37929575,23096.2810575,23098.107766708,0,1.01429316699796
121,27,2,categorization,0,kitchen,SHINEd_sun_admlmbcdswaszruo.tif,79,0.0666666666666667,0.0666666666666667,0.7,23098.12730325,23098.97965425,9,23098.194452875,23098.255673667,23098.995215042,23099.688553292,1,0.852351000001363
121,28,2,categorization,0,kitchen,SHINEd_sun_aexklacwqwezaorf.tif,84,0.0666666666666667,0.0666666666666667,1.33333333333333,23099.695262,23100.598772833,9,23099.757089833,23099.818003042,23100.603105833,23101.929819125,1,0.903510832999018
121,29,2,categorization,0,kitchen,SHINEd_sun_agorklincwxrdtga.tif,87,0.0666666666666667,0.0666666666666667,1.33333333333333,23101.947936167,23102.7481895,9,23102.014424625,23102.080355875,23102.768837208,23104.095541417,1,0.800253333000001
121,30,2,categorization,0,kitchen,SHINEd_sun_abrcnpqqhmjwekyf.tif,73,0.0666666666666667,0.0666666666666667,1.38333333333333,23104.114561792,23104.794278708,9,23104.181017958,23104.243672833,23104.817130625,23106.193821125,1,0.679716915998142
121,31,2,categorization,0,bathroom,SHINEd_sun_apkruvsevgegsdwp.tif,44,0.0666666666666667,0.0666666666666667,1.25,23106.20398975,23106.807619208,9,23106.268575458,23106.337653,23106.827125792,23108.070494375,0,0.603629458000796
121,32,2,categorization,0,kitchen,SHINEd_sun_acgtpgfybqjmzeyw.tif,75,0.0666666666666667,0.0666666666666667,1.55,23108.088002042,23108.724716375,9,23108.156062625,23108.219967125,23108.74280225,23110.286163208,1,0.636714332998963
121,33,2,categorization,0,bathroom,SHINEd_sun_alotolagknyrgtsk.tif,35,0.0666666666666667,0.0666666666666667,1.61666666666667,23110.296942042,23110.930950292,9,23110.363229,23110.429783875,23110.952970625,23112.563020042,0,0.634008249999169
121,34,2,categorization,0,bathroom,SHINEd_sun_abjtwfukuwddzted.tif,15,0.0666666666666667,0.0666666666666667,1.33333333333333,23112.582860125,23113.236206125,9,23112.649832625,23112.715572958,23113.25501875,23114.581734583,0,0.653345999999146
121,35,2,categorization,0,kitchen,SHINEd_sun_acwjdupvyjsugpay.tif,76,0.0666666666666667,0.0666666666666667,0.833333333333333,23114.596511667,23115.18435575,9,23114.663081,23114.729402417,23115.202240625,23116.028960208,1,0.587844082998345
121,36,2,categorization,0,bathroom,SHINEd_sun_aspsyogrekjtfozg.tif,50,0.0666666666666667,0.0666666666666667,1.45,23116.046334667,23117.239722542,13,23116.112825333,23116.179154667,23117.248550375,23118.691931292,1,1.19338787499873
121,37,2,categorization,0,bathroom,SHINEd_sun_agrwbmhcpmfuwmsg.tif,24,0.0666666666666667,0.0666666666666667,0.933333333333333,23118.709488667,23119.618547833,13,23118.777295167,23118.842780208,23119.649408375,23120.576080833,1,0.909059166002407
121,38,2,categorization,0,kitchen,SHINEd_sun_aaxxjlsuzvqlgylf.tif,68,0.0666666666666667,0.0666666666666667,1.65,23120.581553875,23121.326687917,9,23120.643293167,23120.704386958,23121.340181458,23122.983570083,1,0.745134042001155
121,39,2,categorization,0,kitchen,SHINEd_labelme_kxvouciolcpqplr.tif,62,0.0666666666666667,0.0666666666666667,1.23333333333333,23123.001754417,23123.764193042,9,23123.068544917,23123.13477125,23123.791237625,23125.01795375,1,0.762438624999049
121,40,2,categorization,0,bathroom,SHINEd_sun_ahijqszoswveeyji.tif,28,0.0666666666666667,0.0666666666666667,0.766666666666667,23125.036193625,23125.719445333,9,23125.103121125,23125.169129875,23125.742572125,23126.502627708,0,0.683251708000171
121,41,2,categorization,0,kitchen,SHINEd_sun_abdxkyyxwfskuaqb.tif,70,0.0666666666666667,0.0666666666666667,1.78333333333333,23126.519996042,23127.262933458,9,23126.58712025,23126.652967792,23127.272151708,23129.04887525,1,0.742937416001951
121,42,2,categorization,0,bathroom,SHINEd_sun_amzlamotzwfkwjco.tif,37,0.0666666666666667,0.0666666666666667,1.11666666666667,23129.065020875,23129.536470292,9,23129.131826583,23129.1975025,23129.552368083,23130.662403708,0,0.471449417000258
121,43,2,categorization,0,bathroom,SHINEd_sun_aggnnqpdorgxpvce.tif,21,0.0666666666666667,0.0666666666666667,1.85,23130.6738495,23131.315108667,9,23130.7391825,23130.806754917,23131.329016292,23133.172383208,0,0.641259167001408
121,44,2,categorization,0,kitchen,SHINEd_sun_afuyedyxivkhecmu.tif,85,0.0666666666666667,0.0666666666666667,0.733333333333333,23133.189903083,23134.028734875,9,23133.258363,23133.322704583,23134.045352958,23134.772063875,1,0.838831791999837
121,45,2,categorization,0,kitchen,SHINEd_sun_acfmftudsenhrfhy.tif,74,0.0666666666666667,0.0666666666666667,0.783333333333333,23134.788262125,23135.518799375,9,23134.850957167,23134.911121667,23135.5299885,23136.306658792,1,0.730537250001362
121,46,2,categorization,0,kitchen,SHINEd_sun_auaiucuqpdausiva.tif,102,0.0666666666666667,0.0666666666666667,1.5,23136.311584667,23136.991362917,9,23136.373247083,23136.434370792,23137.003380417,23138.496747375,1,0.679778249999799
121,47,2,categorization,0,bathroom,SHINEd_sun_afcoljnjfoxjtgja.tif,20,0.0666666666666667,0.0666666666666667,0.733333333333333,23138.513419208,23139.103876708,9,23138.578369708,23138.646195833,23139.11730425,23139.844009375,0,0.590457499998593
121,48,2,categorization,0,kitchen,SHINEd_sun_ajcbwwvdlsvjyzje.tif,96,0.0666666666666667,0.0666666666666667,1.1,23139.860394167,23140.6075875,9,23139.927399792,23139.993119625,23140.611782125,23141.705162042,1,0.747193332997995
121,49,2,categorization,0,kitchen,SHINEd_sun_aamedkxepzlwuxes.tif,65,0.0666666666666667,0.0666666666666667,1.6,23141.714964542,23142.321597083,9,23141.780463917,23141.848042208,23142.336408583,23143.929782583,1,0.606632540999271
121,50,2,categorization,0,kitchen,SHINEd_sun_aapllqyqlykszopd.tif,66,0.0666666666666667,0.0666666666666667,1.06666666666667,23143.94685325,23144.433731792,9,23144.013920042,23144.079792875,23144.451822375,23145.511863792,1,0.486878542000341
121,1,3,categorization,0,kitchen,SHINEd_sun_aypmqwcualkenuoe.tif,109,0.0666666666666667,0.0666666666666667,0.85,23151.923334125,23152.719006375,9,23151.985872125,23152.046128833,23152.731337333,23153.57467525,1,0.795672249998461
121,2,3,categorization,0,bathroom,SHINEd_sun_afcoljnjfoxjtgja.tif,20,0.0666666666666667,0.0666666666666667,1.65,23153.580387375,23154.271195167,9,23153.642015042,23153.702997792,23154.288136208,23155.931516208,0,0.690807791997941
121,3,3,categorization,0,bathroom,SHINEd_sun_awnqiikzaispgmwo.tif,56,0.0666666666666667,0.0666666666666667,0.783333333333333,23155.949261875,23156.843440583,9,23156.015386458,23156.082185917,23156.872220333,23157.648893542,0,0.894178708000254
121,4,3,categorization,0,kitchen,SHINEd_sun_aadbddgrdsjugojn.tif,64,0.0666666666666667,0.0666666666666667,0.933333333333333,23157.654639208,23158.438887167,9,23157.716332917,23157.777323542,23158.446084042,23159.372755708,1,0.784247958999913
121,5,3,categorization,0,bathroom,SHINEd_sun_agguqiubmwhqqunb.tif,22,0.0666666666666667,0.0666666666666667,0.866666666666667,23159.378537625,23160.0956985,9,23159.440342042,23159.50120025,23160.103524042,23160.963528208,0,0.717160874999536
121,6,3,categorization,0,bathroom,SHINEd_sun_agrwbmhcpmfuwmsg.tif,24,0.0666666666666667,0.0666666666666667,1.11666666666667,23160.968913542,23161.655464708,9,23161.030593667,23161.09179525,23161.660800292,23162.770834792,0,0.686551165999845
121,7,3,categorization,0,bathroom,SHINEd_sun_ambriybtogmepttm.tif,36,0.0666666666666667,0.0666666666666667,0.966666666666667,23162.780115042,23163.729479917,9,23162.845463292,23162.913307375,23163.753448875,23164.713471167,0,0.949364875003084
121,8,3,categorization,0,bathroom,SHINEd_sun_ausgutylgojavyoq.tif,53,0.0666666666666667,0.0666666666666667,1.78333333333333,23164.720435708,23165.5268725,13,23164.782344542,23164.843066583,23165.545609042,23167.322316542,1,0.806436791997839
121,9,3,categorization,0,kitchen,SHINEd_sun_agorklincwxrdtga.tif,87,0.0666666666666667,0.0666666666666667,1.55,23167.338361917,23168.120761,9,23167.405758625,23167.4713915,23168.145230958,23169.688611083,1,0.782399082996562
121,10,3,categorization,0,bathroom,SHINEd_sun_avhrdrntsqrjzccq.tif,55,0.0666666666666667,0.0666666666666667,1.41666666666667,23169.704926375,23170.250235625,9,23169.7718065,23169.838332875,23170.276636542,23171.686681625,0,0.545309249999264
121,11,3,categorization,0,kitchen,SHINEd_sun_agubuxuukhzyzpdp.tif,88,0.0666666666666667,0.0666666666666667,0.8,23171.704963375,23172.354115,9,23171.77179175,23171.838179083,23172.378445708,23173.171830417,1,0.649151624998922
121,12,3,categorization,0,kitchen,SHINEd_sun_acwjdupvyjsugpay.tif,76,0.0666666666666667,0.0666666666666667,1.28333333333333,23173.187498167,23173.855316875,9,23173.254142583,23173.320154,23173.872596292,23175.149327375,1,0.667818707999686
121,13,3,categorization,0,kitchen,SHINEd_sun_aunzlwrbjumxhwdj.tif,103,0.0666666666666667,0.0666666666666667,1.66666666666667,23175.167032708,23175.972947292,9,23175.233696625,23175.299785708,23175.989030833,23177.649087792,1,0.805914584001584
121,14,3,categorization,0,bathroom,SHINEd_sun_acgyywnybuveqsro.tif,18,0.0666666666666667,0.0666666666666667,1.81666666666667,23177.667229542,23178.491385792,13,23177.734181833,23177.800135875,23178.505853333,23180.315881292,1,0.824156250000669
121,15,3,categorization,0,bathroom,SHINEd_sun_apjevzvycyhuqghb.tif,43,0.0666666666666667,0.0666666666666667,1.35,23180.331889167,23181.027386958,9,23180.398670042,23180.464687667,23181.054079833,23182.39744825,0,0.695497791002708
121,16,3,categorization,0,kitchen,SHINEd_sun_aggjlwcdjsjcaemh.tif,86,0.0666666666666667,0.0666666666666667,0.916666666666667,23182.415739208,23183.052005958,9,23182.482422625,23182.548794333,23183.071718,23183.981773375,1,0.636266749999777
121,17,3,categorization,0,kitchen,SHINEd_labelme_rykdqxenmhulbdn.tif,63,0.0666666666666667,0.0666666666666667,0.916666666666667,23183.997969375,23184.670557375,9,23184.064771375,23184.122116667,23184.673970583,23185.583974708,1,0.672588000001269
121,18,3,categorization,0,bathroom,SHINEd_sun_agyqfjcfkdcydepw.tif,25,0.0666666666666667,0.0666666666666667,1.31666666666667,23185.588946583,23186.390551958,9,23185.65056725,23185.711687917,23186.396889292,23187.706932667,0,0.801605374999781
121,19,3,categorization,0,bathroom,SHINEd_labelme_sfxiulhjbhlyiyt.tif,11,0.0666666666666667,0.0666666666666667,1.45,23187.723314917,23188.182805125,9,23187.789917125,23187.856203625,23188.212614375,23189.655986708,0,0.459490208002535
121,20,3,categorization,0,bathroom,SHINEd_sun_apkruvsevgegsdwp.tif,44,0.0666666666666667,0.0666666666666667,0.95,23189.67283225,23190.018563417,9,23189.7397265,23189.806036542,23190.045395583,23190.988771833,0,0.345731167002668
121,21,3,categorization,0,bathroom,SHINEd_sun_aofnryafpsjimzsb.tif,40,0.0666666666666667,0.0666666666666667,1.38333333333333,23191.004734417,23191.767085292,13,23191.071314708,23191.13764,23191.773687208,23193.150393833,1,0.762350874996628
121,22,3,categorization,0,kitchen,SHINEd_sun_ajcbwwvdlsvjyzje.tif,96,0.0666666666666667,0.0666666666666667,1.16666666666667,23193.166966375,23194.120673333,9,23193.233928625,23193.299896167,23194.139421125,23195.299468417,1,0.953706958000112
121,23,3,categorization,0,kitchen,SHINEd_sun_aaxxjlsuzvqlgylf.tif,68,0.0666666666666667,0.0666666666666667,1.61666666666667,23195.313242958,23196.02925275,13,23195.38003425,23195.445998333,23196.052656583,23197.662691583,0,0.716009791998658
121,24,3,categorization,0,kitchen,SHINEd_sun_axyyrmzcupyhlivc.tif,107,0.0666666666666667,0.0666666666666667,1.38333333333333,23197.680996,23198.175375417,9,23197.747920208,23197.813882292,23198.203775875,23199.580475542,1,0.494379416999436
121,25,3,categorization,0,kitchen,SHINEd_sun_adgqasybjyktddhj.tif,78,0.0666666666666667,0.0666666666666667,1.78333333333333,23199.598614542,23200.198723417,9,23199.665376375,23199.731856417,23200.221907333,23201.99862875,1,0.600108875001752
121,26,3,categorization,0,bathroom,SHINEd_sun_apeeialkgkuxddgh.tif,42,0.0666666666666667,0.0666666666666667,0.783333333333333,23202.0168905,23202.651625458,13,23202.083909417,23202.149716625,23202.673337958,23203.4500545,1,0.634734957999171
121,27,3,categorization,0,bathroom,SHINEd_sun_aoybiabnpadelefl.tif,41,0.0666666666666667,0.0666666666666667,1.65,23203.465589042,23204.327109208,9,23203.532586708,23203.598450458,23204.333727917,23205.977120833,0,0.861520165999536
121,28,3,categorization,0,kitchen,SHINEd_sun_admlmbcdswaszruo.tif,79,0.0666666666666667,0.0666666666666667,1.86666666666667,23205.993545167,23207.041907917,13,23206.061673125,23206.126618333,23207.067145042,23208.927197167,0,1.0483627499998
121,29,3,categorization,0,kitchen,SHINEd_sun_aenotlpyftoioydp.tif,82,0.0666666666666667,0.0666666666666667,1.23333333333333,23208.947288917,23209.592828833,9,23209.013935542,23209.080194875,23209.620178292,23210.846898458,1,0.645539916000416
121,30,3,categorization,0,bathroom,SHINEd_sun_aqrpegblszgcoujh.tif,48,0.0666666666666667,0.0666666666666667,0.7,23210.864515333,23211.576095625,13,23210.931677167,23210.997603333,23211.604337875,23212.297714333,1,0.711580292001599
121,31,3,categorization,0,bathroom,SHINEd_sun_apkxzenqapsujocq.tif,45,0.0666666666666667,0.0666666666666667,0.716666666666667,23212.306932833,23213.351076917,13,23212.3732625,23212.440184667,23213.359048,23214.069052875,1,1.04414408400044
121,32,3,categorization,0,kitchen,SHINEd_sun_aeqdocilnnpuvuhx.tif,83,0.0666666666666667,0.0666666666666667,1.05,23214.073888542,23214.7668595,9,23214.135628875,23214.196654917,23214.782237083,23215.825615833,1,0.692970957999933
121,33,3,categorization,0,bathroom,SHINEd_sun_azqyogdvyhahyram.tif,60,0.0666666666666667,0.0666666666666667,1.1,23215.838169875,23216.548927333,13,23215.903481,23215.969406208,23216.575963083,23217.6693285,1,0.710757457996806
121,34,3,categorization,0,bathroom,SHINEd_sun_auzqhkafidnkrwmo.tif,54,0.0666666666666667,0.0666666666666667,1.13333333333333,23217.686358333,23218.430823208,9,23217.7529465,23217.81730025,23218.435793542,23219.56250175,0,0.744464874998812
121,35,3,categorization,0,bathroom,SHINEd_sun_aghyqhbptboemmoq.tif,23,0.0666666666666667,0.0666666666666667,1.38333333333333,23219.571040375,23220.342463708,13,23219.635991667,23219.703744583,23220.359397458,23221.736114042,1,0.771423332997074
121,36,3,categorization,0,bathroom,SHINEd_sun_apmqjbnwghzuhhzh.tif,46,0.0666666666666667,0.0666666666666667,1.5,23221.753505958,23222.4556285,13,23221.820236667,23221.886446917,23222.476251,23223.969620125,1,0.702122541999415
121,37,3,categorization,0,kitchen,SHINEd_sun_ahdycvpopffkzzsu.tif,90,0.0666666666666667,0.0666666666666667,1.61666666666667,23223.9886985,23225.245053917,13,23224.055428083,23224.121575,23225.262237125,23226.872278083,0,1.25635541699739
121,38,3,categorization,0,bathroom,SHINEd_sun_ahcvzmoyaycdoftf.tif,27,0.0666666666666667,0.0666666666666667,0.983333333333333,23226.892142958,23227.763576292,13,23226.959173917,23227.025560542,23227.781943833,23228.75861425,1,0.871433333999448
121,39,3,categorization,0,bathroom,SHINEd_sun_aunuadmjocsddsrl.tif,52,0.0666666666666667,0.0666666666666667,1.3,23228.763886417,23229.454444,9,23228.825677875,23228.886721875,23229.471724917,23230.765106833,0,0.690557582998736
121,40,3,categorization,0,bathroom,SHINEd_sun_abjtwfukuwddzted.tif,15,0.0666666666666667,0.0666666666666667,1.03333333333333,23230.78201225,23231.610974917,9,23230.849241292,23230.915191333,23231.63874125,23232.665452333,0,0.828962666997541
121,41,3,categorization,0,kitchen,SHINEd_sun_aexklacwqwezaorf.tif,84,0.0666666666666667,0.0666666666666667,1.45,23232.678648958,23233.652550958,13,23232.7442235,23232.810216625,23233.666179958,23235.109552125,0,0.973901999997906
121,42,3,categorization,0,kitchen,SHINEd_sun_auaiucuqpdausiva.tif,102,0.0666666666666667,0.0666666666666667,1.23333333333333,23235.13021425,23235.843887083,9,23235.197311208,23235.263407583,23235.870460208,23237.097159917,1,0.713672833000601
121,43,3,categorization,0,kitchen,SHINEd_sun_aegoxogugdkwpmpj.tif,80,0.0666666666666667,0.0666666666666667,1.26666666666667,23237.115092208,23237.931111583,13,23237.182324833,23237.248234708,23237.955109792,23239.215167833,0,0.816019374997268
121,44,3,categorization,0,kitchen,SHINEd_sun_akcjzhbbjlbogpdi.tif,99,0.0666666666666667,0.0666666666666667,1.03333333333333,23239.232874292,23240.041698875,9,23239.300151625,23239.366074625,23240.054718458,23241.081423625,1,0.808824583000387
121,45,3,categorization,0,kitchen,SHINEd_sun_awcpdzzznmweyyhv.tif,106,0.0666666666666667,0.0666666666666667,1.31666666666667,23241.089503375,23241.918511125,13,23241.151403917,23241.212292125,23241.930752958,23243.240802333,0,0.829007750002347
121,46,3,categorization,0,bathroom,SHINEd_sun_aljolscmmzydegqp.tif,33,0.0666666666666667,0.0666666666666667,1.7,23243.257975542,23243.942106458,9,23243.3257595,23243.391353417,23243.964074833,23245.657448708,0,0.68413091599723
121,47,3,categorization,0,bathroom,SHINEd_sun_amzlamotzwfkwjco.tif,37,0.0666666666666667,0.0666666666666667,1.35,23245.675547583,23246.417786417,13,23245.742135833,23245.808693625,23246.449151583,23247.792531167,1,0.74223883400191
121,48,3,categorization,0,bathroom,SHINEd_sun_ahqjwnzgolcaoidx.tif,29,0.0666666666666667,0.0666666666666667,0.8,23247.815388833,23248.642041875,9,23247.882266292,23247.94820375,23248.653038125,23249.446418958,0,0.826653041996906
121,49,3,categorization,0,kitchen,SHINEd_sun_abftihopvusyfakt.tif,71,0.0666666666666667,0.0666666666666667,0.766666666666667,23249.458493167,23250.150531708,13,23249.521897333,23249.582115208,23250.16750825,23250.927514,0,0.692038541001239
121,50,3,categorization,0,bathroom,SHINEd_sun_asfwthctfqerjvxr.tif,49,0.0666666666666667,0.0666666666666667,1.38333333333333,23250.933271958,23251.67859375,9,23250.995067833,23251.056110375,23251.691759125,23253.068468708,0,0.745321791997412
121,1,4,categorization,0,bathroom,SHINEd_sun_aavhrsfjbserjtht.tif,13,0.0666666666666667,0.0666666666666667,1,23260.962217333,23261.862451625,9,23261.024385708,23261.085257417,23261.870479333,23262.86381725,0,0.900234291999368
121,2,4,categorization,0,kitchen,SHINEd_sun_aehawpgmrlhlvcow.tif,81,0.0666666666666667,0.0666666666666667,0.966666666666667,23262.868663875,23263.807187542,13,23262.930368583,23262.991653458,23263.827308708,23264.787312417,0,0.938523666998663
121,3,4,categorization,0,kitchen,SHINEd_sun_abdxkyyxwfskuaqb.tif,70,0.0666666666666667,0.0666666666666667,1.75,23264.793557458,23265.807316917,9,23264.8552805,23264.916711042,23265.819228875,23267.56261075,1,1.01375945899781
121,4,4,categorization,0,bathroom,SHINEd_sun_acegryoqftbzowsg.tif,17,0.0666666666666667,0.0666666666666667,1.68333333333333,23267.580725708,23268.679704125,9,23267.647471292,23267.713816458,23268.70359725,23270.380299583,0,1.09897841699785
121,5,4,categorization,0,bathroom,SHINEd_sun_alkosphxlxwjwgjd.tif,34,0.0666666666666667,0.0666666666666667,1.58333333333333,23270.3973105,23271.048895833,13,23270.464048125,23270.530134625,23271.070403583,23272.647130917,1,0.651585332998366
121,6,4,categorization,0,bathroom,SHINEd_sun_acduarbnmmoglmiv.tif,16,0.0666666666666667,0.0666666666666667,1,23272.665058125,23273.585851333,13,23272.731779792,23272.797896833,23273.604007375,23274.597345708,1,0.92079320799894
121,7,4,categorization,0,kitchen,SHINEd_labelme_kxvouciolcpqplr.tif,62,0.0666666666666667,0.0666666666666667,1.33333333333333,23274.60254525,23275.375175458,9,23274.664285792,23274.725367625,23275.393798125,23276.720507,1,0.772630208000919
121,8,4,categorization,0,bathroom,SHINEd_sun_anhioqovhscjqqwb.tif,38,0.0666666666666667,0.0666666666666667,1.26666666666667,23276.737932125,23277.324559125,13,23276.803288208,23276.868148333,23277.339989375,23278.600037,1,0.58662700000059
121,9,4,categorization,0,kitchen,SHINEd_sun_aapllqyqlykszopd.tif,66,0.0666666666666667,0.0666666666666667,0.883333333333333,23278.615553542,23279.279802667,9,23278.681606708,23278.748290375,23279.305963417,23280.182683625,1,0.664249124998605
121,10,4,categorization,0,kitchen,SHINEd_sun_acxkpeoqbwcxfvip.tif,77,0.0666666666666667,0.0666666666666667,1.26666666666667,23280.196906167,23281.318734417,9,23280.262370833,23280.329332083,23281.331590708,23282.591632208,1,1.12182825000127
121,11,4,categorization,0,bathroom,SHINEd_sun_atstyziqcmkahyxk.tif,51,0.0666666666666667,0.0666666666666667,2,23282.609497458,23283.589860292,13,23282.676434292,23282.742817708,23283.616241125,23285.609609042,1,0.980362833997788
121,12,4,categorization,0,kitchen,SHINEd_labelme_brsyyvweiuaazfr.tif,61,0.0666666666666667,0.0666666666666667,0.733333333333333,23285.631691625,23286.385781167,9,23285.698589083,23285.764555167,23286.404242292,23287.13091425,1,0.754089541998837
121,13,4,categorization,0,bathroom,SHINEd_sun_ahaulkltgpkeeemi.tif,26,0.0666666666666667,0.0666666666666667,0.883333333333333,23287.135998292,23288.190144667,13,23287.19778975,23287.258801333,23288.1941645,23289.070835167,1,1.05414637500144
121,14,4,categorization,0,bathroom,SHINEd_sun_aclfzgynxzxlbepz.tif,19,0.0666666666666667,0.0666666666666667,0.983333333333333,23289.077620417,23290.294032333,13,23289.139422125,23289.200423167,23290.302185583,23291.278856958,1,1.21641191600065
121,15,4,categorization,0,kitchen,SHINEd_sun_ahpczsiumwwocjkv.tif,92,0.0666666666666667,0.0666666666666667,1.56666666666667,23291.283724875,23292.4541745,13,23291.345372042,23291.406796833,23292.458904833,23294.018951167,0,1.17044962499858
121,16,4,categorization,0,bathroom,SHINEd_sun_aleqenyvunhactkl.tif,32,0.0666666666666667,0.0666666666666667,1.08333333333333,23294.035646083,23295.051016292,13,23294.104240083,23294.168817542,23295.075900333,23296.152599,1,1.01537020899923
121,17,4,categorization,0,bathroom,SHINEd_sun_axyrejkiiaqiurjk.tif,59,0.0666666666666667,0.0666666666666667,0.75,23296.163048792,23297.189970458,13,23296.227825125,23296.2940675,23297.217717708,23297.961094458,1,1.02692166599809
121,18,4,categorization,0,kitchen,SHINEd_sun_ajkqhtgcbgpcwrwn.tif,97,0.0666666666666667,0.0666666666666667,0.966666666666667,23297.975052,23298.727158125,9,23298.041540417,23298.108284042,23298.743635292,23299.703639875,1,0.752106124997226
121,19,4,categorization,0,kitchen,SHINEd_sun_abpwyqmlzafvklqo.tif,72,0.0666666666666667,0.0666666666666667,1.63333333333333,23299.708566792,23301.078616667,9,23299.770364042,23299.831319292,23301.083823042,23302.710529375,1,1.3700498750004
121,20,4,categorization,0,bathroom,SHINEd_sun_axxbkopsgyouuebh.tif,58,0.0666666666666667,0.0666666666666667,1.46666666666667,23302.731019333,23303.878984083,13,23302.799702583,23302.863592375,23303.903827042,23305.363879625,1,1.14796474999821
121,21,4,categorization,0,kitchen,SHINEd_sun_ahljzhgcdpomplvg.tif,91,0.0666666666666667,0.0666666666666667,0.933333333333333,23305.381548917,23306.2859375,9,23305.44843425,23305.51493025,23306.303737417,23307.230409625,1,0.904388582999673
121,22,4,categorization,0,bathroom,SHINEd_sun_aapitsgbtktqubfy.tif,12,0.0666666666666667,0.0666666666666667,1.45,23307.235538125,23308.245951167,13,23307.297340375,23307.358464875,23308.260127208,23309.703512167,1,1.0104130419968
121,23,4,categorization,0,kitchen,SHINEd_sun_ahywdevtimnqcsln.tif,94,0.0666666666666667,0.0666666666666667,0.966666666666667,23309.716017167,23310.56301275,9,23309.782412917,23309.849273125,23310.589227833,23311.549232917,1,0.846995583000535
121,24,4,categorization,0,kitchen,SHINEd_sun_abdenxonkemggwsq.tif,69,0.0666666666666667,0.0666666666666667,0.816666666666667,23311.554247625,23312.662366083,13,23311.616073,23311.67706175,23312.679365,23313.489368792,0,1.10811845799981
121,25,4,categorization,0,kitchen,SHINEd_sun_aqeaevwwwjoqhzvl.tif,101,0.0666666666666667,0.0666666666666667,1.96666666666667,23313.494230167,23314.462661958,9,23313.555938917,23313.6169965,23314.468872875,23316.42892675,1,0.968431790999603
121,26,4,categorization,0,bathroom,SHINEd_sun_akiytfaagpdsphgz.tif,31,0.0666666666666667,0.0666666666666667,0.916666666666667,23316.446757583,23317.333649333,13,23316.513490292,23316.579572,23317.352446125,23318.262451583,1,0.886891750000359
121,27,4,categorization,0,kitchen,SHINEd_sun_akchetnepxlcxhsu.tif,98,0.0666666666666667,0.0666666666666667,1.28333333333333,23318.267402625,23319.182993833,13,23318.329089417,23318.390115333,23319.192028458,23320.468748625,0,0.915591208002297
121,28,4,categorization,0,kitchen,SHINEd_sun_aymvwlarqodbwuoc.tif,108,0.0666666666666667,0.0666666666666667,1.8,23320.487946333,23321.385440583,13,23320.554783458,23320.621124792,23321.410995833,23323.204388,0,0.897494249998999
121,29,4,categorization,0,bathroom,SHINEd_sun_aspsyogrekjtfozg.tif,50,0.0666666666666667,0.0666666666666667,1.33333333333333,23323.222982792,23323.883940958,13,23323.289708083,23323.355887375,23323.912531375,23325.239236417,1,0.660958166001365
121,30,4,categorization,0,kitchen,SHINEd_sun_acgtpgfybqjmzeyw.tif,75,0.0666666666666667,0.0666666666666667,1.06666666666667,23325.2575535,23326.144972208,9,23325.324371792,23325.3901015,23326.162823417,23327.222875042,1,0.887418708000041
121,31,4,categorization,0,kitchen,SHINEd_sun_azmutvzbxypaceni.tif,110,0.0666666666666667,0.0666666666666667,1.03333333333333,23327.234133042,23328.210989375,13,23327.299308167,23327.365737042,23328.239469375,23329.266191625,0,0.976856332999887
121,32,4,categorization,0,bathroom,SHINEd_sun_ahijqszoswveeyji.tif,28,0.0666666666666667,0.0666666666666667,0.733333333333333,23329.275052417,23330.574356292,9,23329.33688225,23329.39786,23330.5832505,23331.309921417,0,1.29930387499917
121,33,4,categorization,0,kitchen,SHINEd_sun_amjjdeyrggfqgmom.tif,100,0.0666666666666667,0.0666666666666667,0.766666666666667,23331.314670875,23332.814485375,9,23331.376430875,23331.437358167,23332.822809417,23333.582814542,1,1.49981449999905
121,34,4,categorization,0,kitchen,SHINEd_sun_auticobqsbwgoppi.tif,104,0.0666666666666667,0.0666666666666667,1.1,23333.587570083,23334.990269417,9,23333.64940025,23333.7102855,23334.995729583,23336.089118583,1,1.40269933400123
121,35,4,categorization,0,kitchen,SHINEd_sun_aixorpehvfykdynp.tif,95,0.0666666666666667,0.0666666666666667,1.81666666666667,23336.097358167,23337.524472125,9,23336.161981125,23336.227313458,23337.552112042,23339.362156708,1,1.42711395799779
121,36,4,categorization,0,kitchen,SHINEd_sun_avszsnwsbuqfgzbn.tif,105,0.0666666666666667,0.0666666666666667,0.883333333333333,23339.379948292,23340.499735042,9,23339.44676975,23339.513595917,23340.520700292,23341.397370958,1,1.11978675000137
121,37,4,categorization,0,kitchen,SHINEd_sun_afuyedyxivkhecmu.tif,85,0.0666666666666667,0.0666666666666667,1.7,23341.402290042,23342.541954625,9,23341.464104833,23341.525105042,23342.560359042,23344.25373,1,1.13966458300274
121,38,4,categorization,0,bathroom,SHINEd_sun_apynckhmoftszqoq.tif,47,0.0666666666666667,0.0666666666666667,1.58333333333333,23344.263171792,23344.927131833,13,23344.329029,23344.396279208,23344.952902,23346.529602375,1,0.663960040998063
121,39,4,categorization,0,kitchen,SHINEd_sun_agzzivivdpnawacl.tif,89,0.0666666666666667,0.0666666666666667,0.833333333333333,23346.550039625,23347.949760792,9,23346.617651792,23346.683454958,23347.975612208,23348.802284042,1,1.39972116699937
121,40,4,categorization,0,kitchen,SHINEd_sun_acfmftudsenhrfhy.tif,74,0.0666666666666667,0.0666666666666667,0.95,23348.807574542,23349.782577333,13,23348.86937025,23348.930689458,23349.799738917,23350.74307525,0,0.975002791001316
121,41,4,categorization,0,bathroom,SHINEd_sun_aggnnqpdorgxpvce.tif,21,0.0666666666666667,0.0666666666666667,1.06666666666667,23350.747863625,23351.638220458,9,23350.8097665,23350.870595042,23351.656184583,23352.716221292,0,0.890356832998805
121,42,4,categorization,0,bathroom,SHINEd_sun_anryaplzeujmzfkd.tif,39,0.0666666666666667,0.0666666666666667,1.68333333333333,23352.727864083,23353.590547,13,23352.792593292,23352.857896042,23353.614845083,23355.291547583,1,0.862682916998892
121,43,4,categorization,0,bathroom,SHINEd_sun_ajlawzvmubibwbpy.tif,30,0.0666666666666667,0.0666666666666667,1.31666666666667,23355.314015,23355.981532667,9,23355.381055458,23355.447129375,23356.00378625,23357.313831542,0,0.667517666999629
121,44,4,categorization,0,bathroom,SHINEd_sun_abapwbhyhkfixyex.tif,14,0.0666666666666667,0.0666666666666667,1.61666666666667,23357.331232042,23358.135261,13,23357.397992917,23357.464059667,23358.154025708,23359.7640635,1,0.804028957998526
121,45,4,categorization,0,kitchen,SHINEd_sun_abrcnpqqhmjwekyf.tif,73,0.0666666666666667,0.0666666666666667,1.15,23359.779682917,23360.214666583,13,23359.846825958,23359.912735875,23360.234842667,23361.378227125,0,0.434983666000335
121,46,4,categorization,0,kitchen,SHINEd_sun_ahspylgoovwmwvgk.tif,93,0.0666666666666667,0.0666666666666667,1.25,23361.396727917,23362.696113167,9,23361.46368875,23361.529505542,23362.721588625,23363.964967167,1,1.29938525000034
121,47,4,categorization,0,bathroom,SHINEd_sun_alotolagknyrgtsk.tif,35,0.0666666666666667,0.0666666666666667,1.1,23363.983170792,23365.132233208,13,23364.049866458,23364.116091417,23365.156554833,23366.249926417,1,1.14906241600329
121,48,4,categorization,0,bathroom,SHINEd_sun_axldvoqbuvuggfmq.tif,57,0.0666666666666667,0.0666666666666667,0.9,23366.258677917,23367.042585792,9,23366.323624292,23366.389189625,23367.062374583,23367.955758042,0,0.783907875000295
121,49,4,categorization,0,kitchen,SHINEd_sun_aarfiyshqohlwkmo.tif,67,0.0666666666666667,0.0666666666666667,1.3,23367.973017292,23369.085928833,13,23368.039823833,23368.105782583,23369.091619792,23370.385009833,0,1.11291154100036
121,50,4,categorization,0,kitchen,SHINEd_sun_aamedkxepzlwuxes.tif,65,0.0666666666666667,0.0666666666666667,1.25,23370.402597917,23372.453825667,9,23370.470997667,23370.535691167,23372.4712885,23373.714662417,1,2.05122774999836
121,1,5,categorization,0,kitchen,SHINEd_sun_abdxkyyxwfskuaqb.tif,70,0.0666666666666667,0.0666666666666667,1.7,23378.7517,23379.558202167,9,23378.813561958,23378.874778208,23379.576842167,23381.270216292,1,0.806502167000872
121,2,5,categorization,0,kitchen,SHINEd_sun_agzzivivdpnawacl.tif,89,0.0666666666666667,0.0666666666666667,1.81666666666667,23381.288204375,23382.421999,9,23381.356574042,23381.420844792,23382.444408208,23384.254447708,1,1.1337946249987
121,3,5,categorization,0,bathroom,SHINEd_labelme_sfxiulhjbhlyiyt.tif,11,0.0666666666666667,0.0666666666666667,1.23333333333333,23384.2640405,23385.01505425,13,23384.329952958,23384.396893167,23385.036603292,23386.263298958,1,0.75101375000304
121,4,5,categorization,0,kitchen,SHINEd_sun_aehawpgmrlhlvcow.tif,81,0.0666666666666667,0.0666666666666667,1.4,23386.274640667,23387.671756708,13,23386.342999208,23386.407705375,23387.699888375,23389.093273917,0,1.39711604100012
121,5,5,categorization,0,kitchen,SHINEd_sun_aypmqwcualkenuoe.tif,109,0.0666666666666667,0.0666666666666667,1.03333333333333,23389.112883,23389.7697305,13,23389.179803625,23389.245978458,23389.785018,23390.811692417,0,0.656847499998548
121,6,5,categorization,0,kitchen,SHINEd_sun_auticobqsbwgoppi.tif,104,0.0666666666666667,0.0666666666666667,1.38333333333333,23390.823320542,23391.731293708,13,23390.887903667,23390.955332,23391.761830417,23393.138537792,0,0.907973165998555
121,7,5,categorization,0,kitchen,SHINEd_sun_awcpdzzznmweyyhv.tif,106,0.0666666666666667,0.0666666666666667,2,23393.154854375,23393.769384708,13,23393.221489667,23393.287491792,23393.793873125,23395.787259167,0,0.614530333001312
121,8,5,categorization,0,kitchen,SHINEd_sun_aadbddgrdsjugojn.tif,64,0.0666666666666667,0.0666666666666667,1.85,23395.803294167,23396.613802625,13,23395.870119417,23395.935879958,23396.642472667,23398.485861875,0,0.810508458002005
121,9,5,categorization,0,bathroom,SHINEd_sun_agguqiubmwhqqunb.tif,22,0.0666666666666667,0.0666666666666667,0.816666666666667,23398.502358208,23399.068239375,13,23398.569222917,23398.635210292,23399.091848875,23399.901853417,1,0.565881167000043
121,10,5,categorization,0,kitchen,SHINEd_sun_aunzlwrbjumxhwdj.tif,103,0.0666666666666667,0.0666666666666667,1.85,23399.907013125,23400.758118458,9,23399.968807417,23400.029792375,23400.764991667,23402.608376625,1,0.851105333000305
121,11,5,categorization,0,kitchen,SHINEd_sun_auaiucuqpdausiva.tif,102,0.0666666666666667,0.0666666666666667,0.733333333333333,23402.631028708,23403.9503005,13,23402.697789542,23402.764174625,23403.967093375,23404.693765458,0,1.3192717919992
121,12,5,categorization,0,bathroom,SHINEd_sun_aoybiabnpadelefl.tif,41,0.0666666666666667,0.0666666666666667,0.716666666666667,23404.69862425,23405.373757542,9,23404.760477167,23404.821641833,23405.390409458,23406.100414167,0,0.675133291999373
121,13,5,categorization,0,kitchen,SHINEd_labelme_kxvouciolcpqplr.tif,62,0.0666666666666667,0.0666666666666667,0.833333333333333,23406.105331667,23407.109836417,9,23406.167143375,23406.228412542,23407.1140495,23407.9407215,1,1.00450474999889
121,14,5,categorization,0,bathroom,SHINEd_sun_aghyqhbptboemmoq.tif,23,0.0666666666666667,0.0666666666666667,0.95,23407.945644708,23408.790444875,13,23408.007295208,23408.068316292,23408.803609333,23409.7469475,1,0.844800167000358
121,15,5,categorization,0,kitchen,SHINEd_sun_acxkpeoqbwcxfvip.tif,77,0.0666666666666667,0.0666666666666667,1.96666666666667,23409.752319375,23410.670037333,9,23409.814113958,23409.875013208,23410.676920917,23412.63697525,1,0.917717958000139
121,16,5,categorization,0,kitchen,SHINEd_sun_aamedkxepzlwuxes.tif,65,0.0666666666666667,0.0666666666666667,1.86666666666667,23412.654376458,23413.75066475,9,23412.721053917,23412.787792417,23413.756938625,23415.616996208,1,1.09628829200301
121,17,5,categorization,0,bathroom,SHINEd_sun_awnqiikzaispgmwo.tif,56,0.0666666666666667,0.0666666666666667,1.51666666666667,23415.634569958,23416.406436167,9,23415.701305625,23415.7675965,23416.423578375,23417.9336305,0,0.77186620899738
121,18,5,categorization,0,kitchen,SHINEd_labelme_rykdqxenmhulbdn.tif,63,0.0666666666666667,0.0666666666666667,1.3,23417.950568583,23419.646302875,9,23418.017439625,23418.083309792,23419.652790042,23420.946157542,1,1.69573429199954
121,19,5,categorization,0,bathroom,SHINEd_sun_agrwbmhcpmfuwmsg.tif,24,0.0666666666666667,0.0666666666666667,1.91666666666667,23420.963323958,23422.155009833,9,23421.029640875,23421.09601675,23422.168304083,23424.078357125,0,1.19168587500099
121,20,5,categorization,0,kitchen,SHINEd_sun_abpwyqmlzafvklqo.tif,72,0.0666666666666667,0.0666666666666667,1.23333333333333,23424.096656833,23424.855945833,9,23424.163480208,23424.228068167,23424.884572125,23426.111284125,1,0.759288999997807
121,21,5,categorization,0,bathroom,SHINEd_sun_afcoljnjfoxjtgja.tif,20,0.0666666666666667,0.0666666666666667,0.866666666666667,23426.129846792,23432.645927958,9,23426.195704833,23426.260618708,23432.663477958,23433.5234835,0,6.51608116600255
121,22,5,categorization,0,kitchen,SHINEd_sun_abdenxonkemggwsq.tif,69,0.0666666666666667,0.0666666666666667,0.8,23433.52797225,23435.08648525,13,23433.589582708,23433.65082875,23435.103438083,23435.896775417,0,1.55851299999995
121,23,5,categorization,0,kitchen,SHINEd_sun_acfmftudsenhrfhy.tif,74,0.0666666666666667,0.0666666666666667,1.51666666666667,23435.901863625,23437.022574042,13,23435.963725917,23436.024674417,23437.026995208,23438.537036667,0,1.12071041699892
121,24,5,categorization,0,kitchen,SHINEd_sun_akchetnepxlcxhsu.tif,98,0.0666666666666667,0.0666666666666667,1.18333333333333,23438.552814083,23439.219644875,13,23438.620565125,23438.68576375,23439.242085833,23440.418808875,0,0.666830792000837
121,25,5,categorization,0,bathroom,SHINEd_sun_apmqjbnwghzuhhzh.tif,46,0.0666666666666667,0.0666666666666667,1.6,23440.428774708,23441.294768792,9,23440.4958155,23440.561477667,23441.317905125,23442.911292958,0,0.865994083997066
121,26,5,categorization,0,bathroom,SHINEd_sun_aunuadmjocsddsrl.tif,52,0.0666666666666667,0.0666666666666667,1.56666666666667,23442.929921208,23443.126462833,13,23442.996611917,23443.063080083,23443.152608333,23444.712663,1,0.196541624998645
121,27,5,categorization,0,bathroom,SHINEd_sun_ambriybtogmepttm.tif,36,0.0666666666666667,0.0666666666666667,1.36666666666667,23444.730114792,23445.85181775,9,23444.796976083,23444.863060208,23445.8693695,23447.229431667,0,1.12170295800024
121,28,5,categorization,0,bathroom,SHINEd_sun_aljolscmmzydegqp.tif,33,0.0666666666666667,0.0666666666666667,1.53333333333333,23447.247406458,23447.890101083,13,23447.314046542,23447.380433375,23447.920301958,23449.447024792,1,0.64269462500306
121,29,5,categorization,0,kitchen,SHINEd_sun_abrcnpqqhmjwekyf.tif,73,0.0666666666666667,0.0666666666666667,1.4,23449.465252167,23450.729536375,9,23449.53207725,23449.598109333,23450.756695875,23452.1500665,1,1.26428420800221
121,30,5,categorization,0,kitchen,SHINEd_sun_aymvwlarqodbwuoc.tif,108,0.0666666666666667,0.0666666666666667,1.06666666666667,23452.166800917,23452.82417625,13,23452.232231333,23452.294960542,23452.851428208,23453.911475125,0,0.657375333001255
121,31,5,categorization,0,bathroom,SHINEd_sun_anryaplzeujmzfkd.tif,39,0.0666666666666667,0.0666666666666667,1.63333333333333,23453.921016833,23454.528711042,9,23453.9867845,23454.053952708,23454.542980042,23456.169680542,0,0.607694209000329
121,32,5,categorization,0,kitchen,SHINEd_sun_azmutvzbxypaceni.tif,110,0.0666666666666667,0.0666666666666667,1.8,23456.187717125,23456.668169958,13,23456.252713375,23456.320098625,23456.693071792,23458.486456167,0,0.480452832998708
121,33,5,categorization,0,bathroom,SHINEd_sun_azqyogdvyhahyram.tif,60,0.0666666666666667,0.0666666666666667,1.53333333333333,23458.50467975,23459.120435958,9,23458.571461917,23458.637664292,23459.1434395,23460.670142833,0,0.615756208000676
121,34,5,categorization,0,kitchen,SHINEd_sun_acgtpgfybqjmzeyw.tif,75,0.0666666666666667,0.0666666666666667,0.766666666666667,23460.686360417,23460.969602542,13,23460.753234417,23460.819152167,23460.992370833,23461.752420125,0,0.283242125002289
121,35,5,categorization,0,kitchen,SHINEd_sun_axyyrmzcupyhlivc.tif,107,0.0666666666666667,0.0666666666666667,1.86666666666667,23461.766455167,23461.992482208,9,23461.833399333,23461.899371458,23462.004659208,23463.864702417,1,0.226027041000634
121,36,5,categorization,0,bathroom,SHINEd_sun_auzqhkafidnkrwmo.tif,54,0.0666666666666667,0.0666666666666667,1.13333333333333,23463.882982792,23465.08547625,9,23463.949657542,23464.015880917,23465.101999917,23466.228701833,0,1.20249345799675
121,37,5,categorization,0,bathroom,SHINEd_sun_abapwbhyhkfixyex.tif,14,0.0666666666666667,0.0666666666666667,1.73333333333333,23466.237401417,23467.058076333,9,23466.301838833,23466.370380167,23467.076311125,23468.803034,0,0.820674916001735
121,38,5,categorization,0,bathroom,SHINEd_sun_abjtwfukuwddzted.tif,15,0.0666666666666667,0.0666666666666667,0.766666666666667,23468.817331167,23469.49075675,13,23468.884297125,23468.949968167,23469.505797667,23470.2658145,1,0.673425583001517
121,39,5,categorization,0,kitchen,SHINEd_sun_ahdycvpopffkzzsu.tif,90,0.0666666666666667,0.0666666666666667,1.85,23470.277755833,23471.10208275,9,23470.34392225,23470.401940208,23471.12076,23472.964137042,1,0.824326916997961
121,40,5,categorization,0,kitchen,SHINEd_sun_ahspylgoovwmwvgk.tif,93,0.0666666666666667,0.0666666666666667,0.966666666666667,23472.982420917,23474.248074042,9,23473.049278083,23473.11545725,23474.268592125,23475.228595875,1,1.26565312499952
121,41,5,categorization,0,kitchen,SHINEd_sun_ajkqhtgcbgpcwrwn.tif,97,0.0666666666666667,0.0666666666666667,1.06666666666667,23475.233373542,23475.973541333,13,23475.295185125,23475.356217458,23475.991831375,23477.051882625,0,0.740167791002023
121,42,5,categorization,0,bathroom,SHINEd_sun_aapitsgbtktqubfy.tif,12,0.0666666666666667,0.0666666666666667,1.38333333333333,23477.063213292,23477.738802333,13,23477.12862,23477.194381833,23477.7674645,23479.14417675,1,0.675589040998602
121,43,5,categorization,0,kitchen,SHINEd_sun_aeqdocilnnpuvuhx.tif,83,0.0666666666666667,0.0666666666666667,0.766666666666667,23479.164294125,23479.883084375,13,23479.23096875,23479.297323917,23479.90378675,23480.663841083,0,0.718790250000893
121,44,5,categorization,0,bathroom,SHINEd_sun_amzlamotzwfkwjco.tif,37,0.0666666666666667,0.0666666666666667,0.866666666666667,23480.680045583,23481.758453333,9,23480.7466575,23480.812835208,23481.764879667,23482.624883417,0,1.07840774999931
121,45,5,categorization,0,bathroom,SHINEd_sun_avhrdrntsqrjzccq.tif,55,0.0666666666666667,0.0666666666666667,1.25,23482.629728375,23483.3184355,9,23482.691490083,23482.752576875,23483.338201333,23484.581564917,0,0.688707125002111
121,46,5,categorization,0,bathroom,SHINEd_sun_atstyziqcmkahyxk.tif,51,0.0666666666666667,0.0666666666666667,1.03333333333333,23484.599425458,23484.719912083,9,23484.666186333,23484.733442417,23484.756946667,23485.783660542,0,0.120486625000922
121,47,5,categorization,0,kitchen,SHINEd_sun_aaxxjlsuzvqlgylf.tif,68,0.0666666666666667,0.0666666666666667,0.783333333333333,23485.798109625,23486.861813708,9,23485.864614542,23485.931176417,23486.866871667,23487.643541417,1,1.06370408300063
121,48,5,categorization,0,kitchen,SHINEd_sun_ahywdevtimnqcsln.tif,94,0.0666666666666667,0.0666666666666667,0.7,23487.64879825,23488.622071042,9,23487.710502583,23487.771568458,23488.64012425,23489.333462792,1,0.97327279199817
121,49,5,categorization,0,kitchen,SHINEd_sun_ahljzhgcdpomplvg.tif,91,0.0666666666666667,0.0666666666666667,1.75,23489.338666542,23490.101467,13,23489.400453167,23489.461503458,23490.113260833,23491.856732917,0,0.762800458000129
121,50,5,categorization,0,kitchen,SHINEd_sun_aarfiyshqohlwkmo.tif,67,0.0666666666666667,0.0666666666666667,1.36666666666667,23491.87437775,23493.017239458,9,23491.940881292,23492.00734025,23493.047445625,23494.407487667,1,1.14286170800187
121,1,6,categorization,0,bathroom,SHINEd_sun_axyrejkiiaqiurjk.tif,59,0.0666666666666667,0.0666666666666667,0.966666666666667,23498.436317458,23499.477666458,13,23498.497986667,23498.559484208,23499.494656833,23500.454660625,1,1.04134899999917
121,2,6,categorization,0,kitchen,SHINEd_sun_aegoxogugdkwpmpj.tif,80,0.0666666666666667,0.0666666666666667,1.73333333333333,23500.460054542,23501.20579625,9,23500.521828792,23500.582694875,23501.218502083,23502.945222167,1,0.745741708000423
121,3,6,categorization,0,bathroom,SHINEd_sun_ahcvzmoyaycdoftf.tif,27,0.0666666666666667,0.0666666666666667,1.91666666666667,23502.963044875,23503.690936,13,23503.029664875,23503.096174583,23503.719366958,23505.629431958,1,0.727891124999587
121,4,6,categorization,0,bathroom,SHINEd_sun_aofnryafpsjimzsb.tif,40,0.0666666666666667,0.0666666666666667,0.766666666666667,23505.647453083,23506.503914958,9,23505.71422275,23505.780173167,23506.519172042,23507.279176042,0,0.856461875002424
121,5,6,categorization,0,bathroom,SHINEd_sun_axxbkopsgyouuebh.tif,58,0.0666666666666667,0.0666666666666667,0.916666666666667,23507.284857958,23507.98233275,13,23507.346464042,23507.407714583,23507.993215167,23508.903219958,1,0.69747479200305
121,6,6,categorization,0,kitchen,SHINEd_sun_agubuxuukhzyzpdp.tif,88,0.0666666666666667,0.0666666666666667,1.18333333333333,23508.909772458,23509.6860325,9,23508.971461292,23509.032452792,23509.700926625,23510.877630667,1,0.776260042002832
121,7,6,categorization,0,bathroom,SHINEd_sun_acegryoqftbzowsg.tif,17,0.0666666666666667,0.0666666666666667,1.8,23510.887211,23511.882694458,13,23510.954146292,23511.021570125,23511.911603417,23513.704978375,1,0.995483457998489
121,8,6,categorization,0,bathroom,SHINEd_sun_asfwthctfqerjvxr.tif,49,0.0666666666666667,0.0666666666666667,0.883333333333333,23513.723230667,23515.253188125,13,23513.789892625,23513.856251,23515.259049167,23516.13572025,1,1.52995745799853
121,9,6,categorization,0,kitchen,SHINEd_sun_aggjlwcdjsjcaemh.tif,86,0.0666666666666667,0.0666666666666667,1.83333333333333,23516.143461583,23516.885808333,9,23516.205261083,23516.266201917,23516.901398667,23518.7281195,1,0.742346750001161
121,10,6,categorization,0,kitchen,SHINEd_sun_abftihopvusyfakt.tif,71,0.0666666666666667,0.0666666666666667,1.76666666666667,23518.746441125,23519.3927235,9,23518.813261625,23518.879519833,23519.419370375,23521.179416292,1,0.646282375000737
121,11,6,categorization,0,kitchen,SHINEd_sun_aexklacwqwezaorf.tif,84,0.0666666666666667,0.0666666666666667,0.983333333333333,23521.196817458,23521.876441417,9,23521.2637615,23521.329475542,23521.9027575,23522.879428917,1,0.67962395900031
121,12,6,categorization,0,bathroom,SHINEd_sun_aspsyogrekjtfozg.tif,50,0.0666666666666667,0.0666666666666667,0.883333333333333,23522.8854055,23523.51734925,13,23522.947345375,23523.008296333,23523.52683425,23524.403505375,1,0.631943749998754
121,13,6,categorization,0,bathroom,SHINEd_sun_ahqjwnzgolcaoidx.tif,29,0.0666666666666667,0.0666666666666667,0.85,23524.409648875,23525.445769208,13,23524.471404542,23524.532441208,23525.45153175,23526.29486975,1,1.03612033299942
121,14,6,categorization,0,bathroom,SHINEd_sun_acgyywnybuveqsro.tif,18,0.0666666666666667,0.0666666666666667,0.733333333333333,23526.299708042,23527.062199458,13,23526.361422792,23526.422677292,23527.074671208,23527.801341875,1,0.762491416000557
121,15,6,categorization,0,kitchen,SHINEd_sun_aqeaevwwwjoqhzvl.tif,101,0.0666666666666667,0.0666666666666667,1.88333333333333,23527.806240708,23528.518098583,9,23527.868012958,23527.928950833,23528.530870542,23530.407593708,1,0.711857875001442
121,16,6,categorization,0,kitchen,SHINEd_sun_avszsnwsbuqfgzbn.tif,105,0.0666666666666667,0.0666666666666667,0.816666666666667,23530.424773875,23531.202955625,9,23530.491395333,23530.557674875,23531.230615417,23532.040619625,1,0.778181750003569
121,17,6,categorization,0,bathroom,SHINEd_sun_apkruvsevgegsdwp.tif,44,0.0666666666666667,0.0666666666666667,1.9,23532.046187208,23532.909121083,13,23532.107906333,23532.168919583,23532.921042,23534.814430083,1,0.862933874999726
121,18,6,categorization,0,bathroom,SHINEd_sun_ausgutylgojavyoq.tif,53,0.0666666666666667,0.0666666666666667,0.983333333333333,23534.832069917,23535.529384083,13,23534.898855167,23534.965057083,23535.554813375,23536.531483917,1,0.697314166001888
121,19,6,categorization,0,bathroom,SHINEd_sun_agyqfjcfkdcydepw.tif,25,0.0666666666666667,0.0666666666666667,0.75,23536.53638475,23537.230086292,9,23536.598081583,23536.659493333,23537.245284917,23537.988622542,0,0.693701541997143
121,20,6,categorization,0,bathroom,SHINEd_sun_alotolagknyrgtsk.tif,35,0.0666666666666667,0.0666666666666667,1.6,23537.993484792,23538.629312292,13,23538.055082375,23538.116263917,23538.634708375,23540.2280875,1,0.635827499998413
121,21,6,categorization,0,bathroom,SHINEd_sun_apeeialkgkuxddgh.tif,42,0.0666666666666667,0.0666666666666667,1.58333333333333,23540.237209375,23540.937981125,13,23540.302367417,23540.370009125,23540.959847042,23542.536548208,1,0.700771750001877
121,22,6,categorization,0,bathroom,SHINEd_sun_apjevzvycyhuqghb.tif,43,0.0666666666666667,0.0666666666666667,1.11666666666667,23542.552405833,23543.184956083,9,23542.619008417,23542.68545375,23543.2084175,23544.318468042,0,0.632550250000349
121,23,6,categorization,0,bathroom,SHINEd_sun_aqrpegblszgcoujh.tif,48,0.0666666666666667,0.0666666666666667,1.53333333333333,23544.329292083,23544.99468675,13,23544.394346792,23544.459841833,23545.016858375,23546.543572375,1,0.665394667001237
121,24,6,categorization,0,kitchen,SHINEd_sun_akcjzhbbjlbogpdi.tif,99,0.0666666666666667,0.0666666666666667,1.48333333333333,23546.563658458,23547.154577667,9,23546.630254333,23546.696822917,23547.16993425,23548.646638375,1,0.590919209000276
121,25,6,categorization,0,kitchen,SHINEd_sun_admlmbcdswaszruo.tif,79,0.0666666666666667,0.0666666666666667,1.1,23548.666181542,23549.275254,13,23548.73312625,23548.799349667,23549.305998667,23550.399370125,0,0.609072457998991
121,26,6,categorization,0,kitchen,SHINEd_sun_amjjdeyrggfqgmom.tif,100,0.0666666666666667,0.0666666666666667,0.933333333333333,23550.4150555,23551.0858815,9,23550.482371417,23550.550219125,23551.102848875,23552.029521042,1,0.67082599999776
121,27,6,categorization,0,bathroom,SHINEd_sun_aavhrsfjbserjtht.tif,13,0.0666666666666667,0.0666666666666667,0.816666666666667,23552.034447958,23552.797638417,13,23552.096158792,23552.157189292,23552.809064833,23553.61906975,1,0.763190458997997
121,28,6,categorization,0,kitchen,SHINEd_labelme_brsyyvweiuaazfr.tif,61,0.0666666666666667,0.0666666666666667,1.78333333333333,23553.623940333,23554.66941,13,23553.685679958,23553.746799292,23554.682322292,23556.459025292,0,1.04546966699854
121,29,6,categorization,0,kitchen,SHINEd_sun_aenotlpyftoioydp.tif,82,0.0666666666666667,0.0666666666666667,0.766666666666667,23556.478721667,23557.201825583,9,23556.545461458,23556.612110833,23557.217575083,23557.977581,1,0.723103915999673
121,30,6,categorization,0,bathroom,SHINEd_sun_axldvoqbuvuggfmq.tif,57,0.0666666666666667,0.0666666666666667,1.45,23557.983499958,23558.88588925,13,23558.04507175,23558.106310708,23558.891463667,23560.334852125,1,0.902389291997679
121,31,6,categorization,0,bathroom,SHINEd_sun_aclfzgynxzxlbepz.tif,19,0.0666666666666667,0.0666666666666667,0.75,23560.351831833,23561.056191167,13,23560.418430125,23560.484506125,23561.073791917,23561.817181208,1,0.70435933400222
121,32,6,categorization,0,kitchen,SHINEd_sun_aapllqyqlykszopd.tif,66,0.0666666666666667,0.0666666666666667,1.36666666666667,23561.833964875,23562.469543542,9,23561.900689125,23561.960877625,23562.479290958,23563.839324708,1,0.635578666999209
121,33,6,categorization,0,kitchen,SHINEd_sun_ahpczsiumwwocjkv.tif,92,0.0666666666666667,0.0666666666666667,0.75,23563.857358917,23564.669654792,13,23563.923607875,23563.990405542,23564.698272458,23565.441647083,0,0.812295874999108
121,34,6,categorization,0,kitchen,SHINEd_sun_acwjdupvyjsugpay.tif,76,0.0666666666666667,0.0666666666666667,0.783333333333333,23565.4575015,23566.188983083,9,23565.523706833,23565.590680167,23566.192927042,23566.969597667,1,0.73148158299955
121,35,6,categorization,0,bathroom,SHINEd_sun_aggnnqpdorgxpvce.tif,21,0.0666666666666667,0.0666666666666667,1.11666666666667,23566.976149958,23567.822084375,13,23567.03803825,23567.098966958,23567.83423125,23568.944281417,1,0.845934416996897
121,36,6,categorization,0,bathroom,SHINEd_sun_ajlawzvmubibwbpy.tif,30,0.0666666666666667,0.0666666666666667,0.766666666666667,23568.954498125,23569.502634042,9,23569.019544167,23569.087349458,23569.52673925,23570.286762417,0,0.548135917000764
121,37,6,categorization,0,kitchen,SHINEd_sun_aixorpehvfykdynp.tif,95,0.0666666666666667,0.0666666666666667,0.716666666666667,23570.297009875,23571.174095583,13,23570.363990125,23570.429961083,23571.182586042,23571.892590125,0,0.877085707998049
121,38,6,categorization,0,kitchen,SHINEd_sun_afuyedyxivkhecmu.tif,85,0.0666666666666667,0.0666666666666667,1.33333333333333,23571.897802958,23572.694118458,9,23571.959481417,23572.020609,23572.706054875,23574.032776333,1,0.796315499999764
121,39,6,categorization,0,bathroom,SHINEd_sun_anhioqovhscjqqwb.tif,38,0.0666666666666667,0.0666666666666667,1.75,23574.05050825,23574.759562417,13,23574.118619583,23574.183969708,23574.772626792,23576.515994,1,0.709054167000431
121,40,6,categorization,0,bathroom,SHINEd_sun_akiytfaagpdsphgz.tif,31,0.0666666666666667,0.0666666666666667,1.13333333333333,23576.534064792,23577.489205875,13,23576.60096175,23576.666823583,23577.506008167,23578.632711542,1,0.955141083002673
121,41,6,categorization,0,bathroom,SHINEd_sun_apynckhmoftszqoq.tif,47,0.0666666666666667,0.0666666666666667,1.63333333333333,23578.643533375,23579.31987925,13,23578.708574208,23578.776463208,23579.349542667,23580.976241417,1,0.676345874999242
121,42,6,categorization,0,bathroom,SHINEd_sun_alkosphxlxwjwgjd.tif,34,0.0666666666666667,0.0666666666666667,1.43333333333333,23580.996327292,23581.902771917,9,23581.063058417,23581.12921625,23581.918313083,23583.345026042,0,0.906444625001313
121,43,6,categorization,0,kitchen,SHINEd_sun_adgqasybjyktddhj.tif,78,0.0666666666666667,0.0666666666666667,1.83333333333333,23583.364788042,23584.571454125,9,23583.431501083,23583.497586167,23584.5868775,23586.413578333,1,1.20666608300235
121,44,6,categorization,0,kitchen,SHINEd_sun_ajcbwwvdlsvjyzje.tif,96,0.0666666666666667,0.0666666666666667,1.93333333333333,23586.432363375,23587.2307385,13,23586.499306833,23586.565568292,23587.255793292,23589.182494042,0,0.798375124999438
121,45,6,categorization,0,bathroom,SHINEd_sun_ahijqszoswveeyji.tif,28,0.0666666666666667,0.0666666666666667,1.26666666666667,23589.200464708,23589.851554417,9,23589.26889825,23589.333755333,23589.87393375,23591.133980208,0,0.651089709001099
121,46,6,categorization,0,kitchen,SHINEd_sun_agorklincwxrdtga.tif,87,0.0666666666666667,0.0666666666666667,1.86666666666667,23591.151750333,23591.845932417,9,23591.219135875,23591.285337667,23591.856908,23593.71694425,1,0.694182084000204
121,47,6,categorization,0,bathroom,SHINEd_sun_aleqenyvunhactkl.tif,32,0.0666666666666667,0.0666666666666667,1.41666666666667,23593.735441667,23594.613276333,13,23593.802573667,23593.868396458,23594.641956875,23596.052009458,1,0.877834666000126
121,48,6,categorization,0,bathroom,SHINEd_sun_apkxzenqapsujocq.tif,45,0.0666666666666667,0.0666666666666667,1.11666666666667,23596.069791,23596.843623167,9,23596.136870167,23596.199082417,23596.8727095,23597.982765292,0,0.773832166996726
121,49,6,categorization,0,bathroom,SHINEd_sun_acduarbnmmoglmiv.tif,16,0.0666666666666667,0.0666666666666667,1.8,23597.993154958,23598.795128667,13,23598.058221333,23598.126133917,23598.816362667,23600.609745583,1,0.801973708999867
121,50,6,categorization,0,bathroom,SHINEd_sun_ahaulkltgpkeeemi.tif,26,0.0666666666666667,0.0666666666666667,1.25,23600.628875542,23601.28344925,13,23600.695988292,23600.761605,23601.301320417,23602.544689625,1,0.654573708001408
121,1,7,categorization,0,bathroom,SHINEd_sun_amzlamotzwfkwjco.tif,37,0.0666666666666667,0.0666666666666667,0.883333333333333,23609.050183625,23610.261740333,9,23609.112514125,23609.1729875,23610.274826917,23611.151498583,0,1.21155670799999
121,2,7,categorization,0,bathroom,SHINEd_sun_agrwbmhcpmfuwmsg.tif,24,0.0666666666666667,0.0666666666666667,1.03333333333333,23611.15633625,23612.053087708,13,23611.218154333,23611.279108208,23612.064833042,23613.091533,1,0.896751457999926
121,3,7,categorization,0,kitchen,SHINEd_sun_avszsnwsbuqfgzbn.tif,105,0.0666666666666667,0.0666666666666667,1.06666666666667,23613.10283475,23613.736077917,13,23613.167352333,23613.234259333,23613.757795917,23614.817841083,0,0.633243167001638
121,4,7,categorization,0,kitchen,SHINEd_sun_aehawpgmrlhlvcow.tif,81,0.0666666666666667,0.0666666666666667,0.833333333333333,23614.83438825,23615.629639875,9,23614.902782083,23614.967396083,23615.636450167,23616.463122333,1,0.795251624997036
121,5,7,categorization,0,kitchen,SHINEd_sun_auticobqsbwgoppi.tif,104,0.0666666666666667,0.0666666666666667,0.716666666666667,23616.468216875,23617.604972,9,23616.529894625,23616.590937208,23617.610359917,23618.32036375,1,1.13675512500049
121,6,7,categorization,0,kitchen,SHINEd_sun_adgqasybjyktddhj.tif,78,0.0666666666666667,0.0666666666666667,0.733333333333333,23618.326232792,23619.388807417,13,23618.387913083,23618.448995833,23619.401082875,23620.127754333,0,1.06257462500071
121,7,7,categorization,0,kitchen,SHINEd_sun_akcjzhbbjlbogpdi.tif,99,0.0666666666666667,0.0666666666666667,1.38333333333333,23620.132666875,23621.317225208,9,23620.1944095,23620.25546525,23621.324488417,23622.701208042,1,1.18455833299959
121,8,7,categorization,0,kitchen,SHINEd_sun_agubuxuukhzyzpdp.tif,88,0.0666666666666667,0.0666666666666667,0.9,23622.717489625,23623.707073542,9,23622.785769375,23622.850332208,23623.722460375,23624.615797792,1,0.989583916998527
121,9,7,categorization,0,bathroom,SHINEd_sun_aapitsgbtktqubfy.tif,12,0.0666666666666667,0.0666666666666667,0.816666666666667,23624.621039083,23625.884963042,9,23624.682840667,23624.743949458,23625.896666042,23626.706670958,0,1.26392395900257
121,10,7,categorization,0,kitchen,SHINEd_sun_aeqdocilnnpuvuhx.tif,83,0.0666666666666667,0.0666666666666667,0.85,23626.711418042,23627.868901458,9,23626.773117708,23626.834135375,23627.886519583,23628.729855833,1,1.15748341600192
121,11,7,categorization,0,bathroom,SHINEd_sun_axyrejkiiaqiurjk.tif,59,0.0666666666666667,0.0666666666666667,1.6,23628.734841708,23629.981594625,13,23628.79653875,23628.857667708,23629.993391542,23631.586758458,1,1.24675291699896
121,12,7,categorization,0,kitchen,SHINEd_sun_aarfiyshqohlwkmo.tif,67,0.0666666666666667,0.0666666666666667,1.75,23631.603791583,23632.443101917,9,23631.671465625,23631.736549333,23632.459166333,23634.202546292,1,0.839310334002221
121,13,7,categorization,0,kitchen,SHINEd_sun_abftihopvusyfakt.tif,71,0.0666666666666667,0.0666666666666667,1.1,23634.219394917,23634.916971458,9,23634.284236083,23634.352874875,23634.942615583,23636.036003333,1,0.697576540998853
121,14,7,categorization,0,bathroom,SHINEd_sun_auzqhkafidnkrwmo.tif,54,0.0666666666666667,0.0666666666666667,1.46666666666667,23636.045507125,23636.87000575,9,23636.110664583,23636.178178208,23636.883968958,23638.344021208,0,0.824498624999251
121,15,7,categorization,0,kitchen,SHINEd_sun_admlmbcdswaszruo.tif,79,0.0666666666666667,0.0666666666666667,1.25,23638.362375333,23638.950245542,9,23638.429158,23638.495469542,23638.968030125,23640.211404833,1,0.587870209001267
121,16,7,categorization,0,bathroom,SHINEd_sun_atstyziqcmkahyxk.tif,51,0.0666666666666667,0.0666666666666667,1.13333333333333,23640.221142042,23640.978767375,9,23640.285697375,23640.352926458,23641.009232542,23642.135953917,0,0.75762533300076
121,17,7,categorization,0,bathroom,SHINEd_sun_agyqfjcfkdcydepw.tif,25,0.0666666666666667,0.0666666666666667,1.33333333333333,23642.151812958,23642.805509708,9,23642.216556417,23642.280487542,23642.815828208,23644.142530292,0,0.653696749999654
121,18,7,categorization,0,kitchen,SHINEd_sun_ahdycvpopffkzzsu.tif,90,0.0666666666666667,0.0666666666666667,1.86666666666667,23644.161686625,23644.810828458,9,23644.2264285,23644.289467542,23644.829073,23646.689111333,1,0.649141833000613
121,19,7,categorization,0,bathroom,SHINEd_sun_apkruvsevgegsdwp.tif,44,0.0666666666666667,0.0666666666666667,1.58333333333333,23646.706840167,23647.161489,9,23646.773727833,23646.840962417,23647.18185875,23648.758574208,0,0.454648832997918
121,20,7,categorization,0,bathroom,SHINEd_sun_acgyywnybuveqsro.tif,18,0.0666666666666667,0.0666666666666667,1.05,23648.778861292,23649.609481542,13,23648.846367458,23648.912779792,23649.637207458,23650.680569333,1,0.830620249998901
121,21,7,categorization,0,kitchen,SHINEd_sun_aymvwlarqodbwuoc.tif,108,0.0666666666666667,0.0666666666666667,0.9,23650.690799542,23651.871907458,13,23650.755528708,23650.822755667,23651.895731125,23652.789068958,0,1.18110791599975
121,22,7,categorization,0,bathroom,SHINEd_sun_avhrdrntsqrjzccq.tif,55,0.0666666666666667,0.0666666666666667,0.7,23652.795152042,23653.653467417,9,23652.857097458,23652.918014792,23653.6700365,23654.363374458,0,0.858315375000529
121,23,7,categorization,0,kitchen,SHINEd_sun_afuyedyxivkhecmu.tif,85,0.0666666666666667,0.0666666666666667,0.933333333333333,23654.368329792,23656.07709275,13,23654.430102458,23654.49124,23656.093984792,23657.020656625,0,1.7087629580019
121,24,7,categorization,0,bathroom,SHINEd_sun_aavhrsfjbserjtht.tif,13,0.0666666666666667,0.0666666666666667,1.95,23657.026121375,23657.772904417,13,23657.087853708,23657.148798458,23657.784370292,23659.727749042,1,0.746783042002789
121,25,7,categorization,0,bathroom,SHINEd_sun_apjevzvycyhuqghb.tif,43,0.0666666666666667,0.0666666666666667,1.06666666666667,23659.7467385,23659.867194,9,23659.8135395,23659.880689958,23659.903882792,23660.963926042,0,0.120455499996751
121,26,7,categorization,0,bathroom,SHINEd_sun_alotolagknyrgtsk.tif,35,0.0666666666666667,0.0666666666666667,1.2,23660.972607542,23661.804294,13,23661.040691833,23661.105724583,23661.8289925,23663.022376208,1,0.831686458001059
121,27,7,categorization,0,bathroom,SHINEd_sun_abapwbhyhkfixyex.tif,14,0.0666666666666667,0.0666666666666667,0.75,23663.039903,23663.159952667,13,23663.1021595,23663.162709083,23663.181036958,23663.92437325,1,0.120049666998966
121,28,7,categorization,0,kitchen,SHINEd_sun_acfmftudsenhrfhy.tif,74,0.0666666666666667,0.0666666666666667,0.816666666666667,23663.928701292,23665.021326875,9,23663.990664417,23664.051483917,23665.037607292,23665.847611292,1,1.09262558300179
121,29,7,categorization,0,bathroom,SHINEd_sun_aggnnqpdorgxpvce.tif,21,0.0666666666666667,0.0666666666666667,1.96666666666667,23665.852609833,23668.188568875,13,23665.914279583,23665.975386042,23668.194742625,23670.154778333,1,2.33595904200047
121,30,7,categorization,0,bathroom,SHINEd_sun_awnqiikzaispgmwo.tif,56,0.0666666666666667,0.0666666666666667,1.2,23670.172047167,23670.880554042,9,23670.237119792,23670.298917875,23670.905023042,23672.098408917,0,0.70850687499842
121,31,7,categorization,0,kitchen,SHINEd_sun_aggjlwcdjsjcaemh.tif,86,0.0666666666666667,0.0666666666666667,0.883333333333333,23672.110719,23672.833129833,13,23672.1775475,23672.240715833,23672.846249375,23673.722961875,0,0.722410833001049
121,32,7,categorization,0,kitchen,SHINEd_sun_abpwyqmlzafvklqo.tif,72,0.0666666666666667,0.0666666666666667,1.33333333333333,23673.740331083,23674.645655417,9,23673.806763083,23673.87315975,23674.658539292,23675.985244292,1,0.905324333998578
121,33,7,categorization,0,bathroom,SHINEd_sun_ahaulkltgpkeeemi.tif,26,0.0666666666666667,0.0666666666666667,1.45,23676.001800583,23676.84000775,13,23676.070078958,23676.134643292,23676.857397417,23678.300782417,1,0.838207167002111
121,34,7,categorization,0,bathroom,SHINEd_sun_agguqiubmwhqqunb.tif,22,0.0666666666666667,0.0666666666666667,1.15,23678.310205792,23679.118248583,13,23678.378658625,23678.442973917,23679.131676625,23680.275062292,1,0.808042790999025
121,35,7,categorization,0,bathroom,SHINEd_sun_aofnryafpsjimzsb.tif,40,0.0666666666666667,0.0666666666666667,0.966666666666667,23680.283585542,23681.028982458,13,23680.3487655,23680.416554083,23681.056353542,23682.016408208,1,0.745396915997844
121,36,7,categorization,0,bathroom,SHINEd_sun_aljolscmmzydegqp.tif,33,0.0666666666666667,0.0666666666666667,1.45,23682.032554208,23682.772921833,9,23682.099088667,23682.16543425,23682.784288833,23684.227667208,0,0.740367624999635
121,37,7,categorization,0,kitchen,SHINEd_sun_abdenxonkemggwsq.tif,69,0.0666666666666667,0.0666666666666667,0.8,23684.236194458,23684.837672417,13,23684.301421167,23684.368958917,23684.858746625,23685.652131667,0,0.601477959000476
121,38,7,categorization,0,bathroom,SHINEd_sun_aghyqhbptboemmoq.tif,23,0.0666666666666667,0.0666666666666667,1.45,23685.6680675,23686.5169575,13,23685.734773333,23685.800733958,23686.5359635,23687.979344833,1,0.84889000000112
121,39,7,categorization,0,kitchen,SHINEd_sun_auaiucuqpdausiva.tif,102,0.0666666666666667,0.0666666666666667,1.1,23687.997711583,23688.697705125,9,23688.063901583,23688.130716792,23688.720883167,23689.814252875,1,0.699993541998992
121,40,7,categorization,0,kitchen,SHINEd_labelme_kxvouciolcpqplr.tif,62,0.0666666666666667,0.0666666666666667,1.16666666666667,23689.82766925,23690.356375542,13,23689.892668542,23689.959933125,23690.38299375,23691.543033708,0,0.528706291999697
121,41,7,categorization,0,bathroom,SHINEd_sun_aspsyogrekjtfozg.tif,50,0.0666666666666667,0.0666666666666667,1.31666666666667,23691.561533917,23692.14964675,13,23691.627655042,23691.694360708,23692.163677792,23693.473733333,1,0.588112833000196
121,42,7,categorization,0,kitchen,SHINEd_sun_axyyrmzcupyhlivc.tif,107,0.0666666666666667,0.0666666666666667,1.68333333333333,23693.490223542,23693.865826083,13,23693.556763333,23693.624879875,23693.880168125,23695.556890583,0,0.375602541000262
121,43,7,categorization,0,bathroom,SHINEd_sun_aunuadmjocsddsrl.tif,52,0.0666666666666667,0.0666666666666667,0.966666666666667,23695.573576792,23695.912498042,13,23695.640346792,23695.706485125,23695.9288835,23696.888928958,1,0.338921249996929
121,44,7,categorization,0,kitchen,SHINEd_sun_ahpczsiumwwocjkv.tif,92,0.0666666666666667,0.0666666666666667,1.4,23696.906019333,23697.684831125,9,23696.97266725,23697.038801958,23697.691139583,23699.084514167,1,0.778811791999033
121,45,7,categorization,0,kitchen,SHINEd_sun_ahywdevtimnqcsln.tif,94,0.0666666666666667,0.0666666666666667,0.783333333333333,23699.1009825,23699.767118833,13,23699.169501125,23699.233787917,23699.789953542,23700.566660417,0,0.666136332998576
121,46,7,categorization,0,kitchen,SHINEd_sun_aunzlwrbjumxhwdj.tif,103,0.0666666666666667,0.0666666666666667,1.08333333333333,23700.584120875,23701.54950275,9,23700.651068,23700.716996958,23701.569620167,23702.646334,1,0.965381875001185
121,47,7,categorization,0,bathroom,SHINEd_sun_abjtwfukuwddzted.tif,15,0.0666666666666667,0.0666666666666667,1.43333333333333,23702.657061667,23703.67760575,9,23702.721783583,23702.789337583,23703.695189458,23705.121912458,0,1.02054408299955
121,48,7,categorization,0,bathroom,SHINEd_sun_ambriybtogmepttm.tif,36,0.0666666666666667,0.0666666666666667,1.75,23705.139908625,23705.260377083,13,23705.206333958,23705.273557375,23705.297013458,23707.040388125,1,0.120468458000687
121,49,7,categorization,0,kitchen,SHINEd_sun_ahljzhgcdpomplvg.tif,91,0.0666666666666667,0.0666666666666667,1.21666666666667,23707.057127542,23707.177615542,13,23707.123904125,23707.191106542,23707.213983125,23708.424032417,0,0.120488000000478
121,50,7,categorization,0,kitchen,SHINEd_sun_awcpdzzznmweyyhv.tif,106,0.0666666666666667,0.0666666666666667,1.31666666666667,23708.441143042,23709.373183792,9,23708.507803583,23708.574108708,23709.3932525,23710.703298625,1,0.932040749998123
121,1,8,categorization,0,bathroom,SHINEd_sun_aclfzgynxzxlbepz.tif,19,0.0666666666666667,0.0666666666666667,1.18333333333333,23715.916797625,23716.421544708,13,23715.979146333,23716.039951,23716.424991625,23717.601696875,1,0.504747082999529
121,2,8,categorization,0,kitchen,SHINEd_sun_abdxkyyxwfskuaqb.tif,70,0.0666666666666667,0.0666666666666667,0.983333333333333,23717.611625417,23718.353659958,9,23717.6800715,23717.74465675,23718.366887375,23719.343598792,1,0.742034540999157
121,3,8,categorization,0,bathroom,SHINEd_sun_axldvoqbuvuggfmq.tif,57,0.0666666666666667,0.0666666666666667,1.65,23719.360114917,23719.941377875,13,23719.426702542,23719.489514792,23719.958758917,23721.602130708,1,0.58126295799957
121,4,8,categorization,0,kitchen,SHINEd_sun_agzzivivdpnawacl.tif,89,0.0666666666666667,0.0666666666666667,1.23333333333333,23721.619201917,23722.538822333,13,23721.686291167,23721.753517958,23722.560166333,23723.786889083,0,0.919620415999816
121,5,8,categorization,0,bathroom,SHINEd_sun_azqyogdvyhahyram.tif,60,0.0666666666666667,0.0666666666666667,0.916666666666667,23723.804169,23724.428285375,13,23723.871072417,23723.937162417,23724.4416385,23725.3516765,1,0.624116375001904
121,6,8,categorization,0,kitchen,SHINEd_sun_aypmqwcualkenuoe.tif,109,0.0666666666666667,0.0666666666666667,1.56666666666667,23725.368391042,23725.813321375,13,23725.434945167,23725.501150458,23725.8201725,23727.380232833,0,0.444930333000229
121,7,8,categorization,0,bathroom,SHINEd_labelme_sfxiulhjbhlyiyt.tif,11,0.0666666666666667,0.0666666666666667,1.63333333333333,23727.398208833,23727.960457667,13,23727.464928583,23727.531302292,23727.987846625,23729.614561125,1,0.562248833997728
121,8,8,categorization,0,kitchen,SHINEd_sun_aexklacwqwezaorf.tif,84,0.0666666666666667,0.0666666666666667,1.1,23729.632525875,23729.9666525,13,23729.699510917,23729.767089458,23729.990110583,23731.083479542,0,0.334126624999044
121,9,8,categorization,0,bathroom,SHINEd_sun_apynckhmoftszqoq.tif,47,0.0666666666666667,0.0666666666666667,1.38333333333333,23731.092555208,23731.661064167,13,23731.15529325,23731.215279708,23731.667271125,23733.043987,1,0.56850895900061
121,10,8,categorization,0,bathroom,SHINEd_sun_asfwthctfqerjvxr.tif,49,0.0666666666666667,0.0666666666666667,0.766666666666667,23733.062054167,23733.54014925,13,23733.128868708,23733.195130708,23733.568648083,23734.328695167,1,0.478095082999062
121,11,8,categorization,0,bathroom,SHINEd_sun_aleqenyvunhactkl.tif,32,0.0666666666666667,0.0666666666666667,1.45,23734.340090208,23734.956540917,13,23734.406849667,23734.473339417,23734.975950333,23736.419337667,1,0.616450708999764
121,12,8,categorization,0,bathroom,SHINEd_sun_aqrpegblszgcoujh.tif,48,0.0666666666666667,0.0666666666666667,0.983333333333333,23736.434174958,23737.204846542,9,23736.500715708,23736.567814792,23737.22265225,23738.199324167,0,0.770671583999501
121,13,8,categorization,0,bathroom,SHINEd_sun_alkosphxlxwjwgjd.tif,34,0.0666666666666667,0.0666666666666667,0.716666666666667,23738.204773667,23738.709342333,13,23738.266452875,23738.327608458,23738.712842833,23739.422847333,1,0.504568666001433
121,14,8,categorization,0,kitchen,SHINEd_sun_amjjdeyrggfqgmom.tif,100,0.0666666666666667,0.0666666666666667,1.41666666666667,23739.42714975,23740.333169125,9,23739.488869333,23739.54996825,23740.351966667,23741.762016833,1,0.906019374997413
121,15,8,categorization,0,kitchen,SHINEd_sun_ajkqhtgcbgpcwrwn.tif,97,0.0666666666666667,0.0666666666666667,1.21666666666667,23741.779620708,23742.52256225,13,23741.846233042,23741.912897667,23742.55253625,23743.762586208,0,0.742941542001063
121,16,8,categorization,0,kitchen,SHINEd_sun_akchetnepxlcxhsu.tif,98,0.0666666666666667,0.0666666666666667,1.61666666666667,23743.77967075,23744.480096333,13,23743.846336833,23743.912497042,23744.50203025,23746.112073583,0,0.70042558300338
121,17,8,categorization,0,kitchen,SHINEd_sun_aqeaevwwwjoqhzvl.tif,101,0.0666666666666667,0.0666666666666667,0.783333333333333,23746.128215083,23747.078480708,13,23746.194317292,23746.257784917,23747.097303167,23747.873976458,0,0.950265625000611
121,18,8,categorization,0,bathroom,SHINEd_sun_ahijqszoswveeyji.tif,28,0.0666666666666667,0.0666666666666667,1.98333333333333,23747.879741833,23748.540296083,9,23747.941718875,23748.002503792,23748.554404833,23750.531119667,0,0.660554250000132
121,19,8,categorization,0,kitchen,SHINEd_sun_aapllqyqlykszopd.tif,66,0.0666666666666667,0.0666666666666667,0.983333333333333,23750.547505417,23750.993820875,13,23750.614125875,23750.680419375,23751.020116292,23751.996788292,0,0.446315458000754
121,20,8,categorization,0,kitchen,SHINEd_sun_abrcnpqqhmjwekyf.tif,73,0.0666666666666667,0.0666666666666667,0.8,23752.002452583,23752.749115,9,23752.064252167,23752.12551925,23752.760690708,23753.554028792,1,0.746662416997424
121,21,8,categorization,0,bathroom,SHINEd_sun_apeeialkgkuxddgh.tif,42,0.0666666666666667,0.0666666666666667,0.733333333333333,23753.559388042,23754.869322042,9,23753.620938583,23753.682036833,23754.884221958,23755.610893042,0,1.30993400000079
121,22,8,categorization,0,kitchen,SHINEd_sun_aadbddgrdsjugojn.tif,64,0.0666666666666667,0.0666666666666667,0.966666666666667,23755.615741833,23756.42076,13,23755.677649792,23755.738511417,23756.440578333,23757.400582833,0,0.805018167000526
121,23,8,categorization,0,bathroom,SHINEd_sun_acegryoqftbzowsg.tif,17,0.0666666666666667,0.0666666666666667,0.866666666666667,23757.40543925,23758.204691458,9,23757.467227292,23757.528192542,23758.213542708,23759.073547083,0,0.799252207998506
121,24,8,categorization,0,kitchen,SHINEd_labelme_brsyyvweiuaazfr.tif,61,0.0666666666666667,0.0666666666666667,1.23333333333333,23759.078391667,23760.19732925,9,23759.140102167,23759.201169917,23760.203519833,23761.430227792,1,1.11893758299993
121,25,8,categorization,0,bathroom,SHINEd_sun_anryaplzeujmzfkd.tif,39,0.0666666666666667,0.0666666666666667,1.9,23761.446661958,23762.103636958,9,23761.513313375,23761.579613458,23762.118843,23764.012225583,0,0.656974999998056
121,26,8,categorization,0,bathroom,SHINEd_sun_afcoljnjfoxjtgja.tif,20,0.0666666666666667,0.0666666666666667,0.866666666666667,23764.030766875,23764.6550465,9,23764.097359917,23764.163679292,23764.669511667,23765.529517167,0,0.624279625000781
121,27,8,categorization,0,kitchen,SHINEd_sun_acwjdupvyjsugpay.tif,76,0.0666666666666667,0.0666666666666667,0.966666666666667,23765.535369958,23766.25277525,9,23765.597109875,23765.658180833,23766.259924125,23767.219928083,1,0.717405291998148
121,28,8,categorization,0,kitchen,SHINEd_sun_acgtpgfybqjmzeyw.tif,75,0.0666666666666667,0.0666666666666667,0.916666666666667,23767.224961833,23767.796208417,9,23767.286705917,23767.347714458,23767.799602833,23768.709607792,1,0.571246584000619
121,29,8,categorization,0,kitchen,SHINEd_sun_aenotlpyftoioydp.tif,82,0.0666666666666667,0.0666666666666667,0.916666666666667,23768.7146675,23770.044304417,9,23768.776207125,23768.837444375,23770.0567455,23770.9667505,1,1.32963691699842
121,30,8,categorization,0,bathroom,SHINEd_sun_ahqjwnzgolcaoidx.tif,29,0.0666666666666667,0.0666666666666667,1.4,23770.971656375,23771.860876083,13,23771.033639333,23771.094498417,23771.879869625,23773.273237542,1,0.889219707998564
121,31,8,categorization,0,bathroom,SHINEd_sun_axxbkopsgyouuebh.tif,58,0.0666666666666667,0.0666666666666667,1.75,23773.290702375,23774.007997667,13,23773.358979958,23773.424181458,23774.030700042,23775.774065417,1,0.717295291997289
121,32,8,categorization,0,kitchen,SHINEd_sun_aixorpehvfykdynp.tif,95,0.0666666666666667,0.0666666666666667,1.25,23775.794658625,23780.127707833,9,23775.861480292,23775.927385125,23780.146802167,23781.3901885,1,4.33304920799856
121,33,8,categorization,0,kitchen,SHINEd_sun_aamedkxepzlwuxes.tif,65,0.0666666666666667,0.0666666666666667,1.05,23781.406779708,23782.10458675,13,23781.473361125,23781.539974708,23782.129897708,23783.173271208,0,0.697807042000932
121,34,8,categorization,0,kitchen,SHINEd_sun_agorklincwxrdtga.tif,87,0.0666666666666667,0.0666666666666667,1.06666666666667,23783.188092542,23783.988350625,9,23783.250630542,23783.310866333,23783.996145958,23785.056184542,1,0.80025808299979
121,35,8,categorization,0,bathroom,SHINEd_sun_akiytfaagpdsphgz.tif,31,0.0666666666666667,0.0666666666666667,1.21666666666667,23785.067557333,23786.094960625,9,23785.132066833,23785.197663125,23786.121012792,23787.331067458,0,1.02740329199878
121,36,8,categorization,0,kitchen,SHINEd_sun_ahspylgoovwmwvgk.tif,93,0.0666666666666667,0.0666666666666667,0.95,23787.348924542,23787.982746708,9,23787.415675292,23787.481843917,23788.005333167,23788.948716167,1,0.633822166000755
121,37,8,categorization,0,bathroom,SHINEd_sun_ajlawzvmubibwbpy.tif,30,0.0666666666666667,0.0666666666666667,0.9,23788.965386875,23789.684467333,9,23789.032235833,23789.098303208,23789.700576417,23790.593916292,0,0.719080458002281
121,38,8,categorization,0,kitchen,SHINEd_sun_ajcbwwvdlsvjyzje.tif,96,0.0666666666666667,0.0666666666666667,1.78333333333333,23790.598706917,23791.260275542,9,23790.6605395,23790.721485708,23791.273657708,23793.05037,1,0.661568625000655
121,39,8,categorization,0,bathroom,SHINEd_sun_acduarbnmmoglmiv.tif,16,0.0666666666666667,0.0666666666666667,1.16666666666667,23793.068138875,23793.188567708,9,23793.135103667,23793.202390917,23793.225371208,23794.38541125,0,0.120428832997277
121,40,8,categorization,0,kitchen,SHINEd_sun_aegoxogugdkwpmpj.tif,80,0.0666666666666667,0.0666666666666667,0.783333333333333,23794.393125417,23794.820275417,9,23794.455121583,23794.516035917,23794.834559292,23795.611230375,1,0.427150000003166
121,41,8,categorization,0,kitchen,SHINEd_labelme_rykdqxenmhulbdn.tif,63,0.0666666666666667,0.0666666666666667,1.23333333333333,23795.615670708,23796.068215542,9,23795.677336833,23795.7384445,23796.073723375,23797.300421375,1,0.452544833999127
121,42,8,categorization,0,bathroom,SHINEd_sun_ahcvzmoyaycdoftf.tif,27,0.0666666666666667,0.0666666666666667,0.9,23797.318154,23797.627974375,13,23797.385687833,23797.450901833,23797.65698,23798.550369167,1,0.309820374997798
121,43,8,categorization,0,bathroom,SHINEd_sun_apmqjbnwghzuhhzh.tif,46,0.0666666666666667,0.0666666666666667,0.7,23798.565541583,23798.965211667,9,23798.63218625,23798.69833275,23798.98827875,23799.6816165,0,0.399670083999808
121,44,8,categorization,0,kitchen,SHINEd_sun_acxkpeoqbwcxfvip.tif,77,0.0666666666666667,0.0666666666666667,1.23333333333333,23799.686702333,23800.117137667,9,23799.7483595,23799.809543958,23800.128022917,23801.354733625,1,0.430435333997593
121,45,8,categorization,0,bathroom,SHINEd_sun_ausgutylgojavyoq.tif,53,0.0666666666666667,0.0666666666666667,1,23801.372116917,23801.844845583,13,23801.438758375,23801.50463575,23801.860061375,23802.853435708,1,0.472728666001785
121,46,8,categorization,0,bathroom,SHINEd_sun_apkxzenqapsujocq.tif,45,0.0666666666666667,0.0666666666666667,1.38333333333333,23802.870031125,23803.340595292,9,23802.936379292,23803.002762875,23803.355433458,23804.732146875,0,0.470564167000703
121,47,8,categorization,0,kitchen,SHINEd_sun_aaxxjlsuzvqlgylf.tif,68,0.0666666666666667,0.0666666666666667,1.3,23804.750245292,23805.425757458,9,23804.81735025,23804.883557458,23805.439244167,23806.732630083,1,0.675512165998953
121,48,8,categorization,0,bathroom,SHINEd_sun_anhioqovhscjqqwb.tif,38,0.0666666666666667,0.0666666666666667,0.833333333333333,23806.750446542,23807.584941292,13,23806.817373833,23806.883047917,23807.606412583,23808.4331125,1,0.834494750000886
121,49,8,categorization,0,bathroom,SHINEd_sun_aoybiabnpadelefl.tif,41,0.0666666666666667,0.0666666666666667,0.95,23808.449601458,23809.180803875,9,23808.516217167,23808.5787755,23809.197905042,23810.141241833,0,0.731202416998713
121,50,8,categorization,0,kitchen,SHINEd_sun_azmutvzbxypaceni.tif,110,0.0666666666666667,0.0666666666666667,1.43333333333333,23810.146164458,23811.100296708,13,23810.207791417,23810.2689085,23811.104643958,23812.531349833,0,0.954132249997201
121,1,9,categorization,0,bathroom,SHINEd_sun_acegryoqftbzowsg.tif,17,0.0666666666666667,0.0666666666666667,1.08333333333333,23816.328215542,23817.3563385,9,23816.390837375,23816.451029333,23817.369842125,23818.446544833,0,1.02812295800322
121,2,9,categorization,0,kitchen,SHINEd_sun_aapllqyqlykszopd.tif,66,0.0666666666666667,0.0666666666666667,0.8,23818.455839167,23820.556406042,13,23818.520191917,23818.588700375,23820.574700083,23821.368036458,0,2.10056687500037
121,3,9,categorization,0,kitchen,SHINEd_sun_afuyedyxivkhecmu.tif,85,0.0666666666666667,0.0666666666666667,0.833333333333333,23821.375298708,23822.796374417,9,23821.437066083,23821.498200875,23822.800683875,23823.627356125,1,1.42107570900043
121,4,9,categorization,0,kitchen,SHINEd_sun_ajcbwwvdlsvjyzje.tif,96,0.0666666666666667,0.0666666666666667,1.45,23823.632244208,23824.660946333,9,23823.694031167,23823.755079875,23824.673816417,23826.117202042,1,1.02870212499693
121,5,9,categorization,0,kitchen,SHINEd_sun_ajkqhtgcbgpcwrwn.tif,97,0.0666666666666667,0.0666666666666667,1.3,23826.134212792,23828.460074667,13,23826.198968833,23826.262656167,23828.464785792,23829.758175125,0,2.32586187500056
121,6,9,categorization,0,bathroom,SHINEd_sun_axxbkopsgyouuebh.tif,58,0.0666666666666667,0.0666666666666667,1.21666666666667,23829.776790667,23830.4199075,13,23829.843291583,23829.910002667,23830.449775333,23831.659830708,1,0.643116832998203
121,7,9,categorization,0,bathroom,SHINEd_sun_agrwbmhcpmfuwmsg.tif,24,0.0666666666666667,0.0666666666666667,0.733333333333333,23831.677703458,23832.36116425,9,23831.744453917,23831.810664042,23832.383876875,23833.110591792,0,0.683460791999096
121,8,9,categorization,0,kitchen,SHINEd_sun_ahywdevtimnqcsln.tif,94,0.0666666666666667,0.0666666666666667,1.03333333333333,23833.126658625,23834.052732375,9,23833.193507,23833.259479333,23834.062050292,23835.0887685,1,0.926073750000796
121,9,9,categorization,0,kitchen,SHINEd_sun_azmutvzbxypaceni.tif,110,0.0666666666666667,0.0666666666666667,1.1,23835.100637,23835.640658667,13,23835.164961333,23835.232404417,23835.65474975,23836.748131375,0,0.540021666998655
121,10,9,categorization,0,kitchen,SHINEd_sun_acxkpeoqbwcxfvip.tif,77,0.0666666666666667,0.0666666666666667,1.25,23836.764751208,23837.628794917,9,23836.832275875,23836.897699125,23837.633534167,23838.876911208,1,0.864043708999816
121,11,9,categorization,0,bathroom,SHINEd_sun_apmqjbnwghzuhhzh.tif,46,0.0666666666666667,0.0666666666666667,1.4,23838.895184583,23839.727077708,13,23838.961824,23839.028013,23839.751576625,23841.144959917,1,0.831893124999624
