slide,sub1,sub2,pairID,trialID,stim1,stim2,instructionsLoop.thisRepN,instructionsLoop.thisTrialN,instructionsLoop.thisN,instructionsLoop.thisIndex,practice.thisRepN,practice.thisTrialN,practice.thisN,practice.thisIndex,trials.thisRepN,trials.thisTrialN,trials.thisN,trials.thisIndex,thisRow.t,notes,preparation.started,preparation.stopped,instructions.started,startResponse.started,slide_img.started,instructions.stopped,startResponse.keys,startResponse.rt,startResponse.duration,trial.started,polygon.started,polygon_2.started,image1.started,image2.started,rating_1.started,question.started,rating_2.started,question_2.started,block_text.started,trial.stopped,stim1pos,stim2pos,block,rating_1.response,rating_1.rt,rating_2.response,rating_2.rt,ITI.started,text.started,text.stopped,ITI.stopped,practice_over.started,text_2.started,space_practice_over.started,practice_over.stopped,space_practice_over.keys,space_practice_over.rt,space_practice_over.duration,breakBlocks.started,breakBlocks.stopped,startBlock.keys,startBlock.started,startBlock.rt,startBlock.duration,end.started,message_end.started,key_resp.started,participant,session,session_number,date,expName,psychopyVersion,frameRate,expStart,
instructions/Slide1.jpg,,,,,,,0,0,0,0,,,,,,,,,0.025791958000013437,,0.002002957999991395,0.0021175420000076883,0.009332625000013195,0.025791958000013437,0.025791958000013437,112.339921,space,112.31384654099998,None,,,,,,,,,,,,,,,,,,,,,,,,,,,,,,,,,,,,,,,208,bathroom,2,2024-03-19_13h03.59.162,image_similarity_rating,2023.2.3,None,2024-03-19 13h04.16.794661 +0100,
instructions/Slide3.jpg,,,,,,,0,1,1,1,,,,,,,,,112.36379762499996,,,,112.34094025000002,112.36379762499996,112.36379762499996,118.04353616699996,space,5.679483249999976,None,,,,,,,,,,,,,,,,,,,,,,,,,,,,,,,,,,,,,,,208,bathroom,2,2024-03-19_13h03.59.162,image_similarity_rating,2023.2.3,None,2024-03-19 13h04.16.794661 +0100,
instructions/Slide4.jpg,,,,,,,0,2,2,2,,,,,,,,,118.064062208,,,,118.04412200000002,118.064062208,118.064062208,118.71941037500005,space,0.6550657919999594,None,,,,,,,,,,,,,,,,,,,,,,,,,,,,,,,,,,,,,,,208,bathroom,2,2024-03-19_13h03.59.162,image_similarity_rating,2023.2.3,None,2024-03-19 13h04.16.794661 +0100,
instructions/Slide5.jpg,,,,,,,0,3,3,3,,,,,,,,,118.74565904199994,,,,118.72018200000002,118.74565904199994,118.74565904199994,130.80189029200005,space,12.05587700000001,None,,,,,,,,,,,,,,,,,,,,,,,,,,,,,,,,,,,,,,,208,bathroom,2,2024-03-19_13h03.59.162,image_similarity_rating,2023.2.3,None,2024-03-19 13h04.16.794661 +0100,
,108,110,practice,8,stimuli/own/bathroom/108_bat.jpg,stimuli/own/bathroom/110_bat.jpg,,,,,0,0,0,7,,,,,131.00791741700004,,,,,,,,,,,130.82897300000002,131.00791741700004,131.00791741700004,131.00791741700004,131.00791741700004,131.00791741700004,131.00791741700004,131.00791741700004,131.00791741700004,131.00791741700004,146.93020545800005,-7,7,0,2.0,14.37280737499998,3.0,15.78038975000004,146.930434667,146.94305320800004,147.39300408300005,147.228197583,,,,,,,,,,,,,,,,,208,bathroom,2,2024-03-19_13h03.59.162,image_similarity_rating,2023.2.3,None,2024-03-19 13h04.16.794661 +0100,
,110,107,practice,4,stimuli/own/bathroom/110_bat.jpg,stimuli/own/bathroom/107_bat.jpg,,,,,0,1,1,3,,,,,147.39300408300005,,,,,,,,,,,147.22864449999997,147.39300408300005,147.39300408300005,147.39300408300005,147.39300408300005,147.39300408300005,147.39300408300005,147.39300408300005,147.39300408300005,147.39300408300005,153.54491737499995,-7,7,0,2.0,4.459984291000069,3.0,5.368451250000021,153.54506133300004,153.54696004200002,153.997121,153.83076912499996,,,,,,,,,,,,,,,,,208,bathroom,2,2024-03-19_13h03.59.162,image_similarity_rating,2023.2.3,None,2024-03-19 13h04.16.794661 +0100,
,110,133,practice,1,stimuli/own/bathroom/110_bat.jpg,stimuli/own/bathroom/133_bat.jpg,,,,,0,2,2,0,,,,,153.997121,,,,,,,,,,,153.83115129199996,153.997121,153.997121,153.997121,153.997121,153.997121,153.997121,153.997121,153.997121,153.997121,163.97450533300002,-7,7,0,5.0,8.094694333000007,3.0,9.764135417000034,163.974655417,163.97752225,164.42581225000004,164.26115712499995,,,,,,,,,,,,,,,,,208,bathroom,2,2024-03-19_13h03.59.162,image_similarity_rating,2023.2.3,None,2024-03-19 13h04.16.794661 +0100,
,107,108,practice,5,stimuli/own/bathroom/107_bat.jpg,stimuli/own/bathroom/108_bat.jpg,,,,,0,3,3,4,,,,,164.42581225000004,,,,,,,,,,,164.26156779200005,164.42581225000004,164.42581225000004,164.42581225000004,164.42581225000004,164.42581225000004,164.42581225000004,164.42581225000004,164.42581225000004,164.42581225000004,173.65862262500002,7,-7,0,2.0,8.119033999999942,3.0,9.145384291000028,173.65876525,173.66052004200003,174.10875987500003,173.94401783299998,,,,,,,,,,,,,,,,,208,bathroom,2,2024-03-19_13h03.59.162,image_similarity_rating,2023.2.3,None,2024-03-19 13h04.16.794661 +0100,
,108,133,practice,10,stimuli/own/bathroom/108_bat.jpg,stimuli/own/bathroom/133_bat.jpg,,,,,0,4,4,9,,,,,174.10875987500003,,,,,,,,,,,173.94440391700005,174.10875987500003,174.10875987500003,174.10875987500003,174.10875987500003,174.10875987500003,174.10875987500003,174.10875987500003,174.10875987500003,174.10875987500003,181.80348141699994,-7,7,0,3.0,7.603514292,6.0,6.336672791999945,181.80362312499994,181.80917175000002,182.25794591700003,182.09355225000002,,,,,,,,,,,,,,,,,208,bathroom,2,2024-03-19_13h03.59.162,image_similarity_rating,2023.2.3,None,2024-03-19 13h04.16.794661 +0100,
,128,108,practice,3,stimuli/own/bathroom/128_bat.jpg,stimuli/own/bathroom/108_bat.jpg,,,,,0,5,5,2,,,,,182.25794591700003,,,,,,,,,,,182.09399662500005,182.25794591700003,182.25794591700003,182.25794591700003,182.25794591700003,182.25794591700003,182.25794591700003,182.25794591700003,182.25794591700003,182.25794591700003,192.65389733300003,-7,7,0,1.0,4.769652207999911,1.0,10.332636125000022,192.65403979200005,192.659005375,193.11031245799995,192.944314417,,,,,,,,,,,,,,,,,208,bathroom,2,2024-03-19_13h03.59.162,image_similarity_rating,2023.2.3,None,2024-03-19 13h04.16.794661 +0100,
,110,128,practice,2,stimuli/own/bathroom/110_bat.jpg,stimuli/own/bathroom/128_bat.jpg,,,,,0,6,6,1,,,,,193.11031245799995,,,,,,,,,,,192.944740958,193.11031245799995,193.11031245799995,193.11031245799995,193.11031245799995,193.11031245799995,193.11031245799995,193.11031245799995,193.11031245799995,193.11031245799995,199.37875604199996,-7,7,0,1.0,3.1488439160000326,1.0,6.108205999999996,199.378900542,199.38080879200004,199.82717349999996,199.66401499999995,,,,,,,,,,,,,,,,,208,bathroom,2,2024-03-19_13h03.59.162,image_similarity_rating,2023.2.3,None,2024-03-19 13h04.16.794661 +0100,
,107,133,practice,9,stimuli/own/bathroom/107_bat.jpg,stimuli/own/bathroom/133_bat.jpg,,,,,0,7,7,8,,,,,199.82717349999996,,,,,,,,,,,199.66441550000002,199.82717349999996,199.82717349999996,199.82717349999996,199.82717349999996,199.82717349999996,199.82717349999996,199.82717349999996,199.82717349999996,199.82717349999996,206.17810062499996,-7,7,0,3.0,4.341400249999992,2.0,6.31319166600008,206.178241167,206.18001870800003,206.62759662500002,206.46434975,,,,,,,,,,,,,,,,,208,bathroom,2,2024-03-19_13h03.59.162,image_similarity_rating,2023.2.3,None,2024-03-19 13h04.16.794661 +0100,
,128,133,practice,6,stimuli/own/bathroom/128_bat.jpg,stimuli/own/bathroom/133_bat.jpg,,,,,0,8,8,5,,,,,206.62759662500002,,,,,,,,,,,206.464644583,206.62759662500002,206.62759662500002,206.62759662500002,206.62759662500002,206.62759662500002,206.62759662500002,206.62759662500002,206.62759662500002,206.62759662500002,214.14528166699995,7,-7,0,1.0,3.0167413330000272,1.0,7.45218049999994,214.14542812499997,214.158911042,214.609141917,214.44421354199994,,,,,,,,,,,,,,,,,208,bathroom,2,2024-03-19_13h03.59.162,image_similarity_rating,2023.2.3,None,2024-03-19 13h04.16.794661 +0100,
,107,128,practice,7,stimuli/own/bathroom/107_bat.jpg,stimuli/own/bathroom/128_bat.jpg,,,,,0,9,9,6,,,,,214.609141917,,,,,,,,,,,214.44463866700005,214.609141917,214.609141917,214.609141917,214.609141917,214.609141917,214.609141917,214.609141917,214.609141917,214.609141917,220.17810683300002,-7,7,0,1.0,2.2189205409999886,4.0,5.4824087499999905,220.178247542,220.18017958300004,220.47624125000004,220.46465458299997,,,,,,,,,,,,,,,,,208,bathroom,2,2024-03-19_13h03.59.162,image_similarity_rating,2023.2.3,None,2024-03-19 13h04.16.794661 +0100,
,,,,,,,,,,,,,,,,,,,,,,,,,,,,,,,,,,,,,,,,,,,,,,,,,,,,220.46473845800006,220.47624125000004,220.47624125000004,223.11730999999997,space,2.6408668330000182,None,,,,,,,,,,208,bathroom,2,2024-03-19_13h03.59.162,image_similarity_rating,2023.2.3,None,2024-03-19 13h04.16.794661 +0100,
,125,127,492,492,stimuli/own/bathroom/125_bat.jpg,stimuli/own/bathroom/127_bat.jpg,,,,,,,,,0,0,0,491,223.167038917,,,,,,,,,,,223.46007837499997,223.640413792,223.640413792,223.640413792,223.640413792,223.640413792,223.640413792,223.640413792,223.640413792,223.640413792,235.07029595799997,7,-7,1,3.0,9.709216459000004,2.0,11.375542499999938,223.16490312500002,223.167038917,223.640413792,223.460061042,,,,,,,,223.15123141699996,223.16461487499998,None,,,,,,,208,bathroom,2,2024-03-19_13h03.59.162,image_similarity_rating,2023.2.3,None,2024-03-19 13h04.16.794661 +0100,
,101,134,27,27,stimuli/own/bathroom/101_bat.jpg,stimuli/own/bathroom/134_bat.jpg,,,,,,,,,0,1,1,26,235.078741542,,,,,,,,,,,235.36493574999997,235.528696458,235.528696458,235.528696458,235.528696458,235.528696458,235.528696458,235.528696458,235.528696458,235.528696458,247.628045917,-7,7,1,3.0,10.44547804199999,3.0,11.96148166599994,235.076974458,235.078741542,235.528696458,235.36492175,,,,,,,,235.07085500000005,235.07692237499998,None,,,,,,,208,bathroom,2,2024-03-19_13h03.59.162,image_similarity_rating,2023.2.3,None,2024-03-19 13h04.16.794661 +0100,
,103,135,93,93,stimuli/own/bathroom/103_bat.jpg,stimuli/own/bathroom/135_bat.jpg,,,,,,,,,0,2,2,92,247.633517417,,,,,,,,,,,247.9275275,248.09681729199997,248.09681729199997,248.09681729199997,248.09681729199997,248.09681729199997,248.09681729199997,248.09681729199997,248.09681729199997,248.09681729199997,257.461047042,-7,7,1,3.0,8.10357545799991,5.0,9.30175625000004,247.63174941700004,247.633517417,248.09681729199997,247.92751116700003,,,,,,,,247.62826929200003,247.63170183299997,None,,,,,,,208,bathroom,2,2024-03-19_13h03.59.162,image_similarity_rating,2023.2.3,None,2024-03-19 13h04.16.794661 +0100,
,101,117,12,12,stimuli/own/bathroom/101_bat.jpg,stimuli/own/bathroom/117_bat.jpg,,,,,,,,,0,3,3,11,257.46663887499994,,,,,,,,,,,257.760041667,257.93153333299995,257.93153333299995,257.93153333299995,257.93153333299995,257.93153333299995,257.93153333299995,257.93153333299995,257.93153333299995,257.93153333299995,267.44084766699996,7,-7,1,4.0,7.98712758299996,4.0,9.141180624999947,257.464716458,257.46663887499994,257.93153333299995,257.760024875,,,,,,,,257.461270667,257.46466966699995,None,,,,,,,208,bathroom,2,2024-03-19_13h03.59.162,image_similarity_rating,2023.2.3,None,2024-03-19 13h04.16.794661 +0100,
,113,137,291,291,stimuli/own/bathroom/113_bat.jpg,stimuli/own/bathroom/137_bat.jpg,,,,,,,,,0,4,4,290,267.44695425,,,,,,,,,,,267.73044341699995,267.894096417,267.894096417,267.894096417,267.894096417,267.894096417,267.894096417,267.894096417,267.894096417,267.894096417,276.890361333,-7,7,1,2.0,6.652103916999977,4.0,8.415774750000082,267.444640875,267.44695425,267.894096417,267.730431417,,,,,,,,267.44110645800004,267.444591208,None,,,,,,,208,bathroom,2,2024-03-19_13h03.59.162,image_similarity_rating,2023.2.3,None,2024-03-19 13h04.16.794661 +0100,
,105,131,151,151,stimuli/own/bathroom/105_bat.jpg,stimuli/own/bathroom/131_bat.jpg,,,,,,,,,0,5,5,150,276.895991375,,,,,,,,,,,277.18039475,277.34309770799996,277.34309770799996,277.34309770799996,277.34309770799996,277.34309770799996,277.34309770799996,277.34309770799996,277.34309770799996,277.34309770799996,287.61089812499995,7,-7,1,1.0,6.623886791000018,3.0,10.16297191700005,276.894229333,276.895991375,277.34309770799996,277.18038149999995,,,,,,,,276.89058950000003,276.89418179200004,None,,,,,,,208,bathroom,2,2024-03-19_13h03.59.162,image_similarity_rating,2023.2.3,None,2024-03-19 13h04.16.794661 +0100,
,102,118,46,46,stimuli/own/bathroom/102_bat.jpg,stimuli/own/bathroom/118_bat.jpg,,,,,,,,,0,6,6,45,287.61663420800005,,,,,,,,,,,287.91015004200005,288.081105458,288.081105458,288.081105458,288.081105458,288.081105458,288.081105458,288.081105458,288.081105458,288.081105458,298.22482575000004,7,-7,1,4.0,8.372825417000058,3.0,9.491984582999976,287.61471033299995,287.61663420800005,288.081105458,287.91012958299996,,,,,,,,287.61111916699997,287.61466266699995,None,,,,,,,208,bathroom,2,2024-03-19_13h03.59.162,image_similarity_rating,2023.2.3,None,2024-03-19 13h04.16.794661 +0100,
,102,126,54,54,stimuli/own/bathroom/102_bat.jpg,stimuli/own/bathroom/126_bat.jpg,,,,,,,,,0,7,7,53,298.23065758300004,,,,,,,,,,,298.51337816700004,298.67620875,298.67620875,298.67620875,298.67620875,298.67620875,298.67620875,298.67620875,298.67620875,298.67620875,314.35745675,7,-7,1,2.0,12.216413999999986,2.0,15.519948208000073,298.228573708,298.23065758300004,298.67620875,298.51336379199995,,,,,,,,298.225047333,298.22852591699996,None,,,,,,,208,bathroom,2,2024-03-19_13h03.59.162,image_similarity_rating,2023.2.3,None,2024-03-19 13h04.16.794661 +0100,
,101,138,31,31,stimuli/own/bathroom/101_bat.jpg,stimuli/own/bathroom/138_bat.jpg,,,,,,,,,0,8,8,30,314.363036833,,,,,,,,,,,314.648158375,314.811028833,314.811028833,314.811028833,314.811028833,314.811028833,314.811028833,314.811028833,314.811028833,314.811028833,320.027770917,7,-7,1,4.0,4.042677874999981,3.0,5.1184350830000085,314.36118754200004,314.363036833,314.811028833,314.648148375,,,,,,,,314.357693958,314.36114050000003,None,,,,,,,208,bathroom,2,2024-03-19_13h03.59.162,image_similarity_rating,2023.2.3,None,2024-03-19 13h04.16.794661 +0100,
,122,134,452,452,stimuli/own/bathroom/122_bat.jpg,stimuli/own/bathroom/134_bat.jpg,,,,,,,,,0,9,9,451,320.03361470799996,,,,,,,,,,,320.32638125000005,320.49218762500004,320.49218762500004,320.49218762500004,320.49218762500004,320.49218762500004,320.49218762500004,320.49218762500004,320.49218762500004,320.49218762500004,329.28177837500004,7,-7,1,5.0,7.704416416999948,5.0,8.703037540999958,320.031549875,320.03361470799996,320.49218762500004,320.32636575000004,,,,,,,,320.027992542,320.03150266700004,None,,,,,,,208,bathroom,2,2024-03-19_13h03.59.162,image_similarity_rating,2023.2.3,None,2024-03-19 13h04.16.794661 +0100,
,118,141,385,385,stimuli/own/bathroom/118_bat.jpg,stimuli/own/bathroom/141_bat.jpg,,,,,,,,,0,10,10,384,329.29219887500005,,,,,,,,,,,329.57600975,329.74046,329.74046,329.74046,329.74046,329.74046,329.74046,329.74046,329.74046,329.74046,336.80276775000004,-7,7,1,4.0,5.955600083000036,2.0,6.9130409580000105,329.285570708,329.29219887500005,329.74046,329.575991458,,,,,,,,329.282003542,329.285523667,None,,,,,,,208,bathroom,2,2024-03-19_13h03.59.162,image_similarity_rating,2023.2.3,None,2024-03-19 13h04.16.794661 +0100,
,120,139,422,422,stimuli/own/bathroom/120_bat.jpg,stimuli/own/bathroom/139_bat.jpg,,,,,,,,,0,11,11,421,336.82527479199996,,,,,,,,,,,337.109207458,337.27372483299996,337.27372483299996,337.27372483299996,337.27372483299996,337.27372483299996,337.27372483299996,337.27372483299996,337.27372483299996,337.27372483299996,349.81088687500005,7,-7,1,3.0,7.603210333999982,3.0,12.499114041999974,336.80653037499997,336.82527479199996,,337.10919325,,,,,,,,336.80299825,336.80648304199997,None,,,,,,,208,bathroom,2,2024-03-19_13h03.59.162,image_similarity_rating,2023.2.3,None,2024-03-19 13h04.16.794661 +0100,
,125,136,499,499,stimuli/own/bathroom/125_bat.jpg,stimuli/own/bathroom/136_bat.jpg,,,,,,,,,0,12,12,498,349.81664920799994,,,,,,,,,,,350.109566375,350.278903333,350.278903333,350.278903333,350.278903333,350.278903333,350.278903333,350.278903333,350.278903333,350.278903333,356.236036208,-7,7,1,3.0,4.978194666000036,2.0,5.758678958000019,349.81455979199995,349.81664920799994,350.278903333,350.10954987499997,,,,,,,,349.81110924999996,349.81451237500005,None,,,,,,,208,bathroom,2,2024-03-19_13h03.59.162,image_similarity_rating,2023.2.3,None,2024-03-19 13h04.16.794661 +0100,
,135,137,576,576,stimuli/own/bathroom/135_bat.jpg,stimuli/own/bathroom/137_bat.jpg,,,,,,,,,0,13,13,575,356.24163891700005,,,,,,,,,,,356.526188167,356.69820637500004,356.69820637500004,356.69820637500004,356.69820637500004,356.69820637500004,356.69820637500004,356.69820637500004,356.69820637500004,356.69820637500004,364.33187720800004,-7,7,1,3.0,5.637466000000018,5.0,7.572457374999999,356.239693042,356.24163891700005,356.69820637500004,356.52617091699994,,,,,,,,356.23625849999996,356.23964624999996,None,,,,,,,208,bathroom,2,2024-03-19_13h03.59.162,image_similarity_rating,2023.2.3,None,2024-03-19 13h04.16.794661 +0100,
,113,114,271,271,stimuli/own/bathroom/113_bat.jpg,stimuli/own/bathroom/114_bat.jpg,,,,,,,,,0,14,14,270,364.34161570799995,,,,,,,,,,,364.62624774999995,364.794794625,364.794794625,364.794794625,364.794794625,364.794794625,364.794794625,364.794794625,364.794794625,364.794794625,375.60304833299995,-7,7,1,3.0,9.37296870800003,2.0,10.734077749999983,364.33556899999996,364.34161570799995,364.794794625,364.62622799999997,,,,,,,,364.33211712499997,364.33552195799996,None,,,,,,,208,bathroom,2,2024-03-19_13h03.59.162,image_similarity_rating,2023.2.3,None,2024-03-19 13h04.16.794661 +0100,
,136,139,583,583,stimuli/own/bathroom/136_bat.jpg,stimuli/own/bathroom/139_bat.jpg,,,,,,,,,0,15,15,582,375.609427333,,,,,,,,,,,375.893092,376.05694733300004,376.05694733300004,376.05694733300004,376.05694733300004,376.05694733300004,376.05694733300004,376.05694733300004,376.05694733300004,376.05694733300004,387.352425917,7,-7,1,3.0,9.681011042000023,4.0,11.10246091700003,375.606764583,375.609427333,376.05694733300004,375.893079875,,,,,,,,375.603271417,375.606717,None,,,,,,,208,bathroom,2,2024-03-19_13h03.59.162,image_similarity_rating,2023.2.3,None,2024-03-19 13h04.16.794661 +0100,
,114,135,313,313,stimuli/own/bathroom/114_bat.jpg,stimuli/own/bathroom/135_bat.jpg,,,,,,,,,0,16,16,312,387.358027625,,,,,,,,,,,387.642668083,387.806062042,387.806062042,387.806062042,387.806062042,387.806062042,387.806062042,387.806062042,387.806062042,387.806062042,399.910370542,7,-7,1,3.0,3.9011035830000083,2.0,7.956345915999918,387.35610733299995,387.358027625,387.806062042,387.64265550000005,,,,,,,,387.352649833,387.35605966699995,None,,,,,,,208,bathroom,2,2024-03-19_13h03.59.162,image_similarity_rating,2023.2.3,None,2024-03-19 13h04.16.794661 +0100,
,117,136,359,359,stimuli/own/bathroom/117_bat.jpg,stimuli/own/bathroom/136_bat.jpg,,,,,,,,,0,17,17,358,399.91597420799997,,,,,,,,,,,400.20955825,400.37556199999995,400.37556199999995,400.37556199999995,400.37556199999995,400.37556199999995,400.37556199999995,400.37556199999995,400.37556199999995,400.37556199999995,409.51493341699995,7,-7,1,3.0,8.037473458000022,2.0,8.952935292000006,399.91405291700005,399.91597420799997,400.37556199999995,400.20954337499995,,,,,,,,399.910597125,399.91400562499996,None,,,,,,,208,bathroom,2,2024-03-19_13h03.59.162,image_similarity_rating,2023.2.3,None,2024-03-19 13h04.16.794661 +0100,
,113,116,272,272,stimuli/own/bathroom/113_bat.jpg,stimuli/own/bathroom/116_bat.jpg,,,,,,,,,0,18,18,271,409.524668667,,,,,,,,,,,409.80989429199997,409.9738065,409.9738065,409.9738065,409.9738065,409.9738065,409.9738065,409.9738065,409.9738065,409.9738065,416.077091958,-7,7,1,2.0,4.62665970799992,5.0,5.940732292000007,409.51865466699996,409.524668667,409.9738065,409.80988112499995,,,,,,,,409.515168208,409.518607125,None,,,,,,,208,bathroom,2,2024-03-19_13h03.59.162,image_similarity_rating,2023.2.3,None,2024-03-19 13h04.16.794661 +0100,
,113,131,286,286,stimuli/own/bathroom/113_bat.jpg,stimuli/own/bathroom/131_bat.jpg,,,,,,,,,0,19,19,285,416.082745458,,,,,,,,,,,416.375902042,416.540266417,416.540266417,416.540266417,416.540266417,416.540266417,416.540266417,416.540266417,416.540266417,416.540266417,428.08544895800003,7,-7,1,1.0,4.431246957999974,6.0,11.407577958000047,416.080804833,416.082745458,416.540266417,416.37588870800005,,,,,,,,416.07731658299997,416.080758083,None,,,,,,,208,bathroom,2,2024-03-19_13h03.59.162,image_similarity_rating,2023.2.3,None,2024-03-19 13h04.16.794661 +0100,
,111,131,235,235,stimuli/own/bathroom/111_bat.jpg,stimuli/own/bathroom/131_bat.jpg,,,,,,,,,0,20,20,234,428.09137020799994,,,,,,,,,,,428.37594850000005,428.542964042,428.542964042,428.542964042,428.542964042,428.542964042,428.542964042,428.542964042,428.542964042,428.542964042,438.073054125,-7,7,1,2.0,8.195365917000004,4.0,9.417627916000015,428.089208083,428.09137020799994,428.542964042,428.37593204200004,,,,,,,,428.085675208,428.08916116700004,None,,,,,,,208,bathroom,2,2024-03-19_13h03.59.162,image_similarity_rating,2023.2.3,None,2024-03-19 13h04.16.794661 +0100,
,111,139,242,242,stimuli/own/bathroom/111_bat.jpg,stimuli/own/bathroom/139_bat.jpg,,,,,,,,,0,21,21,241,438.07866449999995,,,,,,,,,,,438.36352245800003,438.52671054200005,438.52671054200005,438.52671054200005,438.52671054200005,438.52671054200005,438.52671054200005,438.52671054200005,438.52671054200005,438.52671054200005,449.89350125,7,-7,1,4.0,7.2111077499999965,5.0,11.106820333999963,438.07688937499995,438.07866449999995,438.52671054200005,438.363509333,,,,,,,,438.073281417,438.076841458,None,,,,,,,208,bathroom,2,2024-03-19_13h03.59.162,image_similarity_rating,2023.2.3,None,2024-03-19 13h04.16.794661 +0100,
,109,118,196,196,stimuli/own/bathroom/109_bat.jpg,stimuli/own/bathroom/118_bat.jpg,,,,,,,,,0,22,22,195,449.899262917,,,,,,,,,,,450.19240916700005,450.362736875,450.362736875,450.362736875,450.362736875,450.362736875,450.362736875,450.362736875,450.362736875,450.362736875,455.65200445799996,7,-7,1,3.0,4.318604458999971,6.0,5.204594292000024,449.897172083,449.899262917,450.362736875,450.19239208299996,,,,,,,,449.89372525,449.897125375,None,,,,,,,208,bathroom,2,2024-03-19_13h03.59.162,image_similarity_rating,2023.2.3,None,2024-03-19 13h04.16.794661 +0100,
,109,122,200,200,stimuli/own/bathroom/109_bat.jpg,stimuli/own/bathroom/122_bat.jpg,,,,,,,,,0,23,23,199,455.657572125,,,,,,,,,,,455.94242395799995,456.10641566699996,456.10641566699996,456.10641566699996,456.10641566699996,456.10641566699996,456.10641566699996,456.10641566699996,456.10641566699996,456.10641566699996,468.85199716700004,-7,7,1,2.0,6.452833499999997,3.0,12.520829333000052,455.65576429199996,455.657572125,456.10641566699996,455.94241058299997,,,,,,,,455.652228917,455.65571695799997,None,,,,,,,208,bathroom,2,2024-03-19_13h03.59.162,image_similarity_rating,2023.2.3,None,2024-03-19 13h04.16.794661 +0100,
,123,124,460,460,stimuli/own/bathroom/123_bat.jpg,stimuli/own/bathroom/124_bat.jpg,,,,,,,,,0,24,24,459,468.857425167,,,,,,,,,,,469.14224112500006,469.308078583,469.308078583,469.308078583,469.308078583,469.308078583,469.308078583,469.308078583,469.308078583,469.308078583,476.989709917,7,-7,1,2.0,4.210526583000046,4.0,7.45616849999999,468.855672958,468.857425167,469.308078583,469.14222641699996,,,,,,,,468.85222491699994,468.85562545799996,None,,,,,,,208,bathroom,2,2024-03-19_13h03.59.162,image_similarity_rating,2023.2.3,None,2024-03-19 13h04.16.794661 +0100,
,105,122,143,143,stimuli/own/bathroom/105_bat.jpg,stimuli/own/bathroom/122_bat.jpg,,,,,,,,,0,25,25,142,476.99533858300003,,,,,,,,,,,477.28009266699996,477.44841333299996,477.44841333299996,477.44841333299996,477.44841333299996,477.44841333299996,477.44841333299996,477.44841333299996,477.44841333299996,477.44841333299996,484.51456774999997,7,-7,1,2.0,5.832466083999975,5.0,6.918673667000007,476.993580875,476.99533858300003,477.44841333299996,477.28007275000004,,,,,,,,476.989934792,476.993532417,None,,,,,,,208,bathroom,2,2024-03-19_13h03.59.162,image_similarity_rating,2023.2.3,None,2024-03-19 13h04.16.794661 +0100,
,113,123,279,279,stimuli/own/bathroom/113_bat.jpg,stimuli/own/bathroom/123_bat.jpg,,,,,,,,,0,26,26,278,484.52447166699994,,,,,,,,,,,484.809014458,484.972340667,484.972340667,484.972340667,484.972340667,484.972340667,484.972340667,484.972340667,484.972340667,484.972340667,491.539521833,7,-7,1,4.0,5.328179458000022,3.0,6.492350124999916,484.518372333,484.52447166699994,484.972340667,484.809001083,,,,,,,,484.514790208,484.51832516699994,None,,,,,,,208,bathroom,2,2024-03-19_13h03.59.162,image_similarity_rating,2023.2.3,None,2024-03-19 13h04.16.794661 +0100,
,105,125,146,146,stimuli/own/bathroom/105_bat.jpg,stimuli/own/bathroom/125_bat.jpg,,,,,,,,,0,27,27,145,491.545145458,,,,,,,,,,,491.829898125,491.995277708,491.995277708,491.995277708,491.995277708,491.995277708,491.995277708,491.995277708,491.995277708,491.995277708,496.98523375,7,-7,1,3.0,3.8029624580000245,3.0,4.8599774159999924,491.543221042,491.545145458,491.995277708,491.829885083,,,,,,,,491.53974704200004,491.54317416699996,None,,,,,,,208,bathroom,2,2024-03-19_13h03.59.162,image_similarity_rating,2023.2.3,None,2024-03-19 13h04.16.794661 +0100,
,125,138,501,501,stimuli/own/bathroom/125_bat.jpg,stimuli/own/bathroom/138_bat.jpg,,,,,,,,,0,28,28,500,496.990865417,,,,,,,,,,,497.27558554200004,497.441321292,497.441321292,497.441321292,497.441321292,497.441321292,497.441321292,497.441321292,497.441321292,497.441321292,504.373217208,-7,7,1,2.0,4.660151166999981,3.0,6.8588005840000505,496.98900845799994,496.990865417,497.441321292,497.27556575000006,,,,,,,,496.98546287500005,496.98896137500003,None,,,,,,,208,bathroom,2,2024-03-19_13h03.59.162,image_similarity_rating,2023.2.3,None,2024-03-19 13h04.16.794661 +0100,
,124,139,488,488,stimuli/own/bathroom/124_bat.jpg,stimuli/own/bathroom/139_bat.jpg,,,,,,,,,0,29,29,487,504.378822333,,,,,,,,,,,504.662588542,504.82548695800006,504.82548695800006,504.82548695800006,504.82548695800006,504.82548695800006,504.82548695800006,504.82548695800006,504.82548695800006,504.82548695800006,511.29752291700004,7,-7,1,5.0,4.588600208000003,2.0,5.673914625000066,504.37690862500006,504.378822333,504.82548695800006,504.66257800000005,,,,,,,,504.37345937500004,504.376861417,None,,,,,,,208,bathroom,2,2024-03-19_13h03.59.162,image_similarity_rating,2023.2.3,None,2024-03-19 13h04.16.794661 +0100,
,102,127,55,55,stimuli/own/bathroom/102_bat.jpg,stimuli/own/bathroom/127_bat.jpg,,,,,,,,,0,30,30,54,511.307560125,,,,,,,,,,,511.59210525000003,511.76066808300004,511.76066808300004,511.76066808300004,511.76066808300004,511.76066808300004,511.76066808300004,511.76066808300004,511.76066808300004,511.76066808300004,521.364824042,7,-7,1,4.0,8.432067000000075,2.0,9.530035915999974,511.30119037500003,511.307560125,511.76066808300004,511.592088,,,,,,,,511.297748875,511.30114325,None,,,,,,,208,bathroom,2,2024-03-19_13h03.59.162,image_similarity_rating,2023.2.3,None,2024-03-19 13h04.16.794661 +0100,
,119,126,392,392,stimuli/own/bathroom/119_bat.jpg,stimuli/own/bathroom/126_bat.jpg,,,,,,,,,0,31,31,391,521.3742485,,,,,,,,,,,521.658734167,521.829939417,521.829939417,521.829939417,521.829939417,521.829939417,521.829939417,521.829939417,521.829939417,521.829939417,532.43552425,7,-7,1,5.0,9.196764291000022,2.0,10.519960250000054,521.368633292,521.3742485,521.829939417,521.658714708,,,,,,,,521.365046292,521.368585958,None,,,,,,,208,bathroom,2,2024-03-19_13h03.59.162,image_similarity_rating,2023.2.3,None,2024-03-19 13h04.16.794661 +0100,
,109,123,201,201,stimuli/own/bathroom/109_bat.jpg,stimuli/own/bathroom/123_bat.jpg,,,,,,,,,0,32,32,200,532.457294333,,,,,,,,,,,532.741718625,532.906410458,532.906410458,532.906410458,532.906410458,532.906410458,532.906410458,532.906410458,532.906410458,532.906410458,542.868674708,7,-7,1,5.0,9.890176750000023,2.0,7.215924458000018,532.439277833,532.457294333,,532.741698083,,,,,,,,532.435745083,532.439230917,None,,,,,,,208,bathroom,2,2024-03-19_13h03.59.162,image_similarity_rating,2023.2.3,None,2024-03-19 13h04.16.794661 +0100,
,127,138,526,526,stimuli/own/bathroom/127_bat.jpg,stimuli/own/bathroom/138_bat.jpg,,,,,,,,,0,33,33,525,542.890725792,,,,,,,,,,,543.174916833,543.339346792,543.339346792,543.339346792,543.339346792,543.339346792,543.339346792,543.339346792,543.339346792,543.339346792,557.0190099580001,7,-7,1,4.0,13.68918183400001,2.0,11.497368791999975,542.872354625,542.890725792,,543.174891375,,,,,,,,542.868898458,542.872307,None,,,,,,,208,bathroom,2,2024-03-19_13h03.59.162,image_similarity_rating,2023.2.3,None,2024-03-19 13h04.16.794661 +0100,
,114,120,300,300,stimuli/own/bathroom/114_bat.jpg,stimuli/own/bathroom/120_bat.jpg,,,,,,,,,0,34,34,299,557.0252327080001,,,,,,,,,,,557.3093535419999,557.47367425,557.47367425,557.47367425,557.47367425,557.47367425,557.47367425,557.47367425,557.47367425,557.47367425,560.0185545,7,-7,1,3.0,1.657901708000054,2.0,2.457368541999813,557.0226752079999,557.0252327080001,557.47367425,557.3093386669999,,,,,,,,557.0192352079999,557.0226282919999,None,,,,,,,208,bathroom,2,2024-03-19_13h03.59.162,image_similarity_rating,2023.2.3,None,2024-03-19 13h04.16.794661 +0100,
,119,122,388,388,stimuli/own/bathroom/119_bat.jpg,stimuli/own/bathroom/122_bat.jpg,,,,,,,,,0,35,35,387,560.040594167,,,,,,,,,,,560.3247458330001,560.490255625,560.490255625,560.490255625,560.490255625,560.490255625,560.490255625,560.490255625,560.490255625,560.490255625,569.1478853750001,7,-7,1,4.0,7.758929124999895,2.0,8.621950125000012,560.022216792,560.040594167,,560.3247263750001,,,,,,,,560.018780125,560.0221695829999,None,,,,,,,208,bathroom,2,2024-03-19_13h03.59.162,image_similarity_rating,2023.2.3,None,2024-03-19 13h04.16.794661 +0100,
,126,138,514,514,stimuli/own/bathroom/126_bat.jpg,stimuli/own/bathroom/138_bat.jpg,,,,,,,,,0,36,36,513,569.1572481249999,,,,,,,,,,,569.441956708,569.6063753330001,569.6063753330001,569.6063753330001,569.6063753330001,569.6063753330001,569.6063753330001,569.6063753330001,569.6063753330001,569.6063753330001,577.1429489169999,7,-7,1,2.0,6.369636540999863,1.0,7.424290874999997,569.151665792,569.1572481249999,569.6063753330001,569.441941958,,,,,,,,569.148116708,569.151618667,None,,,,,,,208,bathroom,2,2024-03-19_13h03.59.162,image_similarity_rating,2023.2.3,None,2024-03-19 13h04.16.794661 +0100,
,134,136,569,569,stimuli/own/bathroom/134_bat.jpg,stimuli/own/bathroom/136_bat.jpg,,,,,,,,,0,37,37,568,577.1486503330001,,,,,,,,,,,577.4418307499999,577.607262208,577.607262208,577.607262208,577.607262208,577.607262208,577.607262208,577.607262208,577.607262208,577.607262208,583.4471978749999,-7,7,1,4.0,4.100073041999849,4.0,5.778178584000216,577.146719917,577.1486503330001,577.607262208,577.4418153329999,,,,,,,,577.143176375,577.146671375,None,,,,,,,208,bathroom,2,2024-03-19_13h03.59.162,image_similarity_rating,2023.2.3,None,2024-03-19 13h04.16.794661 +0100,
,109,129,206,206,stimuli/own/bathroom/109_bat.jpg,stimuli/own/bathroom/129_bat.jpg,,,,,,,,,0,38,38,205,583.4571367919999,,,,,,,,,,,583.7417253330001,583.9062360419999,583.9062360419999,583.9062360419999,583.9062360419999,583.9062360419999,583.9062360419999,583.9062360419999,583.9062360419999,583.9062360419999,587.3098650830001,7,-7,1,4.0,2.593918209000094,2.0,3.31557404199998,583.450995708,583.4571367919999,583.9062360419999,583.741710417,,,,,,,,583.447423708,583.4509485,None,,,,,,,208,bathroom,2,2024-03-19_13h03.59.162,image_similarity_rating,2023.2.3,None,2024-03-19 13h04.16.794661 +0100,
,118,132,377,377,stimuli/own/bathroom/118_bat.jpg,stimuli/own/bathroom/132_bat.jpg,,,,,,,,,0,39,39,376,587.3157265000001,,,,,,,,,,,587.609137583,587.774586458,587.774586458,587.774586458,587.774586458,587.774586458,587.774586458,587.774586458,587.774586458,587.774586458,592.763006042,-7,7,1,2.0,2.9993369580001854,1.0,4.964388500000041,587.313664958,587.3157265000001,587.774586458,587.609123542,,,,,,,,587.3100874580001,587.313617375,None,,,,,,,208,bathroom,2,2024-03-19_13h03.59.162,image_similarity_rating,2023.2.3,None,2024-03-19 13h04.16.794661 +0100,
,123,132,467,467,stimuli/own/bathroom/123_bat.jpg,stimuli/own/bathroom/132_bat.jpg,,,,,,,,,0,40,40,466,592.773879083,,,,,,,,,,,593.058370583,593.2283677500001,593.2283677500001,593.2283677500001,593.2283677500001,593.2283677500001,593.2283677500001,593.2283677500001,593.2283677500001,593.2283677500001,602.739387125,7,-7,1,3.0,3.025079000000005,2.0,9.399914542000033,592.7667455,592.773879083,593.2283677500001,593.0583538750001,,,,,,,,592.7632265420001,592.766698,None,,,,,,,208,bathroom,2,2024-03-19_13h03.59.162,image_similarity_rating,2023.2.3,None,2024-03-19 13h04.16.794661 +0100,
,123,129,464,464,stimuli/own/bathroom/123_bat.jpg,stimuli/own/bathroom/129_bat.jpg,,,,,,,,,0,41,41,463,602.745374625,,,,,,,,,,,603.0290348750001,603.1943809170001,603.1943809170001,603.1943809170001,603.1943809170001,603.1943809170001,603.1943809170001,603.1943809170001,603.1943809170001,603.1943809170001,609.4637327080001,7,-7,1,3.0,5.1674809999999525,2.0,6.158227207999971,602.743115958,602.745374625,603.1943809170001,603.0290207500001,,,,,,,,602.739647667,602.743068333,None,,,,,,,208,bathroom,2,2024-03-19_13h03.59.162,image_similarity_rating,2023.2.3,None,2024-03-19 13h04.16.794661 +0100,
,122,129,448,448,stimuli/own/bathroom/122_bat.jpg,stimuli/own/bathroom/129_bat.jpg,,,,,,,,,0,42,42,447,609.4736967499999,,,,,,,,,,,609.758708042,609.921835625,609.921835625,609.921835625,609.921835625,609.921835625,609.921835625,609.921835625,609.921835625,609.921835625,618.5560946249999,-7,7,1,2.0,7.0813878750000185,3.0,8.53401708299998,609.4674471669999,609.4736967499999,609.921835625,609.7586942500001,,,,,,,,609.463958208,609.4673945000001,None,,,,,,,208,bathroom,2,2024-03-19_13h03.59.162,image_similarity_rating,2023.2.3,None,2024-03-19 13h04.16.794661 +0100,
,129,140,539,539,stimuli/own/bathroom/129_bat.jpg,stimuli/own/bathroom/140_bat.jpg,,,,,,,,,0,43,43,538,618.5618081250001,,,,,,,,,,,618.845676042,619.0095876669999,619.0095876669999,619.0095876669999,619.0095876669999,619.0095876669999,619.0095876669999,619.0095876669999,619.0095876669999,619.0095876669999,626.800954208,-7,7,1,3.0,6.542587375000039,3.0,7.7169742080000105,618.5598947079999,618.5618081250001,619.0095876669999,618.845663208,,,,,,,,618.5563270419999,618.559847333,None,,,,,,,208,bathroom,2,2024-03-19_13h03.59.162,image_similarity_rating,2023.2.3,None,2024-03-19 13h04.16.794661 +0100,
,106,135,183,183,stimuli/own/bathroom/106_bat.jpg,stimuli/own/bathroom/135_bat.jpg,,,,,,,,,0,44,44,182,626.80694,,,,,,,,,,,627.0927379579999,627.256544208,627.256544208,627.256544208,627.256544208,627.256544208,627.256544208,627.256544208,627.256544208,627.256544208,632.355724917,7,-7,1,2.0,3.5267497909999292,6.0,4.924583874999826,626.804609083,626.80694,627.256544208,627.092719542,,,,,,,,626.8011847920001,626.8045625420001,None,,,,,,,208,bathroom,2,2024-03-19_13h03.59.162,image_similarity_rating,2023.2.3,None,2024-03-19 13h04.16.794661 +0100,
,109,138,214,214,stimuli/own/bathroom/109_bat.jpg,stimuli/own/bathroom/138_bat.jpg,,,,,,,,,0,45,45,213,632.361456875,,,,,,,,,,,632.645917333,632.8149152499999,632.8149152499999,632.8149152499999,632.8149152499999,632.8149152499999,632.8149152499999,632.8149152499999,632.8149152499999,632.8149152499999,639.3893926669999,7,-7,1,3.0,3.4776233749998937,5.0,4.613012165999862,632.3593724579999,632.361456875,632.8149152499999,632.6459015419999,,,,,,,,632.3559502920001,632.359325583,None,,,,,,,208,bathroom,2,2024-03-19_13h03.59.162,image_similarity_rating,2023.2.3,None,2024-03-19 13h04.16.794661 +0100,
,130,139,548,548,stimuli/own/bathroom/130_bat.jpg,stimuli/own/bathroom/139_bat.jpg,,,,,,,,,0,46,46,547,639.394972083,,,,,,,,,,,639.6780063750001,639.839805167,639.839805167,639.839805167,639.839805167,639.839805167,639.839805167,639.839805167,639.839805167,639.839805167,649.805729583,-7,7,1,4.0,9.106192333000081,6.0,9.853586124999993,639.3930501670001,639.394972083,639.839805167,639.677995958,,,,,,,,639.3896228750001,639.3930026669999,None,,,,,,,208,bathroom,2,2024-03-19_13h03.59.162,image_similarity_rating,2023.2.3,None,2024-03-19 13h04.16.794661 +0100,
,102,138,64,64,stimuli/own/bathroom/102_bat.jpg,stimuli/own/bathroom/138_bat.jpg,,,,,,,,,0,47,47,63,649.811325792,,,,,,,,,,,650.0956378750001,650.259153958,650.259153958,650.259153958,650.259153958,650.259153958,650.259153958,650.259153958,650.259153958,650.259153958,655.143211083,-7,7,1,6.0,3.851497917000188,2.0,4.798107666000078,649.809394583,649.811325792,650.259153958,650.0956224580001,,,,,,,,649.8059738329999,649.809347,None,,,,,,,208,bathroom,2,2024-03-19_13h03.59.162,image_similarity_rating,2023.2.3,None,2024-03-19 13h04.16.794661 +0100,
,121,123,426,426,stimuli/own/bathroom/121_bat.jpg,stimuli/own/bathroom/123_bat.jpg,,,,,,,,,0,48,48,425,655.156882417,,,,,,,,,,,655.4415599580001,655.606366292,655.606366292,655.606366292,655.606366292,655.606366292,655.606366292,655.606366292,655.606366292,655.606366292,661.501013833,-7,7,1,4.0,4.841506542000161,2.0,5.74643637500003,655.147023917,655.156882417,655.606366292,655.44154575,,,,,,,,655.143453542,655.1469747499999,None,,,,,,,208,bathroom,2,2024-03-19_13h03.59.162,image_similarity_rating,2023.2.3,None,2024-03-19 13h04.16.794661 +0100,
,112,123,254,254,stimuli/own/bathroom/112_bat.jpg,stimuli/own/bathroom/123_bat.jpg,,,,,,,,,0,49,49,253,661.5069051249999,,,,,,,,,,,661.7916692919999,661.9563267499999,661.9563267499999,661.9563267499999,661.9563267499999,661.9563267499999,661.9563267499999,661.9563267499999,661.9563267499999,661.9563267499999,675.5345712080001,7,-7,1,5.0,11.533146374999887,4.0,13.467214874999854,661.5047136669999,661.5069051249999,661.9563267499999,661.791654083,,,,,,,,661.501236958,661.504666792,None,,,,,,,208,bathroom,2,2024-03-19_13h03.59.162,image_similarity_rating,2023.2.3,None,2024-03-19 13h04.16.794661 +0100,
,103,106,70,70,stimuli/own/bathroom/103_bat.jpg,stimuli/own/bathroom/106_bat.jpg,,,,,,,,,0,50,50,69,675.5399760419999,,,,,,,,,,,675.8251073329999,675.988630125,675.988630125,675.988630125,675.988630125,675.988630125,675.988630125,675.988630125,675.988630125,675.988630125,682.1554546670001,-7,7,1,4.0,4.655205749999823,3.0,5.95548229100018,675.538171042,675.5399760419999,675.988630125,675.8250940419999,,,,,,,,675.5347945,675.538123875,None,,,,,,,208,bathroom,2,2024-03-19_13h03.59.162,image_similarity_rating,2023.2.3,None,2024-03-19 13h04.16.794661 +0100,
,139,141,594,594,stimuli/own/bathroom/139_bat.jpg,stimuli/own/bathroom/141_bat.jpg,,,,,,,,,0,51,51,593,682.1610280420001,,,,,,,,,,,682.445559292,682.6091659580001,682.6091659580001,682.6091659580001,682.6091659580001,682.6091659580001,682.6091659580001,682.6091659580001,682.6091659580001,682.6091659580001,686.922184875,7,-7,1,4.0,3.4690668329999426,3.0,4.252039083,682.1591079579999,682.1610280420001,682.6091659580001,682.445548583,,,,,,,,682.155680083,682.1590573330001,None,,,,,,,208,bathroom,2,2024-03-19_13h03.59.162,image_similarity_rating,2023.2.3,None,2024-03-19 13h04.16.794661 +0100,
,112,118,249,249,stimuli/own/bathroom/112_bat.jpg,stimuli/own/bathroom/118_bat.jpg,,,,,,,,,0,52,52,248,686.9276458749999,,,,,,,,,,,687.2130687079999,687.3753747080001,687.3753747080001,687.3753747080001,687.3753747080001,687.3753747080001,687.3753747080001,687.3753747080001,687.3753747080001,687.3753747080001,694.784525292,-7,7,1,3.0,4.749786542000038,1.0,7.324180209000133,686.9258375420001,686.9276458749999,687.3753747080001,687.213058125,,,,,,,,686.9224155830001,686.925787458,None,,,,,,,208,bathroom,2,2024-03-19_13h03.59.162,image_similarity_rating,2023.2.3,None,2024-03-19 13h04.16.794661 +0100,
,126,136,512,512,stimuli/own/bathroom/126_bat.jpg,stimuli/own/bathroom/136_bat.jpg,,,,,,,,,0,53,53,511,694.7900914579999,,,,,,,,,,,695.075158,695.238367667,695.238367667,695.238367667,695.238367667,695.238367667,695.238367667,695.238367667,695.238367667,695.238367667,706.0923986670001,7,-7,1,6.0,5.384636582999974,6.0,8.556443709000177,694.7881227920001,694.7900914579999,695.238367667,695.0751441670001,,,,,,,,694.78474875,694.7880764170001,None,,,,,,,208,bathroom,2,2024-03-19_13h03.59.162,image_similarity_rating,2023.2.3,None,2024-03-19 13h04.16.794661 +0100,
,112,132,262,609,stimuli/own/bathroom/112_bat.jpg,stimuli/own/bathroom/132_bat.jpg,,,,,,,,,0,54,54,608,706.097899625,,,,,,,,,,,706.391918375,706.554861875,706.554861875,706.554861875,706.554861875,706.554861875,706.554861875,706.554861875,706.554861875,706.554861875,714.9468015829999,-7,7,1,6.0,7.034131000000116,6.0,8.199535250000054,706.0961395420001,706.097899625,706.554861875,706.391905333,,,,,,,,706.092624667,706.096093,None,,,,,,,208,bathroom,2,2024-03-19_13h03.59.162,image_similarity_rating,2023.2.3,None,2024-03-19 13h04.16.794661 +0100,
,103,121,81,81,stimuli/own/bathroom/103_bat.jpg,stimuli/own/bathroom/121_bat.jpg,,,,,,,,,0,55,55,80,714.9566525829999,,,,,,,,,,,715.241378542,715.410259958,715.410259958,715.410259958,715.410259958,715.410259958,715.410259958,715.410259958,715.410259958,715.410259958,724.0465665,7,-7,1,5.0,6.675455374999956,2.0,8.52483329200004,714.9504545420001,714.9566525829999,715.410259958,715.2413613330001,,,,,,,,714.9470324580001,714.950407208,None,,,,,,,208,bathroom,2,2024-03-19_13h03.59.162,image_similarity_rating,2023.2.3,None,2024-03-19 13h04.16.794661 +0100,
,111,119,224,224,stimuli/own/bathroom/111_bat.jpg,stimuli/own/bathroom/119_bat.jpg,,,,,,,,,0,56,56,223,724.056614917,,,,,,,,,,,724.342002875,724.506555375,724.506555375,724.506555375,724.506555375,724.506555375,724.506555375,724.506555375,724.506555375,724.506555375,729.80903325,7,-7,1,5.0,1.5939161670000885,2.0,4.628539916999898,724.0502091249999,724.056614917,724.506555375,724.341990083,,,,,,,,724.0467868750001,724.050162292,None,,,,,,,208,bathroom,2,2024-03-19_13h03.59.162,image_similarity_rating,2023.2.3,None,2024-03-19 13h04.16.794661 +0100,
,119,123,389,389,stimuli/own/bathroom/119_bat.jpg,stimuli/own/bathroom/123_bat.jpg,,,,,,,,,0,57,57,388,729.8147386249999,,,,,,,,,,,730.108788417,730.2745140000001,730.2745140000001,730.2745140000001,730.2745140000001,730.2745140000001,730.2745140000001,730.2745140000001,730.2745140000001,730.2745140000001,737.6591318750001,-7,7,1,5.0,2.148826500000041,3.0,7.2717619169998216,729.8128183330001,729.8147386249999,730.2745140000001,730.1087699579999,,,,,,,,729.80925575,729.812771583,None,,,,,,,208,bathroom,2,2024-03-19_13h03.59.162,image_similarity_rating,2023.2.3,None,2024-03-19 13h04.16.794661 +0100,
,116,126,329,329,stimuli/own/bathroom/116_bat.jpg,stimuli/own/bathroom/126_bat.jpg,,,,,,,,,0,58,58,328,737.664847958,,,,,,,,,,,737.9579002080001,738.1235350420001,738.1235350420001,738.1235350420001,738.1235350420001,738.1235350420001,738.1235350420001,738.1235350420001,738.1235350420001,738.1235350420001,747.963166417,-7,7,1,2.0,8.805338292000215,2.0,9.680099291000033,737.6627737079999,737.664847958,738.1235350420001,737.957884458,,,,,,,,737.65935725,737.662727,None,,,,,,,208,bathroom,2,2024-03-19_13h03.59.162,image_similarity_rating,2023.2.3,None,2024-03-19 13h04.16.794661 +0100,
,118,131,376,376,stimuli/own/bathroom/118_bat.jpg,stimuli/own/bathroom/131_bat.jpg,,,,,,,,,0,59,59,375,747.973150125,,,,,,,,,,,748.257781417,748.425330167,748.425330167,748.425330167,748.425330167,748.425330167,748.425330167,748.425330167,748.425330167,748.425330167,759.2177125,-7,7,1,2.0,9.730869833000042,3.0,10.580984625000156,747.9668284999999,747.973150125,748.425330167,748.2577681250001,,,,,,,,747.963392583,747.9667814170001,None,,,,,,,208,bathroom,2,2024-03-19_13h03.59.162,image_similarity_rating,2023.2.3,None,2024-03-19 13h04.16.794661 +0100,
,131,139,557,557,stimuli/own/bathroom/131_bat.jpg,stimuli/own/bathroom/139_bat.jpg,,,,,,,,,0,60,60,556,759.2400979170001,,,,,,,,,,,759.5240431670001,759.6899506670001,759.6899506670001,759.6899506670001,759.6899506670001,759.6899506670001,759.6899506670001,759.6899506670001,759.6899506670001,759.6899506670001,764.938688625,-7,7,1,2.0,3.192411165999829,2.0,5.137986749999982,759.221598167,759.2400979170001,,759.524022042,,,,,,,,759.217937542,759.2215481669999,None,,,,,,,208,bathroom,2,2024-03-19_13h03.59.162,image_similarity_rating,2023.2.3,None,2024-03-19 13h04.16.794661 +0100,
,111,137,240,240,stimuli/own/bathroom/111_bat.jpg,stimuli/own/bathroom/137_bat.jpg,,,,,,,,,0,61,61,239,764.9443272499999,,,,,,,,,,,765.228606,765.393398417,765.393398417,765.393398417,765.393398417,765.393398417,765.393398417,765.393398417,765.393398417,765.393398417,772.0927123329999,-7,7,1,3.0,5.183301166000092,5.0,6.591414500000155,764.9423862079999,764.9443272499999,765.393398417,765.228592542,,,,,,,,764.9389345000001,764.942339375,None,,,,,,,208,bathroom,2,2024-03-19_13h03.59.162,image_similarity_rating,2023.2.3,None,2024-03-19 13h04.16.794661 +0100,
,102,124,52,52,stimuli/own/bathroom/102_bat.jpg,stimuli/own/bathroom/124_bat.jpg,,,,,,,,,0,62,62,51,772.098269708,,,,,,,,,,,772.3919015,772.558430708,772.558430708,772.558430708,772.558430708,772.558430708,772.558430708,772.558430708,772.558430708,772.558430708,777.767355542,-7,7,1,3.0,5.196040541000002,6.0,3.0768000419998316,772.096355667,772.098269708,772.558430708,772.3918863749999,,,,,,,,772.092933583,772.0963096669999,None,,,,,,,208,bathroom,2,2024-03-19_13h03.59.162,image_similarity_rating,2023.2.3,None,2024-03-19 13h04.16.794661 +0100,
,123,135,469,469,stimuli/own/bathroom/123_bat.jpg,stimuli/own/bathroom/135_bat.jpg,,,,,,,,,0,63,63,468,777.790021167,,,,,,,,,,,779.4577552080001,779.6305167500001,779.6305167500001,779.6305167500001,779.6305167500001,779.6305167500001,779.6305167500001,779.6305167500001,779.6305167500001,779.6305167500001,792.39296125,7,-7,2,3.0,9.249567333999948,2.0,11.264283375000105,779.1664984580001,779.1737784579999,779.6305167500001,779.4577379169999,,,,,,,,777.767579292,779.165217375,space,777.790021167,1.3750378750000891,None,,,,208,bathroom,2,2024-03-19_13h03.59.162,image_similarity_rating,2023.2.3,None,2024-03-19 13h04.16.794661 +0100,
,137,139,587,587,stimuli/own/bathroom/137_bat.jpg,stimuli/own/bathroom/139_bat.jpg,,,,,,,,,0,64,64,586,792.3996222080001,,,,,,,,,,,792.6919193750001,792.856724542,792.856724542,792.856724542,792.856724542,792.856724542,792.856724542,792.856724542,792.856724542,792.856724542,798.3051447920001,7,-7,2,5.0,3.6996012080001037,5.0,5.398941165999986,792.397537167,792.3996222080001,792.856724542,792.691904917,,,,,,,,792.3931855,792.3974870830001,None,,,,,,,208,bathroom,2,2024-03-19_13h03.59.162,image_similarity_rating,2023.2.3,None,2024-03-19 13h04.16.794661 +0100,
,101,112,8,8,stimuli/own/bathroom/101_bat.jpg,stimuli/own/bathroom/112_bat.jpg,,,,,,,,,0,65,65,7,798.310872333,,,,,,,,,,,798.5960666249999,798.759687417,798.759687417,798.759687417,798.759687417,798.759687417,798.759687417,798.759687417,798.759687417,798.759687417,804.3632066250001,-7,7,2,4.0,3.2297777080000287,5.0,5.411600832999966,798.3088571669999,798.310872333,798.759687417,798.5960563330001,,,,,,,,798.305395708,798.3088101249999,None,,,,,,,208,bathroom,2,2024-03-19_13h03.59.162,image_similarity_rating,2023.2.3,None,2024-03-19 13h04.16.794661 +0100,
,102,123,51,51,stimuli/own/bathroom/102_bat.jpg,stimuli/own/bathroom/123_bat.jpg,,,,,,,,,0,66,66,50,804.373037708,,,,,,,,,,,804.6579275,804.823875333,804.823875333,804.823875333,804.823875333,804.823875333,804.823875333,804.823875333,804.823875333,804.823875333,808.1176582500001,-7,7,2,5.0,2.441471083000124,5.0,3.0640233750000334,804.3668434580001,804.373037708,804.823875333,804.6579142080001,,,,,,,,804.3634276250001,804.366796958,None,,,,,,,208,bathroom,2,2024-03-19_13h03.59.162,image_similarity_rating,2023.2.3,None,2024-03-19 13h04.16.794661 +0100,
,111,132,236,236,stimuli/own/bathroom/111_bat.jpg,stimuli/own/bathroom/132_bat.jpg,,,,,,,,,0,67,67,235,808.1398303330001,,,,,,,,,,,808.4237112500001,808.5886268329999,808.5886268329999,808.5886268329999,808.5886268329999,808.5886268329999,808.5886268329999,808.5886268329999,808.5886268329999,808.5886268329999,816.1253070829999,-7,7,2,6.0,6.304047416000003,7.0,7.418959207999933,808.121331167,808.1398303330001,,808.4236824999999,,,,,,,,808.117877625,808.1212846249999,None,,,,,,,208,bathroom,2,2024-03-19_13h03.59.162,image_similarity_rating,2023.2.3,None,2024-03-19 13h04.16.794661 +0100,
,125,132,496,496,stimuli/own/bathroom/125_bat.jpg,stimuli/own/bathroom/132_bat.jpg,,,,,,,,,0,68,68,495,816.130912667,,,,,,,,,,,816.4240121669999,816.589895958,816.589895958,816.589895958,816.589895958,816.589895958,816.589895958,816.589895958,816.589895958,816.589895958,820.5794435829999,-7,7,2,6.0,2.5556122499999674,3.0,3.865036958000019,816.12898975,816.130912667,816.589895958,816.423998917,,,,,,,,816.125528083,816.128943625,None,,,,,,,208,bathroom,2,2024-03-19_13h03.59.162,image_similarity_rating,2023.2.3,None,2024-03-19 13h04.16.794661 +0100,
,118,129,374,374,stimuli/own/bathroom/118_bat.jpg,stimuli/own/bathroom/129_bat.jpg,,,,,,,,,0,69,69,373,820.589543792,,,,,,,,,,,820.875040542,821.039933958,821.039933958,821.039933958,821.039933958,821.039933958,821.039933958,821.039933958,821.039933958,821.039933958,827.5297018330001,7,-7,2,2.0,5.449941916999933,2.0,6.347424667000041,820.5831715,820.589543792,821.039933958,820.87502775,,,,,,,,820.579666125,820.5831247079999,None,,,,,,,208,bathroom,2,2024-03-19_13h03.59.162,image_similarity_rating,2023.2.3,None,2024-03-19 13h04.16.794661 +0100,
,112,136,265,265,stimuli/own/bathroom/112_bat.jpg,stimuli/own/bathroom/136_bat.jpg,,,,,,,,,0,70,70,264,827.539480708,,,,,,,,,,,827.824207083,827.989115667,827.989115667,827.989115667,827.989115667,827.989115667,827.989115667,827.989115667,827.989115667,827.989115667,832.441850458,7,-7,2,5.0,3.3673134579998987,5.0,4.240424042000086,827.5333508750001,827.539480708,827.989115667,827.824192375,,,,,,,,827.5299207080001,827.533305,None,,,,,,,208,bathroom,2,2024-03-19_13h03.59.162,image_similarity_rating,2023.2.3,None,2024-03-19 13h04.16.794661 +0100,
,101,141,34,34,stimuli/own/bathroom/101_bat.jpg,stimuli/own/bathroom/141_bat.jpg,,,,,,,,,0,71,71,33,832.4474293330001,,,,,,,,,,,832.740956,832.903913833,832.903913833,832.903913833,832.903913833,832.903913833,832.903913833,832.903913833,832.903913833,832.903913833,837.2721035420001,7,-7,2,4.0,3.3792764170000282,4.0,4.187114374999965,832.4454810000001,832.4474293330001,832.903913833,832.740942625,,,,,,,,832.4420739579999,832.445434958,None,,,,,,,208,bathroom,2,2024-03-19_13h03.59.162,image_similarity_rating,2023.2.3,None,2024-03-19 13h04.16.794661 +0100,
,106,132,181,181,stimuli/own/bathroom/106_bat.jpg,stimuli/own/bathroom/132_bat.jpg,,,,,,,,,0,72,72,180,837.2775733750001,,,,,,,,,,,837.5620955,837.725138333,837.725138333,837.725138333,837.725138333,837.725138333,837.725138333,837.725138333,837.725138333,837.725138333,844.817280417,-7,7,2,3.0,5.991178625000202,6.0,6.879288666999855,837.2758177920001,837.2775733750001,837.725138333,837.5620821250001,,,,,,,,837.2723212919999,837.2757706670001,None,,,,,,,208,bathroom,2,2024-03-19_13h03.59.162,image_similarity_rating,2023.2.3,None,2024-03-19 13h04.16.794661 +0100,
,101,136,29,29,stimuli/own/bathroom/101_bat.jpg,stimuli/own/bathroom/136_bat.jpg,,,,,,,,,0,73,73,28,844.822708542,,,,,,,,,,,845.107502958,845.272296833,845.272296833,845.272296833,845.272296833,845.272296833,845.272296833,845.272296833,845.272296833,845.272296833,849.5172476250001,-7,7,2,4.0,4.192560209000021,6.0,1.6553258330000062,844.820932625,844.822708542,845.272296833,845.1074871669999,,,,,,,,844.8175044999999,844.82088575,None,,,,,,,208,bathroom,2,2024-03-19_13h03.59.162,image_similarity_rating,2023.2.3,None,2024-03-19 13h04.16.794661 +0100,
,136,141,585,585,stimuli/own/bathroom/136_bat.jpg,stimuli/own/bathroom/141_bat.jpg,,,,,,,,,0,74,74,584,849.5398220000001,,,,,,,,,,,849.8235745420001,849.9926282499999,849.9926282499999,849.9926282499999,849.9926282499999,849.9926282499999,849.9926282499999,849.9926282499999,849.9926282499999,849.9926282499999,856.6418696669999,-7,7,2,5.0,4.373592666999912,3.0,6.347845125000049,849.520908458,849.5398220000001,,849.8235317499999,,,,,,,,849.517471,849.520862167,None,,,,,,,208,bathroom,2,2024-03-19_13h03.59.162,image_similarity_rating,2023.2.3,None,2024-03-19 13h04.16.794661 +0100,
,106,114,165,165,stimuli/own/bathroom/106_bat.jpg,stimuli/own/bathroom/114_bat.jpg,,,,,,,,,0,75,75,164,856.6474405,,,,,,,,,,,856.940579792,857.105000208,857.105000208,857.105000208,857.105000208,857.105000208,857.105000208,857.105000208,857.105000208,857.105000208,867.0882255,7,-7,2,4.0,9.828678625000066,6.0,7.477526790999946,856.645516875,856.6474405,857.105000208,856.9405645,,,,,,,,856.642103083,856.6454709999999,None,,,,,,,208,bathroom,2,2024-03-19_13h03.59.162,image_similarity_rating,2023.2.3,None,2024-03-19 13h04.16.794661 +0100,
,122,141,459,459,stimuli/own/bathroom/122_bat.jpg,stimuli/own/bathroom/141_bat.jpg,,,,,,,,,0,76,76,458,867.0938024999999,,,,,,,,,,,867.3776121669999,867.540718958,867.540718958,867.540718958,867.540718958,867.540718958,867.540718958,867.540718958,867.540718958,867.540718958,872.9714937919999,-7,7,2,5.0,4.425242083000057,3.0,5.262941333000072,867.0919051669999,867.0938024999999,867.540718958,867.3775990830001,,,,,,,,867.0884745,867.0918578330001,None,,,,,,,208,bathroom,2,2024-03-19_13h03.59.162,image_similarity_rating,2023.2.3,None,2024-03-19 13h04.16.794661 +0100,
,103,118,78,78,stimuli/own/bathroom/103_bat.jpg,stimuli/own/bathroom/118_bat.jpg,,,,,,,,,0,77,77,77,872.977140458,,,,,,,,,,,873.2612095420001,873.424647125,873.424647125,873.424647125,873.424647125,873.424647125,873.424647125,873.424647125,873.424647125,873.424647125,876.4296472499999,-7,7,2,2.0,2.1694608749999134,2.0,2.7681289170000127,872.9751976250001,872.977140458,873.424647125,873.2611969999999,,,,,,,,872.971740417,872.975151167,None,,,,,,,208,bathroom,2,2024-03-19_13h03.59.162,image_similarity_rating,2023.2.3,None,2024-03-19 13h04.16.794661 +0100,
,117,124,349,349,stimuli/own/bathroom/117_bat.jpg,stimuli/own/bathroom/124_bat.jpg,,,,,,,,,0,78,78,348,876.4394244169999,,,,,,,,,,,876.7246179580001,876.887413625,876.887413625,876.887413625,876.887413625,876.887413625,876.887413625,876.887413625,876.887413625,876.887413625,883.4585020830001,7,-7,2,4.0,5.191449666999915,2.0,6.361778332999847,876.4334680000001,876.4394244169999,876.887413625,876.724602833,,,,,,,,876.4298700830001,876.4334212919999,None,,,,,,,208,bathroom,2,2024-03-19_13h03.59.162,image_similarity_rating,2023.2.3,None,2024-03-19 13h04.16.794661 +0100,
,101,130,24,24,stimuli/own/bathroom/101_bat.jpg,stimuli/own/bathroom/130_bat.jpg,,,,,,,,,0,79,79,23,883.4643063330001,,,,,,,,,,,883.757158042,883.919912167,883.919912167,883.919912167,883.919912167,883.919912167,883.919912167,883.919912167,883.919912167,883.919912167,891.812178792,7,-7,2,3.0,7.053932541999984,3.0,7.717230875000041,883.462247375,883.4643063330001,883.919912167,883.7571449579999,,,,,,,,883.458723583,883.46220125,None,,,,,,,208,bathroom,2,2024-03-19_13h03.59.162,image_similarity_rating,2023.2.3,None,2024-03-19 13h04.16.794661 +0100,
,125,131,495,495,stimuli/own/bathroom/125_bat.jpg,stimuli/own/bathroom/131_bat.jpg,,,,,,,,,0,80,80,494,891.8225825000001,,,,,,,,,,,892.10722675,892.2732589579999,892.2732589579999,892.2732589579999,892.2732589579999,892.2732589579999,892.2732589579999,892.2732589579999,892.2732589579999,892.2732589579999,896.6415297499999,7,-7,2,2.0,2.8025870000001305,5.0,4.169603999999936,891.8159650419999,891.8225825000001,892.2732589579999,892.1072123749999,,,,,,,,891.812400125,891.815918167,None,,,,,,,208,bathroom,2,2024-03-19_13h03.59.162,image_similarity_rating,2023.2.3,None,2024-03-19 13h04.16.794661 +0100,
,111,114,220,220,stimuli/own/bathroom/111_bat.jpg,stimuli/own/bathroom/114_bat.jpg,,,,,,,,,0,81,81,219,896.647340958,,,,,,,,,,,896.940504,897.1053645830001,897.1053645830001,897.1053645830001,897.1053645830001,897.1053645830001,897.1053645830001,897.1053645830001,897.1053645830001,897.1053645830001,906.8955205829999,-7,7,2,4.0,7.144731582999839,3.0,8.578986207999833,896.64526175,896.647340958,897.1053645830001,896.9404854999999,,,,,,,,896.6417513749999,896.6452157079999,None,,,,,,,208,bathroom,2,2024-03-19_13h03.59.162,image_similarity_rating,2023.2.3,None,2024-03-19 13h04.16.794661 +0100,
,129,137,536,536,stimuli/own/bathroom/129_bat.jpg,stimuli/own/bathroom/137_bat.jpg,,,,,,,,,0,82,82,535,906.905855333,,,,,,,,,,,907.191223333,907.3579586249999,907.3579586249999,907.3579586249999,907.3579586249999,907.3579586249999,907.3579586249999,907.3579586249999,907.3579586249999,907.3579586249999,911.9710317079999,7,-7,2,3.0,3.604010666000022,4.0,4.429557749999958,906.8991615000001,906.905855333,907.3579586249999,907.191207125,,,,,,,,906.8957443749999,906.8991152499999,None,,,,,,,208,bathroom,2,2024-03-19_13h03.59.162,image_similarity_rating,2023.2.3,None,2024-03-19 13h04.16.794661 +0100,
,125,135,498,498,stimuli/own/bathroom/125_bat.jpg,stimuli/own/bathroom/135_bat.jpg,,,,,,,,,0,83,83,497,911.97687325,,,,,,,,,,,912.261854167,912.423982792,912.423982792,912.423982792,912.423982792,912.423982792,912.423982792,912.423982792,912.423982792,912.423982792,919.2177036669999,7,-7,2,3.0,6.739425707999999,5.0,5.704175832999908,911.9747887079999,911.97687325,912.423982792,912.2618435830001,,,,,,,,911.971251458,911.9747411669999,None,,,,,,,208,bathroom,2,2024-03-19_13h03.59.162,image_similarity_rating,2023.2.3,None,2024-03-19 13h04.16.794661 +0100,
,131,138,556,556,stimuli/own/bathroom/131_bat.jpg,stimuli/own/bathroom/138_bat.jpg,,,,,,,,,0,84,84,555,919.2238025,,,,,,,,,,,919.507269417,919.6732921250001,919.6732921250001,919.6732921250001,919.6732921250001,919.6732921250001,919.6732921250001,919.6732921250001,919.6732921250001,919.6732921250001,931.8666467920001,-7,7,2,2.0,9.083350707999898,1.0,11.930946666999944,919.221381708,919.2238025,919.6732921250001,919.5072504579999,,,,,,,,919.217935583,919.2213355,None,,,,,,,208,bathroom,2,2024-03-19_13h03.59.162,image_similarity_rating,2023.2.3,None,2024-03-19 13h04.16.794661 +0100,
,104,129,119,119,stimuli/own/bathroom/104_bat.jpg,stimuli/own/bathroom/129_bat.jpg,,,,,,,,,0,85,85,118,931.8721549579999,,,,,,,,,,,932.1578869169999,932.3225067919999,932.3225067919999,932.3225067919999,932.3225067919999,932.3225067919999,932.3225067919999,932.3225067919999,932.3225067919999,932.3225067919999,940.0835806670001,7,-7,2,2.0,5.834556833000079,4.0,7.347715833000166,931.8702764999999,931.8721549579999,932.3225067919999,932.157873167,,,,,,,,931.8668685829999,931.870230292,None,,,,,,,208,bathroom,2,2024-03-19_13h03.59.162,image_similarity_rating,2023.2.3,None,2024-03-19 13h04.16.794661 +0100,
,114,126,306,306,stimuli/own/bathroom/114_bat.jpg,stimuli/own/bathroom/126_bat.jpg,,,,,,,,,0,86,86,305,940.0890335830001,,,,,,,,,,,940.3737481669999,940.5386428329999,940.5386428329999,940.5386428329999,940.5386428329999,940.5386428329999,940.5386428329999,940.5386428329999,940.5386428329999,940.5386428329999,951.9500248749999,-7,7,2,6.0,10.43564183300009,6.0,11.285667708000119,940.087217458,940.0890335830001,940.5386428329999,940.3737347079999,,,,,,,,940.0838024169999,940.0871707079999,None,,,,,,,208,bathroom,2,2024-03-19_13h03.59.162,image_similarity_rating,2023.2.3,None,2024-03-19 13h04.16.794661 +0100,
,119,129,394,394,stimuli/own/bathroom/119_bat.jpg,stimuli/own/bathroom/129_bat.jpg,,,,,,,,,0,87,87,393,951.955628,,,,,,,,,,,952.2403533749999,952.4055931250001,952.4055931250001,952.4055931250001,952.4055931250001,952.4055931250001,952.4055931250001,952.4055931250001,952.4055931250001,952.4055931250001,958.33381425,7,-7,2,2.0,4.6381549580000865,4.0,5.728226999999833,951.9537866669999,951.955628,952.4055931250001,952.240338667,,,,,,,,951.9502437079999,951.9537401250001,None,,,,,,,208,bathroom,2,2024-03-19_13h03.59.162,image_similarity_rating,2023.2.3,None,2024-03-19 13h04.16.794661 +0100,
,102,119,47,47,stimuli/own/bathroom/102_bat.jpg,stimuli/own/bathroom/119_bat.jpg,,,,,,,,,0,88,88,46,958.355718958,,,,,,,,,,,958.6399519580001,958.8094535829999,958.8094535829999,958.8094535829999,958.8094535829999,958.8094535829999,958.8094535829999,958.8094535829999,958.8094535829999,958.8094535829999,966.6414202080001,-7,7,2,4.0,7.796440458000006,5.0,4.618174082999985,958.337477083,958.355718958,,958.6399270420001,,,,,,,,958.3340402079999,958.337430958,None,,,,,,,208,bathroom,2,2024-03-19_13h03.59.162,image_similarity_rating,2023.2.3,None,2024-03-19 13h04.16.794661 +0100,
,102,130,57,57,stimuli/own/bathroom/102_bat.jpg,stimuli/own/bathroom/130_bat.jpg,,,,,,,,,0,89,89,56,966.646979625,,,,,,,,,,,966.9402958750001,967.10476,967.10476,967.10476,967.10476,967.10476,967.10476,967.10476,967.10476,967.10476,972.407933458,-7,7,2,5.0,3.995366625000088,6.0,5.104531208000026,966.645047375,966.646979625,967.10476,966.9402813329999,,,,,,,,966.641640333,966.6450014999999,None,,,,,,,208,bathroom,2,2024-03-19_13h03.59.162,image_similarity_rating,2023.2.3,None,2024-03-19 13h04.16.794661 +0100,
,106,136,184,184,stimuli/own/bathroom/106_bat.jpg,stimuli/own/bathroom/136_bat.jpg,,,,,,,,,0,90,90,183,972.4135022500001,,,,,,,,,,,972.7069317080001,972.8720568750001,972.8720568750001,972.8720568750001,972.8720568750001,972.8720568750001,972.8720568750001,972.8720568750001,972.8720568750001,972.8720568750001,976.987564167,7,-7,2,4.0,3.1546571669998684,4.0,3.9145292919999974,972.41158175,972.4135022500001,972.8720568750001,972.706906667,,,,,,,,972.4081540830001,972.411535375,None,,,,,,,208,bathroom,2,2024-03-19_13h03.59.162,image_similarity_rating,2023.2.3,None,2024-03-19 13h04.16.794661 +0100,
,135,136,575,575,stimuli/own/bathroom/135_bat.jpg,stimuli/own/bathroom/136_bat.jpg,,,,,,,,,0,91,91,574,976.9929894170001,,,,,,,,,,,977.277362917,977.4422607079999,977.4422607079999,977.4422607079999,977.4422607079999,977.4422607079999,977.4422607079999,977.4422607079999,977.4422607079999,977.4422607079999,988.7614965829999,7,-7,2,5.0,10.617689417000065,6.0,2.980387958999927,976.991248875,976.9929894170001,977.4422607079999,977.277346917,,,,,,,,976.9877869170001,976.9912021250001,None,,,,,,,208,bathroom,2,2024-03-19_13h03.59.162,image_similarity_rating,2023.2.3,None,2024-03-19 13h04.16.794661 +0100,
,121,125,428,428,stimuli/own/bathroom/121_bat.jpg,stimuli/own/bathroom/125_bat.jpg,,,,,,,,,0,92,92,427,988.7722231670001,,,,,,,,,,,989.056839792,989.221987583,989.221987583,989.221987583,989.221987583,989.221987583,989.221987583,989.221987583,989.221987583,989.221987583,995.370961917,-7,7,2,6.0,4.986263000000008,6.0,5.980946791999941,988.765159292,988.7722231670001,989.221987583,989.05681575,,,,,,,,988.7617220830001,988.7651124580001,None,,,,,,,208,bathroom,2,2024-03-19_13h03.59.162,image_similarity_rating,2023.2.3,None,2024-03-19 13h04.16.794661 +0100,
,132,135,561,561,stimuli/own/bathroom/132_bat.jpg,stimuli/own/bathroom/135_bat.jpg,,,,,,,,,0,93,93,560,995.3765070830001,,,,,,,,,,,995.6609017500001,995.8262693329999,995.8262693329999,995.8262693329999,995.8262693329999,995.8262693329999,995.8262693329999,995.8262693329999,995.8262693329999,995.8262693329999,1004.0746640420001,-7,7,2,6.0,7.01230637499998,6.0,8.023967207999931,995.3747421249999,995.3765070830001,995.8262693329999,995.660884,,,,,,,,995.3711918749999,995.3746955830001,None,,,,,,,208,bathroom,2,2024-03-19_13h03.59.162,image_similarity_rating,2023.2.3,None,2024-03-19 13h04.16.794661 +0100,
,125,140,503,503,stimuli/own/bathroom/125_bat.jpg,stimuli/own/bathroom/140_bat.jpg,,,,,,,,,0,94,94,502,1004.080323042,,,,,,,,,,,1004.373910833,1004.538823208,1004.538823208,1004.538823208,1004.538823208,1004.538823208,1004.538823208,1004.538823208,1004.538823208,1004.538823208,1011.3832463750001,-7,7,2,4.0,5.487958334000041,3.0,6.501478584000097,1004.078549042,1004.080323042,1004.538823208,1004.3738964999999,,,,,,,,1004.074883333,1004.0784997080001,None,,,,,,,208,bathroom,2,2024-03-19_13h03.59.162,image_similarity_rating,2023.2.3,None,2024-03-19 13h04.16.794661 +0100,
,119,134,398,398,stimuli/own/bathroom/119_bat.jpg,stimuli/own/bathroom/134_bat.jpg,,,,,,,,,0,95,95,397,1011.405764042,,,,,,,,,,,1011.689833583,1011.8560133330001,1011.8560133330001,1011.8560133330001,1011.8560133330001,1011.8560133330001,1011.8560133330001,1011.8560133330001,1011.8560133330001,1011.8560133330001,1021.30431725,7,-7,2,4.0,3.1858847920000244,2.0,9.347789665999926,1011.387012667,1011.405764042,,1011.689814208,,,,,,,,1011.383469125,1011.386966875,None,,,,,,,208,bathroom,2,2024-03-19_13h03.59.162,image_similarity_rating,2023.2.3,None,2024-03-19 13h04.16.794661 +0100,
,130,136,545,545,stimuli/own/bathroom/130_bat.jpg,stimuli/own/bathroom/136_bat.jpg,,,,,,,,,0,96,96,544,1021.30991775,,,,,,,,,,,1021.594809583,1021.758321833,1021.758321833,1021.758321833,1021.758321833,1021.758321833,1021.758321833,1021.758321833,1021.758321833,1021.758321833,1031.4500170830001,-7,7,2,5.0,6.9492482910000035,3.0,9.461639625000089,1021.308171625,1021.30991775,1021.758321833,1021.5947991249999,,,,,,,,1021.3045658330001,1021.3081243749999,None,,,,,,,208,bathroom,2,2024-03-19_13h03.59.162,image_similarity_rating,2023.2.3,None,2024-03-19 13h04.16.794661 +0100,
,106,119,169,169,stimuli/own/bathroom/106_bat.jpg,stimuli/own/bathroom/119_bat.jpg,,,,,,,,,0,97,97,168,1031.472297417,,,,,,,,,,,1031.756273375,1031.9266378329999,1031.9266378329999,1031.9266378329999,1031.9266378329999,1031.9266378329999,1031.9266378329999,1031.9266378329999,1031.9266378329999,1031.9266378329999,1039.549548333,7,-7,2,3.0,4.669486541999959,5.0,7.44854020799994,1031.453669,1031.472297417,,1031.756248625,,,,,,,,1031.450239917,1031.453622292,None,,,,,,,208,bathroom,2,2024-03-19_13h03.59.162,image_similarity_rating,2023.2.3,None,2024-03-19 13h04.16.794661 +0100,
,104,136,125,125,stimuli/own/bathroom/104_bat.jpg,stimuli/own/bathroom/136_bat.jpg,,,,,,,,,0,98,98,124,1039.555089083,,,,,,,,,,,1039.840014542,1040.009232583,1040.009232583,1040.009232583,1040.009232583,1040.009232583,1040.009232583,1040.009232583,1040.009232583,1040.009232583,1047.161437417,7,-7,2,3.0,3.905411374999858,3.0,7.027718666000055,1039.5531928750001,1039.555089083,1040.009232583,1039.8399976249998,,,,,,,,1039.549766958,1039.5531433330002,None,,,,,,,208,bathroom,2,2024-03-19_13h03.59.162,image_similarity_rating,2023.2.3,None,2024-03-19 13h04.16.794661 +0100,
,105,117,138,597,stimuli/own/bathroom/105_bat.jpg,stimuli/own/bathroom/117_bat.jpg,,,,,,,,,0,99,99,596,1047.172047208,,,,,,,,,,,1047.456692458,1047.622018958,1047.622018958,1047.622018958,1047.622018958,1047.622018958,1047.622018958,1047.622018958,1047.622018958,1047.622018958,1057.8576573330001,-7,7,2,2.0,6.840851667000152,3.0,10.031136167000113,1047.1651791250001,1047.172047208,1047.622018958,1047.4566783750001,,,,,,,,1047.16165825,1047.16513325,None,,,,,,,208,bathroom,2,2024-03-19_13h03.59.162,image_similarity_rating,2023.2.3,None,2024-03-19 13h04.16.794661 +0100,
,102,109,39,39,stimuli/own/bathroom/102_bat.jpg,stimuli/own/bathroom/109_bat.jpg,,,,,,,,,0,100,100,38,1057.8631371249999,,,,,,,,,,,1058.156607042,1058.321792792,1058.321792792,1058.321792792,1058.321792792,1058.321792792,1058.321792792,1058.321792792,1058.321792792,1058.321792792,1063.8042502080002,7,-7,2,2.0,4.5297120409998115,3.0,5.381455750000214,1057.8614014169998,1057.8631371249999,1058.321792792,1058.1565919999998,,,,,,,,1057.8578765829998,1057.8613553330001,None,,,,,,,208,bathroom,2,2024-03-19_13h03.59.162,image_similarity_rating,2023.2.3,None,2024-03-19 13h04.16.794661 +0100,
,123,125,461,461,stimuli/own/bathroom/123_bat.jpg,stimuli/own/bathroom/125_bat.jpg,,,,,,,,,0,101,101,460,1063.810150458,,,,,,,,,,,1064.1073003749998,1064.2732162920001,1064.2732162920001,1064.2732162920001,1064.2732162920001,1064.2732162920001,1064.2732162920001,1064.2732162920001,1064.2732162920001,1064.2732162920001,1074.433316958,-7,7,2,3.0,9.819420208999873,4.0,7.746109250000018,1063.8080665829998,1063.810150458,1064.2732162920001,1064.107285083,,,,,,,,1063.8044875,1063.8080196249998,None,,,,,,,208,bathroom,2,2024-03-19_13h03.59.162,image_similarity_rating,2023.2.3,None,2024-03-19 13h04.16.794661 +0100,
,130,138,547,547,stimuli/own/bathroom/130_bat.jpg,stimuli/own/bathroom/138_bat.jpg,,,,,,,,,0,102,102,546,1074.4554887919999,,,,,,,,,,,1074.739010708,1074.9025447079998,1074.9025447079998,1074.9025447079998,1074.9025447079998,1074.9025447079998,1074.9025447079998,1074.9025447079998,1074.9025447079998,1074.9025447079998,1081.3430925829998,-7,7,2,5.0,4.021496957999943,2.0,5.73137858400014,1074.437046042,1074.4554887919999,,1074.738997083,,,,,,,,1074.4335404580002,1074.4369995830002,None,,,,,,,208,bathroom,2,2024-03-19_13h03.59.162,image_similarity_rating,2023.2.3,None,2024-03-19 13h04.16.794661 +0100,
,117,141,364,364,stimuli/own/bathroom/117_bat.jpg,stimuli/own/bathroom/141_bat.jpg,,,,,,,,,0,103,103,363,1081.355163667,,,,,,,,,,,1081.6398423330002,1081.804996708,1081.804996708,1081.804996708,1081.804996708,1081.804996708,1081.804996708,1081.804996708,1081.804996708,1081.804996708,1089.965901042,7,-7,2,5.0,6.997275624999929,3.0,7.997771374999957,1081.346793875,1081.355163667,1081.804996708,1081.639827208,,,,,,,,1081.343314958,1081.346746833,None,,,,,,,208,bathroom,2,2024-03-19_13h03.59.162,image_similarity_rating,2023.2.3,None,2024-03-19 13h04.16.794661 +0100,
,127,134,522,522,stimuli/own/bathroom/127_bat.jpg,stimuli/own/bathroom/134_bat.jpg,,,,,,,,,0,104,104,521,1089.971824583,,,,,,,,,,,1090.2570004999998,1090.4211135,1090.4211135,1090.4211135,1090.4211135,1090.4211135,1090.4211135,1090.4211135,1090.4211135,1090.4211135,1096.2949052919998,-7,7,2,2.0,4.119501166999953,5.0,5.688443291999874,1089.9696343750002,1089.971824583,1090.4211135,1090.256986708,,,,,,,,1089.9661257920002,1089.969587917,None,,,,,,,208,bathroom,2,2024-03-19_13h03.59.162,image_similarity_rating,2023.2.3,None,2024-03-19 13h04.16.794661 +0100,
,124,135,484,484,stimuli/own/bathroom/124_bat.jpg,stimuli/own/bathroom/135_bat.jpg,,,,,,,,,0,105,105,483,1096.3052835419999,,,,,,,,,,,1096.5897426249999,1096.7546366249999,1096.7546366249999,1096.7546366249999,1096.7546366249999,1096.7546366249999,1096.7546366249999,1096.7546366249999,1096.7546366249999,1096.7546366249999,1105.015678583,-7,7,2,5.0,8.28592079200007,5.0,2.3413306669999656,1096.2985492080002,1096.3052835419999,1096.7546366249999,1096.589728167,,,,,,,,1096.2951281249998,1096.2985024169998,None,,,,,,,208,bathroom,2,2024-03-19_13h03.59.162,image_similarity_rating,2023.2.3,None,2024-03-19 13h04.16.794661 +0100,
,122,130,449,449,stimuli/own/bathroom/122_bat.jpg,stimuli/own/bathroom/130_bat.jpg,,,,,,,,,0,106,106,448,1105.0216622500002,,,,,,,,,,,1105.3073814999998,1105.4726756670002,1105.4726756670002,1105.4726756670002,1105.4726756670002,1105.4726756670002,1105.4726756670002,1105.4726756670002,1105.4726756670002,1105.4726756670002,1111.691051833,7,-7,2,4.0,4.246396707999793,3.0,6.01827441599994,1105.019313458,1105.0216622500002,1105.4726756670002,1105.3073664170001,,,,,,,,1105.0158995000002,1105.019267708,None,,,,,,,208,bathroom,2,2024-03-19_13h03.59.162,image_similarity_rating,2023.2.3,None,2024-03-19 13h04.16.794661 +0100,
,121,136,437,437,stimuli/own/bathroom/121_bat.jpg,stimuli/own/bathroom/136_bat.jpg,,,,,,,,,0,107,107,436,1111.6965759579998,,,,,,,,,,,1111.990054625,1112.152437458,1112.152437458,1112.152437458,1112.152437458,1112.152437458,1112.152437458,1112.152437458,1112.152437458,1112.152437458,1121.216121292,7,-7,2,6.0,4.5119125409999015,3.0,7.550898125000003,1111.6948188330002,1111.6965759579998,1112.152437458,1111.9900442500002,,,,,,,,1111.691270708,1111.6947725,None,,,,,,,208,bathroom,2,2024-03-19_13h03.59.162,image_similarity_rating,2023.2.3,None,2024-03-19 13h04.16.794661 +0100,
,134,141,574,574,stimuli/own/bathroom/134_bat.jpg,stimuli/own/bathroom/141_bat.jpg,,,,,,,,,0,108,108,573,1121.2217530829998,,,,,,,,,,,1121.5063339580001,1121.6703402080002,1121.6703402080002,1121.6703402080002,1121.6703402080002,1121.6703402080002,1121.6703402080002,1121.6703402080002,1121.6703402080002,1121.6703402080002,1127.2331384170002,7,-7,2,5.0,4.431593582999994,4.0,5.399723709,1121.2197852079998,1121.2217530829998,1121.6703402080002,1121.506318708,,,,,,,,1121.2163438329999,1121.219738375,None,,,,,,,208,bathroom,2,2024-03-19_13h03.59.162,image_similarity_rating,2023.2.3,None,2024-03-19 13h04.16.794661 +0100,
,105,141,160,160,stimuli/own/bathroom/105_bat.jpg,stimuli/own/bathroom/141_bat.jpg,,,,,,,,,0,109,109,159,1127.2550017919998,,,,,,,,,,,1127.539184792,1127.7065011250002,1127.7065011250002,1127.7065011250002,1127.7065011250002,1127.7065011250002,1127.7065011250002,1127.7065011250002,1127.7065011250002,1127.7065011250002,1134.294908625,7,-7,2,3.0,5.604416832999959,2.0,6.352071666999791,1127.236770125,1127.2550017919998,,1127.5391637080002,,,,,,,,1127.233356875,1127.236724125,None,,,,,,,208,bathroom,2,2024-03-19_13h03.59.162,image_similarity_rating,2023.2.3,None,2024-03-19 13h04.16.794661 +0100,
,109,111,190,190,stimuli/own/bathroom/109_bat.jpg,stimuli/own/bathroom/111_bat.jpg,,,,,,,,,0,110,110,189,1134.305347375,,,,,,,,,,,1134.5895827919999,1134.7574234580002,1134.7574234580002,1134.7574234580002,1134.7574234580002,1134.7574234580002,1134.7574234580002,1134.7574234580002,1134.7574234580002,1134.7574234580002,1141.7495047080001,7,-7,2,4.0,5.140001375000111,4.0,6.729025958999955,1134.298576625,1134.305347375,1134.7574234580002,1134.5895661250001,,,,,,,,1134.2951349999998,1134.298530125,None,,,,,,,208,bathroom,2,2024-03-19_13h03.59.162,image_similarity_rating,2023.2.3,None,2024-03-19 13h04.16.794661 +0100,
,109,113,192,192,stimuli/own/bathroom/109_bat.jpg,stimuli/own/bathroom/113_bat.jpg,,,,,,,,,0,111,111,191,1141.77187425,,,,,,,,,,,1142.055826917,1142.2199141249998,1142.2199141249998,1142.2199141249998,1142.2199141249998,1142.2199141249998,1142.2199141249998,1142.2199141249998,1142.2199141249998,1142.2199141249998,1146.54527,-7,7,2,4.0,3.2780164169998898,2.0,4.186442541999895,1141.753140667,1141.77187425,,1142.055802208,,,,,,,,1141.749721958,1141.753093583,None,,,,,,,208,bathroom,2,2024-03-19_13h03.59.162,image_similarity_rating,2023.2.3,None,2024-03-19 13h04.16.794661 +0100,
,119,127,393,393,stimuli/own/bathroom/119_bat.jpg,stimuli/own/bathroom/127_bat.jpg,,,,,,,,,0,112,112,392,1146.5548790829998,,,,,,,,,,,1146.8395809580002,1147.0050578750001,1147.0050578750001,1147.0050578750001,1147.0050578750001,1147.0050578750001,1147.0050578750001,1147.0050578750001,1147.0050578750001,1147.0050578750001,1154.7746992080001,-7,7,2,3.0,7.689998166000123,2.0,4.841105541999923,1146.548928875,1146.5548790829998,1147.0050578750001,1146.839565375,,,,,,,,1146.5454988329998,1146.5488800419998,None,,,,,,,208,bathroom,2,2024-03-19_13h03.59.162,image_similarity_rating,2023.2.3,None,2024-03-19 13h04.16.794661 +0100,
,113,120,276,276,stimuli/own/bathroom/113_bat.jpg,stimuli/own/bathroom/120_bat.jpg,,,,,,,,,0,113,113,275,1154.780253083,,,,,,,,,,,1155.0727660419998,1155.237120417,1155.237120417,1155.237120417,1155.237120417,1155.237120417,1155.237120417,1155.237120417,1155.237120417,1155.237120417,1161.570391875,7,-7,2,3.0,3.186264041999948,4.0,6.060946958999921,1154.7783319579999,1154.780253083,1155.237120417,1155.072751833,,,,,,,,1154.7749224580002,1154.7782857920001,None,,,,,,,208,bathroom,2,2024-03-19_13h03.59.162,image_similarity_rating,2023.2.3,None,2024-03-19 13h04.16.794661 +0100,
,104,111,103,103,stimuli/own/bathroom/104_bat.jpg,stimuli/own/bathroom/111_bat.jpg,,,,,,,,,0,114,114,102,1161.576174875,,,,,,,,,,,1161.860262833,1162.0239955830002,1162.0239955830002,1162.0239955830002,1162.0239955830002,1162.0239955830002,1162.0239955830002,1162.0239955830002,1162.0239955830002,1162.0239955830002,1168.9447312920001,-7,7,2,5.0,5.184283582999797,3.0,6.520573582999987,1161.574109917,1161.576174875,1162.0239955830002,1161.860249167,,,,,,,,1161.570640583,1161.574062833,None,,,,,,,208,bathroom,2,2024-03-19_13h03.59.162,image_similarity_rating,2023.2.3,None,2024-03-19 13h04.16.794661 +0100,
,103,123,83,83,stimuli/own/bathroom/103_bat.jpg,stimuli/own/bathroom/123_bat.jpg,,,,,,,,,0,115,115,82,1168.9553972079998,,,,,,,,,,,1169.239388167,1169.404277792,1169.404277792,1169.404277792,1169.404277792,1169.404277792,1169.404277792,1169.404277792,1169.404277792,1169.404277792,1175.232506542,7,-7,2,5.0,3.9794560000000274,5.0,4.779336750000084,1168.948419458,1168.9553972079998,1169.404277792,1169.2393644170002,,,,,,,,1168.9449625420002,1168.948372708,None,,,,,,,208,bathroom,2,2024-03-19_13h03.59.162,image_similarity_rating,2023.2.3,None,2024-03-19 13h04.16.794661 +0100,
,116,119,322,322,stimuli/own/bathroom/116_bat.jpg,stimuli/own/bathroom/119_bat.jpg,,,,,,,,,0,116,116,321,1175.2381424169998,,,,,,,,,,,1175.522783667,1175.6917370830001,1175.6917370830001,1175.6917370830001,1175.6917370830001,1175.6917370830001,1175.6917370830001,1175.6917370830001,1175.6917370830001,1175.6917370830001,1179.823919375,-7,7,2,4.0,3.1172589999998763,4.0,3.9725860829998965,1175.23628925,1175.2381424169998,1175.6917370830001,1175.5227664580002,,,,,,,,1175.2327260830002,1175.2362430829999,None,,,,,,,208,bathroom,2,2024-03-19_13h03.59.162,image_similarity_rating,2023.2.3,None,2024-03-19 13h04.16.794661 +0100,
,113,141,295,295,stimuli/own/bathroom/113_bat.jpg,stimuli/own/bathroom/141_bat.jpg,,,,,,,,,0,117,117,294,1179.8296365830001,,,,,,,,,,,1180.123524833,1180.2887232920002,1180.2887232920002,1180.2887232920002,1180.2887232920002,1180.2887232920002,1180.2887232920002,1180.2887232920002,1180.2887232920002,1180.2887232920002,1185.411014375,-7,7,2,3.0,3.080071624999846,4.0,5.076045415999943,1179.827544792,1179.8296365830001,1180.2887232920002,1180.1235072499999,,,,,,,,1179.8241417079998,1179.8274980420001,None,,,,,,,208,bathroom,2,2024-03-19_13h03.59.162,image_similarity_rating,2023.2.3,None,2024-03-19 13h04.16.794661 +0100,
,101,137,30,30,stimuli/own/bathroom/101_bat.jpg,stimuli/own/bathroom/137_bat.jpg,,,,,,,,,0,118,118,29,1185.4216617920001,,,,,,,,,,,1185.70607725,1185.873678375,1185.873678375,1185.873678375,1185.873678375,1185.873678375,1185.873678375,1185.873678375,1185.873678375,1185.873678375,1193.632201042,-7,7,2,2.0,3.6700961670001107,4.0,7.546413374999929,1185.414731667,1185.4216617920001,1185.873678375,1185.706060208,,,,,,,,1185.411236292,1185.4146854169999,None,,,,,,,208,bathroom,2,2024-03-19_13h03.59.162,image_similarity_rating,2023.2.3,None,2024-03-19 13h04.16.794661 +0100,
,120,141,424,424,stimuli/own/bathroom/120_bat.jpg,stimuli/own/bathroom/141_bat.jpg,,,,,,,,,0,119,119,423,1193.637747417,,,,,,,,,,,1193.9226402079998,1194.088553958,1194.088553958,1194.088553958,1194.088553958,1194.088553958,1194.088553958,1194.088553958,1194.088553958,1194.088553958,1201.7500197499999,7,-7,2,5.0,7.347673374999886,6.0,5.604744958999845,1193.635838625,1193.637747417,1194.088553958,1193.922624208,,,,,,,,1193.632422958,1193.6357925829998,None,,,,,,,208,bathroom,2,2024-03-19_13h03.59.162,image_similarity_rating,2023.2.3,None,2024-03-19 13h04.16.794661 +0100,
,124,137,486,486,stimuli/own/bathroom/124_bat.jpg,stimuli/own/bathroom/137_bat.jpg,,,,,,,,,0,120,120,485,1201.7563317919999,,,,,,,,,,,1202.040170417,1202.2039890830001,1202.2039890830001,1202.2039890830001,1202.2039890830001,1202.2039890830001,1202.2039890830001,1202.2039890830001,1202.2039890830001,1202.2039890830001,1212.087135917,7,-7,2,4.0,9.803044083000032,5.0,4.754346333000058,1201.753667458,1201.7563317919999,1202.2039890830001,1202.040155625,,,,,,,,1201.750242833,1201.7536205420001,None,,,,,,,208,bathroom,2,2024-03-19_13h03.59.162,image_similarity_rating,2023.2.3,None,2024-03-19 13h04.16.794661 +0100,
,131,135,553,553,stimuli/own/bathroom/131_bat.jpg,stimuli/own/bathroom/135_bat.jpg,,,,,,,,,0,121,121,552,1212.0932120419998,,,,,,,,,,,1212.3770492079998,1212.5398768750001,1212.5398768750001,1212.5398768750001,1212.5398768750001,1212.5398768750001,1212.5398768750001,1212.5398768750001,1212.5398768750001,1212.5398768750001,1218.1241019580002,7,-7,2,3.0,2.5750135419998514,3.0,5.446450457999845,1212.090946542,1212.0932120419998,1212.5398768750001,1212.377036167,,,,,,,,1212.0873554169998,1212.0909000420002,None,,,,,,,208,bathroom,2,2024-03-19_13h03.59.162,image_similarity_rating,2023.2.3,None,2024-03-19 13h04.16.794661 +0100,
,104,109,102,102,stimuli/own/bathroom/104_bat.jpg,stimuli/own/bathroom/109_bat.jpg,,,,,,,,,0,122,122,101,1218.12975375,,,,,,,,,,,1218.422863875,1218.5873246249998,1218.5873246249998,1218.5873246249998,1218.5873246249998,1218.5873246249998,1218.5873246249998,1218.5873246249998,1218.5873246249998,1218.5873246249998,1223.8323003330001,-7,7,2,4.0,3.8871503329999086,6.0,5.032257999999956,1218.1278392919999,1218.12975375,1218.5873246249998,1218.4228496249998,,,,,,,,1218.1243250419998,1218.127793,None,,,,,,,208,bathroom,2,2024-03-19_13h03.59.162,image_similarity_rating,2023.2.3,None,2024-03-19 13h04.16.794661 +0100,
,106,111,162,162,stimuli/own/bathroom/106_bat.jpg,stimuli/own/bathroom/111_bat.jpg,,,,,,,,,0,123,123,161,1223.8381076669998,,,,,,,,,,,1224.1226367079998,1224.287526875,1224.287526875,1224.287526875,1224.287526875,1224.287526875,1224.287526875,1224.287526875,1224.287526875,1224.287526875,1229.4571154579999,7,-7,2,3.0,4.090868834000048,5.0,5.046355416999859,1223.835943083,1223.8381076669998,1224.287526875,1224.122622167,,,,,,,,1223.83252025,1223.8358967499998,None,,,,,,,208,bathroom,2,2024-03-19_13h03.59.162,image_similarity_rating,2023.2.3,None,2024-03-19 13h04.16.794661 +0100,
,121,127,430,430,stimuli/own/bathroom/121_bat.jpg,stimuli/own/bathroom/127_bat.jpg,,,,,,,,,0,124,124,429,1229.4628203749999,,,,,,,,,,,1229.7559904999998,1229.925742625,1229.925742625,1229.925742625,1229.925742625,1229.925742625,1229.925742625,1229.925742625,1229.925742625,1229.925742625,1235.177425208,-7,7,2,3.0,2.744526584000141,3.0,5.054655499999853,1229.460749708,1229.4628203749999,1229.925742625,1229.7559740830002,,,,,,,,1229.457333417,1229.460703458,None,,,,,,,208,bathroom,2,2024-03-19_13h03.59.162,image_similarity_rating,2023.2.3,None,2024-03-19 13h04.16.794661 +0100,
,118,122,368,368,stimuli/own/bathroom/118_bat.jpg,stimuli/own/bathroom/122_bat.jpg,,,,,,,,,0,125,125,367,1235.1881171250002,,,,,,,,,,,1235.47250575,1235.6428191250002,1235.6428191250002,1235.6428191250002,1235.6428191250002,1235.6428191250002,1235.6428191250002,1235.6428191250002,1235.6428191250002,1235.6428191250002,1243.0235711669998,7,-7,2,3.0,5.659470709000061,3.0,6.418373624999958,1235.1810545829999,1235.1881171250002,1235.6428191250002,1235.472488333,,,,,,,,1235.177645458,1235.1810083330001,None,,,,,,,208,bathroom,2,2024-03-19_13h03.59.162,image_similarity_rating,2023.2.3,None,2024-03-19 13h04.16.794661 +0100,
,117,121,346,346,stimuli/own/bathroom/117_bat.jpg,stimuli/own/bathroom/121_bat.jpg,,,,,,,,,0,126,126,345,1243.0293161670002,,,,,,,,,,,1244.6557926249998,1244.821520042,1244.821520042,1244.821520042,1244.821520042,1244.821520042,1244.821520042,1244.821520042,1244.821520042,1244.821520042,1254.9157101249998,-7,7,3,2.0,10.103896208999913,2.0,9.206940999999915,1244.363331292,1244.371972542,1244.821520042,1244.6557753749998,,,,,,,,1243.0237935,1244.362977833,space,1243.0293161670002,1.333492250000063,None,,,,208,bathroom,2,2024-03-19_13h03.59.162,image_similarity_rating,2023.2.3,None,2024-03-19 13h04.16.794661 +0100,
,102,139,65,605,stimuli/own/bathroom/102_bat.jpg,stimuli/own/bathroom/139_bat.jpg,,,,,,,,,0,127,127,604,1254.9382925,,,,,,,,,,,1255.221987,1255.386027042,1255.386027042,1255.386027042,1255.386027042,1255.386027042,1255.386027042,1255.386027042,1255.386027042,1255.386027042,1264.9196388750001,7,-7,3,5.0,8.522978917000046,5.0,9.396487500000148,1254.9198685830002,1254.9382925,,1255.221963,,,,,,,,1254.9159315420002,1254.9198207919999,None,,,,,,,208,bathroom,2,2024-03-19_13h03.59.162,image_similarity_rating,2023.2.3,None,2024-03-19 13h04.16.794661 +0100,
,129,132,532,532,stimuli/own/bathroom/129_bat.jpg,stimuli/own/bathroom/132_bat.jpg,,,,,,,,,0,128,128,531,1264.9251911669999,,,,,,,,,,,1265.210138,1265.378007417,1265.378007417,1265.378007417,1265.378007417,1265.378007417,1265.378007417,1265.378007417,1265.378007417,1265.378007417,1270.3698305829998,-7,7,3,4.0,4.951895874999991,5.0,3.845596208000188,1264.9234284170002,1264.9251911669999,1265.378007417,1265.2101190419999,,,,,,,,1264.9198701670002,1264.923381833,None,,,,,,,208,bathroom,2,2024-03-19_13h03.59.162,image_similarity_rating,2023.2.3,None,2024-03-19 13h04.16.794661 +0100,
,117,118,343,343,stimuli/own/bathroom/117_bat.jpg,stimuli/own/bathroom/118_bat.jpg,,,,,,,,,0,129,129,342,1270.375533583,,,,,,,,,,,1270.6600387499998,1270.827131208,1270.827131208,1270.827131208,1270.827131208,1270.827131208,1270.827131208,1270.827131208,1270.827131208,1270.827131208,1277.760794292,7,-7,3,4.0,6.881463208000014,2.0,4.38608575000012,1270.373607042,1270.375533583,1270.827131208,1270.6600188749999,,,,,,,,1270.3700535419998,1270.3735594579998,None,,,,,,,208,bathroom,2,2024-03-19_13h03.59.162,image_similarity_rating,2023.2.3,None,2024-03-19 13h04.16.794661 +0100,
,124,129,479,479,stimuli/own/bathroom/124_bat.jpg,stimuli/own/bathroom/129_bat.jpg,,,,,,,,,0,130,130,478,1277.7711155420002,,,,,,,,,,,1278.055805,1278.220944875,1278.220944875,1278.220944875,1278.220944875,1278.220944875,1278.220944875,1278.220944875,1278.220944875,1278.220944875,1285.719655458,-7,7,3,3.0,5.856043457999931,3.0,6.676277667000022,1277.7644679169998,1277.7711155420002,1278.220944875,1278.0557896670002,,,,,,,,1277.761039208,1277.7644208749998,None,,,,,,,208,bathroom,2,2024-03-19_13h03.59.162,image_similarity_rating,2023.2.3,None,2024-03-19 13h04.16.794661 +0100,
,112,121,252,252,stimuli/own/bathroom/112_bat.jpg,stimuli/own/bathroom/121_bat.jpg,,,,,,,,,0,131,131,251,1285.725184167,,,,,,,,,,,1286.009481875,1286.1727580830002,1286.1727580830002,1286.1727580830002,1286.1727580830002,1286.1727580830002,1286.1727580830002,1286.1727580830002,1286.1727580830002,1286.1727580830002,1296.203344,7,-7,3,3.0,9.990236332999984,2.0,5.385685541999919,1285.7233458750002,1285.725184167,1286.1727580830002,1286.0094677920001,,,,,,,,1285.719878542,1285.723299625,None,,,,,,,208,bathroom,2,2024-03-19_13h03.59.162,image_similarity_rating,2023.2.3,None,2024-03-19 13h04.16.794661 +0100,
,118,138,382,382,stimuli/own/bathroom/118_bat.jpg,stimuli/own/bathroom/138_bat.jpg,,,,,,,,,0,132,132,381,1296.208949542,,,,,,,,,,,1296.5062136249999,1296.6729559579999,1296.6729559579999,1296.6729559579999,1296.6729559579999,1296.6729559579999,1296.6729559579999,1296.6729559579999,1296.6729559579999,1296.6729559579999,1301.886967333,7,-7,3,2.0,3.218268041000101,2.0,4.039481834000071,1296.20705925,1296.208949542,1296.6729559579999,1296.5061985829998,,,,,,,,1296.2035800419999,1296.207012583,None,,,,,,,208,bathroom,2,2024-03-19_13h03.59.162,image_similarity_rating,2023.2.3,None,2024-03-19 13h04.16.794661 +0100,
,116,130,332,332,stimuli/own/bathroom/116_bat.jpg,stimuli/own/bathroom/130_bat.jpg,,,,,,,,,0,133,133,331,1301.892548583,,,,,,,,,,,1302.1899481249998,1302.3588840829998,1302.3588840829998,1302.3588840829998,1302.3588840829998,1302.3588840829998,1302.3588840829998,1302.3588840829998,1302.3588840829998,1302.3588840829998,1308.7910098329999,-7,7,3,4.0,6.249801917000013,2.0,4.271081833000153,1301.890634667,1301.892548583,1302.3588840829998,1302.1899317920002,,,,,,,,1301.887185,1301.8905885,None,,,,,,,208,bathroom,2,2024-03-19_13h03.59.162,image_similarity_rating,2023.2.3,None,2024-03-19 13h04.16.794661 +0100,
,130,134,543,543,stimuli/own/bathroom/130_bat.jpg,stimuli/own/bathroom/134_bat.jpg,,,,,,,,,0,134,134,542,1308.7965705830002,,,,,,,,,,,1309.088988042,1309.25434675,1309.25434675,1309.25434675,1309.25434675,1309.25434675,1309.25434675,1309.25434675,1309.25434675,1309.25434675,1317.419522833,-7,7,3,3.0,3.340987624999798,4.0,8.053726458000028,1308.7946471250002,1308.7965705830002,1309.25434675,1309.088971875,,,,,,,,1308.7912336670001,1308.7946015000002,None,,,,,,,208,bathroom,2,2024-03-19_13h03.59.162,image_similarity_rating,2023.2.3,None,2024-03-19 13h04.16.794661 +0100,
,129,138,537,537,stimuli/own/bathroom/129_bat.jpg,stimuli/own/bathroom/138_bat.jpg,,,,,,,,,0,135,135,536,1317.425103208,,,,,,,,,,,1317.7224366669998,1317.890501292,1317.890501292,1317.890501292,1317.890501292,1317.890501292,1317.890501292,1317.890501292,1317.890501292,1317.890501292,1324.998499833,-7,7,3,3.0,2.8149895420001485,2.0,6.983973957999979,1317.423198292,1317.425103208,1317.890501292,1317.7224192919998,,,,,,,,1317.4197411670002,1317.4231514580001,None,,,,,,,208,bathroom,2,2024-03-19_13h03.59.162,image_similarity_rating,2023.2.3,None,2024-03-19 13h04.16.794661 +0100,
,127,141,529,529,stimuli/own/bathroom/127_bat.jpg,stimuli/own/bathroom/141_bat.jpg,,,,,,,,,0,136,136,528,1325.0042026249998,,,,,,,,,,,1325.2896944170002,1325.4562982920002,1325.4562982920002,1325.4562982920002,1325.4562982920002,1325.4562982920002,1325.4562982920002,1325.4562982920002,1325.4562982920002,1325.4562982920002,1334.782000792,7,-7,3,2.0,5.452909000000091,3.0,9.101447415999928,1325.002268708,1325.0042026249998,1325.4562982920002,1325.289677417,,,,,,,,1324.998720125,1325.0022224999998,None,,,,,,,208,bathroom,2,2024-03-19_13h03.59.162,image_similarity_rating,2023.2.3,None,2024-03-19 13h04.16.794661 +0100,
,102,111,40,40,stimuli/own/bathroom/102_bat.jpg,stimuli/own/bathroom/111_bat.jpg,,,,,,,,,0,137,137,39,1334.787528708,,,,,,,,,,,1335.072099083,1335.2361716250002,1335.2361716250002,1335.2361716250002,1335.2361716250002,1335.2361716250002,1335.2361716250002,1335.2361716250002,1335.2361716250002,1335.2361716250002,1340.1529932499998,-7,7,3,2.0,3.2751623330000257,3.0,4.129255249999915,1334.7856187920002,1334.787528708,1335.2361716250002,1335.072082875,,,,,,,,1334.7822178749998,1334.785572833,None,,,,,,,208,bathroom,2,2024-03-19_13h03.59.162,image_similarity_rating,2023.2.3,None,2024-03-19 13h04.16.794661 +0100,
,101,102,1,1,stimuli/own/bathroom/101_bat.jpg,stimuli/own/bathroom/102_bat.jpg,,,,,,,,,0,138,138,0,1340.158608625,,,,,,,,,,,1340.442808708,1340.6066566250001,1340.6066566250001,1340.6066566250001,1340.6066566250001,1340.6066566250001,1340.6066566250001,1340.6066566250001,1340.6066566250001,1340.6066566250001,1344.9029801249999,-7,7,3,4.0,3.2969861670001137,4.0,4.082385165999995,1340.1566977920002,1340.158608625,1340.6066566250001,1340.4427961249999,,,,,,,,1340.1532361670002,1340.1566522500002,None,,,,,,,208,bathroom,2,2024-03-19_13h03.59.162,image_similarity_rating,2023.2.3,None,2024-03-19 13h04.16.794661 +0100,
,103,131,90,90,stimuli/own/bathroom/103_bat.jpg,stimuli/own/bathroom/131_bat.jpg,,,,,,,,,0,139,139,89,1344.908702542,,,,,,,,,,,1345.1926118749998,1345.3545008330002,1345.3545008330002,1345.3545008330002,1345.3545008330002,1345.3545008330002,1345.3545008330002,1345.3545008330002,1345.3545008330002,1345.3545008330002,1352.3273207920001,7,-7,3,2.0,3.816666542000121,4.0,6.911260000000084,1344.9067654169999,1344.908702542,1345.3545008330002,1345.1925984579998,,,,,,,,1344.9032242500002,1344.9067193750002,None,,,,,,,208,bathroom,2,2024-03-19_13h03.59.162,image_similarity_rating,2023.2.3,None,2024-03-19 13h04.16.794661 +0100,
,134,138,571,571,stimuli/own/bathroom/134_bat.jpg,stimuli/own/bathroom/138_bat.jpg,,,,,,,,,0,140,140,570,1352.3374491670002,,,,,,,,,,,1352.622185667,1352.7893388749999,1352.7893388749999,1352.7893388749999,1352.7893388749999,1352.7893388749999,1352.7893388749999,1352.7893388749999,1352.7893388749999,1352.7893388749999,1359.902945375,-7,7,3,3.0,7.049616208000089,2.0,4.108827750000046,1352.331089833,1352.3374491670002,1352.7893388749999,1352.6221688750002,,,,,,,,1352.327539,1352.331043958,None,,,,,,,208,bathroom,2,2024-03-19_13h03.59.162,image_similarity_rating,2023.2.3,None,2024-03-19 13h04.16.794661 +0100,
,121,126,429,429,stimuli/own/bathroom/121_bat.jpg,stimuli/own/bathroom/126_bat.jpg,,,,,,,,,0,141,141,428,1359.9088526669998,,,,,,,,,,,1360.193696375,1360.356733917,1360.356733917,1360.356733917,1360.356733917,1360.356733917,1360.356733917,1360.356733917,1360.356733917,1360.356733917,1364.6731007919998,7,-7,3,5.0,2.857220874999939,4.0,4.153679125000053,1359.906769667,1359.9088526669998,1360.356733917,1360.193683375,,,,,,,,1359.9031907079998,1359.906723875,None,,,,,,,208,bathroom,2,2024-03-19_13h03.59.162,image_similarity_rating,2023.2.3,None,2024-03-19 13h04.16.794661 +0100,
,116,138,339,339,stimuli/own/bathroom/116_bat.jpg,stimuli/own/bathroom/138_bat.jpg,,,,,,,,,0,142,142,338,1364.6787505420002,,,,,,,,,,,1364.972049083,1365.1390565830002,1365.1390565830002,1365.1390565830002,1365.1390565830002,1365.1390565830002,1365.1390565830002,1365.1390565830002,1365.1390565830002,1365.1390565830002,1374.181776167,7,-7,3,4.0,9.05159745900005,7.0,4.208898708000106,1364.6768203749998,1364.6787505420002,1365.1390565830002,1364.972032958,,,,,,,,1364.6733207080001,1364.676773917,None,,,,,,,208,bathroom,2,2024-03-19_13h03.59.162,image_similarity_rating,2023.2.3,None,2024-03-19 13h04.16.794661 +0100,
,111,122,227,227,stimuli/own/bathroom/111_bat.jpg,stimuli/own/bathroom/122_bat.jpg,,,,,,,,,0,143,143,226,1374.187309333,,,,,,,,,,,1374.471952375,1374.637207583,1374.637207583,1374.637207583,1374.637207583,1374.637207583,1374.637207583,1374.637207583,1374.637207583,1374.637207583,1380.981839125,7,-7,3,4.0,3.141182499999786,5.0,6.159425584000019,1374.1854210000001,1374.187309333,1374.637207583,1374.4719275419998,,,,,,,,1374.1819971250002,1374.1853752920001,None,,,,,,,208,bathroom,2,2024-03-19_13h03.59.162,image_similarity_rating,2023.2.3,None,2024-03-19 13h04.16.794661 +0100,
,122,126,446,446,stimuli/own/bathroom/122_bat.jpg,stimuli/own/bathroom/126_bat.jpg,,,,,,,,,0,144,144,445,1380.9873094169998,,,,,,,,,,,1381.272118417,1381.4409502919998,1381.4409502919998,1381.4409502919998,1381.4409502919998,1381.4409502919998,1381.4409502919998,1381.4409502919998,1381.4409502919998,1381.4409502919998,1389.8483421249998,7,-7,3,4.0,4.59799579200012,7.0,7.157911583999976,1380.985491333,1380.9873094169998,1381.4409502919998,1381.2721015830002,,,,,,,,1380.9820585419998,1380.9854424999999,None,,,,,,,208,bathroom,2,2024-03-19_13h03.59.162,image_similarity_rating,2023.2.3,None,2024-03-19 13h04.16.794661 +0100,
,105,126,147,147,stimuli/own/bathroom/105_bat.jpg,stimuli/own/bathroom/126_bat.jpg,,,,,,,,,0,145,145,146,1389.853797792,,,,,,,,,,,1390.1385460420001,1390.3030355,1390.3030355,1390.3030355,1390.3030355,1390.3030355,1390.3030355,1390.3030355,1390.3030355,1390.3030355,1400.9731617080001,7,-7,3,2.0,10.592248250000011,6.0,6.855916666999974,1389.8519927920001,1389.853797792,1390.3030355,1390.1385304579999,,,,,,,,1389.848564208,1389.85194675,None,,,,,,,208,bathroom,2,2024-03-19_13h03.59.162,image_similarity_rating,2023.2.3,None,2024-03-19 13h04.16.794661 +0100,
,117,125,350,350,stimuli/own/bathroom/117_bat.jpg,stimuli/own/bathroom/125_bat.jpg,,,,,,,,,0,146,146,349,1400.978572,,,,,,,,,,,1401.272107667,1401.436014,1401.436014,1401.436014,1401.436014,1401.436014,1401.436014,1401.436014,1401.436014,1401.436014,1408.5192242080002,-7,7,3,4.0,7.11759475000008,5.0,4.498615083999994,1400.9768092079998,1400.978572,1401.436014,1401.272094208,,,,,,,,1400.973384583,1400.9767625,None,,,,,,,208,bathroom,2,2024-03-19_13h03.59.162,image_similarity_rating,2023.2.3,None,2024-03-19 13h04.16.794661 +0100,
,112,117,248,248,stimuli/own/bathroom/112_bat.jpg,stimuli/own/bathroom/117_bat.jpg,,,,,,,,,0,147,147,247,1408.5246524580002,,,,,,,,,,,1408.80922525,1408.97076525,1408.97076525,1408.97076525,1408.97076525,1408.97076525,1408.97076525,1408.97076525,1408.97076525,1408.97076525,1413.381215292,-7,7,3,5.0,3.202865750000001,5.0,4.217882292000013,1408.5228845420002,1408.5246524580002,1408.97076525,1408.809214583,,,,,,,,1408.5194404580002,1408.522838417,None,,,,,,,208,bathroom,2,2024-03-19_13h03.59.162,image_similarity_rating,2023.2.3,None,2024-03-19 13h04.16.794661 +0100,
,102,140,66,66,stimuli/own/bathroom/102_bat.jpg,stimuli/own/bathroom/140_bat.jpg,,,,,,,,,0,148,148,65,1413.3869344169998,,,,,,,,,,,1413.671841208,1413.8364596669999,1413.8364596669999,1413.8364596669999,1413.8364596669999,1413.8364596669999,1413.8364596669999,1413.8364596669999,1413.8364596669999,1413.8364596669999,1417.1690533330002,-7,7,3,5.0,2.1697845419998885,5.0,3.2070364579999477,1413.384947125,1413.3869344169998,1413.8364596669999,1413.6718257500002,,,,,,,,1413.3814379169999,1413.384901083,None,,,,,,,208,bathroom,2,2024-03-19_13h03.59.162,image_similarity_rating,2023.2.3,None,2024-03-19 13h04.16.794661 +0100,
,105,114,136,136,stimuli/own/bathroom/105_bat.jpg,stimuli/own/bathroom/114_bat.jpg,,,,,,,,,0,149,149,135,1417.1746412920002,,,,,,,,,,,1417.4597118329998,1417.624455875,1417.624455875,1417.624455875,1417.624455875,1417.624455875,1417.624455875,1417.624455875,1417.624455875,1417.624455875,1424.469076167,-7,7,3,3.0,5.700711833000014,5.0,6.794610791999958,1417.1727166249998,1417.1746412920002,1417.624455875,1417.459699292,,,,,,,,1417.16927275,1417.1726707920002,None,,,,,,,208,bathroom,2,2024-03-19_13h03.59.162,image_similarity_rating,2023.2.3,None,2024-03-19 13h04.16.794661 +0100,
,109,135,211,211,stimuli/own/bathroom/109_bat.jpg,stimuli/own/bathroom/135_bat.jpg,,,,,,,,,0,150,150,210,1424.474751792,,,,,,,,,,,1424.759420292,1424.9243065,1424.9243065,1424.9243065,1424.9243065,1424.9243065,1424.9243065,1424.9243065,1424.9243065,1424.9243065,1429.7765454999999,7,-7,3,2.0,2.604694249999966,3.0,3.6417013749999114,1424.4727832079998,1424.474751792,1424.9243065,1424.759407167,,,,,,,,1424.469298,1424.472736667,None,,,,,,,208,bathroom,2,2024-03-19_13h03.59.162,image_similarity_rating,2023.2.3,None,2024-03-19 13h04.16.794661 +0100,
,113,135,289,289,stimuli/own/bathroom/113_bat.jpg,stimuli/own/bathroom/135_bat.jpg,,,,,,,,,0,151,151,288,1429.787011458,,,,,,,,,,,1430.072405083,1430.237089833,1430.237089833,1430.237089833,1430.237089833,1430.237089833,1430.237089833,1430.237089833,1430.237089833,1430.237089833,1435.081199542,7,-7,3,3.0,2.3046133329999066,4.0,4.021915583000009,1429.78017425,1429.787011458,1430.237089833,1430.072389333,,,,,,,,1429.7767630829999,1429.780128417,None,,,,,,,208,bathroom,2,2024-03-19_13h03.59.162,image_similarity_rating,2023.2.3,None,2024-03-19 13h04.16.794661 +0100,
,118,135,379,379,stimuli/own/bathroom/118_bat.jpg,stimuli/own/bathroom/135_bat.jpg,,,,,,,,,0,152,152,378,1435.0869945,,,,,,,,,,,1435.372082458,1435.5358851669998,1435.5358851669998,1435.5358851669998,1435.5358851669998,1435.5358851669998,1435.5358851669998,1435.5358851669998,1435.5358851669998,1435.5358851669998,1440.0270338750001,-7,7,3,2.0,1.9415022919999956,2.0,4.45470083400005,1435.0848310830002,1435.0869945,1435.5358851669998,1435.3720695830002,,,,,,,,1435.0814222919998,1435.0847854170001,None,,,,,,,208,bathroom,2,2024-03-19_13h03.59.162,image_similarity_rating,2023.2.3,None,2024-03-19 13h04.16.794661 +0100,
,119,132,397,397,stimuli/own/bathroom/119_bat.jpg,stimuli/own/bathroom/132_bat.jpg,,,,,,,,,0,153,153,396,1440.0372900000002,,,,,,,,,,,1440.321776375,1440.484732417,1440.484732417,1440.484732417,1440.484732417,1440.484732417,1440.484732417,1440.484732417,1440.484732417,1440.484732417,1446.231966583,7,-7,3,3.0,4.679000874999929,5.0,5.608390207999946,1440.030668375,1440.0372900000002,1440.484732417,1440.321763417,,,,,,,,1440.027255208,1440.0306223329999,None,,,,,,,208,bathroom,2,2024-03-19_13h03.59.162,image_similarity_rating,2023.2.3,None,2024-03-19 13h04.16.794661 +0100,
,120,124,409,409,stimuli/own/bathroom/120_bat.jpg,stimuli/own/bathroom/124_bat.jpg,,,,,,,,,0,154,154,408,1446.253759875,,,,,,,,,,,1446.53797575,1446.702234667,1446.702234667,1446.702234667,1446.702234667,1446.702234667,1446.702234667,1446.702234667,1446.702234667,1446.702234667,1453.777087125,-7,7,3,3.0,6.959312167000007,4.0,6.120583083999918,1446.2355942499998,1446.253759875,,1446.5379564999998,,,,,,,,1446.2321858330001,1446.235547583,None,,,,,,,208,bathroom,2,2024-03-19_13h03.59.162,image_similarity_rating,2023.2.3,None,2024-03-19 13h04.16.794661 +0100,
,112,122,253,253,stimuli/own/bathroom/112_bat.jpg,stimuli/own/bathroom/122_bat.jpg,,,,,,,,,0,155,155,252,1453.7871559169998,,,,,,,,,,,1454.071722917,1454.2420889579998,1454.2420889579998,1454.2420889579998,1454.2420889579998,1454.2420889579998,1454.2420889579998,1454.2420889579998,1454.2420889579998,1454.2420889579998,1462.4560929999998,7,-7,3,4.0,7.483466542000087,6.0,4.07325916700006,1453.7807319170001,1453.7871559169998,1454.2420889579998,1454.071702875,,,,,,,,1453.777307333,1453.7806866249998,None,,,,,,,208,bathroom,2,2024-03-19_13h03.59.162,image_similarity_rating,2023.2.3,None,2024-03-19 13h04.16.794661 +0100,
