sub_num,trial,block,task,is_practice,category,image,texture,duration,mask_dur,jitter,stim_time,time_of_resp,trial_response,mask_time,fix_time,jit_onset,trial_end,trial_accuracy,RT
121,1,0,aesthetic,1,bathroom,bathroom_practice1.tif,221,1.5,0,1.6,7482.2760235,7486.771854541,2,NaN,7486.777783333,7486.796077791,7488.389515,NaN,NaN
121,2,0,aesthetic,1,bathroom,bathroom_practice2.tif,222,1.5,0,1.26666666666667,7488.409235958,7491.902999708,7,NaN,7491.931795166,7491.954018791,7493.214110583,NaN,NaN
121,3,0,aesthetic,1,bathroom,bathroom_practice3.tif,223,1.5,0,1.15,7493.22798175,7496.555735708,2,NaN,7496.561460833,7496.579953791,7497.723387,NaN,NaN
121,4,0,aesthetic,1,bathroom,bathroom_practice4.tif,224,1.5,0,1.75,7497.733554625,7501.595630791,3,NaN,7501.601497958,7501.619779916,7503.36319875,NaN,NaN
121,5,0,aesthetic,1,bathroom,bathroom_practice5.tif,225,1.5,0,0.85,7503.380564458,7506.514808833,3,NaN,7506.544302833,7506.566957041,7507.410296875,NaN,NaN
121,1,1,aesthetic,0,bathroom,sun_acgyywnybuveqsro.tif,128,1.5,0,0.933333333333333,7511.42530475,7514.5317795,6,NaN,7514.54409325,7514.563000708,7515.489677166,NaN,NaN
121,2,1,aesthetic,0,bathroom,sun_ahcvzmoyaycdoftf.tif,137,1.5,0,1.18333333333333,7515.494410333,7518.579941958,4,NaN,7518.589167,7518.608305041,7519.785052041,NaN,NaN
121,3,1,aesthetic,0,bathroom,sun_ahqjwnzgolcaoidx.tif,139,1.5,0,1.56666666666667,7519.797088041,7522.548020416,5,NaN,7522.553544541,7522.571950083,7524.132047125,NaN,NaN
121,4,1,aesthetic,0,bathroom,sun_ambriybtogmepttm.tif,146,1.5,0,1.38333333333333,7524.150589125,7527.923841208,6,NaN,7527.929452375,7527.948099166,7529.324848125,NaN,NaN
121,5,1,aesthetic,0,bathroom,sun_apkruvsevgegsdwp.tif,154,1.5,0,1.23333333333333,7529.345613041,7531.923808125,2,NaN,7531.9294775,7531.9477675,7533.174532916,NaN,NaN
121,6,1,aesthetic,0,bathroom,sun_apkxzenqapsujocq.tif,155,1.5,0,1.83333333333333,7533.185720416,7536.003523083,6,NaN,7536.009213,7536.027476125,7537.854239791,NaN,NaN
121,7,1,aesthetic,0,bathroom,sun_agyqfjcfkdcydepw.tif,135,1.5,0,1.1,7537.873754208,7540.555096416,7,NaN,7540.584732833,7540.608912791,7541.702306791,NaN,NaN
121,8,1,aesthetic,0,bathroom,sun_anhioqovhscjqqwb.tif,148,1.5,0,1.71666666666667,7541.711491625,7544.25912075,7,NaN,7544.265042041,7544.283365791,7545.993440375,NaN,NaN
121,9,1,aesthetic,0,bathroom,sun_alotolagknyrgtsk.tif,145,1.5,0,1.01666666666667,7546.01311075,7549.276391416,3,NaN,7549.305295125,7549.328979583,7550.339076875,NaN,NaN
121,10,1,aesthetic,0,bathroom,sun_auzqhkafidnkrwmo.tif,164,1.5,0,1.36666666666667,7550.346929208,7553.435424458,5,NaN,7553.441226166,7553.459648625,7554.819717916,NaN,NaN
121,11,1,aesthetic,0,bathroom,sun_agguqiubmwhqqunb.tif,132,1.5,0,0.75,7554.836003458,7558.283302375,4,NaN,7558.289104958,7558.307329791,7559.050670375,NaN,NaN
121,12,1,aesthetic,0,bathroom,sun_acduarbnmmoglmiv.tif,126,1.5,0,1.31666666666667,7559.054998083,7562.072444625,5,NaN,7562.102499375,7562.126589833,7563.436655833,NaN,NaN
121,13,1,aesthetic,0,bathroom,sun_aclfzgynxzxlbepz.tif,129,1.5,0,1.33333333333333,7563.454111125,7565.987926583,5,NaN,7565.993382291,7566.0116495,7567.338413166,NaN,NaN
121,14,1,aesthetic,0,bathroom,sun_axxbkopsgyouuebh.tif,168,1.5,0,1.41666666666667,7567.356855958,7570.299383833,4,NaN,7570.305195416,7570.323592333,7571.733693625,NaN,NaN
121,15,1,aesthetic,0,bathroom,sun_avhrdrntsqrjzccq.tif,165,1.5,0,1.93333333333333,7571.752441125,7574.307980041,5,NaN,7574.313581541,7574.331968458,7576.258709541,NaN,NaN
121,16,1,aesthetic,0,bathroom,sun_ahijqszoswveeyji.tif,138,1.5,0,1.68333333333333,7576.279239375,7579.604135458,4,NaN,7579.610816083,7579.629110666,7581.305869208,NaN,NaN
121,17,1,aesthetic,0,bathroom,sun_atstyziqcmkahyxk.tif,161,1.5,0,0.783333333333333,7581.319401375,7584.608410625,2,NaN,7584.637740458,7584.661197333,7585.437871208,NaN,NaN
121,18,1,aesthetic,0,bathroom,sun_asfwthctfqerjvxr.tif,159,1.5,0,1.93333333333333,7585.442681833,7590.035298416,5,NaN,7590.041044791,7590.060802708,7591.987540458,NaN,NaN
121,19,1,aesthetic,0,bathroom,sun_aofnryafpsjimzsb.tif,150,1.5,0,1.18333333333333,7592.006226083,7595.595535958,6,NaN,7595.601208375,7595.619651,7596.796417916,NaN,NaN
121,20,1,aesthetic,0,bathroom,sun_afcoljnjfoxjtgja.tif,130,1.5,0,1.61666666666667,7596.806802208,7599.739317666,6,NaN,7599.745103375,7599.763433041,7601.373520125,NaN,NaN
121,21,1,aesthetic,0,bathroom,sun_akiytfaagpdsphgz.tif,141,1.5,0,1.16666666666667,7601.38994175,7604.002842416,5,NaN,7604.008942208,7604.02711775,7605.187197875,NaN,NaN
121,22,1,aesthetic,0,bathroom,sun_awnqiikzaispgmwo.tif,166,1.5,0,1.85,7605.197394458,7607.987633375,4,NaN,7607.993180875,7608.01139275,7609.854788458,NaN,NaN
121,23,1,aesthetic,0,bathroom,sun_apjevzvycyhuqghb.tif,153,1.5,0,1.68333333333333,7609.873327333,7612.5235165,3,NaN,7612.552168333,7612.57547025,7614.252189625,NaN,NaN
121,24,1,aesthetic,0,bathroom,sun_apynckhmoftszqoq.tif,157,1.5,0,1.98333333333333,7614.270358791,7616.908378833,1,NaN,7616.936681458,7616.960047,7618.936790583,NaN,NaN
121,25,1,aesthetic,0,bathroom,sun_aoybiabnpadelefl.tif,151,1.5,0,1.28333333333333,7618.9537935,7622.088572041,6,NaN,7622.117479041,7622.138035666,7623.414760541,NaN,NaN
121,1,2,aesthetic,0,bathroom,sun_apmqjbnwghzuhhzh.tif,156,1.5,0,0.9,7685.1899055,7688.667121583,4,NaN,7688.672788791,7688.691185208,7689.5845285,NaN,NaN
121,2,2,aesthetic,0,bathroom,sun_aapitsgbtktqubfy.tif,122,1.5,0,1.95,7689.589160291,7695.354448708,5,NaN,7695.360646166,7695.379023416,7697.322440541,NaN,NaN
121,3,2,aesthetic,0,bathroom,sun_axyrejkiiaqiurjk.tif,169,1.5,0,1,7697.342339916,7699.886286583,6,NaN,7699.915749083,7699.939247916,7700.932587541,NaN,NaN
121,4,2,aesthetic,0,bathroom,sun_ahaulkltgpkeeemi.tif,136,1.5,0,0.733333333333333,7700.93736325,7705.930462583,4,NaN,7705.936655875,7705.95508075,7706.681756666,NaN,NaN
121,5,2,aesthetic,0,bathroom,sun_amzlamotzwfkwjco.tif,147,1.5,0,1.2,7706.68597825,7710.211499875,5,NaN,7710.21709575,7710.235536583,7711.428978666,NaN,NaN
121,6,2,aesthetic,0,bathroom,sun_aunuadmjocsddsrl.tif,162,1.5,0,1.21666666666667,7711.440251458,7716.370765166,2,NaN,7716.37648525,7716.394797041,7717.604878125,NaN,NaN
121,7,2,aesthetic,0,bathroom,sun_azqyogdvyhahyram.tif,170,1.5,0,0.933333333333333,7717.616422458,7723.571205125,2,NaN,7723.577306041,7723.595620375,7724.522297375,NaN,NaN
121,8,2,aesthetic,0,bathroom,sun_aqrpegblszgcoujh.tif,158,1.5,0,0.916666666666667,7724.526985041,7727.906628791,6,NaN,7727.912552875,7727.930840958,7728.84085525,NaN,NaN
121,9,2,aesthetic,0,bathroom,sun_aspsyogrekjtfozg.tif,160,1.5,0,1.1,7728.857396375,7731.7669825,6,NaN,7731.796222916,7731.819949708,7732.913340416,NaN,NaN
121,10,2,aesthetic,0,bathroom,sun_axldvoqbuvuggfmq.tif,167,1.5,0,1.16666666666667,7732.924425291,7736.186683708,4,NaN,7736.19244125,7736.210607208,7737.370671416,NaN,NaN
121,11,2,aesthetic,0,bathroom,sun_abjtwfukuwddzted.tif,125,1.5,0,0.783333333333333,7737.379568083,7741.91426575,3,NaN,7741.920304625,7741.938557083,7742.715231625,NaN,NaN
121,12,2,aesthetic,0,bathroom,sun_abapwbhyhkfixyex.tif,124,1.5,0,1.95,7742.723808541,7748.090879416,6,NaN,7748.096461166,7748.114827833,7750.058224208,NaN,NaN
121,13,2,aesthetic,0,bathroom,sun_anryaplzeujmzfkd.tif,149,1.5,0,1.05,7750.0776105,7753.098226708,5,NaN,7753.123574833,7753.145392666,7754.188810708,NaN,NaN
121,14,2,aesthetic,0,bathroom,sun_ausgutylgojavyoq.tif,163,1.5,0,1.03333333333333,7754.208316875,7757.586748791,5,NaN,7757.59240575,7757.61072375,7758.637473375,NaN,NaN
121,15,2,aesthetic,0,bathroom,sun_aggnnqpdorgxpvce.tif,131,1.5,0,1.45,7758.646137666,7763.714763583,6,NaN,7763.72043375,7763.738813333,7765.182221541,NaN,NaN
121,16,2,aesthetic,0,bathroom,sun_aljolscmmzydegqp.tif,143,1.5,0,0.966666666666667,7765.192737083,7768.331007125,6,NaN,7768.336655208,7768.354996041,7769.315003291,NaN,NaN
121,17,2,aesthetic,0,bathroom,sun_aghyqhbptboemmoq.tif,133,1.5,0,0.966666666666667,7769.319690375,7772.347134916,2,NaN,7772.356532916,7772.375551791,7773.335561791,NaN,NaN
121,18,2,aesthetic,0,bathroom,sun_alkosphxlxwjwgjd.tif,144,1.5,0,1.2,7773.340318625,7776.263737333,5,NaN,7776.293660041,7776.316869833,7777.510265458,NaN,NaN
121,19,2,aesthetic,0,bathroom,sun_apeeialkgkuxddgh.tif,152,1.5,0,0.933333333333333,7777.52475375,7780.811198666,2,NaN,7780.817016833,7780.835272583,7781.76194875,NaN,NaN
121,20,2,aesthetic,0,bathroom,sun_aleqenyvunhactkl.tif,142,1.5,0,1.31666666666667,7781.766281208,7785.674140708,2,NaN,7785.680126666,7785.69845675,7787.00853975,NaN,NaN
121,21,2,aesthetic,0,bathroom,sun_ajlawzvmubibwbpy.tif,140,1.5,0,1.18333333333333,7787.027201083,7790.602443166,6,NaN,7790.608226041,7790.626499958,7791.8032235,NaN,NaN
121,22,2,aesthetic,0,bathroom,labelme_sfxiulhjbhlyiyt.tif,121,1.5,0,1.71666666666667,7791.81493,7795.090481625,6,NaN,7795.09613825,7795.114454666,7796.824509791,NaN,NaN
121,23,2,aesthetic,0,bathroom,sun_aavhrsfjbserjtht.tif,123,1.5,0,1.53333333333333,7796.838137416,7800.930630958,6,NaN,7800.936300291,7800.954637333,7802.481360291,NaN,NaN
121,24,2,aesthetic,0,bathroom,sun_acegryoqftbzowsg.tif,127,1.5,0,0.933333333333333,7802.500010583,7805.738003541,2,NaN,7805.744272958,7805.762689708,7806.6893635,NaN,NaN
121,25,2,aesthetic,0,bathroom,sun_agrwbmhcpmfuwmsg.tif,134,1.5,0,0.916666666666667,7806.694168708,7810.3466455,5,NaN,7810.352288291,7810.370598791,7811.280608791,NaN,NaN
