sub_num,trial,block,task,is_practice,category,image,texture,duration,mask_dur,jitter,stim_time,time_of_resp,trial_response,mask_time,fix_time,jit_onset,trial_end,trial_accuracy,RT
128,6,0,aesthetic,1,kitchen,kitchen_practice2.tif,227,1.5,0,1.08333333333333,14917.679962167,14922.292731375,4,NaN,14922.29947675,14922.3183955,14923.39544975,NaN,4.61276920800083
128,7,0,aesthetic,1,kitchen,kitchen_practice1.tif,226,1.5,0,1.06666666666667,14923.418263917,14927.420015209,4,NaN,14927.426597375,14927.445047167,14928.505226834,NaN,4.00175129200034
128,8,0,aesthetic,1,kitchen,kitchen_practice4.tif,229,1.5,0,1.11666666666667,14928.533733625,14931.411958125,4,NaN,14931.418595167,14931.436975459,14932.547065709,NaN,2.87822450000021
128,9,0,aesthetic,1,kitchen,kitchen_practice3.tif,228,1.5,0,0.95,14932.559495375,14935.948010292,4,NaN,14935.954501625,14935.972811,14936.916150625,NaN,3.38851491700007
128,10,0,aesthetic,1,kitchen,kitchen_practice5.tif,230,1.5,0,0.9,14936.933587375,14939.67645825,4,NaN,14939.708374917,14939.731073917,14940.624414959,NaN,2.74287087499943
128,1,1,aesthetic,0,kitchen,sun_ahljzhgcdpomplvg.tif,201,1.5,0,1.48333333333333,14944.880757709,14947.308136417,4,NaN,14947.339737584,14947.364232542,14948.840963625,NaN,2.42737870800011
128,2,1,aesthetic,0,kitchen,sun_afuyedyxivkhecmu.tif,195,1.5,0,1.46666666666667,14948.862863834,14951.180236792,4,NaN,14951.186596,14951.205012667,14952.665092084,NaN,2.31737295800122
128,3,1,aesthetic,0,kitchen,sun_adgqasybjyktddhj.tif,188,1.5,0,0.766666666666667,14952.683877084,14955.716495,4,NaN,14955.722494334,14955.74084675,14956.500852667,NaN,3.03261791600016
128,4,1,aesthetic,0,kitchen,sun_ahpczsiumwwocjkv.tif,202,1.5,0,1.16666666666667,14956.516931,14959.293773459,4,NaN,14959.324263542,14959.348372625,14960.508455125,NaN,2.77684245899945
128,5,1,aesthetic,0,kitchen,sun_agorklincwxrdtga.tif,197,1.5,0,1.6,14960.516692,14963.220998417,4,NaN,14963.227005542,14963.245314917,14964.838727042,NaN,2.70430641700113
128,6,1,aesthetic,0,kitchen,sun_auaiucuqpdausiva.tif,212,1.5,0,1.68333333333333,14964.860955167,14967.476378167,5,NaN,14967.482303625,14967.501117125,14969.177873584,NaN,2.6154230000011
128,7,1,aesthetic,0,kitchen,sun_aapllqyqlykszopd.tif,176,1.5,0,1.5,14969.190219417,14971.574072125,4,NaN,14971.605742334,14971.629878709,14973.123294084,NaN,2.38385270800063
128,8,1,aesthetic,0,kitchen,sun_awcpdzzznmweyyhv.tif,216,1.5,0,0.833333333333333,14973.13877025,14975.756662042,4,NaN,14975.762400125,14975.780760459,14976.607435125,NaN,2.61789179200059
128,9,1,aesthetic,0,kitchen,sun_aadbddgrdsjugojn.tif,174,1.5,0,0.9,14976.616603334,14979.40425125,4,NaN,14979.429371542,14979.452238542,14980.345578959,NaN,2.78764791600042
128,10,1,aesthetic,0,kitchen,sun_aegoxogugdkwpmpj.tif,190,1.5,0,0.933333333333333,14980.366507542,14983.109581542,4,NaN,14983.127035084,14983.149374292,14984.076046834,NaN,2.74307399999998
128,11,1,aesthetic,0,kitchen,sun_abrcnpqqhmjwekyf.tif,183,1.5,0,0.9,14984.08331075,14987.087978875,4,NaN,14987.108541625,14987.128711625,14988.022054667,NaN,3.00466812500053
128,12,1,aesthetic,0,kitchen,sun_avszsnwsbuqfgzbn.tif,215,1.5,0,0.85,14988.033473667,14990.760298584,4,NaN,14990.787210792,14990.810942125,14991.654282584,NaN,2.72682491700107
128,13,1,aesthetic,0,kitchen,labelme_kxvouciolcpqplr.tif,172,1.5,0,1.83333333333333,14991.666617459,14994.35011125,5,NaN,14994.378102,14994.401997292,14996.228727334,NaN,2.68349379100073
128,14,1,aesthetic,0,kitchen,sun_agzzivivdpnawacl.tif,199,1.5,0,0.733333333333333,14996.249492417,14998.882117334,4,NaN,14998.912715084,14998.936959834,14999.663637167,NaN,2.6326249169997
128,15,1,aesthetic,0,kitchen,sun_aunzlwrbjumxhwdj.tif,213,1.5,0,1.63333333333333,14999.668379167,15002.448272084,5,NaN,15002.473331667,15002.497429125,15004.124189042,NaN,2.77989291700032
128,16,1,aesthetic,0,kitchen,sun_aymvwlarqodbwuoc.tif,218,1.5,0,0.766666666666667,15004.146112125,15006.847596792,4,NaN,15006.872896625,15006.89697875,15007.657037125,NaN,2.70148466700084
128,17,1,aesthetic,0,kitchen,sun_abpwyqmlzafvklqo.tif,182,1.5,0,1.71666666666667,15007.675458375,15010.285883209,4,NaN,15010.310674292,15010.336570292,15012.046648542,NaN,2.61042483399979
128,18,1,aesthetic,0,kitchen,sun_abdxkyyxwfskuaqb.tif,180,1.5,0,1.51666666666667,15012.066956625,15015.103315209,4,NaN,15015.121138709,15015.142966042,15016.653050542,NaN,3.03635858400048
128,19,1,aesthetic,0,kitchen,sun_aaxxjlsuzvqlgylf.tif,178,1.5,0,1.25,15016.673824792,15019.539751709,4,NaN,15019.546222584,15019.56472375,15020.8081115,NaN,2.86592691700025
128,20,1,aesthetic,0,kitchen,sun_azmutvzbxypaceni.tif,220,1.5,0,1.41666666666667,15020.8294435,15023.556674542,4,NaN,15023.5624935,15023.580772667,15024.990858375,NaN,2.7272310419994
128,21,1,aesthetic,0,kitchen,sun_axyyrmzcupyhlivc.tif,217,1.5,0,1.1,15025.01068475,15028.523702,5,NaN,15028.530026709,15028.548405834,15029.641824084,NaN,3.51301725000121
128,22,1,aesthetic,0,kitchen,sun_ajkqhtgcbgpcwrwn.tif,207,1.5,0,0.95,15029.649970667,15032.612393084,4,NaN,15032.618313709,15032.636525959,15033.579865042,NaN,2.9624224170002
128,23,1,aesthetic,0,kitchen,sun_aamedkxepzlwuxes.tif,175,1.5,0,1.45,15033.585738875,15036.469739709,4,NaN,15036.503176917,15036.527268,15037.970668209,NaN,2.8840008340012
128,24,1,aesthetic,0,kitchen,sun_akcjzhbbjlbogpdi.tif,209,1.5,0,0.883333333333333,15037.991864292,15040.652224792,5,NaN,15040.6581865,15040.676530459,15041.553205167,NaN,2.66036050000002
128,25,1,aesthetic,0,kitchen,sun_ahywdevtimnqcsln.tif,204,1.5,0,1.23333333333333,15041.566442917,15044.440182042,5,NaN,15044.469863709,15044.493439792,15045.7201655,NaN,2.87373912500152
