sub_num,trial,block,task,is_practice,category,image,texture,duration,mask_dur,jitter,stim_time,time_of_resp,trial_response,mask_time,fix_time,jit_onset,trial_end,trial_accuracy,RT
137,6,0,typicality,1,kitchen,kitchen_practice2.tif,227,1.5,0,0.966666666666667,2539.438493625,2546.48846,2,NaN,2546.510559125,2546.531787916,2547.491897333,NaN,NaN
137,7,0,typicality,1,kitchen,kitchen_practice5.tif,230,1.5,0,1.58333333333333,2547.5027825,2550.976528708,2,NaN,2550.986022916,2551.004919291,2552.581780916,NaN,NaN
137,8,0,typicality,1,kitchen,kitchen_practice1.tif,226,1.5,0,1.03333333333333,2552.610599208,2555.440880875,2,NaN,2555.447133333,2555.46558825,2556.492288541,NaN,NaN
137,9,0,typicality,1,kitchen,kitchen_practice4.tif,229,1.5,0,1.68333333333333,2556.51101875,2559.256420208,1,NaN,2559.263150041,2559.281596666,2560.958298041,NaN,NaN
137,10,0,typicality,1,kitchen,kitchen_practice3.tif,228,1.5,0,1.45,2560.98787675,2563.767532958,1,NaN,2563.8090865,2563.832264791,2565.275635791,NaN,NaN
137,1,1,typicality,0,kitchen,sun_agubuxuukhzyzpdp.tif,198,1.5,0,0.733333333333333,2574.062948375,2578.392181791,2,NaN,2578.398783666,2578.417121291,2579.143792333,NaN,NaN
137,2,1,typicality,0,kitchen,sun_ahpczsiumwwocjkv.tif,202,1.5,0,1.18333333333333,2579.148513125,2582.632620458,2,NaN,2582.638066166,2582.656426916,2583.833144333,NaN,NaN
137,3,1,typicality,0,kitchen,sun_aapllqyqlykszopd.tif,176,1.5,0,0.7,2583.845092625,2586.6486455,3,NaN,2586.654120958,2586.672981083,2587.366317708,NaN,NaN
137,4,1,typicality,0,kitchen,sun_auaiucuqpdausiva.tif,212,1.5,0,1.2,2587.37056375,2590.296672,1,NaN,2590.325176625,2590.348306458,2591.541676708,NaN,NaN
137,5,1,typicality,0,kitchen,sun_adgqasybjyktddhj.tif,188,1.5,0,0.966666666666667,2591.558113083,2594.520539708,4,NaN,2594.52594975,2594.5442535,2595.504257791,NaN,NaN
137,6,1,typicality,0,kitchen,sun_aaxxjlsuzvqlgylf.tif,178,1.5,0,1.3,2595.508512833,2598.344421375,1,NaN,2598.368174791,2598.391723958,2599.685092833,NaN,NaN
137,7,1,typicality,0,kitchen,labelme_kxvouciolcpqplr.tif,172,1.5,0,1.65,2599.704049666,2603.696535583,6,NaN,2603.702320083,2603.720681083,2605.364062291,NaN,NaN
137,8,1,typicality,0,kitchen,sun_amjjdeyrggfqgmom.tif,210,1.5,0,1.63333333333333,2605.381215333,2608.024023416,1,NaN,2608.052241833,2608.07518825,2609.701903625,NaN,NaN
137,9,1,typicality,0,kitchen,sun_acfmftudsenhrfhy.tif,184,1.5,0,0.9,2609.720198125,2612.704357916,5,NaN,2612.709889625,2612.728270375,2613.621608958,NaN,NaN
137,10,1,typicality,0,kitchen,sun_aypmqwcualkenuoe.tif,219,1.5,0,0.95,2613.625884666,2618.663831916,2,NaN,2618.66977375,2618.688255625,2619.631593333,NaN,NaN
137,11,1,typicality,0,kitchen,sun_avszsnwsbuqfgzbn.tif,215,1.5,0,0.816666666666667,2619.6359415,2622.329913208,1,NaN,2622.356986791,2622.378502166,2623.188507583,NaN,NaN
137,12,1,typicality,0,kitchen,sun_aarfiyshqohlwkmo.tif,177,1.5,0,1.96666666666667,2623.193214083,2627.78373375,5,NaN,2627.7897605,2627.808082083,2629.768129875,NaN,NaN
137,13,1,typicality,0,kitchen,sun_aeqdocilnnpuvuhx.tif,193,1.5,0,0.783333333333333,2629.786902125,2633.032495833,1,NaN,2633.039103458,2633.057314458,2633.83398625,NaN,NaN
137,14,1,typicality,0,kitchen,sun_ahdycvpopffkzzsu.tif,200,1.5,0,0.733333333333333,2633.83965175,2637.352159125,7,NaN,2637.357800916,2637.376222625,2638.102895083,NaN,NaN
137,15,1,typicality,0,kitchen,sun_acgtpgfybqjmzeyw.tif,185,1.5,0,1.9,2638.1071865,2642.160374666,6,NaN,2642.165832916,2642.184174083,2644.077552833,NaN,NaN
137,16,1,typicality,0,kitchen,sun_aqeaevwwwjoqhzvl.tif,211,1.5,0,0.75,2644.092311416,2648.112140625,2,NaN,2648.117853458,2648.136290875,2648.879630041,NaN,NaN
137,17,1,typicality,0,kitchen,sun_aenotlpyftoioydp.tif,192,1.5,0,0.916666666666667,2648.884011875,2651.625123833,6,NaN,2651.653307708,2651.676557958,2652.586561625,NaN,NaN
137,18,1,typicality,0,kitchen,sun_ajkqhtgcbgpcwrwn.tif,207,1.5,0,0.733333333333333,2652.591297125,2655.671630083,7,NaN,2655.678930833,2655.697224791,2656.423895083,NaN,NaN
137,19,1,typicality,0,kitchen,sun_acxkpeoqbwcxfvip.tif,187,1.5,0,1.81666666666667,2656.4285095,2659.167439291,2,NaN,2659.196462,2659.219671291,2661.029726166,NaN,NaN
137,20,1,typicality,0,kitchen,labelme_rykdqxenmhulbdn.tif,173,1.5,0,1.16666666666667,2661.04255225,2664.912240958,5,NaN,2664.917706166,2664.936052791,2666.096090708,NaN,NaN
137,21,1,typicality,0,kitchen,sun_agorklincwxrdtga.tif,197,1.5,0,1.81666666666667,2666.10460525,2669.983959,1,NaN,2669.989571666,2670.007788875,2671.817830083,NaN,NaN
137,22,1,typicality,0,kitchen,sun_aexklacwqwezaorf.tif,194,1.5,0,1.35,2671.837080916,2674.815689625,2,NaN,2674.844800583,2674.867811458,2676.211177625,NaN,NaN
137,23,1,typicality,0,kitchen,sun_ahywdevtimnqcsln.tif,204,1.5,0,1.25,2676.221490208,2679.183927625,6,NaN,2679.189656125,2679.207988083,2680.451371625,NaN,NaN
137,24,1,typicality,0,kitchen,sun_aamedkxepzlwuxes.tif,175,1.5,0,1.05,2680.466428,2684.2880385,5,NaN,2684.293718,2684.312099875,2685.355483458,NaN,NaN
137,25,1,typicality,0,kitchen,sun_ajcbwwvdlsvjyzje.tif,206,1.5,0,0.916666666666667,2685.36323,2688.176179083,3,NaN,2688.181714333,2688.199963958,2689.109969,NaN,NaN
137,1,2,typicality,0,kitchen,sun_awcpdzzznmweyyhv.tif,216,1.5,0,1.56666666666667,2693.203382333,2697.984363416,1,NaN,2697.989945583,2698.00829275,2699.568336375,NaN,NaN
137,2,2,typicality,0,kitchen,sun_aegoxogugdkwpmpj.tif,190,1.5,0,0.883333333333333,2699.585895791,2702.103868583,2,NaN,2702.109614166,2702.127890333,2703.004561916,NaN,NaN
137,3,2,typicality,0,kitchen,sun_aixorpehvfykdynp.tif,205,1.5,0,0.75,2703.008993166,2705.452817333,4,NaN,2705.475776541,2705.499293041,2706.242630875,NaN,NaN
137,4,2,typicality,0,kitchen,sun_aehawpgmrlhlvcow.tif,191,1.5,0,1.23333333333333,2706.247558291,2709.679835541,1,NaN,2709.685593,2709.703785958,2710.930494916,NaN,NaN
137,5,2,typicality,0,kitchen,sun_acwjdupvyjsugpay.tif,186,1.5,0,0.85,2710.948250333,2713.608406708,6,NaN,2713.613808083,2713.63213475,2714.475472083,NaN,NaN
137,6,2,typicality,0,kitchen,labelme_brsyyvweiuaazfr.tif,171,1.5,0,0.916666666666667,2714.479806458,2717.968241125,5,NaN,2717.973800791,2717.992148,2718.902153833,NaN,NaN
137,7,2,typicality,0,kitchen,sun_akchetnepxlcxhsu.tif,208,1.5,0,1.75,2718.906878083,2721.445449083,6,NaN,2721.473422,2721.496528791,2723.239904083,NaN,NaN
137,8,2,typicality,0,kitchen,sun_ahljzhgcdpomplvg.tif,201,1.5,0,1.43333333333333,2723.257544666,2725.903491083,2,NaN,2725.932037791,2725.955195666,2727.381894541,NaN,NaN
137,9,2,typicality,0,kitchen,sun_abpwyqmlzafvklqo.tif,182,1.5,0,0.783333333333333,2727.400615875,2730.415680291,6,NaN,2730.421571666,2730.439864041,2731.216535583,NaN,NaN
137,10,2,typicality,0,kitchen,sun_axyyrmzcupyhlivc.tif,217,1.5,0,1.76666666666667,2731.222447333,2734.831632125,3,NaN,2734.83757075,2734.8559755,2736.616016375,NaN,NaN
137,11,2,typicality,0,kitchen,sun_auticobqsbwgoppi.tif,214,1.5,0,1.78333333333333,2736.633480291,2739.523286333,7,NaN,2739.551626833,2739.574562708,2741.351282208,NaN,NaN
137,12,2,typicality,0,kitchen,sun_aymvwlarqodbwuoc.tif,218,1.5,0,1.85,2741.370151916,2744.107095333,1,NaN,2744.13507675,2744.157645458,2746.001033333,NaN,NaN
137,13,2,typicality,0,kitchen,sun_ahspylgoovwmwvgk.tif,203,1.5,0,1.18333333333333,2746.0169805,2750.199443916,3,NaN,2750.205487,2750.223809875,2751.4005195,NaN,NaN
137,14,2,typicality,0,kitchen,sun_aggjlwcdjsjcaemh.tif,196,1.5,0,1.01666666666667,2751.410289583,2755.120349375,7,NaN,2755.125768458,2755.14405775,2756.154098083,NaN,NaN
137,15,2,typicality,0,kitchen,sun_aunzlwrbjumxhwdj.tif,213,1.5,0,1.65,2756.161690291,2759.344216041,7,NaN,2759.349692625,2759.368113166,2761.01149375,NaN,NaN
137,16,2,typicality,0,kitchen,sun_abrcnpqqhmjwekyf.tif,183,1.5,0,1.83333333333333,2761.029979166,2764.879914791,4,NaN,2764.885401166,2764.903949458,2766.730670375,NaN,NaN
137,17,2,typicality,0,kitchen,sun_agzzivivdpnawacl.tif,199,1.5,0,1.58333333333333,2766.748624208,2769.419388375,6,NaN,2769.447663208,2769.471037333,2771.0477585,NaN,NaN
137,18,2,typicality,0,kitchen,sun_abftihopvusyfakt.tif,181,1.5,0,1.85,2771.060695375,2774.144247416,2,NaN,2774.14979725,2774.16822675,2776.011606833,NaN,NaN
137,19,2,typicality,0,kitchen,sun_afuyedyxivkhecmu.tif,195,1.5,0,0.766666666666667,2776.027246958,2778.726795125,1,NaN,2778.756501458,2778.779734041,2779.539737958,NaN,NaN
137,20,2,typicality,0,kitchen,sun_aadbddgrdsjugojn.tif,174,1.5,0,0.716666666666667,2779.544354458,2782.655253541,3,NaN,2782.663603416,2782.682645916,2783.392651208,NaN,NaN
137,21,2,typicality,0,kitchen,sun_azmutvzbxypaceni.tif,220,1.5,0,1.38333333333333,2783.403573875,2786.879610208,4,NaN,2786.885385208,2786.903869333,2788.280581333,NaN,NaN
137,22,2,typicality,0,kitchen,sun_abdxkyyxwfskuaqb.tif,180,1.5,0,0.866666666666667,2788.292759333,2790.927570791,1,NaN,2790.933184916,2790.9514325,2791.811438541,NaN,NaN
137,23,2,typicality,0,kitchen,sun_akcjzhbbjlbogpdi.tif,209,1.5,0,1.4,2791.8201675,2794.69944875,6,NaN,2794.727993625,2794.751103833,2796.144482041,NaN,NaN
137,24,2,typicality,0,kitchen,sun_admlmbcdswaszruo.tif,189,1.5,0,1,2796.162421416,2798.951742958,2,NaN,2798.957335625,2798.9756305,2799.968968083,NaN,NaN
137,25,2,typicality,0,kitchen,sun_abdenxonkemggwsq.tif,179,1.5,0,1.28333333333333,2799.973394208,2802.446759166,1,NaN,2802.475050166,2802.497902333,2803.7746105,NaN,NaN
