sub_num,trial,block,task,is_practice,category,image,texture,duration,blank,mask_dur,jitter,stim_time,time_of_resp,trial_response,blank_time,mask_time,fix_time,jit_onset,trial_end,trial_accuracy,RT
114,1,0,familiarity,1,bathroom,bathroom_practice3.tif,223,1.5,0,0,1.2,972720.498718,972731.962457,53,NaN,NaN,972722.0005924,972731.9744277,972733.1729236,NaN,NaN
114,2,0,familiarity,1,bathroom,bathroom_practice2.tif,222,1.5,0,0,1.31666666666667,972733.1817583,972734.9810722,53,NaN,NaN,972734.684037,972734.9858508,972736.3008562,NaN,NaN
114,3,0,familiarity,1,bathroom,bathroom_practice5.tif,225,1.5,0,0,1.71666666666667,972736.3062717,972738.4239339,54,NaN,NaN,972737.8082459,972738.4284009,972740.1434053,NaN,NaN
114,4,0,familiarity,1,bathroom,bathroom_practice4.tif,224,1.5,0,0,1.81666666666667,972740.1483557,972740.8653761,51,NaN,NaN,972741.6504935,972741.6567101,972743.4717143,NaN,NaN
114,5,0,familiarity,1,bathroom,bathroom_practice1.tif,221,1.5,0,0,1.96666666666667,972743.4781106,972744.1690834,51,NaN,NaN,972744.9808295,972744.9868157,972746.9518202,NaN,NaN
114,1,1,familiarity,0,bathroom,sun_ambriybtogmepttm.tif,145,1.5,0,0,0.783333333333333,972774.7252779,972776.1470073,54,NaN,NaN,972776.2270795,972776.233334,972777.0150041,NaN,NaN
114,2,1,familiarity,0,bathroom,sun_atstyziqcmkahyxk.tif,161,1.5,0,0,1.56666666666667,972777.0190551,972781.7199786,53,NaN,NaN,972778.5211983,972781.7242554,972783.289274,NaN,NaN
114,3,1,familiarity,0,bathroom,sun_aspsyogrekjtfozg.tif,160,1.5,0,0,0.983333333333333,972783.2933442,972783.2935416,53,NaN,NaN,972784.7950783,972784.8012796,972785.7829504,NaN,NaN
114,4,1,familiarity,0,bathroom,sun_ahqjwnzgolcaoidx.tif,138,1.5,0,0,0.816666666666667,972785.7867905,972785.7869722,53,NaN,NaN,972787.2885574,972787.2948411,972788.1098464,NaN,NaN
114,5,1,familiarity,0,bathroom,sun_auzqhkafidnkrwmo.tif,164,1.5,0,0,1.75,972788.1138921,972788.7986565,53,NaN,NaN,972789.6155441,972789.6216269,972791.3699651,NaN,NaN
114,6,1,familiarity,0,bathroom,sun_akiytfaagpdsphgz.tif,140,1.5,0,0,1.23333333333333,972791.3740369,972791.3743467,53,NaN,NaN,972792.8757536,972792.8821199,972794.1137908,NaN,NaN
114,7,1,familiarity,0,bathroom,sun_ajlawzvmubibwbpy.tif,139,1.5,0,0,0.783333333333333,972794.1177569,972794.1179946,53,NaN,NaN,972795.6205728,972795.6267669,972796.4084375,NaN,NaN
114,8,1,familiarity,0,bathroom,sun_abjtwfukuwddzted.tif,126,1.5,0,0,0.916666666666667,972796.4122542,972796.4124579,53,NaN,NaN,972797.9140138,972797.9202051,972798.8352086,NaN,NaN
114,9,1,familiarity,0,bathroom,sun_axxbkopsgyouuebh.tif,168,1.5,0,0,0.916666666666667,972798.8390131,972798.8392059,53,NaN,NaN,972800.3409654,972800.347086,972801.26209,NaN,NaN
114,10,1,familiarity,0,bathroom,sun_agrwbmhcpmfuwmsg.tif,133,1.5,0,0,1.38333333333333,972801.2661022,972801.2663502,53,NaN,NaN,972802.7678635,972802.7736678,972804.1553382,NaN,NaN
114,11,1,familiarity,0,bathroom,sun_aqrpegblszgcoujh.tif,158,1.5,0,0,0.883333333333333,972804.1592368,972804.1594455,53,NaN,NaN,972805.6612073,972805.6673873,972806.5490582,NaN,NaN
114,12,1,familiarity,0,bathroom,sun_alotolagknyrgtsk.tif,144,1.5,0,0,1.7,972806.5530569,972806.5532951,53,NaN,NaN,972808.0552948,972808.0613701,972809.759707,NaN,NaN
114,13,1,familiarity,0,bathroom,sun_acduarbnmmoglmiv.tif,127,1.5,0,0,1.16666666666667,972809.7638257,972809.7641998,53,NaN,NaN,972811.2662002,972811.2722929,972812.4372972,NaN,NaN
114,14,1,familiarity,0,bathroom,sun_afcoljnjfoxjtgja.tif,130,1.5,0,0,1.65,972812.4409897,972812.4411982,53,NaN,NaN,972813.9427309,972813.9485362,972815.5968742,NaN,NaN
114,15,1,familiarity,0,bathroom,sun_agyqfjcfkdcydepw.tif,134,1.5,0,0,1.81666666666667,972815.6010075,972815.6012653,53,NaN,NaN,972817.1032581,972817.108814,972818.9238182,NaN,NaN
114,16,1,familiarity,0,bathroom,sun_acgyywnybuveqsro.tif,128,1.5,0,0,0.983333333333333,972818.9275789,972818.9277766,53,NaN,NaN,972820.429397,972820.4355058,972821.4171758,NaN,NaN
114,17,1,familiarity,0,bathroom,sun_awnqiikzaispgmwo.tif,166,1.5,0,0,1.58333333333333,972821.4211582,972821.4213227,53,NaN,NaN,972822.9231899,972822.9294635,972824.5111336,NaN,NaN
114,18,1,familiarity,0,bathroom,sun_ausgutylgojavyoq.tif,163,1.5,0,0,0.733333333333333,972824.5151379,972824.5153379,53,NaN,NaN,972826.0170921,972826.0229697,972826.7546525,NaN,NaN
114,19,1,familiarity,0,bathroom,sun_anryaplzeujmzfkd.tif,149,1.5,0,0,1.01666666666667,972826.7586388,972826.7588168,53,NaN,NaN,972828.260454,972828.2667562,972829.28176,NaN,NaN
114,20,1,familiarity,0,bathroom,sun_aapitsgbtktqubfy.tif,123,1.5,0,0,1.61666666666667,972829.2861889,972829.2897056,53,NaN,NaN,972830.7880636,972830.7943518,972832.4093553,NaN,NaN
114,21,1,familiarity,0,bathroom,sun_apynckhmoftszqoq.tif,157,1.5,0,0,1.68333333333333,972832.4135499,972832.4137451,53,NaN,NaN,972833.9158639,972833.9216931,972835.6033636,NaN,NaN
114,22,1,familiarity,0,bathroom,sun_aamrfepkhweyewue.tif,122,1.5,0,0,1.05,972835.6077021,972835.6078794,53,NaN,NaN,972837.1095923,972837.1157853,972838.1641217,NaN,NaN
114,23,1,familiarity,0,bathroom,sun_asfwthctfqerjvxr.tif,159,1.5,0,0,1.11666666666667,972838.1684383,972838.1685922,53,NaN,NaN,972839.6699852,972839.6759358,972840.7909408,NaN,NaN
114,24,1,familiarity,0,bathroom,sun_aavhrsfjbserjtht.tif,124,1.5,0,0,1.28333333333333,972840.7949237,972840.7951093,53,NaN,NaN,972842.2966353,972842.3044813,972843.5861522,NaN,NaN
114,25,1,familiarity,0,bathroom,sun_aclfzgynxzxlbepz.tif,129,1.5,0,0,1.66666666666667,972843.590392,972843.5905806,53,NaN,NaN,972845.0920758,972845.0982079,972846.7632122,NaN,NaN
114,1,2,familiarity,0,bathroom,sun_anhioqovhscjqqwb.tif,148,1.5,0,0,0.866666666666667,972869.8923964,972947.8520323,51,NaN,NaN,972871.3943247,972947.8559576,972948.7209685,NaN,NaN
114,2,2,familiarity,0,bathroom,sun_ahcvzmoyaycdoftf.tif,136,1.5,0,0,0.783333333333333,972948.7248576,972948.7251649,51,NaN,NaN,972950.226613,972950.2325424,972951.0142122,NaN,NaN
114,3,2,familiarity,0,bathroom,sun_aghyqhbptboemmoq.tif,132,1.5,0,0,1.46666666666667,972951.0180123,972951.0181985,51,NaN,NaN,972952.5201317,972952.5260343,972953.9910378,NaN,NaN
114,4,2,familiarity,0,bathroom,sun_apkruvsevgegsdwp.tif,154,1.5,0,0,1.95,972953.9951833,972953.9953426,51,NaN,NaN,972955.4970813,972955.5032076,972957.4515457,NaN,NaN
114,5,2,familiarity,0,bathroom,sun_apeeialkgkuxddgh.tif,152,1.5,0,0,0.7,972957.4556728,972983.8991351,52,NaN,NaN,972958.9578259,972983.9031869,972984.6015231,NaN,NaN
114,6,2,familiarity,0,bathroom,sun_ahaulkltgpkeeemi.tif,135,1.5,0,0,0.733333333333333,972984.6055613,972985.3488378,51,NaN,NaN,972986.1074556,972986.1133943,972986.8450638,NaN,NaN
114,7,2,familiarity,0,bathroom,labelme_sfxiulhjbhlyiyt.tif,121,1.5,0,0,1.65,972986.8489132,972986.85881,51,NaN,NaN,972988.3513223,972988.3572722,972990.0056089,NaN,NaN
114,8,2,familiarity,0,bathroom,sun_aunuadmjocsddsrl.tif,162,1.5,0,0,1.53333333333333,972990.0092923,972990.009457,51,NaN,NaN,972991.5110972,972991.5171715,972993.04885,NaN,NaN
114,9,2,familiarity,0,bathroom,sun_apjevzvycyhuqghb.tif,153,1.5,0,0,1.18333333333333,972993.0530057,972994.7031207,51,NaN,NaN,972994.5549739,972994.706891,972995.8885629,NaN,NaN
114,10,2,familiarity,0,bathroom,sun_ahijqszoswveeyji.tif,137,1.5,0,0,1,972995.8925237,972998.6376454,53,NaN,NaN,972997.3944089,972998.6411863,972999.6395357,NaN,NaN
114,11,2,familiarity,0,bathroom,sun_avhrdrntsqrjzccq.tif,165,1.5,0,0,1,972999.6441564,973000.131539,53,NaN,NaN,973001.1463527,973001.152529,973002.1508657,NaN,NaN
114,12,2,familiarity,0,bathroom,sun_agguqiubmwhqqunb.tif,131,1.5,0,0,0.966666666666667,973002.1548964,973002.4481922,53,NaN,NaN,973003.6566493,973003.6629311,973004.6279364,NaN,NaN
114,13,2,familiarity,0,bathroom,sun_amzlamotzwfkwjco.tif,147,1.5,0,0,1.98333333333333,973004.6318791,973004.6320574,53,NaN,NaN,973006.1335849,973006.1398749,973008.1215453,NaN,NaN
114,14,2,familiarity,0,bathroom,sun_abapwbhyhkfixyex.tif,125,1.5,0,0,1.1,973008.1256501,973014.8561252,53,NaN,NaN,973009.6274872,973014.8599593,973015.9582968,NaN,NaN
114,15,2,familiarity,0,bathroom,sun_apmqjbnwghzuhhzh.tif,156,1.5,0,0,1.51666666666667,973015.9622843,973015.9624626,53,NaN,NaN,973017.464188,973017.4703353,973018.98534,NaN,NaN
114,16,2,familiarity,0,bathroom,sun_aoybiabnpadelefl.tif,151,1.5,0,0,1.11666666666667,973018.9893421,973024.3499365,53,NaN,NaN,973020.4913331,973024.3550181,973025.4700209,NaN,NaN
114,17,2,familiarity,0,bathroom,sun_axyrejkiiaqiurjk.tif,169,1.5,0,0,1.33333333333333,973025.4744499,973025.4746051,53,NaN,NaN,973026.9762372,973026.9825606,973028.3142445,NaN,NaN
114,18,2,familiarity,0,bathroom,sun_ammzpemadwrjdfzl.tif,146,1.5,0,0,1.68333333333333,973028.3183474,973028.3185366,53,NaN,NaN,973029.8202781,973029.8262898,973031.5079598,NaN,NaN
114,19,2,familiarity,0,bathroom,sun_alkosphxlxwjwgjd.tif,143,1.5,0,0,1.98333333333333,973031.5121697,973048.4607282,54,NaN,NaN,973033.0140618,973048.4645079,973050.4461778,NaN,NaN
114,20,2,familiarity,0,bathroom,sun_aleqenyvunhactkl.tif,141,1.5,0,0,1.58333333333333,973050.449846,973050.4500179,54,NaN,NaN,973051.9516398,973051.9576301,973053.5393008,NaN,NaN
114,21,2,familiarity,0,bathroom,sun_apkxzenqapsujocq.tif,155,1.5,0,0,1.78333333333333,973053.5435845,973053.5437959,54,NaN,NaN,973055.0455033,973055.0515728,973056.8332439,NaN,NaN
114,22,2,familiarity,0,bathroom,sun_axldvoqbuvuggfmq.tif,167,1.5,0,0,0.883333333333333,973056.8378609,973056.8380287,54,NaN,NaN,973058.3394891,973058.345726,973059.2273977,NaN,NaN
114,23,2,familiarity,0,bathroom,sun_aljolscmmzydegqp.tif,142,1.5,0,0,1.91666666666667,973059.2315466,973059.2317734,54,NaN,NaN,973060.7333286,973060.7394829,973062.6544878,NaN,NaN
114,24,2,familiarity,0,bathroom,sun_aofnryafpsjimzsb.tif,150,1.5,0,0,0.7,973062.6584682,973062.658655,54,NaN,NaN,973064.1601768,973064.1662713,973064.8646103,NaN,NaN
114,25,2,familiarity,0,bathroom,sun_azqyogdvyhahyram.tif,170,1.5,0,0,1.01666666666667,973064.8687273,973064.86897,54,NaN,NaN,973066.37027,973066.3764428,973067.3914476,NaN,NaN
