sub_num,trial,block,task,is_practice,category,image,texture,duration,mask_dur,jitter,stim_time,time_of_resp,trial_response,mask_time,fix_time,jit_onset,trial_end,trial_accuracy,RT
141,1,0,complexity,1,bathroom,bathroom_practice3.tif,223,1.5,0,1.56666666666667,8019.08780125,8022.855374458,2,NaN,8022.861197542,8022.87962975,8024.439882042,NaN,NaN
141,2,0,complexity,1,bathroom,bathroom_practice5.tif,225,1.5,0,1.1,8024.460218333,8028.775052,6,NaN,8028.781061292,8028.79944,8029.892822708,NaN,NaN
141,3,0,complexity,1,bathroom,bathroom_practice2.tif,222,1.5,0,1.51666666666667,8029.90249825,8032.430941458,7,NaN,8032.436728542,8032.455141792,8033.965177042,NaN,NaN
141,4,0,complexity,1,bathroom,bathroom_practice4.tif,224,1.5,0,1.15,8033.975935917,8037.287205125,1,NaN,8037.292888667,8037.311178875,8038.454545875,NaN,NaN
141,5,0,complexity,1,bathroom,bathroom_practice1.tif,221,1.5,0,1.26666666666667,8038.464007333,8041.4955725,1,NaN,8041.500939417,8041.51943125,8042.779479875,NaN,NaN
141,1,1,complexity,0,bathroom,sun_abapwbhyhkfixyex.tif,124,1.5,0,0.75,8059.2205175,8062.855094125,2,NaN,8062.860799542,8062.879148375,8063.622485875,NaN,NaN
141,2,1,complexity,0,bathroom,sun_akiytfaagpdsphgz.tif,141,1.5,0,1.28333333333333,8063.626741083,8066.11522075,2,NaN,8066.14405625,8066.16773775,8067.4444565,NaN,NaN
141,3,1,complexity,0,bathroom,sun_axxbkopsgyouuebh.tif,168,1.5,0,1.76666666666667,8067.458921042,8071.543322458,2,NaN,8071.548927042,8071.567327292,8073.3273805,NaN,NaN
141,4,1,complexity,0,bathroom,sun_abjtwfukuwddzted.tif,125,1.5,0,1.28333333333333,8073.344945042,8076.074938417,2,NaN,8076.103443625,8076.126351875,8077.403068333,NaN,NaN
141,5,1,complexity,0,bathroom,sun_amzlamotzwfkwjco.tif,147,1.5,0,1.8,8077.422800167,8080.343428333,1,NaN,8080.348765583,8080.36700675,8082.1603925,NaN,NaN
141,6,1,complexity,0,bathroom,sun_aofnryafpsjimzsb.tif,150,1.5,0,0.716666666666667,8082.177670083,8085.238850375,6,NaN,8085.267835167,8085.29093375,8086.000938917,NaN,NaN
141,7,1,complexity,0,bathroom,sun_asfwthctfqerjvxr.tif,159,1.5,0,1,8086.005681083,8089.335602708,3,NaN,8089.341153333,8089.359511125,8090.352850125,NaN,NaN
141,8,1,complexity,0,bathroom,sun_apjevzvycyhuqghb.tif,153,1.5,0,1.21666666666667,8090.358314708,8095.135795417,6,NaN,8095.142516167,8095.161149792,8096.371191875,NaN,NaN
141,9,1,complexity,0,bathroom,sun_aapitsgbtktqubfy.tif,122,1.5,0,1.55,8096.386612167,8099.182909792,1,NaN,8099.18865575,8099.206911083,8100.750280333,NaN,NaN
141,10,1,complexity,0,bathroom,sun_aclfzgynxzxlbepz.tif,129,1.5,0,2,8100.771121375,8103.694980333,2,NaN,8103.700395458,8103.71857225,8105.711942125,NaN,NaN
141,11,1,complexity,0,bathroom,sun_aqrpegblszgcoujh.tif,158,1.5,0,0.716666666666667,8105.730961,8108.582850125,1,NaN,8108.603506833,8108.626490125,8109.33649625,NaN,NaN
141,12,1,complexity,0,bathroom,sun_awnqiikzaispgmwo.tif,166,1.5,0,0.933333333333333,8109.3421145,8112.026853708,1,NaN,8112.056116083,8112.078980917,8113.00565225,NaN,NaN
141,13,1,complexity,0,bathroom,sun_axyrejkiiaqiurjk.tif,169,1.5,0,1.58333333333333,8113.020524417,8117.295615208,2,NaN,8117.303023833,8117.321456042,8118.898176833,NaN,NaN
141,14,1,complexity,0,bathroom,sun_aspsyogrekjtfozg.tif,160,1.5,0,0.9,8118.916888583,8124.479172083,4,NaN,8124.484664625,8124.503226,8125.396565417,NaN,NaN
141,15,1,complexity,0,bathroom,sun_anryaplzeujmzfkd.tif,149,1.5,0,1.16666666666667,8125.400768042,8128.855253208,4,NaN,8128.860605833,8128.878993292,8130.039042333,NaN,NaN
141,16,1,complexity,0,bathroom,sun_ausgutylgojavyoq.tif,163,1.5,0,0.733333333333333,8130.049240375,8132.839593917,7,NaN,8132.845081208,8132.863498167,8133.590170083,NaN,NaN
141,17,1,complexity,0,bathroom,sun_ahijqszoswveeyji.tif,138,1.5,0,1.15,8133.595339625,8136.742610458,6,NaN,8136.751422917,8136.77106625,8137.9144465,NaN,NaN
141,18,1,complexity,0,bathroom,sun_acgyywnybuveqsro.tif,128,1.5,0,1.01666666666667,8137.923887083,8140.607212958,1,NaN,8140.612666667,8140.630991083,8141.64103375,NaN,NaN
141,19,1,complexity,0,bathroom,sun_aggnnqpdorgxpvce.tif,131,1.5,0,0.883333333333333,8141.648509792,8146.503477292,4,NaN,8146.508897667,8146.5274,8147.404072542,NaN,NaN
141,20,1,complexity,0,bathroom,sun_avhrdrntsqrjzccq.tif,165,1.5,0,1.65,8147.420843083,8151.999060667,6,NaN,8152.004820125,8152.023114708,8153.666481833,NaN,NaN
141,21,1,complexity,0,bathroom,sun_aghyqhbptboemmoq.tif,133,1.5,0,0.75,8153.683583958,8157.134991125,1,NaN,8157.159273542,8157.181392042,8157.92473025,NaN,NaN
141,22,1,complexity,0,bathroom,sun_acegryoqftbzowsg.tif,127,1.5,0,1.28333333333333,8157.936742208,8161.454476625,4,NaN,8161.460843542,8161.47919825,8162.755916875,NaN,NaN
141,23,1,complexity,0,bathroom,sun_ambriybtogmepttm.tif,146,1.5,0,1.25,8162.774250625,8166.16737575,1,NaN,8166.17285925,8166.191221583,8167.434599667,NaN,NaN
141,24,1,complexity,0,bathroom,sun_agrwbmhcpmfuwmsg.tif,134,1.5,0,0.833333333333333,8167.452228,8171.942704417,4,NaN,8171.94858275,8171.966910292,8172.793583458,NaN,NaN
141,25,1,complexity,0,bathroom,sun_acduarbnmmoglmiv.tif,126,1.5,0,1.05,8172.799226667,8176.047403875,5,NaN,8176.053144583,8176.071683042,8177.115048958,NaN,NaN
141,1,2,complexity,0,bathroom,sun_apkxzenqapsujocq.tif,155,1.5,0,0.95,8184.499094667,8188.831267,2,NaN,8188.836655375,8188.855208708,8189.798547292,NaN,NaN
141,2,2,complexity,0,bathroom,sun_afcoljnjfoxjtgja.tif,130,1.5,0,1.55,8189.8056335,8193.199329417,2,NaN,8193.204826083,8193.223215542,8194.766597708,NaN,NaN
141,3,2,complexity,0,bathroom,sun_agyqfjcfkdcydepw.tif,135,1.5,0,1.2,8194.785180833,8198.174766042,5,NaN,8198.180423417,8198.198798958,8199.392187917,NaN,NaN
141,4,2,complexity,0,bathroom,sun_apkruvsevgegsdwp.tif,154,1.5,0,1.86666666666667,8199.406641,8202.302437667,5,NaN,8202.3083245,8202.326646,8204.1866965,NaN,NaN
141,5,2,complexity,0,bathroom,sun_alotolagknyrgtsk.tif,145,1.5,0,1.66666666666667,8204.208046542,8208.335213708,6,NaN,8208.340708,8208.359084625,8210.01913975,NaN,NaN
141,6,2,complexity,0,bathroom,sun_axldvoqbuvuggfmq.tif,167,1.5,0,1.35,8210.036618792,8213.329970083,3,NaN,8213.359464208,8213.382133083,8214.725512542,NaN,NaN
141,7,2,complexity,0,bathroom,sun_aoybiabnpadelefl.tif,151,1.5,0,1.11666666666667,8214.742768375,8217.366950292,1,NaN,8217.372261583,8217.390577042,8218.50062575,NaN,NaN
141,8,2,complexity,0,bathroom,sun_apmqjbnwghzuhhzh.tif,156,1.5,0,0.95,8218.510179792,8221.511334417,2,NaN,8221.516814833,8221.535299958,8222.478640042,NaN,NaN
141,9,2,complexity,0,bathroom,sun_aleqenyvunhactkl.tif,142,1.5,0,1.03333333333333,8222.483776,8226.390618083,6,NaN,8226.396427167,8226.414913292,8227.441611458,NaN,NaN
141,10,2,complexity,0,bathroom,sun_aunuadmjocsddsrl.tif,162,1.5,0,1.01666666666667,8227.452132875,8232.254895792,6,NaN,8232.26105525,8232.27942,8233.28946575,NaN,NaN
141,11,2,complexity,0,bathroom,sun_agguqiubmwhqqunb.tif,132,1.5,0,1.81666666666667,8233.297908458,8237.1272755,4,NaN,8237.133470292,8237.151747417,8238.961795708,NaN,NaN
141,12,2,complexity,0,bathroom,sun_alkosphxlxwjwgjd.tif,144,1.5,0,1.8,8238.973445708,8242.086307583,4,NaN,8242.113700042,8242.137104375,8243.9304685,NaN,NaN
141,13,2,complexity,0,bathroom,sun_atstyziqcmkahyxk.tif,161,1.5,0,1.26666666666667,8243.942654042,8248.431323917,3,NaN,8248.436982167,8248.455161958,8249.715206125,NaN,NaN
141,14,2,complexity,0,bathroom,sun_azqyogdvyhahyram.tif,170,1.5,0,1.66666666666667,8249.731829208,8254.27824675,6,NaN,8254.284226083,8254.302580375,8255.962636875,NaN,NaN
141,15,2,complexity,0,bathroom,sun_aljolscmmzydegqp.tif,143,1.5,0,1.93333333333333,8255.973471,8259.394275958,1,NaN,8259.42308225,8259.445920292,8261.372634083,NaN,NaN
141,16,2,complexity,0,bathroom,sun_ahcvzmoyaycdoftf.tif,137,1.5,0,1.75,8261.390308208,8266.990380292,4,NaN,8266.996416,8267.014881792,8268.758266458,NaN,NaN
141,17,2,complexity,0,bathroom,sun_aavhrsfjbserjtht.tif,123,1.5,0,0.766666666666667,8268.773082667,8272.294151458,6,NaN,8272.301233875,8272.319809417,8273.079816583,NaN,NaN
141,18,2,complexity,0,bathroom,sun_ajlawzvmubibwbpy.tif,140,1.5,0,1.43333333333333,8273.085247958,8281.382454,1,NaN,8281.3888685,8281.407160417,8282.833867375,NaN,NaN
141,19,2,complexity,0,bathroom,sun_ahqjwnzgolcaoidx.tif,139,1.5,0,0.916666666666667,8282.852674458,8287.534896667,2,NaN,8287.541192125,8287.559567583,8288.469572667,NaN,NaN
141,20,2,complexity,0,bathroom,labelme_sfxiulhjbhlyiyt.tif,121,1.5,0,0.766666666666667,8288.474442042,8292.422122208,2,NaN,8292.428195375,8292.446559708,8293.20656575,NaN,NaN
141,21,2,complexity,0,bathroom,sun_apynckhmoftszqoq.tif,157,1.5,0,0.783333333333333,8293.211851292,8297.710549208,1,NaN,8297.71662175,8297.734964542,8298.511636958,NaN,NaN
141,22,2,complexity,0,bathroom,sun_anhioqovhscjqqwb.tif,148,1.5,0,1.31666666666667,8298.517167458,8304.559021292,5,NaN,8304.565048333,8304.583337792,8305.893379333,NaN,NaN
141,23,2,complexity,0,bathroom,sun_auzqhkafidnkrwmo.tif,164,1.5,0,1.1,8305.905402917,8312.59065175,2,NaN,8312.597381167,8312.615645208,8313.709023917,NaN,NaN
141,24,2,complexity,0,bathroom,sun_ahaulkltgpkeeemi.tif,136,1.5,0,1.26666666666667,8313.718002375,8317.758294417,7,NaN,8317.764813125,8317.783175875,8319.043208292,NaN,NaN
141,25,2,complexity,0,bathroom,sun_apeeialkgkuxddgh.tif,152,1.5,0,0.933333333333333,8319.062065083,8324.7188975,4,NaN,8324.725081458,8324.743386208,8325.670059083,NaN,NaN
