sub_num,trial,block,task,is_practice,category,image,texture,duration,mask_dur,jitter,stim_time,time_of_resp,trial_response,mask_time,fix_time,jit_onset,trial_end,trial_accuracy,RT
139,1,0,complexity,1,bathroom,bathroom_practice3.tif,223,1.5,0,1.56666666666667,1954.467901333,1957.197353041,1,NaN,1957.222299916,1957.245137583,1958.80519525,NaN,NaN
139,2,0,complexity,1,bathroom,bathroom_practice5.tif,225,1.5,0,1.1,1958.823978625,1961.241837583,5,NaN,1961.247730458,1961.266066,1962.359451,NaN,NaN
139,3,0,complexity,1,bathroom,bathroom_practice2.tif,222,1.5,0,1.51666666666667,1962.370727375,1964.769649708,7,NaN,1964.77561275,1964.793898125,1966.303944,NaN,NaN
139,4,0,complexity,1,bathroom,bathroom_practice4.tif,224,1.5,0,1.15,1966.321491166,1970.186046875,3,NaN,1970.191734416,1970.210085958,1971.35346,NaN,NaN
139,5,0,complexity,1,bathroom,bathroom_practice1.tif,221,1.5,0,1.26666666666667,1971.365074791,1975.097617875,1,NaN,1975.103726583,1975.122043958,1976.382096916,NaN,NaN
139,1,1,complexity,0,bathroom,sun_abapwbhyhkfixyex.tif,124,1.5,0,0.75,1980.887096958,1983.854975458,3,NaN,1983.884117083,1983.906461,1984.649799666,NaN,NaN
139,2,1,complexity,0,bathroom,sun_akiytfaagpdsphgz.tif,141,1.5,0,1.28333333333333,1984.655307541,1987.305093583,4,NaN,1987.329244583,1987.352474458,1988.629187625,NaN,NaN
139,3,1,complexity,0,bathroom,sun_axxbkopsgyouuebh.tif,168,1.5,0,1.76666666666667,1988.647850375,1991.13010125,2,NaN,1991.135723916,1991.154146041,1992.914191958,NaN,NaN
139,4,1,complexity,0,bathroom,sun_abjtwfukuwddzted.tif,125,1.5,0,1.28333333333333,1992.932353166,1995.985824625,2,NaN,1996.015498541,1996.0388055,1997.315507875,NaN,NaN
139,5,1,complexity,0,bathroom,sun_amzlamotzwfkwjco.tif,147,1.5,0,1.8,1997.333427208,2000.042129625,3,NaN,2000.047750333,2000.066047041,2001.859432333,NaN,NaN
139,6,1,complexity,0,bathroom,sun_aofnryafpsjimzsb.tif,150,1.5,0,0.716666666666667,2001.876893958,2004.960510416,6,NaN,2004.989695541,2005.013243291,2005.723248458,NaN,NaN
139,7,1,complexity,0,bathroom,sun_asfwthctfqerjvxr.tif,159,1.5,0,1,2005.728163458,2009.561808916,5,NaN,2009.567606583,2009.585986083,2010.579324083,NaN,NaN
139,8,1,complexity,0,bathroom,sun_apjevzvycyhuqghb.tif,153,1.5,0,1.21666666666667,2010.583911875,2013.171201291,7,NaN,2013.199935,2013.222709125,2014.432751375,NaN,NaN
139,9,1,complexity,0,bathroom,sun_aapitsgbtktqubfy.tif,122,1.5,0,1.55,2014.448945375,2017.401722291,2,NaN,2017.407659416,2017.425873375,2018.969243791,NaN,NaN
139,10,1,complexity,0,bathroom,sun_aclfzgynxzxlbepz.tif,129,1.5,0,2,2018.98613925,2021.722121416,3,NaN,2021.727694416,2021.746038958,2023.739413458,NaN,NaN
139,11,1,complexity,0,bathroom,sun_aqrpegblszgcoujh.tif,158,1.5,0,0.716666666666667,2023.756623916,2027.386144166,2,NaN,2027.391677666,2027.410409625,2028.120414916,NaN,NaN
139,12,1,complexity,0,bathroom,sun_awnqiikzaispgmwo.tif,166,1.5,0,0.933333333333333,2028.12475825,2030.6815895,2,NaN,2030.710210875,2030.733221833,2031.659894083,NaN,NaN
139,13,1,complexity,0,bathroom,sun_axyrejkiiaqiurjk.tif,169,1.5,0,1.58333333333333,2031.67647775,2036.274595125,4,NaN,2036.2800815,2036.298354791,2037.875055083,NaN,NaN
139,14,1,complexity,0,bathroom,sun_aspsyogrekjtfozg.tif,160,1.5,0,0.9,2037.892235541,2040.661444916,7,NaN,2040.690367666,2040.713730375,2041.607068083,NaN,NaN
139,15,1,complexity,0,bathroom,sun_anryaplzeujmzfkd.tif,149,1.5,0,1.16666666666667,2041.61211825,2045.057805625,6,NaN,2045.0634465,2045.081717625,2046.241763,NaN,NaN
139,16,1,complexity,0,bathroom,sun_ausgutylgojavyoq.tif,163,1.5,0,0.733333333333333,2046.2518005,2048.969452125,7,NaN,2048.975430375,2048.993782458,2049.720454708,NaN,NaN
139,17,1,complexity,0,bathroom,sun_ahijqszoswveeyji.tif,138,1.5,0,1.15,2049.724902,2052.718137875,6,NaN,2052.746445333,2052.769534041,2053.912911,NaN,NaN
139,18,1,complexity,0,bathroom,sun_acgyywnybuveqsro.tif,128,1.5,0,1.01666666666667,2053.922051083,2056.777818583,4,NaN,2056.783522666,2056.801844666,2057.811883375,NaN,NaN
139,19,1,complexity,0,bathroom,sun_aggnnqpdorgxpvce.tif,131,1.5,0,0.883333333333333,2057.819467833,2060.858048541,5,NaN,2060.863545625,2060.881816708,2061.758488125,NaN,NaN
139,20,1,complexity,0,bathroom,sun_avhrdrntsqrjzccq.tif,165,1.5,0,1.65,2061.762832083,2064.669725708,3,NaN,2064.695517625,2064.718968541,2066.362340708,NaN,NaN
139,21,1,complexity,0,bathroom,sun_aghyqhbptboemmoq.tif,133,1.5,0,0.75,2066.380042458,2069.422840833,4,NaN,2069.437301666,2069.458943083,2070.20228225,NaN,NaN
139,22,1,complexity,0,bathroom,sun_acegryoqftbzowsg.tif,127,1.5,0,1.28333333333333,2070.209401916,2074.682097958,3,NaN,2074.688070958,2074.706577625,2075.983296083,NaN,NaN
139,23,1,complexity,0,bathroom,sun_ambriybtogmepttm.tif,146,1.5,0,1.25,2075.996797458,2078.449788958,2,NaN,2078.455446375,2078.473830166,2079.717217625,NaN,NaN
139,24,1,complexity,0,bathroom,sun_agrwbmhcpmfuwmsg.tif,134,1.5,0,0.833333333333333,2079.733721791,2083.018444458,3,NaN,2083.023988208,2083.042280583,2083.868952875,NaN,NaN
139,25,1,complexity,0,bathroom,sun_acduarbnmmoglmiv.tif,126,1.5,0,1.05,2083.873355416,2086.541145666,7,NaN,2086.569722916,2086.593500666,2087.63688425,NaN,NaN
139,1,2,complexity,0,bathroom,sun_apkxzenqapsujocq.tif,155,1.5,0,0.95,2091.899837666,2096.074038541,3,NaN,2096.0796815,2096.097915875,2097.041254916,NaN,NaN
139,2,2,complexity,0,bathroom,sun_afcoljnjfoxjtgja.tif,130,1.5,0,1.55,2097.045643,2099.92530725,4,NaN,2099.953830916,2099.978442458,2101.521825833,NaN,NaN
139,3,2,complexity,0,bathroom,sun_agyqfjcfkdcydepw.tif,135,1.5,0,1.2,2101.535559291,2104.297485625,5,NaN,2104.303233875,2104.321530125,2105.514914458,NaN,NaN
139,4,2,complexity,0,bathroom,sun_apkruvsevgegsdwp.tif,154,1.5,0,1.86666666666667,2105.523796708,2108.89757525,3,NaN,2108.9033045,2108.921570541,2110.781619208,NaN,NaN
139,5,2,complexity,0,bathroom,sun_alotolagknyrgtsk.tif,145,1.5,0,1.66666666666667,2110.798894625,2114.354111291,5,NaN,2114.359784166,2114.378022083,2116.038056,NaN,NaN
139,6,2,complexity,0,bathroom,sun_axldvoqbuvuggfmq.tif,167,1.5,0,1.35,2116.056425791,2119.533381041,2,NaN,2119.562835125,2119.586080708,2120.929472958,NaN,NaN
139,7,2,complexity,0,bathroom,sun_aoybiabnpadelefl.tif,151,1.5,0,1.11666666666667,2120.947214833,2124.114173458,2,NaN,2124.119691333,2124.138051333,2125.248104541,NaN,NaN
139,8,2,complexity,0,bathroom,sun_apmqjbnwghzuhhzh.tif,156,1.5,0,0.95,2125.258330083,2127.641507208,1,NaN,2127.647308541,2127.665646375,2128.608985208,NaN,NaN
139,9,2,complexity,0,bathroom,sun_aleqenyvunhactkl.tif,142,1.5,0,1.03333333333333,2128.613518291,2131.394681458,3,NaN,2131.422687833,2131.444886666,2132.471602458,NaN,NaN
139,10,2,complexity,0,bathroom,sun_aunuadmjocsddsrl.tif,162,1.5,0,1.01666666666667,2132.480598666,2135.209836291,2,NaN,2135.215318208,2135.233568791,2136.243607916,NaN,NaN
139,11,2,complexity,0,bathroom,sun_agguqiubmwhqqunb.tif,132,1.5,0,1.81666666666667,2136.25235675,2139.762060083,3,NaN,2139.767571375,2139.785837041,2141.595891875,NaN,NaN
139,12,2,complexity,0,bathroom,sun_alkosphxlxwjwgjd.tif,144,1.5,0,1.8,2141.612316333,2144.142734125,5,NaN,2144.171318166,2144.196291916,2145.989670541,NaN,NaN
139,13,2,complexity,0,bathroom,sun_atstyziqcmkahyxk.tif,161,1.5,0,1.26666666666667,2146.00802175,2148.935201958,2,NaN,2148.964270583,2148.987058291,2150.247095041,NaN,NaN
139,14,2,complexity,0,bathroom,sun_azqyogdvyhahyram.tif,170,1.5,0,1.66666666666667,2150.263463,2153.0899335,2,NaN,2153.095494083,2153.113849666,2154.773890166,NaN,NaN
139,15,2,complexity,0,bathroom,sun_aljolscmmzydegqp.tif,143,1.5,0,1.93333333333333,2154.791559833,2157.299011875,7,NaN,2157.328473375,2157.351826791,2159.278548583,NaN,NaN
139,16,2,complexity,0,bathroom,sun_ahcvzmoyaycdoftf.tif,137,1.5,0,1.75,2159.292241791,2163.945592333,3,NaN,2163.951238541,2163.969559833,2165.712950541,NaN,NaN
139,17,2,complexity,0,bathroom,sun_aavhrsfjbserjtht.tif,123,1.5,0,0.766666666666667,2165.729794416,2168.219486666,5,NaN,2168.247341583,2168.267868916,2169.027902583,NaN,NaN
139,18,2,complexity,0,bathroom,sun_ajlawzvmubibwbpy.tif,140,1.5,0,1.43333333333333,2169.043350166,2171.968567041,4,NaN,2171.999121291,2172.022213041,2173.448900041,NaN,NaN
139,19,2,complexity,0,bathroom,sun_ahqjwnzgolcaoidx.tif,139,1.5,0,0.916666666666667,2173.458482708,2176.713898666,4,NaN,2176.719499791,2176.737935916,2177.647941375,NaN,NaN
139,20,2,complexity,0,bathroom,labelme_sfxiulhjbhlyiyt.tif,121,1.5,0,0.766666666666667,2177.658998708,2180.92925825,5,NaN,2180.935049958,2180.953350708,2181.713355458,NaN,NaN
139,21,2,complexity,0,bathroom,sun_apynckhmoftszqoq.tif,157,1.5,0,0.783333333333333,2181.717718666,2185.993095541,5,NaN,2185.999018166,2186.017220166,2186.793892666,NaN,NaN
139,22,2,complexity,0,bathroom,sun_anhioqovhscjqqwb.tif,148,1.5,0,1.31666666666667,2186.798227208,2190.849116958,4,NaN,2190.854999083,2190.873377458,2192.18342325,NaN,NaN
139,23,2,complexity,0,bathroom,sun_auzqhkafidnkrwmo.tif,164,1.5,0,1.1,2192.202377875,2195.441859666,6,NaN,2195.447567583,2195.465770958,2196.559145791,NaN,NaN
139,24,2,complexity,0,bathroom,sun_ahaulkltgpkeeemi.tif,136,1.5,0,1.26666666666667,2196.566979875,2199.858051083,2,NaN,2199.863640625,2199.881991958,2201.142048916,NaN,NaN
139,25,2,complexity,0,bathroom,sun_apeeialkgkuxddgh.tif,152,1.5,0,0.933333333333333,2201.159544833,2203.76935375,5,NaN,2203.775103833,2203.793788708,2204.720460333,NaN,NaN
