sub_num,trial,block,task,is_practice,category,image,texture,duration,mask_dur,jitter,stim_time,time_of_resp,trial_response,mask_time,fix_time,jit_onset,trial_end,trial_accuracy,RT
120,6,0,aesthetic,1,kitchen,kitchen_practice2.tif,227,1.5,0,1.08333333333333,3801.646708333,3804.660656333,7,NaN,3804.67540425,3804.695047791,3805.771797958,NaN,NaN
120,7,0,aesthetic,1,kitchen,kitchen_practice1.tif,226,1.5,0,1.06666666666667,3805.780685458,3808.5227735,7,NaN,3808.528326916,3808.54650925,3809.606566333,NaN,NaN
120,8,0,aesthetic,1,kitchen,kitchen_practice4.tif,229,1.5,0,1.11666666666667,3809.616499833,3811.930694041,7,NaN,3811.936234125,3811.954607666,3813.064661958,NaN,NaN
120,9,0,aesthetic,1,kitchen,kitchen_practice3.tif,228,1.5,0,0.95,3813.072310083,3816.168090041,6,NaN,3816.179075,3816.197507875,3817.140852125,NaN,NaN
120,10,0,aesthetic,1,kitchen,kitchen_practice5.tif,230,1.5,0,0.9,3817.145307541,3822.241907916,3,NaN,3822.24790825,3822.266202875,3823.1595465,NaN,NaN
120,1,1,aesthetic,0,kitchen,sun_ahljzhgcdpomplvg.tif,201,1.5,0,1.48333333333333,3837.206361416,3840.27418875,4,NaN,3840.296441708,3840.315021458,3841.791775625,NaN,NaN
120,2,1,aesthetic,0,kitchen,sun_afuyedyxivkhecmu.tif,195,1.5,0,1.46666666666667,3841.810570375,3844.354412708,6,NaN,3844.3600575,3844.378654625,3845.838732541,NaN,NaN
120,3,1,aesthetic,0,kitchen,sun_adgqasybjyktddhj.tif,188,1.5,0,0.766666666666667,3845.857020791,3851.41000525,3,NaN,3851.415834083,3851.434185166,3852.194192583,NaN,NaN
120,4,1,aesthetic,0,kitchen,sun_ahpczsiumwwocjkv.tif,202,1.5,0,1.16666666666667,3852.198678375,3855.186428291,3,NaN,3855.21398575,3855.235628,3856.395712833,NaN,NaN
120,5,1,aesthetic,0,kitchen,sun_agorklincwxrdtga.tif,197,1.5,0,1.6,3856.406903458,3861.154214666,6,NaN,3861.159945791,3861.178352333,3862.771743958,NaN,NaN
120,6,1,aesthetic,0,kitchen,sun_auaiucuqpdausiva.tif,212,1.5,0,1.68333333333333,3862.789468041,3866.897758458,5,NaN,3866.903789875,3866.921987125,3868.59873875,NaN,NaN
120,7,1,aesthetic,0,kitchen,sun_aapllqyqlykszopd.tif,176,1.5,0,1.5,3868.61614175,3872.690761041,5,NaN,3872.696284375,3872.71458925,3874.208022541,NaN,NaN
120,8,1,aesthetic,0,kitchen,sun_awcpdzzznmweyyhv.tif,216,1.5,0,0.833333333333333,3874.225422875,3877.906539666,6,NaN,3877.912068291,3877.930286541,3878.756961,NaN,NaN
120,9,1,aesthetic,0,kitchen,sun_aadbddgrdsjugojn.tif,174,1.5,0,0.9,3878.761843458,3884.817610708,5,NaN,3884.82358825,3884.84188925,3885.73523025,NaN,NaN
120,10,1,aesthetic,0,kitchen,sun_aegoxogugdkwpmpj.tif,190,1.5,0,0.933333333333333,3885.743024208,3890.730457208,5,NaN,3890.735937333,3890.754268666,3891.680942916,NaN,NaN
120,11,1,aesthetic,0,kitchen,sun_abrcnpqqhmjwekyf.tif,183,1.5,0,0.9,3891.685251958,3894.811923375,3,NaN,3894.825722291,3894.845131958,3895.738474208,NaN,NaN
120,12,1,aesthetic,0,kitchen,sun_avszsnwsbuqfgzbn.tif,215,1.5,0,0.85,3895.74294125,3903.2255615,5,NaN,3903.231758166,3903.250149625,3904.093492958,NaN,NaN
120,13,1,aesthetic,0,kitchen,labelme_kxvouciolcpqplr.tif,172,1.5,0,1.83333333333333,3904.098067291,3909.913563916,2,NaN,3909.919570458,3909.938083333,3911.764853083,NaN,NaN
120,14,1,aesthetic,0,kitchen,sun_agzzivivdpnawacl.tif,199,1.5,0,0.733333333333333,3911.782731583,3918.801706625,3,NaN,3918.807525041,3918.82590775,3919.552585666,NaN,NaN
120,15,1,aesthetic,0,kitchen,sun_aunzlwrbjumxhwdj.tif,213,1.5,0,1.63333333333333,3919.5568855,3923.121677291,2,NaN,3923.127805166,3923.1460945,3924.7728405,NaN,NaN
120,16,1,aesthetic,0,kitchen,sun_aymvwlarqodbwuoc.tif,218,1.5,0,0.766666666666667,3924.787201125,3927.437230916,6,NaN,3927.46687925,3927.490729625,3928.250809041,NaN,NaN
120,17,1,aesthetic,0,kitchen,sun_abpwyqmlzafvklqo.tif,182,1.5,0,1.71666666666667,3928.265238,3931.913720583,3,NaN,3931.919386916,3931.937765875,3933.647863083,NaN,NaN
120,18,1,aesthetic,0,kitchen,sun_abdxkyyxwfskuaqb.tif,180,1.5,0,1.51666666666667,3933.66609075,3936.280904958,7,NaN,3936.310376791,3936.333047583,3937.843114041,NaN,NaN
120,19,1,aesthetic,0,kitchen,sun_aaxxjlsuzvqlgylf.tif,178,1.5,0,1.25,3937.859040625,3941.057768708,6,NaN,3941.063728958,3941.0822185,3942.325613416,NaN,NaN
120,20,1,aesthetic,0,kitchen,sun_azmutvzbxypaceni.tif,220,1.5,0,1.41666666666667,3942.346876,3946.298257833,5,NaN,3946.303780208,3946.322035333,3947.73212375,NaN,NaN
120,21,1,aesthetic,0,kitchen,sun_axyyrmzcupyhlivc.tif,217,1.5,0,1.1,3947.748912458,3950.713378791,6,NaN,3950.71942125,3950.73779725,3951.831211208,NaN,NaN
120,22,1,aesthetic,0,kitchen,sun_ajkqhtgcbgpcwrwn.tif,207,1.5,0,0.95,3951.840816208,3961.929347166,5,NaN,3961.93585825,3961.954607791,3962.897950791,NaN,NaN
120,23,1,aesthetic,0,kitchen,sun_aamedkxepzlwuxes.tif,175,1.5,0,1.45,3962.902407208,3969.56214175,6,NaN,3969.567632083,3969.58601,3971.029412875,NaN,NaN
120,24,1,aesthetic,0,kitchen,sun_akcjzhbbjlbogpdi.tif,209,1.5,0,0.883333333333333,3971.044744041,3974.025806208,6,NaN,3974.031520416,3974.049797666,3974.926474291,NaN,NaN
120,25,1,aesthetic,0,kitchen,sun_ahywdevtimnqcsln.tif,204,1.5,0,1.23333333333333,3974.930720291,3978.018075833,4,NaN,3978.025125583,3978.043588416,3979.270344583,NaN,NaN
120,1,2,aesthetic,0,kitchen,sun_aeqdocilnnpuvuhx.tif,193,1.5,0,1.78333333333333,4029.558597375,4032.243597041,6,NaN,4032.265575916,4032.287493875,4034.064241083,NaN,NaN
120,2,2,aesthetic,0,kitchen,sun_aggjlwcdjsjcaemh.tif,196,1.5,0,1.8,4034.081196583,4039.313944041,4,NaN,4039.320175708,4039.338828375,4041.132254833,NaN,NaN
120,3,2,aesthetic,0,kitchen,sun_aixorpehvfykdynp.tif,205,1.5,0,0.8,4041.146802541,4045.194108625,3,NaN,4045.199918,4045.21841375,4046.011759291,NaN,NaN
120,4,2,aesthetic,0,kitchen,sun_acfmftudsenhrfhy.tif,184,1.5,0,1.01666666666667,4046.025862375,4051.569625166,5,NaN,4051.575174791,4051.593443291,4052.603507875,NaN,NaN
120,5,2,aesthetic,0,kitchen,sun_acxkpeoqbwcxfvip.tif,187,1.5,0,0.85,4052.611791458,4056.529016375,4,NaN,4056.534931208,4056.553251,4057.396597125,NaN,NaN
120,6,2,aesthetic,0,kitchen,sun_admlmbcdswaszruo.tif,189,1.5,0,1.83333333333333,4057.409211041,4065.321253208,4,NaN,4065.326910125,4065.345287416,4067.17205475,NaN,NaN
120,7,2,aesthetic,0,kitchen,sun_aexklacwqwezaorf.tif,194,1.5,0,1.11666666666667,4067.186889125,4070.553290291,5,NaN,4070.564648583,4070.584008375,4071.694108,NaN,NaN
120,8,2,aesthetic,0,kitchen,sun_agubuxuukhzyzpdp.tif,198,1.5,0,1.88333333333333,4071.704489791,4075.08104,6,NaN,4075.086624375,4075.104884041,4076.98161125,NaN,NaN
120,9,2,aesthetic,0,kitchen,sun_aypmqwcualkenuoe.tif,219,1.5,0,0.916666666666667,4077.000994125,4082.33712025,6,NaN,4082.342738,4082.360979875,4083.270987,NaN,NaN
120,10,2,aesthetic,0,kitchen,labelme_rykdqxenmhulbdn.tif,173,1.5,0,1.05,4083.275296541,4087.049869833,5,NaN,4087.055412166,4087.073846375,4088.117258041,NaN,NaN
120,11,2,aesthetic,0,kitchen,sun_aqeaevwwwjoqhzvl.tif,211,1.5,0,1.35,4088.128518583,4094.017062083,6,NaN,4094.022803916,4094.041093541,4095.384510833,NaN,NaN
120,12,2,aesthetic,0,kitchen,sun_ahspylgoovwmwvgk.tif,203,1.5,0,1.01666666666667,4095.40432325,4108.313767666,3,NaN,4108.3192155,4108.337542708,4109.347622958,NaN,NaN
120,13,2,aesthetic,0,kitchen,sun_aehawpgmrlhlvcow.tif,191,1.5,0,2,4109.355014583,4113.649135791,6,NaN,4113.655337416,4113.6739275,4115.667325583,NaN,NaN
120,14,2,aesthetic,0,kitchen,sun_ahdycvpopffkzzsu.tif,200,1.5,0,0.9,4115.685880916,4120.345516416,3,NaN,4120.351348958,4120.369825166,4121.26317025,NaN,NaN
120,15,2,aesthetic,0,kitchen,sun_akchetnepxlcxhsu.tif,208,1.5,0,1.15,4121.275496416,4135.096947333,5,NaN,4135.102754875,4135.120973958,4136.264390291,NaN,NaN
120,16,2,aesthetic,0,kitchen,sun_abdenxonkemggwsq.tif,179,1.5,0,1.23333333333333,4136.272899,4138.929597416,7,NaN,4138.935342791,4138.953642916,4140.180391083,NaN,NaN
120,17,2,aesthetic,0,kitchen,sun_ajcbwwvdlsvjyzje.tif,206,1.5,0,1.03333333333333,4140.198141291,4143.257477,3,NaN,4143.262966041,4143.281243791,4144.307990666,NaN,NaN
120,18,2,aesthetic,0,kitchen,sun_acgtpgfybqjmzeyw.tif,185,1.5,0,0.783333333333333,4144.316388583,4146.769402083,2,NaN,4146.77495,4146.793598541,4147.570276458,NaN,NaN
120,19,2,aesthetic,0,kitchen,sun_acwjdupvyjsugpay.tif,186,1.5,0,0.766666666666667,4147.574536833,4150.396070541,2,NaN,4150.421435166,4150.444986291,4151.204995666,NaN,NaN
120,20,2,aesthetic,0,kitchen,sun_auticobqsbwgoppi.tif,214,1.5,0,1.18333333333333,4151.210192166,4154.857525791,2,NaN,4154.863133625,4154.88173875,4156.058455416,NaN,NaN
120,21,2,aesthetic,0,kitchen,sun_aenotlpyftoioydp.tif,192,1.5,0,0.7,4156.069505625,4158.793498166,2,NaN,4158.798984583,4158.817363166,4159.510706791,NaN,NaN
120,22,2,aesthetic,0,kitchen,labelme_brsyyvweiuaazfr.tif,171,1.5,0,0.7,4159.525356791,4168.209440291,4,NaN,4168.2148985,4168.233201916,4168.926547083,NaN,NaN
120,23,2,aesthetic,0,kitchen,sun_abftihopvusyfakt.tif,181,1.5,0,1.55,4168.930810791,4173.048849791,3,NaN,4173.054649583,4173.07291275,4174.6163485,NaN,NaN
120,24,2,aesthetic,0,kitchen,sun_aarfiyshqohlwkmo.tif,177,1.5,0,1.16666666666667,4174.635230875,4178.961507583,4,NaN,4178.967032541,4178.985419125,4180.14545375,NaN,NaN
120,25,2,aesthetic,0,kitchen,sun_amjjdeyrggfqgmom.tif,210,1.5,0,1.68333333333333,4180.154240875,4183.977788666,2,NaN,4183.983412208,4184.001611416,4185.678357375,NaN,NaN
