sub_num,trial,block,task,is_practice,category,image,texture,duration,mask_dur,jitter,stim_time,time_of_resp,trial_response,mask_time,fix_time,jit_onset,trial_end,trial_accuracy,RT
122,1,0,usability,1,bathroom,bathroom_practice3.tif,223,1.5,0,0.983333333333333,2258.41464725,2262.09528875,6,NaN,2262.100739375,2262.119035291,2263.095707,NaN,NaN
122,2,0,usability,1,bathroom,bathroom_practice4.tif,224,1.5,0,1.78333333333333,2263.100355541,2266.871403083,7,NaN,2266.876828625,2266.895118333,2268.671836666,NaN,NaN
122,3,0,usability,1,bathroom,bathroom_practice5.tif,225,1.5,0,1.78333333333333,2268.690381875,2273.591180041,4,NaN,2273.597373041,2273.615741458,2275.392456375,NaN,NaN
122,4,0,usability,1,bathroom,bathroom_practice2.tif,222,1.5,0,1.26666666666667,2275.407430041,2280.119408541,3,NaN,2280.124772458,2280.143029208,2281.403078375,NaN,NaN
122,5,0,usability,1,bathroom,bathroom_practice1.tif,221,1.5,0,1.05,2281.422418166,2285.22305825,4,NaN,2285.228621625,2285.247006291,2286.290383166,NaN,NaN
122,1,1,usability,0,bathroom,sun_apynckhmoftszqoq.tif,157,1.5,0,1.01666666666667,2291.245798125,2297.174760166,3,NaN,2297.180516166,2297.199011791,2298.209043916,NaN,NaN
122,2,1,usability,0,bathroom,sun_avhrdrntsqrjzccq.tif,165,1.5,0,1.61666666666667,2298.218789833,2302.639470125,5,NaN,2302.644759041,2302.663129416,2304.2731655,NaN,NaN
122,3,1,usability,0,bathroom,sun_apkxzenqapsujocq.tif,155,1.5,0,1.16666666666667,2304.293671291,2309.34308725,2,NaN,2309.34849875,2309.366878333,2310.526911625,NaN,NaN
122,4,1,usability,0,bathroom,sun_aoybiabnpadelefl.tif,151,1.5,0,0.983333333333333,2310.53835125,2313.766885,7,NaN,2313.772419875,2313.790807083,2314.767479041,NaN,NaN
122,5,1,usability,0,bathroom,sun_aggnnqpdorgxpvce.tif,131,1.5,0,0.783333333333333,2314.773269625,2318.647204083,5,NaN,2318.652857916,2318.671199875,2319.447871583,NaN,NaN
122,6,1,usability,0,bathroom,sun_ambriybtogmepttm.tif,146,1.5,0,0.816666666666667,2319.45234475,2322.395409,7,NaN,2322.424693708,2322.448203791,2323.25820875,NaN,NaN
122,7,1,usability,0,bathroom,sun_agrwbmhcpmfuwmsg.tif,134,1.5,0,1.1,2323.262872291,2326.814856666,6,NaN,2326.820359041,2326.838657791,2327.932022375,NaN,NaN
122,8,1,usability,0,bathroom,sun_amzlamotzwfkwjco.tif,147,1.5,0,1.65,2327.940015583,2331.3032785,6,NaN,2331.308593583,2331.326881791,2332.97026125,NaN,NaN
122,9,1,usability,0,bathroom,sun_afcoljnjfoxjtgja.tif,130,1.5,0,1.13333333333333,2332.987946791,2338.383166708,5,NaN,2338.388430541,2338.406650666,2339.53335625,NaN,NaN
122,10,1,usability,0,bathroom,sun_aofnryafpsjimzsb.tif,150,1.5,0,0.766666666666667,2339.542916833,2345.014976916,5,NaN,2345.020468,2345.038771791,2345.798776125,NaN,NaN
122,11,1,usability,0,bathroom,sun_apeeialkgkuxddgh.tif,152,1.5,0,1.25,2345.803067125,2351.295047291,5,NaN,2351.3005105,2351.318790458,2352.562171791,NaN,NaN
122,12,1,usability,0,bathroom,sun_aavhrsfjbserjtht.tif,123,1.5,0,1.5,2352.580757916,2356.646491541,3,NaN,2356.652396041,2356.67067875,2358.164045708,NaN,NaN
122,13,1,usability,0,bathroom,labelme_sfxiulhjbhlyiyt.tif,121,1.5,0,1.56666666666667,2358.174327833,2361.8791645,2,NaN,2361.884388791,2361.902793958,2363.462848291,NaN,NaN
122,14,1,usability,0,bathroom,sun_alkosphxlxwjwgjd.tif,144,1.5,0,1.45,2363.478403625,2368.438433958,4,NaN,2368.444321166,2368.462765541,2369.906155583,NaN,NaN
122,15,1,usability,0,bathroom,sun_atstyziqcmkahyxk.tif,161,1.5,0,1.53333333333333,2369.925034541,2374.079288,5,NaN,2374.084583916,2374.102954333,2375.629666041,NaN,NaN
122,16,1,usability,0,bathroom,sun_aleqenyvunhactkl.tif,142,1.5,0,0.8,2375.647691875,2382.206667708,1,NaN,2382.212393625,2382.230809708,2383.024147625,NaN,NaN
122,17,1,usability,0,bathroom,sun_ahaulkltgpkeeemi.tif,136,1.5,0,0.933333333333333,2383.028404916,2387.759214041,6,NaN,2387.7644885,2387.78294375,2388.709615916,NaN,NaN
122,18,1,usability,0,bathroom,sun_aljolscmmzydegqp.tif,143,1.5,0,1.75,2388.714195458,2391.739968791,7,NaN,2391.765222625,2391.78832475,2393.531694541,NaN,NaN
122,19,1,usability,0,bathroom,sun_ahijqszoswveeyji.tif,138,1.5,0,1.48333333333333,2393.546758541,2398.48721075,5,NaN,2398.4925665,2398.510873375,2399.987577958,NaN,NaN
122,20,1,usability,0,bathroom,sun_aclfzgynxzxlbepz.tif,129,1.5,0,1.03333333333333,2400.006044083,2403.358760166,7,NaN,2403.364238208,2403.382618,2404.409322708,NaN,NaN
122,21,1,usability,0,bathroom,sun_alotolagknyrgtsk.tif,145,1.5,0,1.23333333333333,2404.41861,2407.207328375,1,NaN,2407.212576583,2407.230744125,2408.457461041,NaN,NaN
122,22,1,usability,0,bathroom,sun_axxbkopsgyouuebh.tif,168,1.5,0,1.28333333333333,2408.475876666,2412.702979083,5,NaN,2412.708291041,2412.726605,2414.003326041,NaN,NaN
122,23,1,usability,0,bathroom,sun_ahcvzmoyaycdoftf.tif,137,1.5,0,1.66666666666667,2414.021104458,2417.342343458,7,NaN,2417.348241625,2417.366533,2419.026594583,NaN,NaN
122,24,1,usability,0,bathroom,sun_aghyqhbptboemmoq.tif,133,1.5,0,1.26666666666667,2419.044411041,2423.070597666,6,NaN,2423.076465375,2423.094811958,2424.354849708,NaN,NaN
122,25,1,usability,0,bathroom,sun_awnqiikzaispgmwo.tif,166,1.5,0,1.4,2424.375137583,2427.98255175,7,NaN,2427.988109541,2428.006252666,2429.399619541,NaN,NaN
122,1,2,usability,0,bathroom,sun_abjtwfukuwddzted.tif,125,1.5,0,1.66666666666667,2435.083291583,2439.150206875,5,NaN,2439.156008583,2439.174290791,2440.834339,NaN,NaN
122,2,2,usability,0,bathroom,sun_aqrpegblszgcoujh.tif,158,1.5,0,1.85,2440.853950125,2444.258746625,7,NaN,2444.287019,2444.309990125,2446.153342416,NaN,NaN
122,3,2,usability,0,bathroom,sun_acgyywnybuveqsro.tif,128,1.5,0,1.65,2446.164793125,2449.161238708,7,NaN,2449.186686958,2449.208034458,2450.851421375,NaN,NaN
122,4,2,usability,0,bathroom,sun_azqyogdvyhahyram.tif,170,1.5,0,0.95,2450.870165166,2454.303112291,4,NaN,2454.310546416,2454.329098041,2455.272436291,NaN,NaN
122,5,2,usability,0,bathroom,sun_apmqjbnwghzuhhzh.tif,156,1.5,0,0.783333333333333,2455.287429458,2458.355129666,3,NaN,2458.38401875,2458.405262583,2459.181933875,NaN,NaN
122,6,2,usability,0,bathroom,sun_ajlawzvmubibwbpy.tif,140,1.5,0,1.13333333333333,2459.186640791,2465.382917416,5,NaN,2465.388438083,2465.406726916,2466.533425625,NaN,NaN
122,7,2,usability,0,bathroom,sun_akiytfaagpdsphgz.tif,141,1.5,0,1.63333333333333,2466.541639291,2470.742645291,6,NaN,2470.748068416,2470.766416625,2472.393131125,NaN,NaN
122,8,2,usability,0,bathroom,sun_acduarbnmmoglmiv.tif,126,1.5,0,1.2,2472.410563,2475.918176833,1,NaN,2475.946704958,2475.969595333,2477.162949291,NaN,NaN
122,9,2,usability,0,bathroom,sun_ahqjwnzgolcaoidx.tif,139,1.5,0,1.71666666666667,2477.172966083,2480.590357416,3,NaN,2480.596147,2480.614550083,2482.324582958,NaN,NaN
122,10,2,usability,0,bathroom,sun_asfwthctfqerjvxr.tif,159,1.5,0,0.9,2482.342775666,2487.214896583,2,NaN,2487.22043525,2487.239007625,2488.13234525,NaN,NaN
122,11,2,usability,0,bathroom,sun_apjevzvycyhuqghb.tif,153,1.5,0,0.9,2488.136775666,2491.462838166,2,NaN,2491.468342125,2491.486758875,2492.380097666,NaN,NaN
122,12,2,usability,0,bathroom,sun_agguqiubmwhqqunb.tif,132,1.5,0,0.766666666666667,2492.384567916,2496.790572208,5,NaN,2496.795879166,2496.81411,2497.574114875,NaN,NaN
122,13,2,usability,0,bathroom,sun_acegryoqftbzowsg.tif,127,1.5,0,0.966666666666667,2497.578464291,2506.278743958,5,NaN,2506.284102416,2506.302537,2507.262542125,NaN,NaN
122,14,2,usability,0,bathroom,sun_apkruvsevgegsdwp.tif,154,1.5,0,0.7,2507.266930541,2511.1429825,2,NaN,2511.149519416,2511.167903458,2511.86124125,NaN,NaN
122,15,2,usability,0,bathroom,sun_aunuadmjocsddsrl.tif,162,1.5,0,1.1,2511.865794541,2515.015230375,1,NaN,2515.021926625,2515.040246583,2516.133623958,NaN,NaN
122,16,2,usability,0,bathroom,sun_axyrejkiiaqiurjk.tif,169,1.5,0,1.33333333333333,2516.142821666,2520.197968958,5,NaN,2520.203677125,2520.222334583,2521.549043583,NaN,NaN
122,17,2,usability,0,bathroom,sun_ausgutylgojavyoq.tif,163,1.5,0,1.15,2521.566539666,2524.998618958,2,NaN,2525.004038666,2525.0222525,2526.165617875,NaN,NaN
122,18,2,usability,0,bathroom,sun_aapitsgbtktqubfy.tif,122,1.5,0,1.28333333333333,2526.17537925,2531.758128333,6,NaN,2531.763918125,2531.782205208,2533.058908583,NaN,NaN
122,19,2,usability,0,bathroom,sun_agyqfjcfkdcydepw.tif,135,1.5,0,1.35,2533.076717833,2539.566041,6,NaN,2539.571903333,2539.590272208,2540.933639375,NaN,NaN
122,20,2,usability,0,bathroom,sun_abapwbhyhkfixyex.tif,124,1.5,0,1.43333333333333,2540.948593208,2544.789918666,2,NaN,2544.795955916,2544.814460833,2546.241169041,NaN,NaN
122,21,2,usability,0,bathroom,sun_auzqhkafidnkrwmo.tif,164,1.5,0,0.916666666666667,2546.2587175,2550.542259541,5,NaN,2550.547984583,2550.566346208,2551.476349833,NaN,NaN
122,22,2,usability,0,bathroom,sun_anryaplzeujmzfkd.tif,149,1.5,0,0.766666666666667,2551.486917708,2555.238072958,4,NaN,2555.243741125,2555.262242583,2556.022246375,NaN,NaN
122,23,2,usability,0,bathroom,sun_anhioqovhscjqqwb.tif,148,1.5,0,0.866666666666667,2556.026825166,2559.02599875,6,NaN,2559.0515715,2559.071794083,2559.931798791,NaN,NaN
122,24,2,usability,0,bathroom,sun_axldvoqbuvuggfmq.tif,167,1.5,0,0.833333333333333,2559.936419166,2562.752137708,6,NaN,2562.780319541,2562.803914208,2563.630585333,NaN,NaN
122,25,2,usability,0,bathroom,sun_aspsyogrekjtfozg.tif,160,1.5,0,0.75,2563.635408583,2567.630390958,5,NaN,2567.635978791,2567.654417583,2568.397755375,NaN,NaN
