sub_num,trial,block,task,is_practice,category,image,texture,duration,mask_dur,jitter,stim_time,time_of_resp,trial_response,mask_time,fix_time,jit_onset,trial_end,trial_accuracy,RT
115,6,0,usability,1,kitchen,kitchen_practice2.tif,227,1.5,0,1.13333333333333,13757.471767209,13761.36113,4,NaN,13761.366952667,13761.385449667,13762.512163875,NaN,NaN
115,7,0,usability,1,kitchen,kitchen_practice3.tif,228,1.5,0,0.933333333333333,13762.522664959,13765.577239875,4,NaN,13765.583034042,13765.601421792,13766.528093167,NaN,NaN
115,8,0,usability,1,kitchen,kitchen_practice1.tif,226,1.5,0,1.48333333333333,13766.532416792,13769.737115542,6,NaN,13769.743954,13769.762474042,13771.239192459,NaN,NaN
115,9,0,usability,1,kitchen,kitchen_practice4.tif,229,1.5,0,1.33333333333333,13771.258627084,13774.209835584,6,NaN,13774.215307084,13774.233681209,13775.560398542,NaN,NaN
115,10,0,usability,1,kitchen,kitchen_practice5.tif,230,1.5,0,1.3,13775.579738125,13778.521119834,5,NaN,13778.527100417,13778.545513167,13779.838893459,NaN,NaN
115,1,1,usability,0,kitchen,sun_amjjdeyrggfqgmom.tif,210,1.5,0,1.91666666666667,13783.894453292,13786.962357792,5,NaN,13786.971099625,13786.989693875,13788.899746625,NaN,NaN
115,2,1,usability,0,kitchen,sun_aymvwlarqodbwuoc.tif,218,1.5,0,0.85,13788.919750709,13792.634162792,6,NaN,13792.64048725,13792.659605667,13793.502943875,NaN,NaN
115,3,1,usability,0,kitchen,labelme_rykdqxenmhulbdn.tif,173,1.5,0,0.7,13793.507604334,13796.522848834,5,NaN,13796.55122925,13796.576131375,13797.269468417,NaN,NaN
115,4,1,usability,0,kitchen,sun_adgqasybjyktddhj.tif,188,1.5,0,1.6,13797.274013667,13800.553985042,4,NaN,13800.559456417,13800.577698667,13802.171076084,NaN,NaN
115,5,1,usability,0,kitchen,sun_aehawpgmrlhlvcow.tif,191,1.5,0,1.13333333333333,13802.191313042,13804.694548292,5,NaN,13804.721855875,13804.74527475,13805.871977667,NaN,NaN
115,6,1,usability,0,kitchen,sun_aadbddgrdsjugojn.tif,174,1.5,0,0.716666666666667,13805.888378334,13808.649355875,4,NaN,13808.654870625,13808.673120917,13809.383124959,NaN,NaN
115,7,1,usability,0,kitchen,sun_acwjdupvyjsugpay.tif,186,1.5,0,1.6,13809.387530959,13812.122504167,4,NaN,13812.150208709,13812.173410792,13813.766801792,NaN,NaN
115,8,1,usability,0,kitchen,sun_aixorpehvfykdynp.tif,205,1.5,0,1.68333333333333,13813.783407625,13816.414500459,3,NaN,13816.4437315,13816.467868625,13818.144569959,NaN,NaN
115,9,1,usability,0,kitchen,sun_auaiucuqpdausiva.tif,212,1.5,0,1.41666666666667,13818.1640055,13820.869198875,5,NaN,13820.893148625,13820.916962667,13822.327010667,NaN,NaN
115,10,1,usability,0,kitchen,sun_aamedkxepzlwuxes.tif,175,1.5,0,1,13822.347157667,13825.241400792,3,NaN,13825.246962917,13825.265486042,13826.258824417,NaN,NaN
115,11,1,usability,0,kitchen,sun_ahpczsiumwwocjkv.tif,202,1.5,0,1.33333333333333,13826.264310834,13829.48151325,6,NaN,13829.486932917,13829.505457292,13830.832156084,NaN,NaN
115,12,1,usability,0,kitchen,sun_aenotlpyftoioydp.tif,192,1.5,0,1.15,13830.845841959,13833.960863667,2,NaN,13833.966626459,13833.985057167,13835.128435584,NaN,NaN
115,13,1,usability,0,kitchen,sun_aexklacwqwezaorf.tif,194,1.5,0,1.86666666666667,13835.138928334,13838.129278042,5,NaN,13838.13477375,13838.153149,13840.013190792,NaN,NaN
115,14,1,usability,0,kitchen,sun_aapllqyqlykszopd.tif,176,1.5,0,1.18333333333333,13840.031654542,13842.749257375,4,NaN,13842.777039667,13842.800215292,13843.976931417,NaN,NaN
115,15,1,usability,0,kitchen,sun_ahywdevtimnqcsln.tif,204,1.5,0,1.71666666666667,13843.9867525,13846.761352167,4,NaN,13846.766895042,13846.785291542,13848.495345375,NaN,NaN
115,16,1,usability,0,kitchen,sun_aggjlwcdjsjcaemh.tif,196,1.5,0,1.1,13848.513249709,13851.620712417,4,NaN,13851.649354667,13851.673261334,13852.76662875,NaN,NaN
115,17,1,usability,0,kitchen,sun_acxkpeoqbwcxfvip.tif,187,1.5,0,0.983333333333333,13852.776135084,13855.513252709,5,NaN,13855.518727584,13855.5371815,13856.513853875,NaN,NaN
115,18,1,usability,0,kitchen,sun_aeqdocilnnpuvuhx.tif,193,1.5,0,0.916666666666667,13856.518643209,13859.476984209,6,NaN,13859.505026834,13859.528595917,13860.438601167,NaN,NaN
115,19,1,usability,0,kitchen,sun_akcjzhbbjlbogpdi.tif,209,1.5,0,0.716666666666667,13860.444247917,13863.395237834,3,NaN,13863.422816792,13863.445733417,13864.155738334,NaN,NaN
115,20,1,usability,0,kitchen,sun_ajcbwwvdlsvjyzje.tif,206,1.5,0,0.883333333333333,13864.161288875,13867.091986459,4,NaN,13867.113366292,13867.134775792,13868.01144725,NaN,NaN
115,21,1,usability,0,kitchen,sun_azmutvzbxypaceni.tif,220,1.5,0,1.93333333333333,13868.016326625,13871.209760417,5,NaN,13871.214965125,13871.233275167,13873.159990125,NaN,NaN
115,22,1,usability,0,kitchen,sun_awcpdzzznmweyyhv.tif,216,1.5,0,0.9,13873.178594917,13876.633071834,3,NaN,13876.639144875,13876.657629,13877.550968,NaN,NaN
115,23,1,usability,0,kitchen,sun_aunzlwrbjumxhwdj.tif,213,1.5,0,1.13333333333333,13877.556832375,13880.485429417,4,NaN,13880.504768959,13880.528388292,13881.655097792,NaN,NaN
115,24,1,usability,0,kitchen,labelme_kxvouciolcpqplr.tif,172,1.5,0,0.766666666666667,13881.664882334,13884.3376525,5,NaN,13884.343015834,13884.361288542,13885.121292792,NaN,NaN
115,25,1,usability,0,kitchen,sun_agubuxuukhzyzpdp.tif,198,1.5,0,0.966666666666667,13885.125587417,13888.401119375,4,NaN,13888.406756,13888.425144875,13889.385150375,NaN,NaN
115,1,2,usability,0,kitchen,sun_ajkqhtgcbgpcwrwn.tif,207,1.5,0,1.56666666666667,13894.149408417,13897.013913917,3,NaN,13897.043434209,13897.066910625,13898.626960959,NaN,NaN
115,2,2,usability,0,kitchen,sun_avszsnwsbuqfgzbn.tif,215,1.5,0,1.2,13898.645187542,13901.432744042,6,NaN,13901.43853725,13901.457403375,13902.650781042,NaN,NaN
115,3,2,usability,0,kitchen,sun_admlmbcdswaszruo.tif,189,1.5,0,1.73333333333333,13902.66491825,13905.27303825,5,NaN,13905.27833225,13905.296782125,13907.023501084,NaN,NaN
115,4,2,usability,0,kitchen,sun_abdxkyyxwfskuaqb.tif,180,1.5,0,1.61666666666667,13907.035953209,13909.944627,4,NaN,13909.97303975,13909.996390334,13911.606424375,NaN,NaN
115,5,2,usability,0,kitchen,sun_aypmqwcualkenuoe.tif,219,1.5,0,1.38333333333333,13911.627821084,13915.296870709,5,NaN,13915.303030292,13915.32124775,13916.697972209,NaN,NaN
115,6,2,usability,0,kitchen,sun_agzzivivdpnawacl.tif,199,1.5,0,1.73333333333333,13916.716747625,13919.48083125,4,NaN,13919.48643875,13919.504959292,13921.231669584,NaN,NaN
115,7,2,usability,0,kitchen,sun_aaxxjlsuzvqlgylf.tif,178,1.5,0,1.96666666666667,13921.250838709,13924.073728375,5,NaN,13924.102546,13924.126024584,13926.086071334,NaN,NaN
115,8,2,usability,0,kitchen,sun_abftihopvusyfakt.tif,181,1.5,0,0.883333333333333,13926.103708709,13929.400966375,6,NaN,13929.40719725,13929.425423834,13930.302095292,NaN,NaN
115,9,2,usability,0,kitchen,sun_agorklincwxrdtga.tif,197,1.5,0,1.06666666666667,13930.306710875,13933.264370667,6,NaN,13933.291809042,13933.313618417,13934.373651917,NaN,NaN
115,10,2,usability,0,kitchen,labelme_brsyyvweiuaazfr.tif,171,1.5,0,1.06666666666667,13934.384175625,13936.737375167,4,NaN,13936.742580167,13936.760885209,13937.820925709,NaN,NaN
115,11,2,usability,0,kitchen,sun_afuyedyxivkhecmu.tif,195,1.5,0,0.966666666666667,13937.830564375,13941.049177584,5,NaN,13941.054645584,13941.0730265,13942.033032209,NaN,NaN
115,12,2,usability,0,kitchen,sun_aegoxogugdkwpmpj.tif,190,1.5,0,1.78333333333333,13942.037519667,13944.646066625,5,NaN,13944.674067959,13944.696927,13946.473641417,NaN,NaN
115,13,2,usability,0,kitchen,sun_axyyrmzcupyhlivc.tif,217,1.5,0,1.68333333333333,13946.494425875,13950.009146459,5,NaN,13950.015211292,13950.033614542,13951.710318917,NaN,NaN
115,14,2,usability,0,kitchen,sun_abpwyqmlzafvklqo.tif,182,1.5,0,0.983333333333333,13951.729303292,13954.412274834,6,NaN,13954.440074959,13954.463369917,13955.4400455,NaN,NaN
115,15,2,usability,0,kitchen,sun_abdenxonkemggwsq.tif,179,1.5,0,1.33333333333333,13955.44490225,13958.309634209,6,NaN,13958.337554084,13958.361398667,13959.688110625,NaN,NaN
115,16,2,usability,0,kitchen,sun_acgtpgfybqjmzeyw.tif,185,1.5,0,1.56666666666667,13959.706222167,13962.70476875,5,NaN,13962.710420875,13962.728810459,13964.288845209,NaN,NaN
115,17,2,usability,0,kitchen,sun_ahspylgoovwmwvgk.tif,203,1.5,0,1.66666666666667,13964.310623084,13967.224001834,5,NaN,13967.2524515,13967.27656525,13968.936611,NaN,NaN
115,18,2,usability,0,kitchen,sun_auticobqsbwgoppi.tif,214,1.5,0,1.86666666666667,13968.9560555,13974.424799959,2,NaN,13974.430447334,13974.448713334,13976.3087565,NaN,NaN
115,19,2,usability,0,kitchen,sun_aqeaevwwwjoqhzvl.tif,211,1.5,0,1.95,13976.328474584,13979.280359542,3,NaN,13979.301957125,13979.324589542,13981.267962042,NaN,NaN
115,20,2,usability,0,kitchen,sun_acfmftudsenhrfhy.tif,184,1.5,0,0.966666666666667,13981.286202584,13984.265588459,4,NaN,13984.293617125,13984.316984542,13985.276989459,NaN,NaN
115,21,2,usability,0,kitchen,sun_abrcnpqqhmjwekyf.tif,183,1.5,0,1.43333333333333,13985.281742959,13988.300252459,3,NaN,13988.325964042,13988.349310375,13989.776019584,NaN,NaN
115,22,2,usability,0,kitchen,sun_ahdycvpopffkzzsu.tif,200,1.5,0,0.85,13989.794359125,13992.416917375,1,NaN,13992.422150875,13992.440490625,13993.283828375,NaN,NaN
115,23,2,usability,0,kitchen,sun_ahljzhgcdpomplvg.tif,201,1.5,0,1.53333333333333,13993.288388792,13995.965271167,4,NaN,13995.992911625,13996.015493417,13997.542193375,NaN,NaN
115,24,2,usability,0,kitchen,sun_akchetnepxlcxhsu.tif,208,1.5,0,1.18333333333333,13997.561121875,14000.408696459,4,NaN,14000.414151459,14000.432487459,14001.609171167,NaN,NaN
115,25,2,usability,0,kitchen,sun_aarfiyshqohlwkmo.tif,177,1.5,0,1.86666666666667,14001.620848792,14004.240947209,5,NaN,14004.246186042,14004.264556167,14006.124606417,NaN,NaN
