sub_num,trial,block,task,is_practice,category,image,texture,duration,mask_dur,jitter,stim_time,time_of_resp,trial_response,mask_time,fix_time,jit_onset,trial_end,trial_accuracy,RT
401,1,0,categorization,1,bathroom,SHINEd_bathroom_practice5.tif,115,0.05,0.0666666666666667,1.21666666666667,4675.470579125,4676.471893709,13,4675.520507417,4675.579887625,4676.500739,4677.711550459,1,1.00131458400028
401,2,0,categorization,1,bathroom,SHINEd_bathroom_practice3.tif,113,0.05,0.0666666666666667,1.36666666666667,4677.744443292,4678.363954584,13,4677.800680959,4677.867846,4678.411837292,4679.7720235,1,0.619511291999515
401,3,0,categorization,1,kitchen,SHINEd_kitchen_practice5.tif,120,0.05,0.0666666666666667,1.85,4679.811404209,4680.682104834,9,4679.866593959,4679.926777,4680.7005575,4682.543927042,1,0.870700624999699
401,4,0,categorization,1,bathroom,SHINEd_bathroom_practice2.tif,112,0.05,0.0666666666666667,1.55,4682.567404667,4683.511061292,13,4682.619053209,4682.686105334,4683.524760959,4685.068130167,1,0.943656624999676
401,5,0,categorization,1,kitchen,SHINEd_kitchen_practice2.tif,117,0.05,0.0666666666666667,1.48333333333333,4685.086924959,4686.053159625,9,4685.139971917,4685.205434917,4686.0797795,4687.556497667,1,0.966234666000673
401,6,0,categorization,1,kitchen,SHINEd_kitchen_practice1.tif,116,0.05,0.0666666666666667,1.15,4687.568518209,4688.495558584,9,4687.619572167,4687.685936,4688.52701,4689.670391834,1,0.927040374999706
401,7,0,categorization,1,kitchen,SHINEd_kitchen_practice3.tif,118,0.05,0.0666666666666667,0.733333333333333,4689.682293292,4690.468336459,9,4689.730935584,4689.800825542,4690.491521709,4691.218245959,1,0.786043166999661
401,8,0,categorization,1,bathroom,SHINEd_bathroom_practice4.tif,114,0.05,0.0666666666666667,1.6,4691.237005542,4692.503159709,9,4691.287617792,4691.354968,4692.507554042,4694.100942792,0,1.26615416700042
401,9,0,categorization,1,kitchen,SHINEd_kitchen_practice4.tif,119,0.05,0.0666666666666667,0.716666666666667,4694.119671542,4695.6236175,13,4694.169854334,4694.237280875,4695.640117667,4696.35012125,0,1.50394595800026
401,10,0,categorization,1,bathroom,SHINEd_bathroom_practice1.tif,111,0.05,0.0666666666666667,1.21666666666667,4696.3549825,4696.951716334,13,4696.400126834,4696.461342709,4696.963337292,4698.17338325,1,0.596733833999679
401,1,1,categorization,0,bathroom,SHINEd_sun_auzqhkafidnkrwmo.tif,54,0.05,0.0666666666666667,1.23333333333333,4703.348636625,4708.061243292,13,4703.394918917,4703.455220959,4708.077855792,4709.304554,1,4.71260666699982
401,2,1,categorization,0,bathroom,SHINEd_sun_akiytfaagpdsphgz.tif,31,0.05,0.0666666666666667,0.783333333333333,4709.321565959,4710.122063459,13,4709.372020167,4709.440919417,4710.147852792,4710.924567667,1,0.800497500000347
401,3,1,categorization,0,kitchen,SHINEd_sun_aamedkxepzlwuxes.tif,65,0.05,0.0666666666666667,0.75,4710.94156925,4711.702724209,9,4710.991504417,4711.05918975,4711.711173542,4712.454510459,1,0.761154959000123
401,4,1,categorization,0,kitchen,SHINEd_sun_auticobqsbwgoppi.tif,104,0.05,0.0666666666666667,1.23333333333333,4712.459752292,4713.398839917,9,4712.504849125,4712.566150709,4713.418164459,4714.644883542,1,0.939087624999956
401,5,1,categorization,0,kitchen,SHINEd_sun_agorklincwxrdtga.tif,87,0.05,0.0666666666666667,1.13333333333333,4714.657324292,4715.562604417,9,4714.707636292,4714.774831917,4715.581132375,4716.707839,1,0.90528012499999
401,6,1,categorization,0,bathroom,SHINEd_sun_apynckhmoftszqoq.tif,47,0.05,0.0666666666666667,0.95,4716.720715042,4717.366518667,13,4716.768964084,4716.838056792,4717.394710459,4718.338093875,1,0.645803624999644
401,7,1,categorization,0,bathroom,SHINEd_sun_anhioqovhscjqqwb.tif,38,0.05,0.0666666666666667,0.733333333333333,4718.355459,4719.127118709,13,4718.405509042,4718.473339042,4719.142566417,4719.869237125,1,0.771659708999323
401,8,1,categorization,0,bathroom,SHINEd_sun_avhrdrntsqrjzccq.tif,55,0.05,0.0666666666666667,1.31666666666667,4719.873903,4720.655163125,13,4719.919001,4719.980212209,4720.665947,4721.975981917,1,0.781260125000699
401,9,1,categorization,0,bathroom,SHINEd_sun_axldvoqbuvuggfmq.tif,57,0.05,0.0666666666666667,0.8,4721.994924667,4722.922895792,13,4722.045212459,4722.112808334,4722.952382042,4723.745763834,1,0.927971125000113
401,10,1,categorization,0,kitchen,SHINEd_sun_akchetnepxlcxhsu.tif,98,0.05,0.0666666666666667,0.716666666666667,4723.760865959,4724.847684834,9,4723.80620625,4723.867362,4724.852710292,4725.562715375,1,1.08681887500006
401,11,1,categorization,0,kitchen,SHINEd_sun_acfmftudsenhrfhy.tif,74,0.05,0.0666666666666667,0.916666666666667,4725.56764575,4726.478865834,9,4725.6126335,4725.673952125,4726.49276225,4727.402766459,1,0.911220083999979
401,12,1,categorization,0,bathroom,SHINEd_sun_aggnnqpdorgxpvce.tif,21,0.05,0.0666666666666667,0.95,4727.4079945,4728.150732959,9,4727.452993292,4727.514411792,4728.166486334,4729.109824584,0,0.742738459000066
401,13,1,categorization,0,bathroom,SHINEd_sun_agrwbmhcpmfuwmsg.tif,24,0.05,0.0666666666666667,0.833333333333333,4729.114745167,4729.846595042,13,4729.159995709,4729.221112625,4729.856599875,4730.68327075,1,0.73184987500008
401,14,1,categorization,0,bathroom,SHINEd_sun_abapwbhyhkfixyex.tif,14,0.05,0.0666666666666667,0.75,4730.688198584,4731.430822334,13,4730.733211125,4730.794618959,4731.44645075,4732.189789125,1,0.742623750000348
401,15,1,categorization,0,kitchen,SHINEd_sun_aqeaevwwwjoqhzvl.tif,101,0.05,0.0666666666666667,1.53333333333333,4732.196494584,4733.126691167,13,4732.241468042,4732.302717209,4733.137951417,4734.664651709,0,0.930196582999997
401,16,1,categorization,0,bathroom,SHINEd_sun_axyrejkiiaqiurjk.tif,59,0.05,0.0666666666666667,1.05,4734.683932667,4735.543837125,9,4734.734153125,4734.801145,4735.555479,4736.598860209,0,0.859904458000528
401,17,1,categorization,0,bathroom,SHINEd_sun_atstyziqcmkahyxk.tif,51,0.05,0.0666666666666667,0.9,4736.608771209,4737.274169417,13,4736.656329584,4736.724706792,4737.297874709,4738.191241625,1,0.665398207999715
401,18,1,categorization,0,bathroom,SHINEd_sun_apmqjbnwghzuhhzh.tif,46,0.05,0.0666666666666667,1.18333333333333,4738.207904209,4738.918771417,13,4738.258125834,4738.32520325,4738.9278255,4740.104513917,1,0.710867208000309
401,19,1,categorization,0,kitchen,SHINEd_sun_acxkpeoqbwcxfvip.tif,77,0.05,0.0666666666666667,0.9,4740.115229792,4740.904176542,9,4740.165717959,4740.233536042,4740.923445459,4741.816833167,1,0.788946749999923
401,20,1,categorization,0,bathroom,SHINEd_sun_ambriybtogmepttm.tif,36,0.05,0.0666666666666667,1.66666666666667,4741.833446875,4742.599110667,13,4741.883280042,4741.951046625,4742.603484584,4744.263527709,1,0.765663791999941
401,21,1,categorization,0,kitchen,SHINEd_sun_aehawpgmrlhlvcow.tif,81,0.05,0.0666666666666667,1.13333333333333,4744.283422625,4745.023880667,9,4744.333499417,4744.400805125,4745.039889375,4746.166587792,1,0.740458042000682
401,22,1,categorization,0,kitchen,SHINEd_sun_ahdycvpopffkzzsu.tif,90,0.05,0.0666666666666667,1.3,4746.177662125,4747.012262042,9,4746.225784167,4746.296438042,4747.036850792,4748.330215459,1,0.83459991699965
401,23,1,categorization,0,kitchen,SHINEd_sun_ahspylgoovwmwvgk.tif,93,0.05,0.0666666666666667,1.93333333333333,4748.350285792,4749.101598167,9,4748.400381792,4748.468175334,4749.124992584,4751.051699042,1,0.751312374999543
401,24,1,categorization,0,kitchen,SHINEd_sun_aarfiyshqohlwkmo.tif,67,0.05,0.0666666666666667,1,4751.066610125,4752.502718042,9,4751.116814792,4751.185320917,4752.521613542,4753.514951167,1,1.4361079170003
401,25,1,categorization,0,kitchen,SHINEd_sun_aadbddgrdsjugojn.tif,64,0.05,0.0666666666666667,0.883333333333333,4753.520587917,4754.206533375,9,4753.565693459,4753.626895917,4754.212084542,4755.08875625,1,0.685945457999878
401,26,1,categorization,0,kitchen,SHINEd_sun_abftihopvusyfakt.tif,71,0.05,0.0666666666666667,1.95,4755.095616042,4756.319554834,13,4755.140724584,4755.201996292,4756.337826417,4758.281203,0,1.2239387919999
401,27,1,categorization,0,kitchen,SHINEd_sun_azmutvzbxypaceni.tif,110,0.05,0.0666666666666667,1.25,4758.302053917,4759.19345525,9,4758.351754292,4758.419567542,4759.208280834,4760.451670584,1,0.891401332999521
401,28,1,categorization,0,bathroom,SHINEd_sun_amzlamotzwfkwjco.tif,37,0.05,0.0666666666666667,1.95,4760.468927917,4761.475270375,13,4760.520133125,4760.587684084,4761.494905209,4763.438269292,1,1.00634245800029
401,29,1,categorization,0,kitchen,SHINEd_sun_abpwyqmlzafvklqo.tif,72,0.05,0.0666666666666667,1.91666666666667,4763.457298292,4764.498593584,13,4763.508443667,4763.573703375,4764.51366475,4766.423716667,0,1.04129529200054
401,30,1,categorization,0,kitchen,SHINEd_sun_acwjdupvyjsugpay.tif,76,0.05,0.0666666666666667,1.41666666666667,4766.437880792,4767.262846459,9,4766.49019675,4766.555972875,4767.279859459,4768.689916542,1,0.82496566699956
401,31,1,categorization,0,bathroom,SHINEd_sun_ajlawzvmubibwbpy.tif,30,0.05,0.0666666666666667,0.716666666666667,4768.709874042,4769.49164125,13,4768.761529584,4768.828399875,4769.519598959,4770.229638125,1,0.781767208000019
401,32,1,categorization,0,kitchen,SHINEd_sun_aegoxogugdkwpmpj.tif,80,0.05,0.0666666666666667,1.28333333333333,4770.248200042,4771.070987,9,4770.299166709,4770.366407167,4771.085680667,4772.362388084,1,0.822786958000506
401,33,1,categorization,0,kitchen,SHINEd_sun_aymvwlarqodbwuoc.tif,108,0.05,0.0666666666666667,0.9,4772.382466292,4773.259680292,9,4772.432640625,4772.499873667,4773.290395417,4774.183738625,1,0.877214000000095
401,34,1,categorization,0,bathroom,SHINEd_sun_aofnryafpsjimzsb.tif,40,0.05,0.0666666666666667,0.8,4774.189675125,4775.159311042,13,4774.234804459,4774.296026792,4775.164580417,4775.957918417,1,0.969635917000232
401,35,1,categorization,0,bathroom,SHINEd_sun_acduarbnmmoglmiv.tif,16,0.05,0.0666666666666667,1.01666666666667,4775.963285709,4777.271687334,9,4776.008575292,4776.069553792,4777.288598417,4778.298637209,0,1.30840162499953
401,36,1,categorization,0,bathroom,SHINEd_sun_axxbkopsgyouuebh.tif,58,0.05,0.0666666666666667,0.85,4778.307597209,4778.98342075,13,4778.355515792,4778.423331959,4779.013300584,4779.856663375,1,0.675823540999772
401,37,1,categorization,0,bathroom,SHINEd_sun_aoybiabnpadelefl.tif,41,0.05,0.0666666666666667,1.51666666666667,4779.874908209,4780.622309375,13,4779.925625875,4779.992471417,4780.6285515,4782.13860475,1,0.7474011660006
401,38,1,categorization,0,kitchen,SHINEd_sun_aypmqwcualkenuoe.tif,109,0.05,0.0666666666666667,1.83333333333333,4782.15648375,4783.259074875,13,4782.206948417,4782.274326209,4783.2812985,4785.108007375,0,1.10259112499989
401,39,1,categorization,0,bathroom,SHINEd_sun_aljolscmmzydegqp.tif,33,0.05,0.0666666666666667,0.716666666666667,4785.127017625,4785.884916375,9,4785.177334209,4785.245014084,4785.901506625,4786.61151025,0,0.757898750000095
401,40,1,categorization,0,kitchen,SHINEd_sun_adgqasybjyktddhj.tif,78,0.05,0.0666666666666667,0.9,4786.617079125,4787.359633167,9,4786.662149375,4786.7233435,4787.3751955,4788.268534375,1,0.742554041999938
401,41,1,categorization,0,bathroom,SHINEd_sun_aapitsgbtktqubfy.tif,12,0.05,0.0666666666666667,0.916666666666667,4788.2734785,4789.031396,13,4788.318685084,4788.379672667,4789.048524792,4789.958530125,1,0.757917500000076
401,42,1,categorization,0,kitchen,SHINEd_sun_aunzlwrbjumxhwdj.tif,103,0.05,0.0666666666666667,0.816666666666667,4789.963380042,4790.710479334,9,4790.008372334,4790.069757459,4790.721888042,4791.531891459,1,0.747099292000712
401,43,1,categorization,0,kitchen,SHINEd_sun_avszsnwsbuqfgzbn.tif,105,0.05,0.0666666666666667,1.88333333333333,4791.536891542,4792.230940834,9,4791.582138042,4791.643136417,4792.245219334,4794.121917584,1,0.694049291999363
401,44,1,categorization,0,kitchen,SHINEd_sun_aexklacwqwezaorf.tif,84,0.05,0.0666666666666667,0.9,4794.139566334,4794.827271125,9,4794.189986459,4794.257130625,4794.846714709,4795.740051917,1,0.687704791000215
401,45,1,categorization,0,bathroom,SHINEd_sun_alotolagknyrgtsk.tif,35,0.05,0.0666666666666667,1,4795.746214709,4796.703191792,9,4795.791233875,4795.85258125,4796.7213505,4797.71468875,0,0.956977083000311
401,46,1,categorization,0,kitchen,SHINEd_sun_abrcnpqqhmjwekyf.tif,73,0.05,0.0666666666666667,0.733333333333333,4797.719619542,4798.526762875,9,4797.764777292,4797.825779834,4798.544726584,4799.271397834,1,0.807143332999658
401,47,1,categorization,0,bathroom,SHINEd_sun_aspsyogrekjtfozg.tif,50,0.05,0.0666666666666667,0.883333333333333,4799.277133959,4800.575451667,9,4799.322151,4799.383431417,4800.585992375,4801.462664667,0,1.29831770800047
401,48,1,categorization,0,kitchen,SHINEd_sun_aenotlpyftoioydp.tif,82,0.05,0.0666666666666667,1.73333333333333,4801.467820792,4802.319559,9,4801.512830917,4801.574147334,4802.326017084,4804.052725584,1,0.851738207999915
401,49,1,categorization,0,bathroom,SHINEd_sun_apjevzvycyhuqghb.tif,43,0.05,0.0666666666666667,1.91666666666667,4804.070675042,4805.052888084,13,4804.120761209,4804.188013834,4805.077917459,4806.987951875,1,0.982213041999785
401,50,1,categorization,0,kitchen,SHINEd_labelme_rykdqxenmhulbdn.tif,63,0.05,0.0666666666666667,1.35,4807.005881292,4807.739369792,13,4807.056215459,4807.123251084,4807.763408459,4809.106796459,0,0.733488500000021
401,1,2,categorization,0,kitchen,SHINEd_sun_abdxkyyxwfskuaqb.tif,70,0.05,0.0666666666666667,0.95,4817.297168167,4820.815415334,9,4817.342953667,4817.403449917,4820.839360084,4821.782697709,1,3.51824716700048
401,2,2,categorization,0,bathroom,SHINEd_sun_aclfzgynxzxlbepz.tif,19,0.05,0.0666666666666667,0.75,4821.787225,4822.503366417,13,4821.832205417,4821.89368625,4822.512401834,4823.255739792,1,0.716141416999562
401,3,2,categorization,0,kitchen,SHINEd_sun_agzzivivdpnawacl.tif,89,0.05,0.0666666666666667,1.68333333333333,4823.2629175,4823.831208125,13,4823.307823959,4823.369229667,4823.837694875,4825.5144,0,0.568290624999463
401,4,2,categorization,0,bathroom,SHINEd_sun_ahaulkltgpkeeemi.tif,26,0.05,0.0666666666666667,0.816666666666667,4825.53114525,4826.298533042,13,4825.58145875,4825.648565834,4826.322253959,4827.132259709,1,0.767387791999681
401,5,2,categorization,0,bathroom,SHINEd_sun_aleqenyvunhactkl.tif,32,0.05,0.0666666666666667,0.916666666666667,4827.137961709,4827.798201375,9,4827.183003209,4827.244414459,4827.812813292,4828.722816417,0,0.660239666000052
401,6,2,categorization,0,kitchen,SHINEd_labelme_kxvouciolcpqplr.tif,62,0.05,0.0666666666666667,1.21666666666667,4828.728594292,4829.58249425,9,4828.77362625,4828.8349805,4829.587014,4830.797050584,1,0.853899958000511
401,7,2,categorization,0,kitchen,SHINEd_sun_agubuxuukhzyzpdp.tif,88,0.05,0.0666666666666667,0.9,4830.815110375,4831.576684167,9,4830.865441167,4830.932540167,4831.587133792,4832.480511459,1,0.76157379200049
401,8,2,categorization,0,kitchen,SHINEd_sun_ahywdevtimnqcsln.tif,94,0.05,0.0666666666666667,1.65,4832.497118459,4833.847016959,9,4832.547689417,4832.614530042,4833.866906459,4835.510294542,1,1.34989849999965
401,9,2,categorization,0,kitchen,SHINEd_sun_acgtpgfybqjmzeyw.tif,75,0.05,0.0666666666666667,1.15,4835.527509375,4836.261841709,9,4835.575799584,4835.646224875,4836.285842375,4837.429222167,1,0.734332334000101
401,10,2,categorization,0,bathroom,SHINEd_sun_aunuadmjocsddsrl.tif,52,0.05,0.0666666666666667,1.13333333333333,4837.439284917,4838.1443875,13,4837.487749375,4837.552795792,4838.17617525,4839.30289675,1,0.705102583000553
401,11,2,categorization,0,bathroom,SHINEd_sun_agguqiubmwhqqunb.tif,22,0.05,0.0666666666666667,1.76666666666667,4839.3201075,4840.303459459,9,4839.369546584,4839.427860542,4840.313511459,4842.07355625,0,0.983351959000174
401,12,2,categorization,0,kitchen,SHINEd_sun_axyyrmzcupyhlivc.tif,107,0.05,0.0666666666666667,1.8,4842.091197167,4842.799605084,9,4842.141540792,4842.208719667,4842.814698084,4844.608094625,1,0.708407916999931
401,13,2,categorization,0,bathroom,SHINEd_sun_aavhrsfjbserjtht.tif,13,0.05,0.0666666666666667,0.9,4844.626329834,4845.354822334,9,4844.67658625,4844.74456,4845.384236875,4846.277574584,0,0.728492500000357
401,14,2,categorization,0,bathroom,SHINEd_sun_aqrpegblszgcoujh.tif,48,0.05,0.0666666666666667,0.716666666666667,4846.282505917,4847.359269709,9,4846.327514292,4846.388766875,4847.374177584,4848.084181417,0,1.07676379199984
401,15,2,categorization,0,kitchen,SHINEd_labelme_brsyyvweiuaazfr.tif,61,0.05,0.0666666666666667,1.36666666666667,4848.088996125,4849.247252834,9,4848.134023792,4848.195278125,4849.264431125,4850.624469084,1,1.15825670899994
401,16,2,categorization,0,kitchen,SHINEd_sun_ahpczsiumwwocjkv.tif,92,0.05,0.0666666666666667,0.916666666666667,4850.643741792,4851.411765584,9,4850.693896292,4850.762131334,4851.436065917,4852.346099,1,0.768023792000349
401,17,2,categorization,0,bathroom,SHINEd_sun_apkruvsevgegsdwp.tif,44,0.05,0.0666666666666667,0.716666666666667,4852.353849834,4853.071106667,13,4852.398977834,4852.460342292,4853.079293209,4853.78929825,1,0.717256832999738
401,18,2,categorization,0,bathroom,SHINEd_sun_anryaplzeujmzfkd.tif,39,0.05,0.0666666666666667,0.766666666666667,4853.795894792,4854.814873709,13,4853.840858959,4853.902256292,4854.821482125,4855.5814875,1,1.01897891699991
401,19,2,categorization,0,bathroom,SHINEd_sun_ahqjwnzgolcaoidx.tif,29,0.05,0.0666666666666667,1.06666666666667,4855.586332125,4856.390934959,13,4855.631653584,4855.692577,4856.394215834,4857.454247375,1,0.804602834000434
401,20,2,categorization,0,kitchen,SHINEd_sun_afuyedyxivkhecmu.tif,85,0.05,0.0666666666666667,0.8,4857.465573667,4858.379007834,9,4857.513494959,4857.581396167,4858.404836542,4859.198201209,1,0.91343416699965
401,21,2,categorization,0,kitchen,SHINEd_sun_aapllqyqlykszopd.tif,66,0.05,0.0666666666666667,0.866666666666667,4859.210865417,4860.10319225,9,4859.261307125,4859.328506625,4860.114366542,4860.97437025,1,0.89232683299997
401,22,2,categorization,0,bathroom,SHINEd_sun_acegryoqftbzowsg.tif,17,0.05,0.0666666666666667,1.48333333333333,4860.979117792,4861.838522917,13,4861.024236167,4861.085395875,4861.854202125,4863.330906042,1,0.859405125000194
401,23,2,categorization,0,kitchen,SHINEd_sun_aaxxjlsuzvqlgylf.tif,68,0.05,0.0666666666666667,1.1,4863.348687417,4864.224876875,9,4863.398714417,4863.466440584,4864.256672417,4865.350040084,1,0.876189457999317
401,24,2,categorization,0,bathroom,SHINEd_sun_ahijqszoswveeyji.tif,28,0.05,0.0666666666666667,0.783333333333333,4865.358885625,4866.2265905,9,4865.407024292,4865.474928,4866.248884084,4867.025589459,0,0.867704875000527
401,25,2,categorization,0,kitchen,SHINEd_sun_ajkqhtgcbgpcwrwn.tif,97,0.05,0.0666666666666667,0.866666666666667,4867.043118792,4867.766486584,9,4867.093169625,4867.160724584,4867.779320834,4868.639326792,1,0.723367791999408
401,26,2,categorization,0,kitchen,SHINEd_sun_awcpdzzznmweyyhv.tif,106,0.05,0.0666666666666667,1.83333333333333,4868.645829334,4869.391131542,13,4868.690828084,4868.752035584,4869.40430775,4871.231013334,0,0.745302207999885
401,27,2,categorization,0,bathroom,SHINEd_sun_ahcvzmoyaycdoftf.tif,27,0.05,0.0666666666666667,0.7,4871.248582792,4871.856375209,13,4871.298651875,4871.366458459,4871.871848625,4872.565187,1,0.607792417000383
401,28,2,categorization,0,bathroom,SHINEd_sun_apeeialkgkuxddgh.tif,42,0.05,0.0666666666666667,1.33333333333333,4872.570968042,4873.294888292,13,4872.616087,4872.677219834,4873.312882459,4874.63959825,1,0.723920250000447
401,29,2,categorization,0,kitchen,SHINEd_sun_aggjlwcdjsjcaemh.tif,86,0.05,0.0666666666666667,1.33333333333333,4874.657293459,4875.429502167,9,4874.707364042,4874.774917625,4875.447787209,4876.77449375,1,0.772208707999198
401,30,2,categorization,0,bathroom,SHINEd_sun_alkosphxlxwjwgjd.tif,34,0.05,0.0666666666666667,1.38333333333333,4876.793381459,4877.354657167,13,4876.843784667,4876.91086575,4877.384123042,4878.760834417,1,0.561275708000721
401,31,2,categorization,0,bathroom,SHINEd_sun_agyqfjcfkdcydepw.tif,25,0.05,0.0666666666666667,1.25,4878.781797875,4879.76780325,13,4878.831991584,4878.89963925,4879.789612375,4881.032992167,1,0.986005374999877
401,32,2,categorization,0,bathroom,SHINEd_sun_asfwthctfqerjvxr.tif,49,0.05,0.0666666666666667,1.55,4881.05023175,4881.890899542,9,4881.10070625,4881.167607084,4881.906833,4883.450198125,0,0.840667791999294
401,33,2,categorization,0,bathroom,SHINEd_sun_abjtwfukuwddzted.tif,15,0.05,0.0666666666666667,1.61666666666667,4883.4685165,4884.1302225,13,4883.518052667,4883.586211875,4884.159627875,4885.769662875,1,0.661705999999867
401,34,2,categorization,0,bathroom,SHINEd_labelme_sfxiulhjbhlyiyt.tif,11,0.05,0.0666666666666667,1.33333333333333,4885.791207542,4886.425280625,13,4885.842785292,4885.909781542,4886.450875584,4887.777581417,1,0.634073082999748
401,35,2,categorization,0,bathroom,SHINEd_sun_afcoljnjfoxjtgja.tif,20,0.05,0.0666666666666667,0.833333333333333,4887.799540834,4888.579425959,9,4887.850746625,4887.918141709,4888.609609542,4889.436327042,0,0.779885124999964
401,36,2,categorization,0,bathroom,SHINEd_sun_ausgutylgojavyoq.tif,53,0.05,0.0666666666666667,1.45,4889.455167459,4890.110093542,13,4889.501922959,4889.561845459,4890.113797625,4891.557183209,1,0.654926082999737
401,37,2,categorization,0,bathroom,SHINEd_sun_awnqiikzaispgmwo.tif,56,0.05,0.0666666666666667,0.933333333333333,4891.568302125,4892.343139542,13,4891.620084209,4891.685901875,4892.358566167,4893.285239417,1,0.774837417000526
401,38,2,categorization,0,kitchen,SHINEd_sun_abdenxonkemggwsq.tif,69,0.05,0.0666666666666667,1.65,4893.291070084,4894.110086209,13,4893.336062167,4893.397383292,4894.116090084,4895.759453334,0,0.819016124999507
401,39,2,categorization,0,bathroom,SHINEd_sun_apkxzenqapsujocq.tif,45,0.05,0.0666666666666667,1.23333333333333,4895.78074425,4896.685831792,13,4895.8312225,4895.898547042,4896.7048425,4897.931545459,1,0.905087541999819
401,40,2,categorization,0,kitchen,SHINEd_sun_amjjdeyrggfqgmom.tif,100,0.05,0.0666666666666667,0.766666666666667,4897.950534334,4898.689509667,9,4898.000883917,4898.068129459,4898.707902584,4899.467957584,1,0.738975332999871
401,41,2,categorization,0,kitchen,SHINEd_sun_akcjzhbbjlbogpdi.tif,99,0.05,0.0666666666666667,1.78333333333333,4899.479737959,4900.302103792,9,4899.529338125,4899.597083792,4900.316210459,4902.092921125,1,0.822365832999822
401,42,2,categorization,0,kitchen,SHINEd_sun_ahljzhgcdpomplvg.tif,91,0.05,0.0666666666666667,1.11666666666667,4902.104865584,4902.649362625,13,4902.156642792,4902.222874292,4902.679695042,4903.789750084,0,0.544497040999886
401,43,2,categorization,0,kitchen,SHINEd_sun_aeqdocilnnpuvuhx.tif,83,0.05,0.0666666666666667,1.85,4903.799496417,4904.738883292,13,4903.848112542,4903.91696,4904.756456584,4906.599830042,0,0.9393868749994
401,44,2,categorization,0,kitchen,SHINEd_sun_auaiucuqpdausiva.tif,102,0.05,0.0666666666666667,0.733333333333333,4906.617508375,4907.27907025,13,4906.667936792,4906.735171417,4907.307077834,4908.033749375,0,0.661561874999279
401,45,2,categorization,0,kitchen,SHINEd_sun_ajcbwwvdlsvjyzje.tif,96,0.05,0.0666666666666667,0.783333333333333,4908.039402875,4908.686199,13,4908.084436792,4908.145655875,4908.697637084,4909.4743075,0,0.646796125000037
401,46,2,categorization,0,kitchen,SHINEd_sun_admlmbcdswaszruo.tif,79,0.05,0.0666666666666667,1.5,4909.479181834,4910.286418875,13,4909.52429475,4909.585453584,4910.304270459,4911.797652334,0,0.807237041000008
401,47,2,categorization,0,kitchen,SHINEd_sun_aixorpehvfykdynp.tif,95,0.05,0.0666666666666667,0.733333333333333,4911.815719875,4912.746242209,13,4911.865974209,4911.933105292,4912.772669584,4913.499341209,0,0.930522334000671
401,48,2,categorization,0,bathroom,SHINEd_sun_aghyqhbptboemmoq.tif,23,0.05,0.0666666666666667,1.1,4913.505193834,4914.134575542,13,4913.550318209,4913.611468042,4914.146944042,4915.240308959,1,0.629381707999528
401,49,2,categorization,0,bathroom,SHINEd_sun_acgyywnybuveqsro.tif,18,0.05,0.0666666666666667,1.6,4915.250583459,4915.919558042,13,4915.298407084,4915.367648459,4915.941229125,4917.534586792,1,0.668974582999908
401,50,2,categorization,0,bathroom,SHINEd_sun_azqyogdvyhahyram.tif,60,0.05,0.0666666666666667,1.06666666666667,4917.54794725,4918.105772084,13,4917.5983205,4917.665377917,4918.121288792,4919.181337292,1,0.557824833999803
