sub_num,trial,block,task,is_practice,category,image,texture,duration,mask_dur,jitter,stim_time,time_of_resp,trial_response,mask_time,fix_time,jit_onset,trial_end,trial_accuracy,RT
122,6,0,aesthetic,1,kitchen,kitchen_practice2.tif,227,1.5,0,1.08333333333333,3867.900398958,3872.235099875,4,NaN,3872.240588166,3872.259007958,3873.33571,NaN,NaN
122,7,0,aesthetic,1,kitchen,kitchen_practice1.tif,226,1.5,0,1.06666666666667,3873.34404275,3876.426740875,3,NaN,3876.432152583,3876.450570666,3877.510622708,NaN,NaN
122,8,0,aesthetic,1,kitchen,kitchen_practice4.tif,229,1.5,0,1.11666666666667,3877.519746083,3879.93111575,5,NaN,3879.936426041,3879.954749083,3881.064782583,NaN,NaN
122,9,0,aesthetic,1,kitchen,kitchen_practice3.tif,228,1.5,0,0.95,3881.074433458,3885.698795458,6,NaN,3885.704385125,3885.722827541,3886.666164625,NaN,NaN
122,10,0,aesthetic,1,kitchen,kitchen_practice5.tif,230,1.5,0,0.9,3886.670559,3889.85881375,6,NaN,3889.864065833,3889.882311166,3890.775648458,NaN,NaN
122,1,1,aesthetic,0,kitchen,sun_ahljzhgcdpomplvg.tif,201,1.5,0,1.48333333333333,3895.374845333,3899.49832925,4,NaN,3899.503994041,3899.522337583,3900.999055291,NaN,NaN
122,2,1,aesthetic,0,kitchen,sun_afuyedyxivkhecmu.tif,195,1.5,0,1.46666666666667,3901.0153915,3903.674532833,3,NaN,3903.680065958,3903.698290416,3905.15832875,NaN,NaN
122,3,1,aesthetic,0,kitchen,sun_adgqasybjyktddhj.tif,188,1.5,0,0.766666666666667,3905.176806333,3908.963031583,5,NaN,3908.968365041,3908.986709916,3909.746713916,NaN,NaN
122,4,1,aesthetic,0,kitchen,sun_ahpczsiumwwocjkv.tif,202,1.5,0,1.16666666666667,3909.7626065,3913.595020791,5,NaN,3913.600352333,3913.618811333,3914.778845458,NaN,NaN
122,5,1,aesthetic,0,kitchen,sun_agorklincwxrdtga.tif,197,1.5,0,1.6,3914.790628458,3918.994458625,4,NaN,3918.999994416,3919.018428041,3920.611797791,NaN,NaN
122,6,1,aesthetic,0,kitchen,sun_auaiucuqpdausiva.tif,212,1.5,0,1.68333333333333,3920.629517833,3924.794271458,3,NaN,3924.800000416,3924.81824675,3926.494960958,NaN,NaN
122,7,1,aesthetic,0,kitchen,sun_aapllqyqlykszopd.tif,176,1.5,0,1.5,3926.505696333,3930.242458458,4,NaN,3930.248114166,3930.266568458,3931.759948625,NaN,NaN
122,8,1,aesthetic,0,kitchen,sun_awcpdzzznmweyyhv.tif,216,1.5,0,0.833333333333333,3931.780065583,3936.082810666,5,NaN,3936.088280583,3936.106680125,3936.933350708,NaN,NaN
122,9,1,aesthetic,0,kitchen,sun_aadbddgrdsjugojn.tif,174,1.5,0,0.9,3936.937700583,3939.644208916,2,NaN,3939.669012833,3939.692196625,3940.585535,NaN,NaN
122,10,1,aesthetic,0,kitchen,sun_aegoxogugdkwpmpj.tif,190,1.5,0,0.933333333333333,3940.595937458,3943.595433041,5,NaN,3943.615985583,3943.635295875,3944.561966375,NaN,NaN
122,11,1,aesthetic,0,kitchen,sun_abrcnpqqhmjwekyf.tif,183,1.5,0,0.9,3944.566512458,3947.431448291,4,NaN,3947.451946833,3947.473303958,3948.366640958,NaN,NaN
122,12,1,aesthetic,0,kitchen,sun_avszsnwsbuqfgzbn.tif,215,1.5,0,0.85,3948.371356916,3952.442795458,2,NaN,3952.448044458,3952.4664255,3953.309762125,NaN,NaN
122,13,1,aesthetic,0,kitchen,labelme_kxvouciolcpqplr.tif,172,1.5,0,1.83333333333333,3953.314496166,3958.538970416,2,NaN,3958.544182333,3958.562725583,3960.389430583,NaN,NaN
122,14,1,aesthetic,0,kitchen,sun_agzzivivdpnawacl.tif,199,1.5,0,0.733333333333333,3960.406633083,3963.571850166,3,NaN,3963.598017666,3963.621671333,3964.348343166,NaN,NaN
122,15,1,aesthetic,0,kitchen,sun_aunzlwrbjumxhwdj.tif,213,1.5,0,1.63333333333333,3964.3533145,3967.342072458,1,NaN,3967.37201125,3967.396096375,3969.02281425,NaN,NaN
122,16,1,aesthetic,0,kitchen,sun_aymvwlarqodbwuoc.tif,218,1.5,0,0.766666666666667,3969.037263666,3972.060186625,5,NaN,3972.089173375,3972.11264225,3972.872646583,NaN,NaN
122,17,1,aesthetic,0,kitchen,sun_abpwyqmlzafvklqo.tif,182,1.5,0,1.71666666666667,3972.877405,3976.913996375,3,NaN,3976.919814958,3976.938379833,3978.64843625,NaN,NaN
122,18,1,aesthetic,0,kitchen,sun_abdxkyyxwfskuaqb.tif,180,1.5,0,1.51666666666667,3978.666685708,3982.195298416,3,NaN,3982.204121666,3982.223106,3983.733151875,NaN,NaN
122,19,1,aesthetic,0,kitchen,sun_aaxxjlsuzvqlgylf.tif,178,1.5,0,1.25,3983.751457625,3987.194149875,6,NaN,3987.199849958,3987.218102583,3988.461473625,NaN,NaN
122,20,1,aesthetic,0,kitchen,sun_azmutvzbxypaceni.tif,220,1.5,0,1.41666666666667,3988.479987083,3991.274020458,7,NaN,3991.279649458,3991.297834333,3992.707885125,NaN,NaN
122,21,1,aesthetic,0,kitchen,sun_axyyrmzcupyhlivc.tif,217,1.5,0,1.1,3992.724932166,3995.634466416,5,NaN,3995.639874625,3995.658238666,3996.7516215,NaN,NaN
122,22,1,aesthetic,0,kitchen,sun_ajkqhtgcbgpcwrwn.tif,207,1.5,0,0.95,3996.762573083,3999.530324458,6,NaN,3999.535781458,3999.554192291,4000.497530666,NaN,NaN
122,23,1,aesthetic,0,kitchen,sun_aamedkxepzlwuxes.tif,175,1.5,0,1.45,4000.501941416,4006.970036958,4,NaN,4006.9763755,4006.99473925,4008.438110083,NaN,NaN
122,24,1,aesthetic,0,kitchen,sun_akcjzhbbjlbogpdi.tif,209,1.5,0,0.883333333333333,4008.457544,4011.458748666,5,NaN,4011.464105125,4011.482441,4012.35911125,NaN,NaN
122,25,1,aesthetic,0,kitchen,sun_ahywdevtimnqcsln.tif,204,1.5,0,1.23333333333333,4012.364234875,4015.147273791,5,NaN,4015.175399875,4015.198863625,4016.425585083,NaN,NaN
122,1,2,aesthetic,0,kitchen,sun_aeqdocilnnpuvuhx.tif,193,1.5,0,1.78333333333333,4023.61465975,4027.834794541,3,NaN,4027.840126833,4027.858546208,4029.635265,NaN,NaN
122,2,2,aesthetic,0,kitchen,sun_aggjlwcdjsjcaemh.tif,196,1.5,0,1.8,4029.656265708,4032.709791041,2,NaN,4032.732669583,4032.75611375,4034.549488666,NaN,NaN
122,3,2,aesthetic,0,kitchen,sun_aixorpehvfykdynp.tif,205,1.5,0,0.8,4034.5679035,4037.881394791,4,NaN,4037.909316875,4037.930184208,4038.723523333,NaN,NaN
122,4,2,aesthetic,0,kitchen,sun_acfmftudsenhrfhy.tif,184,1.5,0,1.01666666666667,4038.7282485,4041.969855291,3,NaN,4041.975908916,4041.994313916,4043.004368541,NaN,NaN
122,5,2,aesthetic,0,kitchen,sun_acxkpeoqbwcxfvip.tif,187,1.5,0,0.85,4043.012312083,4046.433830375,4,NaN,4046.439490375,4046.457902833,4047.301241416,NaN,NaN
122,6,2,aesthetic,0,kitchen,sun_admlmbcdswaszruo.tif,189,1.5,0,1.83333333333333,4047.305411791,4050.125812458,6,NaN,4050.14073725,4050.163120583,4051.989824,NaN,NaN
122,7,2,aesthetic,0,kitchen,sun_aexklacwqwezaorf.tif,194,1.5,0,1.11666666666667,4052.006977458,4055.290720666,4,NaN,4055.299121708,4055.318443833,4056.428476208,NaN,NaN
122,8,2,aesthetic,0,kitchen,sun_agubuxuukhzyzpdp.tif,198,1.5,0,1.88333333333333,4056.437668791,4059.313751916,7,NaN,4059.319392,4059.337667,4061.214392,NaN,NaN
122,9,2,aesthetic,0,kitchen,sun_aypmqwcualkenuoe.tif,219,1.5,0,0.916666666666667,4061.231150291,4064.634542041,3,NaN,4064.64136625,4064.659927208,4065.569932333,NaN,NaN
122,10,2,aesthetic,0,kitchen,labelme_rykdqxenmhulbdn.tif,173,1.5,0,1.05,4065.574678291,4071.122148291,4,NaN,4071.127927083,4071.146964333,4072.190333916,NaN,NaN
122,11,2,aesthetic,0,kitchen,sun_aqeaevwwwjoqhzvl.tif,211,1.5,0,1.35,4072.198816416,4075.338702291,4,NaN,4075.343971375,4075.3624255,4076.70580475,NaN,NaN
122,12,2,aesthetic,0,kitchen,sun_ahspylgoovwmwvgk.tif,203,1.5,0,1.01666666666667,4076.716791541,4080.066481583,5,NaN,4080.0716245,4080.090232375,4081.100287541,NaN,NaN
122,13,2,aesthetic,0,kitchen,sun_aehawpgmrlhlvcow.tif,191,1.5,0,2,4081.108614958,4084.202353,5,NaN,4084.207807541,4084.226129458,4086.219517375,NaN,NaN
122,14,2,aesthetic,0,kitchen,sun_ahdycvpopffkzzsu.tif,200,1.5,0,0.9,4086.235099125,4088.9654535,2,NaN,4088.993489166,4089.016706083,4089.910045166,NaN,NaN
122,15,2,aesthetic,0,kitchen,sun_akchetnepxlcxhsu.tif,208,1.5,0,1.15,4089.914770125,4093.266357208,4,NaN,4093.272348666,4093.290721166,4094.434095916,NaN,NaN
122,16,2,aesthetic,0,kitchen,sun_abdenxonkemggwsq.tif,179,1.5,0,1.23333333333333,4094.444286166,4097.273927041,7,NaN,4097.279562041,4097.297777916,4098.524482625,NaN,NaN
122,17,2,aesthetic,0,kitchen,sun_ajcbwwvdlsvjyzje.tif,206,1.5,0,1.03333333333333,4098.541751375,4101.274332708,6,NaN,4101.27966825,4101.297922541,4102.324623666,NaN,NaN
122,18,2,aesthetic,0,kitchen,sun_acgtpgfybqjmzeyw.tif,185,1.5,0,0.783333333333333,4102.345107291,4108.130558708,5,NaN,4108.135869291,4108.154213125,4108.930883458,NaN,NaN
122,19,2,aesthetic,0,kitchen,sun_acwjdupvyjsugpay.tif,186,1.5,0,0.766666666666667,4108.935200583,4112.594009,5,NaN,4112.59947225,4112.61780075,4113.377803875,NaN,NaN
122,20,2,aesthetic,0,kitchen,sun_auticobqsbwgoppi.tif,214,1.5,0,1.18333333333333,4113.38218675,4117.426053833,3,NaN,4117.431502833,4117.449857458,4118.626563541,NaN,NaN
122,21,2,aesthetic,0,kitchen,sun_aenotlpyftoioydp.tif,192,1.5,0,0.7,4118.635822916,4123.345629125,2,NaN,4123.35138425,4123.369727833,4124.063066458,NaN,NaN
122,22,2,aesthetic,0,kitchen,labelme_brsyyvweiuaazfr.tif,171,1.5,0,0.7,4124.067611333,4127.490350916,4,NaN,4127.496559,4127.51479075,4128.208129708,NaN,NaN
122,23,2,aesthetic,0,kitchen,sun_abftihopvusyfakt.tif,181,1.5,0,1.55,4128.213266666,4130.982539416,7,NaN,4131.0109245,4131.033851875,4132.577226,NaN,NaN
122,24,2,aesthetic,0,kitchen,sun_aarfiyshqohlwkmo.tif,177,1.5,0,1.16666666666667,4132.590671625,4135.969760333,3,NaN,4135.975324583,4135.993725583,4137.153767583,NaN,NaN
122,25,2,aesthetic,0,kitchen,sun_amjjdeyrggfqgmom.tif,210,1.5,0,1.68333333333333,4137.164274541,4140.682308708,4,NaN,4140.687703291,4140.705996208,4142.382715291,NaN,NaN
