sub_num,trial,block,task,is_practice,category,image,texture,duration,mask_dur,jitter,stim_time,time_of_resp,trial_response,mask_time,fix_time,jit_onset,trial_end,trial_accuracy,RT
131,6,0,usability,1,kitchen,kitchen_practice2.tif,227,1.5,0,1.13333333333333,13469.81284775,13473.880452,5,NaN,13473.886099333,13473.904385541,13475.03113275,NaN,NaN
131,7,0,usability,1,kitchen,kitchen_practice3.tif,228,1.5,0,0.933333333333333,13475.039400875,13477.71194275,7,NaN,13477.717581083,13477.735884791,13478.662559875,NaN,NaN
131,8,0,usability,1,kitchen,kitchen_practice1.tif,226,1.5,0,1.48333333333333,13478.667056041,13481.4033395,2,NaN,13481.427779833,13481.449778083,13482.926499583,NaN,NaN
131,9,0,usability,1,kitchen,kitchen_practice4.tif,229,1.5,0,1.33333333333333,13482.93781325,13485.76815575,3,NaN,13485.773697458,13485.791920416,13487.118662458,NaN,NaN
131,10,0,usability,1,kitchen,kitchen_practice5.tif,230,1.5,0,1.3,13487.139064791,13489.767822458,7,NaN,13489.773421166,13489.791509541,13491.084945833,NaN,NaN
131,1,1,usability,0,kitchen,sun_amjjdeyrggfqgmom.tif,210,1.5,0,1.91666666666667,13495.48609225,13500.263636833,3,NaN,13500.269659625,13500.288040541,13502.198098333,NaN,NaN
131,2,1,usability,0,kitchen,sun_aymvwlarqodbwuoc.tif,218,1.5,0,0.85,13502.212755416,13505.119984833,5,NaN,13505.149322083,13505.172938833,13506.016280875,NaN,NaN
131,3,1,usability,0,kitchen,labelme_rykdqxenmhulbdn.tif,173,1.5,0,0.7,13506.021152416,13509.319871458,7,NaN,13509.325614583,13509.343974916,13510.037316208,NaN,NaN
131,4,1,usability,0,kitchen,sun_adgqasybjyktddhj.tif,188,1.5,0,1.6,13510.041950875,13513.103980416,6,NaN,13513.113098166,13513.132155125,13514.725541916,NaN,NaN
131,5,1,usability,0,kitchen,sun_aehawpgmrlhlvcow.tif,191,1.5,0,1.13333333333333,13514.74626275,13517.687670833,5,NaN,13517.693518416,13517.711917291,13518.838643166,NaN,NaN
131,6,1,usability,0,kitchen,sun_aadbddgrdsjugojn.tif,174,1.5,0,0.716666666666667,13518.848113125,13523.728114458,4,NaN,13523.733770916,13523.752189625,13524.462198708,NaN,NaN
131,7,1,usability,0,kitchen,sun_acwjdupvyjsugpay.tif,186,1.5,0,1.6,13524.466601083,13528.144207083,7,NaN,13528.15003175,13528.168408666,13529.76186325,NaN,NaN
131,8,1,usability,0,kitchen,sun_aixorpehvfykdynp.tif,205,1.5,0,1.68333333333333,13529.779358708,13532.903183291,6,NaN,13532.909079583,13532.927515458,13534.604271125,NaN,NaN
131,9,1,usability,0,kitchen,sun_auaiucuqpdausiva.tif,212,1.5,0,1.41666666666667,13534.622900458,13537.683980083,3,NaN,13537.712191375,13537.735904208,13539.145972875,NaN,NaN
131,10,1,usability,0,kitchen,sun_aamedkxepzlwuxes.tif,175,1.5,0,1,13539.164759541,13542.239880208,3,NaN,13542.245452666,13542.263950458,13543.257294708,NaN,NaN
131,11,1,usability,0,kitchen,sun_ahpczsiumwwocjkv.tif,202,1.5,0,1.33333333333333,13543.261675708,13546.815128375,6,NaN,13546.821741458,13546.840201666,13548.166966291,NaN,NaN
131,12,1,usability,0,kitchen,sun_aenotlpyftoioydp.tif,192,1.5,0,1.15,13548.181021625,13551.3114895,4,NaN,13551.317438916,13551.335816458,13552.479221666,NaN,NaN
131,13,1,usability,0,kitchen,sun_aexklacwqwezaorf.tif,194,1.5,0,1.86666666666667,13552.493782708,13557.319173208,3,NaN,13557.325371791,13557.343805875,13559.203879916,NaN,NaN
131,14,1,usability,0,kitchen,sun_aapllqyqlykszopd.tif,176,1.5,0,1.18333333333333,13559.226174166,13562.460619583,3,NaN,13562.491739416,13562.515676666,13563.692433166,NaN,NaN
131,15,1,usability,0,kitchen,sun_ahywdevtimnqcsln.tif,204,1.5,0,1.71666666666667,13563.703588125,13567.039961625,3,NaN,13567.045484791,13567.063779458,13568.773849333,NaN,NaN
131,16,1,usability,0,kitchen,sun_aggjlwcdjsjcaemh.tif,196,1.5,0,1.1,13568.794097625,13571.657025708,7,NaN,13571.686900958,13571.711367875,13572.804758125,NaN,NaN
131,17,1,usability,0,kitchen,sun_acxkpeoqbwcxfvip.tif,187,1.5,0,0.983333333333333,13572.82385275,13575.608104208,5,NaN,13575.613647458,13575.631959625,13576.608634625,NaN,NaN
131,18,1,usability,0,kitchen,sun_aeqdocilnnpuvuhx.tif,193,1.5,0,0.916666666666667,13576.622531,13579.451003833,4,NaN,13579.481570041,13579.506177791,13580.416187458,NaN,NaN
131,19,1,usability,0,kitchen,sun_akcjzhbbjlbogpdi.tif,209,1.5,0,0.716666666666667,13580.420816166,13584.3598025,3,NaN,13584.365536208,13584.383928625,13585.093935583,NaN,NaN
131,20,1,usability,0,kitchen,sun_ajcbwwvdlsvjyzje.tif,206,1.5,0,0.883333333333333,13585.098528583,13588.351763333,3,NaN,13588.357865666,13588.376043291,13589.252720416,NaN,NaN
131,21,1,usability,0,kitchen,sun_azmutvzbxypaceni.tif,220,1.5,0,1.93333333333333,13589.257381208,13593.023324958,7,NaN,13593.029346291,13593.04763075,13594.974352125,NaN,NaN
131,22,1,usability,0,kitchen,sun_awcpdzzznmweyyhv.tif,216,1.5,0,0.9,13594.99451375,13598.39955875,5,NaN,13598.406067625,13598.424313333,13599.317655958,NaN,NaN
131,23,1,usability,0,kitchen,sun_aunzlwrbjumxhwdj.tif,213,1.5,0,1.13333333333333,13599.322133416,13602.323093,1,NaN,13602.352221291,13602.375777625,13603.502500708,NaN,NaN
131,24,1,usability,0,kitchen,labelme_kxvouciolcpqplr.tif,172,1.5,0,0.766666666666667,13603.512175875,13606.359941916,3,NaN,13606.365461,13606.38370625,13607.143713958,NaN,NaN
131,25,1,usability,0,kitchen,sun_agubuxuukhzyzpdp.tif,198,1.5,0,0.966666666666667,13607.148109375,13610.479631083,4,NaN,13610.4852565,13610.503692875,13611.463699875,NaN,NaN
131,1,2,usability,0,kitchen,sun_ajkqhtgcbgpcwrwn.tif,207,1.5,0,1.56666666666667,13615.892462583,13619.287045166,2,NaN,13619.292963625,13619.311296833,13620.871388791,NaN,NaN
131,2,2,usability,0,kitchen,sun_avszsnwsbuqfgzbn.tif,215,1.5,0,1.2,13620.894799708,13623.772626625,3,NaN,13623.802581125,13623.826334708,13625.019733125,NaN,NaN
131,3,2,usability,0,kitchen,sun_admlmbcdswaszruo.tif,189,1.5,0,1.73333333333333,13625.036034541,13627.68688675,7,NaN,13627.692793708,13627.711158541,13629.437922208,NaN,NaN
131,4,2,usability,0,kitchen,sun_abdxkyyxwfskuaqb.tif,180,1.5,0,1.61666666666667,13629.45317175,13633.095698,6,NaN,13633.10178775,13633.120224583,13634.730299,NaN,NaN
131,5,2,usability,0,kitchen,sun_aypmqwcualkenuoe.tif,219,1.5,0,1.38333333333333,13634.747753625,13637.948617916,3,NaN,13637.978253666,13638.001655833,13639.378393416,NaN,NaN
131,6,2,usability,0,kitchen,sun_agzzivivdpnawacl.tif,199,1.5,0,1.73333333333333,13639.391508208,13643.015572166,2,NaN,13643.021150333,13643.039481083,13644.766231916,NaN,NaN
131,7,2,usability,0,kitchen,sun_aaxxjlsuzvqlgylf.tif,178,1.5,0,1.96666666666667,13644.777316541,13647.9524285,7,NaN,13647.982626458,13648.006041708,13649.966123541,NaN,NaN
131,8,2,usability,0,kitchen,sun_abftihopvusyfakt.tif,181,1.5,0,0.883333333333333,13649.984655416,13653.943791625,7,NaN,13653.949265083,13653.967799208,13654.844476666,NaN,NaN
131,9,2,usability,0,kitchen,sun_agorklincwxrdtga.tif,197,1.5,0,1.06666666666667,13654.855479458,13659.367588625,6,NaN,13659.373200583,13659.391473291,13660.45153175,NaN,NaN
131,10,2,usability,0,kitchen,labelme_brsyyvweiuaazfr.tif,171,1.5,0,1.06666666666667,13660.459728291,13663.655143208,6,NaN,13663.660903,13663.679319125,13664.739396541,NaN,NaN
131,11,2,usability,0,kitchen,sun_afuyedyxivkhecmu.tif,195,1.5,0,0.966666666666667,13664.756502708,13668.974655666,2,NaN,13668.980792625,13668.99908425,13669.959093875,NaN,NaN
131,12,2,usability,0,kitchen,sun_aegoxogugdkwpmpj.tif,190,1.5,0,1.78333333333333,13669.972070666,13673.671598833,5,NaN,13673.6771925,13673.695595916,13675.472320541,NaN,NaN
131,13,2,usability,0,kitchen,sun_axyyrmzcupyhlivc.tif,217,1.5,0,1.68333333333333,13675.492354875,13678.341210041,7,NaN,13678.370937583,13678.394461333,13680.071192541,NaN,NaN
131,14,2,usability,0,kitchen,sun_abpwyqmlzafvklqo.tif,182,1.5,0,0.983333333333333,13680.095282291,13683.663665791,4,NaN,13683.669604541,13683.688138666,13684.664816916,NaN,NaN
131,15,2,usability,0,kitchen,sun_abdenxonkemggwsq.tif,179,1.5,0,1.33333333333333,13684.669250458,13688.574974833,6,NaN,13688.580750958,13688.599121083,13689.925879291,NaN,NaN
131,16,2,usability,0,kitchen,sun_acgtpgfybqjmzeyw.tif,185,1.5,0,1.56666666666667,13689.943112416,13693.567004541,5,NaN,13693.572908458,13693.591192166,13695.151268083,NaN,NaN
131,17,2,usability,0,kitchen,sun_ahspylgoovwmwvgk.tif,203,1.5,0,1.66666666666667,13695.168539375,13699.28713625,4,NaN,13699.292857708,13699.311179375,13700.971247,NaN,NaN
131,18,2,usability,0,kitchen,sun_auticobqsbwgoppi.tif,214,1.5,0,1.86666666666667,13700.989303208,13704.013950833,4,NaN,13704.044058541,13704.067375708,13705.927470625,NaN,NaN
131,19,2,usability,0,kitchen,sun_aqeaevwwwjoqhzvl.tif,211,1.5,0,1.95,13705.942413791,13708.900992625,1,NaN,13708.93113425,13708.95496525,13710.898394583,NaN,NaN
131,20,2,usability,0,kitchen,sun_acfmftudsenhrfhy.tif,184,1.5,0,0.966666666666667,13710.917251375,13715.03144775,4,NaN,13715.036903583,13715.055744541,13716.015751541,NaN,NaN
131,21,2,usability,0,kitchen,sun_abrcnpqqhmjwekyf.tif,183,1.5,0,1.43333333333333,13716.020269833,13719.270635708,4,NaN,13719.276626958,13719.295030583,13720.72176875,NaN,NaN
131,22,2,usability,0,kitchen,sun_ahdycvpopffkzzsu.tif,200,1.5,0,0.85,13720.740515916,13726.343354625,5,NaN,13726.348963875,13726.36722675,13727.210570708,NaN,NaN
131,23,2,usability,0,kitchen,sun_ahljzhgcdpomplvg.tif,201,1.5,0,1.53333333333333,13727.214938583,13729.8823035,7,NaN,13729.911597333,13729.934842625,13731.461566083,NaN,NaN
131,24,2,usability,0,kitchen,sun_akchetnepxlcxhsu.tif,208,1.5,0,1.18333333333333,13731.47931325,13735.783388208,5,NaN,13735.789406791,13735.808383083,13736.985109333,NaN,NaN
131,25,2,usability,0,kitchen,sun_aarfiyshqohlwkmo.tif,177,1.5,0,1.86666666666667,13736.993703208,13740.398999583,3,NaN,13740.404673291,13740.423699416,13742.283756666,NaN,NaN
