sub_num,trial,block,task,is_practice,category,image,texture,duration,mask_dur,jitter,stim_time,time_of_resp,trial_response,mask_time,fix_time,jit_onset,trial_end,trial_accuracy,RT
132,1,0,categorization,1,kitchen,SHINEd_kitchen_practice2.tif,117,0.0666666666666667,0.0666666666666667,1.21666666666667,13300.160960375,13302.655325,9,13300.227646208,13300.287275083,13302.675021583,13303.885206917,1,2.49436462499943
132,2,0,categorization,1,bathroom,SHINEd_bathroom_practice5.tif,115,0.0666666666666667,0.0666666666666667,1.36666666666667,13303.93830825,13306.918984125,9,13304.01122175,13304.07270675,13306.942240542,13308.302438042,0,2.98067587500009
132,3,0,categorization,1,kitchen,SHINEd_kitchen_practice3.tif,118,0.0666666666666667,0.0666666666666667,1.85,13308.358599542,13311.04710375,13,13308.433450042,13308.495055375,13311.064669292,13312.908170417,0,2.68850420799936
132,4,0,categorization,1,bathroom,SHINEd_bathroom_practice1.tif,111,0.0666666666666667,0.0666666666666667,1.55,13312.935014958,13314.694573917,13,13313.005338375,13313.069196167,13314.704957792,13316.248457042,1,1.75955895900006
132,5,0,categorization,1,kitchen,SHINEd_kitchen_practice5.tif,120,0.0666666666666667,0.0666666666666667,1.48333333333333,13316.279171583,13321.050286375,13,13316.352189417,13316.414249458,13321.068496042,13322.546078958,0,4.77111479199993
132,6,0,categorization,1,kitchen,SHINEd_kitchen_practice4.tif,119,0.0666666666666667,0.0666666666666667,1.15,13322.574302375,13324.614862542,9,13322.643235292,13322.709111875,13324.628770167,13325.772291125,1,2.04056016699906
132,7,0,categorization,1,bathroom,SHINEd_bathroom_practice2.tif,112,0.0666666666666667,0.0666666666666667,0.733333333333333,13325.78248075,13327.782481208,13,13325.84799725,13325.916361875,13327.802093167,13328.528764292,1,2.0000004579997
132,8,0,categorization,1,bathroom,SHINEd_bathroom_practice3.tif,113,0.0666666666666667,0.0666666666666667,1.6,13328.533660042,13330.55127625,13,13328.595550417,13328.656636292,13330.558999042,13332.152370417,1,2.01761620800062
132,9,0,categorization,1,kitchen,SHINEd_kitchen_practice1.tif,116,0.0666666666666667,0.0666666666666667,0.716666666666667,13332.173750375,13335.086256875,13,13332.240477542,13332.307819375,13335.0936495,13335.803653792,0,2.91250650000075
132,10,0,categorization,1,bathroom,SHINEd_bathroom_practice4.tif,114,0.0666666666666667,0.0666666666666667,1.21666666666667,13335.808680833,13338.367117667,13,13335.870488917,13335.931604958,13338.383885792,13339.593925625,1,2.55843683399871
132,1,1,categorization,0,kitchen,SHINEd_sun_acxkpeoqbwcxfvip.tif,77,0.0666666666666667,0.0666666666666667,1.23333333333333,13425.221918333,13428.086094542,9,13425.2843105,13425.344800208,13428.097605583,13429.324304292,1,2.86417620900102
132,2,1,categorization,0,bathroom,SHINEd_sun_agguqiubmwhqqunb.tif,22,0.0666666666666667,0.0666666666666667,0.783333333333333,13429.340075208,13431.230851417,13,13429.407920833,13429.473344833,13431.242599583,13432.019270083,1,1.89077620900025
132,3,1,categorization,0,bathroom,SHINEd_sun_axxbkopsgyouuebh.tif,58,0.0666666666666667,0.0666666666666667,0.75,13432.024610667,13434.974726083,13,13432.086436583,13432.147441958,13434.983243833,13435.726581333,1,2.9501154160007
132,4,1,categorization,0,kitchen,SHINEd_sun_acgtpgfybqjmzeyw.tif,75,0.0666666666666667,0.0666666666666667,1.23333333333333,13435.73145075,13437.413862833,9,13435.793259083,13435.854148,13437.42304275,13438.649745167,1,1.6824120830006
132,5,1,categorization,0,bathroom,SHINEd_sun_anryaplzeujmzfkd.tif,39,0.0666666666666667,0.0666666666666667,1.13333333333333,13438.666777583,13440.005363208,9,13438.733837375,13438.800205625,13440.024450125,13441.151166458,0,1.33858562500063
132,6,1,categorization,0,bathroom,SHINEd_sun_aggnnqpdorgxpvce.tif,21,0.0666666666666667,0.0666666666666667,0.95,13441.161403458,13443.27796125,9,13441.227394,13441.295274,13443.298010042,13444.241349708,0,2.11655779200009
132,7,1,categorization,0,kitchen,SHINEd_sun_aegoxogugdkwpmpj.tif,80,0.0666666666666667,0.0666666666666667,0.733333333333333,13444.247045625,13447.4643315,9,13444.308861583,13444.369857583,13447.488417667,13448.215088875,1,3.21728587500002
132,8,1,categorization,0,kitchen,SHINEd_sun_adgqasybjyktddhj.tif,78,0.0666666666666667,0.0666666666666667,1.31666666666667,13448.2203685,13449.998611958,13,13448.282140375,13448.34332025,13450.012476625,13451.32251,0,1.77824345800036
132,9,1,categorization,0,kitchen,SHINEd_sun_avszsnwsbuqfgzbn.tif,105,0.0666666666666667,0.0666666666666667,0.8,13451.341142625,13453.222496625,9,13451.409295833,13451.473975792,13453.226951,13454.020290375,1,1.88135399999919
132,10,1,categorization,0,bathroom,SHINEd_sun_agrwbmhcpmfuwmsg.tif,24,0.0666666666666667,0.0666666666666667,0.716666666666667,13454.025697333,13455.44579825,9,13454.087660708,13454.1484365,13455.451462417,13456.161466375,0,1.42010091700104
132,11,1,categorization,0,bathroom,SHINEd_sun_anhioqovhscjqqwb.tif,38,0.0666666666666667,0.0666666666666667,0.916666666666667,13456.166814125,13459.037725125,9,13456.228581708,13456.289589042,13459.042374667,13459.952380833,0,2.87091099999998
132,12,1,categorization,0,kitchen,SHINEd_sun_abftihopvusyfakt.tif,71,0.0666666666666667,0.0666666666666667,0.95,13459.958088917,13461.229797875,13,13460.019747375,13460.080835958,13461.249900958,13462.19323875,0,1.27170895800009
132,13,1,categorization,0,bathroom,SHINEd_sun_aspsyogrekjtfozg.tif,50,0.0666666666666667,0.0666666666666667,0.833333333333333,13462.198786625,13464.214555542,13,13462.260730417,13462.321509542,13464.224156833,13465.050829208,1,2.01576891699915
132,14,1,categorization,0,kitchen,SHINEd_sun_aunzlwrbjumxhwdj.tif,103,0.0666666666666667,0.0666666666666667,0.75,13465.056534917,13466.965903375,9,13465.118296625,13465.179353417,13466.982154667,13467.725493042,1,1.90936845800024
132,15,1,categorization,0,bathroom,SHINEd_sun_azqyogdvyhahyram.tif,60,0.0666666666666667,0.0666666666666667,1.53333333333333,13467.730430875,13469.117869833,13,13467.792101667,13467.853195708,13469.122170333,13470.648890375,1,1.38743895799962
132,16,1,categorization,0,bathroom,SHINEd_sun_avhrdrntsqrjzccq.tif,55,0.0666666666666667,0.0666666666666667,1.05,13470.667038542,13473.557832417,13,13470.733822542,13470.800169042,13473.569905167,13474.613290667,1,2.89079387499987
132,17,1,categorization,0,bathroom,SHINEd_sun_atstyziqcmkahyxk.tif,51,0.0666666666666667,0.0666666666666667,0.9,13474.625588417,13476.231167958,13,13474.690504542,13474.756752417,13476.246614,13477.139952333,1,1.60557954099932
132,18,1,categorization,0,kitchen,SHINEd_sun_aymvwlarqodbwuoc.tif,108,0.0666666666666667,0.0666666666666667,1.18333333333333,13477.146698667,13480.431644417,9,13477.208493583,13477.269588208,13480.454811542,13481.631501125,1,3.28494574999968
132,19,1,categorization,0,kitchen,SHINEd_labelme_brsyyvweiuaazfr.tif,61,0.0666666666666667,0.0666666666666667,0.9,13481.640584208,13483.559204875,13,13481.705774292,13481.770241458,13483.573292708,13484.466632708,0,1.91862066700014
132,20,1,categorization,0,bathroom,SHINEd_sun_apmqjbnwghzuhhzh.tif,46,0.0666666666666667,0.0666666666666667,1.66666666666667,13484.472381708,13486.1260315,13,13484.534125917,13484.59519425,13486.130701167,13487.790733625,1,1.65364979200058
132,21,1,categorization,0,kitchen,SHINEd_sun_aapllqyqlykszopd.tif,66,0.0666666666666667,0.0666666666666667,1.13333333333333,13487.806379958,13490.590314458,9,13487.873353333,13487.93926225,13490.608209833,13491.734923208,1,2.78393450000112
132,22,1,categorization,0,kitchen,SHINEd_sun_abdenxonkemggwsq.tif,69,0.0666666666666667,0.0666666666666667,1.3,13491.748302667,13495.078004417,9,13491.813087208,13491.878061292,13495.096678792,13496.390047458,1,3.32970175000082
132,23,1,categorization,0,bathroom,SHINEd_sun_aleqenyvunhactkl.tif,32,0.0666666666666667,0.0666666666666667,1.93333333333333,13496.406699667,13497.672938833,13,13496.473859042,13496.541452958,13497.697013708,13499.623716708,1,1.26623916599965
132,24,1,categorization,0,kitchen,SHINEd_sun_ahpczsiumwwocjkv.tif,92,0.0666666666666667,0.0666666666666667,1,13499.636173875,13500.799640917,13,13499.70102625,13499.767803167,13500.823470792,13501.816808208,0,1.16346704199896
132,25,1,categorization,0,bathroom,SHINEd_sun_aqrpegblszgcoujh.tif,48,0.0666666666666667,0.0666666666666667,0.883333333333333,13501.822021583,13503.285937625,13,13501.883762833,13501.944994458,13503.297379167,13504.17404975,1,1.46391604199925
132,26,1,categorization,0,bathroom,SHINEd_sun_alkosphxlxwjwgjd.tif,34,0.0666666666666667,0.0666666666666667,1.95,13504.180524,13506.078304667,9,13504.242297875,13504.303352583,13506.08919875,13508.032573917,0,1.89778066700092
132,27,1,categorization,0,bathroom,SHINEd_sun_akiytfaagpdsphgz.tif,31,0.0666666666666667,0.0666666666666667,1.25,13508.050382458,13511.761069875,9,13508.117713125,13508.183433417,13511.777586958,13513.020955125,0,3.71068741700037
132,28,1,categorization,0,bathroom,SHINEd_sun_apkruvsevgegsdwp.tif,44,0.0666666666666667,0.0666666666666667,1.95,13513.03768825,13514.783958042,9,13513.104369375,13513.171703958,13514.813236333,13516.756615125,0,1.74626979200002
132,29,1,categorization,0,bathroom,SHINEd_sun_aljolscmmzydegqp.tif,33,0.0666666666666667,0.0666666666666667,1.91666666666667,13516.774286417,13518.470157708,13,13516.842206083,13516.9075755,13518.476909083,13520.386950792,1,1.695871291
132,30,1,categorization,0,bathroom,SHINEd_sun_alotolagknyrgtsk.tif,35,0.0666666666666667,0.0666666666666667,1.41666666666667,13520.406167583,13522.4864175,13,13520.475064167,13520.578333958,13522.4970465,13523.9070845,1,2.0802499170004
132,31,1,categorization,0,kitchen,SHINEd_sun_ahywdevtimnqcsln.tif,94,0.0666666666666667,0.0666666666666667,0.716666666666667,13523.924321375,13525.661643083,13,13523.990626792,13524.052719833,13525.671477958,13526.381484167,0,1.73732170800031
132,32,1,categorization,0,kitchen,SHINEd_sun_aggjlwcdjsjcaemh.tif,86,0.0666666666666667,0.0666666666666667,1.28333333333333,13526.387464208,13528.181814417,13,13526.449432292,13526.510215292,13528.195970542,13529.472676375,0,1.79435020899837
132,33,1,categorization,0,kitchen,SHINEd_labelme_rykdqxenmhulbdn.tif,63,0.0666666666666667,0.0666666666666667,0.9,13529.487955917,13530.951494667,13,13529.55644375,13529.621466875,13530.981055167,13531.874393375,0,1.46353875000023
132,34,1,categorization,0,kitchen,SHINEd_sun_aypmqwcualkenuoe.tif,109,0.0666666666666667,0.0666666666666667,0.8,13531.8798275,13534.717581875,9,13531.941505417,13532.002692583,13534.721720333,13535.515059583,1,2.83775437499935
132,35,1,categorization,0,kitchen,SHINEd_sun_akchetnepxlcxhsu.tif,98,0.0666666666666667,0.0666666666666667,1.01666666666667,13535.520577792,13537.581910292,9,13535.582313417,13535.643428458,13537.5963705,13538.606414625,1,2.06133249999948
132,36,1,categorization,0,kitchen,SHINEd_sun_acwjdupvyjsugpay.tif,76,0.0666666666666667,0.0666666666666667,0.85,13538.61659625,13539.709933042,9,13538.682063583,13538.748376167,13539.737051208,13540.58042625,1,1.09333679200063
132,37,1,categorization,0,bathroom,SHINEd_sun_ambriybtogmepttm.tif,36,0.0666666666666667,0.0666666666666667,1.51666666666667,13540.598096875,13542.821575083,9,13540.661105375,13540.720997708,13542.840264292,13544.350308458,0,2.22347820800132
132,38,1,categorization,0,kitchen,SHINEd_sun_agubuxuukhzyzpdp.tif,88,0.0666666666666667,0.0666666666666667,1.83333333333333,13544.367749583,13546.309773583,13,13544.434408625,13544.5007995,13546.3199495,13548.146653,0,1.94202399999995
132,39,1,categorization,0,bathroom,SHINEd_sun_ahcvzmoyaycdoftf.tif,27,0.0666666666666667,0.0666666666666667,0.716666666666667,13548.166320917,13550.678057417,9,13548.233298,13548.29993825,13550.68570975,13551.395714833,0,2.51173650000055
132,40,1,categorization,0,kitchen,SHINEd_sun_admlmbcdswaszruo.tif,79,0.0666666666666667,0.0666666666666667,0.9,13551.401508292,13552.757738625,9,13551.463306042,13551.52430175,13552.776745375,13553.670084333,1,1.35623033299998
132,41,1,categorization,0,kitchen,SHINEd_sun_axyyrmzcupyhlivc.tif,107,0.0666666666666667,0.0666666666666667,0.916666666666667,13553.674804958,13555.189305458,9,13553.736504542,13553.797638417,13555.199847917,13556.109854417,1,1.51450049999949
132,42,1,categorization,0,bathroom,SHINEd_sun_ajlawzvmubibwbpy.tif,30,0.0666666666666667,0.0666666666666667,0.816666666666667,13556.115600125,13558.670079292,9,13556.177372833,13556.238258042,13558.674105625,13559.484111917,0,2.55447916699995
132,43,1,categorization,0,bathroom,SHINEd_sun_acgyywnybuveqsro.tif,18,0.0666666666666667,0.0666666666666667,1.88333333333333,13559.489813708,13562.173349583,9,13559.551538292,13559.612979333,13562.181817833,13564.058525583,0,2.68353587499951
132,44,1,categorization,0,bathroom,SHINEd_sun_acduarbnmmoglmiv.tif,16,0.0666666666666667,0.0666666666666667,0.9,13564.076043083,13565.110103708,13,13564.144398792,13564.207627208,13565.130856583,13566.024195542,1,1.03406062500108
132,45,1,categorization,0,bathroom,SHINEd_sun_asfwthctfqerjvxr.tif,49,0.0666666666666667,0.0666666666666667,1,13566.030169667,13568.453347375,13,13566.091931,13566.152992,13568.472387583,13569.465725542,1,2.42317770800037
132,46,1,categorization,0,bathroom,SHINEd_sun_axldvoqbuvuggfmq.tif,57,0.0666666666666667,0.0666666666666667,0.733333333333333,13569.471431292,13570.925601042,13,13569.533184292,13569.594181792,13570.929750417,13571.656422917,1,1.45416974999898
132,47,1,categorization,0,bathroom,SHINEd_sun_aapitsgbtktqubfy.tif,12,0.0666666666666667,0.0666666666666667,0.883333333333333,13571.663548125,13574.573436458,13,13571.72537125,13571.7864085,13574.588899292,13575.465572042,1,2.90988833300071
132,48,1,categorization,0,kitchen,SHINEd_sun_auticobqsbwgoppi.tif,104,0.0666666666666667,0.0666666666666667,1.73333333333333,13575.471261542,13578.285077,13,13575.533031708,13575.59406125,13578.296532042,13580.023255125,0,2.81381545800105
132,49,1,categorization,0,kitchen,SHINEd_sun_abpwyqmlzafvklqo.tif,72,0.0666666666666667,0.0666666666666667,1.91666666666667,13580.040035708,13581.68588725,9,13580.108080917,13580.173185083,13581.691994083,13583.602031542,1,1.64585154199995
132,50,1,categorization,0,bathroom,SHINEd_sun_ahaulkltgpkeeemi.tif,26,0.0666666666666667,0.0666666666666667,1.35,13583.620183583,13586.685458667,9,13583.684331,13583.751639667,13586.704073458,13588.047451333,0,3.06527508399995
132,1,2,categorization,0,kitchen,SHINEd_sun_aarfiyshqohlwkmo.tif,67,0.0666666666666667,0.0666666666666667,0.95,13661.607803958,13663.87680425,9,13661.669499958,13661.730707792,13663.882943083,13664.82628325,1,2.26900029199896
132,2,2,categorization,0,kitchen,SHINEd_sun_ahdycvpopffkzzsu.tif,90,0.0666666666666667,0.0666666666666667,0.75,13664.832057292,13666.0211825,13,13664.893922625,13664.954758833,13666.039945125,13666.783284875,0,1.18912520800041
132,3,2,categorization,0,bathroom,SHINEd_sun_ahijqszoswveeyji.tif,28,0.0666666666666667,0.0666666666666667,1.68333333333333,13666.7889685,13669.333175833,13,13666.850682792,13666.911669542,13669.347636,13671.024347083,1,2.5442073330014
132,4,2,categorization,0,kitchen,SHINEd_sun_ajcbwwvdlsvjyzje.tif,96,0.0666666666666667,0.0666666666666667,0.816666666666667,13671.041851375,13672.989067708,9,13671.110196083,13671.173963458,13672.993745208,13673.803749375,1,1.94721633300105
132,5,2,categorization,0,bathroom,SHINEd_sun_apynckhmoftszqoq.tif,47,0.0666666666666667,0.0666666666666667,0.916666666666667,13673.808852625,13675.013322083,13,13673.870659583,13673.93169575,13675.017091625,13675.927097083,1,1.20446945799995
132,6,2,categorization,0,kitchen,SHINEd_sun_ajkqhtgcbgpcwrwn.tif,97,0.0666666666666667,0.0666666666666667,1.21666666666667,13675.932865833,13677.845312708,9,13675.9947765,13676.05569625,13677.857868542,13679.067925083,1,1.91244687499966
132,7,2,categorization,0,bathroom,SHINEd_sun_ausgutylgojavyoq.tif,53,0.0666666666666667,0.0666666666666667,0.9,13679.084367208,13681.116779083,13,13679.151227083,13679.217110458,13681.136579083,13682.029918583,1,2.03241187500134
132,8,2,categorization,0,kitchen,SHINEd_sun_aixorpehvfykdynp.tif,95,0.0666666666666667,0.0666666666666667,1.65,13682.035481917,13683.229592667,13,13682.097317125,13682.158311958,13683.244312958,13684.887695125,0,1.1941107499988
132,9,2,categorization,0,bathroom,SHINEd_sun_amzlamotzwfkwjco.tif,37,0.0666666666666667,0.0666666666666667,1.15,13684.905414208,13687.005168833,13,13684.973847125,13685.038303583,13687.024033167,13688.167412125,1,2.09975462500006
132,10,2,categorization,0,bathroom,SHINEd_sun_aghyqhbptboemmoq.tif,23,0.0666666666666667,0.0666666666666667,1.13333333333333,13688.177245083,13690.908819333,9,13688.244296667,13688.310941167,13690.913406042,13692.040105417,0,2.73157425000136
132,11,2,categorization,0,kitchen,SHINEd_sun_ahljzhgcdpomplvg.tif,91,0.0666666666666667,0.0666666666666667,1.76666666666667,13692.05071375,13693.54218,9,13692.11642625,13692.183633583,13693.558890792,13695.318932583,1,1.49146624999958
132,12,2,categorization,0,kitchen,SHINEd_sun_aenotlpyftoioydp.tif,82,0.0666666666666667,0.0666666666666667,1.8,13695.3369875,13696.828983583,13,13695.405864167,13695.470569083,13696.839637542,13698.633010042,0,1.49199608299932
132,13,2,categorization,0,kitchen,SHINEd_sun_auaiucuqpdausiva.tif,102,0.0666666666666667,0.0666666666666667,0.9,13698.651025,13701.733156792,9,13698.717815958,13698.784498417,13701.736632167,13702.629972333,1,3.08213179199993
132,14,2,categorization,0,bathroom,SHINEd_sun_apeeialkgkuxddgh.tif,42,0.0666666666666667,0.0666666666666667,0.716666666666667,13702.635980583,13703.652843417,13,13702.697805583,13702.758824917,13703.660548917,13704.370554333,1,1.01686283399977
132,15,2,categorization,0,bathroom,SHINEd_sun_awnqiikzaispgmwo.tif,56,0.0666666666666667,0.0666666666666667,1.36666666666667,13704.3763615,13706.917230458,9,13704.438056542,13704.499133042,13706.935204958,13708.29524025,0,2.54086895799992
132,16,2,categorization,0,kitchen,SHINEd_sun_awcpdzzznmweyyhv.tif,106,0.0666666666666667,0.0666666666666667,0.916666666666667,13708.316439125,13709.776225208,13,13708.3833385,13708.44844025,13709.806427167,13710.716432875,0,1.45978608299993
132,17,2,categorization,0,bathroom,SHINEd_sun_axyrejkiiaqiurjk.tif,59,0.0666666666666667,0.0666666666666667,0.716666666666667,13710.72230325,13713.54072625,9,13710.784107083,13710.844948542,13713.547566667,13714.257571917,0,2.8184229999988
132,18,2,categorization,0,bathroom,SHINEd_sun_auzqhkafidnkrwmo.tif,54,0.0666666666666667,0.0666666666666667,0.766666666666667,13714.263267417,13715.724658,13,13714.324912167,13714.386063875,13715.738271917,13716.498276125,1,1.46139058299923
132,19,2,categorization,0,bathroom,SHINEd_sun_apjevzvycyhuqghb.tif,43,0.0666666666666667,0.0666666666666667,1.06666666666667,13716.503818708,13717.829088375,13,13716.565624458,13716.626667833,13717.845443708,13718.905512,1,1.32526966699879
132,20,2,categorization,0,kitchen,SHINEd_labelme_kxvouciolcpqplr.tif,62,0.0666666666666667,0.0666666666666667,0.8,13718.916325167,13721.084862542,13,13718.980921917,13719.047610958,13721.099932875,13721.893269958,0,2.1685373750006
132,21,2,categorization,0,bathroom,SHINEd_sun_aofnryafpsjimzsb.tif,40,0.0666666666666667,0.0666666666666667,0.866666666666667,13721.89828175,13723.845340917,9,13721.960160958,13722.021165042,13723.856485292,13724.716490958,0,1.94705916699968
132,22,2,categorization,0,kitchen,SHINEd_sun_azmutvzbxypaceni.tif,110,0.0666666666666667,0.0666666666666667,1.48333333333333,13724.7221865,13726.221556542,9,13724.783868833,13724.844920417,13726.230755875,13727.707460125,1,1.49937004200001
132,23,2,categorization,0,kitchen,SHINEd_sun_aeqdocilnnpuvuhx.tif,83,0.0666666666666667,0.0666666666666667,1.1,13727.717696875,13729.860691917,9,13727.781981708,13727.850505625,13729.869879625,13730.963250208,1,2.14299504200062
132,24,2,categorization,0,bathroom,SHINEd_labelme_sfxiulhjbhlyiyt.tif,11,0.0666666666666667,0.0666666666666667,0.783333333333333,13730.972549375,13732.124381625,13,13731.037299833,13731.105524583,13732.146964125,13732.92368,1,1.15183225000146
132,25,2,categorization,0,bathroom,SHINEd_sun_abapwbhyhkfixyex.tif,14,0.0666666666666667,0.0666666666666667,0.866666666666667,13732.931170625,13734.428840583,13,13732.993490333,13733.053905458,13734.439444208,13735.299450333,1,1.49766995800019
132,26,2,categorization,0,bathroom,SHINEd_sun_abjtwfukuwddzted.tif,15,0.0666666666666667,0.0666666666666667,1.83333333333333,13735.30512525,13736.34879775,9,13735.366807208,13735.427883917,13736.363353042,13738.190070958,0,1.04367249999996
132,27,2,categorization,0,kitchen,SHINEd_sun_aqeaevwwwjoqhzvl.tif,101,0.0666666666666667,0.0666666666666667,0.7,13738.209371792,13739.796970125,13,13738.276443625,13738.342396083,13739.811363708,13740.504701625,0,1.58759833300064
132,28,2,categorization,0,kitchen,SHINEd_sun_afuyedyxivkhecmu.tif,85,0.0666666666666667,0.0666666666666667,1.33333333333333,13740.510246125,13742.196894167,9,13740.571951583,13740.633000375,13742.202174833,13743.528882667,1,1.68664804199943
132,29,2,categorization,0,kitchen,SHINEd_sun_abdxkyyxwfskuaqb.tif,70,0.0666666666666667,0.0666666666666667,1.33333333333333,13743.547454917,13745.30883475,9,13743.614322583,13743.678349917,13745.3145925,13746.641314292,1,1.76137983300032
132,30,2,categorization,0,bathroom,SHINEd_sun_aclfzgynxzxlbepz.tif,19,0.0666666666666667,0.0666666666666667,1.38333333333333,13746.659799583,13747.728245917,13,13746.726431417,13746.794549417,13747.749693375,13749.126409375,1,1.06844633400033
132,31,2,categorization,0,kitchen,SHINEd_sun_aaxxjlsuzvqlgylf.tif,68,0.0666666666666667,0.0666666666666667,1.25,13749.148480625,13750.316801208,9,13749.215210792,13749.281529458,13750.3376265,13751.581014583,1,1.16832058300133
132,32,2,categorization,0,bathroom,SHINEd_sun_aavhrsfjbserjtht.tif,13,0.0666666666666667,0.0666666666666667,1.55,13751.592987958,13752.889663625,13,13751.657360792,13751.724737875,13752.916111833,13754.459503958,1,1.29667566699936
132,33,2,categorization,0,kitchen,SHINEd_sun_aadbddgrdsjugojn.tif,64,0.0666666666666667,0.0666666666666667,1.61666666666667,13754.477481708,13755.61904475,9,13754.546239833,13754.6107,13755.633387208,13757.243438042,1,1.14156304199969
132,34,2,categorization,0,kitchen,SHINEd_sun_akcjzhbbjlbogpdi.tif,99,0.0666666666666667,0.0666666666666667,1.33333333333333,13757.260907542,13758.9652255,9,13757.328390708,13757.394475083,13758.980544458,13760.30724825,1,1.70431795799959
132,35,2,categorization,0,kitchen,SHINEd_sun_ahspylgoovwmwvgk.tif,93,0.0666666666666667,0.0666666666666667,0.833333333333333,13760.325520083,13761.742358708,9,13760.393719625,13760.459225042,13761.766406375,13762.593078875,1,1.41683862499849
132,36,2,categorization,0,bathroom,SHINEd_sun_ahqjwnzgolcaoidx.tif,29,0.0666666666666667,0.0666666666666667,1.45,13762.599408833,13763.389058083,13,13762.661640083,13762.722258625,13763.407819042,13764.851206917,1,0.789649249998547
132,37,2,categorization,0,bathroom,SHINEd_sun_apkxzenqapsujocq.tif,45,0.0666666666666667,0.0666666666666667,0.933333333333333,13764.869011542,13766.310293458,13,13764.937150958,13765.002154458,13766.327347708,13767.2540195,1,1.44128191600066
132,38,2,categorization,0,kitchen,SHINEd_sun_amjjdeyrggfqgmom.tif,100,0.0666666666666667,0.0666666666666667,1.65,13767.259683333,13768.364902458,9,13767.321495625,13767.382389583,13768.384290208,13770.027678875,1,1.10521912500008
132,39,2,categorization,0,kitchen,SHINEd_sun_acfmftudsenhrfhy.tif,74,0.0666666666666667,0.0666666666666667,1.23333333333333,13770.048124,13771.612269042,9,13770.1151435,13770.181298083,13771.616952625,13772.843664583,1,1.56414504199893
132,40,2,categorization,0,kitchen,SHINEd_sun_aexklacwqwezaorf.tif,84,0.0666666666666667,0.0666666666666667,0.766666666666667,13772.860805292,13774.213084583,9,13772.92741,13772.995222833,13774.237807208,13774.997814417,1,1.35227929099892
132,41,2,categorization,0,bathroom,SHINEd_sun_afcoljnjfoxjtgja.tif,20,0.0666666666666667,0.0666666666666667,1.78333333333333,13775.003615375,13776.004315333,13,13775.06538225,13775.126510708,13776.011645833,13777.788348292,1,1.00069995800004
132,42,2,categorization,0,kitchen,SHINEd_sun_agorklincwxrdtga.tif,87,0.0666666666666667,0.0666666666666667,1.11666666666667,13777.801843167,13778.839230167,9,13777.870250375,13777.934934083,13778.856683667,13779.966740208,1,1.03738699999849
132,43,2,categorization,0,kitchen,SHINEd_sun_agzzivivdpnawacl.tif,89,0.0666666666666667,0.0666666666666667,1.85,13779.977033792,13783.776612208,9,13780.04193825,13780.109853708,13783.795035917,13785.6384255,1,3.79957841599935
132,44,2,categorization,0,kitchen,SHINEd_sun_aamedkxepzlwuxes.tif,65,0.0666666666666667,0.0666666666666667,0.733333333333333,13785.653016458,13787.420768375,13,13785.718261375,13785.783943125,13787.436582167,13788.163255625,0,1.76775191699926
132,45,2,categorization,0,bathroom,SHINEd_sun_aoybiabnpadelefl.tif,41,0.0666666666666667,0.0666666666666667,0.783333333333333,13788.168909625,13789.205358,9,13788.230656917,13788.291691083,13789.210477417,13789.987148917,0,1.03644837499996
132,46,2,categorization,0,bathroom,SHINEd_sun_acegryoqftbzowsg.tif,17,0.0666666666666667,0.0666666666666667,1.5,13789.99292275,13790.89333925,9,13790.054641125,13790.115714792,13790.901084958,13792.394463833,0,0.900416500000574
132,47,2,categorization,0,bathroom,SHINEd_sun_agyqfjcfkdcydepw.tif,25,0.0666666666666667,0.0666666666666667,0.733333333333333,13792.41651825,13793.815318042,9,13792.483726792,13792.549441417,13793.8399125,13794.566585958,0,1.39879979199941
132,48,2,categorization,0,kitchen,SHINEd_sun_abrcnpqqhmjwekyf.tif,73,0.0666666666666667,0.0666666666666667,1.1,13794.572394417,13795.8686115,9,13794.634180417,13794.695324292,13795.880960625,13796.974337625,1,1.29621708299965
132,49,2,categorization,0,kitchen,SHINEd_sun_aehawpgmrlhlvcow.tif,81,0.0666666666666667,0.0666666666666667,1.6,13796.98366125,13798.678143083,9,13797.0486635,13797.116367417,13798.708514792,13800.30188925,1,1.69448183299937
132,50,2,categorization,0,bathroom,SHINEd_sun_aunuadmjocsddsrl.tif,52,0.0666666666666667,0.0666666666666667,1.06666666666667,13800.321138875,13801.225132208,13,13800.388440958,13800.454566417,13801.244685083,13802.304731583,1,0.903993332998652
132,1,3,categorization,0,bathroom,SHINEd_sun_acgyywnybuveqsro.tif,18,0.0666666666666667,0.0666666666666667,0.85,13830.448225708,13833.164241125,13,13830.51084825,13830.571188042,13833.173639958,13834.016978208,1,2.71601541699965
132,2,3,categorization,0,kitchen,SHINEd_sun_ahdycvpopffkzzsu.tif,90,0.0666666666666667,0.0666666666666667,1.65,13834.0225495,13836.461105083,13,13834.084320333,13834.1452965,13836.481145042,13838.124527167,0,2.43855558300129
132,3,3,categorization,0,bathroom,SHINEd_sun_ahqjwnzgolcaoidx.tif,29,0.0666666666666667,0.0666666666666667,0.783333333333333,13838.142475042,13839.740289458,9,13838.210454417,13838.275738375,13839.744723708,13840.521395667,0,1.59781441599989
132,4,3,categorization,0,kitchen,SHINEd_sun_agubuxuukhzyzpdp.tif,88,0.0666666666666667,0.0666666666666667,0.933333333333333,13840.527995792,13842.732865833,9,13840.589750667,13840.650739875,13842.753311042,13843.67998225,1,2.20487004100141
132,5,3,categorization,0,bathroom,SHINEd_sun_aljolscmmzydegqp.tif,33,0.0666666666666667,0.0666666666666667,0.866666666666667,13843.6847135,13845.172601833,9,13843.746513375,13843.807552333,13845.176281083,13846.036287708,0,1.48788833299841
132,6,3,categorization,0,kitchen,SHINEd_sun_aapllqyqlykszopd.tif,66,0.0666666666666667,0.0666666666666667,1.11666666666667,13846.041869917,13847.612961625,13,13846.103707833,13846.165077833,13847.617474625,13848.727510167,0,1.57109170799959
132,7,3,categorization,0,kitchen,SHINEd_sun_aegoxogugdkwpmpj.tif,80,0.0666666666666667,0.0666666666666667,0.966666666666667,13848.740430042,13850.892616458,13,13848.805193292,13848.872242083,13850.908125542,13851.868130708,0,2.1521864160004
132,8,3,categorization,0,bathroom,SHINEd_sun_agguqiubmwhqqunb.tif,22,0.0666666666666667,0.0666666666666667,1.78333333333333,13851.873577125,13854.228228625,9,13851.935327292,13851.996422333,13854.232160958,13856.008883917,0,2.35465149999982
132,9,3,categorization,0,kitchen,SHINEd_sun_ahpczsiumwwocjkv.tif,92,0.0666666666666667,0.0666666666666667,1.55,13856.024036583,13857.31633975,13,13856.093132792,13856.152121875,13857.321269917,13858.864646458,0,1.29230316699977
132,10,3,categorization,0,bathroom,SHINEd_sun_apkruvsevgegsdwp.tif,44,0.0666666666666667,0.0666666666666667,1.41666666666667,13858.882864375,13860.92503725,13,13858.950072458,13859.015953583,13860.935393042,13862.345442375,1,2.04217287499887
132,11,3,categorization,0,kitchen,SHINEd_sun_abpwyqmlzafvklqo.tif,72,0.0666666666666667,0.0666666666666667,0.8,13862.365018542,13864.093349542,9,13862.432010292,13862.497973792,13864.100526833,13864.893864292,1,1.72833100000025
132,12,3,categorization,0,bathroom,SHINEd_sun_axyrejkiiaqiurjk.tif,59,0.0666666666666667,0.0666666666666667,1.28333333333333,13864.899580167,13867.308553708,9,13864.961334,13865.022306958,13867.324394458,13868.601109292,0,2.4089735409998
132,13,3,categorization,0,bathroom,SHINEd_sun_apkxzenqapsujocq.tif,45,0.0666666666666667,0.0666666666666667,1.66666666666667,13868.619689333,13869.324773875,13,13868.688097542,13868.753094792,13869.342518333,13871.002556083,1,0.705084541999895
132,14,3,categorization,0,kitchen,SHINEd_sun_abrcnpqqhmjwekyf.tif,73,0.0666666666666667,0.0666666666666667,1.81666666666667,13871.022268792,13872.355943917,9,13871.089471958,13871.155297542,13872.380541625,13874.190585917,1,1.33367512500081
132,15,3,categorization,0,kitchen,SHINEd_sun_agorklincwxrdtga.tif,87,0.0666666666666667,0.0666666666666667,1.35,13874.209828583,13875.230904125,9,13874.276686,13874.3426855,13875.248035542,13876.591426833,1,1.02107554199938
132,16,3,categorization,0,bathroom,SHINEd_sun_ausgutylgojavyoq.tif,53,0.0666666666666667,0.0666666666666667,0.916666666666667,13876.610257875,13880.37600375,13,13876.677538208,13876.743419,13880.395415875,13881.305419875,1,3.76574587499999
132,17,3,categorization,0,bathroom,SHINEd_sun_agyqfjcfkdcydepw.tif,25,0.0666666666666667,0.0666666666666667,0.916666666666667,13881.311303708,13883.740466208,13,13881.37302575,13881.434054917,13883.75343475,13884.663440417,1,2.42916250000053
132,18,3,categorization,0,kitchen,SHINEd_sun_aaxxjlsuzvqlgylf.tif,68,0.0666666666666667,0.0666666666666667,1.31666666666667,13884.668305917,13885.604678333,9,13884.730061583,13884.791112,13885.609948333,13886.919982417,1,0.936372415999358
132,19,3,categorization,0,kitchen,SHINEd_labelme_brsyyvweiuaazfr.tif,61,0.0666666666666667,0.0666666666666667,1.45,13886.937272875,13888.126398,9,13887.00544925,13887.07039825,13888.143300375,13889.586687625,1,1.18912512499992
132,20,3,categorization,0,kitchen,SHINEd_sun_aexklacwqwezaorf.tif,84,0.0666666666666667,0.0666666666666667,0.95,13889.605580042,13891.04429275,13,13889.670955542,13889.737347958,13891.061194167,13892.004533667,0,1.43871270800082
132,21,3,categorization,0,kitchen,SHINEd_labelme_rykdqxenmhulbdn.tif,63,0.0666666666666667,0.0666666666666667,1.38333333333333,13892.009615292,13893.88411025,9,13892.071336,13892.132424708,13893.901527208,13895.278252333,1,1.87449495799956
132,22,3,categorization,0,bathroom,SHINEd_sun_amzlamotzwfkwjco.tif,37,0.0666666666666667,0.0666666666666667,1.16666666666667,13895.297954917,13897.244298,9,13895.364568667,13895.431067833,13897.250624125,13898.410658542,0,1.9463430830001
132,23,3,categorization,0,bathroom,SHINEd_sun_apynckhmoftszqoq.tif,47,0.0666666666666667,0.0666666666666667,1.61666666666667,13898.420488167,13900.231407292,13,13898.487624,13898.554502292,13900.263335,13901.873382208,1,1.81091912500051
132,24,3,categorization,0,kitchen,SHINEd_labelme_kxvouciolcpqplr.tif,62,0.0666666666666667,0.0666666666666667,1.38333333333333,13901.89107625,13904.452289333,9,13901.959613583,13902.024040208,13904.460459625,13905.837169292,1,2.56121308299953
132,25,3,categorization,0,bathroom,SHINEd_sun_ajlawzvmubibwbpy.tif,30,0.0666666666666667,0.0666666666666667,1.78333333333333,13905.855271625,13907.75592425,9,13905.924073958,13905.988089208,13907.773978167,13909.550691292,0,1.90065262499957
132,26,3,categorization,0,kitchen,SHINEd_sun_aamedkxepzlwuxes.tif,65,0.0666666666666667,0.0666666666666667,0.783333333333333,13909.568527542,13911.22860825,9,13909.63700625,13909.6952785,13911.247987208,13912.024659292,1,1.66008070799944
132,27,3,categorization,0,bathroom,SHINEd_sun_abapwbhyhkfixyex.tif,14,0.0666666666666667,0.0666666666666667,1.65,13912.029889833,13913.052836208,9,13912.091549125,13912.152708958,13913.071210417,13914.714592375,0,1.02294637500017
132,28,3,categorization,0,bathroom,SHINEd_sun_ahcvzmoyaycdoftf.tif,27,0.0666666666666667,0.0666666666666667,1.86666666666667,13914.733346875,13915.977726167,13,13914.800552917,13914.866498,13916.008705875,13917.868741917,1,1.2443792920003
132,29,3,categorization,0,kitchen,SHINEd_sun_avszsnwsbuqfgzbn.tif,105,0.0666666666666667,0.0666666666666667,1.23333333333333,13917.886070792,13920.251781125,9,13917.952785667,13918.020669542,13920.256695375,13921.483416792,1,2.36571033300061
132,30,3,categorization,0,bathroom,SHINEd_sun_aclfzgynxzxlbepz.tif,19,0.0666666666666667,0.0666666666666667,0.7,13921.499408458,13922.925448542,13,13921.566159583,13921.632623583,13922.957611667,13923.650949417,1,1.42604008400122
132,31,3,categorization,0,bathroom,SHINEd_sun_aggnnqpdorgxpvce.tif,21,0.0666666666666667,0.0666666666666667,0.716666666666667,13923.656673875,13925.9318875,13,13923.718457542,13923.779645917,13925.948450125,13926.658455792,1,2.27521362500011
132,32,3,categorization,0,kitchen,SHINEd_sun_awcpdzzznmweyyhv.tif,106,0.0666666666666667,0.0666666666666667,1.05,13926.66402425,13927.956105667,9,13926.726143792,13926.7868145,13927.972368583,13929.015755,1,1.2920814170011
132,33,3,categorization,0,kitchen,SHINEd_sun_akchetnepxlcxhsu.tif,98,0.0666666666666667,0.0666666666666667,1.1,13929.028524667,13930.912596375,13,13929.094550917,13929.159911667,13930.935517583,13932.028888208,0,1.88407170800019
132,34,3,categorization,0,kitchen,SHINEd_sun_aymvwlarqodbwuoc.tif,108,0.0666666666666667,0.0666666666666667,1.13333333333333,13932.039612167,13934.227790417,9,13932.104594792,13932.172488958,13934.242241458,13935.368950625,1,2.18817825000042
132,35,3,categorization,0,bathroom,SHINEd_sun_apmqjbnwghzuhhzh.tif,46,0.0666666666666667,0.0666666666666667,1.38333333333333,13935.37924675,13938.116764958,13,13935.444115625,13935.512544833,13938.131664083,13939.508383375,1,2.73751820799953
132,36,3,categorization,0,kitchen,SHINEd_sun_auaiucuqpdausiva.tif,102,0.0666666666666667,0.0666666666666667,1.5,13939.522247833,13940.529140292,13,13939.588780958,13939.652727042,13940.559486167,13942.0528575,0,1.00689245899957
132,37,3,categorization,0,kitchen,SHINEd_sun_aunzlwrbjumxhwdj.tif,103,0.0666666666666667,0.0666666666666667,1.61666666666667,13942.072630417,13943.559558667,13,13942.14004325,13942.206293292,13943.579581708,13945.189623625,0,1.48692825000035
132,38,3,categorization,0,kitchen,SHINEd_sun_ajkqhtgcbgpcwrwn.tif,97,0.0666666666666667,0.0666666666666667,0.983333333333333,13945.208325833,13946.520240042,9,13945.275145667,13945.341709458,13946.549271208,13947.525941458,1,1.31191420899995
132,39,3,categorization,0,bathroom,SHINEd_sun_avhrdrntsqrjzccq.tif,55,0.0666666666666667,0.0666666666666667,1.3,13947.531092333,13949.044227708,9,13947.593020708,13947.653867167,13949.056129792,13950.349515208,0,1.51313537500027
132,40,3,categorization,0,kitchen,SHINEd_sun_aeqdocilnnpuvuhx.tif,83,0.0666666666666667,0.0666666666666667,1.03333333333333,13950.368123542,13951.241310792,9,13950.437002542,13950.5011825,13951.256775292,13952.283502875,1,0.873187249999319
132,41,3,categorization,0,kitchen,SHINEd_sun_afuyedyxivkhecmu.tif,85,0.0666666666666667,0.0666666666666667,1.45,13952.297149167,13953.343143375,9,13952.362253083,13952.42913025,13953.369331458,13954.812719083,1,1.04599420799968
132,42,3,categorization,0,bathroom,SHINEd_sun_alotolagknyrgtsk.tif,35,0.0666666666666667,0.0666666666666667,1.23333333333333,13954.831311167,13956.142813625,9,13954.89845275,13954.964438208,13956.173365917,13957.40007675,0,1.31150245800018
132,43,3,categorization,0,kitchen,SHINEd_sun_ajcbwwvdlsvjyzje.tif,96,0.0666666666666667,0.0666666666666667,1.26666666666667,13957.416348,13958.992585208,9,13957.483583375,13957.549418417,13959.024459083,13960.284501833,1,1.57623720799893
132,44,3,categorization,0,kitchen,SHINEd_sun_adgqasybjyktddhj.tif,78,0.0666666666666667,0.0666666666666667,1.03333333333333,13960.303323292,13961.442256417,9,13960.370223708,13960.436524125,13961.459544167,13962.486247375,1,1.13893312499931
132,45,3,categorization,0,kitchen,SHINEd_sun_aenotlpyftoioydp.tif,82,0.0666666666666667,0.0666666666666667,1.31666666666667,13962.499412542,13964.143972583,13,13962.565067292,13962.630971333,13964.174192333,13965.484236292,0,1.64456004100066
132,46,3,categorization,0,kitchen,SHINEd_sun_aqeaevwwwjoqhzvl.tif,101,0.0666666666666667,0.0666666666666667,1.7,13965.502577583,13966.601557333,9,13965.570985792,13965.635708958,13966.626050125,13968.319434667,1,1.09897975000058
132,47,3,categorization,0,kitchen,SHINEd_sun_acgtpgfybqjmzeyw.tif,75,0.0666666666666667,0.0666666666666667,1.35,13968.337947792,13969.472426583,9,13968.40525975,13968.471436583,13969.495644833,13970.839018208,1,1.1344787909984
132,48,3,categorization,0,kitchen,SHINEd_sun_abftihopvusyfakt.tif,71,0.0666666666666667,0.0666666666666667,0.8,13970.858541583,13972.924265917,9,13970.925417375,13970.991387792,13972.94405325,13973.737391375,1,2.06572433399924
132,49,3,categorization,0,bathroom,SHINEd_sun_anryaplzeujmzfkd.tif,39,0.0666666666666667,0.0666666666666667,0.766666666666667,13973.742155375,13976.975811,9,13973.804079375,13973.86488625,13976.992659417,13977.752663583,0,3.23365562500112
132,50,3,categorization,0,bathroom,SHINEd_sun_aleqenyvunhactkl.tif,32,0.0666666666666667,0.0666666666666667,1.38333333333333,13977.757192708,13978.4681155,13,13977.818845042,13977.880023792,13978.481884333,13979.858600833,1,0.71092279199911
132,1,4,categorization,0,bathroom,SHINEd_sun_abjtwfukuwddzted.tif,15,0.0666666666666667,0.0666666666666667,1,14017.119655958,14018.884287667,9,14017.181458417,14017.24271525,14018.895503667,14019.888841125,0,1.76463170900024
132,2,4,categorization,0,bathroom,SHINEd_sun_aqrpegblszgcoujh.tif,48,0.0666666666666667,0.0666666666666667,0.966666666666667,14019.894665875,14021.011979167,13,14019.956314042,14020.017423375,14021.019324333,14021.979329375,1,1.1173132920012
132,3,4,categorization,0,bathroom,SHINEd_sun_aapitsgbtktqubfy.tif,12,0.0666666666666667,0.0666666666666667,1.75,14021.984369125,14023.724103125,13,14022.046087125,14022.107058792,14023.742593583,14025.485982667,1,1.73973399999886
132,4,4,categorization,0,bathroom,SHINEd_sun_azqyogdvyhahyram.tif,60,0.0666666666666667,0.0666666666666667,1.68333333333333,14025.503426625,14026.491941542,13,14025.571135333,14025.635150917,14026.5078715,14028.1845885,1,0.98851491700043
132,5,4,categorization,0,kitchen,SHINEd_sun_auticobqsbwgoppi.tif,104,0.0666666666666667,0.0666666666666667,1.58333333333333,14028.202915042,14029.360907125,9,14028.270282083,14028.335818333,14029.375532833,14030.952249167,1,1.15799208299904
132,6,4,categorization,0,bathroom,SHINEd_sun_ahijqszoswveeyji.tif,28,0.0666666666666667,0.0666666666666667,1,14030.970813,14033.084229958,13,14031.037899542,14031.104039333,14033.090168208,14034.083506208,1,2.11341695800002
132,7,4,categorization,0,bathroom,SHINEd_sun_axldvoqbuvuggfmq.tif,57,0.0666666666666667,0.0666666666666667,1.33333333333333,14034.088959708,14035.067815875,13,14034.150687417,14034.2121615,14035.0808865,14036.4075985,1,0.978856166999321
132,8,4,categorization,0,kitchen,SHINEd_sun_aarfiyshqohlwkmo.tif,67,0.0666666666666667,0.0666666666666667,1.26666666666667,14036.425998458,14037.8566305,9,14036.492673417,14036.559428667,14037.884913625,14039.144946208,1,1.43063204200007
132,9,4,categorization,0,bathroom,SHINEd_sun_awnqiikzaispgmwo.tif,56,0.0666666666666667,0.0666666666666667,0.883333333333333,14039.163404333,14039.998198375,13,14039.230289208,14039.2961705,14040.019648875,14040.896356417,1,0.834794042000794
132,10,4,categorization,0,bathroom,SHINEd_sun_apeeialkgkuxddgh.tif,42,0.0666666666666667,0.0666666666666667,1.26666666666667,14040.913193667,14042.124264125,13,14040.975826583,14041.035996708,14042.137767375,14043.397808625,1,1.21107045799909
132,11,4,categorization,0,bathroom,SHINEd_sun_apjevzvycyhuqghb.tif,43,0.0666666666666667,0.0666666666666667,2,14043.415978917,14045.652025042,9,14043.482701333,14043.548786667,14045.6678325,14047.661215292,0,2.23604612499912
132,12,4,categorization,0,kitchen,SHINEd_sun_admlmbcdswaszruo.tif,79,0.0666666666666667,0.0666666666666667,0.733333333333333,14047.670802417,14049.364349875,13,14047.736194333,14047.802868042,14049.372344667,14050.099016875,0,1.69354745800047
132,13,4,categorization,0,kitchen,SHINEd_sun_acxkpeoqbwcxfvip.tif,77,0.0666666666666667,0.0666666666666667,0.883333333333333,14050.104960542,14051.5399565,9,14050.166848167,14050.227747375,14051.547299,14052.423969625,1,1.43499595800131
132,14,4,categorization,0,bathroom,SHINEd_sun_akiytfaagpdsphgz.tif,31,0.0666666666666667,0.0666666666666667,0.983333333333333,14052.429604875,14053.259313333,13,14052.491406708,14052.552396,14053.271323,14054.247995875,1,0.829708457999004
132,15,4,categorization,0,kitchen,SHINEd_sun_acfmftudsenhrfhy.tif,74,0.0666666666666667,0.0666666666666667,1.56666666666667,14054.253720875,14055.027431958,9,14054.315635208,14054.376541625,14055.045090167,14056.60512275,1,0.773711083000308
132,16,4,categorization,0,kitchen,SHINEd_sun_abdxkyyxwfskuaqb.tif,70,0.0666666666666667,0.0666666666666667,1.08333333333333,14056.620985542,14057.557545167,13,14056.689551833,14056.753963958,14057.576920875,14058.653631708,0,0.936559624999063
132,17,4,categorization,0,kitchen,SHINEd_sun_acwjdupvyjsugpay.tif,76,0.0666666666666667,0.0666666666666667,0.75,14058.664018708,14060.401160958,9,14058.728945042,14058.79546675,14060.420040458,14061.163378833,1,1.73714225000003
132,18,4,categorization,0,kitchen,SHINEd_sun_aadbddgrdsjugojn.tif,64,0.0666666666666667,0.0666666666666667,0.966666666666667,14061.16922775,14062.260227458,9,14061.230927667,14061.292043875,14062.2775985,14063.237602917,1,1.0909997079998
132,19,4,categorization,0,bathroom,SHINEd_sun_agrwbmhcpmfuwmsg.tif,24,0.0666666666666667,0.0666666666666667,1.63333333333333,14063.244637667,14063.94789625,13,14063.306323375,14063.367300125,14063.952546583,14065.579250167,1,0.703258583000206
132,20,4,categorization,0,bathroom,SHINEd_sun_acegryoqftbzowsg.tif,17,0.0666666666666667,0.0666666666666667,1.46666666666667,14065.597342042,14067.0764105,9,14065.662096583,14065.728391125,14067.081309167,14068.541353083,0,1.47906845800026
132,21,4,categorization,0,bathroom,SHINEd_sun_alkosphxlxwjwgjd.tif,34,0.0666666666666667,0.0666666666666667,0.933333333333333,14068.558480542,14069.396078583,9,14068.626181667,14068.691715833,14069.414647833,14070.341321042,0,0.837598041000092
132,22,4,categorization,0,kitchen,SHINEd_sun_ahspylgoovwmwvgk.tif,93,0.0666666666666667,0.0666666666666667,1.45,14070.347317833,14071.292245458,13,14070.40903675,14070.470084125,14071.305354,14072.748721042,0,0.944927624999764
132,23,4,categorization,0,bathroom,SHINEd_sun_asfwthctfqerjvxr.tif,49,0.0666666666666667,0.0666666666666667,0.966666666666667,14072.769226625,14073.652679375,13,14072.836612292,14072.897737792,14073.670094,14074.630099083,1,0.883452750000288
132,24,4,categorization,0,kitchen,SHINEd_sun_ahywdevtimnqcsln.tif,94,0.0666666666666667,0.0666666666666667,0.816666666666667,14074.636557917,14076.651639042,9,14074.69828975,14074.759402208,14076.662010875,14077.472016542,1,2.01508112500051
132,25,4,categorization,0,bathroom,SHINEd_sun_anhioqovhscjqqwb.tif,38,0.0666666666666667,0.0666666666666667,1.96666666666667,14077.477888458,14078.811791792,9,14077.53962125,14077.600619167,14078.819742708,14080.779798958,0,1.33390333400166
132,26,4,categorization,0,bathroom,SHINEd_sun_aunuadmjocsddsrl.tif,52,0.0666666666666667,0.0666666666666667,0.916666666666667,14080.796094333,14083.059211625,13,14080.863319167,14080.929047333,14083.065389042,14083.975394208,1,2.26311729200097
132,27,4,categorization,0,kitchen,SHINEd_sun_abdenxonkemggwsq.tif,69,0.0666666666666667,0.0666666666666667,1.28333333333333,14083.980358583,14086.356151333,9,14084.042124875,14084.103294083,14086.372480542,14087.649192,1,2.37579275000098
132,28,4,categorization,0,bathroom,SHINEd_labelme_sfxiulhjbhlyiyt.tif,11,0.0666666666666667,0.0666666666666667,1.8,14087.658275958,14089.77932925,13,14087.723404208,14087.788554125,14089.791119208,14091.584484083,1,2.12105329199949
132,29,4,categorization,0,bathroom,SHINEd_sun_axxbkopsgyouuebh.tif,58,0.0666666666666667,0.0666666666666667,1.33333333333333,14091.602249375,14093.71514525,9,14091.6674675,14091.733233042,14093.718505542,14095.045211375,0,2.11289587499959
132,30,4,categorization,0,bathroom,SHINEd_sun_aofnryafpsjimzsb.tif,40,0.0666666666666667,0.0666666666666667,1.06666666666667,14095.062964458,14096.507086417,13,14095.129223333,14095.195935208,14096.53809725,14097.598147625,1,1.44412195899895
132,31,4,categorization,0,bathroom,SHINEd_sun_ambriybtogmepttm.tif,36,0.0666666666666667,0.0666666666666667,1.03333333333333,14097.608350042,14098.799737,13,14097.672745208,14097.739951458,14098.832462083,14099.859164,1,1.19138695799847
132,32,4,categorization,0,kitchen,SHINEd_sun_aggjlwcdjsjcaemh.tif,86,0.0666666666666667,0.0666666666666667,0.733333333333333,14099.871206917,14102.09975175,13,14099.936624417,14100.003198125,14102.105984833,14102.832658,0,2.22854483300034
132,33,4,categorization,0,kitchen,SHINEd_sun_aehawpgmrlhlvcow.tif,81,0.0666666666666667,0.0666666666666667,0.766666666666667,14102.838333958,14104.227392333,9,14102.900129917,14102.961240542,14104.247357583,14105.00736325,1,1.38905837499988
132,34,4,categorization,0,bathroom,SHINEd_sun_aoybiabnpadelefl.tif,41,0.0666666666666667,0.0666666666666667,1.1,14105.012987917,14106.451425125,9,14105.074729458,14105.135687458,14106.471516292,14107.564885417,0,1.43843720800032
132,35,4,categorization,0,kitchen,SHINEd_sun_agzzivivdpnawacl.tif,89,0.0666666666666667,0.0666666666666667,1.81666666666667,14107.5790185,14109.192114625,9,14107.643940792,14107.710157792,14109.219332125,14111.029385167,1,1.61309612500008
132,36,4,categorization,0,bathroom,SHINEd_sun_aspsyogrekjtfozg.tif,50,0.0666666666666667,0.0666666666666667,0.883333333333333,14111.043098042,14113.180035333,9,14111.109732875,14111.176578542,14113.196047667,14114.072719667,0,2.13693729099941
132,37,4,categorization,0,kitchen,SHINEd_sun_ahljzhgcdpomplvg.tif,91,0.0666666666666667,0.0666666666666667,1.7,14114.077537667,14114.980005,13,14114.139306375,14114.200375292,14114.985750708,14116.679135958,0,0.90246733299864
132,38,4,categorization,0,kitchen,SHINEd_sun_axyyrmzcupyhlivc.tif,107,0.0666666666666667,0.0666666666666667,1.58333333333333,14116.699375958,14118.005971792,9,14116.766275667,14116.832005417,14118.0247665,14119.601491708,1,1.30659583399938
132,39,4,categorization,0,bathroom,SHINEd_sun_atstyziqcmkahyxk.tif,51,0.0666666666666667,0.0666666666666667,0.833333333333333,14119.620179917,14121.196093083,13,14119.684873667,14119.751754083,14121.204657375,14122.031329042,1,1.57591316599974
132,40,4,categorization,0,kitchen,SHINEd_sun_amjjdeyrggfqgmom.tif,100,0.0666666666666667,0.0666666666666667,0.95,14122.036849583,14123.17968475,9,14122.098513792,14122.16008825,14123.195368167,14124.138708875,1,1.14283516700016
132,41,4,categorization,0,bathroom,SHINEd_sun_acduarbnmmoglmiv.tif,16,0.0666666666666667,0.0666666666666667,1.06666666666667,14124.144527208,14125.363575917,9,14124.206284,14124.267320083,14125.369552958,14126.429606417,0,1.21904870899925
132,42,4,categorization,0,kitchen,SHINEd_sun_aypmqwcualkenuoe.tif,109,0.0666666666666667,0.0666666666666667,1.68333333333333,14126.442002708,14128.102391667,13,14126.507521208,14126.571617958,14128.131371667,14129.808076542,0,1.66038895900056
132,43,4,categorization,0,kitchen,SHINEd_sun_aixorpehvfykdynp.tif,95,0.0666666666666667,0.0666666666666667,1.31666666666667,14129.830608792,14131.899751875,13,14129.898002917,14129.963947042,14131.916503458,14133.22653825,0,2.06914308300111
132,44,4,categorization,0,kitchen,SHINEd_sun_azmutvzbxypaceni.tif,110,0.0666666666666667,0.0666666666666667,1.61666666666667,14133.247141292,14134.8734545,9,14133.313846083,14133.380095083,14134.905319167,14136.515360625,1,1.62631320800028
132,45,4,categorization,0,bathroom,SHINEd_sun_auzqhkafidnkrwmo.tif,54,0.0666666666666667,0.0666666666666667,1.15,14136.53359375,14139.635456875,9,14136.602290542,14136.666985042,14139.653790208,14140.797154917,0,3.101863124999
132,46,4,categorization,0,kitchen,SHINEd_sun_akcjzhbbjlbogpdi.tif,99,0.0666666666666667,0.0666666666666667,1.25,14140.807205625,14142.189143708,9,14140.874266125,14140.939719208,14142.214906208,14143.458283625,1,1.38193808299911
132,47,4,categorization,0,bathroom,SHINEd_sun_aghyqhbptboemmoq.tif,23,0.0666666666666667,0.0666666666666667,1.1,14143.4754175,14144.928191667,13,14143.54389275,14143.608429917,14144.949549958,14146.042932708,1,1.45277416700083
132,48,4,categorization,0,bathroom,SHINEd_sun_afcoljnjfoxjtgja.tif,20,0.0666666666666667,0.0666666666666667,0.9,14146.053205083,14147.644926458,9,14146.118421667,14146.186233875,14147.658431875,14148.551770542,0,1.59172137499991
132,49,4,categorization,0,bathroom,SHINEd_sun_aavhrsfjbserjtht.tif,13,0.0666666666666667,0.0666666666666667,1.3,14148.557750208,14149.483897125,9,14148.61948625,14148.680532208,14149.499208125,14150.792596917,0,0.926146916999642
132,50,4,categorization,0,bathroom,SHINEd_sun_ahaulkltgpkeeemi.tif,26,0.0666666666666667,0.0666666666666667,1.25,14150.809615333,14152.291512833,9,14150.876100917,14150.942708042,14152.316635125,14153.560003208,0,1.48189749999983
132,1,5,categorization,0,bathroom,SHINEd_sun_agguqiubmwhqqunb.tif,22,0.0666666666666667,0.0666666666666667,1.7,14196.832957958,14198.642991708,9,14196.895470208,14196.956017667,14198.658548542,14200.351929292,0,1.81003375
132,2,5,categorization,0,kitchen,SHINEd_labelme_rykdqxenmhulbdn.tif,63,0.0666666666666667,0.0666666666666667,1.81666666666667,14200.367438208,14201.471415875,9,14200.436500458,14200.498089917,14201.487914542,14203.297956667,1,1.10397766699862
132,3,5,categorization,0,bathroom,SHINEd_sun_ahcvzmoyaycdoftf.tif,27,0.0666666666666667,0.0666666666666667,1.23333333333333,14203.317420167,14204.093744083,13,14203.384799292,14203.449901125,14204.1240195,14205.350726292,1,0.776323915999455
132,4,5,categorization,0,bathroom,SHINEd_sun_axyrejkiiaqiurjk.tif,59,0.0666666666666667,0.0666666666666667,1.4,14205.369296083,14206.435762083,13,14205.436957208,14205.501686667,14206.459321625,14207.852688333,1,1.06646600000022
132,5,5,categorization,0,bathroom,SHINEd_sun_apmqjbnwghzuhhzh.tif,46,0.0666666666666667,0.0666666666666667,1.03333333333333,14207.870787625,14208.715932667,13,14207.93823825,14208.003154958,14208.743695333,14209.770397125,1,0.845145042001604
132,6,5,categorization,0,bathroom,SHINEd_sun_apeeialkgkuxddgh.tif,42,0.0666666666666667,0.0666666666666667,1.38333333333333,14209.780552042,14210.675162958,13,14209.845459792,14209.912554,14210.703361167,14212.080066875,1,0.894610915998783
132,7,5,categorization,0,kitchen,SHINEd_sun_auticobqsbwgoppi.tif,104,0.0666666666666667,0.0666666666666667,2,14212.097930417,14212.976471042,9,14212.165025542,14212.231448083,14213.005172542,14214.998559,1,0.878540625000824
132,8,5,categorization,0,kitchen,SHINEd_sun_aehawpgmrlhlvcow.tif,81,0.0666666666666667,0.0666666666666667,1.85,14215.016436583,14216.103849167,9,14215.083779167,14215.150021208,14216.122450333,14217.965836208,1,1.08741258400005
132,9,5,categorization,0,kitchen,SHINEd_sun_aamedkxepzlwuxes.tif,65,0.0666666666666667,0.0666666666666667,0.816666666666667,14217.983848042,14220.138582292,9,14218.052926,14218.117105625,14220.15291825,14220.962923042,1,2.15473424999982
132,10,5,categorization,0,kitchen,SHINEd_sun_aapllqyqlykszopd.tif,66,0.0666666666666667,0.0666666666666667,1.85,14220.968535792,14221.875598792,9,14221.030363583,14221.091413,14221.8933785,14223.736751083,1,0.907062999998743
132,11,5,categorization,0,bathroom,SHINEd_sun_ahqjwnzgolcaoidx.tif,29,0.0666666666666667,0.0666666666666667,0.733333333333333,14223.747423667,14224.485566583,13,14223.814276125,14223.880147917,14224.502701917,14225.229373375,1,0.738142915999561
132,12,5,categorization,0,kitchen,SHINEd_sun_aggjlwcdjsjcaemh.tif,86,0.0666666666666667,0.0666666666666667,0.716666666666667,14225.234380292,14226.098680417,13,14225.296050958,14225.357194083,14226.109316375,14226.819321792,0,0.864300125000227
132,13,5,categorization,0,bathroom,SHINEd_sun_agyqfjcfkdcydepw.tif,25,0.0666666666666667,0.0666666666666667,0.833333333333333,14226.827739792,14227.898534542,13,14226.889401583,14226.950518167,14227.902359375,14228.72903,1,1.07079475000137
132,14,5,categorization,0,kitchen,SHINEd_sun_auaiucuqpdausiva.tif,102,0.0666666666666667,0.0666666666666667,0.95,14228.73475,14230.4510685,13,14228.796429708,14228.857513917,14230.459713375,14231.40305325,0,1.71631850000085
132,15,5,categorization,0,bathroom,SHINEd_sun_alkosphxlxwjwgjd.tif,34,0.0666666666666667,0.0666666666666667,1.96666666666667,14231.410896042,14233.378763458,9,14231.472679292,14231.533637625,14233.386582625,14235.346635875,0,1.96786741600044
132,16,5,categorization,0,kitchen,SHINEd_sun_aaxxjlsuzvqlgylf.tif,68,0.0666666666666667,0.0666666666666667,1.86666666666667,14235.365386167,14238.211030292,9,14235.431835708,14235.498707833,14238.217527917,14240.077579292,1,2.84564412499822
132,17,5,categorization,0,kitchen,SHINEd_sun_avszsnwsbuqfgzbn.tif,105,0.0666666666666667,0.0666666666666667,1.51666666666667,14240.09587125,14241.371496542,9,14240.162812792,14240.227115042,14241.37984775,14242.889898333,1,1.27562529200077
132,18,5,categorization,0,kitchen,SHINEd_sun_akchetnepxlcxhsu.tif,98,0.0666666666666667,0.0666666666666667,1.3,14242.908072583,14245.131043667,9,14242.974485375,14243.042416458,14245.145337042,14246.438720792,1,2.22297108399835
132,19,5,categorization,0,bathroom,SHINEd_sun_awnqiikzaispgmwo.tif,56,0.0666666666666667,0.0666666666666667,1.91666666666667,14246.45659125,14248.004369,9,14246.525232333,14246.589730792,14248.032244625,14249.942297375,0,1.54777775000002
132,20,5,categorization,0,bathroom,SHINEd_sun_aclfzgynxzxlbepz.tif,19,0.0666666666666667,0.0666666666666667,1.23333333333333,14249.962602208,14251.619368958,13,14250.029579708,14250.095757917,14251.631936,14252.858654625,1,1.65676675000032
132,21,5,categorization,0,bathroom,SHINEd_sun_ahaulkltgpkeeemi.tif,26,0.0666666666666667,0.0666666666666667,0.866666666666667,14252.875757792,14255.379515375,13,14252.943195333,14253.010225292,14255.395943417,14256.255948958,1,2.50375758299924
132,22,5,categorization,0,kitchen,SHINEd_sun_agubuxuukhzyzpdp.tif,88,0.0666666666666667,0.0666666666666667,0.8,14256.261709417,14257.842910458,9,14256.323458875,14256.384579667,14257.853216625,14258.646554542,1,1.58120104099908
132,23,5,categorization,0,bathroom,SHINEd_sun_auzqhkafidnkrwmo.tif,54,0.0666666666666667,0.0666666666666667,1.51666666666667,14258.652243542,14260.563210625,13,14258.71404675,14258.774970417,14260.576955833,14262.087006917,1,1.91096708300029
132,24,5,categorization,0,bathroom,SHINEd_labelme_sfxiulhjbhlyiyt.tif,11,0.0666666666666667,0.0666666666666667,1.18333333333333,14262.106664458,14264.482758083,13,14262.173535625,14262.239297458,14264.492174458,14265.668885958,1,2.37609362500007
132,25,5,categorization,0,bathroom,SHINEd_sun_aljolscmmzydegqp.tif,33,0.0666666666666667,0.0666666666666667,1.6,14265.6782345,14267.453093917,13,14265.743473917,14265.811312833,14267.468268708,14269.06164975,1,1.7748594170007
132,26,5,categorization,0,bathroom,SHINEd_sun_aleqenyvunhactkl.tif,32,0.0666666666666667,0.0666666666666667,1.56666666666667,14269.079645542,14270.315210708,9,14269.146814708,14269.212819708,14270.338971417,14271.899021,0,1.23556516600001
132,27,5,categorization,0,bathroom,SHINEd_sun_apkruvsevgegsdwp.tif,44,0.0666666666666667,0.0666666666666667,1.36666666666667,14271.917343208,14273.214339208,13,14271.9846155,14272.0519725,14273.244650792,14274.604706833,1,1.29699599999913
132,28,5,categorization,0,bathroom,SHINEd_sun_amzlamotzwfkwjco.tif,37,0.0666666666666667,0.0666666666666667,1.53333333333333,14274.622812,14275.733118,9,14274.690981375,14274.75628375,14275.744435125,14277.271139458,0,1.11030600000049
132,29,5,categorization,0,kitchen,SHINEd_sun_abrcnpqqhmjwekyf.tif,73,0.0666666666666667,0.0666666666666667,1.4,14277.29038625,14279.242871667,9,14277.357501417,14277.423879875,14279.260104542,14280.653484542,1,1.95248541699948
132,30,5,categorization,0,bathroom,SHINEd_sun_abapwbhyhkfixyex.tif,14,0.0666666666666667,0.0666666666666667,1.06666666666667,14280.672003,14281.948788792,9,14280.739093458,14280.805101625,14281.961499792,14283.021552833,0,1.27678579200074
132,31,5,categorization,0,kitchen,SHINEd_sun_aypmqwcualkenuoe.tif,109,0.0666666666666667,0.0666666666666667,1.63333333333333,14283.031612625,14285.063548917,13,14283.096681625,14283.163315917,14285.085126083,14286.711827125,0,2.03193629199995
132,32,5,categorization,0,bathroom,SHINEd_sun_afcoljnjfoxjtgja.tif,20,0.0666666666666667,0.0666666666666667,1.8,14286.729694083,14288.0740155,13,14286.79674225,14286.86297025,14288.105588333,14289.898959833,1,1.34432141700017
132,33,5,categorization,0,kitchen,SHINEd_sun_ajkqhtgcbgpcwrwn.tif,97,0.0666666666666667,0.0666666666666667,1.53333333333333,14289.917496542,14291.13923375,9,14289.984652875,14290.051701,14291.154574792,14292.68127825,1,1.22173720799947
132,34,5,categorization,0,kitchen,SHINEd_sun_abdenxonkemggwsq.tif,69,0.0666666666666667,0.0666666666666667,0.766666666666667,14292.699109042,14294.054969125,9,14292.766350333,14292.831932,14294.074370208,14294.834376708,1,1.35586008300015
132,35,5,categorization,0,bathroom,SHINEd_sun_atstyziqcmkahyxk.tif,51,0.0666666666666667,0.0666666666666667,1.86666666666667,14294.84033175,14296.019198917,9,14294.902070583,14294.963187708,14296.032155875,14297.892204167,0,1.17886716700013
132,36,5,categorization,0,kitchen,SHINEd_sun_aexklacwqwezaorf.tif,84,0.0666666666666667,0.0666666666666667,1.13333333333333,14297.912321667,14300.150628333,13,14297.979269667,14298.046028583,14300.172598042,14301.29931,0,2.23830666600043
132,37,5,categorization,0,kitchen,SHINEd_sun_amjjdeyrggfqgmom.tif,100,0.0666666666666667,0.0666666666666667,1.73333333333333,14301.315934708,14302.165869,9,14301.382459833,14301.450119083,14302.190809667,14303.917519125,1,0.849934292000398
132,38,5,categorization,0,bathroom,SHINEd_sun_acegryoqftbzowsg.tif,17,0.0666666666666667,0.0666666666666667,0.766666666666667,14303.935799792,14305.722642375,13,14304.002331125,14304.069063708,14305.737974792,14306.497978292,1,1.78684258300018
132,39,5,categorization,0,kitchen,SHINEd_sun_akcjzhbbjlbogpdi.tif,99,0.0666666666666667,0.0666666666666667,1.85,14306.503786083,14307.6745065,9,14306.565518167,14306.626538542,14307.678354125,14309.521743958,1,1.17072041699976
132,40,5,categorization,0,kitchen,SHINEd_sun_acfmftudsenhrfhy.tif,74,0.0666666666666667,0.0666666666666667,0.966666666666667,14309.539935042,14310.97109375,9,14309.607021708,14309.668611958,14310.987782125,14311.94778775,1,1.43115870800102
132,41,5,categorization,0,kitchen,SHINEd_sun_ahljzhgcdpomplvg.tif,91,0.0666666666666667,0.0666666666666667,1.06666666666667,14311.953213917,14312.874964542,9,14312.0150255,14312.076012625,14312.8948525,14313.9548965,1,0.921750624998822
132,42,5,categorization,0,kitchen,SHINEd_sun_ahdycvpopffkzzsu.tif,90,0.0666666666666667,0.0666666666666667,1.38333333333333,14313.96693575,14314.992149333,9,14314.033105542,14314.098006792,14315.021091625,14316.397808583,1,1.02521358299964
132,43,5,categorization,0,bathroom,SHINEd_sun_axxbkopsgyouuebh.tif,58,0.0666666666666667,0.0666666666666667,0.766666666666667,14316.415414417,14317.274396458,13,14316.482091917,14316.548465458,14317.306411375,14318.066435958,1,0.858982040999763
132,44,5,categorization,0,kitchen,SHINEd_sun_acwjdupvyjsugpay.tif,76,0.0666666666666667,0.0666666666666667,0.866666666666667,14318.073282292,14318.963328,9,14318.135148208,14318.196134708,14318.981335708,14319.841341375,1,0.890045707999889
132,45,5,categorization,0,kitchen,SHINEd_sun_ahywdevtimnqcsln.tif,94,0.0666666666666667,0.0666666666666667,1.25,14319.846257083,14320.779152458,9,14319.908001125,14319.969075667,14320.787490542,14322.030869833,1,0.932895375000953
132,46,5,categorization,0,kitchen,SHINEd_sun_aarfiyshqohlwkmo.tif,67,0.0666666666666667,0.0666666666666667,1.03333333333333,14322.049695417,14323.410380542,9,14322.11647575,14322.1831255,14323.442252667,14324.468959333,1,1.3606851250006
132,47,5,categorization,0,bathroom,SHINEd_sun_aofnryafpsjimzsb.tif,40,0.0666666666666667,0.0666666666666667,0.783333333333333,14324.478224208,14325.903523042,9,14324.543983542,14324.609977458,14325.936246875,14326.712918583,0,1.42529883399948
132,48,5,categorization,0,bathroom,SHINEd_sun_ahijqszoswveeyji.tif,28,0.0666666666666667,0.0666666666666667,0.7,14326.719028417,14328.066286167,9,14326.780892167,14326.841984292,14328.077605333,14328.770942583,0,1.34725775000152
132,49,5,categorization,0,bathroom,SHINEd_sun_apjevzvycyhuqghb.tif,43,0.0666666666666667,0.0666666666666667,1.75,14328.7764755,14330.026385375,9,14328.8382565,14328.899703083,14330.035128958,14331.778514458,0,1.2499098749995
132,50,5,categorization,0,bathroom,SHINEd_sun_aavhrsfjbserjtht.tif,13,0.0666666666666667,0.0666666666666667,1.36666666666667,14331.796263333,14333.978128708,13,14331.863563,14331.929267958,14333.9983285,14335.358364458,1,2.18186537499969
132,1,6,categorization,0,bathroom,SHINEd_sun_aggnnqpdorgxpvce.tif,21,0.0666666666666667,0.0666666666666667,0.966666666666667,14427.216103208,14428.730424875,13,14427.278914083,14427.338889458,14428.741107667,14429.701111833,1,1.51432166700033
132,2,6,categorization,0,bathroom,SHINEd_sun_anryaplzeujmzfkd.tif,39,0.0666666666666667,0.0666666666666667,1.73333333333333,14429.705917,14430.802891583,9,14429.767640333,14429.828677208,14430.813902292,14432.540614792,0,1.0969745830007
132,3,6,categorization,0,bathroom,SHINEd_sun_acduarbnmmoglmiv.tif,16,0.0666666666666667,0.0666666666666667,1.91666666666667,14432.562523208,14433.186577167,13,14432.628987542,14432.694869917,14433.200638167,14435.110676167,1,0.624053958999866
132,4,6,categorization,0,kitchen,SHINEd_sun_awcpdzzznmweyyhv.tif,106,0.0666666666666667,0.0666666666666667,0.766666666666667,14435.1294475,14436.554122167,9,14435.196012417,14435.26171975,14436.564246292,14437.32425075,1,1.42467466699964
132,5,6,categorization,0,bathroom,SHINEd_sun_alotolagknyrgtsk.tif,35,0.0666666666666667,0.0666666666666667,0.916666666666667,14437.328934708,14438.426067625,9,14437.390711583,14437.451730542,14438.437175625,14439.347180958,0,1.09713291699882
132,6,6,categorization,0,kitchen,SHINEd_sun_axyyrmzcupyhlivc.tif,107,0.0666666666666667,0.0666666666666667,1.18333333333333,14439.352753125,14440.322120208,9,14439.41449675,14439.475406708,14440.327591125,14441.504314458,1,0.969367083000179
132,7,6,categorization,0,kitchen,SHINEd_sun_aenotlpyftoioydp.tif,82,0.0666666666666667,0.0666666666666667,1.8,14441.514912958,14442.181088583,9,14441.581721958,14441.647922875,14442.204508333,14443.997887667,1,0.666175624999596
132,8,6,categorization,0,kitchen,SHINEd_sun_ahpczsiumwwocjkv.tif,92,0.0666666666666667,0.0666666666666667,0.883333333333333,14444.015990333,14445.044159125,13,14444.082657208,14444.146833,14445.069996917,14445.946668583,0,1.02816879199963
132,9,6,categorization,0,kitchen,SHINEd_sun_agzzivivdpnawacl.tif,89,0.0666666666666667,0.0666666666666667,1.83333333333333,14445.951699792,14447.682112792,9,14446.013448208,14446.074541458,14447.69318875,14449.519898167,1,1.73041299999932
132,10,6,categorization,0,kitchen,SHINEd_sun_acxkpeoqbwcxfvip.tif,77,0.0666666666666667,0.0666666666666667,1.76666666666667,14449.53717925,14450.978375625,9,14449.604942125,14449.665207458,14450.984514125,14452.744560375,1,1.4411963750008
132,11,6,categorization,0,bathroom,SHINEd_sun_avhrdrntsqrjzccq.tif,55,0.0666666666666667,0.0666666666666667,0.983333333333333,14452.763128583,14454.021208375,13,14452.830077875,14452.895857667,14454.037993667,14455.014667208,1,1.25807979199999
132,12,6,categorization,0,kitchen,SHINEd_sun_aunzlwrbjumxhwdj.tif,103,0.0666666666666667,0.0666666666666667,0.883333333333333,14455.020575208,14455.826153458,9,14455.082244125,14455.143422792,14455.845203458,14456.721874958,1,0.805578249999598
132,13,6,categorization,0,bathroom,SHINEd_sun_akiytfaagpdsphgz.tif,31,0.0666666666666667,0.0666666666666667,0.85,14456.726885208,14460.006918625,13,14456.788598083,14456.849698208,14460.02338975,14460.866727917,1,3.2800334170006
132,14,6,categorization,0,bathroom,SHINEd_sun_ajlawzvmubibwbpy.tif,30,0.0666666666666667,0.0666666666666667,0.733333333333333,14460.871686,14462.074665875,13,14460.933393083,14460.994456083,14462.079870792,14462.806543208,1,1.20297987499907
132,15,6,categorization,0,bathroom,SHINEd_sun_apynckhmoftszqoq.tif,47,0.0666666666666667,0.0666666666666667,1.88333333333333,14462.811982542,14463.722775042,13,14462.873668375,14462.934805875,14463.736551208,14465.613258125,1,0.910792500000753
132,16,6,categorization,0,bathroom,SHINEd_sun_aapitsgbtktqubfy.tif,12,0.0666666666666667,0.0666666666666667,0.816666666666667,14465.631892792,14467.449792917,13,14465.69649775,14465.762182125,14467.464982833,14468.27499,1,1.81790012499914
132,17,6,categorization,0,kitchen,SHINEd_sun_abftihopvusyfakt.tif,71,0.0666666666666667,0.0666666666666667,1.9,14468.280630625,14469.554762375,9,14468.342380375,14468.403437667,14469.572684917,14471.466064917,1,1.27413175000038
132,18,6,categorization,0,kitchen,SHINEd_labelme_kxvouciolcpqplr.tif,62,0.0666666666666667,0.0666666666666667,0.983333333333333,14471.484120708,14473.034258042,9,14471.5521675,14471.61738525,14473.053344667,14474.030017542,1,1.55013733399937
132,19,6,categorization,0,kitchen,SHINEd_sun_agorklincwxrdtga.tif,87,0.0666666666666667,0.0666666666666667,0.75,14474.035217167,14476.466055417,13,14474.096850417,14474.158113458,14476.477222417,14477.220560542,0,2.43083825000031
132,20,6,categorization,0,bathroom,SHINEd_sun_aspsyogrekjtfozg.tif,50,0.0666666666666667,0.0666666666666667,1.6,14477.226194125,14478.177732708,13,14477.287825375,14477.34902275,14478.184182667,14479.777545417,1,0.951538583000001
132,21,6,categorization,0,kitchen,SHINEd_sun_admlmbcdswaszruo.tif,79,0.0666666666666667,0.0666666666666667,1.58333333333333,14479.788523708,14480.734778,9,14479.85538975,14479.9214405,14480.7616705,14482.338384417,1,0.946254291999139
132,22,6,categorization,0,kitchen,SHINEd_sun_aadbddgrdsjugojn.tif,64,0.0666666666666667,0.0666666666666667,1.11666666666667,14482.355647917,14483.228136083,9,14482.422535917,14482.488470042,14483.244385417,14484.354434625,1,0.872488166000039
132,23,6,categorization,0,bathroom,SHINEd_sun_aqrpegblszgcoujh.tif,48,0.0666666666666667,0.0666666666666667,1.53333333333333,14484.364424,14485.279643208,9,14484.429504375,14484.497215833,14485.303808833,14486.830528542,0,0.915219208000053
132,24,6,categorization,0,kitchen,SHINEd_sun_azmutvzbxypaceni.tif,110,0.0666666666666667,0.0666666666666667,1.48333333333333,14486.848881792,14487.583574333,9,14486.9162835,14486.981695583,14487.605181167,14489.081881542,1,0.734692541000186
132,25,6,categorization,0,bathroom,SHINEd_sun_axldvoqbuvuggfmq.tif,57,0.0666666666666667,0.0666666666666667,1.1,14489.100060417,14490.108881958,13,14489.167423708,14489.233153208,14490.140048667,14491.233421167,1,1.00882154099963
132,26,6,categorization,0,kitchen,SHINEd_sun_ajcbwwvdlsvjyzje.tif,96,0.0666666666666667,0.0666666666666667,0.933333333333333,14491.245640875,14494.33844075,9,14491.310604667,14491.378456625,14494.347853333,14495.274527208,1,3.0927998749994
132,27,6,categorization,0,kitchen,SHINEd_sun_adgqasybjyktddhj.tif,78,0.0666666666666667,0.0666666666666667,0.816666666666667,14495.280253042,14496.817849208,9,14495.341932417,14495.402983083,14496.822221458,14497.632225958,1,1.53759616600109
132,28,6,categorization,0,bathroom,SHINEd_sun_asfwthctfqerjvxr.tif,49,0.0666666666666667,0.0666666666666667,1.78333333333333,14497.638058708,14498.745873417,13,14497.699815708,14497.761010458,14498.762744542,14500.539454583,1,1.10781470899929
132,29,6,categorization,0,bathroom,SHINEd_sun_ambriybtogmepttm.tif,36,0.0666666666666667,0.0666666666666667,0.766666666666667,14500.556446708,14501.986253667,9,14500.624466,14500.689727333,14501.992600042,14502.752605208,0,1.42980695900042
132,30,6,categorization,0,kitchen,SHINEd_labelme_brsyyvweiuaazfr.tif,61,0.0666666666666667,0.0666666666666667,1.45,14502.75922025,14503.618167833,9,14502.821031958,14502.881983042,14503.634171,14505.07754375,1,0.858947582999463
132,31,6,categorization,0,kitchen,SHINEd_sun_aeqdocilnnpuvuhx.tif,83,0.0666666666666667,0.0666666666666667,0.75,14505.095489583,14506.727446458,9,14505.16222725,14505.228365708,14506.751571792,14507.494910833,1,1.63195687500047
132,32,6,categorization,0,kitchen,SHINEd_sun_aqeaevwwwjoqhzvl.tif,101,0.0666666666666667,0.0666666666666667,1.36666666666667,14507.500505917,14509.938660625,9,14507.562268125,14507.623378458,14509.942302125,14511.302341458,1,2.43815470799927
132,33,6,categorization,0,kitchen,SHINEd_sun_afuyedyxivkhecmu.tif,85,0.0666666666666667,0.0666666666666667,0.75,14511.319819583,14513.666374083,13,14511.387882625,14511.452708458,14513.671436625,14514.414774333,0,2.34655450000173
132,34,6,categorization,0,bathroom,SHINEd_sun_azqyogdvyhahyram.tif,60,0.0666666666666667,0.0666666666666667,0.783333333333333,14514.419456917,14515.729615083,13,14514.4812155,14514.542407667,14515.744594,14516.521266625,1,1.3101581660012
132,35,6,categorization,0,kitchen,SHINEd_sun_abpwyqmlzafvklqo.tif,72,0.0666666666666667,0.0666666666666667,1.11666666666667,14516.526936042,14518.010435208,9,14516.588794167,14516.649707375,14518.0185035,14519.12854125,1,1.48349916599909
132,36,6,categorization,0,bathroom,SHINEd_sun_acgyywnybuveqsro.tif,18,0.0666666666666667,0.0666666666666667,0.766666666666667,14519.137854167,14520.774226792,9,14519.202511417,14519.270731833,14520.79632025,14521.556324583,0,1.63637262500015
132,37,6,categorization,0,kitchen,SHINEd_sun_aymvwlarqodbwuoc.tif,108,0.0666666666666667,0.0666666666666667,0.716666666666667,14521.562156833,14522.273936708,9,14521.623916625,14521.684989167,14522.287265458,14522.997269417,1,0.711779874998683
132,38,6,categorization,0,bathroom,SHINEd_sun_anhioqovhscjqqwb.tif,38,0.0666666666666667,0.0666666666666667,1.33333333333333,14523.002685583,14523.881801667,13,14523.0644595,14523.125381333,14523.893935958,14525.220646875,1,0.879116083999179
132,39,6,categorization,0,kitchen,SHINEd_sun_aixorpehvfykdynp.tif,95,0.0666666666666667,0.0666666666666667,1.75,14525.237934792,14526.733895917,9,14525.304662,14525.370910542,14526.76345375,14528.506835917,1,1.49596112499967
132,40,6,categorization,0,bathroom,SHINEd_sun_aoybiabnpadelefl.tif,41,0.0666666666666667,0.0666666666666667,1.13333333333333,14528.528536417,14531.24209175,13,14528.597008583,14528.66148025,14531.248157708,14532.374866875,1,2.71355533300084
132,41,6,categorization,0,bathroom,SHINEd_sun_aunuadmjocsddsrl.tif,52,0.0666666666666667,0.0666666666666667,1.63333333333333,14532.384282875,14533.516742208,9,14532.449488917,14532.5174215,14533.542273667,14535.168974792,0,1.13245933299913
132,42,6,categorization,0,kitchen,SHINEd_sun_ahspylgoovwmwvgk.tif,93,0.0666666666666667,0.0666666666666667,1.43333333333333,14535.185388208,14537.249969458,13,14535.25340275,14535.31835475,14537.254043958,14538.680752792,0,2.06458125000063
132,43,6,categorization,0,kitchen,SHINEd_sun_abdxkyyxwfskuaqb.tif,70,0.0666666666666667,0.0666666666666667,1.83333333333333,14538.698654625,14539.956762875,9,14538.765410208,14538.83149,14539.972799167,14541.799504292,1,1.25810825000008
132,44,6,categorization,0,bathroom,SHINEd_sun_abjtwfukuwddzted.tif,15,0.0666666666666667,0.0666666666666667,1.93333333333333,14541.817713417,14542.906184833,9,14541.885069292,14541.952018375,14542.924994708,14544.851717917,0,1.08847141600017
132,45,6,categorization,0,bathroom,SHINEd_sun_apkxzenqapsujocq.tif,45,0.0666666666666667,0.0666666666666667,1.26666666666667,14544.870009083,14546.321968042,13,14544.937708417,14545.003212625,14546.338820792,14547.598857167,1,1.45195895899997
132,46,6,categorization,0,bathroom,SHINEd_sun_aghyqhbptboemmoq.tif,23,0.0666666666666667,0.0666666666666667,1.86666666666667,14547.616609083,14548.883634417,13,14547.682010958,14547.748154792,14548.905938792,14550.76597725,1,1.26702533400021
132,47,6,categorization,0,bathroom,SHINEd_sun_ausgutylgojavyoq.tif,53,0.0666666666666667,0.0666666666666667,1.41666666666667,14550.786085125,14553.018451333,13,14550.852916292,14550.919377458,14553.038687208,14554.448723583,1,2.2323662079998
132,48,6,categorization,0,kitchen,SHINEd_sun_aegoxogugdkwpmpj.tif,80,0.0666666666666667,0.0666666666666667,1.11666666666667,14554.464191292,14555.113498333,9,14554.531236917,14554.5973965,14555.137583542,14556.2476395,1,0.649307040999702
132,49,6,categorization,0,kitchen,SHINEd_sun_acgtpgfybqjmzeyw.tif,75,0.0666666666666667,0.0666666666666667,1.8,14556.261136833,14556.990653625,9,14556.328204208,14556.394115875,14557.017469792,14558.810858333,1,0.72951679200014
132,50,6,categorization,0,bathroom,SHINEd_sun_agrwbmhcpmfuwmsg.tif,24,0.0666666666666667,0.0666666666666667,1.25,14558.830424583,14559.577165833,9,14558.897241333,14558.963691,14559.604001833,14560.84736925,0,0.746741249999104
132,1,7,categorization,0,bathroom,SHINEd_sun_ausgutylgojavyoq.tif,53,0.0666666666666667,0.0666666666666667,0.883333333333333,14588.543139792,14589.94589225,13,14588.605415625,14588.66598075,14589.951663583,14590.828334417,1,1.40275245799967
132,2,7,categorization,0,bathroom,SHINEd_sun_axldvoqbuvuggfmq.tif,57,0.0666666666666667,0.0666666666666667,1.03333333333333,14590.833279792,14591.61003825,13,14590.89513325,14590.95630825,14591.624969708,14592.651677667,1,0.776758458001495
132,3,7,categorization,0,bathroom,SHINEd_sun_acegryoqftbzowsg.tif,17,0.0666666666666667,0.0666666666666667,1.06666666666667,14592.665606458,14593.940502167,9,14592.731468333,14592.7973985,14593.971572333,14595.031626667,0,1.2748957090007
132,4,7,categorization,0,kitchen,SHINEd_sun_abftihopvusyfakt.tif,71,0.0666666666666667,0.0666666666666667,0.833333333333333,14595.042934958,14595.881533625,9,14595.10786025,14595.174639792,14595.897145083,14596.723858583,1,0.838598667000042
132,5,7,categorization,0,kitchen,SHINEd_sun_aeqdocilnnpuvuhx.tif,83,0.0666666666666667,0.0666666666666667,0.716666666666667,14596.740328458,14597.673357042,9,14596.806706625,14596.873460833,14597.691934792,14598.401940083,1,0.933028584000567
132,6,7,categorization,0,bathroom,SHINEd_sun_aavhrsfjbserjtht.tif,13,0.0666666666666667,0.0666666666666667,0.733333333333333,14598.407845958,14599.273606833,9,14598.469565917,14598.530678875,14599.283160667,14600.009833125,0,0.865760874999978
132,7,7,categorization,0,kitchen,SHINEd_sun_afuyedyxivkhecmu.tif,85,0.0666666666666667,0.0666666666666667,1.38333333333333,14600.014939917,14601.017450417,9,14600.0766785,14600.137752,14601.022900667,14602.399606542,1,1.00251050000043
132,8,7,categorization,0,kitchen,SHINEd_sun_acfmftudsenhrfhy.tif,74,0.0666666666666667,0.0666666666666667,0.9,14602.409134,14603.252650875,13,14602.472730583,14602.537452083,14603.278121042,14604.171464625,0,0.843516875000205
132,9,7,categorization,0,kitchen,SHINEd_sun_ahspylgoovwmwvgk.tif,93,0.0666666666666667,0.0666666666666667,0.816666666666667,14604.1777005,14606.129141417,13,14604.239536542,14604.300565542,14606.136141708,14606.946146042,0,1.95144091699876
132,10,7,categorization,0,bathroom,SHINEd_sun_ahcvzmoyaycdoftf.tif,27,0.0666666666666667,0.0666666666666667,0.85,14606.951033458,14607.753494583,13,14607.012800875,14607.073924417,14607.759115167,14608.602452542,1,0.802461124998445
132,11,7,categorization,0,kitchen,SHINEd_sun_abdxkyyxwfskuaqb.tif,70,0.0666666666666667,0.0666666666666667,1.6,14608.60884925,14609.929554292,9,14608.670522125,14608.73164275,14609.933716917,14611.527084792,1,1.32070504200055
132,12,7,categorization,0,bathroom,SHINEd_sun_anhioqovhscjqqwb.tif,38,0.0666666666666667,0.0666666666666667,1.75,14611.544852917,14612.922333833,13,14611.611415,14611.675635958,14612.949216167,14614.692601958,1,1.3774809159986
132,13,7,categorization,0,kitchen,SHINEd_sun_akcjzhbbjlbogpdi.tif,99,0.0666666666666667,0.0666666666666667,1.1,14614.711836958,14615.683555333,13,14614.778809458,14614.844785167,14615.699581333,14616.792968292,0,0.971718374999909
132,14,7,categorization,0,bathroom,SHINEd_sun_axyrejkiiaqiurjk.tif,59,0.0666666666666667,0.0666666666666667,1.46666666666667,14616.804113792,14617.7015025,9,14616.869687042,14616.937084667,14617.724739083,14619.184799875,0,0.897388707999198
132,15,7,categorization,0,bathroom,SHINEd_sun_apjevzvycyhuqghb.tif,43,0.0666666666666667,0.0666666666666667,1.25,14619.202114,14620.085380458,9,14619.270444708,14619.335176833,14620.108974958,14621.352354708,0,0.883266458000435
132,16,7,categorization,0,kitchen,SHINEd_sun_aexklacwqwezaorf.tif,84,0.0666666666666667,0.0666666666666667,1.13333333333333,14621.370529917,14622.147405125,9,14621.437660667,14621.503501792,14622.177095,14623.303788083,1,0.776875208001002
132,17,7,categorization,0,bathroom,SHINEd_sun_awnqiikzaispgmwo.tif,56,0.0666666666666667,0.0666666666666667,1.33333333333333,14623.318326083,14625.135733875,13,14623.386570083,14623.451461292,14625.159794208,14626.486493333,1,1.81740779200118
132,18,7,categorization,0,kitchen,SHINEd_sun_abdenxonkemggwsq.tif,69,0.0666666666666667,0.0666666666666667,1.86666666666667,14626.504227542,14628.218165875,9,14626.572672333,14626.637284375,14628.223940083,14630.08398625,1,1.71393833299953
132,19,7,categorization,0,kitchen,SHINEd_sun_aixorpehvfykdynp.tif,95,0.0666666666666667,0.0666666666666667,1.58333333333333,14630.101479833,14633.210115083,9,14630.169753208,14630.234451792,14633.220367,14634.797089542,1,3.10863525000059
132,20,7,categorization,0,bathroom,SHINEd_sun_alkosphxlxwjwgjd.tif,34,0.0666666666666667,0.0666666666666667,1.05,14634.815791167,14635.894514167,9,14634.883094417,14634.949391625,14635.922926875,14636.966313375,0,1.07872299999872
132,21,7,categorization,0,kitchen,SHINEd_sun_aegoxogugdkwpmpj.tif,80,0.0666666666666667,0.0666666666666667,0.9,14636.977712833,14638.485203958,9,14637.04363225,14637.105918083,14638.513266125,14639.40660575,1,1.50749112499943
132,22,7,categorization,0,kitchen,SHINEd_sun_admlmbcdswaszruo.tif,79,0.0666666666666667,0.0666666666666667,0.7,14639.412767542,14640.498058292,9,14639.474616833,14639.535581583,14640.504474875,14641.197814042,1,1.08529074999933
132,23,7,categorization,0,kitchen,SHINEd_sun_auaiucuqpdausiva.tif,102,0.0666666666666667,0.0666666666666667,0.933333333333333,14641.203172,14642.201289125,9,14641.264981042,14641.325931208,14642.211094708,14643.137767667,1,0.998117125000135
132,24,7,categorization,0,kitchen,SHINEd_sun_aapllqyqlykszopd.tif,66,0.0666666666666667,0.0666666666666667,1.95,14643.143511625,14644.665965875,9,14643.205408208,14643.266244667,14644.685694667,14646.629078042,1,1.52245425000001
132,25,7,categorization,0,bathroom,SHINEd_sun_aoybiabnpadelefl.tif,41,0.0666666666666667,0.0666666666666667,1.06666666666667,14646.647310375,14649.105420542,13,14646.714072667,14646.780723333,14649.116955667,14650.176986375,1,2.458110167001
132,26,7,categorization,0,bathroom,SHINEd_sun_agyqfjcfkdcydepw.tif,25,0.0666666666666667,0.0666666666666667,1.2,14650.188477583,14651.510221167,9,14650.253519167,14650.318080333,14651.5261555,14652.719535125,0,1.32174358399971
132,27,7,categorization,0,kitchen,SHINEd_sun_akchetnepxlcxhsu.tif,98,0.0666666666666667,0.0666666666666667,0.75,14652.730487833,14654.147701958,9,14652.799091042,14652.863778125,14654.171965375,14654.915303875,1,1.4172141250001
132,28,7,categorization,0,bathroom,SHINEd_sun_anryaplzeujmzfkd.tif,39,0.0666666666666667,0.0666666666666667,0.816666666666667,14654.921237708,14656.761121083,9,14654.982973875,14655.0440915,14656.779753125,14657.589758667,0,1.83988337499977
132,29,7,categorization,0,bathroom,SHINEd_sun_abjtwfukuwddzted.tif,15,0.0666666666666667,0.0666666666666667,1.96666666666667,14657.595132042,14658.330079167,9,14657.656957583,14657.717999792,14658.336427333,14660.296483583,0,0.734947124999962
132,30,7,categorization,0,bathroom,SHINEd_sun_acgyywnybuveqsro.tif,18,0.0666666666666667,0.0666666666666667,1.2,14660.315402167,14661.610133167,9,14660.382458708,14660.448371458,14661.617759333,14662.811145292,0,1.29473099999996
132,31,7,categorization,0,kitchen,SHINEd_labelme_brsyyvweiuaazfr.tif,61,0.0666666666666667,0.0666666666666667,0.883333333333333,14662.823699667,14664.460453833,13,14662.890128208,14662.957299417,14664.482142833,14665.358815708,0,1.63675416600017
132,32,7,categorization,0,bathroom,SHINEd_sun_aggnnqpdorgxpvce.tif,21,0.0666666666666667,0.0666666666666667,1.33333333333333,14665.364749625,14666.473432625,13,14665.426422958,14665.488011833,14666.490364125,14667.817070708,1,1.10868300000038
132,33,7,categorization,0,kitchen,SHINEd_sun_acwjdupvyjsugpay.tif,76,0.0666666666666667,0.0666666666666667,1.45,14667.833800542,14668.5262965,9,14667.900391875,14667.967023583,14668.557057125,14670.000429833,1,0.692495958001018
132,34,7,categorization,0,kitchen,SHINEd_sun_agubuxuukhzyzpdp.tif,88,0.0666666666666667,0.0666666666666667,1.15,14670.018432167,14670.924562625,9,14670.085578208,14670.151687833,14670.941063833,14672.084434917,1,0.906130457999097
132,35,7,categorization,0,kitchen,SHINEd_sun_aamedkxepzlwuxes.tif,65,0.0666666666666667,0.0666666666666667,0.966666666666667,14672.095998708,14672.919655625,13,14672.162842292,14672.228885792,14672.934710375,14673.8947625,0,0.823656917000335
132,36,7,categorization,0,kitchen,SHINEd_sun_aymvwlarqodbwuoc.tif,108,0.0666666666666667,0.0666666666666667,1.45,14673.911467083,14674.657666833,9,14673.978585583,14674.03672475,14674.671927792,14676.115296042,1,0.746199749999505
132,37,7,categorization,0,bathroom,SHINEd_sun_aofnryafpsjimzsb.tif,40,0.0666666666666667,0.0666666666666667,0.8,14676.131881917,14678.056983208,9,14676.19889225,14676.266188583,14678.068856375,14678.862195875,0,1.92510129100083
132,38,7,categorization,0,kitchen,SHINEd_sun_awcpdzzznmweyyhv.tif,106,0.0666666666666667,0.0666666666666667,1.45,14678.867670125,14679.633744417,9,14678.929496958,14678.990493292,14679.642507583,14681.085875083,1,0.766074291999757
132,39,7,categorization,0,kitchen,SHINEd_sun_aggjlwcdjsjcaemh.tif,86,0.0666666666666667,0.0666666666666667,1.1,14681.102993458,14682.50994825,13,14681.17137675,14681.235694333,14682.526680458,14683.620052583,0,1.40695479200076
132,40,7,categorization,0,bathroom,SHINEd_sun_ajlawzvmubibwbpy.tif,30,0.0666666666666667,0.0666666666666667,1.16666666666667,14683.632922417,14684.680637458,9,14683.697788333,14683.76450925,14684.704495708,14685.864531292,0,1.04771504099881
132,41,7,categorization,0,kitchen,SHINEd_labelme_kxvouciolcpqplr.tif,62,0.0666666666666667,0.0666666666666667,1.31666666666667,14685.876068,14686.814235583,9,14685.942913875,14686.009042958,14686.831894958,14688.141939792,1,0.938167583000904
132,42,7,categorization,0,kitchen,SHINEd_sun_aqeaevwwwjoqhzvl.tif,101,0.0666666666666667,0.0666666666666667,1.68333333333333,14688.160910958,14689.953206958,9,14688.227528958,14688.294032375,14689.963731333,14691.64043475,1,1.79229599999962
132,43,7,categorization,0,kitchen,SHINEd_labelme_rykdqxenmhulbdn.tif,63,0.0666666666666667,0.0666666666666667,0.966666666666667,14691.654465208,14693.648979417,13,14691.72074825,14691.784180958,14693.653488292,14694.613494833,0,1.99451420900004
132,44,7,categorization,0,kitchen,SHINEd_sun_ajkqhtgcbgpcwrwn.tif,97,0.0666666666666667,0.0666666666666667,1.4,14694.619361792,14695.849871875,9,14694.681044917,14694.742097333,14695.860588,14697.253972875,1,1.2305100829999
132,45,7,categorization,0,bathroom,SHINEd_sun_aleqenyvunhactkl.tif,32,0.0666666666666667,0.0666666666666667,0.783333333333333,14697.271245333,14698.669685917,13,14697.33919875,14697.40436475,14698.696823583,14699.47349575,1,1.39844058400013
132,46,7,categorization,0,bathroom,SHINEd_sun_ahaulkltgpkeeemi.tif,26,0.0666666666666667,0.0666666666666667,1.08333333333333,14699.479485083,14701.817723,9,14699.54126825,14699.602246958,14701.837883583,14702.914592458,0,2.33823791699979
132,47,7,categorization,0,bathroom,SHINEd_sun_ahijqszoswveeyji.tif,28,0.0666666666666667,0.0666666666666667,1.43333333333333,14702.925583958,14705.192753833,9,14702.990588458,14703.058594583,14705.211536208,14706.638253875,0,2.26716987500004
132,48,7,categorization,0,bathroom,SHINEd_sun_apkxzenqapsujocq.tif,45,0.0666666666666667,0.0666666666666667,1.75,14706.656353833,14708.282407125,13,14706.723526042,14706.790805125,14708.293612917,14710.036987917,1,1.62605329200051
132,49,7,categorization,0,bathroom,SHINEd_sun_acduarbnmmoglmiv.tif,16,0.0666666666666667,0.0666666666666667,1.21666666666667,14710.055440542,14712.377052833,13,14710.123123417,14710.188452917,14712.390905625,14713.600963125,1,2.32161229099984
132,50,7,categorization,0,kitchen,SHINEd_sun_adgqasybjyktddhj.tif,78,0.0666666666666667,0.0666666666666667,1.31666666666667,14713.618057417,14714.895071208,9,14713.683370417,14713.749280417,14714.924314292,14716.234354792,1,1.27701379100108
132,1,8,categorization,0,kitchen,SHINEd_sun_aunzlwrbjumxhwdj.tif,103,0.0666666666666667,0.0666666666666667,1.18333333333333,14723.334667208,14724.576685667,9,14723.397320458,14723.457532292,14724.593519333,14725.770232375,1,1.24201845899915
132,2,8,categorization,0,bathroom,SHINEd_sun_aunuadmjocsddsrl.tif,52,0.0666666666666667,0.0666666666666667,0.983333333333333,14725.781871917,14727.680400792,13,14725.846116708,14725.915122333,14727.704237625,14728.680908667,1,1.8985288749991
132,3,8,categorization,0,kitchen,SHINEd_sun_aenotlpyftoioydp.tif,82,0.0666666666666667,0.0666666666666667,1.65,14728.686707875,14730.129491417,9,14728.748379708,14728.809498333,14730.1448585,14731.788226542,1,1.44278354199923
132,4,8,categorization,0,kitchen,SHINEd_sun_amjjdeyrggfqgmom.tif,100,0.0666666666666667,0.0666666666666667,1.23333333333333,14731.805512167,14732.644332042,9,14731.871830958,14731.938478458,14732.661086083,14733.887807958,1,0.838819874999899
132,5,8,categorization,0,kitchen,SHINEd_sun_aaxxjlsuzvqlgylf.tif,68,0.0666666666666667,0.0666666666666667,0.916666666666667,14733.896511417,14736.969195208,9,14733.963971583,14734.029348917,14736.981530917,14737.891534708,1,3.07268379099878
132,6,8,categorization,0,bathroom,SHINEd_sun_apkruvsevgegsdwp.tif,44,0.0666666666666667,0.0666666666666667,1.56666666666667,14737.896913167,14739.8095935,13,14737.958672125,14738.019679125,14739.821933958,14741.381986208,1,1.91268033300003
132,7,8,categorization,0,bathroom,SHINEd_sun_afcoljnjfoxjtgja.tif,20,0.0666666666666667,0.0666666666666667,1.63333333333333,14741.3989905,14742.717129542,13,14741.467208083,14741.531830917,14742.740729708,14744.367435625,1,1.31813904199953
132,8,8,categorization,0,bathroom,SHINEd_sun_agguqiubmwhqqunb.tif,22,0.0666666666666667,0.0666666666666667,1.1,14744.385480667,14746.409428833,9,14744.453669833,14744.518226583,14746.420626583,14747.513996542,0,2.02394816599917
132,9,8,categorization,0,bathroom,SHINEd_sun_amzlamotzwfkwjco.tif,37,0.0666666666666667,0.0666666666666667,1.38333333333333,14747.525453167,14748.682565667,9,14747.590432,14747.655356417,14748.714264292,14750.090972583,0,1.15711250000095
132,10,8,categorization,0,bathroom,SHINEd_sun_aljolscmmzydegqp.tif,33,0.0666666666666667,0.0666666666666667,0.766666666666667,14750.107325875,14751.4026795,13,14750.174360542,14750.2418085,14751.434269083,14752.194274417,1,1.29535362500064
132,11,8,categorization,0,bathroom,SHINEd_sun_aghyqhbptboemmoq.tif,23,0.0666666666666667,0.0666666666666667,1.45,14752.2000695,14753.609264667,13,14752.261767792,14752.322934125,14753.625723042,14755.069090792,1,1.40919516699978
132,12,8,categorization,0,bathroom,SHINEd_sun_atstyziqcmkahyxk.tif,51,0.0666666666666667,0.0666666666666667,0.983333333333333,14755.087759583,14756.348316042,13,14755.155364917,14755.22097625,14756.379405458,14757.356075875,1,1.26055645899942
132,13,8,categorization,0,kitchen,SHINEd_sun_ahdycvpopffkzzsu.tif,90,0.0666666666666667,0.0666666666666667,0.716666666666667,14757.3619655,14758.089769125,9,14757.423578042,14757.484678667,14758.103614208,14758.813619458,1,0.727803624999069
132,14,8,categorization,0,kitchen,SHINEd_sun_agzzivivdpnawacl.tif,89,0.0666666666666667,0.0666666666666667,1.41666666666667,14758.818529,14760.665053875,9,14758.8802815,14758.941259125,14760.677315917,14762.087371125,1,1.84652487499989
132,15,8,categorization,0,kitchen,SHINEd_sun_auticobqsbwgoppi.tif,104,0.0666666666666667,0.0666666666666667,1.21666666666667,14762.104547917,14763.745880375,9,14762.171572042,14762.237099625,14763.7567595,14764.966795833,1,1.64133245799894
132,16,8,categorization,0,kitchen,SHINEd_sun_ahljzhgcdpomplvg.tif,91,0.0666666666666667,0.0666666666666667,1.61666666666667,14764.983714333,14766.521924375,13,14765.05256325,14765.116928708,14766.541203875,14768.151249083,0,1.53821004199926
132,17,8,categorization,0,bathroom,SHINEd_sun_aapitsgbtktqubfy.tif,12,0.0666666666666667,0.0666666666666667,0.783333333333333,14768.168831083,14769.169686083,13,14768.235663917,14768.302198042,14769.192220792,14769.968893583,1,1.00085500000023
132,18,8,categorization,0,kitchen,SHINEd_sun_aarfiyshqohlwkmo.tif,67,0.0666666666666667,0.0666666666666667,1.98333333333333,14769.974245917,14772.3776435,13,14770.036046458,14770.097047542,14772.383040333,14774.359762167,0,2.4033975830007
132,19,8,categorization,0,kitchen,SHINEd_sun_acxkpeoqbwcxfvip.tif,77,0.0666666666666667,0.0666666666666667,0.983333333333333,14774.3794145,14775.648969458,9,14774.446182125,14774.512418875,14775.664535208,14776.64120725,1,1.2695549580003
132,20,8,categorization,0,bathroom,SHINEd_sun_avhrdrntsqrjzccq.tif,55,0.0666666666666667,0.0666666666666667,0.8,14776.646802458,14780.060185875,9,14776.70854575,14776.769623,14780.089066,14780.882405167,0,3.41338341699884
132,21,8,categorization,0,kitchen,SHINEd_sun_axyyrmzcupyhlivc.tif,107,0.0666666666666667,0.0666666666666667,0.733333333333333,14780.887512833,14781.969025125,13,14780.949141917,14781.010353167,14781.979138583,14782.705809708,0,1.08151229199939
132,22,8,categorization,0,kitchen,SHINEd_sun_ajcbwwvdlsvjyzje.tif,96,0.0666666666666667,0.0666666666666667,0.966666666666667,14782.711329917,14784.504712625,13,14782.773021708,14782.83414175,14784.519966583,14785.47997275,0,1.79338270799963
132,23,8,categorization,0,bathroom,SHINEd_sun_apeeialkgkuxddgh.tif,42,0.0666666666666667,0.0666666666666667,0.866666666666667,14785.485639167,14786.408858125,13,14785.54744275,14785.608389,14786.426999208,14787.287003958,1,0.923218957999779
132,24,8,categorization,0,bathroom,SHINEd_sun_apmqjbnwghzuhhzh.tif,46,0.0666666666666667,0.0666666666666667,1.23333333333333,14787.292688458,14788.521064375,9,14787.354268167,14787.415469375,14788.535009,14789.7617225,0,1.22837591700045
132,25,8,categorization,0,kitchen,SHINEd_sun_agorklincwxrdtga.tif,87,0.0666666666666667,0.0666666666666667,1.9,14789.771174375,14791.072894333,9,14789.839131417,14789.904326875,14791.096766792,14792.990135708,1,1.30171995799901
132,26,8,categorization,0,bathroom,SHINEd_sun_abapwbhyhkfixyex.tif,14,0.0666666666666667,0.0666666666666667,0.866666666666667,14793.011387,14795.040848292,9,14793.078206167,14793.144221875,14795.046785792,14795.906791917,0,2.02946129199881
132,27,8,categorization,0,kitchen,SHINEd_sun_abpwyqmlzafvklqo.tif,72,0.0666666666666667,0.0666666666666667,0.966666666666667,14795.912118458,14798.449436375,9,14795.973926292,14796.034899958,14798.454082042,14799.414088208,1,2.53731791700011
132,28,8,categorization,0,bathroom,SHINEd_sun_alotolagknyrgtsk.tif,35,0.0666666666666667,0.0666666666666667,0.916666666666667,14799.419785833,14801.448670833,9,14799.48151,14799.542595542,14801.461528083,14802.371532917,0,2.02888499999972
132,29,8,categorization,0,bathroom,SHINEd_sun_auzqhkafidnkrwmo.tif,54,0.0666666666666667,0.0666666666666667,0.916666666666667,14802.377297542,14803.496620958,13,14802.439011208,14802.500137625,14803.502555917,14804.412560458,1,1.11932341600004
132,30,8,categorization,0,kitchen,SHINEd_sun_aehawpgmrlhlvcow.tif,81,0.0666666666666667,0.0666666666666667,1.4,14804.418404125,14805.305337208,9,14804.480110667,14804.541106958,14805.309465625,14806.702848542,1,0.886933083000258
132,31,8,categorization,0,bathroom,SHINEd_sun_aqrpegblszgcoujh.tif,48,0.0666666666666667,0.0666666666666667,1.75,14806.720319083,14808.162909875,13,14806.788723125,14806.853380958,14808.195917708,14809.939287875,1,1.44259079199946
132,32,8,categorization,0,kitchen,SHINEd_sun_aypmqwcualkenuoe.tif,109,0.0666666666666667,0.0666666666666667,1.25,14809.961195625,14812.305217292,9,14810.028535875,14810.094294958,14812.31360775,14813.556979833,1,2.34402166700056
132,33,8,categorization,0,bathroom,SHINEd_sun_apynckhmoftszqoq.tif,47,0.0666666666666667,0.0666666666666667,1.05,14813.573989625,14815.40904425,13,14813.640640458,14813.705261625,14815.424394042,14816.46776025,1,1.83505462500034
132,34,8,categorization,0,bathroom,SHINEd_sun_aspsyogrekjtfozg.tif,50,0.0666666666666667,0.0666666666666667,1.06666666666667,14816.480162625,14819.504594083,9,14816.545583417,14816.611253375,14819.513708625,14820.573741083,0,3.02443145800135
132,35,8,categorization,0,kitchen,SHINEd_sun_avszsnwsbuqfgzbn.tif,105,0.0666666666666667,0.0666666666666667,1.21666666666667,14820.584584375,14821.491318583,9,14820.650026167,14820.716042542,14821.505528,14822.715583583,1,0.906734207999762
132,36,8,categorization,0,bathroom,SHINEd_labelme_sfxiulhjbhlyiyt.tif,11,0.0666666666666667,0.0666666666666667,0.95,14822.727057083,14824.077586708,13,14822.795935417,14822.86036725,14824.103348125,14825.046686875,1,1.35052962499867
132,37,8,categorization,0,bathroom,SHINEd_sun_axxbkopsgyouuebh.tif,58,0.0666666666666667,0.0666666666666667,0.9,14825.052509458,14826.416654417,13,14825.114313542,14825.175423792,14826.427634292,14827.32097325,1,1.36414495899953
132,38,8,categorization,0,bathroom,SHINEd_sun_ahqjwnzgolcaoidx.tif,29,0.0666666666666667,0.0666666666666667,1.78333333333333,14827.326599083,14829.75342975,9,14827.388505708,14827.449450583,14829.768431333,14831.54514125,0,2.4268306670001
132,39,8,categorization,0,bathroom,SHINEd_sun_azqyogdvyhahyram.tif,60,0.0666666666666667,0.0666666666666667,1.16666666666667,14831.562203375,14833.76890725,9,14831.628883208,14831.690351542,14833.775992042,14834.936036375,0,2.20670387499922
132,40,8,categorization,0,bathroom,SHINEd_sun_asfwthctfqerjvxr.tif,49,0.0666666666666667,0.0666666666666667,0.783333333333333,14834.945752125,14836.504246,13,14835.012402375,14835.079934792,14836.521935208,14837.298609292,1,1.55849387499984
132,41,8,categorization,0,kitchen,SHINEd_sun_ahywdevtimnqcsln.tif,94,0.0666666666666667,0.0666666666666667,1.23333333333333,14837.304359333,14838.6166555,9,14837.366258208,14837.427179083,14838.630034333,14839.856751,1,1.31229616699966
132,42,8,categorization,0,bathroom,SHINEd_sun_aclfzgynxzxlbepz.tif,19,0.0666666666666667,0.0666666666666667,0.9,14839.866335375,14840.914460292,9,14839.934427,14839.99917225,14840.938950625,14841.832290125,0,1.04812491700068
132,43,8,categorization,0,kitchen,SHINEd_sun_acgtpgfybqjmzeyw.tif,75,0.0666666666666667,0.0666666666666667,0.7,14841.837941458,14842.53686175,9,14841.899627583,14841.960725542,14842.545750583,14843.239089583,1,0.698920292001276
132,44,8,categorization,0,kitchen,SHINEd_sun_ahpczsiumwwocjkv.tif,92,0.0666666666666667,0.0666666666666667,1.23333333333333,14843.244771667,14845.33657275,13,14843.306387958,14843.367529833,14845.353611333,14846.580331417,0,2.09180108300097
132,45,8,categorization,0,bathroom,SHINEd_sun_akiytfaagpdsphgz.tif,31,0.0666666666666667,0.0666666666666667,1,14846.597823708,14849.160488083,13,14846.667422458,14846.727541,14849.181019292,14850.174358125,1,2.56266437500017
132,46,8,categorization,0,bathroom,SHINEd_sun_ambriybtogmepttm.tif,36,0.0666666666666667,0.0666666666666667,1.38333333333333,14850.179937,14850.960433917,9,14850.241574625,14850.302808333,14850.971338958,14852.348059292,0,0.780496916999255
132,47,8,categorization,0,kitchen,SHINEd_sun_aadbddgrdsjugojn.tif,64,0.0666666666666667,0.0666666666666667,1.3,14852.36455025,14853.227347708,9,14852.433099042,14852.497719833,14853.254210208,14854.547602792,1,0.862797457999477
132,48,8,categorization,0,bathroom,SHINEd_sun_agrwbmhcpmfuwmsg.tif,24,0.0666666666666667,0.0666666666666667,0.833333333333333,14854.566037833,14855.931208,13,14854.633090583,14854.699156417,14855.957562208,14856.784234,1,1.36517016700054
132,49,8,categorization,0,kitchen,SHINEd_sun_abrcnpqqhmjwekyf.tif,73,0.0666666666666667,0.0666666666666667,0.95,14856.791288167,14858.97673825,9,14856.853053167,14856.914093375,14858.983186917,14859.926524,1,2.18545008299952
132,50,8,categorization,0,kitchen,SHINEd_sun_azmutvzbxypaceni.tif,110,0.0666666666666667,0.0666666666666667,1.43333333333333,14859.931647875,14860.816587958,9,14859.993459417,14860.054467458,14860.822945333,14862.249664208,1,0.884940082998583
132,1,9,categorization,0,bathroom,SHINEd_sun_apkxzenqapsujocq.tif,45,0.0666666666666667,0.0666666666666667,1.08333333333333,14935.691565167,14937.088951292,13,14935.7533735,14935.81505475,14937.100749042,14938.177457917,1,1.39738612499968
132,2,9,categorization,0,bathroom,SHINEd_sun_apkruvsevgegsdwp.tif,44,0.0666666666666667,0.0666666666666667,0.8,14938.185990042,14938.920029917,13,14938.251215,14938.318269542,14938.941267958,14939.734635583,1,0.734039875000235
132,3,9,categorization,0,kitchen,SHINEd_sun_aenotlpyftoioydp.tif,82,0.0666666666666667,0.0666666666666667,0.833333333333333,14939.744200833,14940.472849125,9,14939.811199208,14939.877291125,14940.479683917,14941.306355167,1,0.728648292000798
132,4,9,categorization,0,kitchen,SHINEd_sun_ahljzhgcdpomplvg.tif,91,0.0666666666666667,0.0666666666666667,1.45,14941.311264875,14942.000746667,9,14941.373023208,14941.433994625,14942.019162958,14943.462534708,1,0.689481792000151
132,5,9,categorization,0,kitchen,SHINEd_sun_acfmftudsenhrfhy.tif,74,0.0666666666666667,0.0666666666666667,1.3,14943.479922833,14944.324193917,9,14943.545911583,14943.610544792,14944.350473208,14945.643854042,1,0.844271084000866
132,6,9,categorization,0,kitchen,SHINEd_sun_aunzlwrbjumxhwdj.tif,103,0.0666666666666667,0.0666666666666667,1.21666666666667,14945.658667292,14946.288903792,9,14945.723355833,14945.789451375,14946.31265825,14947.522711333,1,0.630236499999228
132,7,9,categorization,0,kitchen,SHINEd_sun_ahdycvpopffkzzsu.tif,90,0.0666666666666667,0.0666666666666667,0.733333333333333,14947.539471167,14948.555632667,13,14947.605805042,14947.667830625,14948.574076417,14949.300778375,0,1.01616149999973
132,8,9,categorization,0,kitchen,SHINEd_labelme_rykdqxenmhulbdn.tif,63,0.0666666666666667,0.0666666666666667,1.03333333333333,14949.316381375,14950.624884875,13,14949.382672167,14949.440464833,14950.642964042,14951.669672417,0,1.30850350000037
132,9,9,categorization,0,bathroom,SHINEd_sun_agguqiubmwhqqunb.tif,22,0.0666666666666667,0.0666666666666667,1.1,14951.678897917,14952.886400333,13,14951.743415792,14951.80894275,14952.918457167,14954.011836333,1,1.20750241600035
132,10,9,categorization,0,bathroom,SHINEd_sun_aavhrsfjbserjtht.tif,13,0.0666666666666667,0.0666666666666667,1.25,14954.021538125,14955.427394125,9,14954.086580333,14954.15462475,14955.446841375,14956.690223958,0,1.4058559999994
132,11,9,categorization,0,bathroom,SHINEd_sun_anhioqovhscjqqwb.tif,38,0.0666666666666667,0.0666666666666667,1.4,14956.710629708,14957.802893917,9,14956.777641833,14956.84392625,14957.816506542,14959.209872375,0,1.09226420899904
132,12,9,categorization,0,bathroom,SHINEd_sun_ahaulkltgpkeeemi.tif,26,0.0666666666666667,0.0666666666666667,1.43333333333333,14959.226896,14960.317928458,13,14959.294324792,14959.360218458,14960.332878167,14961.7595955,1,1.09103245799997
