sub_num,trial,block,task,is_practice,category,image,texture,duration,mask_dur,jitter,stim_time,time_of_resp,trial_response,mask_time,fix_time,jit_onset,trial_end,trial_accuracy,RT
135,1,16,categorization,0,kitchen,SHINEd_sun_abpwyqmlzafvklqo.tif,72,0.0666666666666667,0.0666666666666667,1.56666666666667,2808.756572708,2809.894382458,9,2808.81914975,2808.879542208,2809.897968333,2811.458004625,1,1.13780975000009
135,2,16,categorization,0,kitchen,SHINEd_sun_aggjlwcdjsjcaemh.tif,86,0.0666666666666667,0.0666666666666667,1.38333333333333,2811.473926541,2812.834009833,9,2811.539959,2811.604737041,2812.862526166,2814.239249125,1,1.36008329200013
135,3,16,categorization,0,bathroom,SHINEd_sun_avhrdrntsqrjzccq.tif,55,0.0666666666666667,0.0666666666666667,1.95,2814.255867291,2815.846347708,13,2814.322757791,2814.388112208,2815.862522875,2817.805894208,1,1.59048041699998
135,4,16,categorization,0,kitchen,SHINEd_sun_ahywdevtimnqcsln.tif,94,0.0666666666666667,0.0666666666666667,0.833333333333333,2817.823451375,2818.990200375,9,2817.890442291,2817.955284125,2819.0078545,2819.834526708,1,1.16674899999998
135,5,16,categorization,0,kitchen,SHINEd_sun_abdenxonkemggwsq.tif,69,0.0666666666666667,0.0666666666666667,1.06666666666667,2819.8392325,2820.742385458,9,2819.901081708,2819.962211166,2820.747413166,2821.807447291,1,0.903152958000192
135,6,16,categorization,0,kitchen,SHINEd_sun_aymvwlarqodbwuoc.tif,108,0.0666666666666667,0.0666666666666667,1.15,2821.815867083,2823.089142333,9,2821.880149875,2821.945369083,2823.119436875,2824.262824166,1,1.2732752500001
135,7,16,categorization,0,kitchen,SHINEd_sun_avszsnwsbuqfgzbn.tif,105,0.0666666666666667,0.0666666666666667,0.866666666666667,2824.272127666,2824.991539083,9,2824.337904958,2824.40420525,2825.010325583,2825.870363833,1,0.719411417000174
135,8,16,categorization,0,kitchen,SHINEd_sun_axyyrmzcupyhlivc.tif,107,0.0666666666666667,0.0666666666666667,1.03333333333333,2825.883237166,2826.766502916,9,2825.9496555,2826.015720916,2826.784451,2827.811149916,1,0.883265749999737
135,9,16,categorization,0,bathroom,SHINEd_sun_ajlawzvmubibwbpy.tif,30,0.0666666666666667,0.0666666666666667,1.85,2827.81940375,2827.939966916,13,2827.884083541,2827.951499916,2827.97282875,2829.816208833,1,0.120563165999556
135,10,16,categorization,0,kitchen,SHINEd_sun_akchetnepxlcxhsu.tif,98,0.0666666666666667,0.0666666666666667,1.25,2829.834435416,2830.685591541,13,2829.8969115,2829.957063416,2830.692361666,2831.93573525,0,0.851156125000216
135,11,16,categorization,0,bathroom,SHINEd_sun_axldvoqbuvuggfmq.tif,57,0.0666666666666667,0.0666666666666667,1.55,2831.953075625,2832.653773416,13,2832.019794375,2832.085259875,2832.675092875,2834.218460291,1,0.700697791000039
135,12,16,categorization,0,kitchen,SHINEd_sun_aunzlwrbjumxhwdj.tif,103,0.0666666666666667,0.0666666666666667,0.933333333333333,2834.233348708,2835.127014041,9,2834.299816916,2834.365714291,2835.155786458,2836.082458041,1,0.893665333000172
135,13,16,categorization,0,kitchen,SHINEd_sun_abrcnpqqhmjwekyf.tif,73,0.0666666666666667,0.0666666666666667,1.3,2836.0880835,2837.366035666,13,2836.149779208,2836.210643375,2837.379349333,2838.672733708,0,1.27795216599998
135,14,16,categorization,0,bathroom,SHINEd_sun_apkruvsevgegsdwp.tif,44,0.0666666666666667,0.0666666666666667,0.883333333333333,2838.689455125,2839.352185916,13,2838.755547625,2838.821630208,2839.3781785,2840.254880833,1,0.662730790999831
135,15,16,categorization,0,bathroom,SHINEd_sun_aofnryafpsjimzsb.tif,40,0.0666666666666667,0.0666666666666667,0.866666666666667,2840.270929375,2841.173576166,9,2840.337180708,2840.403094875,2841.188821208,2842.048827,0,0.902646791000279
135,16,16,categorization,0,bathroom,SHINEd_sun_axxbkopsgyouuebh.tif,58,0.0666666666666667,0.0666666666666667,1.91666666666667,2842.054378291,2843.685698458,13,2842.116116375,2842.177023375,2843.695773333,2845.605817416,1,1.63132016700001
135,17,16,categorization,0,bathroom,SHINEd_sun_acegryoqftbzowsg.tif,17,0.0666666666666667,0.0666666666666667,0.95,2845.614648041,2846.417542416,13,2845.679745333,2845.746846916,2846.436427125,2847.379765333,1,0.802894375000051
135,18,16,categorization,0,kitchen,SHINEd_sun_adgqasybjyktddhj.tif,78,0.0666666666666667,0.0666666666666667,0.883333333333333,2847.384617666,2848.869601958,9,2847.446299333,2847.507229041,2848.876315625,2849.752987541,1,1.48498429200026
135,19,16,categorization,0,kitchen,SHINEd_sun_ahdycvpopffkzzsu.tif,90,0.0666666666666667,0.0666666666666667,0.933333333333333,2849.76016675,2850.614065208,9,2849.821966416,2849.882708625,2850.6178365,2851.544508541,1,0.853898458000003
135,20,16,categorization,0,kitchen,SHINEd_sun_azmutvzbxypaceni.tif,110,0.0666666666666667,0.0666666666666667,0.716666666666667,2851.549913833,2852.469625375,9,2851.611642708,2851.672506875,2852.474588125,2853.184595208,1,0.919711541999732
135,21,16,categorization,0,kitchen,SHINEd_sun_acgtpgfybqjmzeyw.tif,75,0.0666666666666667,0.0666666666666667,1.23333333333333,2853.190053541,2853.901485333,13,2853.251720958,2853.312542708,2853.914291083,2855.141001041,0,0.711431791999985
135,22,16,categorization,0,kitchen,SHINEd_sun_aegoxogugdkwpmpj.tif,80,0.0666666666666667,0.0666666666666667,0.833333333333333,2855.151733166,2855.984806458,9,2855.217986333,2855.283987958,2856.00721025,2856.833910875,1,0.833073291999881
135,23,16,categorization,0,bathroom,SHINEd_sun_aclfzgynxzxlbepz.tif,19,0.0666666666666667,0.0666666666666667,1.05,2856.849452458,2857.62204975,13,2856.915534125,2856.981454625,2857.633265416,2858.676649916,1,0.772597291999773
135,24,16,categorization,0,kitchen,SHINEd_sun_aexklacwqwezaorf.tif,84,0.0666666666666667,0.0666666666666667,1.46666666666667,2858.686142541,2859.640535208,9,2858.750360416,2858.816736541,2859.654288,2861.114345,1,0.954392666999865
135,25,16,categorization,0,bathroom,SHINEd_sun_akiytfaagpdsphgz.tif,31,0.0666666666666667,0.0666666666666667,1.68333333333333,2861.130287208,2861.949465916,13,2861.196621041,2861.262431083,2861.968604833,2863.645308583,1,0.819178707999981
135,26,16,categorization,0,bathroom,SHINEd_sun_aggnnqpdorgxpvce.tif,21,0.0666666666666667,0.0666666666666667,0.883333333333333,2863.656497791,2864.48572675,9,2863.722683416,2863.788476041,2864.511495666,2865.388167833,0,0.82922895899992
135,27,16,categorization,0,bathroom,SHINEd_sun_abjtwfukuwddzted.tif,15,0.0666666666666667,0.0666666666666667,1.16666666666667,2865.39379925,2867.846092291,9,2865.45553725,2865.5164105,2867.852206083,2869.012240541,0,2.45229304099985
135,28,16,categorization,0,bathroom,SHINEd_sun_ambriybtogmepttm.tif,36,0.0666666666666667,0.0666666666666667,0.766666666666667,2869.021529333,2870.634178166,9,2869.087425916,2869.153465833,2870.661528791,2871.421534083,0,1.61264883299964
135,29,16,categorization,0,bathroom,SHINEd_sun_anhioqovhscjqqwb.tif,38,0.0666666666666667,0.0666666666666667,0.8,2871.426693833,2872.053966083,13,2871.488384416,2871.54940025,2872.0678065,2872.861144791,1,0.627272249999805
135,30,16,categorization,0,kitchen,SHINEd_sun_auticobqsbwgoppi.tif,104,0.0666666666666667,0.0666666666666667,1.03333333333333,2872.865842708,2873.613566083,13,2872.927664291,2872.988366375,2873.623575041,2874.650287291,0,0.747723375000078
135,31,16,categorization,0,kitchen,SHINEd_sun_afuyedyxivkhecmu.tif,85,0.0666666666666667,0.0666666666666667,1.35,2874.660601625,2875.485671041,9,2874.725183833,2874.791344458,2875.5142365,2876.857609958,1,0.825069416000133
135,32,16,categorization,0,bathroom,SHINEd_labelme_sfxiulhjbhlyiyt.tif,11,0.0666666666666667,0.0666666666666667,0.95,2876.874303541,2877.446143,13,2876.940267791,2877.007144916,2877.4628355,2878.406214416,1,0.57183945900033
135,33,16,categorization,0,bathroom,SHINEd_sun_aleqenyvunhactkl.tif,32,0.0666666666666667,0.0666666666666667,0.766666666666667,2878.422080875,2879.013908458,13,2878.488189416,2878.554172208,2879.023293458,2879.783298916,1,0.59182758299994
135,34,16,categorization,0,kitchen,SHINEd_sun_aadbddgrdsjugojn.tif,64,0.0666666666666667,0.0666666666666667,1.08333333333333,2879.788343208,2880.581951125,13,2879.850000833,2879.910978125,2880.596405833,2881.673114416,0,0.793607917000372
135,35,16,categorization,0,kitchen,SHINEd_sun_ahpczsiumwwocjkv.tif,92,0.0666666666666667,0.0666666666666667,1.16666666666667,2881.680937208,2882.342135708,9,2881.745422583,2881.811932208,2882.368380791,2883.528437041,1,0.661198499999955
135,36,16,categorization,0,kitchen,SHINEd_sun_aeqdocilnnpuvuhx.tif,83,0.0666666666666667,0.0666666666666667,1.71666666666667,2883.544368333,2884.21357125,9,2883.60909525,2883.674880708,2884.227148916,2885.93719725,1,0.669202916999893
135,37,16,categorization,0,bathroom,SHINEd_sun_agyqfjcfkdcydepw.tif,25,0.0666666666666667,0.0666666666666667,0.966666666666667,2885.953518916,2886.587025416,13,2886.019721291,2886.085849041,2886.607783125,2887.567788166,1,0.633506499999839
135,38,16,categorization,0,kitchen,SHINEd_sun_agzzivivdpnawacl.tif,89,0.0666666666666667,0.0666666666666667,0.966666666666667,2887.572680375,2888.389585333,9,2887.634388208,2887.695293083,2888.397162333,2889.357166333,1,0.816904958000123
135,39,16,categorization,0,kitchen,SHINEd_sun_agubuxuukhzyzpdp.tif,88,0.0666666666666667,0.0666666666666667,0.75,2889.361989041,2890.165453583,13,2889.423681166,2889.484845833,2890.170389666,2890.913726583,0,0.803464541999801
135,40,16,categorization,0,kitchen,SHINEd_sun_ajcbwwvdlsvjyzje.tif,96,0.0666666666666667,0.0666666666666667,1.05,2890.918265333,2891.917615083,9,2890.979905291,2891.040823333,2891.926078958,2892.969449791,1,0.999349749999965
135,41,16,categorization,0,bathroom,SHINEd_sun_apjevzvycyhuqghb.tif,43,0.0666666666666667,0.0666666666666667,0.85,2892.980951875,2894.175690958,9,2893.044725375,2893.111012541,2894.201399625,2895.044791083,0,1.19473908300006
135,42,16,categorization,0,bathroom,SHINEd_sun_abapwbhyhkfixyex.tif,14,0.0666666666666667,0.0666666666666667,1.25,2895.052386666,2895.805924916,13,2895.114849125,2895.175069333,2895.810319416,2897.053710625,1,0.75353825000002
135,43,16,categorization,0,bathroom,SHINEd_sun_ahaulkltgpkeeemi.tif,26,0.0666666666666667,0.0666666666666667,1.1,2897.069292416,2898.097007416,13,2897.135905166,2897.201517791,2898.124807708,2899.218195541,1,1.02771500000017
135,44,16,categorization,0,kitchen,SHINEd_sun_akcjzhbbjlbogpdi.tif,99,0.0666666666666667,0.0666666666666667,0.866666666666667,2899.227448791,2899.946322708,9,2899.292093416,2899.359547125,2899.966488458,2900.826540666,1,0.71887391700011
135,45,16,categorization,0,bathroom,SHINEd_sun_aapitsgbtktqubfy.tif,12,0.0666666666666667,0.0666666666666667,0.716666666666667,2900.844682916,2901.5898925,9,2900.911417,2900.977111,2901.595585666,2902.305591166,0,0.745209584000349
135,46,16,categorization,0,bathroom,SHINEd_sun_axyrejkiiaqiurjk.tif,59,0.0666666666666667,0.0666666666666667,1.98333333333333,2902.3111975,2902.966203041,9,2902.372910333,2902.433783541,2902.985900625,2904.962600625,0,0.655005540999809
135,47,16,categorization,0,bathroom,SHINEd_sun_asfwthctfqerjvxr.tif,49,0.0666666666666667,0.0666666666666667,1.93333333333333,2904.979404125,2905.287366,13,2905.045981166,2905.112038291,2905.300801833,2907.227502625,1,0.307961874999819
135,48,16,categorization,0,bathroom,SHINEd_sun_agrwbmhcpmfuwmsg.tif,24,0.0666666666666667,0.0666666666666667,0.8,2907.244859958,2907.854018375,13,2907.311462583,2907.377403875,2907.88396975,2908.677309708,1,0.609158417000344
135,49,16,categorization,0,bathroom,SHINEd_sun_aavhrsfjbserjtht.tif,13,0.0666666666666667,0.0666666666666667,1.71666666666667,2908.682823833,2909.613799625,13,2908.744384291,2908.805424583,2909.62400925,2911.334062291,1,0.930975792000027
135,50,16,categorization,0,bathroom,SHINEd_sun_atstyziqcmkahyxk.tif,51,0.0666666666666667,0.0666666666666667,1.96666666666667,2911.350563375,2911.83686775,9,2911.416863125,2911.482802875,2911.855656583,2913.815700375,0,0.48630437499969
