sub_num,trial,block,task,is_practice,category,image,texture,duration,mask_dur,jitter,stim_time,time_of_resp,trial_response,mask_time,fix_time,jit_onset,trial_end,trial_accuracy,RT
135,1,6,categorization,0,bathroom,SHINEd_sun_ajlawzvmubibwbpy.tif,30,0.0666666666666667,0.0666666666666667,0.966666666666667,1431.47398225,1432.491844083,9,1431.536535166,1431.596702208,1432.498585375,1433.458589708,0,1.01786183299987
135,2,6,categorization,0,kitchen,SHINEd_sun_agzzivivdpnawacl.tif,89,0.0666666666666667,0.0666666666666667,1.73333333333333,1433.463208083,1434.21923325,9,1433.524821708,1433.585760958,1434.237890625,1435.964591666,1,0.756025166999962
135,3,6,categorization,0,kitchen,SHINEd_sun_aexklacwqwezaorf.tif,84,0.0666666666666667,0.0666666666666667,1.91666666666667,1435.981544625,1436.761009083,9,1436.047607166,1436.113405958,1436.786520958,1438.696566,1,0.77946445800012
135,4,6,categorization,0,kitchen,SHINEd_sun_abpwyqmlzafvklqo.tif,72,0.0666666666666667,0.0666666666666667,0.766666666666667,1438.71259975,1439.801031333,13,1438.779270291,1438.844556083,1439.817418583,1440.577422458,0,1.0884315830001
135,5,6,categorization,0,kitchen,SHINEd_sun_aeqdocilnnpuvuhx.tif,83,0.0666666666666667,0.0666666666666667,0.916666666666667,1440.583273208,1441.403301958,9,1440.64507825,1440.705960375,1441.408259791,1442.318263458,1,0.820028749999892
135,6,6,categorization,0,kitchen,SHINEd_sun_aapllqyqlykszopd.tif,66,0.0666666666666667,0.0666666666666667,1.18333333333333,1442.323028375,1443.03593325,13,1442.384671416,1442.445605291,1443.047549583,1444.224276,0,0.712904875000049
135,7,6,categorization,0,kitchen,SHINEd_sun_acwjdupvyjsugpay.tif,76,0.0666666666666667,0.0666666666666667,1.8,1444.235204958,1445.683303625,9,1444.3017885,1444.367679791,1445.710612916,1447.503982416,1,1.44809866700007
135,8,6,categorization,0,kitchen,SHINEd_sun_aggjlwcdjsjcaemh.tif,86,0.0666666666666667,0.0666666666666667,0.883333333333333,1447.520539625,1448.86776225,9,1447.585599041,1447.651461958,1448.887300541,1449.763972041,1,1.34722262499986
135,9,6,categorization,0,kitchen,SHINEd_sun_admlmbcdswaszruo.tif,79,0.0666666666666667,0.0666666666666667,1.83333333333333,1449.768569541,1450.475751625,9,1449.830233041,1449.89114975,1450.493057458,1452.319764458,1,0.707182083999896
135,10,6,categorization,0,bathroom,SHINEd_sun_aspsyogrekjtfozg.tif,50,0.0666666666666667,0.0666666666666667,1.76666666666667,1452.337182666,1453.435447375,13,1452.403899833,1452.469437833,1453.459347333,1455.219398166,1,1.09826470899998
135,11,6,categorization,0,kitchen,SHINEd_labelme_kxvouciolcpqplr.tif,62,0.0666666666666667,0.0666666666666667,0.983333333333333,1455.236373291,1456.134674291,13,1455.302717833,1455.368539291,1456.158794291,1457.135467,0,0.898300999999947
135,12,6,categorization,0,kitchen,SHINEd_sun_auticobqsbwgoppi.tif,104,0.0666666666666667,0.0666666666666667,0.883333333333333,1457.140466541,1457.85998,9,1457.202159583,1457.263109458,1457.86490075,1458.741571625,1,0.719513458999927
135,13,6,categorization,0,kitchen,SHINEd_sun_ahdycvpopffkzzsu.tif,90,0.0666666666666667,0.0666666666666667,0.85,1458.746227166,1459.658942166,13,1458.807945291,1458.868765458,1459.670670458,1460.514007541,0,0.912715000000162
135,14,6,categorization,0,kitchen,SHINEd_sun_aehawpgmrlhlvcow.tif,81,0.0666666666666667,0.0666666666666667,0.733333333333333,1460.518751,1461.659360625,9,1460.580292958,1460.641358416,1461.676711666,1462.403381958,1,1.14060962500002
135,15,6,categorization,0,bathroom,SHINEd_sun_aavhrsfjbserjtht.tif,13,0.0666666666666667,0.0666666666666667,1.88333333333333,1462.407984833,1463.835020208,9,1462.469718833,1462.530599833,1463.849410791,1465.726136,0,1.42703537500006
135,16,6,categorization,0,bathroom,SHINEd_sun_asfwthctfqerjvxr.tif,49,0.0666666666666667,0.0666666666666667,0.816666666666667,1465.738305166,1466.538874291,13,1465.806236333,1465.870707208,1466.560340208,1467.370345708,1,0.800569125000038
135,17,6,categorization,0,kitchen,SHINEd_sun_aymvwlarqodbwuoc.tif,108,0.0666666666666667,0.0666666666666667,1.9,1467.375082708,1468.299616708,9,1467.436725375,1467.497694083,1468.316764541,1470.210145666,1,0.924533999999994
135,18,6,categorization,0,kitchen,SHINEd_sun_auaiucuqpdausiva.tif,102,0.0666666666666667,0.0666666666666667,0.983333333333333,1470.227042875,1470.871986583,13,1470.293670958,1470.359520333,1470.899072625,1471.87574375,0,0.644943708000028
135,19,6,categorization,0,kitchen,SHINEd_sun_acfmftudsenhrfhy.tif,74,0.0666666666666667,0.0666666666666667,0.75,1471.88056425,1473.547283416,13,1471.942240125,1472.0033665,1473.555692333,1474.299031625,0,1.66671916600012
135,20,6,categorization,0,bathroom,SHINEd_sun_apmqjbnwghzuhhzh.tif,46,0.0666666666666667,0.0666666666666667,1.6,1474.303509083,1475.010997458,13,1474.365246791,1474.426096958,1475.027926041,1476.621292333,1,0.707488374999912
135,21,6,categorization,0,bathroom,SHINEd_sun_apjevzvycyhuqghb.tif,43,0.0666666666666667,0.0666666666666667,1.58333333333333,1476.638119333,1477.396979166,9,1476.70463875,1476.77055875,1477.427065625,1479.003783458,0,0.75885983299986
135,22,6,categorization,0,kitchen,SHINEd_sun_aadbddgrdsjugojn.tif,64,0.0666666666666667,0.0666666666666667,1.11666666666667,1479.02130625,1479.869780916,9,1479.08757225,1479.153644875,1479.893665666,1481.0037115,1,0.848474666000129
135,23,6,categorization,0,kitchen,SHINEd_sun_aenotlpyftoioydp.tif,82,0.0666666666666667,0.0666666666666667,1.53333333333333,1481.012022291,1481.803895791,9,1481.076693875,1481.144349916,1481.834381083,1483.361092208,1,0.791873500000065
135,24,6,categorization,0,bathroom,SHINEd_sun_apynckhmoftszqoq.tif,47,0.0666666666666667,0.0666666666666667,1.48333333333333,1483.379227416,1484.160125,13,1483.44565225,1483.511185458,1484.183352875,1485.660051166,1,0.780897584000058
135,25,6,categorization,0,kitchen,SHINEd_sun_aaxxjlsuzvqlgylf.tif,68,0.0666666666666667,0.0666666666666667,1.1,1485.67151575,1486.691387166,13,1485.738206166,1485.803861541,1486.710242625,1487.803620041,0,1.01987141599989
135,26,6,categorization,0,bathroom,SHINEd_sun_atstyziqcmkahyxk.tif,51,0.0666666666666667,0.0666666666666667,0.933333333333333,1487.812366833,1488.693816583,13,1487.877503791,1487.944685333,1488.71833775,1489.645050208,1,0.881449750000002
135,27,6,categorization,0,bathroom,SHINEd_sun_apeeialkgkuxddgh.tif,42,0.0666666666666667,0.0666666666666667,0.816666666666667,1489.654954416,1490.299203583,13,1489.721866083,1489.787359125,1490.305989833,1491.115994708,1,0.644249166999998
135,28,6,categorization,0,bathroom,SHINEd_sun_aljolscmmzydegqp.tif,33,0.0666666666666667,0.0666666666666667,1.78333333333333,1491.120628125,1491.811011791,13,1491.182221291,1491.24329525,1491.828538208,1493.605240958,1,0.690383666000116
135,29,6,categorization,0,bathroom,SHINEd_sun_aggnnqpdorgxpvce.tif,21,0.0666666666666667,0.0666666666666667,0.766666666666667,1493.616587625,1494.106874291,9,1493.681892458,1493.748738375,1494.120836041,1494.880843833,0,0.490286665999975
135,30,6,categorization,0,kitchen,SHINEd_sun_aixorpehvfykdynp.tif,95,0.0666666666666667,0.0666666666666667,1.45,1494.886598333,1495.315449583,9,1494.948386166,1495.009195916,1495.327715666,1496.771105958,1,0.42885124999998
135,31,6,categorization,0,bathroom,SHINEd_sun_agguqiubmwhqqunb.tif,22,0.0666666666666667,0.0666666666666667,0.75,1496.786125375,1497.176964375,9,1496.852774708,1496.918231458,1497.1905735,1497.933951791,0,0.390838999999914
135,32,6,categorization,0,kitchen,SHINEd_sun_acxkpeoqbwcxfvip.tif,77,0.0666666666666667,0.0666666666666667,1.36666666666667,1497.948363458,1498.835456166,9,1498.014408625,1498.080715458,1498.84964675,1500.20970375,1,0.887092708000182
135,33,6,categorization,0,kitchen,SHINEd_sun_ajkqhtgcbgpcwrwn.tif,97,0.0666666666666667,0.0666666666666667,0.75,1500.226158958,1501.156184083,9,1500.2927475,1500.358500375,1501.182191083,1501.925531791,1,0.930025124999929
135,34,6,categorization,0,kitchen,SHINEd_sun_ajcbwwvdlsvjyzje.tif,96,0.0666666666666667,0.0666666666666667,0.783333333333333,1501.934122833,1502.563559375,13,1501.99586925,1502.056711333,1502.575090208,1503.351762208,0,0.629436542000121
135,35,6,categorization,0,kitchen,SHINEd_sun_amjjdeyrggfqgmom.tif,100,0.0666666666666667,0.0666666666666667,1.11666666666667,1503.356926708,1504.259136333,9,1503.418693041,1503.479472916,1504.265207333,1505.375261083,1,0.902209625000069
135,36,6,categorization,0,kitchen,SHINEd_sun_avszsnwsbuqfgzbn.tif,105,0.0666666666666667,0.0666666666666667,0.766666666666667,1505.383595666,1506.152037333,9,1505.447322166,1505.51576975,1506.171918916,1506.931965375,1,0.768441666999934
135,37,6,categorization,0,kitchen,SHINEd_sun_agorklincwxrdtga.tif,87,0.0666666666666667,0.0666666666666667,0.716666666666667,1506.947057666,1507.682976375,13,1507.013087125,1507.078782541,1507.697312458,1508.407316291,0,0.735918708999861
135,38,6,categorization,0,kitchen,SHINEd_sun_abdenxonkemggwsq.tif,69,0.0666666666666667,0.0666666666666667,1.33333333333333,1508.412042958,1509.963151666,13,1508.473708041,1508.53462725,1509.970010125,1511.296729416,0,1.5511087079999
135,39,6,categorization,0,kitchen,SHINEd_labelme_rykdqxenmhulbdn.tif,63,0.0666666666666667,0.0666666666666667,1.75,1511.313737,1512.951283208,9,1511.38102825,1511.445965875,1512.971614833,1514.715001041,1,1.637546208
135,40,6,categorization,0,bathroom,SHINEd_sun_ausgutylgojavyoq.tif,53,0.0666666666666667,0.0666666666666667,1.13333333333333,1514.729539666,1515.454676375,13,1514.796313458,1514.861565708,1515.485004833,1516.611724333,1,0.725136709000026
135,41,6,categorization,0,kitchen,SHINEd_sun_acgtpgfybqjmzeyw.tif,75,0.0666666666666667,0.0666666666666667,1.63333333333333,1516.6205545,1517.471406958,9,1516.685894375,1516.752949333,1517.492982666,1519.119696041,1,0.850852457999963
135,42,6,categorization,0,bathroom,SHINEd_sun_aghyqhbptboemmoq.tif,23,0.0666666666666667,0.0666666666666667,1.43333333333333,1519.137299083,1519.906450583,13,1519.204410333,1519.270195333,1519.92699325,1521.353695125,1,0.769151499999907
135,43,6,categorization,0,bathroom,SHINEd_sun_axxbkopsgyouuebh.tif,58,0.0666666666666667,0.0666666666666667,1.83333333333333,1521.371495416,1522.14255675,13,1521.438358833,1521.504619083,1522.161141583,1523.98786175,1,0.771061334000024
135,44,6,categorization,0,bathroom,SHINEd_sun_acegryoqftbzowsg.tif,17,0.0666666666666667,0.0666666666666667,1.93333333333333,1524.006185833,1524.762586583,13,1524.073048916,1524.138870958,1524.77759175,1526.704309333,1,0.756400750000012
135,45,6,categorization,0,bathroom,SHINEd_sun_afcoljnjfoxjtgja.tif,20,0.0666666666666667,0.0666666666666667,1.26666666666667,1526.721722416,1527.334998375,9,1526.788401583,1526.854658166,1527.361518625,1528.621555791,0,0.613275959000021
135,46,6,categorization,0,bathroom,SHINEd_sun_alotolagknyrgtsk.tif,35,0.0666666666666667,0.0666666666666667,1.86666666666667,1528.639743625,1530.333981791,9,1528.70672475,1528.772302,1530.36521,1532.225268958,0,1.6942381660001
135,47,6,categorization,0,kitchen,SHINEd_sun_aqeaevwwwjoqhzvl.tif,101,0.0666666666666667,0.0666666666666667,1.41666666666667,1532.243915083,1533.389107958,13,1532.311404125,1532.376458583,1533.416707708,1534.826747916,0,1.14519287500002
135,48,6,categorization,0,kitchen,SHINEd_sun_aamedkxepzlwuxes.tif,65,0.0666666666666667,0.0666666666666667,1.11666666666667,1534.84436475,1535.941461708,13,1534.911437791,1534.976869916,1535.967562125,1537.077603916,0,1.09709695799984
135,49,6,categorization,0,bathroom,SHINEd_labelme_sfxiulhjbhlyiyt.tif,11,0.0666666666666667,0.0666666666666667,1.8,1537.086061083,1538.572902,13,1537.152051833,1537.218610875,1538.594249541,1540.387633916,1,1.48684091700011
135,50,6,categorization,0,kitchen,SHINEd_sun_abdxkyyxwfskuaqb.tif,70,0.0666666666666667,0.0666666666666667,1.25,1540.405881208,1541.383821583,9,1540.474043291,1540.538556041,1541.412666833,1542.656033916,1,0.977940375000117
