sub_num,trial,block,task,is_practice,category,image,texture,duration,mask_dur,jitter,stim_time,time_of_resp,trial_response,mask_time,fix_time,jit_onset,trial_end,trial_accuracy,RT
112,1,3,categorization,0,kitchen,SHINEd_sun_azmutvzbxypaceni.tif,110,0.0666666666666667,0.0666666666666667,0.85,633.053611541,634.847811708,9,633.115442375,633.176412,634.862518625,635.705855958,1,1.79420016699999
112,2,3,categorization,0,bathroom,SHINEd_sun_agyqfjcfkdcydepw.tif,25,0.0666666666666667,0.0666666666666667,1.65,635.710755708,636.432237083,13,635.772433791,635.833531125,636.435194458,638.078578916,1,0.721481375000053
112,3,3,categorization,0,kitchen,SHINEd_sun_aypmqwcualkenuoe.tif,109,0.0666666666666667,0.0666666666666667,0.783333333333333,638.103032833,638.910335458,9,638.167663791,638.233012041,638.940135125,639.716807833,1,0.80730262499992
112,4,3,categorization,0,kitchen,SHINEd_sun_amjjdeyrggfqgmom.tif,100,0.0666666666666667,0.0666666666666667,0.933333333333333,639.721932875,640.928715458,9,639.783561291,639.844612791,640.946932041,641.873604416,1,1.20678258300006
112,5,3,categorization,0,bathroom,SHINEd_sun_apjevzvycyhuqghb.tif,43,0.0666666666666667,0.0666666666666667,0.866666666666667,641.878542916,642.928710041,9,641.940247375,642.00111925,642.936895666,643.796900083,0,1.05016712500003
112,6,3,categorization,0,kitchen,SHINEd_sun_aymvwlarqodbwuoc.tif,108,0.0666666666666667,0.0666666666666667,1.11666666666667,643.801544041,644.504234083,9,643.863290333,643.924243708,644.509281333,645.619315625,1,0.702690041999972
112,7,3,categorization,0,bathroom,SHINEd_sun_anhioqovhscjqqwb.tif,38,0.0666666666666667,0.0666666666666667,0.966666666666667,645.63222025,646.232580416,13,645.706374083,645.765646041,646.253640458,647.213689708,1,0.600360165999973
112,8,3,categorization,0,kitchen,SHINEd_sun_aamedkxepzlwuxes.tif,65,0.0666666666666667,0.0666666666666667,1.78333333333333,647.234391166,648.303805,13,647.302215583,647.376684333,648.311865416,650.088564208,0,1.06941383399999
112,9,3,categorization,0,bathroom,SHINEd_sun_acduarbnmmoglmiv.tif,16,0.0666666666666667,0.0666666666666667,1.55,650.107831541,650.96108475,13,650.183090666,650.236384333,650.975863541,652.519234666,1,0.853253209000059
112,10,3,categorization,0,kitchen,SHINEd_labelme_kxvouciolcpqplr.tif,62,0.0666666666666667,0.0666666666666667,1.41666666666667,652.541899458,653.325177791,13,652.610793416,652.677087958,653.352347166,654.762378083,0,0.783278332999998
112,11,3,categorization,0,bathroom,SHINEd_sun_ajlawzvmubibwbpy.tif,30,0.0666666666666667,0.0666666666666667,0.8,654.787567083,655.844141166,13,654.857637375,654.924229416,655.865803083,656.65914275,1,1.05657408299999
112,12,3,categorization,0,kitchen,SHINEd_sun_aunzlwrbjumxhwdj.tif,103,0.0666666666666667,0.0666666666666667,1.28333333333333,656.66482875,658.0637485,9,656.726558333,656.787646958,658.073423625,659.350141458,1,1.39891975
112,13,3,categorization,0,kitchen,SHINEd_sun_aeqdocilnnpuvuhx.tif,83,0.0666666666666667,0.0666666666666667,1.66666666666667,659.371232625,660.168898166,9,659.438770458,659.513615666,660.185832333,661.845879666,1,0.797665541000015
112,14,3,categorization,0,bathroom,SHINEd_sun_apeeialkgkuxddgh.tif,42,0.0666666666666667,0.0666666666666667,1.81666666666667,661.875396166,662.571744333,13,661.943402208,662.009901166,662.6008835,664.410929708,1,0.696348166999996
112,15,3,categorization,0,bathroom,SHINEd_sun_agrwbmhcpmfuwmsg.tif,24,0.0666666666666667,0.0666666666666667,1.35,664.430579166,665.579675541,9,664.499123833,664.5667495,665.607841083,666.951209041,0,1.149096375
112,16,3,categorization,0,bathroom,SHINEd_sun_ambriybtogmepttm.tif,36,0.0666666666666667,0.0666666666666667,0.916666666666667,666.970758,667.933297375,9,667.038704,667.105129208,667.963393125,668.8734005,0,0.962539375000006
112,17,3,categorization,0,kitchen,SHINEd_sun_agorklincwxrdtga.tif,87,0.0666666666666667,0.0666666666666667,0.916666666666667,668.881307791,669.760375125,9,668.943039458,669.004014291,669.773359458,670.683365208,1,0.879067333999956
112,18,3,categorization,0,bathroom,SHINEd_sun_ahaulkltgpkeeemi.tif,26,0.0666666666666667,0.0666666666666667,1.31666666666667,670.688222625,671.655575416,13,670.749941875,670.810913375,671.662967416,672.973004875,1,0.967352791000053
112,19,3,categorization,0,bathroom,SHINEd_sun_avhrdrntsqrjzccq.tif,55,0.0666666666666667,0.0666666666666667,1.45,672.994951125,674.524493166,13,673.064413,673.129603541,674.567048125,676.010417375,1,1.52954204100001
112,20,3,categorization,0,bathroom,SHINEd_sun_alotolagknyrgtsk.tif,35,0.0666666666666667,0.0666666666666667,0.95,676.039392125,676.965893708,13,676.108302583,676.170269791,676.995340375,677.938678583,1,0.926501583000004
112,21,3,categorization,0,kitchen,SHINEd_sun_abrcnpqqhmjwekyf.tif,73,0.0666666666666667,0.0666666666666667,1.38333333333333,677.944558,678.784100208,9,678.006266125,678.067236125,678.802288083,680.179001541,1,0.839542208000012
112,22,3,categorization,0,bathroom,SHINEd_sun_amzlamotzwfkwjco.tif,37,0.0666666666666667,0.0666666666666667,1.16666666666667,680.192310875,681.170516041,13,680.268982666,680.321668416,681.197084333,682.357133291,1,0.978205166000066
112,23,3,categorization,0,bathroom,SHINEd_sun_apmqjbnwghzuhhzh.tif,46,0.0666666666666667,0.0666666666666667,1.61666666666667,682.370765208,683.123441708,13,682.436527,682.504715666,683.145624666,684.76305125,1,0.752676500000007
112,24,3,categorization,0,kitchen,SHINEd_sun_ahywdevtimnqcsln.tif,94,0.0666666666666667,0.0666666666666667,1.38333333333333,684.77983925,685.731947333,13,684.848039541,684.923258583,685.763829333,687.140536541,0,0.952108082999985
112,25,3,categorization,0,kitchen,SHINEd_sun_agubuxuukhzyzpdp.tif,88,0.0666666666666667,0.0666666666666667,1.78333333333333,687.160603083,687.9248685,13,687.228101125,687.305871791,687.963494333,689.740196791,0,0.764265417000047
112,26,3,categorization,0,kitchen,SHINEd_sun_ahspylgoovwmwvgk.tif,93,0.0666666666666667,0.0666666666666667,0.783333333333333,689.760056916,690.841165541,9,689.828112541,689.893406458,690.86839425,691.645067125,1,1.08110862499996
112,27,3,categorization,0,kitchen,SHINEd_sun_aexklacwqwezaorf.tif,84,0.0666666666666667,0.0666666666666667,1.65,691.650658041,692.872166458,9,691.712367916,691.773475708,692.892489375,694.535854333,1,1.221508417
112,28,3,categorization,0,bathroom,SHINEd_sun_anryaplzeujmzfkd.tif,39,0.0666666666666667,0.0666666666666667,1.86666666666667,694.554852416,695.875643666,9,694.622957208,694.688403916,695.90336525,697.763407916,0,1.32079124999996
112,29,3,categorization,0,kitchen,SHINEd_sun_auticobqsbwgoppi.tif,104,0.0666666666666667,0.0666666666666667,1.23333333333333,697.783916291,698.853714458,9,697.851547083,697.917976583,698.886429833,700.113151541,1,1.06979816700004
112,30,3,categorization,0,bathroom,SHINEd_sun_azqyogdvyhahyram.tif,60,0.0666666666666667,0.0666666666666667,0.7,700.134016791,700.883689416,13,700.199416583,700.265873083,700.90699525,701.600365083,1,0.749672625000017
112,31,3,categorization,0,bathroom,SHINEd_sun_apkxzenqapsujocq.tif,45,0.0666666666666667,0.0666666666666667,0.716666666666667,701.618531541,702.328420708,13,701.686167541,701.752569875,702.337714708,703.047719416,1,0.709889166999915
112,32,3,categorization,0,bathroom,SHINEd_sun_alkosphxlxwjwgjd.tif,34,0.0666666666666667,0.0666666666666667,1.05,703.052393166,703.743771291,13,703.114100958,703.175013083,703.760670791,704.80401975,1,0.691378125000028
112,33,3,categorization,0,kitchen,SHINEd_sun_auaiucuqpdausiva.tif,102,0.0666666666666667,0.0666666666666667,1.1,704.814933875,705.640599375,13,704.879445,704.943487583,705.66766975,706.76104,0,0.825665500000014
112,34,3,categorization,0,kitchen,SHINEd_sun_agzzivivdpnawacl.tif,89,0.0666666666666667,0.0666666666666667,1.13333333333333,706.779482458,707.8637515,9,706.842001375,706.902229541,707.870757541,708.997453,1,1.08426904200007
112,35,3,categorization,0,kitchen,SHINEd_sun_aixorpehvfykdynp.tif,95,0.0666666666666667,0.0666666666666667,1.38333333333333,709.014526166,709.917261208,9,709.081162125,709.1514445,709.942280875,711.318987916,1,0.902735042000018
112,36,3,categorization,0,kitchen,SHINEd_sun_aenotlpyftoioydp.tif,82,0.0666666666666667,0.0666666666666667,1.5,711.34462225,712.110533083,9,711.413027208,711.479972541,712.137724041,713.631102125,1,0.765910832999907
112,37,3,categorization,0,kitchen,SHINEd_sun_adgqasybjyktddhj.tif,78,0.0666666666666667,0.0666666666666667,1.61666666666667,713.657950083,714.806292791,9,713.726412791,713.79296175,714.834535916,716.444571291,1,1.14834270800009
112,38,3,categorization,0,bathroom,SHINEd_sun_aunuadmjocsddsrl.tif,52,0.0666666666666667,0.0666666666666667,0.983333333333333,716.469354875,717.52649575,9,716.535962291,716.599129791,717.537846125,718.514517291,0,1.05714087499996
112,39,3,categorization,0,bathroom,SHINEd_sun_ahcvzmoyaycdoftf.tif,27,0.0666666666666667,0.0666666666666667,1.3,718.519482875,719.216261,13,718.581081125,718.64224625,719.228235875,720.521612041,1,0.696778125000037
112,40,3,categorization,0,kitchen,SHINEd_sun_axyyrmzcupyhlivc.tif,107,0.0666666666666667,0.0666666666666667,1.03333333333333,720.542270875,722.046927625,9,720.61050375,720.675994291,722.06800075,723.094701541,1,1.50465674999998
112,41,3,categorization,0,kitchen,SHINEd_sun_awcpdzzznmweyyhv.tif,106,0.0666666666666667,0.0666666666666667,1.45,723.104020958,724.005683041,9,723.169261666,723.236458625,724.025487875,725.468856291,1,0.901662083000019
112,42,3,categorization,0,bathroom,SHINEd_sun_axxbkopsgyouuebh.tif,58,0.0666666666666667,0.0666666666666667,1.23333333333333,725.489120458,726.22806275,13,725.557094041,725.622942875,726.244446791,727.471145916,1,0.738942292000047
112,43,3,categorization,0,bathroom,SHINEd_sun_aoybiabnpadelefl.tif,41,0.0666666666666667,0.0666666666666667,1.26666666666667,727.487855625,728.326945208,9,727.555976625,727.622726333,728.346986333,729.607021333,0,0.839089583000032
112,44,3,categorization,0,kitchen,SHINEd_labelme_rykdqxenmhulbdn.tif,63,0.0666666666666667,0.0666666666666667,1.03333333333333,729.624499208,730.403263833,9,729.692272041,729.758260125,730.432400208,731.459109916,1,0.778764625000008
112,45,3,categorization,0,kitchen,SHINEd_sun_afuyedyxivkhecmu.tif,85,0.0666666666666667,0.0666666666666667,1.31666666666667,731.469878666,732.19982575,9,731.532451375,731.592789833,732.211168541,733.521207375,1,0.729947083999946
112,46,3,categorization,0,bathroom,SHINEd_sun_axldvoqbuvuggfmq.tif,57,0.0666666666666667,0.0666666666666667,1.7,733.541662375,734.421115666,13,733.609460708,733.675501416,734.450049708,736.143425666,1,0.879453291000004
112,47,3,categorization,0,kitchen,SHINEd_sun_aapllqyqlykszopd.tif,66,0.0666666666666667,0.0666666666666667,1.35,736.163229125,736.937981458,9,736.232270375,736.296847333,736.953917333,738.297299458,1,0.774752332999924
112,48,3,categorization,0,kitchen,SHINEd_sun_ajcbwwvdlsvjyzje.tif,96,0.0666666666666667,0.0666666666666667,0.8,738.317281875,739.123470083,9,738.385445833,738.451407541,739.142851958,739.93621525,1,0.80618820799998
112,49,3,categorization,0,kitchen,SHINEd_sun_aqeaevwwwjoqhzvl.tif,101,0.0666666666666667,0.0666666666666667,0.766666666666667,739.956204416,740.535327416,9,740.019028041,740.079179291,740.547623708,741.307628958,1,0.579122999999981
112,50,3,categorization,0,kitchen,SHINEd_sun_ahpczsiumwwocjkv.tif,92,0.0666666666666667,0.0666666666666667,1.38333333333333,741.313867416,742.360204416,9,741.375758458,741.4367905,742.371940583,743.748644541,1,1.04633699999999
