sub_num,trial,block,task,is_practice,category,image,texture,duration,mask_dur,jitter,stim_time,time_of_resp,trial_response,mask_time,fix_time,jit_onset,trial_end,trial_accuracy,RT
112,1,15,categorization,0,bathroom,SHINEd_sun_apynckhmoftszqoq.tif,47,0.0666666666666667,0.0666666666666667,1.3,2400.394923541,2401.216617458,13,2400.457463375,2400.517680708,2401.236179541,2402.529555458,1,0.821693917000175
112,2,15,categorization,0,kitchen,SHINEd_sun_aymvwlarqodbwuoc.tif,108,0.0666666666666667,0.0666666666666667,1.25,2402.547995208,2403.436621333,9,2402.614756791,2402.681359875,2403.454246958,2404.6976215,1,0.888626124999973
112,3,15,categorization,0,bathroom,SHINEd_sun_apeeialkgkuxddgh.tif,42,0.0666666666666667,0.0666666666666667,0.816666666666667,2404.716534166,2406.349201625,13,2404.783387375,2404.849341125,2406.376414416,2407.186418666,1,1.632667459
112,4,15,categorization,0,kitchen,SHINEd_sun_aixorpehvfykdynp.tif,95,0.0666666666666667,0.0666666666666667,0.85,2407.191585208,2408.361229125,13,2407.253356291,2407.314486916,2408.3664465,2409.209786625,0,1.16964391700003
112,5,15,categorization,0,bathroom,SHINEd_sun_acduarbnmmoglmiv.tif,16,0.0666666666666667,0.0666666666666667,1.06666666666667,2409.215050541,2409.9851075,13,2409.276795625,2409.337798,2409.989733708,2411.049776083,1,0.770056959000158
112,6,15,categorization,0,kitchen,SHINEd_sun_acwjdupvyjsugpay.tif,76,0.0666666666666667,0.0666666666666667,0.733333333333333,2411.058210291,2412.372418333,9,2411.123399125,2411.189981916,2412.398324,2413.125046541,1,1.31420804200025
112,7,15,categorization,0,bathroom,SHINEd_sun_ausgutylgojavyoq.tif,53,0.0666666666666667,0.0666666666666667,1.83333333333333,2413.138811958,2414.032358958,13,2413.201308291,2413.2615595,2414.047126291,2415.873847041,1,0.893546999999671
112,8,15,categorization,0,bathroom,SHINEd_sun_aleqenyvunhactkl.tif,32,0.0666666666666667,0.0666666666666667,0.733333333333333,2415.893552291,2416.60279175,13,2415.960570333,2416.026769625,2416.615688416,2417.342359666,1,0.709239458999946
112,9,15,categorization,0,kitchen,SHINEd_sun_aapllqyqlykszopd.tif,66,0.0666666666666667,0.0666666666666667,1.56666666666667,2417.348356125,2418.152829583,9,2417.40995275,2417.471108583,2418.1560745,2419.716118666,1,0.804473457999848
112,10,15,categorization,0,kitchen,SHINEd_sun_avszsnwsbuqfgzbn.tif,105,0.0666666666666667,0.0666666666666667,1.93333333333333,2419.735520333,2420.523697416,9,2419.802236791,2419.868433916,2420.541409583,2422.468120708,1,0.788177082999937
112,11,15,categorization,0,kitchen,SHINEd_sun_aggjlwcdjsjcaemh.tif,86,0.0666666666666667,0.0666666666666667,1.48333333333333,2422.483901375,2423.261774,9,2422.551053166,2422.61668675,2423.290052791,2424.766755458,1,0.777872624999873
112,12,15,categorization,0,bathroom,SHINEd_sun_ambriybtogmepttm.tif,36,0.0666666666666667,0.0666666666666667,0.916666666666667,2424.783306375,2425.498111791,9,2424.850381,2424.916274458,2425.523397375,2426.433402458,0,0.714805416000218
112,13,15,categorization,0,bathroom,SHINEd_sun_agyqfjcfkdcydepw.tif,25,0.0666666666666667,0.0666666666666667,1.5,2426.440022166,2427.249093708,9,2426.501716083,2426.562830583,2427.264923125,2428.7583035,0,0.809071542000311
112,14,15,categorization,0,bathroom,SHINEd_sun_aofnryafpsjimzsb.tif,40,0.0666666666666667,0.0666666666666667,1.1,2428.777473375,2429.581671208,9,2428.844745041,2428.910166166,2429.599811458,2430.693184958,0,0.804197832999762
112,15,15,categorization,0,bathroom,SHINEd_sun_atstyziqcmkahyxk.tif,51,0.0666666666666667,0.0666666666666667,0.983333333333333,2430.703829833,2431.339144291,13,2430.76895175,2430.835415708,2431.3590345,2432.335753166,1,0.635314458000266
112,16,15,categorization,0,bathroom,SHINEd_sun_alkosphxlxwjwgjd.tif,34,0.0666666666666667,0.0666666666666667,1.7,2432.356394208,2433.049441666,13,2432.4229525,2432.4889,2433.057779375,2434.751167333,1,0.69304745799991
112,17,15,categorization,0,kitchen,SHINEd_sun_aarfiyshqohlwkmo.tif,67,0.0666666666666667,0.0666666666666667,1.58333333333333,2434.770733583,2435.456167625,9,2434.8372135,2434.903779125,2435.477100208,2437.053822791,1,0.685434041999997
112,18,15,categorization,0,bathroom,SHINEd_sun_apmqjbnwghzuhhzh.tif,46,0.0666666666666667,0.0666666666666667,0.933333333333333,2437.076849,2438.488741583,13,2437.14394425,2437.20976775,2438.518980541,2439.445654583,1,1.41189258299983
112,19,15,categorization,0,kitchen,SHINEd_sun_abpwyqmlzafvklqo.tif,72,0.0666666666666667,0.0666666666666667,0.916666666666667,2439.451363625,2440.097273416,9,2439.5130585,2439.574319041,2440.109306291,2441.019311625,1,0.645909791000122
112,20,15,categorization,0,kitchen,SHINEd_sun_acfmftudsenhrfhy.tif,74,0.0666666666666667,0.0666666666666667,1.08333333333333,2441.024406375,2441.944255833,9,2441.086246541,2441.147346416,2441.949154708,2443.025864458,1,0.919849458000044
112,21,15,categorization,0,bathroom,SHINEd_sun_axyrejkiiaqiurjk.tif,59,0.0666666666666667,0.0666666666666667,0.783333333333333,2443.034886958,2443.891943125,9,2443.09986925,2443.167601166,2443.906952541,2444.683660041,0,0.857056167000337
112,22,15,categorization,0,bathroom,SHINEd_sun_auzqhkafidnkrwmo.tif,54,0.0666666666666667,0.0666666666666667,1.01666666666667,2444.700610208,2445.841150541,13,2444.766693291,2444.833281833,2445.852412583,2446.862447708,1,1.14054033299999
112,23,15,categorization,0,kitchen,SHINEd_sun_aegoxogugdkwpmpj.tif,80,0.0666666666666667,0.0666666666666667,1.15,2446.87407425,2447.613483958,13,2446.939289541,2447.005291958,2447.627847166,2448.771224791,0,0.739409708000039
112,24,15,categorization,0,bathroom,SHINEd_sun_axldvoqbuvuggfmq.tif,57,0.0666666666666667,0.0666666666666667,1.38333333333333,2448.789083583,2449.625300375,13,2448.856122083,2448.922372416,2449.640901791,2451.017618125,1,0.836216791999959
112,25,15,categorization,0,bathroom,SHINEd_sun_aqrpegblszgcoujh.tif,48,0.0666666666666667,0.0666666666666667,0.75,2451.036285333,2452.693532458,13,2451.103575416,2451.168851916,2452.711414041,2453.454753041,1,1.65724712500014
112,26,15,categorization,0,kitchen,SHINEd_sun_akcjzhbbjlbogpdi.tif,99,0.0666666666666667,0.0666666666666667,0.816666666666667,2453.45940775,2454.305071125,9,2453.521321541,2453.582124666,2454.317133333,2455.127139291,1,0.845663374999731
112,27,15,categorization,0,kitchen,SHINEd_sun_agorklincwxrdtga.tif,87,0.0666666666666667,0.0666666666666667,1.01666666666667,2455.13208375,2455.768503958,9,2455.1938065,2455.2548245,2455.773490458,2456.783541541,1,0.63642020799989
112,28,15,categorization,0,bathroom,SHINEd_sun_ahqjwnzgolcaoidx.tif,29,0.0666666666666667,0.0666666666666667,1.11666666666667,2456.792819791,2457.610264625,13,2456.857151583,2456.924291375,2457.630767541,2458.740805291,1,0.817444834000071
112,29,15,categorization,0,kitchen,SHINEd_sun_agubuxuukhzyzpdp.tif,88,0.0666666666666667,0.0666666666666667,1.9,2458.757461583,2459.424401541,9,2458.820127375,2458.880298375,2459.432360458,2461.325739125,1,0.666939958000057
112,30,15,categorization,0,kitchen,SHINEd_sun_aenotlpyftoioydp.tif,82,0.0666666666666667,0.0666666666666667,1.75,2461.344776541,2461.954576208,9,2461.411833,2461.478001791,2461.984911791,2463.728295291,1,0.609799667000061
112,31,15,categorization,0,kitchen,SHINEd_sun_aadbddgrdsjugojn.tif,64,0.0666666666666667,0.0666666666666667,1.31666666666667,2463.746198041,2464.388059666,9,2463.813505333,2463.87910525,2464.401596833,2465.711653625,1,0.641861625000274
112,32,15,categorization,0,kitchen,SHINEd_sun_abdxkyyxwfskuaqb.tif,70,0.0666666666666667,0.0666666666666667,1.58333333333333,2465.729603541,2466.489762375,9,2465.796524,2465.862366375,2466.519226333,2468.095939166,1,0.760158833999867
112,33,15,categorization,0,kitchen,SHINEd_sun_auaiucuqpdausiva.tif,102,0.0666666666666667,0.0666666666666667,0.716666666666667,2468.114917166,2468.933507625,9,2468.180066333,2468.242977416,2468.949403125,2469.659414333,1,0.818590459000006
112,34,15,categorization,0,kitchen,SHINEd_sun_aexklacwqwezaorf.tif,84,0.0666666666666667,0.0666666666666667,1.05,2469.665332916,2470.769283583,13,2469.727006041,2469.788097875,2470.773679125,2471.817067083,0,1.10395066699994
112,35,15,categorization,0,kitchen,SHINEd_sun_adgqasybjyktddhj.tif,78,0.0666666666666667,0.0666666666666667,1.81666666666667,2471.828738666,2472.461543125,9,2471.893696625,2471.959817166,2472.482873583,2474.292909333,1,0.632804458999999
112,36,15,categorization,0,bathroom,SHINEd_sun_apkruvsevgegsdwp.tif,44,0.0666666666666667,0.0666666666666667,1.25,2474.307138,2475.001362666,13,2474.373994916,2474.439476291,2475.01034075,2476.253711083,1,0.694224666000082
112,37,15,categorization,0,kitchen,SHINEd_sun_aypmqwcualkenuoe.tif,109,0.0666666666666667,0.0666666666666667,0.733333333333333,2476.263905875,2477.12209575,13,2476.329665333,2476.39669475,2477.135706958,2477.862427041,0,0.85818987499988
112,38,15,categorization,0,bathroom,SHINEd_sun_aljolscmmzydegqp.tif,33,0.0666666666666667,0.0666666666666667,1.31666666666667,2477.878810583,2478.688842375,13,2477.945536541,2478.011784041,2478.696959291,2480.006990625,1,0.810031792000245
112,39,15,categorization,0,bathroom,SHINEd_sun_aclfzgynxzxlbepz.tif,19,0.0666666666666667,0.0666666666666667,1,2480.024223916,2481.771624166,13,2480.090608916,2480.155140375,2481.798109583,2482.79144775,1,1.74740024999983
112,40,15,categorization,0,kitchen,SHINEd_sun_agzzivivdpnawacl.tif,89,0.0666666666666667,0.0666666666666667,1.16666666666667,2482.796474583,2483.809172541,9,2482.858213958,2482.919193041,2483.821316375,2484.981352333,1,1.01269795799999
112,41,15,categorization,0,kitchen,SHINEd_sun_ahpczsiumwwocjkv.tif,92,0.0666666666666667,0.0666666666666667,0.916666666666667,2484.9913645,2486.062115375,13,2485.058476541,2485.124367958,2486.080530041,2486.990534625,0,1.0707508749997
112,42,15,categorization,0,kitchen,SHINEd_sun_amjjdeyrggfqgmom.tif,100,0.0666666666666667,0.0666666666666667,0.8,2486.996010791,2487.857235666,9,2487.057633083,2487.118667291,2487.871106291,2488.664444916,1,0.861224875000062
112,43,15,categorization,0,bathroom,SHINEd_labelme_sfxiulhjbhlyiyt.tif,11,0.0666666666666667,0.0666666666666667,1,2488.669424208,2489.481030333,13,2488.731133708,2488.792123416,2489.494162291,2490.487499375,1,0.811606125000253
112,44,15,categorization,0,kitchen,SHINEd_sun_aaxxjlsuzvqlgylf.tif,68,0.0666666666666667,0.0666666666666667,0.766666666666667,2490.492316833,2491.464834833,9,2490.5541165,2490.614993541,2491.483859541,2492.243862708,1,0.972518000000036
112,45,15,categorization,0,bathroom,SHINEd_sun_agrwbmhcpmfuwmsg.tif,24,0.0666666666666667,0.0666666666666667,1.03333333333333,2492.248579666,2494.040562125,13,2492.310357791,2492.37132675,2494.057339041,2495.084044375,1,1.79198245900034
112,46,15,categorization,0,bathroom,SHINEd_sun_ajlawzvmubibwbpy.tif,30,0.0666666666666667,0.0666666666666667,1.81666666666667,2495.104884916,2496.17924075,13,2495.1698815,2495.23583325,2496.190122833,2498.000236958,1,1.07435583400002
112,47,15,categorization,0,kitchen,SHINEd_sun_abrcnpqqhmjwekyf.tif,73,0.0666666666666667,0.0666666666666667,1.21666666666667,2498.01875775,2499.304535416,13,2498.085511458,2498.147539,2499.318442333,2500.52847425,0,1.28577766599983
112,48,15,categorization,0,bathroom,SHINEd_sun_agguqiubmwhqqunb.tif,22,0.0666666666666667,0.0666666666666667,0.866666666666667,2500.547521333,2502.1101895,13,2500.61451575,2500.6805215,2502.13961,2502.999616333,1,1.56266816700008
112,49,15,categorization,0,bathroom,SHINEd_sun_afcoljnjfoxjtgja.tif,20,0.0666666666666667,0.0666666666666667,1.46666666666667,2503.00625375,2505.240475625,9,2503.068080625,2503.129041791,2505.248334541,2506.708368166,0,2.234221875
112,50,15,categorization,0,kitchen,SHINEd_sun_aeqdocilnnpuvuhx.tif,83,0.0666666666666667,0.0666666666666667,1.46666666666667,2506.727217333,2507.553191916,9,2506.7942455,2506.860110041,2507.583306375,2509.043342458,1,0.825974582999606
