sub_num,trial,block,task,is_practice,category,image,texture,duration,mask_dur,jitter,stim_time,time_of_resp,trial_response,mask_time,fix_time,jit_onset,trial_end,trial_accuracy,RT
112,1,16,categorization,0,kitchen,SHINEd_sun_afuyedyxivkhecmu.tif,85,0.0666666666666667,0.0666666666666667,1.56666666666667,2542.6477075,2543.784618208,9,2542.710119708,2542.770460916,2543.789458833,2545.3495135,1,1.13691070800041
112,2,16,categorization,0,kitchen,SHINEd_labelme_kxvouciolcpqplr.tif,62,0.0666666666666667,0.0666666666666667,1.38333333333333,2545.367052666,2547.63221925,9,2545.434975375,2545.499782958,2547.652950166,2549.029652458,1,2.26516658400033
112,3,16,categorization,0,bathroom,SHINEd_sun_aavhrsfjbserjtht.tif,13,0.0666666666666667,0.0666666666666667,1.95,2549.048166291,2549.806833791,9,2549.115654041,2549.181613958,2549.838462875,2551.781847875,0,0.758667499999774
112,4,16,categorization,0,bathroom,SHINEd_sun_azqyogdvyhahyram.tif,60,0.0666666666666667,0.0666666666666667,0.833333333333333,2551.8003295,2552.546105375,13,2551.867255958,2551.933926291,2552.574254333,2553.400927916,1,0.745775875000163
112,5,16,categorization,0,kitchen,SHINEd_sun_auticobqsbwgoppi.tif,104,0.0666666666666667,0.0666666666666667,1.06666666666667,2553.40682525,2554.6882555,9,2553.468479833,2553.529756875,2554.698722208,2555.758756291,1,1.28143025000008
112,6,16,categorization,0,bathroom,SHINEd_sun_alotolagknyrgtsk.tif,35,0.0666666666666667,0.0666666666666667,1.15,2555.770351625,2556.417071291,9,2555.83461325,2555.900313291,2556.440337958,2557.583713333,0,0.646719666000081
112,7,16,categorization,0,kitchen,SHINEd_sun_ahspylgoovwmwvgk.tif,93,0.0666666666666667,0.0666666666666667,0.866666666666667,2557.600787458,2558.272963416,9,2557.667542125,2557.731046291,2558.282951958,2559.142958125,1,0.672175958000025
112,8,16,categorization,0,bathroom,SHINEd_sun_abjtwfukuwddzted.tif,15,0.0666666666666667,0.0666666666666667,1.03333333333333,2559.148263333,2560.448248333,9,2559.209813,2559.271008541,2560.456724541,2561.483435916,0,1.29998499999965
112,9,16,categorization,0,bathroom,SHINEd_sun_apjevzvycyhuqghb.tif,43,0.0666666666666667,0.0666666666666667,1.85,2561.493550458,2562.19419,9,2561.558724791,2561.62518725,2562.213689666,2564.05706975,0,0.700639542000317
112,10,16,categorization,0,kitchen,SHINEd_sun_awcpdzzznmweyyhv.tif,106,0.0666666666666667,0.0666666666666667,1.25,2564.073369166,2564.787213,9,2564.139241666,2564.204592625,2564.811508666,2566.054900916,1,0.713843834000272
112,11,16,categorization,0,bathroom,SHINEd_sun_avhrdrntsqrjzccq.tif,55,0.0666666666666667,0.0666666666666667,1.55,2566.075610083,2566.904910541,9,2566.140814416,2566.206640375,2566.930339166,2568.473716333,0,0.829300458000034
112,12,16,categorization,0,kitchen,SHINEd_sun_aunzlwrbjumxhwdj.tif,103,0.0666666666666667,0.0666666666666667,0.933333333333333,2568.491859083,2569.199660125,9,2568.5588245,2568.621326208,2569.228107916,2570.154780666,1,0.707801042000028
112,13,16,categorization,0,kitchen,SHINEd_sun_ajcbwwvdlsvjyzje.tif,96,0.0666666666666667,0.0666666666666667,1.3,2570.159887416,2570.93677725,13,2570.221652375,2570.282590125,2570.951002208,2572.244380416,0,0.776889834000031
112,14,16,categorization,0,bathroom,SHINEd_sun_apkxzenqapsujocq.tif,45,0.0666666666666667,0.0666666666666667,0.883333333333333,2572.257988666,2573.108072,13,2572.32360075,2572.391491541,2573.132183166,2574.008855583,1,0.850083333999919
112,15,16,categorization,0,bathroom,SHINEd_sun_akiytfaagpdsphgz.tif,31,0.0666666666666667,0.0666666666666667,0.866666666666667,2574.020928958,2574.776183791,13,2574.082791916,2574.143656125,2574.795387833,2575.655395375,1,0.755254833000436
112,16,16,categorization,0,kitchen,SHINEd_sun_aamedkxepzlwuxes.tif,65,0.0666666666666667,0.0666666666666667,1.91666666666667,2575.660708458,2576.471745291,9,2575.722399208,2575.783452708,2576.485327041,2578.395374083,1,0.811036832999889
112,17,16,categorization,0,kitchen,SHINEd_sun_aqeaevwwwjoqhzvl.tif,101,0.0666666666666667,0.0666666666666667,0.95,2578.414595375,2583.058790666,13,2578.48160475,2578.547649875,2583.083620708,2584.026959416,0,4.64419529099996
112,18,16,categorization,0,kitchen,SHINEd_sun_akchetnepxlcxhsu.tif,98,0.0666666666666667,0.0666666666666667,0.883333333333333,2584.031691208,2584.81631175,13,2584.093402875,2584.154395833,2584.822741083,2585.699412791,0,0.784620541999629
112,19,16,categorization,0,kitchen,SHINEd_sun_acgtpgfybqjmzeyw.tif,75,0.0666666666666667,0.0666666666666667,0.933333333333333,2585.706403875,2586.6168275,9,2585.768111666,2585.829114,2586.630934208,2587.557606875,1,0.910423625000021
112,20,16,categorization,0,kitchen,SHINEd_sun_acxkpeoqbwcxfvip.tif,77,0.0666666666666667,0.0666666666666667,0.716666666666667,2587.570169458,2588.75218725,9,2587.631890375,2587.692794,2588.761785916,2589.471791458,1,1.18201779200035
112,21,16,categorization,0,bathroom,SHINEd_sun_anhioqovhscjqqwb.tif,38,0.0666666666666667,0.0666666666666667,1.23333333333333,2589.477020916,2590.152457291,13,2589.538651833,2589.599731041,2590.168048125,2591.394766916,1,0.675436374999663
112,22,16,categorization,0,bathroom,SHINEd_sun_aspsyogrekjtfozg.tif,50,0.0666666666666667,0.0666666666666667,0.833333333333333,2591.413379625,2592.148550166,13,2591.480445375,2591.546435291,2592.1675905,2592.994316333,1,0.735170541000116
112,23,16,categorization,0,bathroom,SHINEd_sun_anryaplzeujmzfkd.tif,39,0.0666666666666667,0.0666666666666667,1.05,2593.010447791,2593.99967925,9,2593.077167875,2593.143052541,2594.012113708,2595.055487958,0,0.989231459000166
112,24,16,categorization,0,kitchen,SHINEd_labelme_brsyyvweiuaazfr.tif,61,0.0666666666666667,0.0666666666666667,1.46666666666667,2595.067035916,2596.573584958,9,2595.132196416,2595.19685725,2596.608369791,2598.068412916,1,1.50654904200019
112,25,16,categorization,0,bathroom,SHINEd_sun_aapitsgbtktqubfy.tif,12,0.0666666666666667,0.0666666666666667,1.68333333333333,2598.087176625,2598.741129333,13,2598.151949833,2598.218529,2598.758643541,2600.435358708,1,0.653952707999906
112,26,16,categorization,0,kitchen,SHINEd_labelme_rykdqxenmhulbdn.tif,63,0.0666666666666667,0.0666666666666667,0.883333333333333,2600.457315166,2601.453852125,9,2600.524230125,2600.590173,2601.480615333,2602.357288458,1,0.996536958999968
112,27,16,categorization,0,bathroom,SHINEd_sun_aggnnqpdorgxpvce.tif,21,0.0666666666666667,0.0666666666666667,1.16666666666667,2602.370087666,2603.672175291,9,2602.431900333,2602.492854958,2603.678885458,2604.838937541,0,1.30208762499979
112,28,16,categorization,0,kitchen,SHINEd_sun_ahljzhgcdpomplvg.tif,91,0.0666666666666667,0.0666666666666667,0.766666666666667,2604.848982541,2605.581332833,13,2604.915989333,2604.981626,2605.605251375,2606.365297958,0,0.732350291999865
112,29,16,categorization,0,bathroom,SHINEd_sun_aunuadmjocsddsrl.tif,52,0.0666666666666667,0.0666666666666667,0.8,2606.388613166,2607.176486083,13,2606.455533,2606.521784041,2607.190583666,2607.983923791,1,0.787872916999731
112,30,16,categorization,0,bathroom,SHINEd_sun_ahijqszoswveeyji.tif,28,0.0666666666666667,0.0666666666666667,1.03333333333333,2608.003616416,2608.655994416,13,2608.065482625,2608.126293625,2608.661402875,2609.688116333,1,0.652377999999771
112,31,16,categorization,0,bathroom,SHINEd_sun_ahcvzmoyaycdoftf.tif,27,0.0666666666666667,0.0666666666666667,1.35,2609.69672475,2610.269237333,13,2609.762290458,2609.8280285,2610.282189,2611.625576208,1,0.572512582999934
112,32,16,categorization,0,kitchen,SHINEd_sun_axyyrmzcupyhlivc.tif,107,0.0666666666666667,0.0666666666666667,0.95,2611.642955208,2612.640463,13,2611.708371208,2611.767164791,2612.6525935,2613.59593275,0,0.997507792000306
112,33,16,categorization,0,bathroom,SHINEd_sun_ahaulkltgpkeeemi.tif,26,0.0666666666666667,0.0666666666666667,0.766666666666667,2613.603294083,2614.488198125,13,2613.664967166,2613.725939083,2614.494415916,2615.254422,1,0.884904042000016
112,34,16,categorization,0,bathroom,SHINEd_sun_awnqiikzaispgmwo.tif,56,0.0666666666666667,0.0666666666666667,1.08333333333333,2615.259710458,2616.024627958,13,2615.321448875,2615.382383541,2616.034653041,2617.11136325,1,0.764917500000138
112,35,16,categorization,0,bathroom,SHINEd_sun_axxbkopsgyouuebh.tif,58,0.0666666666666667,0.0666666666666667,1.16666666666667,2617.123632541,2617.769231166,13,2617.188595625,2617.256556958,2617.796254,2618.956308291,1,0.64559862499982
112,36,16,categorization,0,kitchen,SHINEd_sun_azmutvzbxypaceni.tif,110,0.0666666666666667,0.0666666666666667,1.71666666666667,2618.975572458,2620.071768833,13,2619.042972125,2619.108363291,2620.077533416,2621.787570208,0,1.09619637500009
112,37,16,categorization,0,bathroom,SHINEd_sun_abapwbhyhkfixyex.tif,14,0.0666666666666667,0.0666666666666667,0.966666666666667,2621.80776625,2623.615868916,9,2621.874605041,2621.940774291,2623.626894083,2624.586900541,0,1.8081026660002
112,38,16,categorization,0,bathroom,SHINEd_sun_acgyywnybuveqsro.tif,18,0.0666666666666667,0.0666666666666667,0.966666666666667,2624.591865875,2625.240131458,13,2624.653635875,2624.715111791,2625.250464625,2626.210469125,1,0.648265583000011
112,39,16,categorization,0,kitchen,SHINEd_sun_ahdycvpopffkzzsu.tif,90,0.0666666666666667,0.0666666666666667,0.75,2626.215262833,2627.656060541,13,2626.276941541,2626.338178333,2627.674183166,2628.417521458,0,1.44079770799999
112,40,16,categorization,0,bathroom,SHINEd_sun_aoybiabnpadelefl.tif,41,0.0666666666666667,0.0666666666666667,1.05,2628.422293375,2629.391725541,9,2628.484068625,2628.544972708,2629.396846125,2630.440217875,0,0.969432165999933
112,41,16,categorization,0,kitchen,SHINEd_sun_ajkqhtgcbgpcwrwn.tif,97,0.0666666666666667,0.0666666666666667,0.85,2630.449077333,2631.842409916,9,2630.514111125,2630.580045916,2631.872503875,2632.715844666,1,1.3933325830003
112,42,16,categorization,0,bathroom,SHINEd_sun_acegryoqftbzowsg.tif,17,0.0666666666666667,0.0666666666666667,1.25,2632.722557125,2633.751607833,9,2632.784296875,2632.845249583,2633.763887958,2635.007269791,0,1.02905070799989
112,43,16,categorization,0,kitchen,SHINEd_sun_abdenxonkemggwsq.tif,69,0.0666666666666667,0.0666666666666667,1.1,2635.02426425,2635.836270916,9,2635.091221375,2635.157810208,2635.865080375,2636.958465791,1,0.812006665999888
112,44,16,categorization,0,bathroom,SHINEd_sun_amzlamotzwfkwjco.tif,37,0.0666666666666667,0.0666666666666667,0.866666666666667,2636.977876791,2638.747733541,13,2637.045407708,2637.111500458,2638.773204375,2639.633211375,1,1.76985674999969
112,45,16,categorization,0,kitchen,SHINEd_sun_aehawpgmrlhlvcow.tif,81,0.0666666666666667,0.0666666666666667,0.716666666666667,2639.639023083,2640.512404166,9,2639.700855708,2639.761855541,2640.530324125,2641.2403295,1,0.873381082999913
112,46,16,categorization,0,kitchen,SHINEd_sun_abftihopvusyfakt.tif,71,0.0666666666666667,0.0666666666666667,1.98333333333333,2641.245220333,2641.863853416,9,2641.30691675,2641.367856333,2641.869852625,2643.846571041,1,0.618633083000077
112,47,16,categorization,0,bathroom,SHINEd_sun_aghyqhbptboemmoq.tif,23,0.0666666666666667,0.0666666666666667,1.93333333333333,2643.866426916,2644.903374416,13,2643.933346,2643.999015916,2644.92215025,2646.848867,1,1.03694750000022
112,48,16,categorization,0,kitchen,SHINEd_sun_ahywdevtimnqcsln.tif,94,0.0666666666666667,0.0666666666666667,0.8,2646.868505916,2647.751386083,9,2646.93501975,2647.0013715,2647.774442333,2648.567781916,1,0.882880167000167
112,49,16,categorization,0,bathroom,SHINEd_sun_asfwthctfqerjvxr.tif,49,0.0666666666666667,0.0666666666666667,1.71666666666667,2648.572932083,2649.399969041,9,2648.634643291,2648.695656666,2649.414098625,2651.124142625,0,0.827036958000008
112,50,16,categorization,0,kitchen,SHINEd_sun_admlmbcdswaszruo.tif,79,0.0666666666666667,0.0666666666666667,1.96666666666667,2651.143670333,2652.044596458,9,2651.210617791,2651.276740166,2652.067466375,2654.027522375,1,0.900926124999842
