sub_num,trial,block,task,is_practice,category,image,texture,duration,mask_dur,jitter,stim_time,time_of_resp,trial_response,mask_time,fix_time,jit_onset,trial_end,trial_accuracy,RT
112,1,4,categorization,0,bathroom,SHINEd_sun_aghyqhbptboemmoq.tif,23,0.0666666666666667,0.0666666666666667,1,754.781569583,755.615064166,13,754.844156833,754.90435025,755.623069333,756.616406791,1,0.833494583000061
112,2,4,categorization,0,kitchen,SHINEd_sun_aegoxogugdkwpmpj.tif,80,0.0666666666666667,0.0666666666666667,0.966666666666667,756.621350416,757.335177,9,756.683094083,756.744483625,757.3461495,758.306153458,1,0.713826584000003
112,3,4,categorization,0,bathroom,SHINEd_sun_aspsyogrekjtfozg.tif,50,0.0666666666666667,0.0666666666666667,1.75,758.311000791,759.200048333,9,758.372758,758.433767541,759.218876625,760.962245333,0,0.889047542000071
112,4,4,categorization,0,bathroom,SHINEd_sun_aljolscmmzydegqp.tif,33,0.0666666666666667,0.0666666666666667,1.68333333333333,760.982800291,762.165010291,9,761.050491291,761.11666825,762.189075125,763.865778708,0,1.18221000000005
112,5,4,categorization,0,bathroom,SHINEd_sun_aapitsgbtktqubfy.tif,12,0.0666666666666667,0.0666666666666667,1.58333333333333,763.882126041,764.735392541,13,763.95003775,764.015993333,764.756383708,766.333099041,1,0.853266500000018
112,6,4,categorization,0,kitchen,SHINEd_sun_ajkqhtgcbgpcwrwn.tif,97,0.0666666666666667,0.0666666666666667,1,766.345940708,768.151599166,9,766.414166458,766.480287666,768.165825041,769.159165208,1,1.80565845800004
112,7,4,categorization,0,kitchen,SHINEd_sun_abftihopvusyfakt.tif,71,0.0666666666666667,0.0666666666666667,1.33333333333333,769.164915791,769.912077625,9,769.226572333,769.287694791,769.922889,771.249603333,1,0.747161834000053
112,8,4,categorization,0,bathroom,SHINEd_sun_awnqiikzaispgmwo.tif,56,0.0666666666666667,0.0666666666666667,1.26666666666667,771.268040416,771.946472791,13,771.335416083,771.401959,771.975772458,773.235806291,1,0.678432375000057
112,9,4,categorization,0,kitchen,SHINEd_sun_acgtpgfybqjmzeyw.tif,75,0.0666666666666667,0.0666666666666667,0.883333333333333,773.248943458,773.937621708,9,773.316292166,773.382103041,773.953364583,774.830065916,1,0.688678250000066
112,10,4,categorization,0,bathroom,SHINEd_sun_aleqenyvunhactkl.tif,32,0.0666666666666667,0.0666666666666667,1.26666666666667,774.849694583,775.5517965,13,774.917040666,774.98295225,775.56807575,776.828119041,1,0.70210191700005
112,11,4,categorization,0,bathroom,SHINEd_sun_ausgutylgojavyoq.tif,53,0.0666666666666667,0.0666666666666667,2,776.846557791,777.834265375,13,776.914096375,776.980162125,777.853492958,779.846885666,1,0.987707583999963
112,12,4,categorization,0,kitchen,SHINEd_sun_aggjlwcdjsjcaemh.tif,86,0.0666666666666667,0.0666666666666667,0.733333333333333,779.865752791,780.845306958,9,779.932871916,779.999386,780.873553875,781.600228041,1,0.97955416700006
112,13,4,categorization,0,bathroom,SHINEd_sun_ahqjwnzgolcaoidx.tif,29,0.0666666666666667,0.0666666666666667,0.883333333333333,781.605735041,782.799640041,13,781.667409875,781.728481666,782.81358275,783.690255708,1,1.19390499999997
112,14,4,categorization,0,bathroom,SHINEd_sun_apynckhmoftszqoq.tif,47,0.0666666666666667,0.0666666666666667,0.983333333333333,783.694833625,784.503880416,13,783.756520375,783.81758025,784.519359083,785.496031125,1,0.809046791000014
112,15,4,categorization,0,kitchen,SHINEd_sun_aarfiyshqohlwkmo.tif,67,0.0666666666666667,0.0666666666666667,1.56666666666667,785.501688583,786.14338375,9,785.563243333,785.624316458,786.159368041,787.719422208,1,0.641695166999966
112,16,4,categorization,0,bathroom,SHINEd_sun_aggnnqpdorgxpvce.tif,21,0.0666666666666667,0.0666666666666667,1.08333333333333,787.738416,788.787936125,9,787.805598208,787.871937583,788.812366958,789.889064708,0,1.04952012499996
112,17,4,categorization,0,kitchen,SHINEd_sun_ahdycvpopffkzzsu.tif,90,0.0666666666666667,0.0666666666666667,0.75,789.900289166,790.65980425,9,789.965200666,790.032275833,790.688832875,791.432206375,1,0.759515083999986
112,18,4,categorization,0,bathroom,SHINEd_sun_acegryoqftbzowsg.tif,17,0.0666666666666667,0.0666666666666667,0.966666666666667,791.448819666,792.335372166,13,791.515917333,791.581945958,792.350360625,793.310366791,1,0.886552499999993
112,19,4,categorization,0,bathroom,SHINEd_sun_atstyziqcmkahyxk.tif,51,0.0666666666666667,0.0666666666666667,1.63333333333333,793.315936083,794.207273291,13,793.377621666,793.438496875,794.223533375,795.850232416,1,0.891337207999982
112,20,4,categorization,0,bathroom,SHINEd_sun_abjtwfukuwddzted.tif,15,0.0666666666666667,0.0666666666666667,1.46666666666667,795.868090958,797.136235375,9,795.935143416,796.001200666,797.158556583,798.618591666,0,1.26814441699992
112,21,4,categorization,0,kitchen,SHINEd_sun_acwjdupvyjsugpay.tif,76,0.0666666666666667,0.0666666666666667,0.933333333333333,798.6375105,799.738246208,9,798.704992375,798.770861708,799.761728041,800.688399916,1,1.100735708
112,22,4,categorization,0,kitchen,SHINEd_sun_abdxkyyxwfskuaqb.tif,70,0.0666666666666667,0.0666666666666667,1.45,800.693208125,801.415624166,9,800.754794875,800.815856875,801.43488025,802.878242125,1,0.722416041000088
112,23,4,categorization,0,kitchen,SHINEd_sun_abpwyqmlzafvklqo.tif,72,0.0666666666666667,0.0666666666666667,0.966666666666667,802.899877583,804.178333291,9,802.967020166,803.033619416,804.206631875,805.166638125,1,1.27845570799991
112,24,4,categorization,0,bathroom,SHINEd_sun_aqrpegblszgcoujh.tif,48,0.0666666666666667,0.0666666666666667,0.816666666666667,805.172450416,806.135141916,9,805.234094666,805.295144041,806.147619416,806.957623875,0,0.962691500000005
112,25,4,categorization,0,bathroom,SHINEd_sun_axyrejkiiaqiurjk.tif,59,0.0666666666666667,0.0666666666666667,1.96666666666667,806.963993625,807.823152875,9,807.025631458,807.086699166,807.838742208,809.798781291,0,0.859159250000062
112,26,4,categorization,0,kitchen,SHINEd_sun_akchetnepxlcxhsu.tif,98,0.0666666666666667,0.0666666666666667,0.916666666666667,809.818497041,811.103267125,9,809.886394666,809.952160541,811.121212,812.031218875,1,1.284770084
112,27,4,categorization,0,bathroom,SHINEd_sun_ahijqszoswveeyji.tif,28,0.0666666666666667,0.0666666666666667,1.28333333333333,812.036735708,813.487704833,13,812.098496625,812.159437458,813.495519416,814.772226791,1,1.45096912499992
112,28,4,categorization,0,bathroom,SHINEd_sun_abapwbhyhkfixyex.tif,14,0.0666666666666667,0.0666666666666667,1.8,814.783667166,815.479760208,9,814.851341625,814.917275458,815.508113291,817.301486125,0,0.69609304200003
112,29,4,categorization,0,kitchen,SHINEd_labelme_brsyyvweiuaazfr.tif,61,0.0666666666666667,0.0666666666666667,1.33333333333333,817.32218425,819.383268875,9,817.390587125,817.455614625,819.391322666,820.718037666,1,2.06108462500003
112,30,4,categorization,0,kitchen,SHINEd_sun_ahljzhgcdpomplvg.tif,91,0.0666666666666667,0.0666666666666667,1.06666666666667,820.738270166,822.291441416,9,820.8059725,820.872022291,822.315866791,823.375901166,1,1.55317124999999
112,31,4,categorization,0,kitchen,SHINEd_sun_aehawpgmrlhlvcow.tif,81,0.0666666666666667,0.0666666666666667,1.03333333333333,823.388191375,824.138081166,9,823.453582458,823.520621875,824.160555958,825.187256875,1,0.749889790999987
112,32,4,categorization,0,kitchen,SHINEd_sun_aaxxjlsuzvqlgylf.tif,68,0.0666666666666667,0.0666666666666667,0.733333333333333,825.204336666,826.15136975,9,825.271860541,825.337730875,826.156589833,826.88326075,1,0.947033083999941
112,33,4,categorization,0,bathroom,SHINEd_labelme_sfxiulhjbhlyiyt.tif,11,0.0666666666666667,0.0666666666666667,0.766666666666667,826.888364833,827.631301375,13,826.950003083,827.011110041,827.646259916,828.406265541,1,0.742936542000052
112,34,4,categorization,0,kitchen,SHINEd_sun_acxkpeoqbwcxfvip.tif,77,0.0666666666666667,0.0666666666666667,1.1,828.411190541,829.11180675,9,828.472937208,828.533905583,829.119653875,830.213038916,1,0.700616209000032
112,35,4,categorization,0,kitchen,SHINEd_sun_akcjzhbbjlbogpdi.tif,99,0.0666666666666667,0.0666666666666667,1.81666666666667,830.223984833,830.97979925,9,830.288966,830.353551583,831.010700833,832.820755958,1,0.755814417000011
112,36,4,categorization,0,bathroom,SHINEd_sun_aclfzgynxzxlbepz.tif,19,0.0666666666666667,0.0666666666666667,0.883333333333333,832.840532916,833.56168775,13,832.907905125,832.973498375,833.580037083,834.456709666,1,0.721154834000004
112,37,4,categorization,0,bathroom,SHINEd_sun_afcoljnjfoxjtgja.tif,20,0.0666666666666667,0.0666666666666667,1.7,834.463872666,835.303400291,9,834.525569458,834.586577916,835.321978,837.015347041,0,0.83952762499996
112,38,4,categorization,0,bathroom,SHINEd_sun_acgyywnybuveqsro.tif,18,0.0666666666666667,0.0666666666666667,1.58333333333333,837.035176416,838.050818625,13,837.102588458,837.168865208,838.076208333,839.652929,1,1.01564220900002
112,39,4,categorization,0,bathroom,SHINEd_sun_aavhrsfjbserjtht.tif,13,0.0666666666666667,0.0666666666666667,0.833333333333333,839.672424208,840.460479375,9,839.7400325,839.805974333,840.480075666,841.30674875,0,0.788055166999925
112,40,4,categorization,0,kitchen,SHINEd_sun_admlmbcdswaszruo.tif,79,0.0666666666666667,0.0666666666666667,0.95,841.313874958,842.223527416,9,841.375617,841.43690475,842.238634125,843.181973416,1,0.909652457999982
112,41,4,categorization,0,bathroom,SHINEd_sun_agguqiubmwhqqunb.tif,22,0.0666666666666667,0.0666666666666667,1.06666666666667,843.186955541,844.167882875,9,843.248585083,843.30965175,844.1779995,845.238036208,0,0.980927334000057
112,42,4,categorization,0,bathroom,SHINEd_sun_apkruvsevgegsdwp.tif,44,0.0666666666666667,0.0666666666666667,1.68333333333333,845.250199083,845.979479833,13,845.3150345,845.379262666,846.002969333,847.679686958,1,0.729280750000044
112,43,4,categorization,0,kitchen,SHINEd_sun_acfmftudsenhrfhy.tif,74,0.0666666666666667,0.0666666666666667,1.31666666666667,847.697983958,848.623050333,13,847.765363291,847.830965291,848.655457666,849.965507833,0,0.925066375000029
112,44,4,categorization,0,kitchen,SHINEd_sun_avszsnwsbuqfgzbn.tif,105,0.0666666666666667,0.0666666666666667,1.61666666666667,849.980492708,850.863137833,9,850.045947458,850.113519333,850.887919958,852.497973791,1,0.882645124999954
112,45,4,categorization,0,bathroom,SHINEd_sun_aofnryafpsjimzsb.tif,40,0.0666666666666667,0.0666666666666667,1.15,852.514564083,853.370237833,13,852.582365625,852.648539333,853.388967333,854.532342166,1,0.855673750000051
112,46,4,categorization,0,bathroom,SHINEd_sun_asfwthctfqerjvxr.tif,49,0.0666666666666667,0.0666666666666667,1.25,854.544083958,855.410322375,9,854.609071458,854.675491666,855.431910041,856.675295875,0,0.866238416999977
112,47,4,categorization,0,kitchen,SHINEd_sun_abdenxonkemggwsq.tif,69,0.0666666666666667,0.0666666666666667,1.1,856.689998041,857.76311975,9,856.754908,856.821529625,857.776831166,858.870205041,1,1.07312170900002
112,48,4,categorization,0,bathroom,SHINEd_sun_akiytfaagpdsphgz.tif,31,0.0666666666666667,0.0666666666666667,0.9,858.88161275,861.071237083,9,858.94724125,859.014693291,861.084141875,861.977480666,0,2.18962433299998
112,49,4,categorization,0,kitchen,SHINEd_sun_aadbddgrdsjugojn.tif,64,0.0666666666666667,0.0666666666666667,1.3,861.982804833,863.071197708,9,862.04460875,862.10553125,863.090881,864.384257083,1,1.08839287499995
112,50,4,categorization,0,bathroom,SHINEd_sun_auzqhkafidnkrwmo.tif,54,0.0666666666666667,0.0666666666666667,1.25,864.402544875,865.204072958,13,864.468399625,864.534358208,865.223714875,866.467097791,1,0.801528082999994
