sub_num,trial,block,task,is_practice,category,image,texture,duration,mask_dur,jitter,stim_time,time_of_resp,trial_response,mask_time,fix_time,jit_onset,trial_end,trial_accuracy,RT
112,6,0,typicality,1,kitchen,kitchen_practice2.tif,227,1.5,0,0.966666666666667,2126.344801875,2130.716165708,5,NaN,2130.738585833,2130.759825416,2131.719936208,NaN,NaN
112,7,0,typicality,1,kitchen,kitchen_practice5.tif,230,1.5,0,1.58333333333333,2131.732206916,2135.667596541,4,NaN,2135.677657375,2135.696553083,2137.27343425,NaN,NaN
112,8,0,typicality,1,kitchen,kitchen_practice1.tif,226,1.5,0,1.03333333333333,2137.301269833,2142.091513208,6,NaN,2142.0985335,2142.117025083,2143.143776125,NaN,NaN
112,9,0,typicality,1,kitchen,kitchen_practice4.tif,229,1.5,0,1.68333333333333,2143.164437541,2146.035694708,6,NaN,2146.043031041,2146.061319416,2147.738058416,NaN,NaN
112,10,0,typicality,1,kitchen,kitchen_practice3.tif,228,1.5,0,1.45,2147.769335041,2150.479700458,6,NaN,2150.506965791,2150.528772625,2151.972204375,NaN,NaN
112,1,1,typicality,0,kitchen,sun_agubuxuukhzyzpdp.tif,198,1.5,0,0.733333333333333,2157.283448291,2160.948087458,5,NaN,2160.954686333,2160.973194916,2161.699870541,NaN,NaN
112,2,1,typicality,0,kitchen,sun_ahpczsiumwwocjkv.tif,202,1.5,0,1.18333333333333,2161.704299625,2165.539937583,5,NaN,2165.546016958,2165.564357875,2166.741093083,NaN,NaN
112,3,1,typicality,0,kitchen,sun_aapllqyqlykszopd.tif,176,1.5,0,0.7,2166.751816,2170.116271666,4,NaN,2170.122146875,2170.140464833,2170.833806458,NaN,NaN
112,4,1,typicality,0,kitchen,sun_auaiucuqpdausiva.tif,212,1.5,0,1.2,2170.838033625,2175.340552666,5,NaN,2175.346677041,2175.364946208,2176.558334041,NaN,NaN
112,5,1,typicality,0,kitchen,sun_adgqasybjyktddhj.tif,188,1.5,0,0.966666666666667,2176.569435541,2180.452215583,4,NaN,2180.458228541,2180.476625125,2181.436635166,NaN,NaN
112,6,1,typicality,0,kitchen,sun_aaxxjlsuzvqlgylf.tif,178,1.5,0,1.3,2181.441313125,2186.219979708,5,NaN,2186.226150166,2186.244533666,2187.537950875,NaN,NaN
112,7,1,typicality,0,kitchen,labelme_kxvouciolcpqplr.tif,172,1.5,0,1.65,2187.5523075,2190.371942208,2,NaN,2190.378071875,2190.39652575,2192.0399325,NaN,NaN
112,8,1,typicality,0,kitchen,sun_amjjdeyrggfqgmom.tif,210,1.5,0,1.63333333333333,2192.059107208,2197.324010166,4,NaN,2197.3301025,2197.348487833,2198.975221541,NaN,NaN
112,9,1,typicality,0,kitchen,sun_acfmftudsenhrfhy.tif,184,1.5,0,0.9,2198.99236575,2202.008285333,6,NaN,2202.037739666,2202.061423583,2202.954768708,NaN,NaN
112,10,1,typicality,0,kitchen,sun_aypmqwcualkenuoe.tif,219,1.5,0,0.95,2202.959421708,2206.01566975,1,NaN,2206.046086416,2206.06721275,2207.010553541,NaN,NaN
112,11,1,typicality,0,kitchen,sun_avszsnwsbuqfgzbn.tif,215,1.5,0,0.816666666666667,2207.014857875,2210.411237375,6,NaN,2210.4181275,2210.43658975,2211.246596083,NaN,NaN
112,12,1,typicality,0,kitchen,sun_aarfiyshqohlwkmo.tif,177,1.5,0,1.96666666666667,2211.251155125,2214.65223725,3,NaN,2214.658159666,2214.676440875,2216.636502416,NaN,NaN
112,13,1,typicality,0,kitchen,sun_aeqdocilnnpuvuhx.tif,193,1.5,0,0.783333333333333,2216.650632458,2220.323927916,2,NaN,2220.329866375,2220.3481895,2221.124863333,NaN,NaN
112,14,1,typicality,0,kitchen,sun_ahdycvpopffkzzsu.tif,200,1.5,0,0.733333333333333,2221.129182458,2224.595226541,4,NaN,2224.601671625,2224.620041208,2225.346715416,NaN,NaN
112,15,1,typicality,0,kitchen,sun_acgtpgfybqjmzeyw.tif,185,1.5,0,1.9,2225.351050208,2228.244250208,6,NaN,2228.274816833,2228.298101708,2230.19154025,NaN,NaN
112,16,1,typicality,0,kitchen,sun_aqeaevwwwjoqhzvl.tif,211,1.5,0,0.75,2230.207802875,2233.111290666,5,NaN,2233.139645041,2233.162709833,2233.906052541,NaN,NaN
112,17,1,typicality,0,kitchen,sun_aenotlpyftoioydp.tif,192,1.5,0,0.916666666666667,2233.910771958,2237.003333458,1,NaN,2237.013750125,2237.032844208,2237.942851875,NaN,NaN
112,18,1,typicality,0,kitchen,sun_ajkqhtgcbgpcwrwn.tif,207,1.5,0,0.733333333333333,2237.948055916,2241.195423041,5,NaN,2241.201427916,2241.219717041,2241.946389875,NaN,NaN
112,19,1,typicality,0,kitchen,sun_acxkpeoqbwcxfvip.tif,187,1.5,0,1.81666666666667,2241.950750625,2244.863322166,6,NaN,2244.893290666,2244.916891875,2246.726974666,NaN,NaN
112,20,1,typicality,0,kitchen,labelme_rykdqxenmhulbdn.tif,173,1.5,0,1.16666666666667,2246.7457525,2251.539038708,5,NaN,2251.545298833,2251.56370625,2252.723778041,NaN,NaN
112,21,1,typicality,0,kitchen,sun_agorklincwxrdtga.tif,197,1.5,0,1.81666666666667,2252.732052875,2255.475409291,7,NaN,2255.481611333,2255.499773041,2257.309829166,NaN,NaN
112,22,1,typicality,0,kitchen,sun_aexklacwqwezaorf.tif,194,1.5,0,1.35,2257.3289925,2259.932227291,6,NaN,2259.962425166,2259.985473958,2261.328871375,NaN,NaN
112,23,1,typicality,0,kitchen,sun_ahywdevtimnqcsln.tif,204,1.5,0,1.25,2261.347638916,2264.979320625,2,NaN,2264.985376291,2265.003683083,2266.247100208,NaN,NaN
112,24,1,typicality,0,kitchen,sun_aamedkxepzlwuxes.tif,175,1.5,0,1.05,2266.263105708,2269.603429583,3,NaN,2269.609420125,2269.6276875,2270.671100333,NaN,NaN
112,25,1,typicality,0,kitchen,sun_ajcbwwvdlsvjyzje.tif,206,1.5,0,0.916666666666667,2270.679048375,2273.443396291,4,NaN,2273.449330708,2273.467623666,2274.377632708,NaN,NaN
112,1,2,typicality,0,kitchen,sun_awcpdzzznmweyyhv.tif,216,1.5,0,1.56666666666667,2278.432045916,2281.843922125,5,NaN,2281.849850583,2281.86814325,2283.428204458,NaN,NaN
112,2,2,typicality,0,kitchen,sun_aegoxogugdkwpmpj.tif,190,1.5,0,0.883333333333333,2283.450491041,2286.939739208,3,NaN,2286.945717166,2286.964541875,2287.8412175,NaN,NaN
112,3,2,typicality,0,kitchen,sun_aixorpehvfykdynp.tif,205,1.5,0,0.75,2287.845750083,2290.791977625,5,NaN,2290.821520791,2290.845085625,2291.588426583,NaN,NaN
112,4,2,typicality,0,kitchen,sun_aehawpgmrlhlvcow.tif,191,1.5,0,1.23333333333333,2291.592984541,2294.995209625,3,NaN,2295.001264541,2295.019617916,2296.246374916,NaN,NaN
112,5,2,typicality,0,kitchen,sun_acwjdupvyjsugpay.tif,186,1.5,0,0.85,2296.264412416,2300.076021958,3,NaN,2300.082075875,2300.100404916,2300.943746958,NaN,NaN
112,6,2,typicality,0,kitchen,labelme_brsyyvweiuaazfr.tif,171,1.5,0,0.916666666666667,2300.948158125,2303.84784975,5,NaN,2303.878381458,2303.901582416,2304.811590416,NaN,NaN
112,7,2,typicality,0,kitchen,sun_akchetnepxlcxhsu.tif,208,1.5,0,1.75,2304.816238875,2307.254958125,4,NaN,2307.284539416,2307.307617333,2309.051013166,NaN,NaN
112,8,2,typicality,0,kitchen,sun_ahljzhgcdpomplvg.tif,201,1.5,0,1.43333333333333,2309.065407958,2312.219902125,5,NaN,2312.250444583,2312.273437125,2313.70016,NaN,NaN
112,9,2,typicality,0,kitchen,sun_abpwyqmlzafvklqo.tif,182,1.5,0,0.783333333333333,2313.713270541,2316.299114083,2,NaN,2316.305196458,2316.323517166,2317.100192333,NaN,NaN
112,10,2,typicality,0,kitchen,sun_axyyrmzcupyhlivc.tif,217,1.5,0,1.76666666666667,2317.1044715,2319.768708666,4,NaN,2319.798698,2319.821937041,2321.582013875,NaN,NaN
112,11,2,typicality,0,kitchen,sun_auticobqsbwgoppi.tif,214,1.5,0,1.78333333333333,2321.600025208,2324.506814458,2,NaN,2324.528024958,2324.551029125,2326.32776475,NaN,NaN
112,12,2,typicality,0,kitchen,sun_aymvwlarqodbwuoc.tif,218,1.5,0,1.85,2326.346471833,2329.408063375,3,NaN,2329.438465333,2329.462071166,2331.305470833,NaN,NaN
112,13,2,typicality,0,kitchen,sun_ahspylgoovwmwvgk.tif,203,1.5,0,1.18333333333333,2331.323916458,2334.084784416,3,NaN,2334.11569675,2334.140585958,2335.317314708,NaN,NaN
112,14,2,typicality,0,kitchen,sun_aggjlwcdjsjcaemh.tif,196,1.5,0,1.01666666666667,2335.327147208,2338.003939458,5,NaN,2338.010173166,2338.028504583,2339.038558083,NaN,NaN
112,15,2,typicality,0,kitchen,sun_aunzlwrbjumxhwdj.tif,213,1.5,0,1.65,2339.04831075,2342.139838083,1,NaN,2342.146030625,2342.164318625,2343.807732708,NaN,NaN
112,16,2,typicality,0,kitchen,sun_abrcnpqqhmjwekyf.tif,183,1.5,0,1.83333333333333,2343.825665625,2348.275143916,5,NaN,2348.281120208,2348.299521708,2350.126244625,NaN,NaN
112,17,2,typicality,0,kitchen,sun_agzzivivdpnawacl.tif,199,1.5,0,1.58333333333333,2350.146061041,2353.867119208,3,NaN,2353.873076541,2353.891515875,2355.468274125,NaN,NaN
112,18,2,typicality,0,kitchen,sun_abftihopvusyfakt.tif,181,1.5,0,1.85,2355.485735291,2358.419033708,7,NaN,2358.425086291,2358.443449791,2360.286890416,NaN,NaN
112,19,2,typicality,0,kitchen,sun_afuyedyxivkhecmu.tif,195,1.5,0,0.766666666666667,2360.306500541,2364.387055291,1,NaN,2364.39304925,2364.411370125,2365.171381,NaN,NaN
112,20,2,typicality,0,kitchen,sun_aadbddgrdsjugojn.tif,174,1.5,0,0.716666666666667,2365.175704125,2368.9874805,3,NaN,2368.993461166,2369.01183475,2369.721843583,NaN,NaN
112,21,2,typicality,0,kitchen,sun_azmutvzbxypaceni.tif,220,1.5,0,1.38333333333333,2369.726045,2372.90671825,5,NaN,2372.914117583,2372.932339375,2374.309091791,NaN,NaN
112,22,2,typicality,0,kitchen,sun_abdxkyyxwfskuaqb.tif,180,1.5,0,0.866666666666667,2374.328594458,2378.219486375,2,NaN,2378.225357166,2378.243709291,2379.103716583,NaN,NaN
112,23,2,typicality,0,kitchen,sun_akcjzhbbjlbogpdi.tif,209,1.5,0,1.4,2379.108258,2381.694456583,1,NaN,2381.724407916,2381.747567375,2383.140964708,NaN,NaN
112,24,2,typicality,0,kitchen,sun_admlmbcdswaszruo.tif,189,1.5,0,1,2383.159405583,2385.763556625,7,NaN,2385.769464708,2385.787809916,2386.7811535,NaN,NaN
112,25,2,typicality,0,kitchen,sun_abdenxonkemggwsq.tif,179,1.5,0,1.28333333333333,2386.785290166,2389.540251041,6,NaN,2389.570031458,2389.593170583,2390.869921583,NaN,NaN
