sub_num,trial,block,task,is_practice,category,image,texture,duration,mask_dur,jitter,stim_time,time_of_resp,trial_response,mask_time,fix_time,jit_onset,trial_end,trial_accuracy,RT
139,1,9,categorization,0,kitchen,SHINEd_sun_abpwyqmlzafvklqo.tif,72,0.0666666666666667,0.0666666666666667,1.08333333333333,1719.575637916,1720.656144333,13,1719.638267833,1719.698242291,1720.667326333,1721.744038166,0,1.08050641699992
139,2,9,categorization,0,bathroom,SHINEd_sun_agrwbmhcpmfuwmsg.tif,24,0.0666666666666667,0.0666666666666667,0.8,1721.754789291,1722.364695416,13,1721.819070625,1721.8870495,1722.393922083,1723.187302708,1,0.609906124999952
139,3,9,categorization,0,kitchen,SHINEd_sun_aixorpehvfykdynp.tif,95,0.0666666666666667,0.0666666666666667,0.833333333333333,1723.20453925,1723.748466416,13,1723.271920791,1723.337013833,1723.7738135,1724.600485666,0,0.543927166000003
139,4,9,categorization,0,bathroom,SHINEd_sun_anryaplzeujmzfkd.tif,39,0.0666666666666667,0.0666666666666667,1.45,1724.605280583,1725.10436875,13,1724.666926666,1724.727946666,1725.113094791,1726.556472375,1,0.499088167000082
139,5,9,categorization,0,bathroom,SHINEd_sun_aqrpegblszgcoujh.tif,48,0.0666666666666667,0.0666666666666667,1.3,1726.573577875,1727.316237,13,1726.640228916,1726.706001416,1727.345493625,1728.638882916,1,0.742659125000046
139,6,9,categorization,0,bathroom,SHINEd_sun_amzlamotzwfkwjco.tif,37,0.0666666666666667,0.0666666666666667,1.21666666666667,1728.657148958,1729.436618916,9,1728.724187375,1728.787848666,1729.459803625,1730.669840208,0,0.779469957999936
139,7,9,categorization,0,bathroom,SHINEd_sun_apjevzvycyhuqghb.tif,43,0.0666666666666667,0.0666666666666667,0.733333333333333,1730.6851915,1731.155409833,9,1730.752191041,1730.813182,1731.168541541,1731.8952445,0,0.470218333000048
139,8,9,categorization,0,bathroom,SHINEd_sun_aavhrsfjbserjtht.tif,13,0.0666666666666667,0.0666666666666667,1.03333333333333,1731.909458541,1732.4561155,9,1731.976008041,1732.042491166,1732.481966041,1733.508668333,0,0.546656958999847
139,9,9,categorization,0,kitchen,SHINEd_sun_awcpdzzznmweyyhv.tif,106,0.0666666666666667,0.0666666666666667,1.1,1733.518401166,1734.631612791,13,1733.583400208,1733.649750125,1734.656866916,1735.750257416,0,1.11321162499985
139,10,9,categorization,0,kitchen,SHINEd_sun_aqeaevwwwjoqhzvl.tif,101,0.0666666666666667,0.0666666666666667,1.25,1735.76401225,1736.727779125,9,1735.829034,1735.896707791,1736.753470125,1737.996841208,1,0.963766875000147
139,11,9,categorization,0,kitchen,SHINEd_sun_aenotlpyftoioydp.tif,82,0.0666666666666667,0.0666666666666667,1.4,1738.015118458,1738.65383175,9,1738.082094083,1738.147696541,1738.670474416,1740.063852666,1,0.638713292000148
139,12,9,categorization,0,kitchen,SHINEd_sun_aapllqyqlykszopd.tif,66,0.0666666666666667,0.0666666666666667,1.43333333333333,1740.080741125,1740.987663791,9,1740.147298583,1740.213470375,1741.00196575,1742.428679416,1,0.9069226659999
139,13,9,categorization,0,bathroom,SHINEd_labelme_sfxiulhjbhlyiyt.tif,11,0.0666666666666667,0.0666666666666667,1.26666666666667,1742.446511916,1742.993766958,13,1742.513653458,1742.579091458,1743.019586208,1744.279627666,1,0.547255041999961
139,14,9,categorization,0,kitchen,SHINEd_sun_aggjlwcdjsjcaemh.tif,86,0.0666666666666667,0.0666666666666667,0.916666666666667,1744.29683175,1744.908115208,13,1744.363908208,1744.429171625,1744.916192916,1745.826246166,0,0.611283458000116
139,15,9,categorization,0,bathroom,SHINEd_sun_avhrdrntsqrjzccq.tif,55,0.0666666666666667,0.0666666666666667,1.05,1745.843724958,1746.488281333,13,1745.910710541,1745.976436166,1746.495104791,1747.538484083,1,0.644556375000093
139,16,9,categorization,0,bathroom,SHINEd_sun_aclfzgynxzxlbepz.tif,19,0.0666666666666667,0.0666666666666667,1.53333333333333,1747.550242583,1748.091113833,9,1747.615264416,1747.680872916,1748.120689,1749.647398333,0,0.540871250000009
139,17,9,categorization,0,bathroom,SHINEd_sun_aghyqhbptboemmoq.tif,23,0.0666666666666667,0.0666666666666667,1.11666666666667,1749.658967041,1750.193990916,9,1749.725659375,1749.791115041,1750.214434958,1751.324471958,0,0.535023874999979
139,18,9,categorization,0,kitchen,SHINEd_sun_auaiucuqpdausiva.tif,102,0.0666666666666667,0.0666666666666667,1.05,1751.340825833,1751.928748541,13,1751.407758208,1751.473100291,1751.942222125,1752.985589583,0,0.587922707999951
139,19,9,categorization,0,bathroom,SHINEd_sun_awnqiikzaispgmwo.tif,56,0.0666666666666667,0.0666666666666667,1.66666666666667,1752.995251333,1753.477477125,9,1753.059556416,1753.126303541,1753.49954875,1755.159587291,0,0.482225792000008
139,20,9,categorization,0,bathroom,SHINEd_sun_acgyywnybuveqsro.tif,18,0.0666666666666667,0.0666666666666667,1.98333333333333,1755.177742083,1755.739350916,9,1755.244701083,1755.310525333,1755.767418041,1757.744136416,0,0.561608832999809
139,21,9,categorization,0,kitchen,SHINEd_sun_aunzlwrbjumxhwdj.tif,103,0.0666666666666667,0.0666666666666667,1.06666666666667,1757.762979916,1758.291103958,9,1757.829850083,1757.895439333,1758.319039041,1759.379094708,1,0.528124041999945
139,22,9,categorization,0,bathroom,SHINEd_sun_acduarbnmmoglmiv.tif,16,0.0666666666666667,0.0666666666666667,1.31666666666667,1759.39248725,1760.2282985,13,1759.457123833,1759.523627666,1760.246769208,1761.556809083,1,0.835811250000006
139,23,9,categorization,0,kitchen,SHINEd_sun_aadbddgrdsjugojn.tif,64,0.0666666666666667,0.0666666666666667,1.78333333333333,1761.573691,1762.419235541,13,1761.640507375,1761.706149833,1762.445990208,1764.222712083,0,0.845544540999981
139,24,9,categorization,0,kitchen,SHINEd_sun_ahspylgoovwmwvgk.tif,93,0.0666666666666667,0.0666666666666667,0.816666666666667,1764.239642583,1765.269298416,9,1764.306331791,1764.372132125,1765.29553625,1766.10554125,1,1.02965583300011
139,25,9,categorization,0,bathroom,SHINEd_sun_ambriybtogmepttm.tif,36,0.0666666666666667,0.0666666666666667,0.933333333333333,1766.111638541,1767.056157708,9,1766.173436166,1766.234344166,1767.069611541,1767.99628325,0,0.944519166999953
139,26,9,categorization,0,bathroom,SHINEd_sun_axyrejkiiaqiurjk.tif,59,0.0666666666666667,0.0666666666666667,1.33333333333333,1768.00100325,1768.680406041,9,1768.062793541,1768.123574,1768.692198625,1770.018924291,0,0.67940279100003
139,27,9,categorization,0,kitchen,SHINEd_sun_ajkqhtgcbgpcwrwn.tif,97,0.0666666666666667,0.0666666666666667,0.833333333333333,1770.036541458,1770.937517125,9,1770.103507833,1770.169207791,1770.958314041,1771.784985416,1,0.900975667000012
139,28,9,categorization,0,bathroom,SHINEd_sun_acegryoqftbzowsg.tif,17,0.0666666666666667,0.0666666666666667,0.933333333333333,1771.790776708,1772.512392958,13,1771.852568041,1771.913442875,1772.5321785,1773.458849,1,0.721616249999897
139,29,9,categorization,0,bathroom,SHINEd_sun_asfwthctfqerjvxr.tif,49,0.0666666666666667,0.0666666666666667,1.85,1773.463699208,1774.152704083,9,1773.52540725,1773.586363,1774.171717541,1776.015084125,0,0.68900487499991
139,30,9,categorization,0,bathroom,SHINEd_sun_apkxzenqapsujocq.tif,45,0.0666666666666667,0.0666666666666667,0.966666666666667,1776.032614166,1776.783463125,13,1776.099373416,1776.165333666,1776.803883791,1777.763887458,1,0.750848958999995
139,31,9,categorization,0,kitchen,SHINEd_sun_aexklacwqwezaorf.tif,84,0.0666666666666667,0.0666666666666667,0.766666666666667,1777.768900833,1778.736131791,13,1777.8306655,1777.891609583,1778.743607208,1779.503610625,0,0.967230957999845
139,32,9,categorization,0,kitchen,SHINEd_sun_ajcbwwvdlsvjyzje.tif,96,0.0666666666666667,0.0666666666666667,1.15,1779.508477041,1780.255642625,13,1779.57018725,1779.631125583,1780.266890583,1781.410264791,0,0.747165583999958
139,33,9,categorization,0,bathroom,SHINEd_sun_ausgutylgojavyoq.tif,53,0.0666666666666667,0.0666666666666667,0.75,1781.420265583,1782.061748333,13,1781.486720083,1781.552522958,1782.074848375,1782.818233833,1,0.641482750000023
139,34,9,categorization,0,kitchen,SHINEd_sun_agzzivivdpnawacl.tif,89,0.0666666666666667,0.0666666666666667,0.9,1782.834929708,1783.472149166,13,1782.90211825,1782.964067916,1783.483528958,1784.376867041,0,0.637219458000118
139,35,9,categorization,0,bathroom,SHINEd_sun_abjtwfukuwddzted.tif,15,0.0666666666666667,0.0666666666666667,1.88333333333333,1784.382376708,1785.015755875,9,1784.44413725,1784.505019375,1785.023399583,1786.900113208,0,0.63337916699993
139,36,9,categorization,0,kitchen,SHINEd_sun_avszsnwsbuqfgzbn.tif,105,0.0666666666666667,0.0666666666666667,1.65,1786.913616166,1787.720249208,9,1786.97858075,1787.046064083,1787.734872833,1789.378258166,1,0.80663304199993
139,37,9,categorization,0,bathroom,SHINEd_sun_apeeialkgkuxddgh.tif,42,0.0666666666666667,0.0666666666666667,0.816666666666667,1789.396188208,1790.879949166,13,1789.462911333,1789.528748125,1790.898211666,1791.708216083,1,1.48376095799995
139,38,9,categorization,0,kitchen,SHINEd_sun_aehawpgmrlhlvcow.tif,81,0.0666666666666667,0.0666666666666667,0.9,1791.713059375,1792.408565,13,1791.77473275,1791.835710208,1792.420906416,1793.314243583,0,0.695505624999896
139,39,9,categorization,0,kitchen,SHINEd_sun_adgqasybjyktddhj.tif,78,0.0666666666666667,0.0666666666666667,0.733333333333333,1793.318930875,1793.864526541,13,1793.380725083,1793.441679541,1793.877059416,1794.603729708,0,0.545595666000054
139,40,9,categorization,0,kitchen,SHINEd_sun_amjjdeyrggfqgmom.tif,100,0.0666666666666667,0.0666666666666667,0.85,1794.6083745,1795.22438375,13,1794.670173083,1794.730971583,1795.232789416,1796.076127458,0,0.616009249999934
139,41,9,categorization,0,bathroom,SHINEd_sun_afcoljnjfoxjtgja.tif,20,0.0666666666666667,0.0666666666666667,1.58333333333333,1796.08097625,1796.719777541,13,1796.142715333,1796.203699916,1796.73894075,1798.315642875,1,0.638801290999936
139,42,9,categorization,0,kitchen,SHINEd_sun_aegoxogugdkwpmpj.tif,80,0.0666666666666667,0.0666666666666667,1.8,1798.333000291,1798.978663083,9,1798.399659916,1798.465331083,1799.003898291,1800.7972765,1,0.645662791999939
139,43,9,categorization,0,bathroom,SHINEd_sun_ahijqszoswveeyji.tif,28,0.0666666666666667,0.0666666666666667,1.3,1800.807834416,1801.445318625,9,1800.8718395,1800.938107625,1801.460143541,1802.7535215,0,0.637484208999922
139,44,9,categorization,0,bathroom,SHINEd_sun_alotolagknyrgtsk.tif,35,0.0666666666666667,0.0666666666666667,0.766666666666667,1802.769184041,1803.28018,9,1802.835050291,1802.900987541,1803.307922333,1804.06797225,0,0.510995958999956
139,45,9,categorization,0,kitchen,SHINEd_labelme_brsyyvweiuaazfr.tif,61,0.0666666666666667,0.0666666666666667,1.15,1804.08376625,1804.736612625,9,1804.15048125,1804.216571375,1804.752492416,1805.895874125,1,0.652846374999854
139,46,9,categorization,0,kitchen,SHINEd_sun_axyyrmzcupyhlivc.tif,107,0.0666666666666667,0.0666666666666667,1.36666666666667,1805.905517458,1807.026859708,9,1805.972547916,1806.038237333,1807.045108,1808.405166291,1,1.12134225
139,47,9,categorization,0,bathroom,SHINEd_sun_aljolscmmzydegqp.tif,33,0.0666666666666667,0.0666666666666667,0.783333333333333,1808.422997083,1809.0113555,9,1808.490156125,1808.556120875,1809.028897541,1809.805607833,0,0.588358417000109
139,48,9,categorization,0,bathroom,SHINEd_sun_akiytfaagpdsphgz.tif,31,0.0666666666666667,0.0666666666666667,1.25,1809.822750458,1810.487891333,13,1809.890019583,1809.955328041,1810.507550375,1811.75092575,1,0.665140875000134
139,49,9,categorization,0,kitchen,SHINEd_sun_aeqdocilnnpuvuhx.tif,83,0.0666666666666667,0.0666666666666667,1.5,1811.7681365,1812.361522333,9,1811.835191291,1811.900893125,1812.391017666,1813.88439925,1,0.593385832999957
139,50,9,categorization,0,bathroom,SHINEd_sun_ahqjwnzgolcaoidx.tif,29,0.0666666666666667,0.0666666666666667,1.03333333333333,1813.903122916,1814.564675166,9,1813.970298583,1814.035600875,1814.592322,1815.619036708,0,0.661552249999886
