sub_num,trial,block,task,is_practice,category,image,texture,duration,mask_dur,jitter,stim_time,time_of_resp,trial_response,mask_time,fix_time,jit_onset,trial_end,trial_accuracy,RT
139,1,21,categorization,0,bathroom,SHINEd_sun_aggnnqpdorgxpvce.tif,21,0.0666666666666667,0.0666666666666667,0.8,3461.283287083,3462.152848208,9,3461.345882416,3461.405932875,3462.158097375,3462.951435166,0,0.869561125000018
139,2,21,categorization,0,kitchen,SHINEd_sun_aarfiyshqohlwkmo.tif,67,0.0666666666666667,0.0666666666666667,1.18333333333333,3462.956594833,3463.424873125,9,3463.018170333,3463.079292125,3463.431110875,3464.6078165,1,0.468278291999923
139,3,21,categorization,0,bathroom,SHINEd_sun_agguqiubmwhqqunb.tif,22,0.0666666666666667,0.0666666666666667,1.25,3464.619906041,3465.301982,9,3464.686146125,3464.751379416,3465.324223708,3466.567607708,0,0.682075959000031
139,4,21,categorization,0,kitchen,SHINEd_sun_aeqdocilnnpuvuhx.tif,83,0.0666666666666667,0.0666666666666667,0.85,3466.581056958,3467.625480958,9,3466.645820291,3466.713441041,3467.653337666,3468.496724916,1,1.04442400000016
139,5,21,categorization,0,kitchen,SHINEd_sun_aapllqyqlykszopd.tif,66,0.0666666666666667,0.0666666666666667,1.16666666666667,3468.512043458,3469.929137375,9,3468.578435375,3468.64444575,3469.947014541,3471.107048083,1,1.41709391700033
139,6,21,categorization,0,bathroom,SHINEd_sun_ahijqszoswveeyji.tif,28,0.0666666666666667,0.0666666666666667,1.51666666666667,3471.1173995,3472.397480041,9,3471.184893833,3471.249640375,3472.426138666,3473.936185625,0,1.28008054100019
139,7,21,categorization,0,bathroom,SHINEd_sun_apjevzvycyhuqghb.tif,43,0.0666666666666667,0.0666666666666667,0.75,3473.955323791,3475.002786583,9,3474.022418875,3474.087956916,3475.0286515,3475.771990541,0,1.04746279200026
139,8,21,categorization,0,bathroom,SHINEd_sun_apmqjbnwghzuhhzh.tif,46,0.0666666666666667,0.0666666666666667,0.983333333333333,3475.777686875,3476.673203291,13,3475.839511416,3475.900527833,3476.686350875,3477.6630225,1,0.895516415999737
139,9,21,categorization,0,bathroom,SHINEd_sun_ambriybtogmepttm.tif,36,0.0666666666666667,0.0666666666666667,0.966666666666667,3477.668899208,3479.689277875,13,3477.730976833,3477.791560625,3479.69427325,3480.654277333,1,2.02037866699993
139,10,21,categorization,0,kitchen,SHINEd_sun_ahpczsiumwwocjkv.tif,92,0.0666666666666667,0.0666666666666667,1.33333333333333,3480.65961875,3481.736909708,9,3480.721399,3480.782335458,3481.750899083,3483.077610625,1,1.07729095800005
139,11,21,categorization,0,kitchen,SHINEd_sun_acfmftudsenhrfhy.tif,74,0.0666666666666667,0.0666666666666667,1.46666666666667,3483.094592208,3483.852439041,9,3483.162580291,3483.226833166,3483.865862541,3485.325901916,1,0.757846832999803
139,12,21,categorization,0,kitchen,SHINEd_sun_aymvwlarqodbwuoc.tif,108,0.0666666666666667,0.0666666666666667,1.03333333333333,3485.341021708,3486.404265875,13,3485.409175416,3485.473680708,3486.428559625,3487.455277833,0,1.06324416699999
139,13,21,categorization,0,kitchen,SHINEd_sun_acwjdupvyjsugpay.tif,76,0.0666666666666667,0.0666666666666667,1.76666666666667,3487.466600041,3488.260365375,9,3487.531211875,3487.597255,3488.285434375,3490.045469041,1,0.793765334
139,14,21,categorization,0,bathroom,SHINEd_sun_atstyziqcmkahyxk.tif,51,0.0666666666666667,0.0666666666666667,1.58333333333333,3490.064758416,3490.875007875,13,3490.131932041,3490.197261583,3490.884936375,3492.461641416,1,0.810249458999806
139,15,21,categorization,0,kitchen,SHINEd_sun_aehawpgmrlhlvcow.tif,81,0.0666666666666667,0.0666666666666667,0.783333333333333,3492.480208541,3493.513526625,9,3492.547090166,3492.613019708,3493.536550666,3494.313222833,1,1.0333180839998
139,16,21,categorization,0,bathroom,SHINEd_sun_aavhrsfjbserjtht.tif,13,0.0666666666666667,0.0666666666666667,0.75,3494.319819791,3495.048884375,9,3494.381554791,3494.442629833,3495.061170791,3495.8045075,0,0.729064583999843
139,17,21,categorization,0,bathroom,SHINEd_sun_avhrdrntsqrjzccq.tif,55,0.0666666666666667,0.0666666666666667,1.05,3495.80980375,3496.377382416,9,3495.871487166,3495.932509,3496.38449175,3497.427864708,0,0.567578665999918
139,18,21,categorization,0,kitchen,SHINEd_sun_adgqasybjyktddhj.tif,78,0.0666666666666667,0.0666666666666667,0.716666666666667,3497.437203291,3498.140579458,13,3497.501687583,3497.568227916,3498.157213041,3498.867237625,0,0.703376166999988
139,19,21,categorization,0,kitchen,SHINEd_sun_auaiucuqpdausiva.tif,102,0.0666666666666667,0.0666666666666667,1.31666666666667,3498.875810083,3499.640512833,13,3498.940714875,3499.005532,3499.658171083,3500.968222041,0,0.764702749999742
139,20,21,categorization,0,bathroom,SHINEd_sun_abjtwfukuwddzted.tif,15,0.0666666666666667,0.0666666666666667,1.35,3500.978767291,3501.8756515,9,3501.04584225,3501.11105025,3501.901286291,3503.24467375,0,0.896884208999836
139,21,21,categorization,0,bathroom,SHINEd_sun_aclfzgynxzxlbepz.tif,19,0.0666666666666667,0.0666666666666667,1.56666666666667,3503.262701875,3504.317942041,13,3503.330256291,3503.395124791,3504.332991,3505.893042333,1,1.0552401660002
139,22,21,categorization,0,bathroom,SHINEd_sun_agyqfjcfkdcydepw.tif,25,0.0666666666666667,0.0666666666666667,1.26666666666667,3505.911994791,3506.408344375,9,3505.9792805,3506.044877833,3506.435333,3507.695386875,0,0.4963495840002
139,23,21,categorization,0,kitchen,SHINEd_sun_afuyedyxivkhecmu.tif,85,0.0666666666666667,0.0666666666666667,1.06666666666667,3507.712350541,3508.14052,9,3507.779116791,3507.845334625,3508.168844125,3509.228878125,1,0.428169458999946
139,24,21,categorization,0,kitchen,SHINEd_labelme_kxvouciolcpqplr.tif,62,0.0666666666666667,0.0666666666666667,1,3509.245704333,3509.656490166,9,3509.312828916,3509.378252125,3509.664102166,3510.657441375,1,0.410785832999863
139,25,21,categorization,0,kitchen,SHINEd_sun_auticobqsbwgoppi.tif,104,0.0666666666666667,0.0666666666666667,0.933333333333333,3510.66222025,3511.113168375,9,3510.723949291,3510.784929208,3511.119971958,3512.046642291,1,0.450948125000195
139,26,21,categorization,0,bathroom,SHINEd_sun_anhioqovhscjqqwb.tif,38,0.0666666666666667,0.0666666666666667,0.716666666666667,3512.0524525,3512.681050208,9,3512.114260708,3512.175068416,3512.693752333,3513.403756666,0,0.628597708000143
139,27,21,categorization,0,bathroom,SHINEd_sun_auzqhkafidnkrwmo.tif,54,0.0666666666666667,0.0666666666666667,0.783333333333333,3513.408319833,3515.001153375,13,3513.470020333,3513.530973125,3515.016531833,3515.793203375,1,1.59283354199988
139,28,21,categorization,0,kitchen,SHINEd_sun_ajcbwwvdlsvjyzje.tif,96,0.0666666666666667,0.0666666666666667,1.18333333333333,3515.798028208,3516.632878958,9,3515.859875208,3515.920833416,3516.639914333,3517.816605291,1,0.834850750000442
139,29,21,categorization,0,kitchen,SHINEd_sun_ahdycvpopffkzzsu.tif,90,0.0666666666666667,0.0666666666666667,0.866666666666667,3517.826691791,3518.242317166,9,3517.893407833,3517.959391125,3518.266026333,3519.126081791,1,0.415625374999763
139,30,21,categorization,0,bathroom,SHINEd_sun_akiytfaagpdsphgz.tif,31,0.0666666666666667,0.0666666666666667,0.933333333333333,3519.142642958,3519.720943916,9,3519.209355416,3519.27529925,3519.727675166,3520.654345791,0,0.578300958
139,31,21,categorization,0,bathroom,SHINEd_sun_ausgutylgojavyoq.tif,53,0.0666666666666667,0.0666666666666667,0.75,3520.659681416,3521.216427833,13,3520.721262583,3520.782397,3521.23428625,3521.977623083,1,0.55674641700034
139,32,21,categorization,0,kitchen,SHINEd_sun_aggjlwcdjsjcaemh.tif,86,0.0666666666666667,0.0666666666666667,1.23333333333333,3521.982433833,3522.400410458,9,3522.044103791,3522.1051205,3522.406962208,3523.633679958,1,0.417976624999937
139,33,21,categorization,0,bathroom,SHINEd_sun_ahaulkltgpkeeemi.tif,26,0.0666666666666667,0.0666666666666667,1.18333333333333,3523.651537833,3524.104439333,9,3523.718988583,3523.784178875,3524.12385225,3525.300574541,0,0.452901499999825
139,34,21,categorization,0,bathroom,SHINEd_sun_aoybiabnpadelefl.tif,41,0.0666666666666667,0.0666666666666667,1.73333333333333,3525.317199708,3525.760822166,9,3525.383711375,3525.447836,3525.766400375,3527.493114833,0,0.443622457999936
139,35,21,categorization,0,bathroom,SHINEd_sun_aapitsgbtktqubfy.tif,12,0.0666666666666667,0.0666666666666667,1,3527.511241416,3527.9255725,9,3527.577888791,3527.643780458,3527.950150416,3528.943489666,0,0.414331083999969
139,36,21,categorization,0,kitchen,SHINEd_sun_admlmbcdswaszruo.tif,79,0.0666666666666667,0.0666666666666667,1.3,3528.948486875,3529.29630075,9,3529.01032525,3529.071149083,3529.306236208,3530.59961,1,0.347813874999702
139,37,21,categorization,0,kitchen,SHINEd_sun_aadbddgrdsjugojn.tif,64,0.0666666666666667,0.0666666666666667,1.15,3530.617278666,3531.093844458,9,3530.68361525,3530.74971725,3531.122822666,3532.266201875,1,0.476565792000201
139,38,21,categorization,0,bathroom,SHINEd_sun_agrwbmhcpmfuwmsg.tif,24,0.0666666666666667,0.0666666666666667,0.966666666666667,3532.283092625,3532.768918166,9,3532.349406291,3532.407450875,3532.775781208,3533.735785875,0,0.48582554099994
139,39,21,categorization,0,kitchen,SHINEd_sun_acgtpgfybqjmzeyw.tif,75,0.0666666666666667,0.0666666666666667,1.85,3533.740655833,3534.201196375,9,3533.802394625,3533.863348625,3534.2152445,3536.058621083,1,0.460540542000217
139,40,21,categorization,0,bathroom,SHINEd_sun_apynckhmoftszqoq.tif,47,0.0666666666666667,0.0666666666666667,1.11666666666667,3536.076098041,3536.628260416,9,3536.142824125,3536.208677041,3536.648408916,3537.758441875,0,0.55216237500008
139,41,21,categorization,0,kitchen,SHINEd_labelme_rykdqxenmhulbdn.tif,63,0.0666666666666667,0.0666666666666667,0.916666666666667,3537.769909833,3538.49921625,9,3537.834618333,3537.902087208,3538.525629458,3539.435682625,1,0.729306416999862
139,42,21,categorization,0,bathroom,SHINEd_sun_acgyywnybuveqsro.tif,18,0.0666666666666667,0.0666666666666667,1.61666666666667,3539.454650583,3539.889174708,9,3539.521079541,3539.587506666,3539.906701791,3541.516751208,0,0.43452412500028
139,43,21,categorization,0,bathroom,SHINEd_sun_aljolscmmzydegqp.tif,33,0.0666666666666667,0.0666666666666667,0.766666666666667,3541.53442075,3541.880254708,9,3541.600755916,3541.667423583,3541.907485291,3542.667541458,0,0.34583395799973
139,44,21,categorization,0,bathroom,SHINEd_sun_axldvoqbuvuggfmq.tif,57,0.0666666666666667,0.0666666666666667,0.85,3542.676407,3543.656160375,13,3542.742845416,3542.806309875,3543.6753765,3544.518713708,1,0.9797533750002
139,45,21,categorization,0,bathroom,SHINEd_sun_aqrpegblszgcoujh.tif,48,0.0666666666666667,0.0666666666666667,1.8,3544.523594791,3545.00873075,13,3544.585281,3544.646267458,3545.014820375,3546.808171958,1,0.485135958999763
139,46,21,categorization,0,kitchen,SHINEd_sun_acxkpeoqbwcxfvip.tif,77,0.0666666666666667,0.0666666666666667,0.833333333333333,3546.819207708,3547.380713125,9,3546.884184875,3546.948483625,3547.404979625,3548.231651833,1,0.561505417000262
139,47,21,categorization,0,kitchen,SHINEd_sun_abdenxonkemggwsq.tif,69,0.0666666666666667,0.0666666666666667,1.05,3548.236626708,3548.736910541,9,3548.298249041,3548.359244375,3548.744433125,3549.787824083,1,0.500283832999685
139,48,21,categorization,0,kitchen,SHINEd_sun_aegoxogugdkwpmpj.tif,80,0.0666666666666667,0.0666666666666667,1.68333333333333,3549.7988525,3550.209247625,9,3549.8637625,3549.929655833,3550.235810125,3551.912522083,1,0.410395124999923
139,49,21,categorization,0,bathroom,SHINEd_sun_aleqenyvunhactkl.tif,32,0.0666666666666667,0.0666666666666667,1.7,3551.929194708,3552.424838333,9,3551.995538416,3552.062028291,3552.451914833,3554.145304375,0,0.495643624999957
139,50,21,categorization,0,kitchen,SHINEd_sun_abrcnpqqhmjwekyf.tif,73,0.0666666666666667,0.0666666666666667,1.01666666666667,3554.16065125,3554.561411958,9,3554.227363833,3554.293300916,3554.582996958,3555.59303125,1,0.400760708000234
