sub_num,trial,block,task,is_practice,category,image,texture,duration,mask_dur,jitter,stim_time,time_of_resp,trial_response,mask_time,fix_time,jit_onset,trial_end,trial_accuracy,RT
139,1,0,categorization,1,kitchen,SHINEd_kitchen_practice1.tif,116,0.0666666666666667,0.0666666666666667,1.21666666666667,611.938859625,613.141270916,9,612.004629625,612.06564875,613.169044375,614.379181333,1,1.20241129100009
139,2,0,categorization,1,bathroom,SHINEd_bathroom_practice4.tif,114,0.0666666666666667,0.0666666666666667,1.36666666666667,614.437657083,615.653176708,9,614.510058916,614.571606625,615.700230791,617.060430291,0,1.21551962500007
139,3,0,categorization,1,bathroom,SHINEd_bathroom_practice2.tif,112,0.0666666666666667,0.0666666666666667,1.85,617.111967333,617.907124875,9,617.185902375,617.246427875,617.939335541,619.782874666,0,0.79515754199997
139,4,0,categorization,1,kitchen,SHINEd_kitchen_practice2.tif,117,0.0666666666666667,0.0666666666666667,1.55,619.811262416,620.410330291,9,619.881028583,619.944487916,620.4368835,621.980429916,1,0.59906787500006
139,5,0,categorization,1,kitchen,SHINEd_kitchen_practice5.tif,120,0.0666666666666667,0.0666666666666667,1.48333333333333,622.009290166,622.630278041,9,622.083021,622.143712791,622.6737925,624.15141875,1,0.620987874999969
139,6,0,categorization,1,kitchen,SHINEd_kitchen_practice3.tif,118,0.0666666666666667,0.0666666666666667,1.15,624.179008625,624.790745125,9,624.247568791,624.312145666,624.819313375,625.962774125,1,0.611736499999893
139,7,0,categorization,1,kitchen,SHINEd_kitchen_practice4.tif,119,0.0666666666666667,0.0666666666666667,0.733333333333333,625.973865833,626.864514458,9,626.041494333,626.107545833,626.879967833,627.60669525,1,0.89064862500004
139,8,0,categorization,1,bathroom,SHINEd_bathroom_practice3.tif,113,0.0666666666666667,0.0666666666666667,1.6,627.624440416,628.7971435,13,627.691690291,627.757551375,628.80943375,630.402821,1,1.17270308399998
139,9,0,categorization,1,bathroom,SHINEd_bathroom_practice5.tif,115,0.0666666666666667,0.0666666666666667,0.716666666666667,630.421999666,631.18207975,9,630.488860208,630.554755125,631.211693291,631.921748958,0,0.760080083999924
139,10,0,categorization,1,bathroom,SHINEd_bathroom_practice1.tif,111,0.0666666666666667,0.0666666666666667,1.21666666666667,631.937678875,632.981220666,9,632.000445875,632.060475166,632.995709708,634.205754958,0,1.04354179100005
139,1,0,categorization,1,kitchen,SHINEd_kitchen_practice1.tif,116,0.0666666666666667,0.0666666666666667,1.21666666666667,653.870077416,654.764924833,13,653.9326035,653.992795875,654.777821208,655.9878775,0,0.894847417000051
139,2,0,categorization,1,bathroom,SHINEd_bathroom_practice4.tif,114,0.0666666666666667,0.0666666666666667,1.36666666666667,656.005053,656.755033833,13,656.071756833,656.1380085,656.776350375,658.136407375,1,0.749980832999995
139,3,0,categorization,1,bathroom,SHINEd_bathroom_practice2.tif,112,0.0666666666666667,0.0666666666666667,1.85,658.15453675,658.924553583,9,658.221526125,658.286874666,658.94230775,660.785674333,0,0.770016833
139,4,0,categorization,1,kitchen,SHINEd_kitchen_practice2.tif,117,0.0666666666666667,0.0666666666666667,1.55,660.799116333,661.537843583,9,660.864324291,660.930629625,661.553305208,663.096674083,1,0.738727250000011
139,5,0,categorization,1,kitchen,SHINEd_kitchen_practice5.tif,120,0.0666666666666667,0.0666666666666667,1.48333333333333,663.114549833,663.96631975,13,663.181139083,663.247043208,663.986358666,665.463074416,0,0.85176991700007
139,6,0,categorization,1,kitchen,SHINEd_kitchen_practice3.tif,118,0.0666666666666667,0.0666666666666667,1.15,665.480695416,666.24141375,9,665.547181166,665.613118875,666.269981291,667.413359291,1,0.760718333999989
139,7,0,categorization,1,kitchen,SHINEd_kitchen_practice4.tif,119,0.0666666666666667,0.0666666666666667,0.733333333333333,667.423504916,668.28874475,9,667.490225291,667.556710291,668.313510291,669.040220458,1,0.865239834000022
139,8,0,categorization,1,bathroom,SHINEd_bathroom_practice3.tif,113,0.0666666666666667,0.0666666666666667,1.6,669.056616666,670.013345416,13,669.123451625,669.189092333,670.024740875,671.618127916,1,0.956728750000025
139,9,0,categorization,1,bathroom,SHINEd_bathroom_practice5.tif,115,0.0666666666666667,0.0666666666666667,0.716666666666667,671.636964958,672.454875,13,671.704172083,671.770146791,672.478198666,673.188205958,1,0.817910041999994
139,10,0,categorization,1,bathroom,SHINEd_bathroom_practice1.tif,111,0.0666666666666667,0.0666666666666667,1.21666666666667,673.194575583,673.933061041,9,673.256222041,673.317343083,673.952655625,675.162697333,0,0.738485458000014
139,1,1,categorization,0,bathroom,SHINEd_sun_agyqfjcfkdcydepw.tif,25,0.0666666666666667,0.0666666666666667,1.23333333333333,691.144884,691.812677125,13,691.207247875,691.267929666,691.82004875,693.046769625,1,0.667793125000003
139,2,1,categorization,0,kitchen,SHINEd_sun_aymvwlarqodbwuoc.tif,108,0.0666666666666667,0.0666666666666667,0.783333333333333,693.058760625,693.732627166,13,693.125880291,693.191036666,693.74622575,694.522940791,0,0.673866541000052
139,3,1,categorization,0,kitchen,SHINEd_sun_afuyedyxivkhecmu.tif,85,0.0666666666666667,0.0666666666666667,0.75,694.53832075,695.2293405,9,694.605217583,694.67081375,695.239805916,695.983144708,1,0.691019750000009
139,4,1,categorization,0,bathroom,SHINEd_sun_axldvoqbuvuggfmq.tif,57,0.0666666666666667,0.0666666666666667,1.23333333333333,695.988027875,696.75648925,9,696.049670375,696.110640625,696.762503916,697.989215166,0,0.768461375000015
139,5,1,categorization,0,kitchen,SHINEd_sun_acxkpeoqbwcxfvip.tif,77,0.0666666666666667,0.0666666666666667,1.13333333333333,698.007452041,698.746291083,13,698.074240583,698.139503,698.762177791,699.888883791,0,0.738839041999995
139,6,1,categorization,0,bathroom,SHINEd_sun_aggnnqpdorgxpvce.tif,21,0.0666666666666667,0.0666666666666667,0.95,699.900981958,700.545508,9,699.965628208,700.0332355,700.573018125,701.516384708,0,0.644526042000052
139,7,1,categorization,0,kitchen,SHINEd_sun_abdxkyyxwfskuaqb.tif,70,0.0666666666666667,0.0666666666666667,0.733333333333333,701.532189708,702.165242291,9,701.599331125,701.664350916,702.183195666,702.909867041,1,0.633052582999994
139,8,1,categorization,0,bathroom,SHINEd_sun_anhioqovhscjqqwb.tif,38,0.0666666666666667,0.0666666666666667,1.31666666666667,702.914454458,703.700519833,9,702.976207333,703.037140625,703.705886833,705.015943375,0,0.786065375000021
139,9,1,categorization,0,kitchen,SHINEd_sun_aarfiyshqohlwkmo.tif,67,0.0666666666666667,0.0666666666666667,0.8,705.0304135,705.724999875,13,705.09702375,705.162640791,705.75499275,706.548384916,0,0.694586374999972
139,10,1,categorization,0,kitchen,SHINEd_sun_admlmbcdswaszruo.tif,79,0.0666666666666667,0.0666666666666667,0.716666666666667,706.565800083,707.324808666,9,706.632207291,706.698162375,707.333542083,708.043546333,1,0.759008582999968
139,11,1,categorization,0,bathroom,SHINEd_sun_afcoljnjfoxjtgja.tif,20,0.0666666666666667,0.0666666666666667,0.916666666666667,708.048335583,708.740760916,9,708.110043458,708.171150666,708.756527041,709.666531791,0,0.69242533299996
139,12,1,categorization,0,kitchen,SHINEd_sun_aggjlwcdjsjcaemh.tif,86,0.0666666666666667,0.0666666666666667,0.95,709.671170708,710.324646083,13,709.732896625,709.793761583,710.328903166,711.272241875,0,0.653475374999971
139,13,1,categorization,0,bathroom,SHINEd_sun_ahcvzmoyaycdoftf.tif,27,0.0666666666666667,0.0666666666666667,0.833333333333333,711.277069833,712.0844795,13,711.3388215,711.399745666,712.101893958,712.928563708,1,0.807409667000002
139,14,1,categorization,0,bathroom,SHINEd_sun_aofnryafpsjimzsb.tif,40,0.0666666666666667,0.0666666666666667,0.75,712.933888958,713.685264041,9,712.996084125,713.056628833,713.691707166,714.435045333,0,0.751375082999971
139,15,1,categorization,0,bathroom,SHINEd_sun_abjtwfukuwddzted.tif,15,0.0666666666666667,0.0666666666666667,1.53333333333333,714.439632041,715.228501583,9,714.501227416,714.5622355,715.247502375,716.774187208,0,0.788869542000043
139,16,1,categorization,0,bathroom,SHINEd_sun_acduarbnmmoglmiv.tif,16,0.0666666666666667,0.0666666666666667,1.05,716.783795333,717.344376416,13,716.848273958,716.9145085,717.3704735,718.413858291,1,0.560581083000102
139,17,1,categorization,0,bathroom,SHINEd_sun_ahaulkltgpkeeemi.tif,26,0.0666666666666667,0.0666666666666667,0.9,718.423532333,718.981399958,13,718.489984541,718.556556375,718.993816708,719.887198625,1,0.557867624999972
139,18,1,categorization,0,bathroom,SHINEd_sun_auzqhkafidnkrwmo.tif,54,0.0666666666666667,0.0666666666666667,1.18333333333333,719.902658916,720.549247416,9,719.967528166,720.033958958,720.552979708,721.7296745,0,0.646588500000007
139,19,1,categorization,0,bathroom,SHINEd_sun_agrwbmhcpmfuwmsg.tif,24,0.0666666666666667,0.0666666666666667,0.9,721.738450708,722.454957208,13,721.805298791,721.870818458,722.477467083,723.370837833,1,0.716506500000037
139,20,1,categorization,0,kitchen,SHINEd_sun_abdenxonkemggwsq.tif,69,0.0666666666666667,0.0666666666666667,1.66666666666667,723.387033375,724.1326965,9,723.453900375,723.519644541,724.138485291,725.798529083,1,0.745663124999965
139,21,1,categorization,0,bathroom,SHINEd_sun_apmqjbnwghzuhhzh.tif,46,0.0666666666666667,0.0666666666666667,1.13333333333333,725.819405541,726.384012291,13,725.886523666,725.951267541,726.408000375,727.534706583,1,0.564606749999939
139,22,1,categorization,0,kitchen,SHINEd_sun_aexklacwqwezaorf.tif,84,0.0666666666666667,0.0666666666666667,1.3,727.544799333,728.151089083,9,727.609865583,727.677027208,728.166116041,729.459502208,1,0.606289749999974
139,23,1,categorization,0,bathroom,SHINEd_sun_aclfzgynxzxlbepz.tif,19,0.0666666666666667,0.0666666666666667,1.93333333333333,729.473237416,730.238143833,9,729.539856291,729.605909541,730.2623475,732.189053083,0,0.76490641700002
139,24,1,categorization,0,kitchen,SHINEd_sun_agorklincwxrdtga.tif,87,0.0666666666666667,0.0666666666666667,1,732.207464916,732.7415095,13,732.274305875,732.339771083,732.762658625,733.755995958,0,0.534044583999957
139,25,1,categorization,0,bathroom,SHINEd_sun_acgyywnybuveqsro.tif,18,0.0666666666666667,0.0666666666666667,0.883333333333333,733.760993208,734.292276958,13,733.822665541,733.883674083,734.302055625,735.178728375,1,0.531283750000057
139,26,1,categorization,0,kitchen,SHINEd_sun_acwjdupvyjsugpay.tif,76,0.0666666666666667,0.0666666666666667,1.95,735.183962291,735.853106083,9,735.245681625,735.306717458,735.858525916,737.801915291,1,0.669143792
139,27,1,categorization,0,bathroom,SHINEd_sun_aspsyogrekjtfozg.tif,50,0.0666666666666667,0.0666666666666667,1.25,737.818931041,738.388365791,13,737.885696416,737.951656916,738.408227291,739.651591833,1,0.569434749999914
139,28,1,categorization,0,kitchen,SHINEd_sun_acfmftudsenhrfhy.tif,74,0.0666666666666667,0.0666666666666667,1.95,739.668966041,740.470954291,13,739.735340958,739.801481416,740.491681625,742.435064791,0,0.801988250000022
139,29,1,categorization,0,bathroom,SHINEd_sun_acegryoqftbzowsg.tif,17,0.0666666666666667,0.0666666666666667,1.91666666666667,742.451886583,743.072253916,9,742.518839666,742.5846225,743.090986666,745.001044,0,0.62036733299999
139,30,1,categorization,0,bathroom,SHINEd_sun_aoybiabnpadelefl.tif,41,0.0666666666666667,0.0666666666666667,1.41666666666667,745.018940958,745.565744625,9,745.085474708,745.151320541,745.591640416,747.001691583,0,0.546803666999949
139,31,1,categorization,0,bathroom,SHINEd_sun_aleqenyvunhactkl.tif,32,0.0666666666666667,0.0666666666666667,0.716666666666667,747.012434416,747.468356041,9,747.079425916,747.144926541,747.484213333,748.194266083,0,0.455921624999974
139,32,1,categorization,0,bathroom,SHINEd_sun_axxbkopsgyouuebh.tif,58,0.0666666666666667,0.0666666666666667,1.28333333333333,748.208429208,748.812684,13,748.275016041,748.341031958,748.826312666,750.10301775,1,0.604254792000006
139,33,1,categorization,0,kitchen,SHINEd_sun_abpwyqmlzafvklqo.tif,72,0.0666666666666667,0.0666666666666667,0.9,750.120329458,750.660388833,9,750.187126416,750.253283375,750.67580975,751.569200041,1,0.540059374999942
139,34,1,categorization,0,kitchen,SHINEd_sun_agubuxuukhzyzpdp.tif,88,0.0666666666666667,0.0666666666666667,0.8,751.585952583,752.22881525,9,751.65270625,751.718445166,752.237542208,753.030880916,1,0.642862667000031
139,35,1,categorization,0,kitchen,SHINEd_sun_abftihopvusyfakt.tif,71,0.0666666666666667,0.0666666666666667,1.01666666666667,753.035860166,753.556725416,13,753.097540041,753.158519791,753.560327208,754.570364208,0,0.520865249999929
139,36,1,categorization,0,kitchen,SHINEd_sun_aapllqyqlykszopd.tif,66,0.0666666666666667,0.0666666666666667,0.85,754.580497833,755.020398916,13,754.644977916,754.711496208,755.032308666,755.875692458,0,0.439901082999995
139,37,1,categorization,0,bathroom,SHINEd_sun_agguqiubmwhqqunb.tif,22,0.0666666666666667,0.0666666666666667,1.51666666666667,755.892501208,756.39858525,9,755.959276583,756.023815125,756.411604333,757.9216405,0,0.506084041999998
139,38,1,categorization,0,bathroom,SHINEd_sun_atstyziqcmkahyxk.tif,51,0.0666666666666667,0.0666666666666667,1.83333333333333,757.938189916,758.503476916,13,758.004863583,758.070528416,758.525953916,760.352654166,1,0.565286999999898
139,39,1,categorization,0,kitchen,SHINEd_sun_adgqasybjyktddhj.tif,78,0.0666666666666667,0.0666666666666667,0.716666666666667,760.369888208,760.983178833,9,760.436608791,760.502587375,761.007961916,761.717968791,1,0.613290624999991
139,40,1,categorization,0,bathroom,SHINEd_sun_ajlawzvmubibwbpy.tif,30,0.0666666666666667,0.0666666666666667,0.9,761.723481416,762.164712,9,761.785175166,761.846208833,762.181290125,763.074629833,0,0.441230583999982
139,41,1,categorization,0,kitchen,SHINEd_labelme_rykdqxenmhulbdn.tif,63,0.0666666666666667,0.0666666666666667,0.916666666666667,763.079418666,763.884899083,9,763.141077875,763.202110875,763.904140708,764.814143791,1,0.805480417000012
139,42,1,categorization,0,bathroom,SHINEd_sun_amzlamotzwfkwjco.tif,37,0.0666666666666667,0.0666666666666667,0.816666666666667,764.818844,765.356447666,9,764.880691541,764.941475583,765.359956125,766.169960041,0,0.537603665999995
139,43,1,categorization,0,bathroom,SHINEd_sun_alkosphxlxwjwgjd.tif,34,0.0666666666666667,0.0666666666666667,1.88333333333333,766.174690083,766.908543,9,766.236362541,766.297348125,766.915638208,768.792351,0,0.733852917000036
139,44,1,categorization,0,bathroom,SHINEd_sun_avhrdrntsqrjzccq.tif,55,0.0666666666666667,0.0666666666666667,0.9,768.802966916,769.280188208,13,768.868867791,768.933997333,769.307287125,770.200623875,1,0.477221292000081
139,45,1,categorization,0,kitchen,SHINEd_labelme_kxvouciolcpqplr.tif,62,0.0666666666666667,0.0666666666666667,1,770.205464041,770.86061625,13,770.267186875,770.32830275,770.879999458,771.873336458,0,0.655152208999993
139,46,1,categorization,0,bathroom,SHINEd_labelme_sfxiulhjbhlyiyt.tif,11,0.0666666666666667,0.0666666666666667,0.733333333333333,771.87812975,772.460908666,13,771.939714375,772.000860083,772.469346166,773.196016583,1,0.582778916000052
139,47,1,categorization,0,kitchen,SHINEd_sun_akchetnepxlcxhsu.tif,98,0.0666666666666667,0.0666666666666667,0.883333333333333,773.200827208,773.828883833,13,773.262573791,773.323519375,773.842220708,774.718891291,0,0.628056624999999
139,48,1,categorization,0,bathroom,SHINEd_sun_aljolscmmzydegqp.tif,33,0.0666666666666667,0.0666666666666667,1.73333333333333,774.723455916,775.365085291,13,774.78506675,774.84619575,775.381398166,777.108134083,1,0.64162937499998
139,49,1,categorization,0,bathroom,SHINEd_sun_alotolagknyrgtsk.tif,35,0.0666666666666667,0.0666666666666667,1.91666666666667,777.12616275,777.533738541,9,777.192695708,777.258825208,777.547703708,779.457757166,0,0.407575790999999
139,50,1,categorization,0,kitchen,SHINEd_sun_aeqdocilnnpuvuhx.tif,83,0.0666666666666667,0.0666666666666667,1.35,779.47693,779.840895333,9,779.543569791,779.6093435,779.864089416,781.207478375,1,0.36396533300001
139,1,2,categorization,0,bathroom,SHINEd_sun_aghyqhbptboemmoq.tif,23,0.0666666666666667,0.0666666666666667,0.95,790.411283625,791.02840825,9,790.473795791,790.533968333,791.035781958,791.979119208,0,0.617124624999974
139,2,2,categorization,0,kitchen,SHINEd_labelme_brsyyvweiuaazfr.tif,61,0.0666666666666667,0.0666666666666667,0.75,791.983933291,792.476248416,9,792.045594583,792.106616833,792.492143708,793.235481333,1,0.492315125000005
139,3,2,categorization,0,bathroom,SHINEd_sun_apeeialkgkuxddgh.tif,42,0.0666666666666667,0.0666666666666667,1.68333333333333,793.239986375,793.892597708,9,793.301590833,793.362569958,793.89766,795.5743735,0,0.652611333000095
139,4,2,categorization,0,bathroom,SHINEd_sun_aqrpegblszgcoujh.tif,48,0.0666666666666667,0.0666666666666667,0.816666666666667,795.591917416,796.373771541,13,795.658737416,795.724844916,796.398269333,797.208274166,1,0.781854124999995
139,5,2,categorization,0,bathroom,SHINEd_sun_ahqjwnzgolcaoidx.tif,29,0.0666666666666667,0.0666666666666667,0.916666666666667,797.213994958,797.796346375,13,797.275641083,797.33671825,797.805219125,798.715222375,1,0.582351417000041
139,6,2,categorization,0,bathroom,SHINEd_sun_anryaplzeujmzfkd.tif,39,0.0666666666666667,0.0666666666666667,1.21666666666667,798.72001525,799.388126625,9,798.781646708,798.842731291,799.394818333,800.604866916,0,0.66811137500008
139,7,2,categorization,0,kitchen,SHINEd_sun_auticobqsbwgoppi.tif,104,0.0666666666666667,0.0666666666666667,0.9,800.621849791,801.261865583,13,800.688436708,800.754482208,801.277593791,802.170979041,0,0.640015791999986
139,8,2,categorization,0,kitchen,SHINEd_sun_ahpczsiumwwocjkv.tif,92,0.0666666666666667,0.0666666666666667,1.65,802.187399541,802.932006916,13,802.254542666,802.319855708,802.9384605,804.581852,0,0.744607374999987
139,9,2,categorization,0,kitchen,SHINEd_sun_aunzlwrbjumxhwdj.tif,103,0.0666666666666667,0.0666666666666667,1.15,804.6016055,805.225809791,13,804.668329208,804.734125041,805.23995525,806.38333275,0,0.624204290999955
139,10,2,categorization,0,kitchen,SHINEd_sun_axyyrmzcupyhlivc.tif,107,0.0666666666666667,0.0666666666666667,1.13333333333333,806.393421125,806.942383541,9,806.459925916,806.525896375,806.964248125,808.090961958,1,0.548962415999995
139,11,2,categorization,0,kitchen,SHINEd_sun_aqeaevwwwjoqhzvl.tif,101,0.0666666666666667,0.0666666666666667,1.76666666666667,808.104397708,808.500553333,9,808.1712195,808.236861375,808.505994875,810.266048833,1,0.396155625000006
139,12,2,categorization,0,kitchen,SHINEd_sun_ahdycvpopffkzzsu.tif,90,0.0666666666666667,0.0666666666666667,1.8,810.285015083,810.909713125,9,810.351725583,810.41791675,810.922835166,812.716218833,1,0.624698042000091
139,13,2,categorization,0,kitchen,SHINEd_sun_auaiucuqpdausiva.tif,102,0.0666666666666667,0.0666666666666667,0.9,812.735035833,813.415874916,9,812.800364083,812.866218833,813.4398465,814.3331845,1,0.680839083000023
139,14,2,categorization,0,kitchen,SHINEd_sun_aypmqwcualkenuoe.tif,109,0.0666666666666667,0.0666666666666667,0.716666666666667,814.338118541,814.964659166,9,814.399830333,814.460725291,814.97912575,815.689130333,1,0.626540625000075
139,15,2,categorization,0,bathroom,SHINEd_sun_aunuadmjocsddsrl.tif,52,0.0666666666666667,0.0666666666666667,1.36666666666667,815.694318,816.628017,13,815.755962875,815.816990541,816.635432916,817.9954825,1,0.933699000000047
139,16,2,categorization,0,bathroom,SHINEd_sun_apjevzvycyhuqghb.tif,43,0.0666666666666667,0.0666666666666667,0.916666666666667,818.01365,818.669243083,9,818.080357916,818.145718125,818.685187916,819.595242958,0,0.655593082999985
139,17,2,categorization,0,kitchen,SHINEd_sun_amjjdeyrggfqgmom.tif,100,0.0666666666666667,0.0666666666666667,0.716666666666667,819.611909958,820.26041275,9,819.678578666,819.74228825,820.277990583,820.987996125,1,0.648502792000045
139,18,2,categorization,0,kitchen,SHINEd_sun_aaxxjlsuzvqlgylf.tif,68,0.0666666666666667,0.0666666666666667,0.766666666666667,820.992840416,821.708378,9,821.054509708,821.115506208,821.717793541,822.477796916,1,0.715537584000003
139,19,2,categorization,0,bathroom,SHINEd_sun_ausgutylgojavyoq.tif,53,0.0666666666666667,0.0666666666666667,1.06666666666667,822.483364416,823.180173583,13,822.545105,822.606118125,823.191254666,824.251296541,1,0.696809167000083
139,20,2,categorization,0,bathroom,SHINEd_sun_aapitsgbtktqubfy.tif,12,0.0666666666666667,0.0666666666666667,0.8,824.260989166,825.096336458,9,824.325307541,824.391126708,825.114013666,825.907381958,0,0.835347292000051
139,21,2,categorization,0,kitchen,SHINEd_sun_acgtpgfybqjmzeyw.tif,75,0.0666666666666667,0.0666666666666667,0.866666666666667,825.923672041,826.620844041,9,825.990418791,826.055723916,826.624878916,827.484884,1,0.697172000000023
139,22,2,categorization,0,kitchen,SHINEd_sun_aegoxogugdkwpmpj.tif,80,0.0666666666666667,0.0666666666666667,1.48333333333333,827.489792833,828.132613166,9,827.551554375,827.612416,828.147601666,829.624323416,1,0.642820333000031
139,23,2,categorization,0,kitchen,SHINEd_sun_ahljzhgcdpomplvg.tif,91,0.0666666666666667,0.0666666666666667,1.1,829.640052708,830.537744125,13,829.706929291,829.772545375,830.562776625,831.656155083,0,0.897691417000033
139,24,2,categorization,0,kitchen,SHINEd_sun_ajcbwwvdlsvjyzje.tif,96,0.0666666666666667,0.0666666666666667,0.783333333333333,831.667373458,832.372326375,13,831.732266916,831.799886166,832.388039416,833.164740958,0,0.7049529169999
139,25,2,categorization,0,kitchen,SHINEd_sun_aixorpehvfykdynp.tif,95,0.0666666666666667,0.0666666666666667,0.866666666666667,833.181381833,833.940892208,13,833.247495,833.31404175,833.949653166,834.8096575,0,0.759510374999991
139,26,2,categorization,0,kitchen,SHINEd_sun_aenotlpyftoioydp.tif,82,0.0666666666666667,0.0666666666666667,1.83333333333333,834.816516708,835.380214,9,834.878391416,834.93927325,835.391053166,837.217776625,1,0.563697292000029
139,27,2,categorization,0,kitchen,SHINEd_sun_ahywdevtimnqcsln.tif,94,0.0666666666666667,0.0666666666666667,0.7,837.236276166,837.910475708,9,837.302861375,837.369678166,837.925449583,838.618789666,1,0.674199541999997
139,28,2,categorization,0,bathroom,SHINEd_sun_ambriybtogmepttm.tif,36,0.0666666666666667,0.0666666666666667,1.33333333333333,838.624547333,839.35582925,13,838.686238541,838.747296791,839.3658195,840.692536916,1,0.731281917000047
139,29,2,categorization,0,bathroom,SHINEd_sun_awnqiikzaispgmwo.tif,56,0.0666666666666667,0.0666666666666667,1.33333333333333,840.710754916,841.69533075,13,840.775641875,840.840268083,841.712643125,843.039342458,1,0.984575833999997
139,30,2,categorization,0,kitchen,SHINEd_sun_aadbddgrdsjugojn.tif,64,0.0666666666666667,0.0666666666666667,1.38333333333333,843.0537755,843.596200916,9,843.120640166,843.1843915,843.624423166,845.001123833,1,0.542425416000015
139,31,2,categorization,0,kitchen,SHINEd_sun_awcpdzzznmweyyhv.tif,106,0.0666666666666667,0.0666666666666667,1.25,845.018175375,845.69613175,9,845.085006666,845.150811666,845.724112833,846.967497666,1,0.677956374999894
139,32,2,categorization,0,kitchen,SHINEd_sun_agzzivivdpnawacl.tif,89,0.0666666666666667,0.0666666666666667,1.55,846.97746375,847.637503958,9,847.042607291,847.110019208,847.666903625,849.210295583,1,0.660040208000055
139,33,2,categorization,0,bathroom,SHINEd_sun_apkruvsevgegsdwp.tif,44,0.0666666666666667,0.0666666666666667,1.61666666666667,849.228621958,849.761148833,13,849.295398458,849.360853791,849.782819916,851.392860875,1,0.53252687500003
139,34,2,categorization,0,kitchen,SHINEd_sun_aehawpgmrlhlvcow.tif,81,0.0666666666666667,0.0666666666666667,1.33333333333333,851.410782708,852.116792666,13,851.477679416,851.543477541,852.132088041,853.458812541,0,0.706009957999981
139,35,2,categorization,0,kitchen,SHINEd_sun_avszsnwsbuqfgzbn.tif,105,0.0666666666666667,0.0666666666666667,0.833333333333333,853.4778675,854.30261175,9,853.54472075,853.610202291,854.3154555,855.142178,1,0.824744249999981
139,36,2,categorization,0,bathroom,SHINEd_sun_azqyogdvyhahyram.tif,60,0.0666666666666667,0.0666666666666667,1.45,855.157196041,855.852744458,13,855.224165958,855.289661291,855.858396,857.301783041,1,0.695548416999941
139,37,2,categorization,0,kitchen,SHINEd_sun_ahspylgoovwmwvgk.tif,93,0.0666666666666667,0.0666666666666667,0.933333333333333,857.319544375,857.89531525,13,857.386331333,857.452482291,857.908053458,858.834748791,0,0.575770874999989
139,38,2,categorization,0,kitchen,SHINEd_sun_azmutvzbxypaceni.tif,110,0.0666666666666667,0.0666666666666667,1.65,858.845450583,859.716640625,13,858.908289958,858.968292458,859.720260208,861.363642458,0,0.871190041999967
139,39,2,categorization,0,bathroom,SHINEd_sun_apkxzenqapsujocq.tif,45,0.0666666666666667,0.0666666666666667,1.23333333333333,861.381669,862.182188541,13,861.448502,861.514971666,862.204459833,863.431176416,1,0.800519540999971
139,40,2,categorization,0,bathroom,SHINEd_sun_aavhrsfjbserjtht.tif,13,0.0666666666666667,0.0666666666666667,0.766666666666667,863.451274416,864.475838833,9,863.518112291,863.584434083,864.490931666,865.250991291,0,1.02456441699997
139,41,2,categorization,0,bathroom,SHINEd_sun_apynckhmoftszqoq.tif,47,0.0666666666666667,0.0666666666666667,1.78333333333333,865.268268666,865.972755833,9,865.331394708,865.391141083,865.976811,867.753523708,0,0.704487166999911
139,42,2,categorization,0,kitchen,SHINEd_sun_ajkqhtgcbgpcwrwn.tif,97,0.0666666666666667,0.0666666666666667,1.11666666666667,867.770977041,868.5590715,9,867.837812125,867.90374825,868.576717166,869.6867645,1,0.788094458999922
139,43,2,categorization,0,bathroom,SHINEd_sun_ahijqszoswveeyji.tif,28,0.0666666666666667,0.0666666666666667,1.85,869.696358291,870.367013583,9,869.760976333,869.828603208,870.385073083,872.228445208,0,0.670655291999992
139,44,2,categorization,0,bathroom,SHINEd_sun_abapwbhyhkfixyex.tif,14,0.0666666666666667,0.0666666666666667,0.733333333333333,872.24545025,872.827961458,13,872.312311666,872.377846291,872.849208,873.575927083,1,0.582511208000028
139,45,2,categorization,0,kitchen,SHINEd_sun_abrcnpqqhmjwekyf.tif,73,0.0666666666666667,0.0666666666666667,0.783333333333333,873.592876,874.116026708,9,873.659823625,873.725556291,874.128012166,874.904683708,1,0.523150708000003
139,46,2,categorization,0,kitchen,SHINEd_sun_akcjzhbbjlbogpdi.tif,99,0.0666666666666667,0.0666666666666667,1.5,874.909690833,875.46804625,9,874.971288083,875.032451125,875.484283875,876.977660541,1,0.55835541700003
139,47,2,categorization,0,bathroom,SHINEd_sun_akiytfaagpdsphgz.tif,31,0.0666666666666667,0.0666666666666667,0.733333333333333,876.9885085,877.512006875,9,877.055125666,877.120877583,877.526835125,878.253548625,0,0.523498375000031
139,48,2,categorization,0,kitchen,SHINEd_sun_aamedkxepzlwuxes.tif,65,0.0666666666666667,0.0666666666666667,1.1,878.26899575,878.860194875,9,878.335552958,878.401608416,878.869906208,879.96328075,1,0.591199125000003
139,49,2,categorization,0,bathroom,SHINEd_sun_asfwthctfqerjvxr.tif,49,0.0666666666666667,0.0666666666666667,1.6,879.972377833,880.58811625,13,880.037503875,880.104937375,880.6112545,882.204630125,1,0.615738416999989
139,50,2,categorization,0,bathroom,SHINEd_sun_axyrejkiiaqiurjk.tif,59,0.0666666666666667,0.0666666666666667,1.06666666666667,882.221982875,882.860241333,13,882.288805041,882.354892875,882.876368791,883.936424458,1,0.638258457999996
139,1,3,categorization,0,kitchen,SHINEd_sun_abrcnpqqhmjwekyf.tif,73,0.0666666666666667,0.0666666666666667,0.85,894.119577041,894.955617541,9,894.182314,894.242308458,894.960614041,895.80395075,1,0.836040500000081
139,2,3,categorization,0,bathroom,SHINEd_sun_apmqjbnwghzuhhzh.tif,46,0.0666666666666667,0.0666666666666667,1.65,895.80875625,896.228507125,9,895.870429708,895.931476166,896.233284458,897.876667625,0,0.419750874999977
139,3,3,categorization,0,kitchen,SHINEd_sun_ajkqhtgcbgpcwrwn.tif,97,0.0666666666666667,0.0666666666666667,0.783333333333333,897.893388791,898.502562625,13,897.959967416,898.025937583,898.532632041,899.309305625,0,0.609173833999989
139,4,3,categorization,0,bathroom,SHINEd_sun_abjtwfukuwddzted.tif,15,0.0666666666666667,0.0666666666666667,0.933333333333333,899.316411833,899.7719845,9,899.378150291,899.439192666,899.7911315,900.717801916,0,0.455572667000069
139,5,3,categorization,0,bathroom,SHINEd_sun_aavhrsfjbserjtht.tif,13,0.0666666666666667,0.0666666666666667,0.866666666666667,900.7225265,901.195747041,9,900.784244625,900.845256458,901.213713125,902.073716333,0,0.473220541000046
139,6,3,categorization,0,bathroom,SHINEd_sun_awnqiikzaispgmwo.tif,56,0.0666666666666667,0.0666666666666667,1.11666666666667,902.078406583,902.5000695,13,902.140112,902.20102075,902.519462375,903.629513416,1,0.421662917000049
139,7,3,categorization,0,kitchen,SHINEd_sun_ahdycvpopffkzzsu.tif,90,0.0666666666666667,0.0666666666666667,0.966666666666667,903.638729958,904.046276333,13,903.703471791,903.7712915,904.060396333,905.020455041,0,0.407546375000038
139,8,3,categorization,0,kitchen,SHINEd_sun_aexklacwqwezaorf.tif,84,0.0666666666666667,0.0666666666666667,1.78333333333333,905.036621291,905.443670583,9,905.103556708,905.169139583,905.45829025,907.23500425,1,0.407049292000011
139,9,3,categorization,0,kitchen,SHINEd_sun_aadbddgrdsjugojn.tif,64,0.0666666666666667,0.0666666666666667,1.55,907.25346525,907.636320416,9,907.320422208,907.386055583,907.659307416,909.202684625,1,0.382855166000013
139,10,3,categorization,0,kitchen,SHINEd_sun_amjjdeyrggfqgmom.tif,100,0.0666666666666667,0.0666666666666667,1.41666666666667,909.220285916,909.528421041,13,909.287306708,909.353184958,909.542583458,910.952630208,0,0.308135125000035
139,11,3,categorization,0,bathroom,SHINEd_sun_aoybiabnpadelefl.tif,41,0.0666666666666667,0.0666666666666667,0.8,910.964189916,911.473468541,9,911.03081975,911.096733833,911.503107375,912.296489166,0,0.509278624999979
139,12,3,categorization,0,kitchen,SHINEd_sun_abdenxonkemggwsq.tif,69,0.0666666666666667,0.0666666666666667,1.28333333333333,912.310053291,912.924531791,9,912.377214625,912.44222375,912.944199666,914.220927,1,0.614478500000018
139,13,3,categorization,0,kitchen,SHINEd_sun_auticobqsbwgoppi.tif,104,0.0666666666666667,0.0666666666666667,1.66666666666667,914.2379755,914.982985333,13,914.304898041,914.370703208,915.009586708,916.66962725,0,0.74500983300004
139,14,3,categorization,0,bathroom,SHINEd_sun_aqrpegblszgcoujh.tif,48,0.0666666666666667,0.0666666666666667,1.81666666666667,916.686666916,917.412873541,9,916.753202625,916.8179225,917.441175458,919.251213083,0,0.726206624999918
139,15,3,categorization,0,bathroom,SHINEd_sun_aclfzgynxzxlbepz.tif,19,0.0666666666666667,0.0666666666666667,1.35,919.268526791,919.876609708,9,919.335303916,919.401026666,919.889518541,921.232887083,0,0.608082917000047
139,16,3,categorization,0,bathroom,SHINEd_sun_aljolscmmzydegqp.tif,33,0.0666666666666667,0.0666666666666667,0.916666666666667,921.2496465,921.713158916,13,921.31647975,921.382602041,921.739218625,922.649261,1,0.463512415999958
139,17,3,categorization,0,bathroom,SHINEd_sun_axxbkopsgyouuebh.tif,58,0.0666666666666667,0.0666666666666667,0.916666666666667,922.665133291,923.564225125,9,922.732235083,922.796588583,923.582304458,924.492310458,0,0.899091834000046
139,18,3,categorization,0,kitchen,SHINEd_sun_ahspylgoovwmwvgk.tif,93,0.0666666666666667,0.0666666666666667,1.31666666666667,924.4969905,925.108156333,9,924.558650458,924.619734916,925.12149175,926.4315395,1,0.611165832999973
139,19,3,categorization,0,kitchen,SHINEd_labelme_rykdqxenmhulbdn.tif,63,0.0666666666666667,0.0666666666666667,1.45,926.450962375,927.14033225,9,926.517853625,926.583502666,927.156659458,928.600038416,1,0.689369875000011
139,20,3,categorization,0,kitchen,SHINEd_sun_aehawpgmrlhlvcow.tif,81,0.0666666666666667,0.0666666666666667,0.95,928.6178985,929.607745916,9,928.684856125,928.750715458,929.623386541,930.566725208,1,0.989847415999975
139,21,3,categorization,0,kitchen,SHINEd_sun_agorklincwxrdtga.tif,87,0.0666666666666667,0.0666666666666667,1.38333333333333,930.571736458,931.468278958,9,930.633602166,930.694345541,931.47995475,932.8566415,1,0.89654250000001
139,22,3,categorization,0,bathroom,SHINEd_sun_abapwbhyhkfixyex.tif,14,0.0666666666666667,0.0666666666666667,1.16666666666667,932.867545333,933.494965375,9,932.931892333,932.998534375,933.520596875,934.680640041,0,0.62742004200004
139,23,3,categorization,0,bathroom,SHINEd_sun_ahaulkltgpkeeemi.tif,26,0.0666666666666667,0.0666666666666667,1.61666666666667,934.69080625,935.182878708,9,934.755985166,934.823226083,935.195086416,936.805118791,0,0.492072457999939
139,24,3,categorization,0,bathroom,SHINEd_sun_axyrejkiiaqiurjk.tif,59,0.0666666666666667,0.0666666666666667,1.38333333333333,936.815781875,937.241126333,9,936.880882666,936.94603125,937.249778125,938.626491458,0,0.425344458000041
139,25,3,categorization,0,kitchen,SHINEd_sun_azmutvzbxypaceni.tif,110,0.0666666666666667,0.0666666666666667,1.78333333333333,938.644011,939.155661916,13,938.710529083,938.775278875,939.160614875,940.937338,0,0.511650916000008
139,26,3,categorization,0,kitchen,SHINEd_sun_aapllqyqlykszopd.tif,66,0.0666666666666667,0.0666666666666667,0.783333333333333,940.949582208,941.912298458,9,941.016373666,941.082450833,941.938745125,942.715415166,1,0.962716249999971
139,27,3,categorization,0,bathroom,SHINEd_sun_ahcvzmoyaycdoftf.tif,27,0.0666666666666667,0.0666666666666667,1.65,942.720371416,943.524118166,13,942.782245708,942.843055291,943.528343583,945.171724833,1,0.803746749999959
139,28,3,categorization,0,bathroom,SHINEd_labelme_sfxiulhjbhlyiyt.tif,11,0.0666666666666667,0.0666666666666667,1.86666666666667,945.189887166,946.152249291,13,945.256741833,945.322434125,946.179270916,948.039316958,1,0.962362125000027
139,29,3,categorization,0,bathroom,SHINEd_sun_acegryoqftbzowsg.tif,17,0.0666666666666667,0.0666666666666667,1.23333333333333,948.05642025,949.040376125,13,948.123447791,948.189174791,949.062876041,950.289588208,1,0.983955874999992
139,30,3,categorization,0,bathroom,SHINEd_sun_atstyziqcmkahyxk.tif,51,0.0666666666666667,0.0666666666666667,0.7,950.303532666,951.071528583,9,950.371296125,950.436041916,951.092811,951.786185541,0,0.767995917000007
139,31,3,categorization,0,kitchen,SHINEd_sun_akcjzhbbjlbogpdi.tif,99,0.0666666666666667,0.0666666666666667,0.716666666666667,951.802121625,952.964086375,13,951.868946791,951.934927291,952.970104375,953.680110166,0,1.16196474999992
139,32,3,categorization,0,kitchen,SHINEd_sun_acxkpeoqbwcxfvip.tif,77,0.0666666666666667,0.0666666666666667,1.05,953.684734291,954.659727041,9,953.746423041,953.80728325,954.676042,955.719413166,1,0.974992749999956
139,33,3,categorization,0,bathroom,SHINEd_sun_ahijqszoswveeyji.tif,28,0.0666666666666667,0.0666666666666667,1.1,955.729353208,956.444346208,9,955.793751916,955.858115333,956.464181583,957.557567541,0,0.714992999999936
139,34,3,categorization,0,bathroom,SHINEd_sun_agrwbmhcpmfuwmsg.tif,24,0.0666666666666667,0.0666666666666667,1.13333333333333,957.57403475,958.23618975,9,957.640927208,957.706485333,958.242192166,959.368893041,0,0.662154999999984
139,35,3,categorization,0,kitchen,SHINEd_sun_aamedkxepzlwuxes.tif,65,0.0666666666666667,0.0666666666666667,1.38333333333333,959.378201333,960.030781458,9,959.443146583,959.510945958,960.050399041,961.427118375,1,0.652580124999986
139,36,3,categorization,0,bathroom,SHINEd_sun_aunuadmjocsddsrl.tif,52,0.0666666666666667,0.0666666666666667,1.5,961.445817291,962.318527125,13,961.512130791,961.5781045,962.333940208,963.827329125,1,0.87270983399992
139,37,3,categorization,0,kitchen,SHINEd_sun_auaiucuqpdausiva.tif,102,0.0666666666666667,0.0666666666666667,1.61666666666667,963.845403291,964.53579625,13,963.912158375,963.977938583,964.550242875,966.160294666,0,0.690392958999951
139,38,3,categorization,0,kitchen,SHINEd_sun_ahywdevtimnqcsln.tif,94,0.0666666666666667,0.0666666666666667,0.983333333333333,966.178621583,966.877272458,9,966.245772416,966.311172166,966.900297458,967.876967541,1,0.698650874999998
139,39,3,categorization,0,kitchen,SHINEd_sun_akchetnepxlcxhsu.tif,98,0.0666666666666667,0.0666666666666667,1.3,967.882295666,968.651977583,13,967.944156541,968.005086458,968.657213,969.950583291,0,0.769681916999957
139,40,3,categorization,0,kitchen,SHINEd_sun_ahljzhgcdpomplvg.tif,91,0.0666666666666667,0.0666666666666667,1.03333333333333,969.967743291,970.781400458,13,970.034855375,970.100510041,970.806522666,971.833245458,0,0.813657166999974
139,41,3,categorization,0,bathroom,SHINEd_sun_asfwthctfqerjvxr.tif,49,0.0666666666666667,0.0666666666666667,1.45,971.843355208,972.487493833,13,971.90881525,971.975877166,972.516122958,973.959514,1,0.644138624999982
139,42,3,categorization,0,kitchen,SHINEd_sun_aegoxogugdkwpmpj.tif,80,0.0666666666666667,0.0666666666666667,1.23333333333333,973.972039791,974.78150775,13,974.039173583,974.104846875,974.7932115,976.019929541,0,0.809467958999903
139,43,3,categorization,0,bathroom,SHINEd_sun_aspsyogrekjtfozg.tif,50,0.0666666666666667,0.0666666666666667,1.26666666666667,976.033999208,976.572077041,9,976.095938666,976.156726458,976.57500175,977.835045583,0,0.538077832999988
139,44,3,categorization,0,bathroom,SHINEd_sun_ajlawzvmubibwbpy.tif,30,0.0666666666666667,0.0666666666666667,1.03333333333333,977.850077208,978.35113475,9,977.916962541,977.982650583,978.3713885,979.398102458,0,0.501057542000012
139,45,3,categorization,0,kitchen,SHINEd_sun_acgtpgfybqjmzeyw.tif,75,0.0666666666666667,0.0666666666666667,1.31666666666667,979.415090583,979.947688125,9,979.482173,979.548125583,979.966867166,981.276904625,1,0.532597541999962
139,46,3,categorization,0,kitchen,SHINEd_sun_ahpczsiumwwocjkv.tif,92,0.0666666666666667,0.0666666666666667,1.7,981.295391708,981.766184666,13,981.361714958,981.427685041,981.783957291,983.4773355,0,0.470792957999947
139,47,3,categorization,0,bathroom,SHINEd_sun_alkosphxlxwjwgjd.tif,34,0.0666666666666667,0.0666666666666667,1.35,983.495629,983.784124791,13,983.562328708,983.628317708,983.80134925,985.144737833,1,0.288495790999946
139,48,3,categorization,0,bathroom,SHINEd_sun_ahqjwnzgolcaoidx.tif,29,0.0666666666666667,0.0666666666666667,0.8,985.162621791,985.515344041,13,985.225466125,985.285403333,985.520570083,986.313908083,1,0.352722250000056
139,49,3,categorization,0,bathroom,SHINEd_sun_aggnnqpdorgxpvce.tif,21,0.0666666666666667,0.0666666666666667,0.766666666666667,986.318428666,986.923987041,13,986.380133125,986.441061583,986.942918041,987.702921625,1,0.605558374999987
139,50,3,categorization,0,kitchen,SHINEd_sun_aunzlwrbjumxhwdj.tif,103,0.0666666666666667,0.0666666666666667,1.38333333333333,987.707639958,988.091241791,9,987.769387416,987.830290791,988.098621791,989.475340958,1,0.383601833000057
139,1,4,categorization,0,bathroom,SHINEd_sun_afcoljnjfoxjtgja.tif,20,0.0666666666666667,0.0666666666666667,1,1032.01750175,1032.907707208,13,1032.079752875,1032.140183791,1032.925300416,1033.918639375,1,0.890205457999855
139,2,4,categorization,0,bathroom,SHINEd_sun_acgyywnybuveqsro.tif,18,0.0666666666666667,0.0666666666666667,0.966666666666667,1033.923411458,1034.54711125,13,1033.985048291,1034.046130875,1034.564518333,1035.524522916,1,0.623699792000025
139,3,4,categorization,0,kitchen,SHINEd_sun_abdxkyyxwfskuaqb.tif,70,0.0666666666666667,0.0666666666666667,1.75,1035.529354791,1036.426948708,9,1035.591203041,1035.652228375,1036.437367375,1038.180732083,1,0.897593916999995
139,4,4,categorization,0,kitchen,SHINEd_sun_aypmqwcualkenuoe.tif,109,0.0666666666666667,0.0666666666666667,1.68333333333333,1038.20020775,1038.96664525,9,1038.266989083,1038.332907791,1038.988295458,1040.664997083,1,0.766437500000166
139,5,4,categorization,0,kitchen,SHINEd_sun_acfmftudsenhrfhy.tif,74,0.0666666666666667,0.0666666666666667,1.58333333333333,1040.683700375,1041.278669541,9,1040.750797416,1040.81209625,1041.302333375,1042.87905525,1,0.594969166000055
139,6,4,categorization,0,kitchen,SHINEd_sun_aarfiyshqohlwkmo.tif,67,0.0666666666666667,0.0666666666666667,1,1042.889570833,1043.504368875,9,1042.954459541,1043.021903625,1043.528126833,1044.521466625,1,0.614798041999848
139,7,4,categorization,0,bathroom,SHINEd_sun_aofnryafpsjimzsb.tif,40,0.0666666666666667,0.0666666666666667,1.33333333333333,1044.527196208,1045.187286083,9,1044.588807333,1044.6499355,1045.201813833,1046.52853,0,0.660089874999812
139,8,4,categorization,0,bathroom,SHINEd_sun_ambriybtogmepttm.tif,36,0.0666666666666667,0.0666666666666667,1.26666666666667,1046.546822,1047.221228041,9,1046.6133385,1046.679168416,1047.234626958,1048.49466,0,0.674406040999884
139,9,4,categorization,0,bathroom,SHINEd_sun_agyqfjcfkdcydepw.tif,25,0.0666666666666667,0.0666666666666667,0.883333333333333,1048.512598041,1048.973286291,9,1048.579389333,1048.645212833,1049.001720708,1049.878430833,0,0.460688249999976
139,10,4,categorization,0,kitchen,SHINEd_sun_aaxxjlsuzvqlgylf.tif,68,0.0666666666666667,0.0666666666666667,1.26666666666667,1049.894375708,1050.378972666,9,1049.960690208,1050.026880041,1050.396165041,1051.656213708,1,0.484596957999884
139,11,4,categorization,0,bathroom,SHINEd_sun_aleqenyvunhactkl.tif,32,0.0666666666666667,0.0666666666666667,2,1051.674908916,1052.18356425,9,1051.742282458,1051.808011958,1052.197759083,1054.191129166,0,0.508655333999968
139,12,4,categorization,0,bathroom,SHINEd_sun_apkxzenqapsujocq.tif,45,0.0666666666666667,0.0666666666666667,0.733333333333333,1054.208758958,1055.007161791,13,1054.275947291,1054.341136375,1055.031877708,1055.758548875,1,0.798402832999955
139,13,4,categorization,0,kitchen,SHINEd_sun_aeqdocilnnpuvuhx.tif,83,0.0666666666666667,0.0666666666666667,0.883333333333333,1055.765491708,1056.619356,9,1055.827456,1055.888118458,1056.62334925,1057.500021541,1,0.853864292000026
139,14,4,categorization,0,bathroom,SHINEd_sun_apkruvsevgegsdwp.tif,44,0.0666666666666667,0.0666666666666667,0.983333333333333,1057.505110875,1058.0914795,9,1057.567254541,1057.627739166,1058.096730791,1059.073400541,0,0.586368625000205
139,15,4,categorization,0,bathroom,SHINEd_sun_apynckhmoftszqoq.tif,47,0.0666666666666667,0.0666666666666667,1.56666666666667,1059.078135083,1059.651269166,9,1059.139904333,1059.200840416,1059.669364291,1061.229418375,0,0.573134083000014
139,16,4,categorization,0,kitchen,SHINEd_sun_aenotlpyftoioydp.tif,82,0.0666666666666667,0.0666666666666667,1.08333333333333,1061.251510416,1061.974415208,9,1061.318643083,1061.384240875,1061.989012791,1063.065727583,1,0.722904792000008
139,17,4,categorization,0,kitchen,SHINEd_sun_awcpdzzznmweyyhv.tif,106,0.0666666666666667,0.0666666666666667,0.75,1063.078172583,1063.701841916,9,1063.143109541,1063.207981166,1063.731096958,1064.474484125,1,0.623669332999953
139,18,4,categorization,0,kitchen,SHINEd_sun_aqeaevwwwjoqhzvl.tif,101,0.0666666666666667,0.0666666666666667,0.966666666666667,1064.491407541,1065.323637041,13,1064.558200875,1064.623841916,1065.343083583,1066.303087666,0,0.832229500000039
139,19,4,categorization,0,bathroom,SHINEd_sun_aapitsgbtktqubfy.tif,12,0.0666666666666667,0.0666666666666667,1.63333333333333,1066.30788025,1067.051490916,9,1066.3699495,1066.430594291,1067.065739666,1068.692445875,0,0.743610665999995
139,20,4,categorization,0,bathroom,SHINEd_sun_akiytfaagpdsphgz.tif,31,0.0666666666666667,0.0666666666666667,1.46666666666667,1068.709495291,1069.166764,9,1068.774676083,1068.838699958,1069.195908541,1070.655940375,0,0.457268709000118
139,21,4,categorization,0,bathroom,SHINEd_sun_aghyqhbptboemmoq.tif,23,0.0666666666666667,0.0666666666666667,0.933333333333333,1070.674561625,1071.05047675,9,1070.741773291,1070.804584166,1071.078346791,1072.005049541,0,0.375915124999892
139,22,4,categorization,0,bathroom,SHINEd_sun_anryaplzeujmzfkd.tif,39,0.0666666666666667,0.0666666666666667,1.45,1072.021621125,1072.875360083,13,1072.088242041,1072.154126166,1072.889409166,1074.332783083,1,0.853738958000122
139,23,4,categorization,0,kitchen,SHINEd_sun_acwjdupvyjsugpay.tif,76,0.0666666666666667,0.0666666666666667,0.966666666666667,1074.350700291,1075.2309445,9,1074.416895208,1074.48300975,1075.256536875,1076.216542333,1,0.880244209000011
139,24,4,categorization,0,bathroom,SHINEd_sun_acduarbnmmoglmiv.tif,16,0.0666666666666667,0.0666666666666667,0.816666666666667,1076.221470833,1076.786814416,9,1076.28327175,1076.344215666,1076.7960385,1077.606042583,0,0.565343582999958
139,25,4,categorization,0,bathroom,SHINEd_sun_axldvoqbuvuggfmq.tif,57,0.0666666666666667,0.0666666666666667,1.96666666666667,1077.610923833,1078.363608291,13,1077.672706041,1077.733765916,1078.368868833,1080.328921166,1,0.752684457999976
139,26,4,categorization,0,bathroom,SHINEd_sun_auzqhkafidnkrwmo.tif,54,0.0666666666666667,0.0666666666666667,0.916666666666667,1080.348166833,1081.350172083,9,1080.415410666,1080.4807835,1081.371056791,1082.281063333,0,1.00200524999991
139,27,4,categorization,0,bathroom,SHINEd_sun_anhioqovhscjqqwb.tif,38,0.0666666666666667,0.0666666666666667,1.28333333333333,1082.286745833,1082.915588166,9,1082.348521583,1082.4093985,1082.927756208,1084.204462208,0,0.628842332999966
139,28,4,categorization,0,kitchen,SHINEd_sun_abpwyqmlzafvklqo.tif,72,0.0666666666666667,0.0666666666666667,1.8,1084.222208958,1084.8960605,9,1084.288489458,1084.354687458,1084.910187708,1086.703566416,1,0.673851541999966
139,29,4,categorization,0,kitchen,SHINEd_sun_aggjlwcdjsjcaemh.tif,86,0.0666666666666667,0.0666666666666667,1.33333333333333,1086.72252525,1087.087980958,9,1086.786894625,1086.850745541,1087.107485125,1088.434192541,1,0.365455707999899
139,30,4,categorization,0,kitchen,SHINEd_labelme_kxvouciolcpqplr.tif,62,0.0666666666666667,0.0666666666666667,1.06666666666667,1088.450045541,1089.213773166,13,1088.515614708,1088.580036666,1089.236854791,1090.296902416,0,0.763727625000001
139,31,4,categorization,0,bathroom,SHINEd_sun_alotolagknyrgtsk.tif,35,0.0666666666666667,0.0666666666666667,1.03333333333333,1090.314212958,1091.267271583,9,1090.37693325,1090.437017125,1091.272268625,1092.298984,0,0.953058624999812
139,32,4,categorization,0,kitchen,SHINEd_sun_agzzivivdpnawacl.tif,89,0.0666666666666667,0.0666666666666667,0.733333333333333,1092.310930666,1093.331393583,9,1092.375850333,1092.441863708,1093.347690708,1094.074390333,1,1.0204629169998
139,33,4,categorization,0,bathroom,SHINEd_sun_agguqiubmwhqqunb.tif,22,0.0666666666666667,0.0666666666666667,0.766666666666667,1094.090462458,1094.851693166,9,1094.158250291,1094.222798458,1094.857975291,1095.617979291,0,0.761230707999857
139,34,4,categorization,0,bathroom,SHINEd_sun_azqyogdvyhahyram.tif,60,0.0666666666666667,0.0666666666666667,1.1,1095.623103416,1096.33890775,9,1095.684742875,1095.745969041,1096.347827625,1097.44119775,0,0.71580433400004
139,35,4,categorization,0,kitchen,SHINEd_sun_afuyedyxivkhecmu.tif,85,0.0666666666666667,0.0666666666666667,1.81666666666667,1097.449746208,1098.076001208,9,1097.514989208,1097.582513375,1098.106236916,1099.916272958,1,0.626254999999901
139,36,4,categorization,0,kitchen,SHINEd_sun_abftihopvusyfakt.tif,71,0.0666666666666667,0.0666666666666667,0.883333333333333,1099.933774875,1100.560973583,9,1100.000564166,1100.066245875,1100.589626541,1101.466338083,1,0.627198708000151
139,37,4,categorization,0,bathroom,SHINEd_sun_ausgutylgojavyoq.tif,53,0.0666666666666667,0.0666666666666667,1.7,1101.483214375,1101.979266875,9,1101.54597425,1101.606069041,1101.991249583,1103.684630625,0,0.496052499999905
139,38,4,categorization,0,kitchen,SHINEd_sun_admlmbcdswaszruo.tif,79,0.0666666666666667,0.0666666666666667,1.58333333333333,1103.702555625,1104.253820541,13,1103.769426625,1103.835116208,1104.274852125,1105.851561083,0,0.551264916000036
139,39,4,categorization,0,kitchen,SHINEd_sun_axyyrmzcupyhlivc.tif,107,0.0666666666666667,0.0666666666666667,0.833333333333333,1105.868729541,1106.371800625,13,1105.935482291,1106.001169166,1106.3906915,1107.217407875,0,0.503071084000112
139,40,4,categorization,0,kitchen,SHINEd_sun_aixorpehvfykdynp.tif,95,0.0666666666666667,0.0666666666666667,0.95,1107.233338,1107.882977458,9,1107.300047,1107.357674791,1107.892804958,1108.836141958,1,0.649639457999911
139,41,4,categorization,0,bathroom,SHINEd_sun_amzlamotzwfkwjco.tif,37,0.0666666666666667,0.0666666666666667,1.06666666666667,1108.840978166,1109.274793083,9,1108.902726416,1108.963670625,1109.282202625,1110.342250208,0,0.433814917000063
139,42,4,categorization,0,bathroom,SHINEd_sun_apjevzvycyhuqghb.tif,43,0.0666666666666667,0.0666666666666667,1.68333333333333,1110.352190625,1110.862282666,9,1110.417141583,1110.481455,1110.8866585,1112.56337175,0,0.510092041000007
139,43,4,categorization,0,kitchen,SHINEd_sun_agubuxuukhzyzpdp.tif,88,0.0666666666666667,0.0666666666666667,1.31666666666667,1112.583884791,1113.22330425,9,1112.6505295,1112.716525291,1113.239126166,1114.549170916,1,0.63941945900001
139,44,4,categorization,0,kitchen,SHINEd_sun_ajcbwwvdlsvjyzje.tif,96,0.0666666666666667,0.0666666666666667,1.61666666666667,1114.560478125,1115.119680666,9,1114.626854875,1114.692794958,1115.149236458,1116.759275125,1,0.559202541000104
139,45,4,categorization,0,kitchen,SHINEd_sun_aymvwlarqodbwuoc.tif,108,0.0666666666666667,0.0666666666666667,1.15,1116.769627625,1117.197246041,9,1116.834059041,1116.901722791,1117.225443166,1118.36881525,1,0.427618415999859
139,46,4,categorization,0,kitchen,SHINEd_sun_avszsnwsbuqfgzbn.tif,105,0.0666666666666667,0.0666666666666667,1.25,1118.383339041,1118.866836166,9,1118.4501985,1118.515595166,1118.884208625,1120.127572458,1,0.483497124999985
139,47,4,categorization,0,kitchen,SHINEd_sun_adgqasybjyktddhj.tif,78,0.0666666666666667,0.0666666666666667,1.1,1120.144759166,1120.562302083,9,1120.211092708,1120.276963916,1120.583221125,1121.676613166,1,0.417542916999992
139,48,4,categorization,0,bathroom,SHINEd_sun_apeeialkgkuxddgh.tif,42,0.0666666666666667,0.0666666666666667,0.9,1121.693339291,1122.10697275,9,1121.758266,1121.825725208,1122.111010916,1123.004348291,0,0.413633459000039
139,49,4,categorization,0,kitchen,SHINEd_labelme_brsyyvweiuaazfr.tif,61,0.0666666666666667,0.0666666666666667,1.3,1123.00905775,1123.387450875,9,1123.07068425,1123.131780291,1123.400190833,1124.693566625,1,0.378393125000002
139,50,4,categorization,0,bathroom,SHINEd_sun_avhrdrntsqrjzccq.tif,55,0.0666666666666667,0.0666666666666667,1.25,1124.710855083,1124.891177791,9,1124.775470833,1124.838699791,1124.909954375,1126.153334208,0,0.180322707999949
139,1,5,categorization,0,kitchen,SHINEd_sun_aypmqwcualkenuoe.tif,109,0.0666666666666667,0.0666666666666667,1.7,1181.656973166,1183.354665291,9,1181.719391666,1181.77984325,1183.365369583,1185.058741,1,1.697692125
139,2,5,categorization,0,kitchen,SHINEd_sun_agorklincwxrdtga.tif,87,0.0666666666666667,0.0666666666666667,1.81666666666667,1185.075724208,1186.186840916,9,1185.142512875,1185.208335041,1186.214947875,1188.024982083,1,1.11111670799983
139,3,5,categorization,0,kitchen,SHINEd_sun_aenotlpyftoioydp.tif,82,0.0666666666666667,0.0666666666666667,1.23333333333333,1188.038523708,1189.142516416,9,1188.105360041,1188.171146958,1189.161108541,1190.387824291,1,1.10399270800008
139,4,5,categorization,0,bathroom,SHINEd_sun_acduarbnmmoglmiv.tif,16,0.0666666666666667,0.0666666666666667,1.4,1190.404248916,1191.448393416,9,1190.470979458,1190.536892458,1191.477434,1192.870793041,0,1.04414450000013
139,5,5,categorization,0,bathroom,SHINEd_sun_acegryoqftbzowsg.tif,17,0.0666666666666667,0.0666666666666667,1.03333333333333,1192.880882041,1193.966756541,9,1192.945624666,1193.013964875,1193.987286041,1195.01398475,0,1.08587450000005
139,6,5,categorization,0,bathroom,SHINEd_sun_aspsyogrekjtfozg.tif,50,0.0666666666666667,0.0666666666666667,1.38333333333333,1195.02571975,1196.464340125,9,1195.090267583,1195.156374666,1196.482406583,1197.859134791,0,1.43862037500003
139,7,5,categorization,0,bathroom,SHINEd_sun_ajlawzvmubibwbpy.tif,30,0.0666666666666667,0.0666666666666667,2,1197.876751416,1198.750128583,9,1197.943999625,1198.009388375,1198.765544875,1200.758925166,0,0.873377167000172
139,8,5,categorization,0,kitchen,SHINEd_sun_akchetnepxlcxhsu.tif,98,0.0666666666666667,0.0666666666666667,1.85,1200.774603291,1201.767734416,13,1200.839557708,1200.907406833,1201.797774666,1203.641147291,0,0.993131124999991
139,9,5,categorization,0,bathroom,SHINEd_sun_apkruvsevgegsdwp.tif,44,0.0666666666666667,0.0666666666666667,0.816666666666667,1203.657293541,1204.962592208,13,1203.723651291,1203.790216083,1204.975642833,1205.785648666,1,1.30529866699999
139,10,5,categorization,0,kitchen,SHINEd_sun_azmutvzbxypaceni.tif,110,0.0666666666666667,0.0666666666666667,1.85,1205.790193458,1206.946910791,9,1205.8519685,1205.912838125,1206.96478875,1208.808145416,1,1.15671733299996
139,11,5,categorization,0,bathroom,SHINEd_sun_aljolscmmzydegqp.tif,33,0.0666666666666667,0.0666666666666667,0.733333333333333,1208.818173083,1209.935107666,9,1208.883784333,1208.950214708,1209.9569095,1210.68358025,0,1.1169345830001
139,12,5,categorization,0,bathroom,SHINEd_sun_agguqiubmwhqqunb.tif,22,0.0666666666666667,0.0666666666666667,0.716666666666667,1210.688198833,1212.690433708,13,1210.749935291,1210.810944041,1212.696371416,1213.4063765,1,2.00223487500011
139,13,5,categorization,0,bathroom,SHINEd_sun_apynckhmoftszqoq.tif,47,0.0666666666666667,0.0666666666666667,0.833333333333333,1213.411342541,1214.603097333,13,1213.473166625,1213.534036791,1214.619858208,1215.446529458,1,1.19175479199998
139,14,5,categorization,0,kitchen,SHINEd_sun_amjjdeyrggfqgmom.tif,100,0.0666666666666667,0.0666666666666667,0.95,1215.451011583,1217.298153125,9,1215.512864291,1215.573643166,1217.309053208,1218.252391708,1,1.84714154199992
139,15,5,categorization,0,kitchen,SHINEd_sun_aamedkxepzlwuxes.tif,65,0.0666666666666667,0.0666666666666667,1.96666666666667,1218.257223708,1219.522182,9,1218.319047958,1218.379871333,1219.532055291,1221.492103208,1,1.26495829199985
139,16,5,categorization,0,bathroom,SHINEd_sun_ausgutylgojavyoq.tif,53,0.0666666666666667,0.0666666666666667,1.86666666666667,1221.509714625,1222.3793675,13,1221.57637425,1221.642300708,1222.398557791,1224.258605916,1,0.869652874999929
139,17,5,categorization,0,kitchen,SHINEd_sun_adgqasybjyktddhj.tif,78,0.0666666666666667,0.0666666666666667,1.51666666666667,1224.276718041,1225.023652208,13,1224.343333458,1224.40934425,1225.049510958,1226.559547541,0,0.746934166999836
139,18,5,categorization,0,bathroom,SHINEd_sun_afcoljnjfoxjtgja.tif,20,0.0666666666666667,0.0666666666666667,1.3,1226.577071875,1227.755092583,9,1226.643956291,1226.709432875,1227.783265375,1229.076645208,0,1.17802070800008
139,19,5,categorization,0,bathroom,SHINEd_sun_aghyqhbptboemmoq.tif,23,0.0666666666666667,0.0666666666666667,1.91666666666667,1229.094668791,1230.2227235,13,1229.1612935,1229.227662583,1230.25146325,1232.1615115,1,1.12805470900003
139,20,5,categorization,0,bathroom,SHINEd_sun_ahijqszoswveeyji.tif,28,0.0666666666666667,0.0666666666666667,1.23333333333333,1232.178201333,1233.994396375,9,1232.245089208,1232.31052425,1234.012907916,1235.239623583,0,1.81619504199989
139,21,5,categorization,0,kitchen,SHINEd_sun_agzzivivdpnawacl.tif,89,0.0666666666666667,0.0666666666666667,0.866666666666667,1235.25691475,1236.727921458,9,1235.325312375,1235.389984166,1236.749089458,1237.609095333,1,1.471006708
139,22,5,categorization,0,kitchen,SHINEd_sun_abrcnpqqhmjwekyf.tif,73,0.0666666666666667,0.0666666666666667,0.8,1237.614351291,1238.609964625,13,1237.676080375,1237.737485208,1238.622672458,1239.416009416,0,0.995613333999927
139,23,5,categorization,0,kitchen,SHINEd_sun_agubuxuukhzyzpdp.tif,88,0.0666666666666667,0.0666666666666667,1.51666666666667,1239.420825083,1240.82703425,9,1239.482468291,1239.543521875,1240.845842625,1242.355882708,1,1.40620916700004
139,24,5,categorization,0,kitchen,SHINEd_sun_abpwyqmlzafvklqo.tif,72,0.0666666666666667,0.0666666666666667,1.18333333333333,1242.374519333,1243.291162208,9,1242.441373333,1242.507391666,1243.314386333,1244.491091375,1,0.91664287499998
139,25,5,categorization,0,kitchen,SHINEd_labelme_brsyyvweiuaazfr.tif,61,0.0666666666666667,0.0666666666666667,1.6,1244.502436208,1245.260170458,13,1244.568935458,1244.635125625,1245.274532583,1246.867906041,0,0.757734249999885
139,26,5,categorization,0,bathroom,SHINEd_sun_aggnnqpdorgxpvce.tif,21,0.0666666666666667,0.0666666666666667,1.56666666666667,1246.879542666,1247.514218833,13,1246.944709875,1247.011885833,1247.53509975,1249.095147708,1,0.63467616700018
139,27,5,categorization,0,bathroom,SHINEd_sun_axldvoqbuvuggfmq.tif,57,0.0666666666666667,0.0666666666666667,1.36666666666667,1249.113320416,1250.130712291,13,1249.180679541,1249.246498958,1250.152330041,1251.512368583,1,1.01739187499993
139,28,5,categorization,0,kitchen,SHINEd_sun_axyyrmzcupyhlivc.tif,107,0.0666666666666667,0.0666666666666667,1.53333333333333,1251.529556166,1252.202759833,13,1251.595988083,1251.662525166,1252.218695666,1253.745409458,0,0.673203667000053
139,29,5,categorization,0,bathroom,SHINEd_sun_agrwbmhcpmfuwmsg.tif,24,0.0666666666666667,0.0666666666666667,1.4,1253.758735541,1254.20968075,13,1253.825655,1253.891315125,1254.23102775,1255.624410083,1,0.450945208999883
139,30,5,categorization,0,kitchen,SHINEd_sun_ahpczsiumwwocjkv.tif,92,0.0666666666666667,0.0666666666666667,1.06666666666667,1255.642538291,1256.127156375,13,1255.709609708,1255.775120708,1256.148687166,1257.20874675,0,0.484618083999976
139,31,5,categorization,0,kitchen,SHINEd_sun_aaxxjlsuzvqlgylf.tif,68,0.0666666666666667,0.0666666666666667,1.63333333333333,1257.225494666,1258.257927125,9,1257.29253575,1257.358043666,1258.277168208,1259.903888083,1,1.03243245899989
139,32,5,categorization,0,bathroom,SHINEd_sun_aofnryafpsjimzsb.tif,40,0.0666666666666667,0.0666666666666667,1.8,1259.922118291,1260.748392,9,1259.989113833,1260.054535541,1260.758993625,1262.552367916,0,0.826273708999906
139,33,5,categorization,0,kitchen,SHINEd_sun_ahdycvpopffkzzsu.tif,90,0.0666666666666667,0.0666666666666667,1.53333333333333,1262.569999166,1263.533645375,13,1262.636813666,1262.702794375,1263.559732875,1265.086452833,0,0.963646209000217
139,34,5,categorization,0,kitchen,SHINEd_sun_aehawpgmrlhlvcow.tif,81,0.0666666666666667,0.0666666666666667,0.766666666666667,1265.104018416,1265.782434375,13,1265.17097875,1265.236828833,1265.791647416,1266.55168625,0,0.678415959000176
139,35,5,categorization,0,bathroom,SHINEd_sun_abjtwfukuwddzted.tif,15,0.0666666666666667,0.0666666666666667,1.86666666666667,1266.568756958,1267.233959958,13,1266.635849166,1266.693095916,1267.245188541,1269.105226708,1,0.66520300000002
139,36,5,categorization,0,bathroom,SHINEd_sun_auzqhkafidnkrwmo.tif,54,0.0666666666666667,0.0666666666666667,1.13333333333333,1269.123199625,1269.938953916,9,1269.190093208,1269.256033166,1269.962868041,1271.089583875,0,0.815754290999848
139,37,5,categorization,0,bathroom,SHINEd_sun_abapwbhyhkfixyex.tif,14,0.0666666666666667,0.0666666666666667,1.73333333333333,1271.098289291,1271.900918041,9,1271.163630625,1271.230745208,1271.920941291,1273.647656333,0,0.802628750000167
139,38,5,categorization,0,kitchen,SHINEd_labelme_rykdqxenmhulbdn.tif,63,0.0666666666666667,0.0666666666666667,0.766666666666667,1273.665609958,1274.539335541,9,1273.73257475,1273.798163291,1274.554096333,1275.314100416,1,0.873725582999896
139,39,5,categorization,0,bathroom,SHINEd_sun_axxbkopsgyouuebh.tif,58,0.0666666666666667,0.0666666666666667,1.85,1275.319369541,1276.3628385,13,1275.381021583,1275.442188708,1276.377393041,1278.220784833,1,1.04346895899994
139,40,5,categorization,0,kitchen,SHINEd_sun_aymvwlarqodbwuoc.tif,108,0.0666666666666667,0.0666666666666667,0.966666666666667,1278.237954541,1279.463406041,9,1278.304941708,1278.370747625,1279.475482458,1280.435487583,1,1.22545150000019
139,41,5,categorization,0,bathroom,SHINEd_sun_aapitsgbtktqubfy.tif,12,0.0666666666666667,0.0666666666666667,1.06666666666667,1280.440050625,1283.250082208,9,1280.501859416,1280.562691875,1283.265115833,1284.325165083,0,2.81003158300018
139,42,5,categorization,0,bathroom,SHINEd_sun_awnqiikzaispgmwo.tif,56,0.0666666666666667,0.0666666666666667,1.38333333333333,1284.335388125,1285.65917425,13,1284.39985075,1284.466602333,1285.674823958,1287.051546916,1,1.32378612499997
139,43,5,categorization,0,bathroom,SHINEd_sun_anryaplzeujmzfkd.tif,39,0.0666666666666667,0.0666666666666667,0.766666666666667,1287.068768208,1288.037538583,13,1287.135550583,1287.201143291,1288.057598708,1288.817605291,1,0.968770375000076
139,44,5,categorization,0,kitchen,SHINEd_sun_aapllqyqlykszopd.tif,66,0.0666666666666667,0.0666666666666667,0.866666666666667,1288.823442958,1289.945805916,9,1288.885170458,1288.946148625,1289.965120125,1290.82512475,1,1.12236295799994
139,45,5,categorization,0,kitchen,SHINEd_sun_akcjzhbbjlbogpdi.tif,99,0.0666666666666667,0.0666666666666667,1.25,1290.830502791,1292.10678125,9,1290.892268833,1290.953080125,1292.12230675,1293.365693083,1,1.27627845899997
139,46,5,categorization,0,bathroom,SHINEd_sun_anhioqovhscjqqwb.tif,38,0.0666666666666667,0.0666666666666667,1.03333333333333,1293.38355225,1294.988658791,13,1293.450263958,1293.516651375,1295.008992125,1296.035703333,1,1.60510654099994
139,47,5,categorization,0,kitchen,SHINEd_sun_awcpdzzznmweyyhv.tif,106,0.0666666666666667,0.0666666666666667,0.783333333333333,1296.045175875,1297.407911458,9,1296.110218625,1296.176421083,1297.43574675,1298.212419041,1,1.3627355829999
139,48,5,categorization,0,kitchen,SHINEd_sun_aggjlwcdjsjcaemh.tif,86,0.0666666666666667,0.0666666666666667,0.7,1298.217124916,1299.722399,13,1298.278874916,1298.340420916,1299.7263775,1300.419715416,0,1.50527408399989
139,49,5,categorization,0,kitchen,SHINEd_sun_abftihopvusyfakt.tif,71,0.0666666666666667,0.0666666666666667,1.75,1300.424290208,1301.706063875,9,1300.486068083,1300.546879875,1301.71586075,1303.459240958,1,1.28177366699992
139,50,5,categorization,0,bathroom,SHINEd_sun_alotolagknyrgtsk.tif,35,0.0666666666666667,0.0666666666666667,1.36666666666667,1303.477544416,1305.802174583,13,1303.544103041,1303.609967416,1305.812522041,1307.172580041,1,2.3246301669999
139,1,6,categorization,0,kitchen,SHINEd_sun_auaiucuqpdausiva.tif,102,0.0666666666666667,0.0666666666666667,0.966666666666667,1323.757714333,1325.705962041,9,1323.820171208,1323.880428541,1325.716288458,1326.676292416,1,1.94824770800005
139,2,6,categorization,0,bathroom,SHINEd_sun_ahaulkltgpkeeemi.tif,26,0.0666666666666667,0.0666666666666667,1.73333333333333,1326.681197958,1327.962038333,9,1326.742887375,1326.803750708,1327.972299166,1329.699011458,0,1.28084037500003
139,3,6,categorization,0,bathroom,SHINEd_sun_aoybiabnpadelefl.tif,41,0.0666666666666667,0.0666666666666667,1.91666666666667,1329.717052125,1330.66101725,9,1329.783547791,1329.847344666,1330.687035958,1332.597093416,0,0.943965124999977
139,4,6,categorization,0,kitchen,SHINEd_sun_ajcbwwvdlsvjyzje.tif,96,0.0666666666666667,0.0666666666666667,0.766666666666667,1332.615623416,1333.922231291,13,1332.681895208,1332.747527375,1333.933654166,1334.693658791,0,1.30660787499983
139,5,6,categorization,0,kitchen,SHINEd_sun_aqeaevwwwjoqhzvl.tif,101,0.0666666666666667,0.0666666666666667,0.916666666666667,1334.69828675,1336.434184458,9,1334.7601,1334.820897916,1336.439818458,1337.349822791,1,1.73589770799981
139,6,6,categorization,0,kitchen,SHINEd_sun_aeqdocilnnpuvuhx.tif,83,0.0666666666666667,0.0666666666666667,1.18333333333333,1337.354568583,1338.690559083,9,1337.416383625,1337.477265208,1338.696457291,1339.873172375,1,1.33599049999998
139,7,6,categorization,0,bathroom,SHINEd_sun_agyqfjcfkdcydepw.tif,25,0.0666666666666667,0.0666666666666667,1.8,1339.883077833,1341.436286125,13,1339.950045916,1340.015660375,1341.4572905,1343.250660291,1,1.55320829199991
139,8,6,categorization,0,kitchen,SHINEd_sun_acgtpgfybqjmzeyw.tif,75,0.0666666666666667,0.0666666666666667,0.883333333333333,1343.269000208,1344.351356625,9,1343.335834916,1343.401851416,1344.375276375,1345.251947875,1,1.08235641700003
139,9,6,categorization,0,kitchen,SHINEd_sun_avszsnwsbuqfgzbn.tif,105,0.0666666666666667,0.0666666666666667,1.83333333333333,1345.256801541,1346.194182583,9,1345.318630416,1345.379440541,1346.197872041,1348.024587291,1,0.93738104199997
139,10,6,categorization,0,bathroom,SHINEd_sun_ahqjwnzgolcaoidx.tif,29,0.0666666666666667,0.0666666666666667,1.76666666666667,1348.04261975,1348.941455166,13,1348.109083791,1348.175094291,1348.96380175,1350.723858791,1,0.898835415999883
139,11,6,categorization,0,kitchen,SHINEd_sun_aegoxogugdkwpmpj.tif,80,0.0666666666666667,0.0666666666666667,0.983333333333333,1350.741952,1351.321223416,9,1350.807163333,1350.870199708,1351.343562,1352.320234,1,0.579271415999983
139,12,6,categorization,0,kitchen,SHINEd_sun_aadbddgrdsjugojn.tif,64,0.0666666666666667,0.0666666666666667,0.883333333333333,1352.325157958,1353.130152708,9,1352.386841041,1352.447874666,1353.149802208,1354.026473583,1,0.804994749999878
139,13,6,categorization,0,kitchen,SHINEd_sun_abdenxonkemggwsq.tif,69,0.0666666666666667,0.0666666666666667,0.85,1354.031289958,1354.714157,13,1354.092970916,1354.154026625,1354.722535625,1355.565876583,0,0.682867041999998
139,14,6,categorization,0,bathroom,SHINEd_sun_ahcvzmoyaycdoftf.tif,27,0.0666666666666667,0.0666666666666667,0.733333333333333,1355.570647666,1356.562360708,13,1355.632328958,1355.693316875,1356.578611666,1357.305283875,1,0.991713041999901
139,15,6,categorization,0,bathroom,SHINEd_sun_akiytfaagpdsphgz.tif,31,0.0666666666666667,0.0666666666666667,1.88333333333333,1357.310018416,1357.769794041,9,1357.371741416,1357.43261325,1357.784499708,1359.661221541,0,0.45977562500002
139,16,6,categorization,0,kitchen,SHINEd_sun_auticobqsbwgoppi.tif,104,0.0666666666666667,0.0666666666666667,0.816666666666667,1359.683284083,1360.660253333,9,1359.750237791,1359.8160155,1360.689086208,1361.499089875,1,0.976969249999911
139,17,6,categorization,0,bathroom,SHINEd_sun_axyrejkiiaqiurjk.tif,59,0.0666666666666667,0.0666666666666667,1.9,1361.50394175,1362.162111041,9,1361.5659355,1361.626633625,1362.178387208,1364.071754208,0,0.658169290999922
139,18,6,categorization,0,bathroom,SHINEd_sun_apkxzenqapsujocq.tif,45,0.0666666666666667,0.0666666666666667,0.983333333333333,1364.090147,1365.092584083,13,1364.156936625,1364.222526416,1365.112086416,1366.08875675,1,1.00243708300013
139,19,6,categorization,0,bathroom,SHINEd_sun_aqrpegblszgcoujh.tif,48,0.0666666666666667,0.0666666666666667,0.75,1366.093828916,1368.154027166,9,1366.155675541,1366.217019166,1368.169487041,1368.912824916,0,2.06019825000021
139,20,6,categorization,0,kitchen,SHINEd_sun_aixorpehvfykdynp.tif,95,0.0666666666666667,0.0666666666666667,1.6,1368.917617916,1369.881682416,9,1368.979408958,1369.040372625,1369.892303625,1371.485672375,1,0.964064500000177
139,21,6,categorization,0,bathroom,SHINEd_sun_avhrdrntsqrjzccq.tif,55,0.0666666666666667,0.0666666666666667,1.58333333333333,1371.5029695,1372.377280916,9,1371.5697925,1371.635381708,1372.391208041,1373.967930625,0,0.874311415999955
139,22,6,categorization,0,bathroom,SHINEd_sun_asfwthctfqerjvxr.tif,49,0.0666666666666667,0.0666666666666667,1.11666666666667,1373.984921541,1374.764610916,9,1374.051753625,1374.117846666,1374.789739166,1375.899788041,0,0.779689375000089
139,23,6,categorization,0,bathroom,SHINEd_sun_aunuadmjocsddsrl.tif,52,0.0666666666666667,0.0666666666666667,1.53333333333333,1375.909701083,1376.748090333,9,1375.97448875,1376.042520916,1376.76524225,1378.291958083,0,0.838389249999864
139,24,6,categorization,0,kitchen,SHINEd_sun_aarfiyshqohlwkmo.tif,67,0.0666666666666667,0.0666666666666667,1.48333333333333,1378.310711166,1378.98849125,9,1378.377556958,1378.443003666,1379.014862625,1380.491582083,1,0.677780084000005
139,25,6,categorization,0,kitchen,SHINEd_sun_ahljzhgcdpomplvg.tif,91,0.0666666666666667,0.0666666666666667,1.1,1380.506050333,1381.244181625,9,1380.572713875,1380.638537583,1381.261566833,1382.35494025,1,0.738131291999935
139,26,6,categorization,0,kitchen,SHINEd_sun_acfmftudsenhrfhy.tif,74,0.0666666666666667,0.0666666666666667,0.933333333333333,1382.365191833,1383.037228541,9,1382.430333958,1382.497660208,1383.053879458,1383.980592416,1,0.672036708000178
139,27,6,categorization,0,kitchen,SHINEd_sun_ahywdevtimnqcsln.tif,94,0.0666666666666667,0.0666666666666667,0.816666666666667,1383.998544791,1384.642134208,9,1384.065357166,1384.131190166,1384.650542833,1385.46054825,1,0.64358941699993
139,28,6,categorization,0,bathroom,SHINEd_sun_amzlamotzwfkwjco.tif,37,0.0666666666666667,0.0666666666666667,1.78333333333333,1385.465289916,1386.217850333,9,1385.526887083,1385.588042166,1386.223108458,1387.999823875,0,0.752560416999813
139,29,6,categorization,0,kitchen,SHINEd_sun_acxkpeoqbwcxfvip.tif,77,0.0666666666666667,0.0666666666666667,0.766666666666667,1388.017702583,1388.587798166,9,1388.08432325,1388.150017333,1388.606526166,1389.36653025,1,0.570095583000011
139,30,6,categorization,0,bathroom,SHINEd_sun_aavhrsfjbserjtht.tif,13,0.0666666666666667,0.0666666666666667,1.45,1389.3719885,1389.946065041,9,1389.433596958,1389.494723958,1389.963346958,1391.406718,0,0.574076541000068
139,31,6,categorization,0,kitchen,SHINEd_sun_acwjdupvyjsugpay.tif,76,0.0666666666666667,0.0666666666666667,0.75,1391.4236905,1392.378794041,9,1391.490240791,1391.556141416,1392.3955355,1393.138873333,1,0.955103540999971
139,32,6,categorization,0,bathroom,SHINEd_sun_acgyywnybuveqsro.tif,18,0.0666666666666667,0.0666666666666667,1.36666666666667,1393.146870875,1394.0982915,13,1393.208727625,1393.269598291,1394.105173541,1395.465205708,1,0.951420624999855
139,33,6,categorization,0,bathroom,SHINEd_sun_alkosphxlxwjwgjd.tif,34,0.0666666666666667,0.0666666666666667,0.75,1395.482020416,1396.309432166,9,1395.548341875,1395.614568583,1396.337423,1397.080792583,0,0.82741175000001
139,34,6,categorization,0,kitchen,SHINEd_sun_abdxkyyxwfskuaqb.tif,70,0.0666666666666667,0.0666666666666667,0.783333333333333,1397.09814975,1397.929321958,9,1397.164728208,1397.224005125,1397.94316425,1398.7198345,1,0.831172207999998
139,35,6,categorization,0,kitchen,SHINEd_sun_aexklacwqwezaorf.tif,84,0.0666666666666667,0.0666666666666667,1.11666666666667,1398.72463825,1399.377788958,9,1398.7863315,1398.847323208,1399.382585458,1400.492633416,1,0.653150708000112
139,36,6,categorization,0,kitchen,SHINEd_sun_admlmbcdswaszruo.tif,79,0.0666666666666667,0.0666666666666667,0.766666666666667,1400.502348625,1401.381131833,9,1400.566896041,1400.634895458,1401.4082595,1402.168293708,1,0.878783207999959
139,37,6,categorization,0,bathroom,SHINEd_labelme_sfxiulhjbhlyiyt.tif,11,0.0666666666666667,0.0666666666666667,0.716666666666667,1402.1839555,1402.802226583,9,1402.250368666,1402.316401041,1402.818138541,1403.528142375,0,0.618271083000081
139,38,6,categorization,0,kitchen,SHINEd_sun_afuyedyxivkhecmu.tif,85,0.0666666666666667,0.0666666666666667,1.33333333333333,1403.533014,1404.16943675,9,1403.594977166,1403.655720166,1404.174472916,1405.501187916,1,0.636422749999838
139,39,6,categorization,0,bathroom,SHINEd_sun_ambriybtogmepttm.tif,36,0.0666666666666667,0.0666666666666667,1.75,1405.51807925,1406.179216958,13,1405.584932125,1405.65083875,1406.207194083,1407.95056475,1,0.661137708000069
139,40,6,categorization,0,bathroom,SHINEd_sun_azqyogdvyhahyram.tif,60,0.0666666666666667,0.0666666666666667,1.13333333333333,1407.960815083,1409.04971,13,1408.027667416,1408.093289916,1409.065836,1410.192542666,1,1.08889491700006
139,41,6,categorization,0,kitchen,SHINEd_sun_ahspylgoovwmwvgk.tif,93,0.0666666666666667,0.0666666666666667,1.63333333333333,1410.202277666,1411.180311333,9,1410.267729833,1410.334897458,1411.2072725,1412.833970291,1,0.978033666999863
139,42,6,categorization,0,bathroom,SHINEd_sun_aleqenyvunhactkl.tif,32,0.0666666666666667,0.0666666666666667,1.43333333333333,1412.844856333,1413.763549666,9,1412.91081725,1412.973068333,1413.779040875,1415.205746666,0,0.918693332999965
139,43,6,categorization,0,kitchen,SHINEd_sun_ajkqhtgcbgpcwrwn.tif,97,0.0666666666666667,0.0666666666666667,1.83333333333333,1415.222785375,1415.939838833,9,1415.289633541,1415.355192458,1415.96207525,1417.788779333,1,0.717053458000009
139,44,6,categorization,0,kitchen,SHINEd_labelme_kxvouciolcpqplr.tif,62,0.0666666666666667,0.0666666666666667,1.93333333333333,1417.80688575,1419.889902416,9,1417.873238541,1417.939453208,1419.908584416,1421.835311916,1,2.08301666600005
139,45,6,categorization,0,bathroom,SHINEd_sun_apjevzvycyhuqghb.tif,43,0.0666666666666667,0.0666666666666667,1.26666666666667,1421.853632916,1422.583480666,9,1421.921608208,1421.986166375,1422.609538291,1423.869598416,0,0.72984775000009
139,46,6,categorization,0,bathroom,SHINEd_sun_apmqjbnwghzuhhzh.tif,46,0.0666666666666667,0.0666666666666667,1.86666666666667,1423.887115083,1424.844840916,13,1423.95405675,1424.019715708,1424.857670291,1426.717706041,1,0.95772583300004
139,47,6,categorization,0,bathroom,SHINEd_sun_atstyziqcmkahyxk.tif,51,0.0666666666666667,0.0666666666666667,1.41666666666667,1426.735122833,1427.559565791,13,1426.800605375,1426.865076958,1427.588498416,1428.998541333,1,0.824442957999963
139,48,6,categorization,0,kitchen,SHINEd_sun_aunzlwrbjumxhwdj.tif,103,0.0666666666666667,0.0666666666666667,1.11666666666667,1429.016124083,1429.628731375,13,1429.083168583,1429.149535041,1429.656550041,1430.766589333,0,0.612607291999893
139,49,6,categorization,0,bathroom,SHINEd_sun_aclfzgynxzxlbepz.tif,19,0.0666666666666667,0.0666666666666667,1.8,1430.780286791,1431.6517,13,1430.846045541,1430.912094875,1431.66881425,1433.462186791,1,0.871413208999911
139,50,6,categorization,0,bathroom,SHINEd_sun_apeeialkgkuxddgh.tif,42,0.0666666666666667,0.0666666666666667,1.25,1433.481731708,1434.422020458,13,1433.548336625,1433.614539041,1434.437344958,1435.680719416,1,0.940288749999809
139,1,7,categorization,0,kitchen,SHINEd_sun_admlmbcdswaszruo.tif,79,0.0666666666666667,0.0666666666666667,0.883333333333333,1485.150014625,1486.345309708,9,1485.212450083,1485.2727055,1486.358001291,1487.234672875,1,1.19529508300002
139,2,7,categorization,0,kitchen,SHINEd_sun_adgqasybjyktddhj.tif,78,0.0666666666666667,0.0666666666666667,1.03333333333333,1487.239268916,1488.265451041,9,1487.301045166,1487.361934291,1488.280986583,1489.3076875,1,1.0261821250001
139,3,7,categorization,0,kitchen,SHINEd_sun_afuyedyxivkhecmu.tif,85,0.0666666666666667,0.0666666666666667,1.06666666666667,1489.318472166,1490.321069416,9,1489.383480541,1489.449183083,1490.338786,1491.398830541,1,1.00259725000001
139,4,7,categorization,0,kitchen,SHINEd_sun_acxkpeoqbwcxfvip.tif,77,0.0666666666666667,0.0666666666666667,0.833333333333333,1491.409199833,1492.130502333,9,1491.473844833,1491.541092708,1492.147684458,1492.974407833,1,0.721302500000093
139,5,7,categorization,0,bathroom,SHINEd_sun_avhrdrntsqrjzccq.tif,55,0.0666666666666667,0.0666666666666667,0.716666666666667,1492.985548083,1493.705670166,9,1493.05257125,1493.118220666,1493.720593833,1494.430597625,0,0.720122082999978
139,6,7,categorization,0,kitchen,SHINEd_sun_ahljzhgcdpomplvg.tif,91,0.0666666666666667,0.0666666666666667,0.733333333333333,1494.435668416,1495.089269666,9,1494.497317958,1494.558344041,1495.093497833,1495.820169458,1,0.653601250000065
139,7,7,categorization,0,bathroom,SHINEd_sun_atstyziqcmkahyxk.tif,51,0.0666666666666667,0.0666666666666667,1.38333333333333,1495.824824541,1496.80886175,13,1495.886366583,1495.947469791,1496.8158875,1498.192603375,1,0.984037209000007
139,8,7,categorization,0,kitchen,SHINEd_sun_avszsnwsbuqfgzbn.tif,105,0.0666666666666667,0.0666666666666667,0.9,1498.21029275,1498.931707708,9,1498.277716583,1498.342745125,1498.947684791,1499.841070708,1,0.721414957999968
139,9,7,categorization,0,kitchen,SHINEd_sun_abdenxonkemggwsq.tif,69,0.0666666666666667,0.0666666666666667,0.816666666666667,1499.856259541,1500.729443625,9,1499.918737208,1499.9790745,1500.748233708,1501.558239458,1,0.873184083999831
139,10,7,categorization,0,bathroom,SHINEd_sun_ahqjwnzgolcaoidx.tif,29,0.0666666666666667,0.0666666666666667,0.85,1501.563095875,1502.409091708,9,1501.6246465,1501.685786458,1502.421053083,1503.264389416,0,0.845995832999961
139,11,7,categorization,0,bathroom,SHINEd_sun_aqrpegblszgcoujh.tif,48,0.0666666666666667,0.0666666666666667,1.6,1503.269272625,1504.769003666,13,1503.330904,1503.391943,1504.777922625,1506.371315041,1,1.4997310409999
139,12,7,categorization,0,kitchen,SHINEd_sun_acwjdupvyjsugpay.tif,76,0.0666666666666667,0.0666666666666667,1.75,1506.386013208,1507.500354041,9,1506.450781666,1506.516403541,1507.523547875,1509.266936125,1,1.11434083300014
139,13,7,categorization,0,bathroom,SHINEd_sun_acegryoqftbzowsg.tif,17,0.0666666666666667,0.0666666666666667,1.1,1509.281901041,1510.905811708,9,1509.349016583,1509.414511458,1510.916701625,1512.010064875,0,1.62391066700002
139,14,7,categorization,0,bathroom,SHINEd_sun_acduarbnmmoglmiv.tif,16,0.0666666666666667,0.0666666666666667,1.46666666666667,1512.019836791,1513.5139715,13,1512.08484875,1512.152438166,1513.545435125,1515.005489666,1,1.49413470900004
139,15,7,categorization,0,kitchen,SHINEd_sun_ahpczsiumwwocjkv.tif,92,0.0666666666666667,0.0666666666666667,1.25,1515.020885583,1516.123632125,13,1515.089558,1515.153249875,1516.142913875,1517.386296625,0,1.10274654199998
139,16,7,categorization,0,bathroom,SHINEd_sun_abjtwfukuwddzted.tif,15,0.0666666666666667,0.0666666666666667,1.13333333333333,1517.402434583,1519.001624875,13,1517.470481291,1517.53515825,1519.025322833,1520.152023791,1,1.599190292
139,17,7,categorization,0,kitchen,SHINEd_sun_aegoxogugdkwpmpj.tif,80,0.0666666666666667,0.0666666666666667,1.33333333333333,1520.1642705,1521.253662333,13,1520.229548833,1520.297117083,1521.269960583,1522.596668041,0,1.08939183300004
139,18,7,categorization,0,kitchen,SHINEd_sun_aenotlpyftoioydp.tif,82,0.0666666666666667,0.0666666666666667,1.86666666666667,1522.614325958,1523.91322175,9,1522.681247416,1522.747086583,1523.939148041,1525.799180541,1,1.29889579199994
139,19,7,categorization,0,bathroom,SHINEd_sun_aavhrsfjbserjtht.tif,13,0.0666666666666667,0.0666666666666667,1.58333333333333,1525.816557333,1526.753605958,13,1525.883715291,1525.948781791,1526.772302458,1528.349028041,1,0.937048624999989
139,20,7,categorization,0,bathroom,SHINEd_sun_ahaulkltgpkeeemi.tif,26,0.0666666666666667,0.0666666666666667,1.05,1528.367569125,1529.3298045,9,1528.434632291,1528.500594208,1529.3575205,1530.400902333,0,0.962235374999864
139,21,7,categorization,0,kitchen,SHINEd_sun_ajkqhtgcbgpcwrwn.tif,97,0.0666666666666667,0.0666666666666667,0.9,1530.412869875,1531.752443416,9,1530.477709208,1530.543806,1531.76872475,1532.662063666,1,1.33957354099994
139,22,7,categorization,0,bathroom,SHINEd_sun_amzlamotzwfkwjco.tif,37,0.0666666666666667,0.0666666666666667,0.7,1532.666958125,1534.193395333,13,1532.728764416,1532.789687541,1534.208876291,1534.902215208,1,1.52643720799983
139,23,7,categorization,0,kitchen,SHINEd_sun_aymvwlarqodbwuoc.tif,108,0.0666666666666667,0.0666666666666667,0.933333333333333,1534.906775791,1536.760828666,9,1534.968507541,1535.029523,1536.765490041,1537.692160125,1,1.85405287499998
139,24,7,categorization,0,kitchen,SHINEd_labelme_kxvouciolcpqplr.tif,62,0.0666666666666667,0.0666666666666667,1.95,1537.697008958,1538.777657666,9,1537.758803041,1537.819756166,1538.788745041,1540.73213375,1,1.08064870800013
139,25,7,categorization,0,bathroom,SHINEd_sun_aoybiabnpadelefl.tif,41,0.0666666666666667,0.0666666666666667,1.06666666666667,1540.751303375,1541.685863666,13,1540.816936916,1540.87876175,1541.701845083,1542.761898291,1,0.934560291000025
139,26,7,categorization,0,bathroom,SHINEd_sun_akiytfaagpdsphgz.tif,31,0.0666666666666667,0.0666666666666667,1.2,1542.7727425,1543.514147291,13,1542.837491166,1542.903739708,1543.525452875,1544.718842041,1,0.741404790999923
139,27,7,categorization,0,kitchen,SHINEd_sun_acgtpgfybqjmzeyw.tif,75,0.0666666666666667,0.0666666666666667,0.75,1544.735160916,1545.385372916,13,1544.800191625,1544.859557333,1545.394776,1546.138113375,0,0.65021200000001
139,28,7,categorization,0,bathroom,SHINEd_sun_acgyywnybuveqsro.tif,18,0.0666666666666667,0.0666666666666667,0.816666666666667,1546.143636333,1547.43287725,13,1546.205388208,1546.266309625,1547.451969916,1548.261973458,1,1.28924091700014
139,29,7,categorization,0,bathroom,SHINEd_sun_aljolscmmzydegqp.tif,33,0.0666666666666667,0.0666666666666667,1.96666666666667,1548.266379916,1549.209245958,9,1548.328107625,1548.388946916,1549.224249833,1551.184301958,0,0.942866042000105
139,30,7,categorization,0,kitchen,SHINEd_sun_aapllqyqlykszopd.tif,66,0.0666666666666667,0.0666666666666667,1.2,1551.200365291,1551.948720041,9,1551.267229166,1551.332722416,1551.972158041,1553.165538041,1,0.748354749999862
139,31,7,categorization,0,bathroom,SHINEd_sun_apynckhmoftszqoq.tif,47,0.0666666666666667,0.0666666666666667,0.883333333333333,1553.180670416,1553.945643,9,1553.247612416,1553.313036958,1553.969362375,1554.846054,0,0.764972583999906
139,32,7,categorization,0,bathroom,SHINEd_sun_alkosphxlxwjwgjd.tif,34,0.0666666666666667,0.0666666666666667,1.33333333333333,1554.856011166,1555.832976375,9,1554.920520375,1554.987214208,1555.83968525,1557.166395291,0,0.976965209000127
139,33,7,categorization,0,kitchen,SHINEd_sun_abpwyqmlzafvklqo.tif,72,0.0666666666666667,0.0666666666666667,1.45,1557.183679125,1558.434589041,9,1557.2504835,1557.31672275,1558.457076666,1559.90045625,1,1.25090991599996
139,34,7,categorization,0,bathroom,SHINEd_sun_agyqfjcfkdcydepw.tif,25,0.0666666666666667,0.0666666666666667,1.15,1559.918035,1560.908701416,9,1559.984888291,1560.050454416,1560.921642833,1562.06502325,0,0.990666416000067
139,35,7,categorization,0,kitchen,SHINEd_sun_akcjzhbbjlbogpdi.tif,99,0.0666666666666667,0.0666666666666667,0.966666666666667,1562.074624416,1563.262587791,9,1562.141219,1562.207168,1563.281663625,1564.241670041,1,1.18796337499998
139,36,7,categorization,0,kitchen,SHINEd_sun_aypmqwcualkenuoe.tif,109,0.0666666666666667,0.0666666666666667,1.45,1564.247198708,1565.05714725,9,1564.309009333,1564.370005916,1565.071863208,1566.515253,1,0.809948542000029
139,37,7,categorization,0,kitchen,SHINEd_sun_abdxkyyxwfskuaqb.tif,70,0.0666666666666667,0.0666666666666667,0.8,1566.531082666,1567.339919833,9,1566.597574958,1566.663612291,1567.370242541,1568.163582333,1,0.808837167000092
139,38,7,categorization,0,bathroom,SHINEd_sun_aggnnqpdorgxpvce.tif,21,0.0666666666666667,0.0666666666666667,1.45,1568.169383583,1568.641217541,9,1568.231034583,1568.292031208,1568.66058025,1570.103952166,0,0.471833958000161
139,39,7,categorization,0,kitchen,SHINEd_sun_aixorpehvfykdynp.tif,95,0.0666666666666667,0.0666666666666667,1.1,1570.121801125,1571.19363075,9,1570.188690833,1570.2549035,1571.211505583,1572.304875166,1,1.07182962499996
139,40,7,categorization,0,bathroom,SHINEd_sun_agguqiubmwhqqunb.tif,22,0.0666666666666667,0.0666666666666667,1.16666666666667,1572.313741791,1572.940452916,9,1572.37894425,1572.445882958,1572.967585416,1574.127627375,0,0.626711124999929
139,41,7,categorization,0,bathroom,SHINEd_sun_axyrejkiiaqiurjk.tif,59,0.0666666666666667,0.0666666666666667,1.31666666666667,1574.14729125,1574.808898166,9,1574.214243041,1574.279657416,1574.81486525,1576.124905625,0,0.661606915999982
139,42,7,categorization,0,kitchen,SHINEd_sun_aggjlwcdjsjcaemh.tif,86,0.0666666666666667,0.0666666666666667,1.68333333333333,1576.13934275,1576.750612,9,1576.206579333,1576.272026416,1576.776637416,1578.453351083,1,0.611269250000078
139,43,7,categorization,0,kitchen,SHINEd_sun_abrcnpqqhmjwekyf.tif,73,0.0666666666666667,0.0666666666666667,0.966666666666667,1578.476183333,1578.916739791,9,1578.543291875,1578.60839,1578.929986166,1579.890030375,1,0.440556457999946
139,44,7,categorization,0,kitchen,SHINEd_sun_ahywdevtimnqcsln.tif,94,0.0666666666666667,0.0666666666666667,1.4,1579.907688583,1580.649340375,9,1579.970744416,1580.030647458,1580.665960041,1582.059336666,1,0.741651792000084
139,45,7,categorization,0,kitchen,SHINEd_sun_agorklincwxrdtga.tif,87,0.0666666666666667,0.0666666666666667,0.783333333333333,1582.076760875,1582.532254458,9,1582.143242166,1582.209564125,1582.548848833,1583.325569166,1,0.455493582999907
139,46,7,categorization,0,kitchen,SHINEd_sun_amjjdeyrggfqgmom.tif,100,0.0666666666666667,0.0666666666666667,1.08333333333333,1583.341211916,1584.953354125,13,1583.407936958,1583.473473958,1584.95908675,1586.035799625,0,1.61214220900001
139,47,7,categorization,0,bathroom,SHINEd_sun_aleqenyvunhactkl.tif,32,0.0666666666666667,0.0666666666666667,1.43333333333333,1586.046268,1586.996017708,9,1586.110615125,1586.178785416,1587.018253,1588.444978875,0,0.949749707999899
139,48,7,categorization,0,kitchen,SHINEd_sun_ahspylgoovwmwvgk.tif,93,0.0666666666666667,0.0666666666666667,1.75,1588.463894458,1589.290366291,9,1588.531008291,1588.595980208,1589.318940666,1591.062326041,1,0.826471833000141
139,49,7,categorization,0,kitchen,SHINEd_sun_awcpdzzznmweyyhv.tif,106,0.0666666666666667,0.0666666666666667,1.21666666666667,1591.080679833,1591.974316,9,1591.147368458,1591.2129675,1592.002355166,1593.21240225,1,0.893636167000068
139,50,7,categorization,0,kitchen,SHINEd_sun_axyyrmzcupyhlivc.tif,107,0.0666666666666667,0.0666666666666667,1.31666666666667,1593.230552875,1594.086581666,9,1593.2974635,1593.363458416,1594.102776583,1595.412833833,1,0.856028790999972
139,1,8,categorization,0,bathroom,SHINEd_sun_apjevzvycyhuqghb.tif,43,0.0666666666666667,0.0666666666666667,1.18333333333333,1605.333266833,1606.1767735,9,1605.395770625,1605.455979583,1606.191665958,1607.368372166,0,0.843506667000156
139,2,8,categorization,0,kitchen,SHINEd_sun_aunzlwrbjumxhwdj.tif,103,0.0666666666666667,0.0666666666666667,0.983333333333333,1607.379211208,1608.368694,9,1607.445991166,1607.51196425,1608.385133583,1609.361805208,1,0.98948279199999
139,3,8,categorization,0,bathroom,SHINEd_sun_abapwbhyhkfixyex.tif,14,0.0666666666666667,0.0666666666666667,1.65,1609.367407333,1610.361453125,9,1609.429013125,1609.49008975,1610.375897291,1612.019281958,0,0.994045791999952
139,4,8,categorization,0,kitchen,SHINEd_labelme_rykdqxenmhulbdn.tif,63,0.0666666666666667,0.0666666666666667,1.23333333333333,1612.037002333,1613.15438475,9,1612.103920541,1612.169947791,1613.176546416,1614.403271083,1,1.11738241700004
139,5,8,categorization,0,bathroom,SHINEd_sun_ahijqszoswveeyji.tif,28,0.0666666666666667,0.0666666666666667,0.916666666666667,1614.420479416,1615.225489958,9,1614.487426458,1614.553095083,1615.242725125,1616.152773875,0,0.805010541999991
139,6,8,categorization,0,kitchen,SHINEd_sun_agzzivivdpnawacl.tif,89,0.0666666666666667,0.0666666666666667,1.56666666666667,1616.169444666,1616.984496166,9,1616.236153708,1616.294060458,1616.995862541,1618.555921708,1,0.815051500000209
139,7,8,categorization,0,bathroom,SHINEd_sun_anryaplzeujmzfkd.tif,39,0.0666666666666667,0.0666666666666667,1.63333333333333,1618.574434875,1619.49264125,13,1618.641202708,1618.707046375,1619.513776791,1621.1404785,1,0.918206374999954
139,8,8,categorization,0,bathroom,SHINEd_sun_aofnryafpsjimzsb.tif,40,0.0666666666666667,0.0666666666666667,1.1,1621.159440708,1622.133790291,9,1621.226036791,1621.290547291,1622.16387325,1623.25725175,0,0.974349583000048
139,9,8,categorization,0,kitchen,SHINEd_sun_akchetnepxlcxhsu.tif,98,0.0666666666666667,0.0666666666666667,1.38333333333333,1623.267393291,1624.229288,9,1623.332861375,1623.4002115,1624.256744625,1625.633450333,1,0.961894709000035
139,10,8,categorization,0,bathroom,SHINEd_sun_awnqiikzaispgmwo.tif,56,0.0666666666666667,0.0666666666666667,0.766666666666667,1625.6516375,1627.264969916,9,1625.718550875,1625.78449625,1627.29497275,1628.054977958,0,1.61333241599982
139,11,8,categorization,0,bathroom,SHINEd_sun_ambriybtogmepttm.tif,36,0.0666666666666667,0.0666666666666667,1.45,1628.059993083,1628.856471125,9,1628.1217765,1628.182830416,1628.867830916,1630.311209833,0,0.79647804199999
139,12,8,categorization,0,bathroom,SHINEd_sun_asfwthctfqerjvxr.tif,49,0.0666666666666667,0.0666666666666667,0.983333333333333,1630.321556291,1631.198535291,9,1630.388741416,1630.454301208,1631.22710175,1632.203774458,0,0.876979000000119
139,13,8,categorization,0,kitchen,SHINEd_sun_aehawpgmrlhlvcow.tif,81,0.0666666666666667,0.0666666666666667,0.716666666666667,1632.209672208,1632.840706208,13,1632.271552375,1632.332417166,1632.850840875,1633.560845041,0,0.631034
139,14,8,categorization,0,bathroom,SHINEd_sun_apeeialkgkuxddgh.tif,42,0.0666666666666667,0.0666666666666667,1.41666666666667,1633.565881208,1634.232276791,13,1633.627499375,1633.688735166,1634.240665333,1635.650721041,1,0.66639558299994
139,15,8,categorization,0,kitchen,SHINEd_sun_ajcbwwvdlsvjyzje.tif,96,0.0666666666666667,0.0666666666666667,1.21666666666667,1635.668770208,1636.466185625,13,1635.735643708,1635.801138166,1636.491041958,1637.701080333,0,0.797415416999911
139,16,8,categorization,0,bathroom,SHINEd_sun_anhioqovhscjqqwb.tif,38,0.0666666666666667,0.0666666666666667,1.61666666666667,1637.714282833,1638.514342916,13,1637.780677791,1637.846764291,1638.537251833,1640.14729525,1,0.800060083000062
139,17,8,categorization,0,kitchen,SHINEd_sun_aeqdocilnnpuvuhx.tif,83,0.0666666666666667,0.0666666666666667,0.783333333333333,1640.164457541,1641.056176291,9,1640.231317125,1640.296870041,1641.086892875,1641.863563791,1,0.891718749999882
139,18,8,categorization,0,kitchen,SHINEd_sun_auticobqsbwgoppi.tif,104,0.0666666666666667,0.0666666666666667,1.98333333333333,1641.869389,1642.480289333,9,1641.931123125,1641.992120375,1642.494037041,1644.470752791,1,0.610900333000018
139,19,8,categorization,0,kitchen,SHINEd_sun_aaxxjlsuzvqlgylf.tif,68,0.0666666666666667,0.0666666666666667,0.983333333333333,1644.488809958,1645.752773,13,1644.555725541,1644.621580541,1645.757258208,1646.733929375,0,1.26396304199989
139,20,8,categorization,0,bathroom,SHINEd_labelme_sfxiulhjbhlyiyt.tif,11,0.0666666666666667,0.0666666666666667,0.8,1646.738687541,1647.616412208,13,1646.800289375,1646.86129325,1647.630284458,1648.423622791,1,0.877724666999939
139,21,8,categorization,0,bathroom,SHINEd_sun_apkxzenqapsujocq.tif,45,0.0666666666666667,0.0666666666666667,0.733333333333333,1648.429003458,1649.096554166,13,1648.49067125,1648.551652583,1649.10353,1649.830202,1,0.667550708000135
139,22,8,categorization,0,bathroom,SHINEd_sun_aclfzgynxzxlbepz.tif,19,0.0666666666666667,0.0666666666666667,0.966666666666667,1649.834845541,1650.504721333,13,1649.896604458,1649.957447333,1650.509194875,1651.469199,1,0.669875791999857
139,23,8,categorization,0,bathroom,SHINEd_sun_axxbkopsgyouuebh.tif,58,0.0666666666666667,0.0666666666666667,0.866666666666667,1651.473992541,1652.760939625,13,1651.535632166,1651.596883833,1652.76611725,1653.626121583,1,1.28694708400008
139,24,8,categorization,0,kitchen,SHINEd_sun_agubuxuukhzyzpdp.tif,88,0.0666666666666667,0.0666666666666667,1.23333333333333,1653.6307705,1654.528816416,9,1653.692562916,1653.753333583,1654.538631541,1655.765333958,1,0.898045916000001
139,25,8,categorization,0,kitchen,SHINEd_sun_abftihopvusyfakt.tif,71,0.0666666666666667,0.0666666666666667,1.9,1655.779242041,1657.187112583,13,1655.846032666,1655.911601041,1657.202939375,1659.096326625,0,1.40787054199996
139,26,8,categorization,0,kitchen,SHINEd_sun_azmutvzbxypaceni.tif,110,0.0666666666666667,0.0666666666666667,0.866666666666667,1659.116132541,1659.989528666,9,1659.182919458,1659.24876575,1660.004841375,1660.864846791,1,0.873396124999999
139,27,8,categorization,0,bathroom,SHINEd_sun_aunuadmjocsddsrl.tif,52,0.0666666666666667,0.0666666666666667,0.966666666666667,1660.869593541,1661.896447625,13,1660.931299208,1660.992369708,1661.910890416,1662.870895541,1,1.02685408399998
139,28,8,categorization,0,bathroom,SHINEd_sun_auzqhkafidnkrwmo.tif,54,0.0666666666666667,0.0666666666666667,0.916666666666667,1662.875770958,1663.768949833,13,1662.93757425,1662.99855375,1663.783735541,1664.693739208,1,0.893178875000103
139,29,8,categorization,0,bathroom,SHINEd_sun_azqyogdvyhahyram.tif,60,0.0666666666666667,0.0666666666666667,0.916666666666667,1664.698622083,1665.601037291,13,1664.760286666,1664.821262791,1665.606698291,1666.51670325,1,0.902415208000093
139,30,8,categorization,0,kitchen,SHINEd_labelme_brsyyvweiuaazfr.tif,61,0.0666666666666667,0.0666666666666667,1.4,1666.52146625,1668.104593125,13,1666.583057083,1666.644105541,1668.113588625,1669.506977041,0,1.58312687500006
139,31,8,categorization,0,kitchen,SHINEd_sun_ahdycvpopffkzzsu.tif,90,0.0666666666666667,0.0666666666666667,1.75,1669.524727791,1670.521727958,9,1669.59254475,1669.657139375,1670.547294708,1672.2906805,1,0.997000166999896
139,32,8,categorization,0,kitchen,SHINEd_sun_aadbddgrdsjugojn.tif,64,0.0666666666666667,0.0666666666666667,1.25,1672.308310041,1673.036959125,9,1672.375718416,1672.440775541,1673.064088375,1674.307460083,1,0.728649084000153
139,33,8,categorization,0,bathroom,SHINEd_sun_aghyqhbptboemmoq.tif,23,0.0666666666666667,0.0666666666666667,1.05,1674.322223708,1675.216584791,13,1674.389192958,1674.454554458,1675.24514425,1676.2885375,1,0.894361083000149
139,34,8,categorization,0,bathroom,SHINEd_sun_afcoljnjfoxjtgja.tif,20,0.0666666666666667,0.0666666666666667,1.06666666666667,1676.301281166,1676.844113291,9,1676.366339416,1676.432325166,1676.870032166,1677.9300915,0,0.542832124999904
139,35,8,categorization,0,bathroom,SHINEd_sun_ajlawzvmubibwbpy.tif,30,0.0666666666666667,0.0666666666666667,1.21666666666667,1677.946898458,1679.016160875,13,1678.013592291,1678.079354333,1679.031287083,1680.241323125,1,1.06926241699989
139,36,8,categorization,0,kitchen,SHINEd_sun_acfmftudsenhrfhy.tif,74,0.0666666666666667,0.0666666666666667,0.95,1680.258751083,1680.9883655,9,1680.325493166,1680.392097791,1681.016232916,1681.959599958,1,0.729614416999993
139,37,8,categorization,0,bathroom,SHINEd_sun_aspsyogrekjtfozg.tif,50,0.0666666666666667,0.0666666666666667,0.9,1681.977070958,1682.632638625,9,1682.043802458,1682.103219,1682.638368291,1683.531707125,0,0.655567667000014
139,38,8,categorization,0,kitchen,SHINEd_sun_aqeaevwwwjoqhzvl.tif,101,0.0666666666666667,0.0666666666666667,1.78333333333333,1683.53646775,1684.033030375,9,1683.598217375,1683.659135916,1684.044444333,1685.82115425,1,0.496562625000024
139,39,8,categorization,0,kitchen,SHINEd_sun_auaiucuqpdausiva.tif,102,0.0666666666666667,0.0666666666666667,1.16666666666667,1685.835492041,1686.760955958,13,1685.902154208,1685.968578583,1686.773219958,1687.93325325,0,0.925463917000116
139,40,8,categorization,0,bathroom,SHINEd_sun_ausgutylgojavyoq.tif,53,0.0666666666666667,0.0666666666666667,0.783333333333333,1687.943369541,1688.714550041,13,1688.010318041,1688.076105166,1688.732631666,1689.509349583,1,0.7711804999999
139,41,8,categorization,0,bathroom,SHINEd_sun_apkruvsevgegsdwp.tif,44,0.0666666666666667,0.0666666666666667,1.23333333333333,1689.525805083,1690.464180791,13,1689.592423125,1689.657935583,1690.476800208,1691.703501166,1,0.938375707999967
139,42,8,categorization,0,bathroom,SHINEd_sun_alotolagknyrgtsk.tif,35,0.0666666666666667,0.0666666666666667,0.9,1691.721138791,1692.778364583,9,1691.787836041,1691.853606291,1692.791972625,1693.685312375,0,1.05722579200005
139,43,8,categorization,0,bathroom,SHINEd_sun_axldvoqbuvuggfmq.tif,57,0.0666666666666667,0.0666666666666667,0.7,1693.691104916,1694.608190166,13,1693.752811,1693.813850875,1694.616014375,1695.309351041,1,0.9170852499999
139,44,8,categorization,0,bathroom,SHINEd_sun_ahcvzmoyaycdoftf.tif,27,0.0666666666666667,0.0666666666666667,1.23333333333333,1695.314173833,1696.392183875,13,1695.375854291,1695.436884416,1696.405781583,1697.632483,1,1.07801004199996
139,45,8,categorization,0,kitchen,SHINEd_sun_aexklacwqwezaorf.tif,84,0.0666666666666667,0.0666666666666667,1,1697.649089,1698.355114625,9,1697.715989583,1697.781868708,1698.371371625,1699.364755833,1,0.706025624999938
139,46,8,categorization,0,bathroom,SHINEd_sun_aapitsgbtktqubfy.tif,12,0.0666666666666667,0.0666666666666667,1.38333333333333,1699.380138958,1700.024448791,9,1699.447088916,1699.504701625,1700.040085041,1701.416806583,0,0.644309832999852
139,47,8,categorization,0,kitchen,SHINEd_sun_aamedkxepzlwuxes.tif,65,0.0666666666666667,0.0666666666666667,1.3,1701.429666708,1702.115744583,9,1701.49644825,1701.561925333,1702.133530625,1703.426919375,1,0.68607787499991
139,48,8,categorization,0,bathroom,SHINEd_sun_agrwbmhcpmfuwmsg.tif,24,0.0666666666666667,0.0666666666666667,0.833333333333333,1703.446729916,1704.580321958,13,1703.513423833,1703.579518166,1704.602934416,1705.429607083,1,1.13359204199992
139,49,8,categorization,0,kitchen,SHINEd_sun_aarfiyshqohlwkmo.tif,67,0.0666666666666667,0.0666666666666667,0.95,1705.434581708,1706.496600208,13,1705.496437625,1705.557308625,1706.509082541,1707.452420333,0,1.06201850000002
139,50,8,categorization,0,bathroom,SHINEd_sun_apmqjbnwghzuhhzh.tif,46,0.0666666666666667,0.0666666666666667,1.43333333333333,1707.457359125,1708.18414975,13,1707.519048333,1707.580052291,1708.198528916,1709.62523375,1,0.726790624999921
139,1,9,categorization,0,kitchen,SHINEd_sun_abpwyqmlzafvklqo.tif,72,0.0666666666666667,0.0666666666666667,1.08333333333333,1719.575637916,1720.656144333,13,1719.638267833,1719.698242291,1720.667326333,1721.744038166,0,1.08050641699992
139,2,9,categorization,0,bathroom,SHINEd_sun_agrwbmhcpmfuwmsg.tif,24,0.0666666666666667,0.0666666666666667,0.8,1721.754789291,1722.364695416,13,1721.819070625,1721.8870495,1722.393922083,1723.187302708,1,0.609906124999952
139,3,9,categorization,0,kitchen,SHINEd_sun_aixorpehvfykdynp.tif,95,0.0666666666666667,0.0666666666666667,0.833333333333333,1723.20453925,1723.748466416,13,1723.271920791,1723.337013833,1723.7738135,1724.600485666,0,0.543927166000003
139,4,9,categorization,0,bathroom,SHINEd_sun_anryaplzeujmzfkd.tif,39,0.0666666666666667,0.0666666666666667,1.45,1724.605280583,1725.10436875,13,1724.666926666,1724.727946666,1725.113094791,1726.556472375,1,0.499088167000082
139,5,9,categorization,0,bathroom,SHINEd_sun_aqrpegblszgcoujh.tif,48,0.0666666666666667,0.0666666666666667,1.3,1726.573577875,1727.316237,13,1726.640228916,1726.706001416,1727.345493625,1728.638882916,1,0.742659125000046
139,6,9,categorization,0,bathroom,SHINEd_sun_amzlamotzwfkwjco.tif,37,0.0666666666666667,0.0666666666666667,1.21666666666667,1728.657148958,1729.436618916,9,1728.724187375,1728.787848666,1729.459803625,1730.669840208,0,0.779469957999936
139,7,9,categorization,0,bathroom,SHINEd_sun_apjevzvycyhuqghb.tif,43,0.0666666666666667,0.0666666666666667,0.733333333333333,1730.6851915,1731.155409833,9,1730.752191041,1730.813182,1731.168541541,1731.8952445,0,0.470218333000048
139,8,9,categorization,0,bathroom,SHINEd_sun_aavhrsfjbserjtht.tif,13,0.0666666666666667,0.0666666666666667,1.03333333333333,1731.909458541,1732.4561155,9,1731.976008041,1732.042491166,1732.481966041,1733.508668333,0,0.546656958999847
139,9,9,categorization,0,kitchen,SHINEd_sun_awcpdzzznmweyyhv.tif,106,0.0666666666666667,0.0666666666666667,1.1,1733.518401166,1734.631612791,13,1733.583400208,1733.649750125,1734.656866916,1735.750257416,0,1.11321162499985
139,10,9,categorization,0,kitchen,SHINEd_sun_aqeaevwwwjoqhzvl.tif,101,0.0666666666666667,0.0666666666666667,1.25,1735.76401225,1736.727779125,9,1735.829034,1735.896707791,1736.753470125,1737.996841208,1,0.963766875000147
139,11,9,categorization,0,kitchen,SHINEd_sun_aenotlpyftoioydp.tif,82,0.0666666666666667,0.0666666666666667,1.4,1738.015118458,1738.65383175,9,1738.082094083,1738.147696541,1738.670474416,1740.063852666,1,0.638713292000148
139,12,9,categorization,0,kitchen,SHINEd_sun_aapllqyqlykszopd.tif,66,0.0666666666666667,0.0666666666666667,1.43333333333333,1740.080741125,1740.987663791,9,1740.147298583,1740.213470375,1741.00196575,1742.428679416,1,0.9069226659999
139,13,9,categorization,0,bathroom,SHINEd_labelme_sfxiulhjbhlyiyt.tif,11,0.0666666666666667,0.0666666666666667,1.26666666666667,1742.446511916,1742.993766958,13,1742.513653458,1742.579091458,1743.019586208,1744.279627666,1,0.547255041999961
139,14,9,categorization,0,kitchen,SHINEd_sun_aggjlwcdjsjcaemh.tif,86,0.0666666666666667,0.0666666666666667,0.916666666666667,1744.29683175,1744.908115208,13,1744.363908208,1744.429171625,1744.916192916,1745.826246166,0,0.611283458000116
139,15,9,categorization,0,bathroom,SHINEd_sun_avhrdrntsqrjzccq.tif,55,0.0666666666666667,0.0666666666666667,1.05,1745.843724958,1746.488281333,13,1745.910710541,1745.976436166,1746.495104791,1747.538484083,1,0.644556375000093
139,16,9,categorization,0,bathroom,SHINEd_sun_aclfzgynxzxlbepz.tif,19,0.0666666666666667,0.0666666666666667,1.53333333333333,1747.550242583,1748.091113833,9,1747.615264416,1747.680872916,1748.120689,1749.647398333,0,0.540871250000009
139,17,9,categorization,0,bathroom,SHINEd_sun_aghyqhbptboemmoq.tif,23,0.0666666666666667,0.0666666666666667,1.11666666666667,1749.658967041,1750.193990916,9,1749.725659375,1749.791115041,1750.214434958,1751.324471958,0,0.535023874999979
