sub_num,trial,block,task,is_practice,category,image,texture,duration,mask_dur,jitter,stim_time,time_of_resp,trial_response,mask_time,fix_time,jit_onset,trial_end,trial_accuracy,RT
139,1,2,categorization,0,bathroom,SHINEd_sun_aghyqhbptboemmoq.tif,23,0.0666666666666667,0.0666666666666667,0.95,790.411283625,791.02840825,9,790.473795791,790.533968333,791.035781958,791.979119208,0,0.617124624999974
139,2,2,categorization,0,kitchen,SHINEd_labelme_brsyyvweiuaazfr.tif,61,0.0666666666666667,0.0666666666666667,0.75,791.983933291,792.476248416,9,792.045594583,792.106616833,792.492143708,793.235481333,1,0.492315125000005
139,3,2,categorization,0,bathroom,SHINEd_sun_apeeialkgkuxddgh.tif,42,0.0666666666666667,0.0666666666666667,1.68333333333333,793.239986375,793.892597708,9,793.301590833,793.362569958,793.89766,795.5743735,0,0.652611333000095
139,4,2,categorization,0,bathroom,SHINEd_sun_aqrpegblszgcoujh.tif,48,0.0666666666666667,0.0666666666666667,0.816666666666667,795.591917416,796.373771541,13,795.658737416,795.724844916,796.398269333,797.208274166,1,0.781854124999995
139,5,2,categorization,0,bathroom,SHINEd_sun_ahqjwnzgolcaoidx.tif,29,0.0666666666666667,0.0666666666666667,0.916666666666667,797.213994958,797.796346375,13,797.275641083,797.33671825,797.805219125,798.715222375,1,0.582351417000041
139,6,2,categorization,0,bathroom,SHINEd_sun_anryaplzeujmzfkd.tif,39,0.0666666666666667,0.0666666666666667,1.21666666666667,798.72001525,799.388126625,9,798.781646708,798.842731291,799.394818333,800.604866916,0,0.66811137500008
139,7,2,categorization,0,kitchen,SHINEd_sun_auticobqsbwgoppi.tif,104,0.0666666666666667,0.0666666666666667,0.9,800.621849791,801.261865583,13,800.688436708,800.754482208,801.277593791,802.170979041,0,0.640015791999986
139,8,2,categorization,0,kitchen,SHINEd_sun_ahpczsiumwwocjkv.tif,92,0.0666666666666667,0.0666666666666667,1.65,802.187399541,802.932006916,13,802.254542666,802.319855708,802.9384605,804.581852,0,0.744607374999987
139,9,2,categorization,0,kitchen,SHINEd_sun_aunzlwrbjumxhwdj.tif,103,0.0666666666666667,0.0666666666666667,1.15,804.6016055,805.225809791,13,804.668329208,804.734125041,805.23995525,806.38333275,0,0.624204290999955
139,10,2,categorization,0,kitchen,SHINEd_sun_axyyrmzcupyhlivc.tif,107,0.0666666666666667,0.0666666666666667,1.13333333333333,806.393421125,806.942383541,9,806.459925916,806.525896375,806.964248125,808.090961958,1,0.548962415999995
139,11,2,categorization,0,kitchen,SHINEd_sun_aqeaevwwwjoqhzvl.tif,101,0.0666666666666667,0.0666666666666667,1.76666666666667,808.104397708,808.500553333,9,808.1712195,808.236861375,808.505994875,810.266048833,1,0.396155625000006
139,12,2,categorization,0,kitchen,SHINEd_sun_ahdycvpopffkzzsu.tif,90,0.0666666666666667,0.0666666666666667,1.8,810.285015083,810.909713125,9,810.351725583,810.41791675,810.922835166,812.716218833,1,0.624698042000091
139,13,2,categorization,0,kitchen,SHINEd_sun_auaiucuqpdausiva.tif,102,0.0666666666666667,0.0666666666666667,0.9,812.735035833,813.415874916,9,812.800364083,812.866218833,813.4398465,814.3331845,1,0.680839083000023
139,14,2,categorization,0,kitchen,SHINEd_sun_aypmqwcualkenuoe.tif,109,0.0666666666666667,0.0666666666666667,0.716666666666667,814.338118541,814.964659166,9,814.399830333,814.460725291,814.97912575,815.689130333,1,0.626540625000075
139,15,2,categorization,0,bathroom,SHINEd_sun_aunuadmjocsddsrl.tif,52,0.0666666666666667,0.0666666666666667,1.36666666666667,815.694318,816.628017,13,815.755962875,815.816990541,816.635432916,817.9954825,1,0.933699000000047
139,16,2,categorization,0,bathroom,SHINEd_sun_apjevzvycyhuqghb.tif,43,0.0666666666666667,0.0666666666666667,0.916666666666667,818.01365,818.669243083,9,818.080357916,818.145718125,818.685187916,819.595242958,0,0.655593082999985
139,17,2,categorization,0,kitchen,SHINEd_sun_amjjdeyrggfqgmom.tif,100,0.0666666666666667,0.0666666666666667,0.716666666666667,819.611909958,820.26041275,9,819.678578666,819.74228825,820.277990583,820.987996125,1,0.648502792000045
139,18,2,categorization,0,kitchen,SHINEd_sun_aaxxjlsuzvqlgylf.tif,68,0.0666666666666667,0.0666666666666667,0.766666666666667,820.992840416,821.708378,9,821.054509708,821.115506208,821.717793541,822.477796916,1,0.715537584000003
139,19,2,categorization,0,bathroom,SHINEd_sun_ausgutylgojavyoq.tif,53,0.0666666666666667,0.0666666666666667,1.06666666666667,822.483364416,823.180173583,13,822.545105,822.606118125,823.191254666,824.251296541,1,0.696809167000083
139,20,2,categorization,0,bathroom,SHINEd_sun_aapitsgbtktqubfy.tif,12,0.0666666666666667,0.0666666666666667,0.8,824.260989166,825.096336458,9,824.325307541,824.391126708,825.114013666,825.907381958,0,0.835347292000051
139,21,2,categorization,0,kitchen,SHINEd_sun_acgtpgfybqjmzeyw.tif,75,0.0666666666666667,0.0666666666666667,0.866666666666667,825.923672041,826.620844041,9,825.990418791,826.055723916,826.624878916,827.484884,1,0.697172000000023
139,22,2,categorization,0,kitchen,SHINEd_sun_aegoxogugdkwpmpj.tif,80,0.0666666666666667,0.0666666666666667,1.48333333333333,827.489792833,828.132613166,9,827.551554375,827.612416,828.147601666,829.624323416,1,0.642820333000031
139,23,2,categorization,0,kitchen,SHINEd_sun_ahljzhgcdpomplvg.tif,91,0.0666666666666667,0.0666666666666667,1.1,829.640052708,830.537744125,13,829.706929291,829.772545375,830.562776625,831.656155083,0,0.897691417000033
139,24,2,categorization,0,kitchen,SHINEd_sun_ajcbwwvdlsvjyzje.tif,96,0.0666666666666667,0.0666666666666667,0.783333333333333,831.667373458,832.372326375,13,831.732266916,831.799886166,832.388039416,833.164740958,0,0.7049529169999
139,25,2,categorization,0,kitchen,SHINEd_sun_aixorpehvfykdynp.tif,95,0.0666666666666667,0.0666666666666667,0.866666666666667,833.181381833,833.940892208,13,833.247495,833.31404175,833.949653166,834.8096575,0,0.759510374999991
139,26,2,categorization,0,kitchen,SHINEd_sun_aenotlpyftoioydp.tif,82,0.0666666666666667,0.0666666666666667,1.83333333333333,834.816516708,835.380214,9,834.878391416,834.93927325,835.391053166,837.217776625,1,0.563697292000029
139,27,2,categorization,0,kitchen,SHINEd_sun_ahywdevtimnqcsln.tif,94,0.0666666666666667,0.0666666666666667,0.7,837.236276166,837.910475708,9,837.302861375,837.369678166,837.925449583,838.618789666,1,0.674199541999997
139,28,2,categorization,0,bathroom,SHINEd_sun_ambriybtogmepttm.tif,36,0.0666666666666667,0.0666666666666667,1.33333333333333,838.624547333,839.35582925,13,838.686238541,838.747296791,839.3658195,840.692536916,1,0.731281917000047
139,29,2,categorization,0,bathroom,SHINEd_sun_awnqiikzaispgmwo.tif,56,0.0666666666666667,0.0666666666666667,1.33333333333333,840.710754916,841.69533075,13,840.775641875,840.840268083,841.712643125,843.039342458,1,0.984575833999997
139,30,2,categorization,0,kitchen,SHINEd_sun_aadbddgrdsjugojn.tif,64,0.0666666666666667,0.0666666666666667,1.38333333333333,843.0537755,843.596200916,9,843.120640166,843.1843915,843.624423166,845.001123833,1,0.542425416000015
139,31,2,categorization,0,kitchen,SHINEd_sun_awcpdzzznmweyyhv.tif,106,0.0666666666666667,0.0666666666666667,1.25,845.018175375,845.69613175,9,845.085006666,845.150811666,845.724112833,846.967497666,1,0.677956374999894
139,32,2,categorization,0,kitchen,SHINEd_sun_agzzivivdpnawacl.tif,89,0.0666666666666667,0.0666666666666667,1.55,846.97746375,847.637503958,9,847.042607291,847.110019208,847.666903625,849.210295583,1,0.660040208000055
139,33,2,categorization,0,bathroom,SHINEd_sun_apkruvsevgegsdwp.tif,44,0.0666666666666667,0.0666666666666667,1.61666666666667,849.228621958,849.761148833,13,849.295398458,849.360853791,849.782819916,851.392860875,1,0.53252687500003
139,34,2,categorization,0,kitchen,SHINEd_sun_aehawpgmrlhlvcow.tif,81,0.0666666666666667,0.0666666666666667,1.33333333333333,851.410782708,852.116792666,13,851.477679416,851.543477541,852.132088041,853.458812541,0,0.706009957999981
139,35,2,categorization,0,kitchen,SHINEd_sun_avszsnwsbuqfgzbn.tif,105,0.0666666666666667,0.0666666666666667,0.833333333333333,853.4778675,854.30261175,9,853.54472075,853.610202291,854.3154555,855.142178,1,0.824744249999981
139,36,2,categorization,0,bathroom,SHINEd_sun_azqyogdvyhahyram.tif,60,0.0666666666666667,0.0666666666666667,1.45,855.157196041,855.852744458,13,855.224165958,855.289661291,855.858396,857.301783041,1,0.695548416999941
139,37,2,categorization,0,kitchen,SHINEd_sun_ahspylgoovwmwvgk.tif,93,0.0666666666666667,0.0666666666666667,0.933333333333333,857.319544375,857.89531525,13,857.386331333,857.452482291,857.908053458,858.834748791,0,0.575770874999989
139,38,2,categorization,0,kitchen,SHINEd_sun_azmutvzbxypaceni.tif,110,0.0666666666666667,0.0666666666666667,1.65,858.845450583,859.716640625,13,858.908289958,858.968292458,859.720260208,861.363642458,0,0.871190041999967
139,39,2,categorization,0,bathroom,SHINEd_sun_apkxzenqapsujocq.tif,45,0.0666666666666667,0.0666666666666667,1.23333333333333,861.381669,862.182188541,13,861.448502,861.514971666,862.204459833,863.431176416,1,0.800519540999971
139,40,2,categorization,0,bathroom,SHINEd_sun_aavhrsfjbserjtht.tif,13,0.0666666666666667,0.0666666666666667,0.766666666666667,863.451274416,864.475838833,9,863.518112291,863.584434083,864.490931666,865.250991291,0,1.02456441699997
139,41,2,categorization,0,bathroom,SHINEd_sun_apynckhmoftszqoq.tif,47,0.0666666666666667,0.0666666666666667,1.78333333333333,865.268268666,865.972755833,9,865.331394708,865.391141083,865.976811,867.753523708,0,0.704487166999911
139,42,2,categorization,0,kitchen,SHINEd_sun_ajkqhtgcbgpcwrwn.tif,97,0.0666666666666667,0.0666666666666667,1.11666666666667,867.770977041,868.5590715,9,867.837812125,867.90374825,868.576717166,869.6867645,1,0.788094458999922
139,43,2,categorization,0,bathroom,SHINEd_sun_ahijqszoswveeyji.tif,28,0.0666666666666667,0.0666666666666667,1.85,869.696358291,870.367013583,9,869.760976333,869.828603208,870.385073083,872.228445208,0,0.670655291999992
139,44,2,categorization,0,bathroom,SHINEd_sun_abapwbhyhkfixyex.tif,14,0.0666666666666667,0.0666666666666667,0.733333333333333,872.24545025,872.827961458,13,872.312311666,872.377846291,872.849208,873.575927083,1,0.582511208000028
139,45,2,categorization,0,kitchen,SHINEd_sun_abrcnpqqhmjwekyf.tif,73,0.0666666666666667,0.0666666666666667,0.783333333333333,873.592876,874.116026708,9,873.659823625,873.725556291,874.128012166,874.904683708,1,0.523150708000003
139,46,2,categorization,0,kitchen,SHINEd_sun_akcjzhbbjlbogpdi.tif,99,0.0666666666666667,0.0666666666666667,1.5,874.909690833,875.46804625,9,874.971288083,875.032451125,875.484283875,876.977660541,1,0.55835541700003
139,47,2,categorization,0,bathroom,SHINEd_sun_akiytfaagpdsphgz.tif,31,0.0666666666666667,0.0666666666666667,0.733333333333333,876.9885085,877.512006875,9,877.055125666,877.120877583,877.526835125,878.253548625,0,0.523498375000031
139,48,2,categorization,0,kitchen,SHINEd_sun_aamedkxepzlwuxes.tif,65,0.0666666666666667,0.0666666666666667,1.1,878.26899575,878.860194875,9,878.335552958,878.401608416,878.869906208,879.96328075,1,0.591199125000003
139,49,2,categorization,0,bathroom,SHINEd_sun_asfwthctfqerjvxr.tif,49,0.0666666666666667,0.0666666666666667,1.6,879.972377833,880.58811625,13,880.037503875,880.104937375,880.6112545,882.204630125,1,0.615738416999989
139,50,2,categorization,0,bathroom,SHINEd_sun_axyrejkiiaqiurjk.tif,59,0.0666666666666667,0.0666666666666667,1.06666666666667,882.221982875,882.860241333,13,882.288805041,882.354892875,882.876368791,883.936424458,1,0.638258457999996
