sub_num,trial,block,task,is_practice,category,image,texture,duration,mask_dur,jitter,stim_time,time_of_resp,trial_response,mask_time,fix_time,jit_onset,trial_end,trial_accuracy,RT
139,1,11,categorization,0,bathroom,SHINEd_sun_abjtwfukuwddzted.tif,15,0.0666666666666667,0.0666666666666667,0.8,1974.481208291,1975.519361833,9,1974.5437785,1974.603941541,1975.539297125,1976.332634458,0,1.03815354199992
139,2,11,categorization,0,bathroom,SHINEd_sun_aoybiabnpadelefl.tif,41,0.0666666666666667,0.0666666666666667,1.13333333333333,1976.337339083,1977.263535333,9,1976.399004791,1976.460219291,1977.278871875,1978.405588208,0,0.926196249999975
139,3,11,categorization,0,kitchen,SHINEd_sun_amjjdeyrggfqgmom.tif,100,0.0666666666666667,0.0666666666666667,1.05,1978.414701833,1979.738212625,9,1978.479177333,1978.547237791,1979.75648925,1980.799876833,1,1.32351079199998
139,4,11,categorization,0,kitchen,SHINEd_sun_acwjdupvyjsugpay.tif,76,0.0666666666666667,0.0666666666666667,1.05,1980.810751458,1982.00505025,9,1980.875370958,1980.941924125,1982.033810458,1983.077188291,1,1.19429879200015
139,5,11,categorization,0,bathroom,SHINEd_sun_alkosphxlxwjwgjd.tif,34,0.0666666666666667,0.0666666666666667,1.63333333333333,1983.088957666,1984.411430583,13,1983.154185416,1983.219988458,1984.428186916,1986.0549095,1,1.32247291700014
139,6,11,categorization,0,kitchen,SHINEd_sun_aixorpehvfykdynp.tif,95,0.0666666666666667,0.0666666666666667,0.85,1986.07254675,1987.289939375,13,1986.1393515,1986.205182375,1987.311968166,1988.1553085,0,1.217392625
139,7,11,categorization,0,kitchen,SHINEd_sun_akcjzhbbjlbogpdi.tif,99,0.0666666666666667,0.0666666666666667,1.5,1988.160906708,1988.799609041,9,1988.222556,1988.283556875,1988.818777,1990.3121525,1,0.638702332999856
139,8,11,categorization,0,kitchen,SHINEd_sun_agorklincwxrdtga.tif,87,0.0666666666666667,0.0666666666666667,1.46666666666667,1990.33046325,1991.384185166,9,1990.397183083,1990.463046625,1991.402724041,1992.862774291,1,1.05372191599986
139,9,11,categorization,0,kitchen,SHINEd_sun_agubuxuukhzyzpdp.tif,88,0.0666666666666667,0.0666666666666667,1.06666666666667,1992.87271725,1993.552336791,9,1992.937811208,1993.003846083,1993.577323833,1994.637377083,1,0.679619540999965
139,10,11,categorization,0,kitchen,SHINEd_sun_aapllqyqlykszopd.tif,66,0.0666666666666667,0.0666666666666667,0.8,1994.6485355,1995.264701958,9,1994.713295958,1994.775389875,1995.281467791,1996.074852041,1,0.616166457999952
139,11,11,categorization,0,kitchen,SHINEd_sun_avszsnwsbuqfgzbn.tif,105,0.0666666666666667,0.0666666666666667,1.41666666666667,1996.090451708,1996.846869,9,1996.156939541,1996.2227715,1996.858070666,1998.268103041,1,0.756417291999924
139,12,11,categorization,0,kitchen,SHINEd_sun_awcpdzzznmweyyhv.tif,106,0.0666666666666667,0.0666666666666667,1.71666666666667,1998.28551725,1999.069099333,9,1998.352079208,1998.417888958,1999.091300875,2000.801347666,1,0.783582082999828
139,13,11,categorization,0,kitchen,SHINEd_sun_aeqdocilnnpuvuhx.tif,83,0.0666666666666667,0.0666666666666667,0.833333333333333,2000.81257425,2001.409508125,9,2000.876925,2000.94354825,2001.433460958,2002.260135625,1,0.596933875000104
139,14,11,categorization,0,kitchen,SHINEd_sun_ahspylgoovwmwvgk.tif,93,0.0666666666666667,0.0666666666666667,0.783333333333333,2002.266012916,2002.991604708,9,2002.327636,2002.389078125,2003.007509458,2003.784180291,1,0.725591792000159
139,15,11,categorization,0,bathroom,SHINEd_sun_acgyywnybuveqsro.tif,18,0.0666666666666667,0.0666666666666667,0.866666666666667,2003.789149083,2004.35097425,9,2003.850829541,2003.911736166,2004.363779916,2005.22378525,0,0.561825167000052
139,16,11,categorization,0,bathroom,SHINEd_sun_aghyqhbptboemmoq.tif,23,0.0666666666666667,0.0666666666666667,1.08333333333333,2005.228887291,2006.799371583,13,2005.290548291,2005.351512083,2006.803606083,2007.880325833,1,1.57048429199995
139,17,11,categorization,0,bathroom,SHINEd_sun_apkruvsevgegsdwp.tif,44,0.0666666666666667,0.0666666666666667,1.1,2007.890499666,2009.194765083,13,2007.956361916,2008.022721208,2009.214970333,2010.308349583,1,1.3042654169999
139,18,11,categorization,0,bathroom,SHINEd_sun_akiytfaagpdsphgz.tif,31,0.0666666666666667,0.0666666666666667,1.5,2010.31846475,2011.330780291,13,2010.38370825,2010.451025583,2011.3576395,2012.850993041,1,1.01231554100013
139,19,11,categorization,0,bathroom,SHINEd_sun_aleqenyvunhactkl.tif,32,0.0666666666666667,0.0666666666666667,0.833333333333333,2012.860296541,2013.879568416,13,2012.925242625,2012.992161916,2013.898778166,2014.725450416,1,1.01927187499996
139,20,11,categorization,0,kitchen,SHINEd_sun_axyyrmzcupyhlivc.tif,107,0.0666666666666667,0.0666666666666667,1.76666666666667,2014.731125208,2015.974802333,9,2014.792913083,2014.854119208,2015.990041875,2017.750094291,1,1.24367712499998
139,21,11,categorization,0,bathroom,SHINEd_sun_afcoljnjfoxjtgja.tif,20,0.0666666666666667,0.0666666666666667,1.18333333333333,2017.766587625,2018.564878333,9,2017.8346185,2017.897449708,2018.587518958,2019.764230083,0,0.798290707999968
139,22,11,categorization,0,kitchen,SHINEd_sun_ahywdevtimnqcsln.tif,94,0.0666666666666667,0.0666666666666667,0.933333333333333,2019.775290708,2020.921878791,9,2019.841921541,2019.907653708,2020.946149583,2021.872821208,1,1.14658808299987
139,23,11,categorization,0,bathroom,SHINEd_sun_ambriybtogmepttm.tif,36,0.0666666666666667,0.0666666666666667,0.716666666666667,2021.8779555,2023.01459775,9,2021.939776916,2022.000500541,2023.019011666,2023.729015666,0,1.1366422499998
139,24,11,categorization,0,bathroom,SHINEd_sun_ausgutylgojavyoq.tif,53,0.0666666666666667,0.0666666666666667,1.25,2023.734349375,2024.830869625,9,2023.796073708,2023.857045916,2024.842452416,2026.085826291,0,1.09652025000014
139,25,11,categorization,0,kitchen,SHINEd_sun_aggjlwcdjsjcaemh.tif,86,0.0666666666666667,0.0666666666666667,0.866666666666667,2026.102851333,2026.945561208,9,2026.169697208,2026.235490125,2026.956556666,2027.816595791,1,0.842709875000082
139,26,11,categorization,0,bathroom,SHINEd_labelme_sfxiulhjbhlyiyt.tif,11,0.0666666666666667,0.0666666666666667,1.08333333333333,2027.83228625,2028.671612291,9,2027.89842025,2027.963056125,2028.681952041,2029.758650041,0,0.839326041000049
139,27,11,categorization,0,kitchen,SHINEd_sun_akchetnepxlcxhsu.tif,98,0.0666666666666667,0.0666666666666667,1.9,2029.768290083,2030.6204755,9,2029.832707708,2029.900854708,2030.640829791,2032.534193083,1,0.852185417000101
139,28,11,categorization,0,kitchen,SHINEd_sun_ahdycvpopffkzzsu.tif,90,0.0666666666666667,0.0666666666666667,0.866666666666667,2032.552716083,2034.326617458,13,2032.619444625,2032.6851545,2034.337763458,2035.197767583,0,1.77390137500015
139,29,11,categorization,0,bathroom,SHINEd_sun_aclfzgynxzxlbepz.tif,19,0.0666666666666667,0.0666666666666667,1.05,2035.202488625,2036.199261833,13,2035.264224666,2035.325241833,2036.21057925,2037.253962666,1,0.99677320800015
139,30,11,categorization,0,kitchen,SHINEd_sun_ahpczsiumwwocjkv.tif,92,0.0666666666666667,0.0666666666666667,1.65,2037.264570166,2038.390199958,9,2037.329600666,2037.395554291,2038.419821041,2040.063190041,1,1.12562979199993
139,31,11,categorization,0,bathroom,SHINEd_sun_auzqhkafidnkrwmo.tif,54,0.0666666666666667,0.0666666666666667,0.716666666666667,2040.080573916,2041.340686958,13,2040.147982333,2040.213057875,2041.351954375,2042.061958333,1,1.26011304200006
139,32,11,categorization,0,bathroom,SHINEd_sun_awnqiikzaispgmwo.tif,56,0.0666666666666667,0.0666666666666667,1.36666666666667,2042.06668975,2042.966672583,13,2042.128488291,2042.189421166,2042.974708333,2044.334748583,1,0.899982832999967
139,33,11,categorization,0,kitchen,SHINEd_sun_auaiucuqpdausiva.tif,102,0.0666666666666667,0.0666666666666667,1.11666666666667,2044.352416416,2045.48834175,13,2044.420549375,2044.4848115,2045.50794675,2046.617992916,0,1.13592533399992
139,34,11,categorization,0,bathroom,SHINEd_sun_apkxzenqapsujocq.tif,45,0.0666666666666667,0.0666666666666667,0.983333333333333,2046.6281465,2047.395332916,13,2046.692292666,2046.760638125,2047.417538958,2048.394255416,1,0.767186415999959
139,35,11,categorization,0,bathroom,SHINEd_sun_azqyogdvyhahyram.tif,60,0.0666666666666667,0.0666666666666667,1.15,2048.407475166,2049.207436166,13,2048.47478125,2048.540470041,2049.225741166,2050.369131791,1,0.799961000000167
139,36,11,categorization,0,bathroom,SHINEd_sun_ahaulkltgpkeeemi.tif,26,0.0666666666666667,0.0666666666666667,1.08333333333333,2050.377948625,2051.899578625,13,2050.444795625,2050.510465625,2051.918129791,2052.994853083,1,1.52162999999973
139,37,11,categorization,0,bathroom,SHINEd_sun_asfwthctfqerjvxr.tif,49,0.0666666666666667,0.0666666666666667,1.21666666666667,2053.004480708,2054.023651583,13,2053.069631916,2053.1360585,2054.043500375,2055.253557208,1,1.01917087500033
139,38,11,categorization,0,bathroom,SHINEd_sun_aljolscmmzydegqp.tif,33,0.0666666666666667,0.0666666666666667,0.783333333333333,2055.272768416,2056.198076333,13,2055.339831416,2055.405519875,2056.2111615,2056.987881291,1,0.925307916999827
139,39,11,categorization,0,kitchen,SHINEd_sun_aypmqwcualkenuoe.tif,109,0.0666666666666667,0.0666666666666667,1,2056.998711125,2058.3586705,9,2057.065749791,2057.131668875,2058.3676255,2059.360965166,1,1.35995937499956
139,40,11,categorization,0,bathroom,SHINEd_sun_alotolagknyrgtsk.tif,35,0.0666666666666667,0.0666666666666667,1.83333333333333,2059.366383166,2060.206942666,9,2059.428036916,2059.489116458,2060.224245958,2062.050965291,0,0.840559499999927
139,41,11,categorization,0,kitchen,SHINEd_sun_aaxxjlsuzvqlgylf.tif,68,0.0666666666666667,0.0666666666666667,1.15,2062.068928541,2062.904657208,9,2062.135408875,2062.201746708,2062.923330541,2064.066698,1,0.83572866700024
139,42,11,categorization,0,bathroom,SHINEd_sun_axyrejkiiaqiurjk.tif,59,0.0666666666666667,0.0666666666666667,1.33333333333333,2064.077937208,2064.809254958,9,2064.144088458,2064.210535041,2064.83430375,2066.161009333,0,0.731317750000017
139,43,11,categorization,0,kitchen,SHINEd_sun_adgqasybjyktddhj.tif,78,0.0666666666666667,0.0666666666666667,1.11666666666667,2066.1796495,2067.066064125,9,2066.246312583,2066.312380375,2067.085404875,2068.195442125,1,0.88641462500027
139,44,11,categorization,0,kitchen,SHINEd_sun_auticobqsbwgoppi.tif,104,0.0666666666666667,0.0666666666666667,1.91666666666667,2068.207312083,2069.107517208,9,2068.272058875,2068.339748083,2069.1300195,2071.0400525,1,0.900205124999957
139,45,11,categorization,0,bathroom,SHINEd_sun_aunuadmjocsddsrl.tif,52,0.0666666666666667,0.0666666666666667,0.783333333333333,2071.055004458,2071.652305166,9,2071.121547166,2071.187338916,2071.677271416,2072.45394475,0,0.597300708000148
139,46,11,categorization,0,bathroom,SHINEd_sun_acduarbnmmoglmiv.tif,16,0.0666666666666667,0.0666666666666667,1,2072.459726458,2073.126603333,13,2072.521444541,2072.58234925,2073.134258708,2074.127596125,1,0.666876874999616
139,47,11,categorization,0,kitchen,SHINEd_sun_ajcbwwvdlsvjyzje.tif,96,0.0666666666666667,0.0666666666666667,1.38333333333333,2074.132400291,2074.622388041,13,2074.1940905,2074.254986208,2074.640144166,2076.016861625,0,0.489987749999727
139,48,11,categorization,0,kitchen,SHINEd_sun_aenotlpyftoioydp.tif,82,0.0666666666666667,0.0666666666666667,1.55,2076.034961041,2076.70366425,13,2076.102045125,2076.167455541,2076.72373525,2078.2671225,0,0.668703209000341
139,49,11,categorization,0,bathroom,SHINEd_sun_amzlamotzwfkwjco.tif,37,0.0666666666666667,0.0666666666666667,1.03333333333333,2078.281775333,2079.48309975,13,2078.348845833,2078.414519875,2079.504775166,2080.531492875,1,1.2013244169998
139,50,11,categorization,0,kitchen,SHINEd_sun_afuyedyxivkhecmu.tif,85,0.0666666666666667,0.0666666666666667,1.46666666666667,2080.543276041,2081.331999291,13,2080.608304583,2080.67414125,2081.346699083,2082.806739083,0,0.788723250000203
