sub_num,trial,block,task,is_practice,category,image,texture,duration,mask_dur,jitter,stim_time,time_of_resp,trial_response,mask_time,fix_time,jit_onset,trial_end,trial_accuracy,RT
111,6,0,usability,1,kitchen,kitchen_practice2.tif,227,1.5,0,1.13333333333333,2802.123281833,2806.1709575,5,NaN,2806.177518708,2806.195832083,2807.322538041,NaN,NaN
111,7,0,usability,1,kitchen,kitchen_practice3.tif,228,1.5,0,0.933333333333333,2807.333821291,2810.130879166,7,NaN,2810.136828208,2810.155114833,2811.081786041,NaN,NaN
111,8,0,usability,1,kitchen,kitchen_practice1.tif,226,1.5,0,1.48333333333333,2811.086218666,2813.928078791,6,NaN,2813.954088958,2813.977530708,2815.454247708,NaN,NaN
111,9,0,usability,1,kitchen,kitchen_practice4.tif,229,1.5,0,1.33333333333333,2815.468465333,2818.515649791,6,NaN,2818.521068166,2818.53943,2819.8661505,NaN,NaN
111,10,0,usability,1,kitchen,kitchen_practice5.tif,230,1.5,0,1.3,2819.881488041,2822.515489708,4,NaN,2822.520937458,2822.539263708,2823.832654083,NaN,NaN
111,1,1,usability,0,kitchen,sun_amjjdeyrggfqgmom.tif,210,1.5,0,1.91666666666667,2828.111744666,2830.894715166,6,NaN,2830.922837916,2830.945967541,2832.856014041,NaN,NaN
111,2,1,usability,0,kitchen,sun_aymvwlarqodbwuoc.tif,218,1.5,0,0.85,2832.875359541,2835.50104475,5,NaN,2835.527843416,2835.551213708,2836.394552875,NaN,NaN
111,3,1,usability,0,kitchen,labelme_rykdqxenmhulbdn.tif,173,1.5,0,0.7,2836.399235166,2839.347221708,4,NaN,2839.376121,2839.399083083,2840.0924225,NaN,NaN
111,4,1,usability,0,kitchen,sun_adgqasybjyktddhj.tif,188,1.5,0,1.6,2840.097196708,2843.084576583,6,NaN,2843.107001833,2843.130181,2844.723566625,NaN,NaN
111,5,1,usability,0,kitchen,sun_aehawpgmrlhlvcow.tif,191,1.5,0,1.13333333333333,2844.742591041,2847.451319916,6,NaN,2847.456801375,2847.4752305,2848.601926875,NaN,NaN
111,6,1,usability,0,kitchen,sun_aadbddgrdsjugojn.tif,174,1.5,0,0.716666666666667,2848.610557791,2851.514745291,3,NaN,2851.520644041,2851.539144625,2852.249149583,NaN,NaN
111,7,1,usability,0,kitchen,sun_acwjdupvyjsugpay.tif,186,1.5,0,1.6,2852.253270291,2854.808711333,4,NaN,2854.837215333,2854.860275708,2856.453645083,NaN,NaN
111,8,1,usability,0,kitchen,sun_aixorpehvfykdynp.tif,205,1.5,0,1.68333333333333,2856.471210916,2859.082500916,5,NaN,2859.112385083,2859.135347,2860.812053666,NaN,NaN
111,9,1,usability,0,kitchen,sun_auaiucuqpdausiva.tif,212,1.5,0,1.41666666666667,2860.829114916,2864.539430083,7,NaN,2864.544787541,2864.563119166,2865.973153083,NaN,NaN
111,10,1,usability,0,kitchen,sun_aamedkxepzlwuxes.tif,175,1.5,0,1,2865.992202166,2868.570960041,3,NaN,2868.576599458,2868.59483375,2869.588173208,NaN,NaN
111,11,1,usability,0,kitchen,sun_ahpczsiumwwocjkv.tif,202,1.5,0,1.33333333333333,2869.593248,2871.939320958,7,NaN,2871.962346541,2871.984404791,2873.311121125,NaN,NaN
111,12,1,usability,0,kitchen,sun_aenotlpyftoioydp.tif,192,1.5,0,1.15,2873.329595875,2875.9876145,1,NaN,2875.992975,2876.011234583,2877.154620208,NaN,NaN
111,13,1,usability,0,kitchen,sun_aexklacwqwezaorf.tif,194,1.5,0,1.86666666666667,2877.165157666,2880.499160791,7,NaN,2880.50461175,2880.522926583,2882.382979875,NaN,NaN
111,14,1,usability,0,kitchen,sun_aapllqyqlykszopd.tif,176,1.5,0,1.18333333333333,2882.401062208,2885.172565333,5,NaN,2885.201199541,2885.224350666,2886.401069208,NaN,NaN
111,15,1,usability,0,kitchen,sun_ahywdevtimnqcsln.tif,204,1.5,0,1.71666666666667,2886.410880458,2889.21150175,2,NaN,2889.21706975,2889.235382958,2890.945435166,NaN,NaN
111,16,1,usability,0,kitchen,sun_aggjlwcdjsjcaemh.tif,196,1.5,0,1.1,2890.963951291,2893.886510166,4,NaN,2893.914733625,2893.937619083,2895.030985458,NaN,NaN
111,17,1,usability,0,kitchen,sun_acxkpeoqbwcxfvip.tif,187,1.5,0,0.983333333333333,2895.040444875,2897.546969083,5,NaN,2897.5524855,2897.571100041,2898.547773125,NaN,NaN
111,18,1,usability,0,kitchen,sun_aeqdocilnnpuvuhx.tif,193,1.5,0,0.916666666666667,2898.552912416,2901.44226525,5,NaN,2901.470118125,2901.493661875,2902.403666291,NaN,NaN
111,19,1,usability,0,kitchen,sun_akcjzhbbjlbogpdi.tif,209,1.5,0,0.716666666666667,2902.408251916,2905.404892083,2,NaN,2905.43329075,2905.456604875,2906.166608041,NaN,NaN
111,20,1,usability,0,kitchen,sun_ajcbwwvdlsvjyzje.tif,206,1.5,0,0.883333333333333,2906.171260333,2908.941818458,4,NaN,2908.997140333,2909.020512583,2909.897184791,NaN,NaN
111,21,1,usability,0,kitchen,sun_azmutvzbxypaceni.tif,220,1.5,0,1.93333333333333,2909.901808166,2912.587987875,5,NaN,2912.610017333,2912.631766333,2914.558467208,NaN,NaN
111,22,1,usability,0,kitchen,sun_awcpdzzznmweyyhv.tif,216,1.5,0,0.9,2914.578636666,2917.379148625,6,NaN,2917.407800166,2917.430676708,2918.324013791,NaN,NaN
111,23,1,usability,0,kitchen,sun_aunzlwrbjumxhwdj.tif,213,1.5,0,1.13333333333333,2918.328762458,2921.102987833,1,NaN,2921.130600041,2921.15380275,2922.28051375,NaN,NaN
111,24,1,usability,0,kitchen,labelme_kxvouciolcpqplr.tif,172,1.5,0,0.766666666666667,2922.288934458,2925.010666833,2,NaN,2925.01648225,2925.035155125,2925.795158791,NaN,NaN
111,25,1,usability,0,kitchen,sun_agubuxuukhzyzpdp.tif,198,1.5,0,0.966666666666667,2925.799447708,2928.628301583,5,NaN,2928.651678125,2928.674369083,2929.634373583,NaN,NaN
111,1,2,usability,0,kitchen,sun_ajkqhtgcbgpcwrwn.tif,207,1.5,0,1.56666666666667,2933.653478583,2936.470450291,3,NaN,2936.496315125,2936.519460333,2938.079499541,NaN,NaN
111,2,2,usability,0,kitchen,sun_avszsnwsbuqfgzbn.tif,215,1.5,0,1.2,2938.096923416,2941.641986333,5,NaN,2941.670499,2941.693279875,2942.886660083,NaN,NaN
111,3,2,usability,0,kitchen,sun_admlmbcdswaszruo.tif,189,1.5,0,1.73333333333333,2942.900352958,2946.011393041,6,NaN,2946.016931458,2946.035206333,2947.761930541,NaN,NaN
111,4,2,usability,0,kitchen,sun_abdxkyyxwfskuaqb.tif,180,1.5,0,1.61666666666667,2947.778196583,2950.459139541,5,NaN,2950.487238416,2950.510560166,2952.120601083,NaN,NaN
111,5,2,usability,0,kitchen,sun_aypmqwcualkenuoe.tif,219,1.5,0,1.38333333333333,2952.138674041,2955.203435583,6,NaN,2955.208765333,2955.227024,2956.603708791,NaN,NaN
111,6,2,usability,0,kitchen,sun_agzzivivdpnawacl.tif,199,1.5,0,1.73333333333333,2956.613262291,2959.778679208,4,NaN,2959.784391416,2959.802840625,2961.529560708,NaN,NaN
111,7,2,usability,0,kitchen,sun_aaxxjlsuzvqlgylf.tif,178,1.5,0,1.96666666666667,2961.546000458,2964.252266833,7,NaN,2964.280563583,2964.303838125,2966.263894083,NaN,NaN
111,8,2,usability,0,kitchen,sun_abftihopvusyfakt.tif,181,1.5,0,0.883333333333333,2966.279589041,2968.868119916,5,NaN,2968.896761958,2968.919865958,2969.796536666,NaN,NaN
111,9,2,usability,0,kitchen,sun_agorklincwxrdtga.tif,197,1.5,0,1.06666666666667,2969.801051916,2972.523679875,6,NaN,2972.552330416,2972.575646541,2973.635681833,NaN,NaN
111,10,2,usability,0,kitchen,labelme_brsyyvweiuaazfr.tif,171,1.5,0,1.06666666666667,2973.644552833,2976.74666475,4,NaN,2976.752575458,2976.771013875,2977.831065583,NaN,NaN
111,11,2,usability,0,kitchen,sun_afuyedyxivkhecmu.tif,195,1.5,0,0.966666666666667,2977.842571708,2980.594409708,3,NaN,2980.600304625,2980.61862225,2981.578625958,NaN,NaN
111,12,2,usability,0,kitchen,sun_aegoxogugdkwpmpj.tif,190,1.5,0,1.78333333333333,2981.583132916,2984.278564375,4,NaN,2984.306553375,2984.329360958,2986.106077541,NaN,NaN
111,13,2,usability,0,kitchen,sun_axyyrmzcupyhlivc.tif,217,1.5,0,1.68333333333333,2986.12434275,2988.785605416,5,NaN,2988.813808416,2988.8371695,2990.513891958,NaN,NaN
111,14,2,usability,0,kitchen,sun_abpwyqmlzafvklqo.tif,182,1.5,0,0.983333333333333,2990.528581833,2993.620050625,2,NaN,2993.648926708,2993.672173875,2994.648845541,NaN,NaN
111,15,2,usability,0,kitchen,sun_abdenxonkemggwsq.tif,179,1.5,0,1.33333333333333,2994.653481375,2997.372146333,4,NaN,2997.399533625,2997.422340958,2998.749049666,NaN,NaN
111,16,2,usability,0,kitchen,sun_acgtpgfybqjmzeyw.tif,185,1.5,0,1.56666666666667,2998.767335,3001.506921625,3,NaN,3001.512387833,3001.530743541,3003.090799958,NaN,NaN
111,17,2,usability,0,kitchen,sun_ahspylgoovwmwvgk.tif,203,1.5,0,1.66666666666667,3003.110653875,3007.931166875,5,NaN,3007.936965625,3007.955372375,3009.615415875,NaN,NaN
111,18,2,usability,0,kitchen,sun_auticobqsbwgoppi.tif,214,1.5,0,1.86666666666667,3009.634077875,3012.611601583,2,NaN,3012.62915475,3012.652757416,3014.51281675,NaN,NaN
111,19,2,usability,0,kitchen,sun_aqeaevwwwjoqhzvl.tif,211,1.5,0,1.95,3014.5281055,3018.098749,4,NaN,3018.105524208,3018.123919916,3020.06730575,NaN,NaN
111,20,2,usability,0,kitchen,sun_acfmftudsenhrfhy.tif,184,1.5,0,0.966666666666667,3020.086862166,3022.875513958,4,NaN,3022.904759791,3022.928403291,3023.888407875,NaN,NaN
111,21,2,usability,0,kitchen,sun_abrcnpqqhmjwekyf.tif,183,1.5,0,1.43333333333333,3023.89269375,3026.778467166,4,NaN,3026.803188041,3026.825751,3028.252465875,NaN,NaN
111,22,2,usability,0,kitchen,sun_ahdycvpopffkzzsu.tif,200,1.5,0,0.85,3028.271150291,3031.763233083,2,NaN,3031.768638,3031.787005291,3032.630343416,NaN,NaN
111,23,2,usability,0,kitchen,sun_ahljzhgcdpomplvg.tif,201,1.5,0,1.53333333333333,3032.634689583,3035.171551125,4,NaN,3035.199699083,3035.222591541,3036.749306708,NaN,NaN
111,24,2,usability,0,kitchen,sun_akchetnepxlcxhsu.tif,208,1.5,0,1.18333333333333,3036.767467666,3039.546687041,4,NaN,3039.552421333,3039.570880541,3040.74759975,NaN,NaN
111,25,2,usability,0,kitchen,sun_aarfiyshqohlwkmo.tif,177,1.5,0,1.86666666666667,3040.757856083,3043.33030825,3,NaN,3043.33613325,3043.35449125,3045.214537208,NaN,NaN
