sub_num,trial,block,task,is_practice,category,image,texture,duration,mask_dur,jitter,stim_time,time_of_resp,trial_response,mask_time,fix_time,jit_onset,trial_end,trial_accuracy,RT
102,1,0,typicality,1,bathroom,bathroom_practice2.tif,222,1.5,0,1.48333333333333,18239.335087416,18253.555594125,2,NaN,18253.579902583,18253.600342041,18255.077370541,NaN,NaN
102,2,0,typicality,1,bathroom,bathroom_practice4.tif,224,1.5,0,0.75,18255.149195625,18266.875365291,1,NaN,18266.885994291,18266.904814833,18267.648168,NaN,NaN
102,3,0,typicality,1,bathroom,bathroom_practice1.tif,221,1.5,0,1.93333333333333,18267.654401875,18272.939611041,3,NaN,18272.947353291,18272.966223333,18274.893076291,NaN,NaN
102,4,0,typicality,1,bathroom,bathroom_practice5.tif,225,1.5,0,0.983333333333333,18274.93053725,18280.771558375,6,NaN,18280.779822375,18280.798797333,18281.775477583,NaN,NaN
102,5,0,typicality,1,bathroom,bathroom_practice3.tif,223,1.5,0,0.883333333333333,18281.783822291,18287.986780708,3,NaN,18287.997664125,18288.017254791,18288.89399625,NaN,NaN
102,1,1,typicality,0,bathroom,sun_aapitsgbtktqubfy.tif,122,1.5,0,0.866666666666667,18296.665087041,18302.371545,6,NaN,18302.378100041,18302.396613291,18303.256631041,NaN,NaN
102,2,1,typicality,0,bathroom,sun_aleqenyvunhactkl.tif,142,1.5,0,1.03333333333333,18303.262853958,18307.795470375,3,NaN,18307.802671625,18307.821437625,18308.848144125,NaN,NaN
102,3,1,typicality,0,bathroom,sun_ajlawzvmubibwbpy.tif,140,1.5,0,0.866666666666667,18308.860415,18313.939090625,4,NaN,18313.9450385,18313.963294041,18314.8233,NaN,NaN
102,4,1,typicality,0,bathroom,sun_alkosphxlxwjwgjd.tif,144,1.5,0,1.61666666666667,18314.82915575,18322.387180541,4,NaN,18322.394041625,18322.414444458,18324.024486125,NaN,NaN
102,5,1,typicality,0,bathroom,sun_anhioqovhscjqqwb.tif,148,1.5,0,0.883333333333333,18324.043317833,18330.379485708,5,NaN,18330.385114,18330.40341525,18331.280086875,NaN,NaN
102,6,1,typicality,0,bathroom,sun_alotolagknyrgtsk.tif,145,1.5,0,0.933333333333333,18331.284602916,18336.8828445,1,NaN,18336.889931208,18336.908678208,18337.835348791,NaN,NaN
102,7,1,typicality,0,bathroom,sun_aghyqhbptboemmoq.tif,133,1.5,0,1.5,18337.843920083,18341.987483916,7,NaN,18341.993122791,18342.0114745,18343.50484525,NaN,NaN
102,8,1,typicality,0,bathroom,sun_asfwthctfqerjvxr.tif,159,1.5,0,1.36666666666667,18343.5221555,18349.659469083,3,NaN,18349.665420083,18349.683804458,18351.043841791,NaN,NaN
102,9,1,typicality,0,bathroom,sun_agyqfjcfkdcydepw.tif,135,1.5,0,0.85,18351.062142916,18354.722874083,1,NaN,18354.728936,18354.747188541,18355.590527041,NaN,NaN
102,10,1,typicality,0,bathroom,sun_apeeialkgkuxddgh.tif,152,1.5,0,1.81666666666667,18355.5957205,18359.355158625,7,NaN,18359.36074675,18359.379114458,18361.189150625,NaN,NaN
102,11,1,typicality,0,bathroom,sun_acegryoqftbzowsg.tif,127,1.5,0,1.28333333333333,18361.20686075,18365.211276666,3,NaN,18365.216965666,18365.235482458,18366.512183041,NaN,NaN
102,12,1,typicality,0,bathroom,sun_anryaplzeujmzfkd.tif,149,1.5,0,1.23333333333333,18366.527649333,18374.339036416,4,NaN,18374.344676708,18374.362951833,18375.589651833,NaN,NaN
102,13,1,typicality,0,bathroom,sun_amzlamotzwfkwjco.tif,147,1.5,0,0.883333333333333,18375.606387,18381.818600083,3,NaN,18381.82475075,18381.84321875,18382.719889833,NaN,NaN
102,14,1,typicality,0,bathroom,sun_afcoljnjfoxjtgja.tif,130,1.5,0,0.866666666666667,18382.724943291,18386.834645166,2,NaN,18386.84077025,18386.859130416,18387.71913475,NaN,NaN
102,15,1,typicality,0,bathroom,sun_aclfzgynxzxlbepz.tif,129,1.5,0,1.36666666666667,18387.723765041,18391.314634833,7,NaN,18391.320488916,18391.338929458,18392.698959458,NaN,NaN
102,16,1,typicality,0,bathroom,sun_acduarbnmmoglmiv.tif,126,1.5,0,1.05,18392.717311166,18396.130452833,6,NaN,18396.136377333,18396.154807625,18397.198176958,NaN,NaN
102,17,1,typicality,0,bathroom,sun_auzqhkafidnkrwmo.tif,164,1.5,0,1.21666666666667,18397.211408375,18401.194488833,7,NaN,18401.200418125,18401.218695125,18402.428744791,NaN,NaN
102,18,1,typicality,0,bathroom,sun_aofnryafpsjimzsb.tif,150,1.5,0,0.816666666666667,18402.449341875,18406.386803541,2,NaN,18406.392565916,18406.411010166,18407.221014,NaN,NaN
102,19,1,typicality,0,bathroom,sun_apmqjbnwghzuhhzh.tif,156,1.5,0,1,18407.225675833,18411.802390083,3,NaN,18411.80821875,18411.826641375,18412.819979291,NaN,NaN
102,20,1,typicality,0,bathroom,sun_abjtwfukuwddzted.tif,125,1.5,0,1.21666666666667,18412.824697583,18417.48273975,5,NaN,18417.488395791,18417.506659125,18418.716690666,NaN,NaN
102,21,1,typicality,0,bathroom,sun_awnqiikzaispgmwo.tif,166,1.5,0,1.46666666666667,18418.730692458,18422.642134791,7,NaN,18422.648336291,18422.666864166,18424.126909333,NaN,NaN
102,22,1,typicality,0,bathroom,sun_aljolscmmzydegqp.tif,143,1.5,0,1.4,18424.136757375,18431.474700166,1,NaN,18431.480246166,18431.49859825,18432.891982,NaN,NaN
102,23,1,typicality,0,bathroom,sun_abapwbhyhkfixyex.tif,124,1.5,0,0.783333333333333,18432.908107375,18436.282392583,7,NaN,18436.288057833,18436.306445125,18437.083117333,NaN,NaN
102,24,1,typicality,0,bathroom,labelme_sfxiulhjbhlyiyt.tif,121,1.5,0,1.21666666666667,18437.093487333,18445.586692,7,NaN,18445.593887041,18445.613190208,18446.823205958,NaN,NaN
102,25,1,typicality,0,bathroom,sun_axldvoqbuvuggfmq.tif,167,1.5,0,1.35,18446.830551708,18449.706040625,7,NaN,18449.711908083,18449.730188833,18451.073571,NaN,NaN
102,1,2,typicality,0,bathroom,sun_aoybiabnpadelefl.tif,151,1.5,0,1.65,18467.291119083,18473.09090825,1,NaN,18473.096703166,18473.1151285,18474.7585025,NaN,NaN
102,2,2,typicality,0,bathroom,sun_apkruvsevgegsdwp.tif,154,1.5,0,1.01666666666667,18474.778326833,18478.722009291,4,NaN,18478.728155375,18478.746475875,18479.75652025,NaN,NaN
102,3,2,typicality,0,bathroom,sun_ahijqszoswveeyji.tif,138,1.5,0,1.58333333333333,18479.767147083,18483.35429025,7,NaN,18483.359931083,18483.378380375,18484.955079208,NaN,NaN
102,4,2,typicality,0,bathroom,sun_aunuadmjocsddsrl.tif,162,1.5,0,0.7,18484.972018,18488.313348416,5,NaN,18488.339749291,18488.363617291,18489.05695575,NaN,NaN
102,5,2,typicality,0,bathroom,sun_apkxzenqapsujocq.tif,155,1.5,0,1.23333333333333,18489.061467833,18492.202744458,7,NaN,18492.215156,18492.234313416,18493.461033708,NaN,NaN
102,6,2,typicality,0,bathroom,sun_akiytfaagpdsphgz.tif,141,1.5,0,0.816666666666667,18493.477542625,18498.994893166,3,NaN,18499.000456833,18499.01884175,18499.828846583,NaN,NaN
102,7,2,typicality,0,bathroom,sun_agrwbmhcpmfuwmsg.tif,134,1.5,0,0.733333333333333,18499.833438625,18729.321405583,4,NaN,18729.327344083,18729.345679708,18730.0723515,NaN,NaN
102,8,2,typicality,0,bathroom,sun_agguqiubmwhqqunb.tif,132,1.5,0,1.15,18730.077030291,18736.35342625,4,NaN,18736.359180875,18736.377470791,18737.520841166,NaN,NaN
102,9,2,typicality,0,bathroom,sun_axyrejkiiaqiurjk.tif,169,1.5,0,0.933333333333333,18737.529957916,18742.577823291,2,NaN,18742.583565666,18742.601979625,18743.528651083,NaN,NaN
102,10,2,typicality,0,bathroom,sun_aavhrsfjbserjtht.tif,123,1.5,0,0.916666666666667,18743.533214083,18747.225738208,3,NaN,18747.231269625,18747.249592333,18748.159596625,NaN,NaN
102,11,2,typicality,0,bathroom,sun_avhrdrntsqrjzccq.tif,165,1.5,0,1.26666666666667,18748.164286875,18751.361788833,1,NaN,18751.368162291,18751.386766916,18752.646823333,NaN,NaN
102,12,2,typicality,0,bathroom,sun_aqrpegblszgcoujh.tif,158,1.5,0,0.933333333333333,18752.663006958,18755.993088166,6,NaN,18755.998748,18756.017095083,18756.943766458,NaN,NaN
102,13,2,typicality,0,bathroom,sun_ambriybtogmepttm.tif,146,1.5,0,1,18756.958726083,18761.808931583,2,NaN,18761.814885333,18761.833332083,18762.826670375,NaN,NaN
102,14,2,typicality,0,bathroom,sun_acgyywnybuveqsro.tif,128,1.5,0,1,18762.841991208,18766.097065625,2,NaN,18766.103115041,18766.121284375,18767.114621916,NaN,NaN
102,15,2,typicality,0,bathroom,sun_aggnnqpdorgxpvce.tif,131,1.5,0,1.21666666666667,18767.119296333,18771.809728,5,NaN,18771.81533225,18771.833967833,18773.044005041,NaN,NaN
102,16,2,typicality,0,bathroom,sun_apjevzvycyhuqghb.tif,153,1.5,0,1.85,18773.059078625,18776.856892666,6,NaN,18776.8629155,18776.881367791,18778.724740708,NaN,NaN
102,17,2,typicality,0,bathroom,sun_aspsyogrekjtfozg.tif,160,1.5,0,0.766666666666667,18778.7416145,18781.844427,2,NaN,18781.87368425,18781.89651375,18782.656519125,NaN,NaN
102,18,2,typicality,0,bathroom,sun_axxbkopsgyouuebh.tif,168,1.5,0,0.966666666666667,18782.661261791,18785.713360458,7,NaN,18785.722666791,18785.741908625,18786.701913916,NaN,NaN
102,19,2,typicality,0,bathroom,sun_ahaulkltgpkeeemi.tif,136,1.5,0,1.4,18786.706437541,18790.008853375,6,NaN,18790.015202416,18790.033718416,18791.427099791,NaN,NaN
102,20,2,typicality,0,bathroom,sun_apynckhmoftszqoq.tif,157,1.5,0,0.933333333333333,18791.4436315,18795.7053025,6,NaN,18795.711183208,18795.729565916,18796.656237375,NaN,NaN
102,21,2,typicality,0,bathroom,sun_ahqjwnzgolcaoidx.tif,139,1.5,0,1.7,18796.66090675,18801.224748166,6,NaN,18801.230655083,18801.248951,18802.942338875,NaN,NaN
102,22,2,typicality,0,bathroom,sun_ahcvzmoyaycdoftf.tif,137,1.5,0,0.916666666666667,18802.962270166,18805.586936458,7,NaN,18805.604896875,18805.627716375,18806.537720958,NaN,NaN
102,23,2,typicality,0,bathroom,sun_ausgutylgojavyoq.tif,163,1.5,0,0.833333333333333,18806.5436195,18811.008783458,2,NaN,18811.014545166,18811.032927833,18811.859599083,NaN,NaN
102,24,2,typicality,0,bathroom,sun_azqyogdvyhahyram.tif,170,1.5,0,0.783333333333333,18811.86388975,18814.889078625,7,NaN,18814.918452416,18814.941945916,18815.718616958,NaN,NaN
102,25,2,typicality,0,bathroom,sun_atstyziqcmkahyxk.tif,161,1.5,0,1.4,18815.723399083,18818.453108416,7,NaN,18818.476816458,18818.499689958,18819.893056083,NaN,NaN
