sub_num,trial,block,task,is_practice,category,image,texture,duration,blank,mask_dur,jitter,stim_time,time_of_resp,trial_response,blank_time,mask_time,fix_time,jit_onset,trial_end,trial_accuracy,RT
109,1,0,categorization,1,bathroom,SHINEd_bathroom_practice3.tif,113,0.0333333333333333,0.0333333333333333,0.0666666666666667,0.716666666666667,878352.8341924,878365.1086377,70,878352.8702828,878352.905701,878352.970022,878365.1451421,878365.8602916,0,12.2744452999905
109,2,0,categorization,1,kitchen,SHINEd_kitchen_practice1.tif,116,0.0333333333333333,0.0333333333333333,0.0666666666666667,1.05,878365.8690238,878369.3167032,74,878365.9050147,878365.9388418,878366.0050866,878369.3256607,878370.3739975,0,3.44767939997837
109,3,0,categorization,1,kitchen,SHINEd_kitchen_practice3.tif,118,0.0333333333333333,0.0333333333333333,0.0666666666666667,1.76666666666667,878370.3808706,878382.6359306,74,878370.4163577,878370.4504113,878370.5165665,878382.6439502,878384.4089551,0,12.2550599999959
109,4,0,categorization,1,bathroom,SHINEd_bathroom_practice5.tif,115,0.0333333333333333,0.0333333333333333,0.0666666666666667,1.23333333333333,878384.4137549,878386.5323939,74,878384.4500268,878384.4833024,878384.5496017,878386.5385042,878387.7701753,1,2.11863899999298
109,5,0,categorization,1,bathroom,SHINEd_bathroom_practice2.tif,112,0.0333333333333333,0.0333333333333333,0.0666666666666667,1.01666666666667,878387.7754897,878389.8838432,70,878387.8116801,878387.8447533,878387.9111592,878389.8954976,878390.9105146,0,2.10835350002162
109,6,0,categorization,1,kitchen,SHINEd_kitchen_practice5.tif,120,0.0333333333333333,0.0333333333333333,0.0666666666666667,1.15,878390.916859,878392.2758647,74,878390.9525968,878390.9862999,878391.0526475,878392.2839129,878393.4322514,0,1.35900569998194
109,7,0,categorization,1,kitchen,SHINEd_kitchen_practice2.tif,117,0.0333333333333333,0.0333333333333333,0.0666666666666667,1.93333333333333,878393.4371085,878394.7967214,70,878393.4729073,878393.5066182,878393.5728237,878394.8025553,878396.7342248,1,1.35961289994884
109,8,0,categorization,1,bathroom,SHINEd_bathroom_practice4.tif,114,0.0333333333333333,0.0333333333333333,0.0666666666666667,1.28333333333333,878396.7388532,878399.0841793,74,878396.7745889,878396.8097273,878396.8757568,878399.0900718,878400.3717421,1,2.34532610001042
109,9,0,categorization,1,bathroom,SHINEd_bathroom_practice1.tif,111,0.0333333333333333,0.0333333333333333,0.0666666666666667,0.95,878400.3768992,878401.3399546,74,878400.4127165,878400.4463093,878400.5125148,878401.3453944,878402.2937318,1,0.963055399945006
109,10,0,categorization,1,kitchen,SHINEd_kitchen_practice4.tif,119,0.0333333333333333,0.0333333333333333,0.0666666666666667,0.783333333333333,878402.2983849,878403.6279542,70,878402.3340794,878402.3679678,878402.4338714,878403.6342772,878404.4159478,1,1.32956930005457
109,1,0,categorization,1,bathroom,SHINEd_bathroom_practice3.tif,113,0.0333333333333333,0.0333333333333333,0.0666666666666667,0.716666666666667,878425.466104,878426.4439277,74,878425.5022202,878425.535891,878425.6018801,878426.4496534,878427.1646585,1,0.977823700057343
109,2,0,categorization,1,kitchen,SHINEd_kitchen_practice1.tif,116,0.0333333333333333,0.0333333333333333,0.0666666666666667,1.05,878427.1695737,878428.0998676,70,878427.2049925,878427.2389652,878427.305166,878428.1055997,878429.1539373,1,0.930293899960816
109,3,0,categorization,1,kitchen,SHINEd_kitchen_practice3.tif,118,0.0333333333333333,0.0333333333333333,0.0666666666666667,1.76666666666667,878429.1596851,878430.2439,70,878429.1969916,878429.2291628,878429.2953362,878430.2501049,878432.0151092,1,1.08421490003821
109,4,0,categorization,1,bathroom,SHINEd_bathroom_practice5.tif,115,0.0333333333333333,0.0333333333333333,0.0666666666666667,1.23333333333333,878432.0212403,878433.1321658,74,878432.0570535,878432.0906069,878432.1568661,878433.1376236,878434.369294,1,1.11092549993191
109,5,0,categorization,1,bathroom,SHINEd_bathroom_practice2.tif,112,0.0333333333333333,0.0333333333333333,0.0666666666666667,1.01666666666667,878434.3752218,878435.6759183,74,878434.4111824,878434.445287,878434.5126098,878435.6821007,878436.6971031,1,1.30069650011137
109,6,0,categorization,1,kitchen,SHINEd_kitchen_practice5.tif,120,0.0333333333333333,0.0333333333333333,0.0666666666666667,1.15,878436.7031154,878437.6039082,70,878436.7389272,878436.774133,878436.8398645,878437.6104852,878438.7588313,1,0.900792800006457
109,7,0,categorization,1,kitchen,SHINEd_kitchen_practice2.tif,117,0.0333333333333333,0.0333333333333333,0.0666666666666667,1.93333333333333,878438.7638493,878439.3318942,74,878438.8003829,878438.8343922,878438.899488,878439.338059,878441.2697305,0,0.568044899962842
109,8,0,categorization,1,bathroom,SHINEd_bathroom_practice4.tif,114,0.0333333333333333,0.0333333333333333,0.0666666666666667,1.28333333333333,878441.274667,878442.4606296,74,878441.3105482,878441.3441331,878441.4103934,878442.4660713,878443.7477425,1,1.18596259993501
109,9,0,categorization,1,bathroom,SHINEd_bathroom_practice1.tif,111,0.0333333333333333,0.0333333333333333,0.0666666666666667,0.95,878443.7526191,878444.6046256,74,878443.7887254,878443.8221017,878443.8883625,878444.6096648,878445.5580038,1,0.852006500004791
109,10,0,categorization,1,kitchen,SHINEd_kitchen_practice4.tif,119,0.0333333333333333,0.0333333333333333,0.0666666666666667,0.783333333333333,878445.5626535,878446.7008371,70,878445.599017,878445.6320053,878445.6983504,878446.7065992,878447.4882712,1,1.13818360003643
109,1,1,categorization,0,kitchen,SHINEd_sun_aaxxjlsuzvqlgylf.tif,68,0.0333333333333333,0.0333333333333333,0.0666666666666667,0.916666666666667,878461.175484,878462.2759218,70,878461.2112063,878461.244938,878461.3108845,878462.282138,878463.197142,1,1.10043780005071
109,2,1,categorization,0,bathroom,SHINEd_sun_ahqjwnzgolcaoidx.tif,30,0.0333333333333333,0.0333333333333333,0.0666666666666667,1.5,878463.2019516,878463.8679895,74,878463.2390751,878463.2721388,878463.33733,878463.8737887,878465.3721256,1,0.666037900024094
109,3,1,categorization,0,bathroom,SHINEd_sun_aljolscmmzydegqp.tif,34,0.0333333333333333,0.0333333333333333,0.0666666666666667,1.16666666666667,878465.3770021,878466.0038626,70,878465.4130355,878465.4476858,878465.5127761,878466.0096883,878467.1746931,0,0.626860499964096
109,4,1,categorization,0,kitchen,SHINEd_sun_aggjlwcdjsjcaemh.tif,87,0.0333333333333333,0.0333333333333333,0.0666666666666667,1.16666666666667,878467.1795987,878468.267921,70,878467.2153328,878467.2490814,878467.3153581,878468.2735712,878469.4385742,1,1.08832229999825
109,5,1,categorization,0,bathroom,SHINEd_sun_acsgbuurtwghzjel.tif,21,0.0333333333333333,0.0333333333333333,0.0666666666666667,1.46666666666667,878469.4435659,878470.195881,74,878469.4792796,878469.5126095,878469.579031,878470.2020543,878471.667058,1,0.7523151000496
109,6,1,categorization,0,kitchen,SHINEd_sun_abdxkyyxwfskuaqb.tif,70,0.0333333333333333,0.0333333333333333,0.0666666666666667,1.6,878471.6732628,878472.8604992,74,878471.7101468,878471.742778,878471.8092331,878472.866311,878474.4646479,0,1.18723639997188
109,7,1,categorization,0,bathroom,SHINEd_sun_axxbkopsgyouuebh.tif,58,0.0333333333333333,0.0333333333333333,0.0666666666666667,1.5,878474.4695365,878475.1805753,74,878474.5054056,878474.5405933,878474.6062881,878475.1860318,878476.6843684,1,0.711038799956441
109,8,1,categorization,0,bathroom,SHINEd_sun_acgyywnybuveqsro.tif,19,0.0333333333333333,0.0333333333333333,0.0666666666666667,0.716666666666667,878476.6893049,878477.515951,70,878476.7251079,878476.758943,878476.8261549,878477.5219801,878478.236984,0,0.826646100031212
109,9,1,categorization,0,kitchen,SHINEd_labelme_kxvouciolcpqplr.tif,62,0.0333333333333333,0.0333333333333333,0.0666666666666667,1.53333333333333,878478.2416559,878479.2759398,70,878478.277215,878478.311979,878478.3775476,878479.2820829,878480.8137536,1,1.03428389993496
109,10,1,categorization,0,kitchen,SHINEd_sun_ahljzhgcdpomplvg.tif,92,0.0333333333333333,0.0333333333333333,0.0666666666666667,1.25,878480.8196134,878481.8998551,70,878480.8568825,878480.8902935,878480.9553294,878481.905264,878483.1536153,1,1.08024169993587
109,11,1,categorization,0,bathroom,SHINEd_sun_aunuadmjocsddsrl.tif,53,0.0333333333333333,0.0333333333333333,0.0666666666666667,1.03333333333333,878483.1585761,878483.9081623,74,878483.1957407,878483.2282595,878483.2942338,878483.913549,878484.945226,1,0.749586199992336
109,12,1,categorization,0,kitchen,SHINEd_sun_aamedkxepzlwuxes.tif,65,0.0333333333333333,0.0333333333333333,0.0666666666666667,0.766666666666667,878484.9502042,878485.8119035,70,878484.9859174,878485.0191841,878485.0856929,878485.8184307,878486.5834355,1,0.861699300003238
109,13,1,categorization,0,kitchen,SHINEd_sun_agubuxuukhzyzpdp.tif,89,0.0333333333333333,0.0333333333333333,0.0666666666666667,0.75,878486.588221,878487.5638924,74,878486.6240371,878486.6577039,878486.7239964,878487.5705537,878488.3188917,0,0.975671399966814
109,14,1,categorization,0,kitchen,SHINEd_sun_ataniphupyuxeowc.tif,100,0.0333333333333333,0.0333333333333333,0.0666666666666667,1.53333333333333,878488.3239456,878490.0598788,70,878488.3597585,878488.3934537,878488.4611164,878490.0657545,878491.5974348,1,1.73593319999054
109,15,1,categorization,0,kitchen,SHINEd_sun_admlmbcdswaszruo.tif,80,0.0333333333333333,0.0333333333333333,0.0666666666666667,0.766666666666667,878491.6035357,878492.363881,70,878491.6393571,878491.6728947,878491.7393657,878492.3702522,878493.1352571,1,0.760345299961045
109,16,1,categorization,0,kitchen,SHINEd_sun_amjjdeyrggfqgmom.tif,98,0.0333333333333333,0.0333333333333333,0.0666666666666667,0.9,878493.1403123,878494.0924288,74,878493.1762965,878493.2096632,878493.2759749,878494.0976658,878494.9960035,0,0.952116500004195
109,17,1,categorization,0,bathroom,SHINEd_sun_aapitsgbtktqubfy.tif,14,0.0333333333333333,0.0333333333333333,0.0666666666666667,1.4,878495.0009107,878495.8678714,70,878495.0383772,878495.0703869,878495.1365509,878495.8743928,878497.27273,0,0.866960700019263
109,18,1,categorization,0,kitchen,SHINEd_sun_ajcbwwvdlsvjyzje.tif,95,0.0333333333333333,0.0333333333333333,0.0666666666666667,1.25,878497.2775462,878498.8119084,74,878497.3133021,878497.3470858,878497.4129307,878498.8181756,878500.0665138,0,1.53436220006552
109,19,1,categorization,0,bathroom,SHINEd_sun_aqrpegblszgcoujh.tif,47,0.0333333333333333,0.0333333333333333,0.0666666666666667,1.76666666666667,878500.0712521,878500.9558373,70,878500.1070398,878500.1407803,878500.2068262,878500.9615917,878502.7265957,0,0.884585199994035
109,20,1,categorization,0,kitchen,SHINEd_sun_azmutvzbxypaceni.tif,110,0.0333333333333333,0.0333333333333333,0.0666666666666667,0.766666666666667,878502.7311348,878503.3883963,74,878502.7664478,878502.8006455,878502.8668462,878503.3934134,878504.1584263,0,0.657261500018649
109,21,1,categorization,0,kitchen,SHINEd_sun_aqeaevwwwjoqhzvl.tif,99,0.0333333333333333,0.0333333333333333,0.0666666666666667,1.18333333333333,878504.1637463,878505.8118132,74,878504.199653,878504.2332073,878504.2990176,878505.818249,878506.9999206,0,1.64806689997204
109,22,1,categorization,0,kitchen,SHINEd_sun_aypmqwcualkenuoe.tif,108,0.0333333333333333,0.0333333333333333,0.0666666666666667,1.78333333333333,878507.0059579,878507.7884046,74,878507.0415393,878507.0766657,878507.1419764,878507.7937215,878509.5753929,0,0.782446700031869
109,23,1,categorization,0,kitchen,SHINEd_sun_adcrxklhlbwrbkgm.tif,78,0.0333333333333333,0.0333333333333333,0.0666666666666667,1.31666666666667,878509.5799182,878510.5638841,74,878509.6155795,878509.6495119,878509.7156914,878510.5697663,878511.8847813,0,0.983965899911709
109,24,1,categorization,0,bathroom,SHINEd_sun_avhrdrntsqrjzccq.tif,56,0.0333333333333333,0.0333333333333333,0.0666666666666667,0.816666666666667,878511.8912486,878512.763857,70,878511.9272925,878511.961829,878512.0278035,878512.7698232,878513.5848265,0,0.872608400066383
109,25,1,categorization,0,bathroom,SHINEd_sun_agrwbmhcpmfuwmsg.tif,27,0.0333333333333333,0.0333333333333333,0.0666666666666667,0.733333333333333,878513.5894308,878514.4202537,74,878513.6252509,878513.6588317,878513.7250913,878514.4259308,878515.1576014,1,0.83082289993763
109,26,1,categorization,0,bathroom,SHINEd_sun_adwvsndpdsgzeste.tif,22,0.0333333333333333,0.0333333333333333,0.0666666666666667,0.833333333333333,878515.1624299,878515.9238852,74,878515.1981783,878515.2317791,878515.2979892,878515.9300966,878516.7617676,1,0.76145530003123
109,27,1,categorization,0,bathroom,SHINEd_sun_akiytfaagpdsphgz.tif,32,0.0333333333333333,0.0333333333333333,0.0666666666666667,0.95,878516.7670439,878517.5238279,74,878516.8029102,878516.8367681,878516.9034053,878517.5297422,878518.4780789,1,0.75678399996832
109,28,1,categorization,0,kitchen,SHINEd_sun_abdenxonkemggwsq.tif,69,0.0333333333333333,0.0333333333333333,0.0666666666666667,1.48333333333333,878518.4840806,878519.228562,74,878518.519843,878518.5535434,878518.6197589,878519.2335914,878520.7152629,0,0.744481400004588
109,29,1,categorization,0,kitchen,SHINEd_sun_afuyedyxivkhecmu.tif,86,0.0333333333333333,0.0333333333333333,0.0666666666666667,1.08333333333333,878520.7199491,878522.5725586,74,878520.7556427,878520.7894314,878520.8557848,878522.5782044,878523.6598741,0,1.85260949993972
109,30,1,categorization,0,bathroom,SHINEd_sun_ammzpemadwrjdfzl.tif,38,0.0333333333333333,0.0333333333333333,0.0666666666666667,1.6,878523.6647473,878524.3877746,70,878523.7004766,878523.7341969,878523.8004709,878524.3937293,878525.9920678,0,0.723027299973182
109,31,1,categorization,0,bathroom,SHINEd_sun_abjtwfukuwddzted.tif,17,0.0333333333333333,0.0333333333333333,0.0666666666666667,0.833333333333333,878525.9968441,878527.2838264,74,878526.0339969,878526.0678096,878526.1340588,878527.2895714,878528.1212417,1,1.28698229999281
109,32,1,categorization,0,bathroom,SHINEd_sun_atstyziqcmkahyxk.tif,51,0.0333333333333333,0.0333333333333333,0.0666666666666667,0.95,878528.1261577,878529.2278598,74,878528.1615998,878528.1967806,878528.2619203,878529.2337201,878530.1820579,1,1.10170210001525
109,33,1,categorization,0,bathroom,SHINEd_sun_aspsyogrekjtfozg.tif,50,0.0333333333333333,0.0333333333333333,0.0666666666666667,1.76666666666667,878530.1867121,878530.8519461,74,878530.2224534,878530.2561956,878530.3223314,878530.8578085,878532.6228115,1,0.665233999956399
109,34,1,categorization,0,kitchen,SHINEd_sun_abftihopvusyfakt.tif,71,0.0333333333333333,0.0333333333333333,0.0666666666666667,1.15,878532.6275621,878533.4918016,74,878532.6631983,878532.6974545,878532.7631179,878533.4975326,878534.6458709,0,0.864239500020631
109,35,1,categorization,0,kitchen,SHINEd_sun_acfmftudsenhrfhy.tif,75,0.0333333333333333,0.0333333333333333,0.0666666666666667,1.01666666666667,878534.651053,878535.2598942,70,878534.686969,878534.7208696,878534.7866608,878535.2657831,878536.2807994,1,0.60884120000992
109,36,1,categorization,0,bathroom,SHINEd_sun_aclfzgynxzxlbepz.tif,20,0.0333333333333333,0.0333333333333333,0.0666666666666667,0.866666666666667,878536.2869915,878537.763772,70,878536.3232112,878536.3580748,878536.4226581,878537.7695317,878538.6346163,0,1.47678050003015
109,37,1,categorization,0,kitchen,SHINEd_sun_aeikbkmhphqzxdkv.tif,83,0.0333333333333333,0.0333333333333333,0.0666666666666667,1.28333333333333,878538.6407337,878539.4518354,74,878538.6768972,878538.7118245,878538.7762712,878539.4580137,878540.7396834,0,0.811101699946448
109,38,1,categorization,0,bathroom,SHINEd_sun_agguqiubmwhqqunb.tif,25,0.0333333333333333,0.0333333333333333,0.0666666666666667,1.08333333333333,878540.7445181,878541.3967289,70,878540.7800582,878540.8136123,878540.8807689,878541.4018936,878542.4835647,0,0.652210799977183
109,39,1,categorization,0,bathroom,SHINEd_sun_ahcvzmoyaycdoftf.tif,29,0.0333333333333333,0.0333333333333333,0.0666666666666667,0.733333333333333,878542.4885316,878543.5327066,74,878542.5245527,878542.5583446,878542.6254867,878543.5385274,878544.2701986,1,1.04417500004638
109,40,1,categorization,0,kitchen,SHINEd_sun_aymvwlarqodbwuoc.tif,107,0.0333333333333333,0.0333333333333333,0.0666666666666667,0.8,878544.2760829,878544.9644673,74,878544.3133956,878544.3470648,878544.4117933,878544.9697757,878545.7681136,0,0.688384399982169
109,41,1,categorization,0,kitchen,SHINEd_sun_alpduwskzkgbcfui.tif,97,0.0333333333333333,0.0333333333333333,0.0666666666666667,0.716666666666667,878545.7728627,878546.468526,70,878545.8090094,878545.8422576,878545.9085756,878546.4737533,878547.1887567,1,0.695663299993612
109,42,1,categorization,0,bathroom,SHINEd_labelme_xbsnnlvmskdknsb.tif,12,0.0333333333333333,0.0333333333333333,0.0666666666666667,0.916666666666667,878547.1936702,878547.9646014,74,878547.2297154,878547.2632706,878547.3294112,878547.969916,878548.8849205,1,0.770931200007908
109,43,1,categorization,0,kitchen,SHINEd_sun_aadbddgrdsjugojn.tif,64,0.0333333333333333,0.0333333333333333,0.0666666666666667,1.73333333333333,878548.8910859,878550.100475,70,878548.9284453,878548.9613954,878549.0283249,878550.1050341,878551.8367048,1,1.20938909996767
109,44,1,categorization,0,kitchen,SHINEd_sun_aapllqyqlykszopd.tif,66,0.0333333333333333,0.0333333333333333,0.0666666666666667,1.75,878551.841536,878553.0998128,74,878551.8772502,878551.9110816,878551.9774954,878553.1060121,878554.8543492,0,1.25827679992653
109,45,1,categorization,0,kitchen,SHINEd_sun_axyyrmzcupyhlivc.tif,106,0.0333333333333333,0.0333333333333333,0.0666666666666667,1.53333333333333,878554.8590337,878555.7484655,74,878554.8944156,878554.9296732,878554.9957549,878555.7537522,878557.2854229,0,0.889431799994782
109,46,1,categorization,0,bathroom,SHINEd_sun_apkxzenqapsujocq.tif,45,0.0333333333333333,0.0333333333333333,0.0666666666666667,0.733333333333333,878557.2902442,878558.755848,70,878557.3258224,878557.360114,878557.427749,878558.7615731,878559.4932443,0,1.46560379990842
109,47,1,categorization,0,kitchen,SHINEd_sun_ahdycvpopffkzzsu.tif,91,0.0333333333333333,0.0333333333333333,0.0666666666666667,0.766666666666667,878559.4978682,878560.3558523,74,878559.53351,878559.5673704,878559.634235,878560.362225,878561.1272287,0,0.857984100002795
109,48,1,categorization,0,kitchen,SHINEd_sun_aarfiyshqohlwkmo.tif,67,0.0333333333333333,0.0333333333333333,0.0666666666666667,0.783333333333333,878561.1319437,878561.6523905,70,878561.1684119,878561.2015781,878561.2677389,878561.6576894,878562.4393596,1,0.520446799928322
109,49,1,categorization,0,bathroom,SHINEd_sun_agyqfjcfkdcydepw.tif,28,0.0333333333333333,0.0333333333333333,0.0666666666666667,1.3,878562.4439898,878562.995852,70,878562.4809487,878562.5133015,878562.5797581,878563.0018474,878564.3001857,0,0.551862199907191
109,50,1,categorization,0,kitchen,SHINEd_sun_avszsnwsbuqfgzbn.tif,104,0.0333333333333333,0.0333333333333333,0.0666666666666667,1.2,878564.3051374,878564.7237086,74,878564.3423046,878564.3752323,878564.4424132,878564.729394,878565.9277307,0,0.418571199988946
109,1,2,categorization,0,kitchen,SHINEd_sun_auaiucuqpdausiva.tif,101,0.0333333333333333,0.0333333333333333,0.0666666666666667,0.883333333333333,878680.8998125,878682.4838117,74,878680.9357586,878680.9694042,878681.0355856,878682.489665,878683.3713355,0,1.58399920002557
109,2,2,categorization,0,bathroom,SHINEd_sun_alkosphxlxwjwgjd.tif,35,0.0333333333333333,0.0333333333333333,0.0666666666666667,1.2,878683.3756752,878684.6925323,74,878683.4111077,878683.4449075,878683.511499,878684.697883,878685.8962199,1,1.31685709999874
109,3,2,categorization,0,kitchen,SHINEd_sun_abpwyqmlzafvklqo.tif,72,0.0333333333333333,0.0333333333333333,0.0666666666666667,1.53333333333333,878685.9008829,878687.1718133,70,878685.936834,878685.9701379,878686.0367311,878687.1779689,878688.7096399,1,1.27093040000182
109,4,2,categorization,0,bathroom,SHINEd_sun_alotolagknyrgtsk.tif,36,0.0333333333333333,0.0333333333333333,0.0666666666666667,1.5,878688.7144641,878689.9404015,74,878688.7504879,878688.7854734,878688.8506592,878689.9459584,878691.4442966,1,1.22593740001321
109,5,2,categorization,0,bathroom,SHINEd_labelme_sfxiulhjbhlyiyt.tif,11,0.0333333333333333,0.0333333333333333,0.0666666666666667,1.28333333333333,878691.4491288,878692.3008317,74,878691.4859951,878691.5190383,878691.5863686,878692.3065209,878693.5881931,1,0.851702900021337
109,6,2,categorization,0,kitchen,SHINEd_sun_acfluyeqiftljamq.tif,74,0.0333333333333333,0.0333333333333333,0.0666666666666667,1.06666666666667,878693.5931194,878694.4843883,70,878693.628963,878693.662523,878693.7296942,878694.4897363,878695.5547399,1,0.891268900013529
109,7,2,categorization,0,bathroom,SHINEd_sun_ausgutylgojavyoq.tif,54,0.0333333333333333,0.0333333333333333,0.0666666666666667,1.28333333333333,878695.5603136,878696.2366189,74,878695.5959717,878695.6301523,878695.6975404,878696.2417541,878697.5234245,1,0.676305299974047
109,8,2,categorization,0,kitchen,SHINEd_labelme_brsyyvweiuaazfr.tif,61,0.0333333333333333,0.0333333333333333,0.0666666666666667,0.966666666666667,878697.5297949,878698.4845313,70,878697.5659538,878697.6004476,878697.6655678,878698.4897741,878699.454778,1,0.954736400046386
109,9,2,categorization,0,kitchen,SHINEd_sun_ayqymgxqhxxiykiw.tif,109,0.0333333333333333,0.0333333333333333,0.0666666666666667,0.716666666666667,878699.4596446,878700.5561029,70,878699.4954144,878699.5290065,878699.5953055,878700.5620069,878701.2770105,1,1.09645829990041
109,10,2,categorization,0,bathroom,SHINEd_sun_aamrfepkhweyewue.tif,13,0.0333333333333333,0.0333333333333333,0.0666666666666667,0.833333333333333,878701.2817237,878702.6200566,70,878701.31741,878701.3512467,878701.4172228,878702.6263164,878703.4579866,0,1.33833289996255
109,11,2,categorization,0,kitchen,SHINEd_sun_agorklincwxrdtga.tif,88,0.0333333333333333,0.0333333333333333,0.0666666666666667,1.3,878703.4629709,878704.1890425,74,878703.4987218,878703.5325475,878703.5987132,878704.194202,878705.4925501,0,0.726071599987336
109,12,2,categorization,0,bathroom,SHINEd_sun_abapwbhyhkfixyex.tif,16,0.0333333333333333,0.0333333333333333,0.0666666666666667,0.866666666666667,878705.4987994,878706.2603109,70,878705.5361266,878705.5687655,878705.6355779,878706.2657494,878707.1307532,0,0.761511499993503
109,13,2,categorization,0,kitchen,SHINEd_sun_awcpdzzznmweyyhv.tif,105,0.0333333333333333,0.0333333333333333,0.0666666666666667,0.7,878707.1355447,878708.6997503,70,878707.1711094,878707.2050382,878707.271232,878708.705058,878709.4033948,1,1.56420560006518
109,14,2,categorization,0,bathroom,SHINEd_sun_axyrejkiiaqiurjk.tif,59,0.0333333333333333,0.0333333333333333,0.0666666666666667,0.833333333333333,878709.4081113,878710.5557068,70,878709.4437785,878709.4775308,878709.5433339,878710.5616793,878711.3933498,0,1.14759549999144
109,15,2,categorization,0,bathroom,SHINEd_sun_apjevzvycyhuqghb.tif,44,0.0333333333333333,0.0333333333333333,0.0666666666666667,0.75,878711.3980771,878712.4837281,70,878711.4339034,878711.4676878,878711.533926,878712.4896883,878713.2380256,0,1.08565099991392
109,16,2,categorization,0,bathroom,SHINEd_sun_anhioqovhscjqqwb.tif,40,0.0333333333333333,0.0333333333333333,0.0666666666666667,1.55,878713.2429434,878713.8917828,74,878713.2788981,878713.3125744,878713.3788797,878713.8974614,878715.4457982,1,0.648839399917051
109,17,2,categorization,0,kitchen,SHINEd_sun_auticobqsbwgoppi.tif,103,0.0333333333333333,0.0333333333333333,0.0666666666666667,0.966666666666667,878715.4507804,878716.9484113,70,878715.4865215,878715.5197067,878715.5864585,878716.9537559,878717.9187604,1,1.49763090000488
109,18,2,categorization,0,bathroom,SHINEd_sun_arzkwskvsrwimlwo.tif,48,0.0333333333333333,0.0333333333333333,0.0666666666666667,1.51666666666667,878717.9251887,878718.8917746,74,878717.9612831,878717.9948384,878718.0610526,878718.8979658,878720.4129687,1,0.966585900052451
109,19,2,categorization,0,kitchen,SHINEd_sun_aehawpgmrlhlvcow.tif,82,0.0333333333333333,0.0333333333333333,0.0666666666666667,0.75,878720.4179597,878721.5798011,74,878720.4541337,878720.4875278,878720.5533229,878721.5858708,878722.3342083,0,1.16184139996767
109,20,2,categorization,0,bathroom,SHINEd_sun_apynckhmoftszqoq.tif,46,0.0333333333333333,0.0333333333333333,0.0666666666666667,0.733333333333333,878722.338837,878723.3157827,74,878722.3745393,878722.4082557,878722.4745721,878723.3217663,878724.0534372,1,0.976945700007491
109,21,2,categorization,0,bathroom,SHINEd_sun_asfwthctfqerjvxr.tif,49,0.0333333333333333,0.0333333333333333,0.0666666666666667,0.9,878724.0597004,878725.1881698,70,878724.0955344,878724.1290281,878724.1952976,878725.1933055,878726.0916432,0,1.12846939999145
109,22,2,categorization,0,bathroom,SHINEd_sun_aavhrsfjbserjtht.tif,15,0.0333333333333333,0.0333333333333333,0.0666666666666667,1.41666666666667,878726.0964586,878726.8197096,74,878726.1324797,878726.1658866,878726.2322095,878726.8246531,878728.2396573,1,0.723250999930315
109,23,2,categorization,0,kitchen,SHINEd_sun_abrcnpqqhmjwekyf.tif,73,0.0333333333333333,0.0333333333333333,0.0666666666666667,1.41666666666667,878728.2443889,878728.8917084,74,878728.2813095,878728.3138316,878728.379764,878728.8972383,878730.3122422,0,0.647319499985315
109,24,2,categorization,0,kitchen,SHINEd_sun_aegoxogugdkwpmpj.tif,81,0.0333333333333333,0.0333333333333333,0.0666666666666667,1.13333333333333,878730.3185441,878731.187679,70,878730.3556545,878730.3891869,878730.4560058,878731.1934805,878732.3251509,1,0.869134899927303
109,25,2,categorization,0,kitchen,SHINEd_sun_aenotlpyftoioydp.tif,84,0.0333333333333333,0.0333333333333333,0.0666666666666667,0.916666666666667,878732.3300313,878733.3477578,70,878732.3669677,878732.3995154,878732.4659342,878733.3539977,878734.2690012,1,1.01772650005296
109,26,2,categorization,0,bathroom,SHINEd_sun_atyjprilyfyzpbjv.tif,52,0.0333333333333333,0.0333333333333333,0.0666666666666667,1.1,878734.273417,878735.4117594,74,878734.3091099,878734.3427792,878734.4089212,878735.4168505,878736.5151874,1,1.13834240008146
109,27,2,categorization,0,kitchen,SHINEd_sun_adgqasybjyktddhj.tif,79,0.0333333333333333,0.0333333333333333,0.0666666666666667,0.716666666666667,878736.5197642,878737.6997713,70,878736.5554462,878736.5894889,878736.6556838,878737.705972,878738.4209753,1,1.18000709998887
109,28,2,categorization,0,kitchen,SHINEd_sun_ahpczsiumwwocjkv.tif,93,0.0333333333333333,0.0333333333333333,0.0666666666666667,0.733333333333333,878738.4257608,878739.4757719,74,878738.4616043,878738.4951384,878738.5618144,878739.4818502,878740.2135204,0,1.05001110001467
109,29,2,categorization,0,bathroom,SHINEd_sun_aleqenyvunhactkl.tif,33,0.0333333333333333,0.0333333333333333,0.0666666666666667,0.8,878740.2183617,878740.9563426,70,878740.2555431,878740.2893755,878740.3553678,878740.961621,878741.7599598,0,0.737980900099501
109,30,2,categorization,0,bathroom,SHINEd_sun_ambriybtogmepttm.tif,37,0.0333333333333333,0.0333333333333333,0.0666666666666667,0.95,878741.76493,878743.2917111,74,878741.8013657,878741.8341459,878741.9020919,878743.2974324,878744.245771,1,1.52678110008128
109,31,2,categorization,0,kitchen,SHINEd_sun_ahywdevtimnqcsln.tif,94,0.0333333333333333,0.0333333333333333,0.0666666666666667,1.68333333333333,878744.2508758,878745.1565124,70,878744.2877549,878744.3208245,878744.3869686,878745.1624068,878746.8440768,1,0.905636599985883
109,32,2,categorization,0,kitchen,SHINEd_sun_agzzivivdpnawacl.tif,90,0.0333333333333333,0.0333333333333333,0.0666666666666667,1.75,878746.8487725,878749.0602905,74,878746.8845943,878746.9193536,878746.9844313,878749.0661321,878750.8144696,0,2.21151800011285
109,33,2,categorization,0,bathroom,SHINEd_sun_aoybiabnpadelefl.tif,42,0.0333333333333333,0.0333333333333333,0.0666666666666667,1.36666666666667,878750.8193295,878751.5637223,70,878750.8550565,878750.889862,878750.9554156,878751.5694169,878752.9344222,0,0.744392800028436
109,34,2,categorization,0,kitchen,SHINEd_sun_aunzlwrbjumxhwdj.tif,102,0.0333333333333333,0.0333333333333333,0.0666666666666667,0.883333333333333,878752.9401741,878754.0997414,74,878752.9762498,878753.0104282,878753.0758541,878754.1058683,878754.98754,0,1.15956729999743
109,35,2,categorization,0,kitchen,SHINEd_sun_acwjdupvyjsugpay.tif,76,0.0333333333333333,0.0333333333333333,0.0666666666666667,1.28333333333333,878754.9918822,878755.9484208,74,878755.0273103,878755.060888,878755.1273809,878755.9533371,878757.2350083,0,0.956538600032218
109,36,2,categorization,0,bathroom,SHINEd_sun_apeeialkgkuxddgh.tif,43,0.0333333333333333,0.0333333333333333,0.0666666666666667,0.966666666666667,878757.2395374,878763.0923464,74,878757.2768255,878757.3104917,878757.3753263,878763.097254,878764.0622591,1,5.85280900006182
109,37,2,categorization,0,bathroom,SHINEd_sun_anryaplzeujmzfkd.tif,41,0.0333333333333333,0.0333333333333333,0.0666666666666667,1.06666666666667,878764.0665027,878765.076533,74,878764.1027213,878764.1360723,878764.2022101,878765.0818674,878766.1468714,1,1.0100303000072
109,38,2,categorization,0,kitchen,SHINEd_sun_acxkpeoqbwcxfvip.tif,77,0.0333333333333333,0.0333333333333333,0.0666666666666667,1.23333333333333,878766.1525501,878767.5720321,74,878766.1881739,878766.2225764,878766.288261,878767.5777181,878768.80939,0,1.41948200005572
109,39,2,categorization,0,kitchen,SHINEd_sun_akcjzhbbjlbogpdi.tif,96,0.0333333333333333,0.0333333333333333,0.0666666666666667,0.816666666666667,878768.8150771,878770.0441242,74,878768.8511,878768.8849152,878768.9511489,878770.0499291,878770.8649324,0,1.22904710005969
109,40,2,categorization,0,bathroom,SHINEd_sun_aghyqhbptboemmoq.tif,26,0.0333333333333333,0.0333333333333333,0.0666666666666667,1.28333333333333,878770.8701257,878772.4117387,74,878770.9069998,878770.9394189,878771.0058379,878772.4179147,878773.6995926,1,1.54161299997941
109,41,2,categorization,0,bathroom,SHINEd_sun_afmzatxvdtvhuafm.tif,24,0.0333333333333333,0.0333333333333333,0.0666666666666667,1.78333333333333,878773.7047446,878774.8196747,70,878773.7409313,878773.7751537,878773.8406675,878774.8256692,878776.6073404,0,1.11493010004051
109,42,2,categorization,0,bathroom,SHINEd_sun_auzqhkafidnkrwmo.tif,55,0.0333333333333333,0.0333333333333333,0.0666666666666667,1.28333333333333,878776.6118847,878777.6043635,74,878776.6475078,878776.6813502,878776.7478433,878777.6098988,878778.8915713,1,0.992478800006211
109,43,2,categorization,0,bathroom,SHINEd_sun_amzlamotzwfkwjco.tif,39,0.0333333333333333,0.0333333333333333,0.0666666666666667,0.8,878778.896084,878779.6123098,74,878778.9322445,878778.966546,878779.0318937,878779.6175998,878780.4159362,1,0.716225799988024
109,44,2,categorization,0,bathroom,SHINEd_sun_azqyogdvyhahyram.tif,60,0.0333333333333333,0.0333333333333333,0.0666666666666667,1,878780.420921,878781.2516745,74,878780.456586,878780.4904946,878780.5568282,878781.257602,878782.2559392,1,0.83075349999126
109,45,2,categorization,0,bathroom,SHINEd_sun_aiskgiwswewisvph.tif,31,0.0333333333333333,0.0333333333333333,0.0666666666666667,0.8,878782.2608193,878783.1317217,70,878782.2966989,878782.3304004,878782.3964949,878783.1376723,878783.9360088,0,0.870902399998158
109,46,2,categorization,0,bathroom,SHINEd_sun_acduarbnmmoglmiv.tif,18,0.0333333333333333,0.0333333333333333,0.0666666666666667,1.36666666666667,878783.941055,878784.5398169,74,878783.9768778,878784.0105484,878784.0765656,878784.5459429,878785.9109465,1,0.598761900095269
109,47,2,categorization,0,kitchen,SHINEd_labelme_rykdqxenmhulbdn.tif,63,0.0333333333333333,0.0333333333333333,0.0666666666666667,1.13333333333333,878785.9157468,878786.8916241,74,878785.9512254,878785.9850947,878786.0515019,878786.8984117,878788.0300813,0,0.975877300021239
109,48,2,categorization,0,bathroom,SHINEd_sun_awnqiikzaispgmwo.tif,57,0.0333333333333333,0.0333333333333333,0.0666666666666667,1.7,878788.0347991,878789.1005234,74,878788.0709513,878788.1042237,878788.1706883,878789.1056137,878790.8039516,1,1.06572429998778
109,49,2,categorization,0,kitchen,SHINEd_sun_aexklacwqwezaorf.tif,85,0.0333333333333333,0.0333333333333333,0.0666666666666667,1,878790.8087838,878792.3322512,74,878790.8461038,878790.8782388,878790.9444273,878792.3375836,878793.3359494,0,1.52346739999484
109,50,2,categorization,0,bathroom,SHINEd_sun_afcoljnjfoxjtgja.tif,23,0.0333333333333333,0.0333333333333333,0.0666666666666667,1.51666666666667,878793.3420712,878794.3244697,70,878793.3776305,878793.4114532,878793.478203,878794.3297268,878795.8447312,0,0.98239849996753
109,1,3,categorization,0,kitchen,SHINEd_sun_auticobqsbwgoppi.tif,103,0.0333333333333333,0.0333333333333333,0.0666666666666667,0.883333333333333,878811.5223733,878812.7722577,74,878811.5576713,878811.5916048,878811.6581543,878812.7779092,878813.6595808,0,1.24988439993467
109,2,3,categorization,0,bathroom,SHINEd_sun_aqrpegblszgcoujh.tif,47,0.0333333333333333,0.0333333333333333,0.0666666666666667,1.31666666666667,878813.6646426,878814.803716,70,878813.7004719,878813.7345908,878813.8001645,878814.8096573,878816.1246615,0,1.13907340005971
109,3,3,categorization,0,bathroom,SHINEd_sun_aamrfepkhweyewue.tif,13,0.0333333333333333,0.0333333333333333,0.0666666666666667,1.96666666666667,878816.1296808,878816.8686494,74,878816.1656105,878816.1991596,878816.2652657,878816.8739215,878818.8389248,1,0.738968599936925
109,4,3,categorization,0,bathroom,SHINEd_sun_acgyywnybuveqsro.tif,19,0.0333333333333333,0.0333333333333333,0.0666666666666667,1.51666666666667,878818.8437451,878819.4923319,74,878818.8805056,878818.9131237,878818.9795816,878819.4975562,878821.0125597,1,0.648586800089106
109,5,3,categorization,0,kitchen,SHINEd_sun_aadbddgrdsjugojn.tif,64,0.0333333333333333,0.0333333333333333,0.0666666666666667,0.766666666666667,878821.0187738,878822.2200742,70,878821.0543706,878821.0880918,878821.1561922,878822.2254486,878822.9904542,1,1.20130039996002
109,6,3,categorization,0,bathroom,SHINEd_sun_apkxzenqapsujocq.tif,45,0.0333333333333333,0.0333333333333333,0.0666666666666667,1.28333333333333,878822.9947465,878823.6917276,74,878823.0305696,878823.0640221,878823.1298968,878823.6978859,878824.9795582,1,0.696981099899858
109,7,3,categorization,0,bathroom,SHINEd_sun_adwvsndpdsgzeste.tif,22,0.0333333333333333,0.0333333333333333,0.0666666666666667,1.65,878824.9844211,878825.7562001,74,878825.0210057,878825.0542364,878825.1195833,878825.7614516,878827.4097891,1,0.771778999944218
109,8,3,categorization,0,kitchen,SHINEd_sun_acfluyeqiftljamq.tif,74,0.0333333333333333,0.0333333333333333,0.0666666666666667,0.783333333333333,878827.4151383,878828.531696,70,878827.4522837,878827.4848471,878827.5518805,878828.5377503,878829.3194211,1,1.11655769997742
109,9,3,categorization,0,kitchen,SHINEd_sun_aexklacwqwezaorf.tif,85,0.0333333333333333,0.0333333333333333,0.0666666666666667,1.1,878829.3243984,878830.1396224,74,878829.360307,878829.3951245,878829.4604828,878830.1451584,878831.2435062,0,0.815224000019953
109,10,3,categorization,0,bathroom,SHINEd_sun_axxbkopsgyouuebh.tif,58,0.0333333333333333,0.0333333333333333,0.0666666666666667,1.75,878831.2501669,878831.8846003,74,878831.2863212,878831.3192744,878831.3858775,878831.8901907,878833.6385276,1,0.634433400002308
109,11,3,categorization,0,kitchen,SHINEd_sun_abrcnpqqhmjwekyf.tif,73,0.0333333333333333,0.0333333333333333,0.0666666666666667,1.2,878833.6433688,878835.252436,74,878833.6791808,878833.7125194,878833.779011,878835.257546,878836.4558847,0,1.60906719998457
109,12,3,categorization,0,kitchen,SHINEd_sun_admlmbcdswaszruo.tif,80,0.0333333333333333,0.0333333333333333,0.0666666666666667,0.8,878836.460709,878837.3484916,70,878836.4964101,878836.5299986,878836.5962487,878837.3536537,878838.1519925,1,0.887782600009814
109,13,3,categorization,0,kitchen,SHINEd_sun_abdxkyyxwfskuaqb.tif,70,0.0333333333333333,0.0333333333333333,0.0666666666666667,1.48333333333333,878838.1569015,878839.4283862,70,878838.1925379,878838.2263877,878838.2930777,878839.4336597,878840.9153296,1,1.27148470003158
109,14,3,categorization,0,bathroom,SHINEd_sun_aunuadmjocsddsrl.tif,53,0.0333333333333333,0.0333333333333333,0.0666666666666667,0.95,878840.9202871,878841.7484051,74,878840.9564275,878840.9897214,878841.0557775,878841.7538432,878842.7021798,1,0.828117999946699
109,15,3,categorization,0,bathroom,SHINEd_sun_agguqiubmwhqqunb.tif,25,0.0333333333333333,0.0333333333333333,0.0666666666666667,1.45,878842.7070818,878843.7317743,74,878842.7444069,878842.7779476,878842.8443535,878843.7376013,878845.1859389,1,1.02469250001013
109,16,3,categorization,0,bathroom,SHINEd_sun_auzqhkafidnkrwmo.tif,55,0.0333333333333333,0.0333333333333333,0.0666666666666667,1.76666666666667,878845.1904095,878846.1236359,74,878845.2263267,878845.2597848,878845.326218,878846.1293067,878847.8943094,1,0.933226399938576
109,17,3,categorization,0,kitchen,SHINEd_sun_avszsnwsbuqfgzbn.tif,104,0.0333333333333333,0.0333333333333333,0.0666666666666667,1.63333333333333,878847.9004335,878848.9643982,70,878847.9362447,878847.9697881,878848.0359863,878848.97017,878850.60184,1,1.06396470009349
109,18,3,categorization,0,bathroom,SHINEd_sun_acsgbuurtwghzjel.tif,21,0.0333333333333333,0.0333333333333333,0.0666666666666667,0.966666666666667,878850.6067997,878851.9883336,74,878850.6436948,878850.6765689,878850.7425114,878851.993566,878852.9585702,1,1.381533900043
109,19,3,categorization,0,kitchen,SHINEd_sun_acfmftudsenhrfhy.tif,75,0.0333333333333333,0.0333333333333333,0.0666666666666667,1.08333333333333,878852.9632973,878853.7567287,74,878852.9989102,878853.0325175,878853.0989793,878853.7619382,878854.8436114,0,0.793431399972178
109,20,3,categorization,0,bathroom,SHINEd_sun_akiytfaagpdsphgz.tif,32,0.0333333333333333,0.0333333333333333,0.0666666666666667,0.766666666666667,878854.8480276,878856.0362806,74,878854.8837024,878854.9183841,878854.983934,878856.0410075,878856.8060107,1,1.18825300002936
109,21,3,categorization,0,kitchen,SHINEd_sun_azmutvzbxypaceni.tif,110,0.0333333333333333,0.0333333333333333,0.0666666666666667,1.21666666666667,878856.8108359,878857.9957085,70,878856.8464654,878856.8803618,878856.9465625,878858.0014863,878859.2164902,1,1.18487260001712
109,22,3,categorization,0,bathroom,SHINEd_sun_arzkwskvsrwimlwo.tif,48,0.0333333333333333,0.0333333333333333,0.0666666666666667,0.816666666666667,878859.2223631,878860.0276406,74,878859.2582045,878859.2917761,878859.3580515,878860.0331066,878860.8481102,1,0.805277499952354
109,23,3,categorization,0,bathroom,SHINEd_sun_apjevzvycyhuqghb.tif,44,0.0333333333333333,0.0333333333333333,0.0666666666666667,0.883333333333333,878860.8545089,878861.5316969,74,878860.8902845,878860.9239151,878860.990181,878861.5378881,878862.419558,1,0.677188000059687
109,24,3,categorization,0,kitchen,SHINEd_sun_ahljzhgcdpomplvg.tif,92,0.0333333333333333,0.0333333333333333,0.0666666666666667,1.11666666666667,878862.4242242,878863.1323513,70,878862.4600274,878862.4939878,878862.5600494,878863.1377231,878864.2527269,1,0.708127100020647
109,25,3,categorization,0,kitchen,SHINEd_sun_alpduwskzkgbcfui.tif,97,0.0333333333333333,0.0333333333333333,0.0666666666666667,1.96666666666667,878864.2574832,878864.9156365,70,878864.2946801,878864.3269748,878864.3943358,878864.9216282,878866.8866319,1,0.65815329994075
109,26,3,categorization,0,bathroom,SHINEd_sun_anryaplzeujmzfkd.tif,41,0.0333333333333333,0.0333333333333333,0.0666666666666667,1.7,878866.8915438,878867.9236983,74,878866.9271797,878866.9610968,878867.0280383,878867.9297474,878869.6280855,1,1.03215450001881
109,27,3,categorization,0,bathroom,SHINEd_sun_azqyogdvyhahyram.tif,60,0.0333333333333333,0.0333333333333333,0.0666666666666667,0.833333333333333,878869.6328709,878870.5557133,74,878869.6683042,878869.7028355,878869.7687398,878870.5612786,878871.3929494,1,0.922842400032096
109,28,3,categorization,0,kitchen,SHINEd_sun_ataniphupyuxeowc.tif,100,0.0333333333333333,0.0333333333333333,0.0666666666666667,1.48333333333333,878871.3978218,878872.2836986,70,878871.4347915,878871.4672438,878871.5347297,878872.2898671,878873.7715382,1,0.885876800050028
109,29,3,categorization,0,bathroom,SHINEd_sun_atstyziqcmkahyxk.tif,51,0.0333333333333333,0.0333333333333333,0.0666666666666667,1.21666666666667,878873.7774638,878874.4437011,74,878873.8147562,878873.846975,878873.9130339,878874.4495474,878875.6645506,1,0.666237299912609
109,30,3,categorization,0,kitchen,SHINEd_sun_axyyrmzcupyhlivc.tif,106,0.0333333333333333,0.0333333333333333,0.0666666666666667,1.4,878875.6690838,878876.475656,70,878875.7061551,878875.7383988,878875.8048291,878876.4820338,878877.8803701,1,0.806572199915536
109,31,3,categorization,0,bathroom,SHINEd_sun_agrwbmhcpmfuwmsg.tif,27,0.0333333333333333,0.0333333333333333,0.0666666666666667,1.3,878877.885581,878878.6676456,70,878877.9216343,878877.9550573,878878.0213246,878878.6735051,878879.9718423,0,0.782064600032754
109,32,3,categorization,0,bathroom,SHINEd_sun_aavhrsfjbserjtht.tif,15,0.0333333333333333,0.0333333333333333,0.0666666666666667,1.28333333333333,878879.9764056,878880.620514,74,878880.0123311,878880.047116,878880.1120665,878880.6255479,878881.9072195,1,0.644108399981633
109,33,3,categorization,0,kitchen,SHINEd_labelme_kxvouciolcpqplr.tif,62,0.0333333333333333,0.0333333333333333,0.0666666666666667,1.28333333333333,878881.912312,878883.2196367,74,878881.9492435,878881.9818666,878882.047791,878883.2258582,878884.5075285,0,1.30732470005751
109,34,3,categorization,0,kitchen,SHINEd_sun_aaxxjlsuzvqlgylf.tif,68,0.0333333333333333,0.0333333333333333,0.0666666666666667,0.966666666666667,878884.5123857,878885.5957808,70,878884.5482248,878884.582249,878884.6479941,878885.6018689,878886.5668734,1,1.08339509996586
109,35,3,categorization,0,bathroom,SHINEd_sun_afmzatxvdtvhuafm.tif,24,0.0333333333333333,0.0333333333333333,0.0666666666666667,0.833333333333333,878886.5722668,878887.2043963,70,878886.6090151,878886.6416513,878886.7077205,878887.2096568,878888.0413275,0,0.632129500037991
109,36,3,categorization,0,bathroom,SHINEd_sun_atyjprilyfyzpbjv.tif,52,0.0333333333333333,0.0333333333333333,0.0666666666666667,1.41666666666667,878888.0456135,878888.7483146,74,878888.0813448,878888.11495,878888.1811929,878888.7537671,878890.1687716,1,0.70270109991543
109,37,3,categorization,0,bathroom,SHINEd_sun_aljolscmmzydegqp.tif,34,0.0333333333333333,0.0333333333333333,0.0666666666666667,1.43333333333333,878890.1742781,878891.3075904,70,878890.2115088,878890.2437159,878890.3099403,878891.314002,878892.7456725,0,1.13331229996402
109,38,3,categorization,0,kitchen,SHINEd_sun_abpwyqmlzafvklqo.tif,72,0.0333333333333333,0.0333333333333333,0.0666666666666667,0.7,878892.7515769,878893.4836933,74,878892.7885673,878892.8208979,878892.8871561,878893.4894997,878894.1878367,0,0.732116400031373
109,39,3,categorization,0,bathroom,SHINEd_sun_agyqfjcfkdcydepw.tif,28,0.0333333333333333,0.0333333333333333,0.0666666666666667,1.81666666666667,878894.1920299,878895.7083645,70,878894.2274469,878894.2613126,878894.3277593,878895.7139897,878897.5289937,0,1.51633459993172
109,40,3,categorization,0,bathroom,SHINEd_sun_anhioqovhscjqqwb.tif,40,0.0333333333333333,0.0333333333333333,0.0666666666666667,1.73333333333333,878897.5338744,878898.5396367,74,878897.5697558,878897.6032214,878897.6708473,878898.5453853,878900.277057,1,1.00576229998842
109,41,3,categorization,0,bathroom,SHINEd_sun_aiskgiwswewisvph.tif,31,0.0333333333333333,0.0333333333333333,0.0666666666666667,1.66666666666667,878900.2816221,878901.9640678,70,878900.3174225,878900.351163,878900.4172297,878901.9697193,878903.6347247,0,1.68244569993112
109,42,3,categorization,0,bathroom,SHINEd_sun_aleqenyvunhactkl.tif,33,0.0333333333333333,0.0333333333333333,0.0666666666666667,0.933333333333333,878903.6398917,878904.6596769,74,878903.6772593,878903.709595,878903.7759519,878904.6655284,878905.5971992,1,1.01978520001285
109,43,3,categorization,0,kitchen,SHINEd_sun_aymvwlarqodbwuoc.tif,107,0.0333333333333333,0.0333333333333333,0.0666666666666667,1.08333333333333,878905.6018916,878906.3240202,70,878905.6372054,878905.672746,878905.7387016,878906.3295251,878907.4111962,1,0.722128599998541
109,44,3,categorization,0,kitchen,SHINEd_sun_afuyedyxivkhecmu.tif,86,0.0333333333333333,0.0333333333333333,0.0666666666666667,1.55,878907.4162141,878908.1960706,70,878907.4520684,878907.4857549,878907.5520326,878908.2008649,878909.7492023,1,0.779856499982998
109,45,3,categorization,0,bathroom,SHINEd_sun_alkosphxlxwjwgjd.tif,35,0.0333333333333333,0.0333333333333333,0.0666666666666667,1.81666666666667,878909.753494,878910.6995802,74,878909.7890357,878909.8228054,878909.888764,878910.7053864,878912.5203913,1,0.946086200070567
109,46,3,categorization,0,bathroom,SHINEd_labelme_sfxiulhjbhlyiyt.tif,11,0.0333333333333333,0.0333333333333333,0.0666666666666667,1.5,878912.5252088,878913.1884685,74,878912.5624886,878912.5945891,878912.6612393,878913.1937448,878914.6920816,1,0.663259700057097
109,47,3,categorization,0,kitchen,SHINEd_sun_agorklincwxrdtga.tif,88,0.0333333333333333,0.0333333333333333,0.0666666666666667,1.03333333333333,878914.6969126,878915.4116852,70,878914.7327544,878914.7663883,878914.832638,878915.4177322,878916.4494022,1,0.714772599982098
109,48,3,categorization,0,bathroom,SHINEd_sun_axyrejkiiaqiurjk.tif,59,0.0333333333333333,0.0333333333333333,0.0666666666666667,1.51666666666667,878916.4545674,878917.2839616,70,878916.4906177,878916.5239387,878916.5903187,878917.2901259,878918.8051297,0,0.829394200001843
109,49,3,categorization,0,bathroom,SHINEd_sun_afcoljnjfoxjtgja.tif,23,0.0333333333333333,0.0333333333333333,0.0666666666666667,1.46666666666667,878918.8100865,878919.7485752,70,878918.8458052,878918.8795868,878918.945692,878919.7540214,878921.2190254,0,0.938488699961454
109,50,3,categorization,0,kitchen,SHINEd_sun_agubuxuukhzyzpdp.tif,89,0.0333333333333333,0.0333333333333333,0.0666666666666667,0.8,878921.2243566,878921.9556965,70,878921.2612415,878921.2950819,878921.3611484,878921.9615375,878922.7598746,1,0.7313399000559
109,1,4,categorization,0,kitchen,SHINEd_sun_aeikbkmhphqzxdkv.tif,83,0.0333333333333333,0.0333333333333333,0.0666666666666667,1.66666666666667,878934.289801,878935.100006,74,878934.3251554,878934.3591768,878934.4255003,878935.1049202,878936.7699239,0,0.810204999987036
109,2,4,categorization,0,kitchen,SHINEd_sun_ajcbwwvdlsvjyzje.tif,95,0.0333333333333333,0.0333333333333333,0.0666666666666667,1.01666666666667,878936.7749397,878938.2604121,70,878936.8106275,878936.8459008,878936.910742,878938.2664928,878939.281498,1,1.48547239997424
109,3,4,categorization,0,bathroom,SHINEd_sun_acduarbnmmoglmiv.tif,18,0.0333333333333333,0.0333333333333333,0.0666666666666667,0.866666666666667,878939.2879084,878940.5883122,70,878939.3240451,878939.3573312,878939.4236097,878940.5934537,878941.4584668,0,1.3004038000945
109,4,4,categorization,0,kitchen,SHINEd_sun_ayqymgxqhxxiykiw.tif,109,0.0333333333333333,0.0333333333333333,0.0666666666666667,1.05,878941.4634413,878943.4043229,74,878941.4991383,878941.5331732,878941.5993329,878943.4096579,878944.4579951,0,1.94088160002138
109,5,4,categorization,0,kitchen,SHINEd_sun_aqeaevwwwjoqhzvl.tif,99,0.0333333333333333,0.0333333333333333,0.0666666666666667,1.36666666666667,878944.4623344,878945.4356912,70,878944.4980764,878944.5321632,878944.5994678,878945.4420662,878946.8070712,1,0.973356799921021
109,6,4,categorization,0,bathroom,SHINEd_sun_asfwthctfqerjvxr.tif,49,0.0333333333333333,0.0333333333333333,0.0666666666666667,1.9,878946.8119737,878947.7085647,70,878946.8492482,878946.881158,878946.9473716,878947.714282,878949.6126192,0,0.896591000026092
109,7,4,categorization,0,kitchen,SHINEd_sun_aegoxogugdkwpmpj.tif,81,0.0333333333333333,0.0333333333333333,0.0666666666666667,1.25,878949.6173354,878950.3642447,70,878949.6530113,878949.6868561,878949.7530177,878950.3695897,878951.6179273,1,0.74690929998178
109,8,4,categorization,0,kitchen,SHINEd_sun_aarfiyshqohlwkmo.tif,67,0.0333333333333333,0.0333333333333333,0.0666666666666667,1.36666666666667,878951.6228431,878952.403587,70,878951.6601114,878951.6922977,878951.7588421,878952.4093234,878953.7743287,1,0.780743899988011
109,9,4,categorization,0,kitchen,SHINEd_sun_adgqasybjyktddhj.tif,79,0.0333333333333333,0.0333333333333333,0.0666666666666667,0.916666666666667,878953.779474,878954.9965572,74,878953.8167907,878953.8500987,878953.9151044,878955.0019454,878955.916949,0,1.21708319999743
109,10,4,categorization,0,kitchen,SHINEd_sun_aypmqwcualkenuoe.tif,108,0.0333333333333333,0.0333333333333333,0.0666666666666667,1.25,878955.9219744,878956.8844607,70,878955.9592187,878955.9910562,878956.0587635,878956.8897766,878958.1381143,1,0.96248630003538
109,11,4,categorization,0,kitchen,SHINEd_sun_awcpdzzznmweyyhv.tif,105,0.0333333333333333,0.0333333333333333,0.0666666666666667,1.6,878958.1440137,878959.4116521,74,878958.1809404,878958.2135047,878958.2807474,878959.4177718,878961.016119,0,1.26763840008061
109,12,4,categorization,0,kitchen,SHINEd_sun_aunzlwrbjumxhwdj.tif,102,0.0333333333333333,0.0333333333333333,0.0666666666666667,1.53333333333333,878961.0213145,878962.1483335,70,878961.0570986,878961.0907813,878961.1570747,878962.1542538,878963.6859244,1,1.12701900000684
109,13,4,categorization,0,kitchen,SHINEd_sun_aggjlwcdjsjcaemh.tif,87,0.0333333333333333,0.0333333333333333,0.0666666666666667,1.23333333333333,878963.6905968,878964.5396344,74,878963.7267916,878963.7613394,878963.8265502,878964.5458497,878965.7775211,0,0.849037600099109
109,14,4,categorization,0,kitchen,SHINEd_sun_ahpczsiumwwocjkv.tif,93,0.0333333333333333,0.0333333333333333,0.0666666666666667,1.46666666666667,878965.7824123,878966.4036102,70,878965.8192498,878965.8516718,878965.9181129,878966.4092519,878967.8742565,1,0.62119790003635
109,15,4,categorization,0,bathroom,SHINEd_sun_ambriybtogmepttm.tif,37,0.0333333333333333,0.0333333333333333,0.0666666666666667,1.36666666666667,878967.8801618,878968.5321808,70,878967.9158594,878967.949791,878968.0158661,878968.5376489,878969.9026539,0,0.652019000030123
109,16,4,categorization,0,bathroom,SHINEd_sun_avhrdrntsqrjzccq.tif,56,0.0333333333333333,0.0333333333333333,0.0666666666666667,1.13333333333333,878969.907656,878971.6998396,70,878969.9433969,878969.9772882,878970.0432509,878971.7045518,878972.8362234,0,1.79218360001687
109,17,4,categorization,0,kitchen,SHINEd_sun_abftihopvusyfakt.tif,71,0.0333333333333333,0.0333333333333333,0.0666666666666667,0.816666666666667,878972.8409836,878973.8836464,74,878972.8766457,878972.9107582,878972.9766537,878973.8894119,878974.7044159,0,1.04266279994044
109,18,4,categorization,0,bathroom,SHINEd_sun_apeeialkgkuxddgh.tif,43,0.0333333333333333,0.0333333333333333,0.0666666666666667,1.96666666666667,878974.709318,878975.5636414,74,878974.7447778,878974.7784672,878974.8445015,878975.5697731,878977.5347769,1,0.854323399951681
109,19,4,categorization,0,bathroom,SHINEd_sun_abjtwfukuwddzted.tif,17,0.0333333333333333,0.0333333333333333,0.0666666666666667,1.63333333333333,878977.540472,878978.3167239,70,878977.5764145,878977.6099325,878977.6764602,878978.3219033,878979.9535732,0,0.776251900009811
109,20,4,categorization,0,kitchen,SHINEd_sun_agzzivivdpnawacl.tif,90,0.0333333333333333,0.0333333333333333,0.0666666666666667,1.33333333333333,878979.9582994,878980.8916688,74,878979.9950875,878980.028697,878980.0944913,878980.8973031,878982.228973,0,0.933369399979711
109,21,4,categorization,0,bathroom,SHINEd_sun_ammzpemadwrjdfzl.tif,38,0.0333333333333333,0.0333333333333333,0.0666666666666667,0.7,878982.2338055,878982.732416,70,878982.2694683,878982.3037293,878982.3695037,878982.7379929,878983.4363449,0,0.498610500013456
109,22,4,categorization,0,kitchen,SHINEd_sun_aapllqyqlykszopd.tif,66,0.0333333333333333,0.0333333333333333,0.0666666666666667,0.75,878983.4412517,878985.5883081,74,878983.477021,878983.5107099,878983.576645,878985.5938765,878986.3422238,0,2.147056399961
109,23,4,categorization,0,bathroom,SHINEd_sun_aclfzgynxzxlbepz.tif,20,0.0333333333333333,0.0333333333333333,0.0666666666666667,1.05,878986.3468561,878989.3956209,70,878986.3826079,878986.4162894,878986.4823072,878989.4015436,878990.4498802,0,3.04876479995437
109,24,4,categorization,0,kitchen,SHINEd_sun_acxkpeoqbwcxfvip.tif,77,0.0333333333333333,0.0333333333333333,0.0666666666666667,1.55,878990.45465,878991.1956147,70,878990.4905525,878990.524257,878990.5902675,878991.2014897,878992.7498285,1,0.740964700002223
109,25,4,categorization,0,bathroom,SHINEd_sun_awnqiikzaispgmwo.tif,57,0.0333333333333333,0.0333333333333333,0.0666666666666667,1.26666666666667,878992.7545891,878993.5641623,74,878992.7901928,878992.8240502,878992.8899736,878993.5691108,878994.8341144,1,0.809573199949227
109,26,4,categorization,0,bathroom,SHINEd_sun_aghyqhbptboemmoq.tif,26,0.0333333333333333,0.0333333333333333,0.0666666666666667,1.38333333333333,878994.8394291,878995.444388,70,878994.8752433,878994.9103733,878994.9753464,878995.4494474,878996.8311183,0,0.604958899901249
109,27,4,categorization,0,bathroom,SHINEd_sun_aapitsgbtktqubfy.tif,14,0.0333333333333333,0.0333333333333333,0.0666666666666667,0.8,878996.8356572,878997.2596147,74,878996.87132,878996.9052213,878996.9711779,878997.2655799,878998.0639179,1,0.423957500024699
109,28,4,categorization,0,kitchen,SHINEd_sun_adcrxklhlbwrbkgm.tif,78,0.0333333333333333,0.0333333333333333,0.0666666666666667,0.933333333333333,878998.0688616,878998.5396353,74,878998.1047475,878998.1398462,878998.2049628,878998.5451422,878999.4768134,0,0.470773700042628
109,29,4,categorization,0,kitchen,SHINEd_sun_acwjdupvyjsugpay.tif,76,0.0333333333333333,0.0333333333333333,0.0666666666666667,0.9,878999.4812202,878999.9156502,70,878999.5184184,878999.5506896,878999.6166736,878999.9221002,879000.820439,1,0.434430000022985
109,30,4,categorization,0,kitchen,SHINEd_sun_ahywdevtimnqcsln.tif,94,0.0333333333333333,0.0333333333333333,0.0666666666666667,0.933333333333333,879000.8253544,879001.5556682,70,879000.8605994,879000.8946709,879000.9609284,879001.5623458,879002.4940164,1,0.730313800042495
109,31,4,categorization,0,kitchen,SHINEd_sun_amjjdeyrggfqgmom.tif,98,0.0333333333333333,0.0333333333333333,0.0666666666666667,1.55,879002.4984563,879003.2196015,70,879002.5340261,879002.569556,879002.6341608,879003.2253821,879004.7737205,1,0.721145199961029
109,32,4,categorization,0,kitchen,SHINEd_sun_auaiucuqpdausiva.tif,101,0.0333333333333333,0.0333333333333333,0.0666666666666667,1.8,879004.7787843,879005.5715724,70,879004.8145024,879004.848186,879004.9147304,879005.577836,879007.3761723,1,0.792788100079633
109,33,4,categorization,0,kitchen,SHINEd_labelme_rykdqxenmhulbdn.tif,63,0.0333333333333333,0.0333333333333333,0.0666666666666667,0.716666666666667,879007.3815184,879008.0601896,70,879007.4172719,879007.4508534,879007.5171304,879008.065687,879008.7806924,1,0.678671199944802
109,34,4,categorization,0,kitchen,SHINEd_sun_aenotlpyftoioydp.tif,84,0.0333333333333333,0.0333333333333333,0.0666666666666667,1.73333333333333,879008.7854509,879009.4436214,70,879008.8216814,879008.8549633,879008.9209167,879009.4493349,879011.1810067,1,0.658170500071719
109,35,4,categorization,0,bathroom,SHINEd_sun_aspsyogrekjtfozg.tif,50,0.0333333333333333,0.0333333333333333,0.0666666666666667,1.4,879011.1856866,879011.9241951,70,879011.2213654,879011.2551435,879011.3216561,879011.9297253,879013.328063,0,0.738508499925956
109,36,4,categorization,0,bathroom,SHINEd_sun_apynckhmoftszqoq.tif,46,0.0333333333333333,0.0333333333333333,0.0666666666666667,1.01666666666667,879013.3328424,879014.0036417,74,879013.3696224,879013.403444,879013.470097,879014.0097521,879015.0247555,1,0.670799300074577
109,37,4,categorization,0,kitchen,SHINEd_sun_akcjzhbbjlbogpdi.tif,96,0.0333333333333333,0.0333333333333333,0.0666666666666667,1.56666666666667,879015.0295837,879015.7075276,70,879015.0656069,879015.0988205,879015.1653892,879015.713528,879017.2785312,1,0.677943899994716
109,38,4,categorization,0,bathroom,SHINEd_sun_ahqjwnzgolcaoidx.tif,30,0.0333333333333333,0.0333333333333333,0.0666666666666667,1.18333333333333,879017.283373,879017.7716163,74,879017.3193476,879017.3541528,879017.4191764,879017.7773352,879018.9590152,1,0.488243300002068
109,39,4,categorization,0,kitchen,SHINEd_sun_aehawpgmrlhlvcow.tif,82,0.0333333333333333,0.0333333333333333,0.0666666666666667,1.51666666666667,879018.963981,879019.7876181,74,879018.9997601,879019.0333563,879019.0997144,879019.793759,879021.3087638,0,0.823637099936604
109,40,4,categorization,0,bathroom,SHINEd_sun_ahcvzmoyaycdoftf.tif,29,0.0333333333333333,0.0333333333333333,0.0666666666666667,1,879021.3130376,879021.9876267,70,879021.3484724,879021.3824702,879021.4488284,879021.9933216,879022.9916582,0,0.674589099944569
109,41,4,categorization,0,bathroom,SHINEd_sun_abapwbhyhkfixyex.tif,16,0.0333333333333333,0.0333333333333333,0.0666666666666667,1.16666666666667,879022.9964925,879023.763621,70,879023.0323054,879023.0657112,879023.1318558,879023.7698385,879024.9348414,0,0.767128500039689
109,42,4,categorization,0,bathroom,SHINEd_labelme_xbsnnlvmskdknsb.tif,12,0.0333333333333333,0.0333333333333333,0.0666666666666667,1.03333333333333,879024.939424,879025.7242551,74,879024.9767868,879025.0090417,879025.0753371,879025.7293557,879026.7610265,1,0.784831100027077
109,43,4,categorization,0,kitchen,SHINEd_sun_aamedkxepzlwuxes.tif,65,0.0333333333333333,0.0333333333333333,0.0666666666666667,1.36666666666667,879026.7656198,879027.6115379,70,879026.8011603,879026.8353025,879026.9011406,879027.6176399,879028.9826447,1,0.845918100094423
109,44,4,categorization,0,bathroom,SHINEd_sun_amzlamotzwfkwjco.tif,39,0.0333333333333333,0.0333333333333333,0.0666666666666667,1.2,879028.9889367,879029.6836223,70,879029.0245719,879029.0584491,879029.1243007,879029.6896083,879030.8879451,0,0.694685599999502
109,45,4,categorization,0,bathroom,SHINEd_sun_aoybiabnpadelefl.tif,42,0.0333333333333333,0.0333333333333333,0.0666666666666667,1.15,879030.8927172,879031.2515689,74,879030.9287941,879030.9637224,879031.0286847,879031.2570338,879032.4053711,1,0.358851699973457
109,46,4,categorization,0,kitchen,SHINEd_labelme_brsyyvweiuaazfr.tif,61,0.0333333333333333,0.0333333333333333,0.0666666666666667,0.733333333333333,879032.4116388,879033.0919455,74,879032.4477933,879032.4827108,879032.5473183,879033.0967908,879033.8284623,0,0.680306699941866
109,47,4,categorization,0,bathroom,SHINEd_sun_ausgutylgojavyoq.tif,54,0.0333333333333333,0.0333333333333333,0.0666666666666667,1.71666666666667,879033.8330738,879034.5956163,74,879033.868842,879033.9025215,879033.9686496,879034.6012358,879036.3162397,1,0.762542500044219
109,48,4,categorization,0,kitchen,SHINEd_sun_abdenxonkemggwsq.tif,69,0.0333333333333333,0.0333333333333333,0.0666666666666667,1.41666666666667,879036.3212025,879037.1395167,70,879036.3570328,879036.3906395,879036.4570466,879037.1451312,879038.5601351,1,0.81831419991795
109,49,4,categorization,0,bathroom,SHINEd_sun_alotolagknyrgtsk.tif,36,0.0333333333333333,0.0333333333333333,0.0666666666666667,1.33333333333333,879038.5651397,879039.2676436,70,879038.6008065,879038.6346189,879038.7008512,879039.2731756,879040.6048521,0,0.702503900043666
109,50,4,categorization,0,kitchen,SHINEd_sun_ahdycvpopffkzzsu.tif,91,0.0333333333333333,0.0333333333333333,0.0666666666666667,1.41666666666667,879040.610244,879041.3960539,70,879040.6459633,879040.6798719,879040.7460723,879041.4015604,879042.8165805,1,0.785809900029562
109,1,5,categorization,0,bathroom,SHINEd_sun_atstyziqcmkahyxk.tif,51,0.0333333333333333,0.0333333333333333,0.0666666666666667,1.31666666666667,879185.2626831,879186.7075297,70,879185.2987993,879185.3320321,879185.3981542,879186.713462,879188.0284666,0,1.44484660006128
109,2,5,categorization,0,bathroom,SHINEd_sun_apjevzvycyhuqghb.tif,44,0.0333333333333333,0.0333333333333333,0.0666666666666667,0.883333333333333,879188.0349176,879188.9315505,74,879188.0706971,879188.1055549,879188.1701729,879188.9384031,879189.8200746,1,0.896632899995893
109,3,5,categorization,0,kitchen,SHINEd_sun_ahdycvpopffkzzsu.tif,91,0.0333333333333333,0.0333333333333333,0.0666666666666667,1.85,879189.8249604,879190.5155435,74,879189.8608241,879189.8944047,879189.9610097,879190.5214839,879192.3698228,0,0.69058309996035
109,4,5,categorization,0,kitchen,SHINEd_sun_aehawpgmrlhlvcow.tif,82,0.0333333333333333,0.0333333333333333,0.0666666666666667,0.716666666666667,879192.3747962,879193.1794627,70,879192.4104604,879192.4441656,879192.5107662,879193.185078,879193.9000829,1,0.804666500072926
109,5,5,categorization,0,bathroom,SHINEd_sun_apeeialkgkuxddgh.tif,43,0.0333333333333333,0.0333333333333333,0.0666666666666667,1.33333333333333,879193.9064923,879194.8194773,74,879193.9420073,879193.976989,879194.043098,879194.825762,879196.1574319,1,0.912985000060871
109,6,5,categorization,0,bathroom,SHINEd_sun_alkosphxlxwjwgjd.tif,35,0.0333333333333333,0.0333333333333333,0.0666666666666667,1.08333333333333,879196.1619693,879196.9875574,70,879196.1983166,879196.2311531,879196.2974569,879196.9937938,879198.0754647,0,0.825588100007735
109,7,5,categorization,0,kitchen,SHINEd_sun_ahywdevtimnqcsln.tif,94,0.0333333333333333,0.0333333333333333,0.0666666666666667,0.833333333333333,879198.0803669,879199.043527,70,879198.1165386,879198.1510438,879198.2164052,879199.0491766,879199.8808473,1,0.963160100043751
109,8,5,categorization,0,kitchen,SHINEd_sun_ayqymgxqhxxiykiw.tif,109,0.0333333333333333,0.0333333333333333,0.0666666666666667,0.733333333333333,879199.8861112,879200.6355209,70,879199.921856,879199.9556115,879200.0217332,879200.6416548,879201.3733361,1,0.749409700045362
109,9,5,categorization,0,bathroom,SHINEd_sun_acsgbuurtwghzjel.tif,21,0.0333333333333333,0.0333333333333333,0.0666666666666667,0.85,879201.3785155,879202.1874711,74,879201.4146681,879201.4483754,879201.5142406,879202.1930783,879203.0414167,1,0.808955600019544
109,10,5,categorization,0,kitchen,SHINEd_sun_auaiucuqpdausiva.tif,101,0.0333333333333333,0.0333333333333333,0.0666666666666667,1.03333333333333,879203.0474049,879203.8443579,74,879203.0830785,879203.118037,879203.1845203,879203.8499514,879204.8816235,0,0.796953000011854
109,11,5,categorization,0,kitchen,SHINEd_sun_axyyrmzcupyhlivc.tif,106,0.0333333333333333,0.0333333333333333,0.0666666666666667,0.866666666666667,879204.8863049,879205.651443,70,879204.9232636,879204.9556577,879205.0220699,879205.6571205,879206.5221248,1,0.765138099901378
109,12,5,categorization,0,bathroom,SHINEd_sun_apkxzenqapsujocq.tif,45,0.0333333333333333,0.0333333333333333,0.0666666666666667,0.716666666666667,879206.5272515,879207.6603172,74,879206.5627071,879206.5965324,879206.6629693,879207.6657352,879208.3807404,1,1.13306569994893
109,13,5,categorization,0,bathroom,SHINEd_sun_ammzpemadwrjdfzl.tif,38,0.0333333333333333,0.0333333333333333,0.0666666666666667,0.966666666666667,879208.3853765,879209.7715466,70,879208.4222304,879208.4546126,879208.5211727,879209.7778542,879210.7428586,0,1.38617010007147
109,14,5,categorization,0,bathroom,SHINEd_labelme_xbsnnlvmskdknsb.tif,12,0.0333333333333333,0.0333333333333333,0.0666666666666667,1.06666666666667,879210.7491176,879211.3722377,74,879210.7860514,879210.8196682,879210.8849495,879211.3773104,879212.4423139,1,0.623120100004598
109,15,5,categorization,0,bathroom,SHINEd_sun_akiytfaagpdsphgz.tif,32,0.0333333333333333,0.0333333333333333,0.0666666666666667,1.38333333333333,879212.4475141,879213.1315016,74,879212.4831042,879212.5169012,879212.5832012,879213.1377929,879214.519464,1,0.683987500029616
109,16,5,categorization,0,bathroom,SHINEd_sun_ambriybtogmepttm.tif,37,0.0333333333333333,0.0333333333333333,0.0666666666666667,0.816666666666667,879214.5242646,879215.2274857,70,879214.5603394,879214.5935937,879214.6602327,879215.2332433,879216.0482459,0,0.703221100033261
109,17,5,categorization,0,kitchen,SHINEd_sun_abpwyqmlzafvklqo.tif,72,0.0333333333333333,0.0333333333333333,0.0666666666666667,0.783333333333333,879216.0528854,879216.7724821,70,879216.0888633,879216.1222552,879216.1894847,879216.7777098,879217.5593928,1,0.719596699927934
109,18,5,categorization,0,kitchen,SHINEd_sun_abrcnpqqhmjwekyf.tif,73,0.0333333333333333,0.0333333333333333,0.0666666666666667,1.76666666666667,879217.5644464,879218.2115382,70,879217.6002621,879217.6335238,879217.700153,879218.2172683,879219.9822731,1,0.647091799997725
109,19,5,categorization,0,kitchen,SHINEd_sun_agorklincwxrdtga.tif,88,0.0333333333333333,0.0333333333333333,0.0666666666666667,1.1,879219.987189,879220.7554591,70,879220.0231215,879220.0578692,879220.1228705,879220.7614066,879221.8597441,1,0.768270100001246
109,20,5,categorization,0,bathroom,SHINEd_sun_aapitsgbtktqubfy.tif,14,0.0333333333333333,0.0333333333333333,0.0666666666666667,0.9,879221.8646358,879222.6994776,74,879221.9004224,879221.9353689,879222.0004117,879222.7057831,879223.6041292,1,0.834841800038703
109,21,5,categorization,0,bathroom,SHINEd_sun_aamrfepkhweyewue.tif,13,0.0333333333333333,0.0333333333333333,0.0666666666666667,0.716666666666667,879223.6093034,879224.3800798,70,879223.6466002,879223.6786802,879223.7449428,879224.3853206,879225.1003251,0,0.770776399993338
109,22,5,categorization,0,bathroom,SHINEd_sun_awnqiikzaispgmwo.tif,57,0.0333333333333333,0.0333333333333333,0.0666666666666667,1.01666666666667,879225.1053901,879225.8355418,74,879225.1412402,879225.1750136,879225.2409305,879225.8413794,879226.8563826,1,0.730151699972339
109,23,5,categorization,0,kitchen,SHINEd_sun_ahljzhgcdpomplvg.tif,92,0.0333333333333333,0.0333333333333333,0.0666666666666667,1.13333333333333,879226.862306,879227.7715073,70,879226.8990276,879226.9318183,879226.9990194,879227.777971,879228.9096411,1,0.909201300004497
109,24,5,categorization,0,bathroom,SHINEd_sun_aljolscmmzydegqp.tif,34,0.0333333333333333,0.0333333333333333,0.0666666666666667,1.58333333333333,879228.9147426,879229.8035718,70,879228.9507532,879228.9845861,879229.0507276,879229.8093302,879231.3910008,0,0.888829199946485
109,25,5,categorization,0,kitchen,SHINEd_sun_acfmftudsenhrfhy.tif,75,0.0333333333333333,0.0333333333333333,0.0666666666666667,0.733333333333333,879231.396348,879232.1235243,74,879231.4320111,879231.4658555,879231.5321382,879232.1294602,879232.8611309,0,0.727176300017163
109,26,5,categorization,0,kitchen,SHINEd_labelme_rykdqxenmhulbdn.tif,63,0.0333333333333333,0.0333333333333333,0.0666666666666667,0.816666666666667,879232.8659991,879234.3400422,70,879232.9016898,879232.9355163,879233.0016752,879234.344829,879235.159833,1,1.47404310002457
109,27,5,categorization,0,bathroom,SHINEd_sun_avhrdrntsqrjzccq.tif,56,0.0333333333333333,0.0333333333333333,0.0666666666666667,1.85,879235.1645527,879236.0834969,74,879235.2002507,879235.2337984,879235.3003428,879236.0897492,879237.9380876,1,0.918944200035185
109,28,5,categorization,0,kitchen,SHINEd_sun_aqeaevwwwjoqhzvl.tif,99,0.0333333333333333,0.0333333333333333,0.0666666666666667,1.93333333333333,879237.9430805,879238.764087,70,879237.97913,879238.0122659,879238.0787264,879238.7692753,879240.7009457,1,0.821006500045769
109,29,5,categorization,0,bathroom,SHINEd_sun_afmzatxvdtvhuafm.tif,24,0.0333333333333333,0.0333333333333333,0.0666666666666667,0.783333333333333,879240.7057587,879241.6841694,74,879240.7414608,879240.7752483,879240.8410307,879241.6894385,879242.4711084,1,0.978410699986853
109,30,5,categorization,0,kitchen,SHINEd_sun_acwjdupvyjsugpay.tif,76,0.0333333333333333,0.0333333333333333,0.0666666666666667,1.55,879242.4763993,879243.507436,70,879242.5120669,879242.5462492,879242.6117604,879243.5136818,879245.0620192,1,1.03103670000564
109,31,5,categorization,0,kitchen,SHINEd_sun_aadbddgrdsjugojn.tif,64,0.0333333333333333,0.0333333333333333,0.0666666666666667,0.783333333333333,879245.0667043,879245.8035055,70,879245.1027874,879245.1362088,879245.2025383,879245.809216,879246.5908861,1,0.736801199964248
109,32,5,categorization,0,kitchen,SHINEd_sun_acxkpeoqbwcxfvip.tif,77,0.0333333333333333,0.0333333333333333,0.0666666666666667,1.01666666666667,879246.5958144,879247.3238437,70,879246.6330882,879246.6654828,879246.7332585,879247.3285034,879248.343508,1,0.728029299993068
109,33,5,categorization,0,kitchen,SHINEd_sun_akcjzhbbjlbogpdi.tif,96,0.0333333333333333,0.0333333333333333,0.0666666666666667,0.766666666666667,879248.3493232,879249.1394935,70,879248.3866373,879248.4192169,879248.4852011,879249.1456529,879249.9106567,1,0.790170300053433
109,34,5,categorization,0,bathroom,SHINEd_sun_axyrejkiiaqiurjk.tif,59,0.0333333333333333,0.0333333333333333,0.0666666666666667,0.783333333333333,879249.9154787,879250.6995022,70,879249.9515876,879249.9848334,879250.050687,879250.7054451,879251.4871166,0,0.784023500047624
109,35,5,categorization,0,bathroom,SHINEd_sun_azqyogdvyhahyram.tif,60,0.0333333333333333,0.0333333333333333,0.0666666666666667,0.75,879251.4926675,879252.2195143,74,879251.5298629,879251.5625907,879251.62958,879252.225876,879252.9742134,1,0.726846799952909
109,36,5,categorization,0,bathroom,SHINEd_sun_abjtwfukuwddzted.tif,17,0.0333333333333333,0.0333333333333333,0.0666666666666667,1.43333333333333,879252.9790423,879254.1554981,74,879253.0149629,879253.0485088,879253.1147952,879254.1615131,879255.5931842,1,1.17645579995587
109,37,5,categorization,0,bathroom,SHINEd_sun_aghyqhbptboemmoq.tif,26,0.0333333333333333,0.0333333333333333,0.0666666666666667,1.03333333333333,879255.5979401,879256.2995037,74,879255.6348868,879255.6673348,879255.7347084,879256.3049455,879257.3366153,1,0.701563599985093
109,38,5,categorization,0,bathroom,SHINEd_sun_aclfzgynxzxlbepz.tif,20,0.0333333333333333,0.0333333333333333,0.0666666666666667,1,879257.3413497,879258.2520442,74,879257.3771269,879257.410701,879257.4771193,879258.257139,879259.2554771,1,0.910694499965757
109,39,5,categorization,0,bathroom,SHINEd_sun_axxbkopsgyouuebh.tif,58,0.0333333333333333,0.0333333333333333,0.0666666666666667,1.46666666666667,879259.2599305,879259.988147,74,879259.2956614,879259.329376,879259.3959044,879259.9933434,879261.4583479,1,0.728216500021517
109,40,5,categorization,0,bathroom,SHINEd_sun_aleqenyvunhactkl.tif,33,0.0333333333333333,0.0333333333333333,0.0666666666666667,1.16666666666667,879261.4631475,879262.2282473,74,879261.4987131,879261.5326837,879261.5988978,879262.2336767,879263.3986937,1,0.765099800075404
109,41,5,categorization,0,kitchen,SHINEd_sun_awcpdzzznmweyyhv.tif,105,0.0333333333333333,0.0333333333333333,0.0666666666666667,1.5,879263.403689,879264.2035075,70,879263.439787,879263.474659,879263.539442,879264.2097077,879265.7080506,1,0.799818499945104
109,42,5,categorization,0,bathroom,SHINEd_sun_aiskgiwswewisvph.tif,31,0.0333333333333333,0.0333333333333333,0.0666666666666667,1.83333333333333,879265.7129861,879266.5478006,70,879265.7488086,879265.7836662,879265.8485415,879266.5538057,879268.3854757,0,0.834814499947242
109,43,5,categorization,0,bathroom,SHINEd_sun_aoybiabnpadelefl.tif,42,0.0333333333333333,0.0333333333333333,0.0666666666666667,1.33333333333333,879268.3904103,879269.1874701,70,879268.4257738,879268.4597507,879268.5261348,879269.1930921,879270.5247637,0,0.797059800010175
109,44,5,categorization,0,kitchen,SHINEd_sun_agzzivivdpnawacl.tif,90,0.0333333333333333,0.0333333333333333,0.0666666666666667,0.766666666666667,879270.5294933,879271.1634585,70,879270.5651019,879270.5989065,879270.666319,879271.1690375,879271.9340406,1,0.633965200046077
109,45,5,categorization,0,kitchen,SHINEd_sun_admlmbcdswaszruo.tif,80,0.0333333333333333,0.0333333333333333,0.0666666666666667,0.883333333333333,879271.9388879,879272.5882903,70,879271.9753433,879272.0082946,879272.0743779,879272.5929812,879273.4746521,1,0.649402400013059
109,46,5,categorization,0,kitchen,SHINEd_sun_aenotlpyftoioydp.tif,84,0.0333333333333333,0.0333333333333333,0.0666666666666667,1.76666666666667,879273.4794828,879274.06746,70,879273.5152253,879273.549896,879273.6168918,879274.0729859,879275.8379896,1,0.587977200048044
109,47,5,categorization,0,kitchen,SHINEd_sun_abdxkyyxwfskuaqb.tif,70,0.0333333333333333,0.0333333333333333,0.0666666666666667,1.21666666666667,879275.8428254,879276.4761678,70,879275.8796987,879275.9124925,879275.9785399,879276.4813803,879277.6963856,1,0.633342400076799
109,48,5,categorization,0,bathroom,SHINEd_sun_anhioqovhscjqqwb.tif,40,0.0333333333333333,0.0333333333333333,0.0666666666666667,1.15,879277.7012882,879278.251407,74,879277.7370429,879277.7708946,879277.8369537,879278.2565642,879279.4049017,1,0.550118800019845
109,49,5,categorization,0,kitchen,SHINEd_sun_aunzlwrbjumxhwdj.tif,102,0.0333333333333333,0.0333333333333333,0.0666666666666667,1.16666666666667,879279.4107112,879280.6121417,70,879279.4465925,879279.4801835,879279.5461225,879280.6175436,879281.782547,1,1.20143050001934
109,50,5,categorization,0,bathroom,SHINEd_sun_auzqhkafidnkrwmo.tif,55,0.0333333333333333,0.0333333333333333,0.0666666666666667,0.916666666666667,879281.7874337,879282.4200894,74,879281.8233448,879281.8583685,879281.9242141,879282.4252039,879283.340209,1,0.632655699970201
109,1,6,categorization,0,kitchen,SHINEd_sun_auticobqsbwgoppi.tif,103,0.0333333333333333,0.0333333333333333,0.0666666666666667,1.61666666666667,879290.0104011,879290.9314194,70,879290.0459736,879290.0794713,879290.1461201,879290.9367549,879292.5517589,1,0.921018299995922
109,2,6,categorization,0,bathroom,SHINEd_sun_agyqfjcfkdcydepw.tif,28,0.0333333333333333,0.0333333333333333,0.0666666666666667,1.3,879292.5565192,879293.4673986,74,879292.5938026,879292.6264492,879292.6922049,879293.4727717,879294.7711231,1,0.910879399976693
109,3,6,categorization,0,bathroom,SHINEd_sun_agguqiubmwhqqunb.tif,25,0.0333333333333333,0.0333333333333333,0.0666666666666667,1.06666666666667,879294.7765629,879295.5634987,70,879294.8126808,879294.8465088,879294.9136865,879295.5690882,879296.6340933,0,0.786935799987987
109,4,6,categorization,0,bathroom,SHINEd_sun_acgyywnybuveqsro.tif,19,0.0333333333333333,0.0333333333333333,0.0666666666666667,1.4,879296.6392035,879297.2602843,74,879296.6747975,879296.7089952,879296.7747762,879297.265953,879298.664292,1,0.6210807999596
109,5,6,categorization,0,kitchen,SHINEd_sun_azmutvzbxypaceni.tif,110,0.0333333333333333,0.0333333333333333,0.0666666666666667,1.16666666666667,879298.6693422,879299.4842019,70,879298.7050904,879298.7396186,879298.8055252,879299.4896659,879300.6546703,1,0.814859699923545
109,6,6,categorization,0,kitchen,SHINEd_sun_avszsnwsbuqfgzbn.tif,104,0.0333333333333333,0.0333333333333333,0.0666666666666667,1.33333333333333,879300.6594778,879301.3399342,70,879300.6956134,879300.7288071,879300.7952179,879301.3446575,879302.6763287,1,0.680456400034018
109,7,6,categorization,0,kitchen,SHINEd_labelme_kxvouciolcpqplr.tif,62,0.0333333333333333,0.0333333333333333,0.0666666666666667,0.783333333333333,879302.6810097,879303.8283595,70,879302.7166365,879302.7500244,879302.8169783,879303.8347597,879304.6164302,1,1.1473497999832
109,8,6,categorization,0,bathroom,SHINEd_sun_afcoljnjfoxjtgja.tif,23,0.0333333333333333,0.0333333333333333,0.0666666666666667,1.31666666666667,879304.6212805,879305.4194787,74,879304.6569785,879304.6909736,879304.7583136,879305.4252563,879306.7402604,1,0.79819820006378
109,9,6,categorization,0,bathroom,SHINEd_sun_aavhrsfjbserjtht.tif,15,0.0333333333333333,0.0333333333333333,0.0666666666666667,1.51666666666667,879306.7449944,879307.523465,74,879306.7807286,879306.8157598,879306.881761,879307.5294883,879309.0444928,1,0.778470600023866
109,10,6,categorization,0,kitchen,SHINEd_sun_aymvwlarqodbwuoc.tif,107,0.0333333333333333,0.0333333333333333,0.0666666666666667,1.36666666666667,879309.0492963,879309.6834622,70,879309.0849611,879309.1198555,879309.1852953,879309.6894901,879311.0544953,1,0.634165899944492
109,11,6,categorization,0,bathroom,SHINEd_sun_ahqjwnzgolcaoidx.tif,30,0.0333333333333333,0.0333333333333333,0.0666666666666667,0.883333333333333,879311.0593273,879311.7794511,70,879311.0950407,879311.1287492,879311.1948584,879311.7853537,879312.6670237,0,0.720123799983412
109,12,6,categorization,0,kitchen,SHINEd_sun_ahpczsiumwwocjkv.tif,93,0.0333333333333333,0.0333333333333333,0.0666666666666667,0.85,879312.6716971,879313.2840903,74,879312.7091228,879312.7428478,879312.8072644,879313.2889584,879314.1372955,0,0.61239319993183
109,13,6,categorization,0,kitchen,SHINEd_sun_acfluyeqiftljamq.tif,74,0.0333333333333333,0.0333333333333333,0.0666666666666667,1.35,879314.1423403,879315.2275047,70,879314.1794536,879314.2128529,879314.2778686,879315.2331344,879316.5814721,1,1.085164399934
109,14,6,categorization,0,kitchen,SHINEd_sun_aaxxjlsuzvqlgylf.tif,68,0.0333333333333333,0.0333333333333333,0.0666666666666667,1.86666666666667,879316.5864892,879317.2279392,70,879316.6234236,879316.6574972,879316.7234916,879317.2329553,879319.0979598,1,0.64144999999553
109,15,6,categorization,0,kitchen,SHINEd_sun_adgqasybjyktddhj.tif,79,0.0333333333333333,0.0333333333333333,0.0666666666666667,1.15,879319.1028245,879319.8201746,70,879319.1395478,879319.1722542,879319.2385561,879319.8253153,879320.9736604,1,0.71735010005068
109,16,6,categorization,0,kitchen,SHINEd_sun_aarfiyshqohlwkmo.tif,67,0.0333333333333333,0.0333333333333333,0.0666666666666667,1.15,879320.978724,879321.7314654,70,879321.014267,879321.0482265,879321.1142377,879321.7374386,879322.8857765,1,0.752741399919614
109,17,6,categorization,0,kitchen,SHINEd_sun_abdenxonkemggwsq.tif,69,0.0333333333333333,0.0333333333333333,0.0666666666666667,1.63333333333333,879322.8907753,879323.5154849,70,879322.9280039,879322.9610852,879323.0265396,879323.5213164,879325.1529879,1,0.624709600000642
109,18,6,categorization,0,bathroom,SHINEd_sun_agrwbmhcpmfuwmsg.tif,27,0.0333333333333333,0.0333333333333333,0.0666666666666667,0.75,879325.1588304,879325.8034697,74,879325.1944612,879325.2285525,879325.2956045,879325.8093483,879326.5576865,1,0.644639300066046
109,19,6,categorization,0,bathroom,SHINEd_sun_ahcvzmoyaycdoftf.tif,29,0.0333333333333333,0.0333333333333333,0.0666666666666667,0.983333333333333,879326.5625387,879327.2914575,74,879326.5995436,879326.6332482,879326.6999326,879327.2976038,879328.2792896,1,0.728918800014071
109,20,6,categorization,0,bathroom,SHINEd_sun_atyjprilyfyzpbjv.tif,52,0.0333333333333333,0.0333333333333333,0.0666666666666667,1.71666666666667,879328.2856094,879328.9720353,74,879328.3215132,879328.3550503,879328.4212124,879328.9773157,879330.6923199,1,0.686425899970345
109,21,6,categorization,0,bathroom,SHINEd_sun_apynckhmoftszqoq.tif,46,0.0333333333333333,0.0333333333333333,0.0666666666666667,0.85,879330.6983395,879331.379471,74,879330.7339675,879330.7690952,879330.8340377,879331.3854158,879332.2337545,1,0.681131500052288
109,22,6,categorization,0,kitchen,SHINEd_sun_ataniphupyuxeowc.tif,100,0.0333333333333333,0.0333333333333333,0.0666666666666667,1.85,879332.2385918,879332.9954763,70,879332.2742837,879332.3080109,879332.3743149,879333.0013571,879334.8496956,1,0.756884500035085
109,23,6,categorization,0,kitchen,SHINEd_sun_agubuxuukhzyzpdp.tif,89,0.0333333333333333,0.0333333333333333,0.0666666666666667,0.766666666666667,879334.8541638,879335.444104,70,879334.8909858,879334.9236152,879334.9913633,879335.4491381,879336.2141423,1,0.589940199977718
109,24,6,categorization,0,kitchen,SHINEd_labelme_brsyyvweiuaazfr.tif,61,0.0333333333333333,0.0333333333333333,0.0666666666666667,1.8,879336.2201822,879336.9954717,74,879336.2574109,879336.2898534,879336.3557579,879337.0012544,879338.7995911,0,0.775289500015788
109,25,6,categorization,0,bathroom,SHINEd_sun_anryaplzeujmzfkd.tif,41,0.0333333333333333,0.0333333333333333,0.0666666666666667,1.3,879338.8043414,879339.4194144,74,879338.8400272,879338.8737909,879338.9399987,879339.4245094,879340.7229123,1,0.615072999964468
109,26,6,categorization,0,bathroom,SHINEd_sun_adwvsndpdsgzeste.tif,22,0.0333333333333333,0.0333333333333333,0.0666666666666667,0.75,879340.7281254,879341.3159718,74,879340.7638547,879340.7976648,879340.8649627,879341.3211778,879342.0695153,1,0.587846399983391
109,27,6,categorization,0,kitchen,SHINEd_sun_aapllqyqlykszopd.tif,66,0.0333333333333333,0.0333333333333333,0.0666666666666667,1,879342.074277,879342.8033552,70,879342.1100292,879342.1436903,879342.2099459,879342.8091572,879343.8074958,1,0.729078199947253
109,28,6,categorization,0,bathroom,SHINEd_sun_asfwthctfqerjvxr.tif,49,0.0333333333333333,0.0333333333333333,0.0666666666666667,1.16666666666667,879343.8137804,879344.4513856,74,879343.8495162,879343.8849046,879343.9493666,879344.4572051,879345.6222094,1,0.637605200055987
109,29,6,categorization,0,bathroom,SHINEd_sun_arzkwskvsrwimlwo.tif,48,0.0333333333333333,0.0333333333333333,0.0666666666666667,0.833333333333333,879345.627086,879346.2761675,74,879345.6629659,879345.6981895,879345.7627393,879346.2811957,879347.1128659,1,0.649081499897875
109,30,6,categorization,0,bathroom,SHINEd_sun_alotolagknyrgtsk.tif,36,0.0333333333333333,0.0333333333333333,0.0666666666666667,1.7,879347.1176755,879347.9314385,74,879347.1533925,879347.1868146,879347.2544117,879347.9376224,879349.6359589,1,0.813762999954633
109,31,6,categorization,0,kitchen,SHINEd_sun_amjjdeyrggfqgmom.tif,98,0.0333333333333333,0.0333333333333333,0.0666666666666667,1.96666666666667,879349.640865,879350.2914332,70,879349.6774136,879349.7102102,879349.7767108,879350.2975291,879352.2625333,1,0.650568200042471
109,32,6,categorization,0,kitchen,SHINEd_sun_aegoxogugdkwpmpj.tif,81,0.0333333333333333,0.0333333333333333,0.0666666666666667,1.28333333333333,879352.2677565,879352.9398084,70,879352.303765,879352.3386241,879352.4034796,879352.9455211,879354.2271915,1,0.67205189995002
109,33,6,categorization,0,bathroom,SHINEd_sun_ausgutylgojavyoq.tif,54,0.0333333333333333,0.0333333333333333,0.0666666666666667,0.916666666666667,879354.2323,879354.9074088,74,879354.2685032,879354.3016926,879354.3679715,879354.9129571,879355.8279624,1,0.6751087999437
109,34,6,categorization,0,kitchen,SHINEd_sun_aexklacwqwezaorf.tif,85,0.0333333333333333,0.0333333333333333,0.0666666666666667,1.93333333333333,879355.8321651,879356.5001274,70,879355.867615,879355.9015792,879355.9679066,879356.5053801,879358.4370516,1,0.667962300009094
109,35,6,categorization,0,kitchen,SHINEd_sun_aamedkxepzlwuxes.tif,65,0.0333333333333333,0.0333333333333333,0.0666666666666667,1.56666666666667,879358.4419779,879359.2199724,70,879358.4779706,879358.512635,879358.5777025,879359.2251895,879360.7901946,1,0.77799450000748
109,36,6,categorization,0,bathroom,SHINEd_sun_amzlamotzwfkwjco.tif,39,0.0333333333333333,0.0333333333333333,0.0666666666666667,1.46666666666667,879360.7951485,879361.3713584,74,879360.8306665,879360.8661521,879360.9307632,879361.3773078,879362.8423126,1,0.576209899969399
109,37,6,categorization,0,kitchen,SHINEd_sun_aggjlwcdjsjcaemh.tif,87,0.0333333333333333,0.0333333333333333,0.0666666666666667,0.783333333333333,879362.84707,879363.5561184,70,879362.8842436,879362.9177697,879362.9841489,879363.5617295,879364.3433993,1,0.709048399934545
109,38,6,categorization,0,kitchen,SHINEd_sun_adcrxklhlbwrbkgm.tif,78,0.0333333333333333,0.0333333333333333,0.0666666666666667,1.58333333333333,879364.3488884,879365.1154324,74,879364.3849937,879364.4191634,879364.4854166,879365.1214523,879366.7031225,0,0.7665440000128
109,39,6,categorization,0,kitchen,SHINEd_sun_aeikbkmhphqzxdkv.tif,83,0.0333333333333333,0.0333333333333333,0.0666666666666667,0.766666666666667,879366.7078179,879367.6434299,70,879366.7436459,879366.7773811,879366.8435335,879367.6491943,879368.4141979,1,0.935612000059336
109,40,6,categorization,0,bathroom,SHINEd_sun_acduarbnmmoglmiv.tif,18,0.0333333333333333,0.0333333333333333,0.0666666666666667,0.8,879368.4192853,879369.1160069,70,879368.4549078,879368.4888904,879368.5548855,879369.1211643,879369.9195013,0,0.696721600019373
109,41,6,categorization,0,kitchen,SHINEd_sun_aypmqwcualkenuoe.tif,108,0.0333333333333333,0.0333333333333333,0.0666666666666667,1.2,879369.9243891,879370.811429,70,879369.9601786,879369.9938545,879370.0600448,879370.8174112,879372.0157481,1,0.887039899942465
109,42,6,categorization,0,kitchen,SHINEd_sun_alpduwskzkgbcfui.tif,97,0.0333333333333333,0.0333333333333333,0.0666666666666667,0.75,879372.0221618,879372.756384,70,879372.0589586,879372.0918384,879372.157767,879372.7616079,879373.5099555,1,0.734222200000659
109,43,6,categorization,0,kitchen,SHINEd_sun_ajcbwwvdlsvjyzje.tif,95,0.0333333333333333,0.0333333333333333,0.0666666666666667,0.8,879373.5146411,879374.2678027,70,879373.5505599,879373.5842398,879373.6503128,879374.2729463,879375.071285,1,0.753161600092426
109,44,6,categorization,0,bathroom,SHINEd_sun_aunuadmjocsddsrl.tif,53,0.0333333333333333,0.0333333333333333,0.0666666666666667,0.75,879375.0761295,879375.9073689,70,879375.1118844,879375.1456929,879375.2118408,879375.9135135,879376.6618572,0,0.831239399965852
109,45,6,categorization,0,bathroom,SHINEd_sun_aqrpegblszgcoujh.tif,47,0.0333333333333333,0.0333333333333333,0.0666666666666667,1.21666666666667,879376.6681071,879377.4357283,74,879376.7038317,879376.7389111,879376.803774,879377.4404455,879378.6554506,1,0.76762120006606
109,46,6,categorization,0,bathroom,SHINEd_sun_aspsyogrekjtfozg.tif,50,0.0333333333333333,0.0333333333333333,0.0666666666666667,1.61666666666667,879378.6612396,879379.2674338,74,879378.6968719,879378.730895,879378.797733,879379.2729437,879380.8879477,1,0.606194199994206
109,47,6,categorization,0,kitchen,SHINEd_sun_afuyedyxivkhecmu.tif,86,0.0333333333333333,0.0333333333333333,0.0666666666666667,0.883333333333333,879380.8930038,879381.708283,70,879380.9286862,879380.962392,879381.0291667,879381.7134582,879382.5951284,1,0.815279200091027
109,48,6,categorization,0,bathroom,SHINEd_sun_abapwbhyhkfixyex.tif,16,0.0333333333333333,0.0333333333333333,0.0666666666666667,0.783333333333333,879382.5997697,879383.2594762,74,879382.6355244,879382.6692391,879382.7353003,879383.2652988,879384.0469685,1,0.659706500009634
109,49,6,categorization,0,kitchen,SHINEd_sun_abftihopvusyfakt.tif,71,0.0333333333333333,0.0333333333333333,0.0666666666666667,0.966666666666667,879384.0518288,879384.6994229,74,879384.0876263,879384.1212969,879384.1875667,879384.7056636,879385.6706671,0,0.647594099980779
109,50,6,categorization,0,bathroom,SHINEd_labelme_sfxiulhjbhlyiyt.tif,11,0.0333333333333333,0.0333333333333333,0.0666666666666667,1.61666666666667,879385.675474,879386.2840185,74,879385.711409,879385.7447849,879385.8116175,879386.2894027,879387.9044073,1,0.608544499962591
109,1,7,categorization,0,kitchen,SHINEd_sun_ataniphupyuxeowc.tif,100,0.0333333333333333,0.0333333333333333,0.0666666666666667,1.01666666666667,879393.0451031,879393.8676957,70,879393.0824254,879393.11463,879393.1806389,879393.8723498,879394.8873537,1,0.822592600015923
109,2,7,categorization,0,kitchen,SHINEd_sun_ahdycvpopffkzzsu.tif,91,0.0333333333333333,0.0333333333333333,0.0666666666666667,1.28333333333333,879394.8934257,879395.699959,70,879394.9288662,879394.9628454,879395.0308261,879395.7045416,879396.9862129,1,0.806533299968578
109,3,7,categorization,0,bathroom,SHINEd_sun_aiskgiwswewisvph.tif,31,0.0333333333333333,0.0333333333333333,0.0666666666666667,1.08333333333333,879396.9908145,879397.7234322,70,879397.0268974,879397.0606744,879397.1277157,879397.7291861,879398.8108569,0,0.732617700006813
109,4,7,categorization,0,bathroom,SHINEd_sun_atstyziqcmkahyxk.tif,51,0.0333333333333333,0.0333333333333333,0.0666666666666667,0.833333333333333,879398.8154253,879399.4274264,74,879398.8511836,879398.8847383,879398.9520414,879399.4336113,879400.2652818,1,0.612001099972986
109,5,7,categorization,0,bathroom,SHINEd_sun_aqrpegblszgcoujh.tif,47,0.0333333333333333,0.0333333333333333,0.0666666666666667,1.45,879400.2698802,879400.9880388,74,879400.3055976,879400.3409468,879400.4057201,879400.9933676,879402.4417066,1,0.718158599920571
109,6,7,categorization,0,kitchen,SHINEd_sun_admlmbcdswaszruo.tif,80,0.0333333333333333,0.0333333333333333,0.0666666666666667,0.75,879402.4473818,879403.1800711,70,879402.4831093,879402.5180451,879402.5830264,879403.1854019,879403.9337394,1,0.732689299969934
109,7,7,categorization,0,bathroom,SHINEd_sun_apjevzvycyhuqghb.tif,44,0.0333333333333333,0.0333333333333333,0.0666666666666667,1.33333333333333,879403.9386878,879404.7154551,74,879403.974822,879404.0078885,879404.0744693,879404.7215727,879406.0532436,1,0.776767300092615
109,8,7,categorization,0,bathroom,SHINEd_sun_aclfzgynxzxlbepz.tif,20,0.0333333333333333,0.0333333333333333,0.0666666666666667,1.15,879406.0579615,879406.6680841,74,879406.0936945,879406.1272498,879406.1936044,879406.6730482,879407.8213863,1,0.610122599988244
109,9,7,categorization,0,bathroom,SHINEd_sun_ammzpemadwrjdfzl.tif,38,0.0333333333333333,0.0333333333333333,0.0666666666666667,1.61666666666667,879407.8271817,879408.5072024,70,879407.8646417,879407.8981717,879407.9632508,879408.51264,879410.1276438,0,0.680020699976012
109,10,7,categorization,0,kitchen,SHINEd_sun_aarfiyshqohlwkmo.tif,67,0.0333333333333333,0.0333333333333333,0.0666666666666667,1.51666666666667,879410.1335567,879410.8994805,70,879410.1692143,879410.2030294,879410.2695189,879410.9052743,879412.4202775,1,0.76592380006332
109,11,7,categorization,0,bathroom,SHINEd_sun_aljolscmmzydegqp.tif,34,0.0333333333333333,0.0333333333333333,0.0666666666666667,1.08333333333333,879412.4252916,879413.1961784,74,879412.4613217,879412.4948365,879412.5605485,879413.2012837,879414.2829634,1,0.770886799902655
109,12,7,categorization,0,kitchen,SHINEd_sun_acfmftudsenhrfhy.tif,75,0.0333333333333333,0.0333333333333333,0.0666666666666667,1.08333333333333,879414.2880541,879415.1882504,70,879414.3234137,879414.35796,879414.424777,879415.192979,879416.2746495,1,0.900196300004609
109,13,7,categorization,0,kitchen,SHINEd_sun_abdxkyyxwfskuaqb.tif,70,0.0333333333333333,0.0333333333333333,0.0666666666666667,1.78333333333333,879416.280636,879416.9401039,70,879416.3164975,879416.3500576,879416.4168722,879416.9453548,879418.727025,1,0.659467900055461
109,14,7,categorization,0,bathroom,SHINEd_sun_abjtwfukuwddzted.tif,17,0.0333333333333333,0.0333333333333333,0.0666666666666667,1.88333333333333,879418.7331633,879419.3714122,74,879418.7688573,879418.8040075,879418.8704864,879419.3773983,879421.2590689,1,0.638248900067993
109,15,7,categorization,0,kitchen,SHINEd_sun_ahpczsiumwwocjkv.tif,93,0.0333333333333333,0.0333333333333333,0.0666666666666667,1.05,879421.2639358,879421.939321,70,879421.2997304,879421.3335439,879421.4007621,879421.9454862,879422.9938245,1,0.675385200069286
109,16,7,categorization,0,bathroom,SHINEd_sun_alkosphxlxwjwgjd.tif,35,0.0333333333333333,0.0333333333333333,0.0666666666666667,0.966666666666667,879422.9990321,879423.6593899,74,879423.0359289,879423.0687597,879423.1357361,879423.6652569,879424.6302619,1,0.66035780007951
109,17,7,categorization,0,kitchen,SHINEd_labelme_rykdqxenmhulbdn.tif,63,0.0333333333333333,0.0333333333333333,0.0666666666666667,1.43333333333333,879424.636499,879425.339396,70,879424.6721471,879424.7054753,879424.7727789,879425.3448755,879426.7765463,1,0.702897000010125
109,18,7,categorization,0,kitchen,SHINEd_sun_abdenxonkemggwsq.tif,69,0.0333333333333333,0.0333333333333333,0.0666666666666667,1.48333333333333,879426.7812513,879427.3719891,70,879426.8176136,879426.85066,879426.9170168,879427.376951,879428.8586234,1,0.590737799997441
109,19,7,categorization,0,bathroom,SHINEd_sun_aunuadmjocsddsrl.tif,53,0.0333333333333333,0.0333333333333333,0.0666666666666667,0.9,879428.8653648,879429.7796799,70,879428.9009336,879428.9347528,879429.0006692,879429.7852714,879430.6836094,0,0.914315100060776
109,20,7,categorization,0,bathroom,SHINEd_labelme_xbsnnlvmskdknsb.tif,12,0.0333333333333333,0.0333333333333333,0.0666666666666667,1,879430.6881855,879431.3314078,74,879430.7237645,879430.7577925,879430.8237615,879431.3366202,879432.3349575,1,0.643222299986519
109,21,7,categorization,0,kitchen,SHINEd_sun_amjjdeyrggfqgmom.tif,98,0.0333333333333333,0.0333333333333333,0.0666666666666667,0.766666666666667,879432.3398865,879433.2592276,70,879432.3764897,879432.4103831,879432.4760501,879433.2643334,879434.0293382,1,0.919341099914163
109,22,7,categorization,0,bathroom,SHINEd_sun_arzkwskvsrwimlwo.tif,48,0.0333333333333333,0.0333333333333333,0.0666666666666667,1.93333333333333,879434.0341991,879434.6840669,74,879434.0701116,879434.1036997,879434.1698863,879434.6891363,879436.620807,1,0.649867800064385
109,23,7,categorization,0,bathroom,SHINEd_sun_ahqjwnzgolcaoidx.tif,30,0.0333333333333333,0.0333333333333333,0.0666666666666667,0.883333333333333,879436.6255359,879437.4274081,74,879436.6628939,879436.6960704,879436.7614392,879437.4329874,879438.3146591,1,0.801872199983336
109,24,7,categorization,0,kitchen,SHINEd_sun_aapllqyqlykszopd.tif,66,0.0333333333333333,0.0333333333333333,0.0666666666666667,1.01666666666667,879438.3196196,879439.0353366,70,879438.3557736,879438.3891093,879438.4563803,879439.0409626,879440.0559666,1,0.715717000071891
109,25,7,categorization,0,kitchen,SHINEd_sun_aehawpgmrlhlvcow.tif,82,0.0333333333333333,0.0333333333333333,0.0666666666666667,0.866666666666667,879440.0615287,879440.7322211,70,879440.09759,879440.1313976,879440.1984128,879440.7372941,879441.6022974,1,0.67069239995908
109,26,7,categorization,0,kitchen,SHINEd_sun_aunzlwrbjumxhwdj.tif,102,0.0333333333333333,0.0333333333333333,0.0666666666666667,0.966666666666667,879441.6069916,879442.3000698,70,879441.6431043,879441.6764138,879441.7427777,879442.305514,879443.2705195,1,0.693078199983574
109,27,7,categorization,0,kitchen,SHINEd_sun_afuyedyxivkhecmu.tif,86,0.0333333333333333,0.0333333333333333,0.0666666666666667,1.25,879443.2755789,879444.2034155,74,879443.3124965,879443.3450031,879443.4112674,879444.2092233,879445.4575707,0,0.927836599992588
109,28,7,categorization,0,bathroom,SHINEd_sun_agrwbmhcpmfuwmsg.tif,27,0.0333333333333333,0.0333333333333333,0.0666666666666667,0.8,879445.4631327,879446.196148,74,879445.4992205,879445.5338057,879445.5987276,879446.2017852,879447.0001215,1,0.733015300007537
109,29,7,categorization,0,kitchen,SHINEd_labelme_kxvouciolcpqplr.tif,62,0.0333333333333333,0.0333333333333333,0.0666666666666667,1.58333333333333,879447.0052879,879447.8113893,74,879447.0410116,879447.0748516,879447.1413938,879447.8165328,879449.3982043,0,0.806101400055923
109,30,7,categorization,0,bathroom,SHINEd_sun_aoybiabnpadelefl.tif,42,0.0333333333333333,0.0333333333333333,0.0666666666666667,1.66666666666667,879449.4031685,879450.18732,70,879449.4388431,879449.472686,879449.5398324,879450.1930565,879451.8580745,0,0.784151499974541
109,31,7,categorization,0,kitchen,SHINEd_sun_abftihopvusyfakt.tif,71,0.0333333333333333,0.0333333333333333,0.0666666666666667,1.23333333333333,879451.8627595,879452.4673907,70,879451.8985883,879451.9322156,879451.9983799,879452.4733641,879453.7050354,1,0.604631199967116
109,32,7,categorization,0,bathroom,SHINEd_sun_aavhrsfjbserjtht.tif,15,0.0333333333333333,0.0333333333333333,0.0666666666666667,1.35,879453.709963,879454.5161055,74,879453.7469752,879453.7794644,879453.8455297,879454.5214,879455.8697369,1,0.806142500019632
109,33,7,categorization,0,kitchen,SHINEd_sun_aegoxogugdkwpmpj.tif,81,0.0333333333333333,0.0333333333333333,0.0666666666666667,1.06666666666667,879455.8744051,879456.7482479,70,879455.9117015,879455.9450595,879456.0097908,879456.7535324,879457.8185366,1,0.873842800036073
109,34,7,categorization,0,bathroom,SHINEd_sun_afcoljnjfoxjtgja.tif,23,0.0333333333333333,0.0333333333333333,0.0666666666666667,0.816666666666667,879457.8234972,879459.2040548,74,879457.8601857,879457.8930371,879457.9595028,879459.2093732,879460.0243777,1,1.38055759994313
109,35,7,categorization,0,kitchen,SHINEd_sun_agzzivivdpnawacl.tif,90,0.0333333333333333,0.0333333333333333,0.0666666666666667,0.716666666666667,879460.0293549,879460.6753824,70,879460.0659209,879460.0999334,879460.1653973,879460.6810779,879461.3960815,1,0.646027500042692
109,36,7,categorization,0,kitchen,SHINEd_sun_aaxxjlsuzvqlgylf.tif,68,0.0333333333333333,0.0333333333333333,0.0666666666666667,1.65,879461.400672,879462.0841114,70,879461.4365185,879461.4702271,879461.5379264,879462.0897376,879463.738076,1,0.683439399930649
109,37,7,categorization,0,bathroom,SHINEd_sun_agguqiubmwhqqunb.tif,25,0.0333333333333333,0.0333333333333333,0.0666666666666667,1.46666666666667,879463.7429718,879464.5474413,74,879463.7790106,879463.8122861,879463.8785316,879464.5532121,879466.0182165,1,0.804469499969855
109,38,7,categorization,0,bathroom,SHINEd_sun_acgyywnybuveqsro.tif,19,0.0333333333333333,0.0333333333333333,0.0666666666666667,1.08333333333333,879466.0241202,879466.6913887,74,879466.0610193,879466.0939104,879466.1599007,879466.6972951,879467.7789656,1,0.667268500081263
109,39,7,categorization,0,bathroom,SHINEd_sun_akiytfaagpdsphgz.tif,32,0.0333333333333333,0.0333333333333333,0.0666666666666667,0.783333333333333,879467.7852084,879468.5553819,74,879467.8225667,879467.8562179,879467.9222782,879468.5612174,879469.3428879,1,0.770173500059173
109,40,7,categorization,0,bathroom,SHINEd_sun_acsgbuurtwghzjel.tif,21,0.0333333333333333,0.0333333333333333,0.0666666666666667,0.95,879469.3488287,879470.2193902,74,879469.3860739,879469.4192555,879469.4841121,879470.2256803,879471.1740169,1,0.870561499963515
109,41,7,categorization,0,kitchen,SHINEd_sun_aqeaevwwwjoqhzvl.tif,99,0.0333333333333333,0.0333333333333333,0.0666666666666667,1.01666666666667,879471.1788929,879471.812118,70,879471.2146464,879471.2484375,879471.3144424,879471.8174233,879472.8324278,1,0.633225099998526
109,42,7,categorization,0,bathroom,SHINEd_sun_anryaplzeujmzfkd.tif,41,0.0333333333333333,0.0333333333333333,0.0666666666666667,0.75,879472.8380585,879473.6440547,74,879472.8738126,879472.9079355,879472.9741337,879473.6494146,879474.3977529,1,0.805996200069785
109,43,7,categorization,0,kitchen,SHINEd_sun_alpduwskzkgbcfui.tif,97,0.0333333333333333,0.0333333333333333,0.0666666666666667,1.41666666666667,879474.402585,879475.0522405,70,879474.4394684,879474.4735628,879474.5397266,879475.0576369,879476.4726414,1,0.649655499961227
109,44,7,categorization,0,kitchen,SHINEd_sun_avszsnwsbuqfgzbn.tif,104,0.0333333333333333,0.0333333333333333,0.0666666666666667,0.733333333333333,879476.477417,879477.219313,70,879476.5144661,879476.5484096,879476.6129278,879477.2252214,879477.9569066,1,0.741895999992266
109,45,7,categorization,0,bathroom,SHINEd_sun_agyqfjcfkdcydepw.tif,28,0.0333333333333333,0.0333333333333333,0.0666666666666667,0.733333333333333,879477.9621187,879478.9799908,74,879477.9994567,879478.0330524,879478.0974198,879478.9855215,879479.7171911,1,1.01787209999748
109,46,7,categorization,0,bathroom,SHINEd_sun_alotolagknyrgtsk.tif,36,0.0333333333333333,0.0333333333333333,0.0666666666666667,1.5,879479.721512,879480.6123398,74,879479.7571778,879479.7911899,879479.8573695,879480.6176601,879482.1159974,1,0.89082780003082
109,47,7,categorization,0,kitchen,SHINEd_sun_aadbddgrdsjugojn.tif,64,0.0333333333333333,0.0333333333333333,0.0666666666666667,1.56666666666667,879482.1209158,879482.7481264,70,879482.1568754,879482.1906714,879482.2565449,879482.7532695,879484.3182731,1,0.627210600068793
109,48,7,categorization,0,bathroom,SHINEd_sun_aghyqhbptboemmoq.tif,26,0.0333333333333333,0.0333333333333333,0.0666666666666667,0.833333333333333,879484.3229293,879485.0113919,74,879484.3602452,879484.3922947,879484.4592126,879485.017083,879485.8487537,1,0.688462599995546
109,49,7,categorization,0,kitchen,SHINEd_sun_azmutvzbxypaceni.tif,110,0.0333333333333333,0.0333333333333333,0.0666666666666667,1.21666666666667,879485.8536679,879486.5561213,70,879485.8900037,879485.9226773,879485.9891338,879486.5611131,879487.776117,1,0.70245340000838
109,50,7,categorization,0,bathroom,SHINEd_labelme_sfxiulhjbhlyiyt.tif,11,0.0333333333333333,0.0333333333333333,0.0666666666666667,0.733333333333333,879487.7811318,879488.4199188,74,879487.8168996,879487.850556,879487.9165128,879488.4252168,879489.1568881,1,0.6387869999744
109,1,8,categorization,0,kitchen,SHINEd_sun_acxkpeoqbwcxfvip.tif,77,0.0333333333333333,0.0333333333333333,0.0666666666666667,0.966666666666667,879505.3157216,879506.1318821,70,879505.3513426,879505.3852176,879505.4517294,879506.1365396,879507.101545,1,0.816160500049591
109,2,8,categorization,0,bathroom,SHINEd_sun_awnqiikzaispgmwo.tif,57,0.0333333333333333,0.0333333333333333,0.0666666666666667,1.25,879507.1068692,879507.8113774,74,879507.1421736,879507.1760616,879507.2423525,879507.8172409,879509.0655783,1,0.704508199938573
109,3,8,categorization,0,bathroom,SHINEd_sun_abapwbhyhkfixyex.tif,16,0.0333333333333333,0.0333333333333333,0.0666666666666667,0.833333333333333,879509.0703162,879510.1561729,74,879509.1077201,879509.1415143,879509.2063313,879510.1617264,879510.9933969,1,1.08585669996683
109,4,8,categorization,0,bathroom,SHINEd_sun_acduarbnmmoglmiv.tif,18,0.0333333333333333,0.0333333333333333,0.0666666666666667,1.3,879510.9985765,879511.7233842,74,879511.0358102,879511.0685905,879511.135911,879511.7295043,879513.0278431,1,0.724807700025849
