sub_num,trial,block,task,is_practice,category,image,texture,duration,mask_dur,jitter,stim_time,time_of_resp,trial_response,mask_time,fix_time,jit_onset,trial_end,trial_accuracy,RT
122,1,12,categorization,0,bathroom,SHINEd_sun_agrwbmhcpmfuwmsg.tif,24,0.0666666666666667,0.0666666666666667,1.01666666666667,17526.652653041,17527.402167791,13,17526.715260291,17526.775338291,17527.410513333,17528.420547583,1,0.749514749997616
122,2,12,categorization,0,kitchen,SHINEd_sun_aegoxogugdkwpmpj.tif,80,0.0666666666666667,0.0666666666666667,0.766666666666667,17528.431562666,17529.012912208,9,17528.496056708,17528.562917583,17529.036045125,17529.796103458,1,0.58134954200068
122,3,12,categorization,0,bathroom,SHINEd_sun_apjevzvycyhuqghb.tif,43,0.0666666666666667,0.0666666666666667,0.716666666666667,17529.810658208,17530.5858225,9,17529.877072291,17529.943168,17530.595617166,17531.305622708,0,0.775164292001136
122,4,12,categorization,0,bathroom,SHINEd_sun_apeeialkgkuxddgh.tif,42,0.0666666666666667,0.0666666666666667,0.816666666666667,17531.3104825,17531.937842291,13,17531.372246375,17531.43316025,17531.951687208,17532.761690541,1,0.627359791000345
122,5,12,categorization,0,bathroom,SHINEd_sun_ajlawzvmubibwbpy.tif,30,0.0666666666666667,0.0666666666666667,1.96666666666667,17532.767421666,17533.498233458,13,17532.82904675,17532.890085208,17533.508633041,17535.468676,1,0.730811792000168
122,6,12,categorization,0,kitchen,SHINEd_sun_awcpdzzznmweyyhv.tif,106,0.0666666666666667,0.0666666666666667,0.85,17535.485322958,17536.195049541,9,17535.551817541,17535.617908708,17536.224358125,17537.06769675,1,0.709726582997973
122,7,12,categorization,0,kitchen,SHINEd_sun_afuyedyxivkhecmu.tif,85,0.0666666666666667,0.0666666666666667,0.7,17537.073441625,17537.698078041,13,17537.1350095,17537.196238916,17537.714728583,17538.408066875,0,0.624636415999703
122,8,12,categorization,0,kitchen,SHINEd_sun_abdenxonkemggwsq.tif,69,0.0666666666666667,0.0666666666666667,1.23333333333333,17538.413626583,17539.017901375,9,17538.475272291,17538.536328833,17539.021487916,17540.248190958,1,0.604274792000069
122,9,12,categorization,0,kitchen,SHINEd_sun_agubuxuukhzyzpdp.tif,88,0.0666666666666667,0.0666666666666667,1.13333333333333,17540.264463583,17540.976055875,9,17540.330807125,17540.397343125,17541.003405958,17542.130112791,1,0.711592291998386
122,10,12,categorization,0,kitchen,SHINEd_labelme_brsyyvweiuaazfr.tif,61,0.0666666666666667,0.0666666666666667,0.95,17542.141019416,17542.768186708,9,17542.207477291,17542.273464958,17542.796431958,17543.739822583,1,0.627167291997466
122,11,12,categorization,0,kitchen,SHINEd_sun_ajkqhtgcbgpcwrwn.tif,97,0.0666666666666667,0.0666666666666667,1.83333333333333,17543.755610958,17544.298764458,13,17543.822218583,17543.888119833,17544.307405666,17546.134111958,0,0.54315349999888
122,12,12,categorization,0,bathroom,SHINEd_sun_asfwthctfqerjvxr.tif,49,0.0666666666666667,0.0666666666666667,1.41666666666667,17546.149325166,17546.836162416,9,17546.216891291,17546.281811958,17546.854713666,17548.264761583,0,0.686837249999371
122,13,12,categorization,0,kitchen,SHINEd_labelme_rykdqxenmhulbdn.tif,63,0.0666666666666667,0.0666666666666667,1.06666666666667,17548.281662083,17549.013592,9,17548.348163333,17548.414129916,17549.037406708,17550.097460375,1,0.731929916997615
122,14,12,categorization,0,bathroom,SHINEd_sun_aclfzgynxzxlbepz.tif,19,0.0666666666666667,0.0666666666666667,0.716666666666667,17550.109767791,17550.787809666,13,17550.174556208,17550.241855333,17550.814509375,17551.524559166,1,0.678041874998598
122,15,12,categorization,0,bathroom,SHINEd_sun_apkruvsevgegsdwp.tif,44,0.0666666666666667,0.0666666666666667,1.4,17551.541502166,17552.186749125,13,17551.6079205,17551.673946291,17552.193242958,17553.586632833,1,0.64524695900036
122,16,12,categorization,0,bathroom,SHINEd_sun_anhioqovhscjqqwb.tif,38,0.0666666666666667,0.0666666666666667,1.36666666666667,17553.60306525,17554.264200666,9,17553.6709385,17553.735652041,17554.291925041,17555.651973083,0,0.661135415997705
122,17,12,categorization,0,kitchen,SHINEd_sun_avszsnwsbuqfgzbn.tif,105,0.0666666666666667,0.0666666666666667,0.983333333333333,17555.668537541,17556.320457833,9,17555.734764583,17555.800963916,17556.340375666,17557.317082625,1,0.651920291998977
122,18,12,categorization,0,bathroom,SHINEd_sun_acegryoqftbzowsg.tif,17,0.0666666666666667,0.0666666666666667,1.93333333333333,17557.332795166,17557.978656083,9,17557.398325375,17557.456790875,17557.991898208,17559.918608375,0,0.645860917000391
122,19,12,categorization,0,bathroom,SHINEd_sun_alotolagknyrgtsk.tif,35,0.0666666666666667,0.0666666666666667,1.81666666666667,17559.935693791,17560.500748583,9,17560.002613625,17560.0683635,17560.524624666,17562.334668791,0,0.565054791997682
122,20,12,categorization,0,kitchen,SHINEd_sun_ahdycvpopffkzzsu.tif,90,0.0666666666666667,0.0666666666666667,1.15,17562.351629958,17562.883201833,13,17562.418015958,17562.484088375,17562.907083708,17564.050451125,0,0.531571874998917
122,21,12,categorization,0,bathroom,SHINEd_sun_ahqjwnzgolcaoidx.tif,29,0.0666666666666667,0.0666666666666667,1.65,17564.059810625,17564.79537175,9,17564.127399083,17564.192505375,17564.815190791,17566.458564,0,0.73556112499864
122,22,12,categorization,0,kitchen,SHINEd_sun_axyyrmzcupyhlivc.tif,107,0.0666666666666667,0.0666666666666667,1.66666666666667,17566.476226625,17567.047582125,9,17566.542861375,17566.609236583,17567.065132833,17568.725177916,1,0.571355500000209
122,23,12,categorization,0,kitchen,SHINEd_labelme_kxvouciolcpqplr.tif,62,0.0666666666666667,0.0666666666666667,1.01666666666667,17568.743941,17569.37143725,13,17568.810537166,17568.876749333,17569.399723625,17570.409779083,0,0.62749624999924
122,24,12,categorization,0,kitchen,SHINEd_sun_amjjdeyrggfqgmom.tif,100,0.0666666666666667,0.0666666666666667,1.98333333333333,17570.419837375,17570.965200375,13,17570.484419166,17570.551372125,17570.990759166,17572.967461666,0,0.545363000001089
122,25,12,categorization,0,kitchen,SHINEd_sun_abftihopvusyfakt.tif,71,0.0666666666666667,0.0666666666666667,1.03333333333333,17572.9832905,17573.611824333,9,17573.050765333,17573.111301958,17573.634328333,17574.661034041,1,0.628533832998073
122,26,12,categorization,0,kitchen,SHINEd_sun_aadbddgrdsjugojn.tif,64,0.0666666666666667,0.0666666666666667,1.5,17574.670019416,17575.35402025,9,17574.735398458,17574.804205875,17575.37728525,17576.870674166,1,0.684000834000472
122,27,12,categorization,0,bathroom,SHINEd_sun_ahijqszoswveeyji.tif,28,0.0666666666666667,0.0666666666666667,1.1,17576.880005458,17577.379111625,9,17576.945571333,17577.012481416,17577.402644875,17578.496028041,0,0.499106167000718
122,28,12,categorization,0,kitchen,SHINEd_sun_akcjzhbbjlbogpdi.tif,99,0.0666666666666667,0.0666666666666667,0.783333333333333,17578.512278291,17578.986891458,9,17578.578970791,17578.644824375,17578.997259083,17579.77393175,1,0.474613166999916
122,29,12,categorization,0,bathroom,SHINEd_sun_apynckhmoftszqoq.tif,47,0.0666666666666667,0.0666666666666667,1.21666666666667,17579.779219916,17580.442123125,13,17579.840792041,17579.901945458,17580.45392775,17581.663981791,1,0.662903209002252
122,30,12,categorization,0,bathroom,SHINEd_labelme_sfxiulhjbhlyiyt.tif,11,0.0666666666666667,0.0666666666666667,1.41666666666667,17581.679542375,17582.311409541,9,17581.747228291,17581.812033416,17582.335003375,17583.745057458,0,0.631867165997392
122,31,12,categorization,0,bathroom,SHINEd_sun_ausgutylgojavyoq.tif,53,0.0666666666666667,0.0666666666666667,1.28333333333333,17583.760518083,17584.401409666,13,17583.827030333,17583.893077875,17584.415336291,17585.692048708,1,0.640891582999757
122,32,12,categorization,0,kitchen,SHINEd_sun_adgqasybjyktddhj.tif,78,0.0666666666666667,0.0666666666666667,0.95,17585.708884166,17586.242131666,9,17585.770873541,17585.831645083,17586.249982291,17587.193321541,1,0.533247499999561
122,33,12,categorization,0,bathroom,SHINEd_sun_abapwbhyhkfixyex.tif,14,0.0666666666666667,0.0666666666666667,1.73333333333333,17587.198127958,17588.082613708,9,17587.25983275,17587.320918125,17588.089393541,17589.816111291,0,0.884485750000749
122,34,12,categorization,0,bathroom,SHINEd_sun_aspsyogrekjtfozg.tif,50,0.0666666666666667,0.0666666666666667,1.56666666666667,17589.831736541,17590.3645575,9,17589.899334541,17589.964225208,17590.38741825,17591.94746425,0,0.532820959000674
122,35,12,categorization,0,kitchen,SHINEd_sun_aarfiyshqohlwkmo.tif,67,0.0666666666666667,0.0666666666666667,1.05,17591.965288541,17592.570320583,9,17592.032291166,17592.097941083,17592.587172958,17593.630556208,1,0.605032041999948
122,36,12,categorization,0,bathroom,SHINEd_sun_aggnnqpdorgxpvce.tif,21,0.0666666666666667,0.0666666666666667,0.916666666666667,17593.640969291,17594.297257958,9,17593.705787583,17593.772211,17594.311245666,17595.22130375,0,0.656288666999899
122,37,12,categorization,0,bathroom,SHINEd_sun_anryaplzeujmzfkd.tif,39,0.0666666666666667,0.0666666666666667,1.61666666666667,17595.2344895,17596.018218666,13,17595.301019083,17595.366795791,17596.03628875,17597.646330958,1,0.78372916599983
122,38,12,categorization,0,kitchen,SHINEd_sun_abdxkyyxwfskuaqb.tif,70,0.0666666666666667,0.0666666666666667,0.916666666666667,17597.662373583,17598.427322875,9,17597.730480958,17597.794622666,17598.450941833,17599.360946916,1,0.764949291999073
122,39,12,categorization,0,bathroom,SHINEd_sun_alkosphxlxwjwgjd.tif,34,0.0666666666666667,0.0666666666666667,0.916666666666667,17599.366657208,17600.137916083,13,17599.428452666,17599.489385791,17600.141409916,17601.051415583,1,0.771258875000058
122,40,12,categorization,0,bathroom,SHINEd_sun_acduarbnmmoglmiv.tif,16,0.0666666666666667,0.0666666666666667,0.916666666666667,17601.057008,17601.762259,13,17601.118643416,17601.17970375,17601.782002625,17602.69200625,1,0.705250999999407
122,41,12,categorization,0,bathroom,SHINEd_sun_aunuadmjocsddsrl.tif,52,0.0666666666666667,0.0666666666666667,1.28333333333333,17602.697301,17603.337929458,9,17602.759052208,17602.819945333,17603.355139958,17604.6318495,0,0.64062845800072
122,42,12,categorization,0,kitchen,SHINEd_sun_abrcnpqqhmjwekyf.tif,73,0.0666666666666667,0.0666666666666667,0.916666666666667,17604.648568125,17605.164316708,9,17604.715051291,17604.780919458,17605.18587,17606.095914625,1,0.51574858299864
122,43,12,categorization,0,kitchen,SHINEd_sun_aaxxjlsuzvqlgylf.tif,68,0.0666666666666667,0.0666666666666667,1.68333333333333,17606.110601375,17606.721957375,9,17606.176928708,17606.242964083,17606.728709875,17608.405426833,1,0.611356000001251
122,44,12,categorization,0,bathroom,SHINEd_sun_axxbkopsgyouuebh.tif,58,0.0666666666666667,0.0666666666666667,0.933333333333333,17608.420649041,17608.963451208,13,17608.486926375,17608.554415416,17608.976525583,17609.903197708,1,0.542802167001355
122,45,12,categorization,0,bathroom,SHINEd_sun_auzqhkafidnkrwmo.tif,54,0.0666666666666667,0.0666666666666667,1.86666666666667,17609.908999208,17610.554099916,9,17609.970749833,17610.031694875,17610.567038791,17612.427092958,0,0.645100707999518
122,46,12,categorization,0,bathroom,SHINEd_sun_aoybiabnpadelefl.tif,41,0.0666666666666667,0.0666666666666667,1.03333333333333,17612.443684916,17613.257479291,9,17612.510057958,17612.576555666,17613.282602916,17614.309311,0,0.813794375000725
122,47,12,categorization,0,kitchen,SHINEd_sun_acfmftudsenhrfhy.tif,74,0.0666666666666667,0.0666666666666667,1.43333333333333,17614.318823166,17615.091733,9,17614.383399541,17614.450185083,17615.105853958,17616.532556916,1,0.772909834002348
122,48,12,categorization,0,kitchen,SHINEd_sun_aeqdocilnnpuvuhx.tif,83,0.0666666666666667,0.0666666666666667,0.833333333333333,17616.550058291,17617.205025,13,17616.616670666,17616.682419458,17617.220564416,17618.047276958,0,0.654966709000291
122,49,12,categorization,0,kitchen,SHINEd_sun_ahywdevtimnqcsln.tif,94,0.0666666666666667,0.0666666666666667,0.833333333333333,17618.059955166,17618.721661666,9,17618.126446375,17618.192510416,17618.728267291,17619.554938791,1,0.661706499999127
122,50,12,categorization,0,kitchen,SHINEd_sun_acwjdupvyjsugpay.tif,76,0.0666666666666667,0.0666666666666667,0.916666666666667,17619.559926875,17620.586126,9,17619.621553625,17619.682628208,17620.601703791,17621.511708541,1,1.02619912499722
