sub_num,trial,block,task,is_practice,category,image,texture,duration,mask_dur,jitter,stim_time,time_of_resp,trial_response,mask_time,fix_time,jit_onset,trial_end,trial_accuracy,RT
122,1,16,categorization,0,bathroom,SHINEd_sun_ambriybtogmepttm.tif,36,0.0666666666666667,0.0666666666666667,1.56666666666667,18051.677617208,18052.46406525,13,18051.740339583,18051.800287916,18052.46933875,18054.029381583,1,0.786448041999392
122,2,16,categorization,0,bathroom,SHINEd_sun_avhrdrntsqrjzccq.tif,55,0.0666666666666667,0.0666666666666667,1.38333333333333,18054.047309208,18054.693815291,13,18054.11369025,18054.179990833,18054.719252625,18056.095971958,1,0.646506083001441
122,3,16,categorization,0,kitchen,SHINEd_sun_aehawpgmrlhlvcow.tif,81,0.0666666666666667,0.0666666666666667,1.95,18056.112848291,18056.726166875,13,18056.179398625,18056.245560541,18056.751683458,18058.695069833,0,0.613318584000808
122,4,16,categorization,0,kitchen,SHINEd_sun_aaxxjlsuzvqlgylf.tif,68,0.0666666666666667,0.0666666666666667,0.833333333333333,18058.711349208,18059.441652583,13,18058.77787525,18058.844060541,18059.467720833,18060.294394833,0,0.730303374999494
122,5,16,categorization,0,kitchen,SHINEd_sun_ahywdevtimnqcsln.tif,94,0.0666666666666667,0.0666666666666667,1.06666666666667,18060.299374333,18060.920682083,13,18060.361117958,18060.422018083,18060.923692541,18061.983732958,0,0.621307749999687
122,6,16,categorization,0,bathroom,SHINEd_sun_axldvoqbuvuggfmq.tif,57,0.0666666666666667,0.0666666666666667,1.15,18061.992251875,18062.715407375,13,18062.056686416,18062.123471416,18062.728651416,18063.87203725,1,0.723155499999848
122,7,16,categorization,0,bathroom,SHINEd_labelme_sfxiulhjbhlyiyt.tif,11,0.0666666666666667,0.0666666666666667,0.866666666666667,18063.8898645,18064.520316333,13,18063.956510958,18064.014354166,18064.533039166,18065.393044291,1,0.630451832999825
122,8,16,categorization,0,bathroom,SHINEd_sun_ahaulkltgpkeeemi.tif,26,0.0666666666666667,0.0666666666666667,1.03333333333333,18065.397965041,18066.13631275,13,18065.459749208,18065.52072325,18066.156098333,18067.18280675,1,0.738347709000664
122,9,16,categorization,0,bathroom,SHINEd_sun_aspsyogrekjtfozg.tif,50,0.0666666666666667,0.0666666666666667,1.85,18067.192822916,18067.797074541,13,18067.257262583,18067.323755791,18067.812803583,18069.656170583,1,0.604251624998142
122,10,16,categorization,0,kitchen,SHINEd_sun_auaiucuqpdausiva.tif,102,0.0666666666666667,0.0666666666666667,1.25,18069.673833125,18070.14118775,9,18069.740383708,18069.806231791,18070.161899833,18071.405292916,1,0.467354624997824
122,11,16,categorization,0,kitchen,SHINEd_sun_ahspylgoovwmwvgk.tif,93,0.0666666666666667,0.0666666666666667,1.55,18071.4168635,18072.127883541,9,18071.48341525,18071.549295125,18072.156001041,18073.699385333,1,0.711020041002485
122,12,16,categorization,0,kitchen,SHINEd_sun_admlmbcdswaszruo.tif,79,0.0666666666666667,0.0666666666666667,0.933333333333333,18073.716827416,18074.169687,9,18073.784834916,18073.84915525,18074.188250375,18075.114947916,1,0.452859584001999
122,13,16,categorization,0,bathroom,SHINEd_sun_afcoljnjfoxjtgja.tif,20,0.0666666666666667,0.0666666666666667,1.3,18075.126815416,18075.703914208,13,18075.191628791,18075.259176333,18075.711750125,18077.005119583,1,0.57709879200047
122,14,16,categorization,0,bathroom,SHINEd_sun_alkosphxlxwjwgjd.tif,34,0.0666666666666667,0.0666666666666667,0.883333333333333,18077.023896333,18077.540126333,13,18077.089922833,18077.151822583,18077.557723416,18078.434443916,1,0.516229999997449
122,15,16,categorization,0,bathroom,SHINEd_sun_axxbkopsgyouuebh.tif,58,0.0666666666666667,0.0666666666666667,0.866666666666667,18078.449743875,18079.040380291,13,18078.515954375,18078.582049041,18079.051186416,18079.911190458,1,0.590636416000052
122,16,16,categorization,0,bathroom,SHINEd_sun_amzlamotzwfkwjco.tif,37,0.0666666666666667,0.0666666666666667,1.91666666666667,18079.915989791,18080.44754475,13,18079.977685958,18080.038641916,18080.457098125,18082.36714025,1,0.531554959001369
122,17,16,categorization,0,kitchen,SHINEd_sun_aegoxogugdkwpmpj.tif,80,0.0666666666666667,0.0666666666666667,0.95,18082.3843825,18082.98510625,13,18082.452466791,18082.517894125,18083.007780708,18083.951120333,0,0.600723749997996
122,18,16,categorization,0,bathroom,SHINEd_sun_apynckhmoftszqoq.tif,47,0.0666666666666667,0.0666666666666667,0.883333333333333,18083.956209875,18084.576233208,13,18084.017867375,18084.079055833,18084.580820375,18085.457492583,1,0.620023333001882
122,19,16,categorization,0,kitchen,SHINEd_sun_ajkqhtgcbgpcwrwn.tif,97,0.0666666666666667,0.0666666666666667,0.933333333333333,18085.462432958,18086.040022958,9,18085.524100958,18085.585237291,18086.053714333,18086.98038575,1,0.577590000000782
122,20,16,categorization,0,kitchen,SHINEd_sun_awcpdzzznmweyyhv.tif,106,0.0666666666666667,0.0666666666666667,0.716666666666667,18086.984948458,18087.583902708,9,18087.0467475,18087.107799958,18087.592986791,18088.302992166,1,0.598954249999224
122,21,16,categorization,0,kitchen,SHINEd_sun_akcjzhbbjlbogpdi.tif,99,0.0666666666666667,0.0666666666666667,1.23333333333333,18088.307982,18088.91990525,9,18088.369644541,18088.430726291,18088.932557375,18090.15927775,1,0.611923250002292
122,22,16,categorization,0,bathroom,SHINEd_sun_aclfzgynxzxlbepz.tif,19,0.0666666666666667,0.0666666666666667,0.833333333333333,18090.17548225,18090.711374041,13,18090.241821833,18090.307933583,18090.730874458,18091.557577541,1,0.535891790997994
122,23,16,categorization,0,kitchen,SHINEd_sun_agzzivivdpnawacl.tif,89,0.0666666666666667,0.0666666666666667,1.05,18091.573635166,18092.152270875,13,18091.640243541,18091.705857375,18092.158367583,18093.201739041,0,0.578635709000082
122,24,16,categorization,0,kitchen,SHINEd_sun_acgtpgfybqjmzeyw.tif,75,0.0666666666666667,0.0666666666666667,1.46666666666667,18093.210452125,18093.78625775,9,18093.275356125,18093.341430333,18093.814141875,18095.274181416,1,0.575805624997884
122,25,16,categorization,0,kitchen,SHINEd_sun_abdenxonkemggwsq.tif,69,0.0666666666666667,0.0666666666666667,1.68333333333333,18095.283794375,18095.698621166,13,18095.350349625,18095.416223541,18095.722742833,18097.399468833,0,0.41482679100227
122,26,16,categorization,0,bathroom,SHINEd_sun_asfwthctfqerjvxr.tif,49,0.0666666666666667,0.0666666666666667,0.883333333333333,18097.410099958,18097.772261541,9,18097.47658375,18097.542882583,18097.799261666,18098.675988583,0,0.362161582997942
122,27,16,categorization,0,bathroom,SHINEd_sun_akiytfaagpdsphgz.tif,31,0.0666666666666667,0.0666666666666667,1.16666666666667,18098.69104125,18099.34812075,13,18098.757566125,18098.823627666,18099.362622625,18100.522661291,1,0.657079500000691
122,28,16,categorization,0,bathroom,SHINEd_sun_alotolagknyrgtsk.tif,35,0.0666666666666667,0.0666666666666667,0.766666666666667,18100.532552708,18101.083620458,13,18100.599067041,18100.665063875,18101.104755458,18101.864811583,1,0.551067750002403
122,29,16,categorization,0,kitchen,SHINEd_sun_akchetnepxlcxhsu.tif,98,0.0666666666666667,0.0666666666666667,0.8,18101.880023166,18102.695954958,13,18101.946450083,18102.012457083,18102.714882875,18103.508219583,0,0.815931791999901
122,30,16,categorization,0,bathroom,SHINEd_sun_anryaplzeujmzfkd.tif,39,0.0666666666666667,0.0666666666666667,1.03333333333333,18103.513156708,18104.328001208,13,18103.574757791,18103.63588325,18104.33790875,18105.364612333,1,0.814844500000618
122,31,16,categorization,0,kitchen,SHINEd_sun_acwjdupvyjsugpay.tif,76,0.0666666666666667,0.0666666666666667,1.35,18105.374165125,18106.099787083,9,18105.438214166,18105.505410291,18106.128466125,18107.471834583,1,0.725621958001284
122,32,16,categorization,0,bathroom,SHINEd_sun_anhioqovhscjqqwb.tif,38,0.0666666666666667,0.0666666666666667,0.95,18107.481078125,18108.252078041,13,18107.548967125,18107.613727708,18108.269538666,18109.212927,1,0.77099991599971
122,33,16,categorization,0,kitchen,SHINEd_sun_aggjlwcdjsjcaemh.tif,86,0.0666666666666667,0.0666666666666667,0.766666666666667,18109.223214166,18109.903748833,9,18109.289550708,18109.355669833,18109.908106125,18110.668110958,1,0.680534667000757
122,34,16,categorization,0,kitchen,SHINEd_sun_aixorpehvfykdynp.tif,95,0.0666666666666667,0.0666666666666667,1.08333333333333,18110.672941041,18111.304092916,9,18110.734563708,18110.795602166,18111.314028791,18112.390747166,1,0.631151875000796
122,35,16,categorization,0,kitchen,SHINEd_sun_abdxkyyxwfskuaqb.tif,70,0.0666666666666667,0.0666666666666667,1.16666666666667,18112.398850541,18112.95710975,9,18112.462968916,18112.530344375,18112.986406416,18114.14645525,1,0.558259208999516
122,36,16,categorization,0,bathroom,SHINEd_sun_agrwbmhcpmfuwmsg.tif,24,0.0666666666666667,0.0666666666666667,1.71666666666667,18114.163916083,18114.67979375,13,18114.230373833,18114.296345208,18114.698813791,18116.408854291,1,0.515877667003224
122,37,16,categorization,0,kitchen,SHINEd_sun_abrcnpqqhmjwekyf.tif,73,0.0666666666666667,0.0666666666666667,0.966666666666667,18116.425664166,18117.138251041,9,18116.49233325,18116.558263916,18117.162566416,18118.122570291,1,0.712586875000852
122,38,16,categorization,0,kitchen,SHINEd_sun_acfmftudsenhrfhy.tif,74,0.0666666666666667,0.0666666666666667,0.966666666666667,18118.127683833,18118.728466083,13,18118.189301958,18118.250473666,18118.73607075,18119.696075958,0,0.600782249999611
122,39,16,categorization,0,bathroom,SHINEd_sun_apkruvsevgegsdwp.tif,44,0.0666666666666667,0.0666666666666667,0.75,18119.700817958,18120.35180375,13,18119.76269975,18119.823520708,18120.358838375,18121.102177375,1,0.650985791999119
122,40,16,categorization,0,kitchen,SHINEd_labelme_rykdqxenmhulbdn.tif,63,0.0666666666666667,0.0666666666666667,1.05,18121.106802666,18121.79184825,9,18121.168490083,18121.229469916,18121.797984833,18122.841369791,1,0.685045583999454
122,41,16,categorization,0,kitchen,SHINEd_sun_aapllqyqlykszopd.tif,66,0.0666666666666667,0.0666666666666667,0.85,18122.849611625,18123.337797375,13,18122.9137735,18122.98067975,18123.353026916,18124.196408583,0,0.488185750000412
122,42,16,categorization,0,bathroom,SHINEd_sun_aapitsgbtktqubfy.tif,12,0.0666666666666667,0.0666666666666667,1.25,18124.211634208,18124.764671333,13,18124.277946791,18124.344153291,18124.783196333,18126.026577333,1,0.553037124998809
122,43,16,categorization,0,bathroom,SHINEd_sun_auzqhkafidnkrwmo.tif,54,0.0666666666666667,0.0666666666666667,1.1,18126.044584083,18126.544667875,13,18126.111272541,18126.1770245,18126.56656825,18127.659954416,1,0.500083792001533
122,44,16,categorization,0,bathroom,SHINEd_sun_aljolscmmzydegqp.tif,33,0.0666666666666667,0.0666666666666667,0.866666666666667,18127.675902958,18128.256245375,13,18127.742629041,18127.808850166,18128.261167416,18129.121171333,1,0.580342417000793
122,45,16,categorization,0,bathroom,SHINEd_sun_agyqfjcfkdcydepw.tif,25,0.0666666666666667,0.0666666666666667,0.716666666666667,18129.125963083,18129.760016583,9,18129.187627541,18129.24861225,18129.767319083,18130.477323083,0,0.634053500001755
122,46,16,categorization,0,bathroom,SHINEd_sun_acgyywnybuveqsro.tif,18,0.0666666666666667,0.0666666666666667,1.98333333333333,18130.482109041,18131.079986916,13,18130.543808583,18130.604761458,18131.090377125,18133.0671,1,0.59787787499954
122,47,16,categorization,0,bathroom,SHINEd_sun_ahqjwnzgolcaoidx.tif,29,0.0666666666666667,0.0666666666666667,1.93333333333333,18133.083582166,18133.656206583,13,18133.148174041,18133.214931791,18133.670452375,18135.5971725,1,0.572624417000043
122,48,16,categorization,0,kitchen,SHINEd_sun_aqeaevwwwjoqhzvl.tif,101,0.0666666666666667,0.0666666666666667,0.8,18135.613692,18136.139109791,13,18135.680422208,18135.746364958,18136.169456375,18136.962796125,0,0.525417790999199
122,49,16,categorization,0,bathroom,SHINEd_sun_ausgutylgojavyoq.tif,53,0.0666666666666667,0.0666666666666667,1.71666666666667,18136.967693916,18137.543860916,13,18137.02929,18137.090389666,18137.558880916,18139.268934666,1,0.576166999999259
122,50,16,categorization,0,bathroom,SHINEd_sun_acegryoqftbzowsg.tif,17,0.0666666666666667,0.0666666666666667,1.96666666666667,18139.281126708,18139.695643458,13,18139.347597625,18139.413849125,18139.720332333,18141.680386375,1,0.414516749999166
