sub_num,trial,block,task,is_practice,category,image,texture,duration,blank,mask_dur,jitter,stim_time,time_of_resp,trial_response,blank_time,mask_time,fix_time,jit_onset,trial_end,trial_accuracy,RT
108,1,0,categorization,1,bathroom,SHINEd_bathroom_practice1.tif,111,0.0333333333333333,0.0166666666666667,0.0833333333333333,1.95,875650.0611624,875650.9413405,70,875650.0969901,875650.1149236,875650.1982324,875650.9787011,875652.9270749,1,0.880178100080229
108,2,0,categorization,1,bathroom,SHINEd_bathroom_practice2.tif,112,0.0333333333333333,0.0166666666666667,0.0833333333333333,1.58333333333333,875652.9363183,875653.5657338,74,875652.9721292,875652.9906035,875653.0722142,875653.5745377,875655.1562588,0,0.629415499977767
108,3,0,categorization,1,bathroom,SHINEd_bathroom_practice3.tif,113,0.0333333333333333,0.0166666666666667,0.0833333333333333,1.2,875655.164231,875655.7732372,70,875655.2015605,875655.2185956,875655.3003134,875655.7813445,875656.9797224,1,0.609006199985743
108,4,0,categorization,1,bathroom,SHINEd_bathroom_practice4.tif,114,0.0333333333333333,0.0166666666666667,0.0833333333333333,0.85,875656.9850849,875657.5336583,70,875657.0211938,875657.0378224,875657.1210955,875657.5411772,875658.3895681,1,0.548573399893939
108,5,0,categorization,1,bathroom,SHINEd_bathroom_practice5.tif,115,0.0333333333333333,0.0166666666666667,0.0833333333333333,1.03333333333333,875658.39584,875658.9892967,74,875658.4333487,875658.4499229,875658.5317216,875659.0006859,875660.0324566,0,0.59345669997856
108,6,0,categorization,1,kitchen,SHINEd_kitchen_practice1.tif,116,0.0333333333333333,0.0166666666666667,0.0833333333333333,0.75,875660.0373702,875660.5578808,74,875660.0732549,875660.090105,875660.1729975,875660.5637364,875661.3120757,1,0.520510599948466
108,7,0,categorization,1,kitchen,SHINEd_kitchen_practice2.tif,117,0.0333333333333333,0.0166666666666667,0.0833333333333333,0.95,875661.3182691,875661.941926,74,875661.3557117,875661.3715723,875661.4537104,875661.9479379,875662.8962769,1,0.623656900017522
108,8,0,categorization,1,kitchen,SHINEd_kitchen_practice3.tif,118,0.0333333333333333,0.0166666666666667,0.0833333333333333,1.68333333333333,875662.9025545,875663.525309,74,875662.9400214,875662.9567333,875663.0385215,875663.5315554,875665.2132271,1,0.622754500014707
108,9,0,categorization,1,kitchen,SHINEd_kitchen_practice4.tif,119,0.0333333333333333,0.0166666666666667,0.0833333333333333,1.81666666666667,875665.2180405,875665.8052012,74,875665.2537298,875665.2706048,875665.3536542,875665.812174,875667.6271796,1,0.587160700000823
108,10,0,categorization,1,kitchen,SHINEd_kitchen_practice5.tif,120,0.0333333333333333,0.0166666666666667,0.0833333333333333,1.25,875667.6322961,875668.333309,74,875667.669241,875667.6862851,875667.7691629,875668.3392074,875669.5875445,1,0.701012899982743
108,1,1,categorization,0,kitchen,SHINEd_sun_aehawpgmrlhlvcow.tif,82,0.0333333333333333,0.0166666666666667,0.0833333333333333,1.55,875674.1694841,875674.8536869,74,875674.2049599,875674.2218263,875674.3068864,875674.8583966,875676.4067341,1,0.684202800039202
108,2,1,categorization,0,bathroom,SHINEd_sun_ambriybtogmepttm.tif,37,0.0333333333333333,0.0166666666666667,0.0833333333333333,1.73333333333333,875676.4114278,875676.9817351,74,875676.447199,875676.4642444,875676.5470517,875676.9869472,875678.7186202,0,0.57030730007682
108,3,1,categorization,0,kitchen,SHINEd_sun_aeikbkmhphqzxdkv.tif,83,0.0333333333333333,0.0166666666666667,0.0833333333333333,1.08333333333333,875678.7237121,875679.4138685,70,875678.7597144,875678.7766149,875678.8595565,875679.4198309,875680.501503,0,0.69015640008729
108,4,1,categorization,0,bathroom,SHINEd_sun_abapwbhyhkfixyex.tif,16,0.0333333333333333,0.0166666666666667,0.0833333333333333,1.18333333333333,875680.5058572,875681.173117,74,875680.5426154,875680.5584988,875680.6420609,875681.1792366,875682.3609097,0,0.667259800015017
108,5,1,categorization,0,bathroom,SHINEd_sun_aclfzgynxzxlbepz.tif,20,0.0333333333333333,0.0166666666666667,0.0833333333333333,0.983333333333333,875682.3658173,875683.0856598,74,875682.4031216,875682.4184374,875682.5014918,875683.0905757,875684.0722457,0,0.719842499936931
108,6,1,categorization,0,bathroom,SHINEd_sun_atyjprilyfyzpbjv.tif,52,0.0333333333333333,0.0166666666666667,0.0833333333333333,0.883333333333333,875684.077718,875684.8064085,70,875684.1148511,875684.1302931,875684.2132239,875684.8120271,875685.6936982,1,0.728690499905497
108,7,1,categorization,0,bathroom,SHINEd_sun_aavhrsfjbserjtht.tif,15,0.0333333333333333,0.0166666666666667,0.0833333333333333,0.9,875685.6999463,875686.5571176,70,875685.7369808,875685.7538387,875685.8357369,875686.5625502,875687.4608889,1,0.857171299983747
108,8,1,categorization,0,kitchen,SHINEd_sun_amjjdeyrggfqgmom.tif,98,0.0333333333333333,0.0166666666666667,0.0833333333333333,1.78333333333333,875687.4667438,875688.1012294,74,875687.5025928,875687.5208967,875687.6037513,875688.1062553,875689.8879265,1,0.634485600050539
108,9,1,categorization,0,kitchen,SHINEd_sun_abrcnpqqhmjwekyf.tif,73,0.0333333333333333,0.0166666666666667,0.0833333333333333,0.866666666666667,875689.8942307,875690.6461432,74,875689.9299992,875689.9483823,875690.0306299,875690.6509746,875691.5159792,1,0.751912500010803
108,10,1,categorization,0,kitchen,SHINEd_sun_adgqasybjyktddhj.tif,79,0.0333333333333333,0.0166666666666667,0.0833333333333333,0.833333333333333,875691.520997,875692.149263,74,875691.5569365,875691.5738424,875691.6570916,875692.1549293,875692.9865997,1,0.628265999956056
108,11,1,categorization,0,bathroom,SHINEd_sun_axxbkopsgyouuebh.tif,58,0.0333333333333333,0.0166666666666667,0.0833333333333333,1.71666666666667,875692.9916216,875693.5658671,70,875693.0273213,875693.0443879,875693.1273263,875693.5705557,875695.2855614,1,0.574245500029065
108,12,1,categorization,0,kitchen,SHINEd_sun_aegoxogugdkwpmpj.tif,81,0.0333333333333333,0.0166666666666667,0.0833333333333333,1.8,875695.2900814,875695.8292524,74,875695.3258749,875695.3439056,875695.4256074,875695.8346007,875697.6329457,1,0.539171000011265
108,13,1,categorization,0,kitchen,SHINEd_sun_aeikbkmhphqzxdkv.tif,83,0.0333333333333333,0.0166666666666667,0.0833333333333333,1.75,875697.6381495,875698.3892173,74,875697.6739811,875697.6909447,875697.7737414,875698.3953225,875700.1436617,1,0.751067799981683
108,14,1,categorization,0,bathroom,SHINEd_sun_anhioqovhscjqqwb.tif,40,0.0333333333333333,0.0166666666666667,0.0833333333333333,1.08333333333333,875700.149811,875700.7579685,70,875700.1858198,875700.2025078,875700.2855692,875700.7629637,875701.8446492,1,0.60815750004258
108,15,1,categorization,0,kitchen,SHINEd_sun_ataniphupyuxeowc.tif,100,0.0333333333333333,0.0166666666666667,0.0833333333333333,1.38333333333333,875701.8497899,875702.5336847,74,875701.887103,875701.9037234,875701.9858206,875702.5386688,875703.9203399,1,0.683894800022244
108,16,1,categorization,0,kitchen,SHINEd_sun_axyyrmzcupyhlivc.tif,106,0.0333333333333333,0.0166666666666667,0.0833333333333333,0.716666666666667,875703.9266168,875704.5812626,74,875703.9637351,875703.9805024,875704.0630991,875704.5866578,875705.301662,1,0.654645800008439
108,17,1,categorization,0,bathroom,SHINEd_sun_agrwbmhcpmfuwmsg.tif,27,0.0333333333333333,0.0166666666666667,0.0833333333333333,1.96666666666667,875705.3071412,875705.9412824,74,875705.3427142,875705.3598418,875705.4431573,875705.9466887,875707.9116942,0,0.634141199989244
108,18,1,categorization,0,kitchen,SHINEd_sun_acxkpeoqbwcxfvip.tif,77,0.0333333333333333,0.0166666666666667,0.0833333333333333,1.75,875707.9166124,875708.6453076,74,875707.9527767,875707.9694557,875708.0523858,875708.6506148,875710.3989535,1,0.7286952000577
108,19,1,categorization,0,bathroom,SHINEd_sun_aqrpegblszgcoujh.tif,47,0.0333333333333333,0.0166666666666667,0.0833333333333333,1.1,875710.4037649,875711.5172343,70,875710.4393218,875710.4567857,875710.5392389,875711.5228085,875712.6211463,1,1.11346939997748
108,20,1,categorization,0,kitchen,SHINEd_sun_agubuxuukhzyzpdp.tif,89,0.0333333333333333,0.0166666666666667,0.0833333333333333,0.766666666666667,875712.6259541,875713.4067886,74,875712.661723,875712.6786705,875712.7618352,875713.4113356,875714.1763395,1,0.780834499979392
108,21,1,categorization,0,kitchen,SHINEd_sun_aamedkxepzlwuxes.tif,65,0.0333333333333333,0.0166666666666667,0.0833333333333333,1.25,875714.1811293,875714.9335128,74,875714.2167904,875714.2338446,875714.3167265,875714.9381893,875716.1865267,1,0.752383499988355
108,22,1,categorization,0,kitchen,SHINEd_sun_aunzlwrbjumxhwdj.tif,102,0.0333333333333333,0.0166666666666667,0.0833333333333333,1.65,875716.1928568,875717.1812883,70,875716.2289185,875716.2468512,875716.3286238,875717.1872174,875718.8355544,0,0.988431499921717
108,23,1,categorization,0,bathroom,SHINEd_labelme_xbsnnlvmskdknsb.tif,12,0.0333333333333333,0.0166666666666667,0.0833333333333333,1.16666666666667,875718.8404069,875719.4773055,70,875718.8764694,875718.8931654,875718.9770652,875719.4834305,875720.6484368,1,0.636898599914275
108,24,1,categorization,0,kitchen,SHINEd_sun_agzzivivdpnawacl.tif,90,0.0333333333333333,0.0166666666666667,0.0833333333333333,0.833333333333333,875720.6532105,875721.3171963,74,875720.6890313,875720.7059637,875720.7887236,875721.3227705,875722.1544402,1,0.663985799998045
108,25,1,categorization,0,kitchen,SHINEd_sun_acfmftudsenhrfhy.tif,75,0.0333333333333333,0.0166666666666667,0.0833333333333333,1.48333333333333,875722.1592239,875723.0213109,74,875722.1952197,875722.2120389,875722.2950872,875723.0270751,875724.5087449,1,0.862087000044994
108,26,1,categorization,0,kitchen,SHINEd_sun_adcrxklhlbwrbkgm.tif,78,0.0333333333333333,0.0166666666666667,0.0833333333333333,1.28333333333333,875724.5131532,875725.3972088,70,875724.5487311,875724.5659486,875724.6489389,875725.4026721,875726.6843445,0,0.88405559991952
108,27,1,categorization,0,bathroom,SHINEd_sun_ammzpemadwrjdfzl.tif,38,0.0333333333333333,0.0166666666666667,0.0833333333333333,1.8,875726.6900154,875727.3892812,74,875726.7257938,875726.744206,875726.8259104,875727.3950853,875729.1934217,0,0.699265800067224
108,28,1,categorization,0,bathroom,SHINEd_sun_ammzpemadwrjdfzl.tif,38,0.0333333333333333,0.0166666666666667,0.0833333333333333,0.833333333333333,875729.1981735,875729.8457348,74,875729.233962,875729.2508744,875729.3341411,875729.8505158,875730.6821869,0,0.647561299963854
108,29,1,categorization,0,kitchen,SHINEd_sun_ahljzhgcdpomplvg.tif,92,0.0333333333333333,0.0166666666666667,0.0833333333333333,0.866666666666667,875730.6868329,875731.5345574,74,875730.7222479,875730.7394298,875730.8224563,875731.5393639,875732.4043677,1,0.84772449999582
108,30,1,categorization,0,bathroom,SHINEd_sun_aghyqhbptboemmoq.tif,26,0.0333333333333333,0.0166666666666667,0.0833333333333333,1.76666666666667,875732.409063,875733.358065,74,875732.4452045,875732.4625387,875732.5454335,875733.3642269,875735.1292306,0,0.949002000037581
108,31,1,categorization,0,kitchen,SHINEd_sun_alpduwskzkgbcfui.tif,97,0.0333333333333333,0.0166666666666667,0.0833333333333333,1.2,875735.1342922,875736.1492895,74,875735.1699831,875735.1868904,875735.2699531,875736.1550155,875737.353353,1,1.01499729999341
108,32,1,categorization,0,bathroom,SHINEd_sun_apynckhmoftszqoq.tif,46,0.0333333333333333,0.0166666666666667,0.0833333333333333,0.8,875737.3581759,875738.0378897,70,875737.3936857,875737.4113352,875737.4940962,875738.0426616,875738.8409985,1,0.679713800083846
108,33,1,categorization,0,bathroom,SHINEd_labelme_xbsnnlvmskdknsb.tif,12,0.0333333333333333,0.0166666666666667,0.0833333333333333,1.36666666666667,875738.8460758,875739.4539499,70,875738.8822706,875738.8987953,875738.981816,875739.4586948,875740.8236983,1,0.607874099980108
108,34,1,categorization,0,bathroom,SHINEd_labelme_sfxiulhjbhlyiyt.tif,11,0.0333333333333333,0.0166666666666667,0.0833333333333333,1.08333333333333,875740.8301478,875741.4212926,70,875740.8654478,875740.8828744,875740.9666006,875741.4280941,875742.5097662,1,0.591144799953327
108,35,1,categorization,0,bathroom,SHINEd_sun_aiskgiwswewisvph.tif,31,0.0333333333333333,0.0166666666666667,0.0833333333333333,0.95,875742.5143562,875743.2372306,74,875742.5497284,875742.5667661,875742.650215,875743.2428819,875744.1912193,0,0.72287439997308
108,36,1,categorization,0,kitchen,SHINEd_sun_agzzivivdpnawacl.tif,90,0.0333333333333333,0.0166666666666667,0.0833333333333333,0.766666666666667,875744.1961231,875745.0615487,74,875744.2318883,875744.2489976,875744.3322017,875745.0665287,875745.8315344,1,0.865425599971786
108,37,1,categorization,0,kitchen,SHINEd_sun_amjjdeyrggfqgmom.tif,98,0.0333333333333333,0.0166666666666667,0.0833333333333333,1.26666666666667,875745.8367563,875746.6380031,74,875745.872468,875745.8905795,875745.9726477,875746.6431341,875747.9081484,1,0.80124679999426
108,38,1,categorization,0,bathroom,SHINEd_sun_akiytfaagpdsphgz.tif,32,0.0333333333333333,0.0166666666666667,0.0833333333333333,2,875747.9141677,875748.4773821,70,875747.9498368,875747.966942,875748.0501129,875748.4828012,875750.4811393,1,0.563214399968274
108,39,1,categorization,0,kitchen,SHINEd_sun_aggjlwcdjsjcaemh.tif,87,0.0333333333333333,0.0166666666666667,0.0833333333333333,0.983333333333333,875750.4857702,875751.2455988,70,875750.5230059,875750.5396768,875750.6215955,875751.2516629,875752.2333332,0,0.759828599984758
108,40,1,categorization,0,bathroom,SHINEd_sun_aavhrsfjbserjtht.tif,15,0.0333333333333333,0.0166666666666667,0.0833333333333333,1.05,875752.2379093,875753.3578932,74,875752.2738627,875752.2907609,875752.3737741,875753.3625958,875754.4109336,0,1.11998389998917
108,41,1,categorization,0,bathroom,SHINEd_sun_apkxzenqapsujocq.tif,45,0.0333333333333333,0.0166666666666667,0.0833333333333333,1.55,875754.4153706,875755.1659981,70,875754.4515289,875754.4678418,875754.5513036,875755.1713856,875756.7197222,1,0.750627500005066
108,42,1,categorization,0,kitchen,SHINEd_sun_agzzivivdpnawacl.tif,90,0.0333333333333333,0.0166666666666667,0.0833333333333333,0.716666666666667,875756.7247537,875757.5897713,74,875756.7604936,875756.7774933,875756.8603004,875757.5947944,875758.3097992,1,0.865017600008287
108,43,1,categorization,0,kitchen,SHINEd_sun_akcjzhbbjlbogpdi.tif,96,0.0333333333333333,0.0166666666666667,0.0833333333333333,0.866666666666667,875758.3143794,875759.2292852,74,875758.3511804,875758.3685869,875758.4503163,875759.2349561,875760.0999612,1,0.91490580001846
108,44,1,categorization,0,bathroom,SHINEd_sun_aamrfepkhweyewue.tif,13,0.0333333333333333,0.0166666666666667,0.0833333333333333,1,875760.1051029,875760.7492396,74,875760.1409062,875760.1589583,875760.2408217,875760.754941,875761.7532791,0,0.644136700080708
108,45,1,categorization,0,kitchen,SHINEd_sun_acxkpeoqbwcxfvip.tif,77,0.0333333333333333,0.0166666666666667,0.0833333333333333,0.716666666666667,875761.7580188,875762.7813301,74,875761.7935744,875761.810481,875761.8936003,875762.787017,875763.5020226,1,1.02331129997037
108,46,1,categorization,0,bathroom,SHINEd_sun_aclfzgynxzxlbepz.tif,20,0.0333333333333333,0.0166666666666667,0.0833333333333333,1.35,875763.5068484,875764.1891716,70,875763.5425455,875763.5595127,875763.6427459,875764.1950822,875765.5434207,1,0.682323200046085
108,47,1,categorization,0,bathroom,SHINEd_sun_aamrfepkhweyewue.tif,13,0.0333333333333333,0.0166666666666667,0.0833333333333333,0.983333333333333,875765.5495186,875766.5020313,74,875765.5853706,875765.6024574,875765.6869687,875766.5073696,875767.4890406,0,0.952512699994259
108,48,1,categorization,0,kitchen,SHINEd_sun_acfluyeqiftljamq.tif,74,0.0333333333333333,0.0166666666666667,0.0833333333333333,0.783333333333333,875767.4944378,875768.6132555,74,875767.5312382,875767.5482864,875767.6302144,875768.6192732,875769.4009525,1,1.11881769995671
108,49,1,categorization,0,kitchen,SHINEd_sun_ahywdevtimnqcsln.tif,94,0.0333333333333333,0.0166666666666667,0.0833333333333333,1.23333333333333,875769.4070425,875770.4212073,70,875769.4438926,875769.4611065,875769.5432319,875770.427413,875771.6590848,0,1.01416480005719
108,50,1,categorization,0,kitchen,SHINEd_sun_acwjdupvyjsugpay.tif,76,0.0333333333333333,0.0166666666666667,0.0833333333333333,1.21666666666667,875771.6641063,875772.4534468,74,875771.700276,875771.7180926,875771.7998542,875772.4589241,875773.6739283,1,0.789340500021353
108,1,2,categorization,0,bathroom,SHINEd_sun_amzlamotzwfkwjco.tif,39,0.0333333333333333,0.0166666666666667,0.0833333333333333,1.53333333333333,875779.108602,875780.1981031,70,875779.1438934,875779.1625855,875779.2440097,875780.2031102,875781.7347809,1,1.08950109989382
108,2,2,categorization,0,kitchen,SHINEd_sun_agubuxuukhzyzpdp.tif,89,0.0333333333333333,0.0166666666666667,0.0833333333333333,0.9,875781.7397791,875782.5331652,74,875781.7770133,875781.793218,875781.8754597,875782.5384246,875783.4367612,1,0.793386099976487
108,3,2,categorization,0,kitchen,SHINEd_sun_acfluyeqiftljamq.tif,74,0.0333333333333333,0.0166666666666667,0.0833333333333333,0.85,875783.4411946,875784.741258,74,875783.4767921,875783.4939941,875783.5775082,875784.7471341,875785.5954717,1,1.30006340006366
108,4,2,categorization,0,bathroom,SHINEd_sun_akiytfaagpdsphgz.tif,32,0.0333333333333333,0.0166666666666667,0.0833333333333333,1.78333333333333,875785.6003084,875786.2132505,74,875785.6365475,875785.6534575,875785.7362591,875786.2195029,875788.0011732,0,0.612942100036889
108,5,2,categorization,0,kitchen,SHINEd_sun_ahpczsiumwwocjkv.tif,93,0.0333333333333333,0.0166666666666667,0.0833333333333333,0.983333333333333,875788.0061725,875788.7972295,74,875788.0420854,875788.0601569,875788.1432824,875788.8031886,875789.7848602,1,0.791057000053115
108,6,2,categorization,0,kitchen,SHINEd_sun_azmutvzbxypaceni.tif,110,0.0333333333333333,0.0166666666666667,0.0833333333333333,1.5,875789.789998,875790.701144,74,875789.8257118,875789.8427454,875789.9255551,875790.706822,875792.2051592,1,0.911146000027657
108,7,2,categorization,0,kitchen,SHINEd_sun_agubuxuukhzyzpdp.tif,89,0.0333333333333333,0.0166666666666667,0.0833333333333333,1.46666666666667,875792.2094711,875793.0055093,70,875792.2450204,875792.2619627,875792.3449468,875793.0104852,875794.4754899,0,0.796038200031035
108,8,2,categorization,0,bathroom,SHINEd_labelme_xbsnnlvmskdknsb.tif,12,0.0333333333333333,0.0166666666666667,0.0833333333333333,0.7,875794.4802299,875795.0932337,70,875794.5158235,875794.5327476,875794.6162043,875795.0988941,875795.7972325,1,0.613003800041042
108,9,2,categorization,0,kitchen,SHINEd_sun_acfmftudsenhrfhy.tif,75,0.0333333333333333,0.0166666666666667,0.0833333333333333,1.08333333333333,875795.8016356,875797.0142558,70,875795.8373327,875795.8539718,875795.9372532,875797.0190639,875798.1007393,0,1.21262020000722
108,10,2,categorization,0,kitchen,SHINEd_sun_ataniphupyuxeowc.tif,100,0.0333333333333333,0.0166666666666667,0.0833333333333333,1.45,875798.1058929,875798.7651945,74,875798.1414931,875798.1584657,875798.2423082,875798.7708154,875800.219153,1,0.659301599953324
108,11,2,categorization,0,kitchen,SHINEd_sun_aypmqwcualkenuoe.tif,108,0.0333333333333333,0.0166666666666667,0.0833333333333333,0.833333333333333,875800.2246551,875801.0378165,70,875800.2605035,875800.277148,875800.3604055,875801.042849,875801.8745195,0,0.813161399913952
108,12,2,categorization,0,kitchen,SHINEd_sun_aenotlpyftoioydp.tif,84,0.0333333333333333,0.0166666666666667,0.0833333333333333,0.716666666666667,875801.879373,875802.8692344,70,875801.9152817,875801.9333951,875802.0153289,875802.8750546,875803.590058,0,0.989861399983056
108,13,2,categorization,0,bathroom,SHINEd_sun_acgyywnybuveqsro.tif,19,0.0333333333333333,0.0166666666666667,0.0833333333333333,1.28333333333333,875803.594543,875804.4457833,70,875803.6300759,875803.6474384,875803.7300651,875804.4505255,875805.7321958,1,0.851240299991332
108,14,2,categorization,0,bathroom,SHINEd_sun_axxbkopsgyouuebh.tif,58,0.0333333333333333,0.0166666666666667,0.0833333333333333,1.38333333333333,875805.7372895,875806.3818509,70,875805.7731382,875805.7913504,875805.8731186,875806.3868528,875807.7685247,1,0.644561400054954
108,15,2,categorization,0,kitchen,SHINEd_sun_acfmftudsenhrfhy.tif,75,0.0333333333333333,0.0166666666666667,0.0833333333333333,0.733333333333333,875807.7732193,875808.4459145,70,875807.8087746,875807.82621,875807.9089427,875808.4512546,875809.1829265,0,0.672695200075395
108,16,2,categorization,0,kitchen,SHINEd_sun_aggjlwcdjsjcaemh.tif,87,0.0333333333333333,0.0166666666666667,0.0833333333333333,1.45,875809.1874852,875810.1812455,74,875809.2231864,875809.2398064,875809.3230895,875810.1867286,875811.6350665,1,0.993760299985297
108,17,2,categorization,0,kitchen,SHINEd_sun_abpwyqmlzafvklqo.tif,72,0.0333333333333333,0.0166666666666667,0.0833333333333333,1.88333333333333,875811.6402846,875812.3172333,74,875811.6766708,875811.6944752,875811.7756608,875812.323188,875814.204859,1,0.676948699983768
108,18,2,categorization,0,bathroom,SHINEd_sun_aavhrsfjbserjtht.tif,15,0.0333333333333333,0.0166666666666667,0.0833333333333333,0.7,875814.2098028,875814.9011953,74,875814.2472844,875814.2637813,875814.3455434,875814.9073505,875815.6056879,0,0.691392500069924
108,19,2,categorization,0,kitchen,SHINEd_sun_aaxxjlsuzvqlgylf.tif,68,0.0333333333333333,0.0166666666666667,0.0833333333333333,1.3,875815.6109656,875816.3732217,74,875815.6467873,875815.6636669,875815.7466921,875816.3789113,875817.6772498,1,0.762256099958904
108,20,2,categorization,0,kitchen,SHINEd_labelme_kxvouciolcpqplr.tif,62,0.0333333333333333,0.0166666666666667,0.0833333333333333,1.05,875817.6824227,875818.7336552,74,875817.7192909,875817.7355992,875817.8190492,875818.7389231,875819.7872617,1,1.05123250000179
108,21,2,categorization,0,bathroom,SHINEd_sun_apjevzvycyhuqghb.tif,44,0.0333333333333333,0.0166666666666667,0.0833333333333333,1.13333333333333,875819.7933832,875820.7342154,74,875819.8305991,875819.8473338,875819.9290477,875820.7394128,875821.8710833,0,0.940832199994475
108,22,2,categorization,0,kitchen,SHINEd_sun_ahdycvpopffkzzsu.tif,91,0.0333333333333333,0.0166666666666667,0.0833333333333333,0.9,875821.8759009,875822.5899579,74,875821.9117933,875821.9286346,875822.0117197,875822.5948518,875823.4931895,1,0.714057000004686
108,23,2,categorization,0,kitchen,SHINEd_sun_ahljzhgcdpomplvg.tif,92,0.0333333333333333,0.0166666666666667,0.0833333333333333,1.2,875823.4990293,875824.3418066,70,875823.5351732,875823.5529842,875823.6345084,875824.3465298,875825.5448667,0,0.842777300043963
108,24,2,categorization,0,kitchen,SHINEd_sun_awcpdzzznmweyyhv.tif,105,0.0333333333333333,0.0166666666666667,0.0833333333333333,1.86666666666667,875825.5493589,875826.2777023,74,875825.5849048,875825.6017917,875825.6853338,875826.2830029,875828.1480081,1,0.728343399940059
108,25,2,categorization,0,kitchen,SHINEd_sun_adgqasybjyktddhj.tif,79,0.0333333333333333,0.0166666666666667,0.0833333333333333,1.18333333333333,875828.1542609,875829.8532221,74,875828.1901056,875828.2079901,875828.2899427,875829.85902,875831.0406925,1,1.69896119995974
108,26,2,categorization,0,bathroom,SHINEd_sun_afcoljnjfoxjtgja.tif,23,0.0333333333333333,0.0166666666666667,0.0833333333333333,0.983333333333333,875831.0454935,875831.9732272,74,875831.0815455,875831.0982322,875831.1816698,875831.9788923,875832.9605629,0,0.927733700023964
108,27,2,categorization,0,bathroom,SHINEd_sun_acduarbnmmoglmiv.tif,18,0.0333333333333333,0.0166666666666667,0.0833333333333333,1.38333333333333,875832.9655866,875833.8612499,70,875833.0011139,875833.0181617,875833.10147,875833.8669734,875835.2486447,1,0.895663299947046
108,28,2,categorization,0,kitchen,SHINEd_sun_abrcnpqqhmjwekyf.tif,73,0.0333333333333333,0.0166666666666667,0.0833333333333333,1.35,875835.2537972,875836.0931993,74,875835.2910004,875835.3064998,875835.3894328,875836.0983916,875837.4467286,1,0.839402099954896
108,29,2,categorization,0,kitchen,SHINEd_labelme_kxvouciolcpqplr.tif,62,0.0333333333333333,0.0166666666666667,0.0833333333333333,0.866666666666667,875837.4517363,875838.5732032,74,875837.4890515,875837.5057566,875837.5876805,875838.5793258,875839.4443393,1,1.12146689998917
108,30,2,categorization,0,bathroom,SHINEd_sun_apeeialkgkuxddgh.tif,43,0.0333333333333333,0.0166666666666667,0.0833333333333333,1.61666666666667,875839.4494567,875840.1255723,70,875839.4867053,875839.5034473,875839.5850545,875840.1310583,875841.7460635,1,0.676115600042976
108,31,2,categorization,0,bathroom,SHINEd_sun_afcoljnjfoxjtgja.tif,23,0.0333333333333333,0.0166666666666667,0.0833333333333333,1.11666666666667,875841.7508059,875842.5252147,70,875841.786562,875841.804715,875841.8865985,875842.5315867,875843.6465922,1,0.774408800061792
108,32,2,categorization,0,kitchen,SHINEd_sun_aypmqwcualkenuoe.tif,108,0.0333333333333333,0.0166666666666667,0.0833333333333333,0.833333333333333,875843.6519115,875844.7579757,74,875843.68794,875843.7058122,875843.7876039,875844.7635323,875845.5952044,1,1.10606419993564
108,33,2,categorization,0,kitchen,SHINEd_sun_acwjdupvyjsugpay.tif,76,0.0333333333333333,0.0166666666666667,0.0833333333333333,0.8,875845.600074,875846.5977995,74,875845.6356148,875845.6538766,875845.7357846,875846.6031279,875847.4014662,1,0.997725500026718
108,34,2,categorization,0,kitchen,SHINEd_sun_aapllqyqlykszopd.tif,66,0.0333333333333333,0.0166666666666667,0.0833333333333333,0.766666666666667,875847.4062362,875848.3571933,74,875847.4420804,875847.4591931,875847.5419139,875848.3628471,875849.127865,1,0.950957100023516
108,35,2,categorization,0,kitchen,SHINEd_sun_abpwyqmlzafvklqo.tif,72,0.0333333333333333,0.0166666666666667,0.0833333333333333,0.716666666666667,875849.1326186,875850.0218763,74,875849.1695926,875849.1862021,875849.2685233,875850.0272993,875850.7423033,1,0.889257699949667
108,36,2,categorization,0,kitchen,SHINEd_sun_ahdycvpopffkzzsu.tif,91,0.0333333333333333,0.0166666666666667,0.0833333333333333,1.66666666666667,875850.7471288,875851.4617867,74,875850.783003,875850.8000173,875850.8827699,875851.4667631,875853.1317763,1,0.714657899923623
108,37,2,categorization,0,bathroom,SHINEd_sun_agyqfjcfkdcydepw.tif,28,0.0333333333333333,0.0166666666666667,0.0833333333333333,0.933333333333333,875853.1367461,875854.0851304,70,875853.1744847,875853.1894326,875853.2739424,875854.0908371,875855.0225096,1,0.948384299990721
108,38,2,categorization,0,kitchen,SHINEd_sun_aehawpgmrlhlvcow.tif,82,0.0333333333333333,0.0166666666666667,0.0833333333333333,0.866666666666667,875855.0269167,875855.7417104,74,875855.0625354,875855.0807437,875855.1626205,875855.7472849,875856.6122895,1,0.714793700026348
108,39,2,categorization,0,kitchen,SHINEd_sun_amjjdeyrggfqgmom.tif,98,0.0333333333333333,0.0166666666666667,0.0833333333333333,0.8,875856.6175417,875857.3652412,74,875856.6534405,875856.6705462,875856.7536597,875857.3713612,875858.1697,1,0.747699499945156
108,40,2,categorization,0,bathroom,SHINEd_sun_abjtwfukuwddzted.tif,17,0.0333333333333333,0.0166666666666667,0.0833333333333333,0.733333333333333,875858.1750517,875858.9099824,70,875858.2107523,875858.2282658,875858.3122253,875858.915205,875859.646877,1,0.734930700040422
108,41,2,categorization,0,bathroom,SHINEd_sun_apynckhmoftszqoq.tif,46,0.0333333333333333,0.0166666666666667,0.0833333333333333,1.4,875859.651864,875860.3652058,70,875859.6875039,875859.7063533,875859.7890812,875860.3711331,875861.7694783,1,0.713341800030321
108,42,2,categorization,0,bathroom,SHINEd_sun_axxbkopsgyouuebh.tif,58,0.0333333333333333,0.0166666666666667,0.0833333333333333,1.01666666666667,875861.7759621,875862.4537605,70,875861.8118255,875861.8300498,875861.9114856,875862.4587978,875863.4738019,1,0.677798399934545
108,43,2,categorization,0,kitchen,SHINEd_sun_adgqasybjyktddhj.tif,79,0.0333333333333333,0.0166666666666667,0.0833333333333333,0.883333333333333,875863.478625,875864.061863,74,875863.5155003,875863.5324854,875863.6152948,875864.066432,875864.9481044,1,0.583238000050187
108,44,2,categorization,0,bathroom,SHINEd_sun_aleqenyvunhactkl.tif,33,0.0333333333333333,0.0166666666666667,0.0833333333333333,0.85,875864.952945,875865.5491961,70,875864.9886073,875865.0056372,875865.0885127,875865.5552236,875866.4035607,1,0.596251099952497
108,45,2,categorization,0,bathroom,SHINEd_sun_adwvsndpdsgzeste.tif,22,0.0333333333333333,0.0166666666666667,0.0833333333333333,1.53333333333333,875866.4085336,875867.0452157,70,875866.444341,875866.4612949,875866.5442031,875867.0517296,875868.5833995,1,0.636682100011967
108,46,2,categorization,0,bathroom,SHINEd_sun_aamrfepkhweyewue.tif,13,0.0333333333333333,0.0166666666666667,0.0833333333333333,1.93333333333333,875868.5881871,875869.1579416,74,875868.6239026,875868.6410796,875868.7241592,875869.1630961,875871.0947681,0,0.569754499942064
108,47,2,categorization,0,bathroom,SHINEd_sun_aavhrsfjbserjtht.tif,15,0.0333333333333333,0.0166666666666667,0.0833333333333333,1.23333333333333,875871.0997098,875872.0859788,74,875871.1369771,875871.1536899,875871.2358983,875872.0914683,875873.323139,0,0.986268999986351
108,48,2,categorization,0,bathroom,SHINEd_sun_acsgbuurtwghzjel.tif,21,0.0333333333333333,0.0166666666666667,0.0833333333333333,0.716666666666667,875873.3276472,875874.1578578,70,875873.3630951,875873.3801582,875873.4650678,875874.1636226,875874.8786272,1,0.830210600048304
108,49,2,categorization,0,kitchen,SHINEd_sun_azmutvzbxypaceni.tif,110,0.0333333333333333,0.0166666666666667,0.0833333333333333,1.03333333333333,875874.8835855,875875.5651775,74,875874.9194533,875874.9361855,875875.0193954,875875.5707136,875876.6023836,1,0.681592000066303
108,50,2,categorization,0,kitchen,SHINEd_sun_azmutvzbxypaceni.tif,110,0.0333333333333333,0.0166666666666667,0.0833333333333333,0.8,875876.6082339,875877.3499612,74,875876.6454459,875876.6621571,875876.7453946,875877.355149,875878.1534868,1,0.74172729998827
108,1,3,categorization,0,kitchen,SHINEd_sun_aggjlwcdjsjcaemh.tif,87,0.0333333333333333,0.0166666666666667,0.0833333333333333,0.983333333333333,875895.5369572,875896.2210794,70,875895.5722235,875895.5901252,875895.673126,875896.2265207,875897.2081926,0,0.68412220000755
108,2,3,categorization,0,bathroom,SHINEd_sun_ahcvzmoyaycdoftf.tif,29,0.0333333333333333,0.0166666666666667,0.0833333333333333,0.716666666666667,875897.2129552,875897.9098578,74,875897.2502712,875897.2671076,875897.3504158,875897.9148807,875898.6298859,0,0.696902600000612
108,3,3,categorization,0,bathroom,SHINEd_sun_akiytfaagpdsphgz.tif,32,0.0333333333333333,0.0166666666666667,0.0833333333333333,1.73333333333333,875898.6348567,875899.4378417,70,875898.6719684,875898.687641,875898.7719485,875899.4431255,875901.1747974,1,0.802985000074841
108,4,3,categorization,0,bathroom,SHINEd_sun_atyjprilyfyzpbjv.tif,52,0.0333333333333333,0.0166666666666667,0.0833333333333333,1.9,875901.1807359,875901.797113,70,875901.2160159,875901.2331603,875901.3162005,875901.8026118,875903.7009498,1,0.616377099999227
108,5,3,categorization,0,kitchen,SHINEd_sun_ayqymgxqhxxiykiw.tif,109,0.0333333333333333,0.0166666666666667,0.0833333333333333,1.88333333333333,875903.7057768,875904.5898907,74,875903.7427845,875903.7593755,875903.8414931,875904.5954774,875906.4771497,1,0.884113899897784
108,6,3,categorization,0,bathroom,SHINEd_sun_anhioqovhscjqqwb.tif,40,0.0333333333333333,0.0166666666666667,0.0833333333333333,1.75,875906.48192,875907.1900047,70,875906.5176247,875906.5347667,875906.6176732,875907.1953883,875908.9437265,1,0.708084699930623
108,7,3,categorization,0,bathroom,SHINEd_sun_acgyywnybuveqsro.tif,19,0.0333333333333333,0.0166666666666667,0.0833333333333333,1.1,875908.9490342,875909.597183,70,875908.9862851,875909.00294,875909.0850969,875909.6030149,875910.7013535,1,0.648148799897172
108,8,3,categorization,0,bathroom,SHINEd_sun_amzlamotzwfkwjco.tif,39,0.0333333333333333,0.0166666666666667,0.0833333333333333,1.05,875910.7061839,875911.4291743,74,875910.7430291,875910.7601955,875910.8424786,875911.4352893,875912.4836279,0,0.722990400041454
108,9,3,categorization,0,kitchen,SHINEd_sun_admlmbcdswaszruo.tif,80,0.0333333333333333,0.0166666666666667,0.0833333333333333,1.18333333333333,875912.4883421,875913.1901015,70,875912.5241373,875912.5410081,875912.6243346,875913.1955739,875914.3772463,0,0.701759399962611
108,10,3,categorization,0,kitchen,SHINEd_sun_aqeaevwwwjoqhzvl.tif,99,0.0333333333333333,0.0166666666666667,0.0833333333333333,0.95,875914.3820425,875915.1571474,70,875914.4177614,875914.4356243,875914.5176725,875915.1624619,875916.1107987,0,0.775104900007136
108,11,3,categorization,0,bathroom,SHINEd_sun_aoybiabnpadelefl.tif,42,0.0333333333333333,0.0166666666666667,0.0833333333333333,1.18333333333333,875916.1172717,875916.9580509,70,875916.1546363,875916.1713931,875916.2530279,875916.9631367,875918.1448081,1,0.840779200079851
108,12,3,categorization,0,kitchen,SHINEd_sun_aqeaevwwwjoqhzvl.tif,99,0.0333333333333333,0.0166666666666667,0.0833333333333333,0.866666666666667,875918.1495525,875918.7891582,74,875918.1853977,875918.2030281,875918.2854592,875918.7943012,875919.6593047,1,0.639605700038373
108,13,3,categorization,0,bathroom,SHINEd_sun_aqrpegblszgcoujh.tif,47,0.0333333333333333,0.0166666666666667,0.0833333333333333,0.7,875919.6637074,875920.4691652,70,875919.6993994,875919.7176641,875919.8003513,875920.475172,875921.1735106,1,0.805457800044678
108,14,3,categorization,0,kitchen,SHINEd_sun_ataniphupyuxeowc.tif,100,0.0333333333333333,0.0166666666666667,0.0833333333333333,0.766666666666667,875921.1785241,875921.9331763,74,875921.2142198,875921.2315162,875921.3143822,875921.9388994,875922.7039056,1,0.754652200033888
108,15,3,categorization,0,bathroom,SHINEd_sun_apynckhmoftszqoq.tif,46,0.0333333333333333,0.0166666666666667,0.0833333333333333,0.8,875922.7088075,875923.3738644,70,875922.7463296,875922.7613701,875922.8447175,875923.3787106,875924.177059,1,0.665056900004856
108,16,3,categorization,0,kitchen,SHINEd_sun_aexklacwqwezaorf.tif,85,0.0333333333333333,0.0166666666666667,0.0833333333333333,0.95,875924.181643,875924.9251254,70,875924.2190892,875924.2350118,875924.3172106,875924.9311871,875925.8795258,0,0.743482399964705
108,17,3,categorization,0,kitchen,SHINEd_sun_aadbddgrdsjugojn.tif,64,0.0333333333333333,0.0166666666666667,0.0833333333333333,1.06666666666667,875925.8853156,875926.7650958,74,875925.9224284,875925.9393952,875926.0205102,875926.7709348,875927.8359401,1,0.879780200077221
108,18,3,categorization,0,bathroom,SHINEd_sun_aclfzgynxzxlbepz.tif,20,0.0333333333333333,0.0166666666666667,0.0833333333333333,0.95,875927.8406955,875928.5096894,70,875927.8762092,875927.8932949,875927.9772345,875928.5142686,875929.4626054,1,0.668993899947964
108,19,3,categorization,0,bathroom,SHINEd_sun_aspsyogrekjtfozg.tif,50,0.0333333333333333,0.0166666666666667,0.0833333333333333,1,875929.4682389,875930.6770959,74,875929.5037915,875929.5218477,875929.603767,875930.6823914,875931.68073,0,1.20885700010695
108,20,3,categorization,0,bathroom,SHINEd_sun_asfwthctfqerjvxr.tif,49,0.0333333333333333,0.0166666666666667,0.0833333333333333,0.95,875931.6853788,875932.5651607,74,875931.7214937,875931.7381923,875931.8209098,875932.5711738,875933.5195124,0,0.87978189997375
108,21,3,categorization,0,bathroom,SHINEd_sun_aljolscmmzydegqp.tif,34,0.0333333333333333,0.0166666666666667,0.0833333333333333,1.08333333333333,875933.5258911,875934.3091766,74,875933.5631753,875933.5801883,875933.66155,875934.3156484,875935.3973211,0,0.783285499899648
108,22,3,categorization,0,kitchen,SHINEd_sun_aegoxogugdkwpmpj.tif,81,0.0333333333333333,0.0166666666666667,0.0833333333333333,1.48333333333333,875935.4028682,875935.9899623,74,875935.4395395,875935.456794,875935.5386515,875935.9954897,875937.4771612,1,0.587094100075774
108,23,3,categorization,0,kitchen,SHINEd_sun_aexklacwqwezaorf.tif,85,0.0333333333333333,0.0166666666666667,0.0833333333333333,0.783333333333333,875937.4822984,875938.2211702,74,875937.5179571,875937.535011,875937.6178428,875938.2271975,875939.0088677,1,0.738871800014749
108,24,3,categorization,0,bathroom,SHINEd_sun_aljolscmmzydegqp.tif,34,0.0333333333333333,0.0166666666666667,0.0833333333333333,1.53333333333333,875939.0134531,875939.7499955,70,875939.0492935,875939.0662264,875939.1490954,875939.7549108,875941.2865829,1,0.736542399972677
108,25,3,categorization,0,kitchen,SHINEd_sun_ajcbwwvdlsvjyzje.tif,95,0.0333333333333333,0.0166666666666667,0.0833333333333333,1.65,875941.2912179,875942.3411076,74,875941.3267628,875941.3452606,875941.4267864,875942.3469434,875943.9952814,1,1.04988970002159
108,26,3,categorization,0,bathroom,SHINEd_sun_axxbkopsgyouuebh.tif,58,0.0333333333333333,0.0166666666666667,0.0833333333333333,0.916666666666667,875944.0011399,875944.6051488,70,875944.0368601,875944.054977,875944.1369757,875944.6105219,875945.5255394,1,0.604008900001645
108,27,3,categorization,0,kitchen,SHINEd_sun_abdxkyyxwfskuaqb.tif,70,0.0333333333333333,0.0166666666666667,0.0833333333333333,0.933333333333333,875945.5304533,875946.1571711,74,875945.5673524,875945.5844273,875945.666312,875946.1632419,875947.0949141,1,0.626717800041661
108,28,3,categorization,0,kitchen,SHINEd_labelme_rykdqxenmhulbdn.tif,63,0.0333333333333333,0.0166666666666667,0.0833333333333333,1.13333333333333,875947.1002177,875947.9491951,70,875947.1359942,875947.1529631,875947.2360354,875947.9552003,875949.0868701,0,0.848977399989963
108,29,3,categorization,0,kitchen,SHINEd_sun_aaxxjlsuzvqlgylf.tif,68,0.0333333333333333,0.0166666666666667,0.0833333333333333,0.95,875949.09147,875949.7181526,74,875949.1271609,875949.1442668,875949.2271559,875949.7233924,875950.6717303,1,0.626682600006461
108,30,3,categorization,0,bathroom,SHINEd_sun_ausgutylgojavyoq.tif,54,0.0333333333333333,0.0166666666666667,0.0833333333333333,1.68333333333333,875950.6766234,875951.3091731,70,875950.7134898,875950.7306215,875950.8119053,875951.315177,875952.9968487,1,0.632549700094387
108,31,3,categorization,0,kitchen,SHINEd_sun_aegoxogugdkwpmpj.tif,81,0.0333333333333333,0.0166666666666667,0.0833333333333333,1.43333333333333,875953.0017464,875953.853173,74,875953.0373981,875953.0547999,875953.1384436,875953.8588195,875955.2904928,1,0.851426600012928
108,32,3,categorization,0,bathroom,SHINEd_sun_acgyywnybuveqsro.tif,19,0.0333333333333333,0.0166666666666667,0.0833333333333333,1.21666666666667,875955.2954441,875956.0377545,70,875955.3310742,875955.3478716,875955.4326566,875956.0429,875957.2579045,1,0.742310400004499
108,33,3,categorization,0,bathroom,SHINEd_sun_aleqenyvunhactkl.tif,33,0.0333333333333333,0.0166666666666667,0.0833333333333333,1.73333333333333,875957.2632837,875957.9891253,70,875957.2986876,875957.3164934,875957.399252,875957.9946164,875959.7262877,1,0.725841599982232
108,34,3,categorization,0,kitchen,SHINEd_sun_acfluyeqiftljamq.tif,74,0.0333333333333333,0.0166666666666667,0.0833333333333333,0.983333333333333,875959.7313209,875960.3891614,74,875959.7683562,875959.785696,875959.8667727,875960.3954818,875961.3771535,1,0.657840500003658
108,35,3,categorization,0,kitchen,SHINEd_sun_alpduwskzkgbcfui.tif,97,0.0333333333333333,0.0166666666666667,0.0833333333333333,1.31666666666667,875961.3834516,875962.301827,74,875961.4192847,875961.4373385,875961.5205667,875962.3064923,875963.6214972,1,0.918375400011428
108,36,3,categorization,0,kitchen,SHINEd_sun_agorklincwxrdtga.tif,88,0.0333333333333333,0.0166666666666667,0.0833333333333333,1.31666666666667,875963.626387,875964.3739854,74,875963.6618504,875963.6790538,875963.7620693,875964.3792907,875965.6942941,1,0.747598399990238
108,37,3,categorization,0,kitchen,SHINEd_sun_aamedkxepzlwuxes.tif,65,0.0333333333333333,0.0166666666666667,0.0833333333333333,0.966666666666667,875965.7001857,875966.333055,74,875965.7374864,875965.7543918,875965.8370711,875966.3381262,875967.3031307,1,0.632869300083257
108,38,3,categorization,0,kitchen,SHINEd_sun_acfluyeqiftljamq.tif,74,0.0333333333333333,0.0166666666666667,0.0833333333333333,1.16666666666667,875967.3078968,875968.0851494,74,875967.3451483,875967.3609884,875967.4435634,875968.0912806,875969.2562855,1,0.777252600062639
108,39,3,categorization,0,kitchen,SHINEd_sun_abpwyqmlzafvklqo.tif,72,0.0333333333333333,0.0166666666666667,0.0833333333333333,1.9,875969.2613237,875969.8140736,74,875969.298523,875969.315582,875969.3968268,875969.8191705,875971.7175082,1,0.552749900030904
108,40,3,categorization,0,bathroom,SHINEd_sun_aunuadmjocsddsrl.tif,53,0.0333333333333333,0.0166666666666667,0.0833333333333333,1.13333333333333,875971.7223668,875972.357179,70,875971.7585261,875971.7755195,875971.8577744,875972.3638279,875973.4954995,1,0.634812200092711
108,41,3,categorization,0,kitchen,SHINEd_sun_ahljzhgcdpomplvg.tif,92,0.0333333333333333,0.0166666666666667,0.0833333333333333,1.05,875973.5000291,875974.0130915,73,875973.5357352,875973.5541147,875973.6358419,875975.7474116,875976.7957503,NaN,0.513062400044873
108,42,3,categorization,0,bathroom,SHINEd_sun_axyrejkiiaqiurjk.tif,59,0.0333333333333333,0.0166666666666667,0.0833333333333333,1.33333333333333,875976.8003684,875977.4063031,70,875976.8361307,875976.853861,875976.9361369,875977.4115702,875978.7432422,1,0.605934699997306
108,43,3,categorization,0,bathroom,SHINEd_sun_anhioqovhscjqqwb.tif,40,0.0333333333333333,0.0166666666666667,0.0833333333333333,1.13333333333333,875978.7478066,875979.1011227,82,875978.7835072,875978.8016932,875978.8848342,875980.1713354,875981.3030055,NaN,0.353316100081429
108,44,3,categorization,0,kitchen,SHINEd_labelme_brsyyvweiuaazfr.tif,61,0.0333333333333333,0.0166666666666667,0.0833333333333333,0.716666666666667,875981.3075273,875981.9971087,74,875981.3435197,875981.3602487,875981.4441473,875982.00266,875982.7176645,1,0.689581400016323
108,45,3,categorization,0,kitchen,SHINEd_sun_aypmqwcualkenuoe.tif,108,0.0333333333333333,0.0166666666666667,0.0833333333333333,0.716666666666667,875982.7239858,875983.3650766,74,875982.7598179,875982.7768086,875982.8597552,875983.3709513,875984.0859551,1,0.641090799937956
108,46,3,categorization,0,kitchen,SHINEd_labelme_kxvouciolcpqplr.tif,62,0.0333333333333333,0.0166666666666667,0.0833333333333333,1.98333333333333,875984.0905991,875984.7091368,74,875984.1263337,875984.1433104,875984.2263157,875984.7148252,875986.6964969,1,0.618537700036541
108,47,3,categorization,0,bathroom,SHINEd_sun_aavhrsfjbserjtht.tif,15,0.0333333333333333,0.0166666666666667,0.0833333333333333,0.733333333333333,875986.7013958,875987.2851423,74,875986.7371697,875986.7543855,875986.8372839,875987.290585,875988.0222565,0,0.583746499964036
108,48,3,categorization,0,kitchen,SHINEd_sun_auticobqsbwgoppi.tif,103,0.0333333333333333,0.0166666666666667,0.0833333333333333,0.783333333333333,875988.0265643,875988.6139069,70,875988.0622476,875988.0792301,875988.1622173,875988.6194337,875989.4011051,0,0.58734260010533
108,49,3,categorization,0,bathroom,SHINEd_sun_atstyziqcmkahyxk.tif,51,0.0333333333333333,0.0166666666666667,0.0833333333333333,1.78333333333333,875989.4056703,875989.9578409,70,875989.4414304,875989.459434,875989.5413505,875989.9629737,875991.7446448,1,0.55217060004361
108,50,3,categorization,0,kitchen,SHINEd_sun_auaiucuqpdausiva.tif,101,0.0333333333333333,0.0166666666666667,0.0833333333333333,1.46666666666667,875991.7494957,875992.4616811,74,875991.7867763,875991.8020883,875991.887116,875992.4669187,875993.9319235,1,0.71218539995607
108,1,4,categorization,0,bathroom,SHINEd_sun_alotolagknyrgtsk.tif,36,0.0333333333333333,0.0166666666666667,0.0833333333333333,1.66666666666667,876007.4242638,876008.0130514,74,876007.4596947,876007.4768004,876007.5614277,876008.0185141,876009.6835177,0,0.588787599932402
108,2,4,categorization,0,kitchen,SHINEd_sun_acxkpeoqbwcxfvip.tif,77,0.0333333333333333,0.0166666666666667,0.0833333333333333,1.7,876009.6877034,876011.2299646,74,876009.7228963,876009.7399918,876009.8231779,876011.2355367,876012.9338752,1,1.54226119990926
108,3,4,categorization,0,bathroom,SHINEd_sun_aapitsgbtktqubfy.tif,14,0.0333333333333333,0.0166666666666667,0.0833333333333333,0.9,876012.940031,876013.5339888,70,876012.9767866,876012.99404,876013.0757734,876013.5398414,876014.4381803,1,0.593957800068893
108,4,4,categorization,0,kitchen,SHINEd_labelme_brsyyvweiuaazfr.tif,61,0.0333333333333333,0.0166666666666667,0.0833333333333333,1.86666666666667,876014.4431867,876015.0451176,70,876014.4793071,876014.4972573,876014.5790816,876015.0509523,876016.9159582,0,0.601930900011212
108,5,4,categorization,0,bathroom,SHINEd_sun_anryaplzeujmzfkd.tif,41,0.0333333333333333,0.0166666666666667,0.0833333333333333,0.9,876016.9212825,876017.5571147,74,876016.9568784,876016.974091,876017.0569856,876017.5621562,876018.4604955,0,0.635832199943252
108,6,4,categorization,0,bathroom,SHINEd_sun_abjtwfukuwddzted.tif,17,0.0333333333333333,0.0166666666666667,0.0833333333333333,1.81666666666667,876018.465302,876019.357822,74,876018.502196,876018.518322,876018.6009627,876019.3625991,876021.1776052,0,0.892519999993965
108,7,4,categorization,0,kitchen,SHINEd_sun_acxkpeoqbwcxfvip.tif,77,0.0333333333333333,0.0166666666666667,0.0833333333333333,0.716666666666667,876021.1825058,876021.9891081,74,876021.2181298,876021.2357213,876021.318206,876021.9950383,876022.7100442,1,0.806602299911901
108,8,4,categorization,0,bathroom,SHINEd_sun_amzlamotzwfkwjco.tif,39,0.0333333333333333,0.0166666666666667,0.0833333333333333,1.05,876022.7148144,876023.5730178,74,876022.7503998,876022.7673441,876022.8505228,876023.5790462,876024.6273832,0,0.858203400042839
108,9,4,categorization,0,kitchen,SHINEd_sun_afuyedyxivkhecmu.tif,86,0.0333333333333333,0.0166666666666667,0.0833333333333333,0.8,876024.6324957,876025.3010613,74,876024.6695157,876024.6864242,876024.7685618,876025.3066066,876026.1049445,1,0.668565599946305
108,10,4,categorization,0,kitchen,SHINEd_sun_awcpdzzznmweyyhv.tif,105,0.0333333333333333,0.0166666666666667,0.0833333333333333,1.43333333333333,876026.1098965,876026.861725,70,876026.1457815,876026.1628914,876026.2458966,876026.866819,876028.2984903,0,0.751828499953263
108,11,4,categorization,0,kitchen,SHINEd_sun_ayqymgxqhxxiykiw.tif,109,0.0333333333333333,0.0166666666666667,0.0833333333333333,1.26666666666667,876028.3032759,876054.6211422,74,876028.3405179,876028.3569176,876028.4390184,876054.6269672,876055.8919731,1,26.3178662999999
108,12,4,categorization,0,kitchen,SHINEd_sun_azmutvzbxypaceni.tif,110,0.0333333333333333,0.0166666666666667,0.0833333333333333,0.716666666666667,876055.8964781,876056.7256601,74,876055.932208,876055.9493808,876056.0324712,876056.7309243,876057.4459285,1,0.829182000015862
108,13,4,categorization,0,bathroom,SHINEd_sun_amzlamotzwfkwjco.tif,39,0.0333333333333333,0.0166666666666667,0.0833333333333333,1.46666666666667,876057.4508702,876058.3019501,74,876057.4882207,876057.5050736,876057.5878518,876058.3067815,876059.7717859,0,0.851079900050536
108,14,4,categorization,0,bathroom,SHINEd_sun_aghyqhbptboemmoq.tif,26,0.0333333333333333,0.0166666666666667,0.0833333333333333,0.883333333333333,876059.776646,876060.6058313,70,876059.8133877,876059.8294197,876059.9124407,876060.6111852,876061.4928684,1,0.82918530004099
108,15,4,categorization,0,kitchen,SHINEd_sun_aaxxjlsuzvqlgylf.tif,68,0.0333333333333333,0.0166666666666667,0.0833333333333333,1.15,876061.4979375,876062.1731692,70,876061.5335712,876061.5516808,876061.6340179,876062.1791933,876063.3275306,0,0.675231699948199
108,16,4,categorization,0,bathroom,SHINEd_sun_afcoljnjfoxjtgja.tif,23,0.0333333333333333,0.0166666666666667,0.0833333333333333,0.966666666666667,876063.3321907,876064.2371004,70,876063.3694967,876063.3853916,876063.4693238,876064.2431076,876065.2081113,1,0.904909700038843
108,17,4,categorization,0,bathroom,SHINEd_sun_acgyywnybuveqsro.tif,19,0.0333333333333333,0.0166666666666667,0.0833333333333333,1.73333333333333,876065.2130001,876065.9170708,70,876065.2486798,876065.2670981,876065.3487056,876065.9232555,876067.6549263,1,0.704070699983276
108,18,4,categorization,0,bathroom,SHINEd_sun_akiytfaagpdsphgz.tif,32,0.0333333333333333,0.0166666666666667,0.0833333333333333,1.91666666666667,876067.6597315,876068.5889531,70,876067.6954994,876067.712489,876067.7955314,876068.5938541,876070.5088594,1,0.929221600061283
108,19,4,categorization,0,kitchen,SHINEd_sun_afuyedyxivkhecmu.tif,86,0.0333333333333333,0.0166666666666667,0.0833333333333333,1.38333333333333,876070.5138115,876071.1653926,74,876070.5497018,876070.5677806,876070.6505541,876071.1708206,876072.552505,1,0.651581099955365
108,20,4,categorization,0,bathroom,SHINEd_sun_aapitsgbtktqubfy.tif,14,0.0333333333333333,0.0166666666666667,0.0833333333333333,1.63333333333333,876072.5591822,876073.3094192,70,876072.5950826,876072.6119517,876072.6949114,876073.3145703,876074.9462414,1,0.750237000058405
108,21,4,categorization,0,kitchen,SHINEd_sun_ahywdevtimnqcsln.tif,94,0.0333333333333333,0.0166666666666667,0.0833333333333333,0.833333333333333,876074.9511702,876075.6778277,74,876074.9885022,876075.0052348,876075.0875971,876075.6827932,876076.5144636,1,0.726657500024885
108,22,4,categorization,0,kitchen,SHINEd_sun_aymvwlarqodbwuoc.tif,107,0.0333333333333333,0.0166666666666667,0.0833333333333333,0.95,876076.5193207,876077.1891053,74,876076.5561404,876076.5736121,876076.6552878,876077.1946939,876078.1430323,1,0.669784600031562
108,23,4,categorization,0,kitchen,SHINEd_sun_afuyedyxivkhecmu.tif,86,0.0333333333333333,0.0166666666666667,0.0833333333333333,0.766666666666667,876078.1493781,876078.7897577,70,876078.1863305,876078.2033106,876078.2849427,876078.7955001,876079.5605041,0,0.640379600110464
108,24,4,categorization,0,bathroom,SHINEd_labelme_xbsnnlvmskdknsb.tif,12,0.0333333333333333,0.0166666666666667,0.0833333333333333,0.75,876079.5654833,876080.3901375,70,876079.6015728,876079.6184375,876079.7013783,876080.395387,876081.143725,1,0.824654199997894
108,25,4,categorization,0,bathroom,SHINEd_labelme_sfxiulhjbhlyiyt.tif,11,0.0333333333333333,0.0166666666666667,0.0833333333333333,0.75,876081.1485521,876082.1410328,74,876081.1842245,876081.2013313,876081.2841982,876082.1468477,876082.895185,0,0.992480699904263
108,26,4,categorization,0,kitchen,SHINEd_sun_aehawpgmrlhlvcow.tif,82,0.0333333333333333,0.0166666666666667,0.0833333333333333,0.966666666666667,876082.9000387,876083.509084,74,876082.9368895,876082.9527618,876083.036118,876083.5146507,876084.4796881,1,0.609045300050639
108,27,4,categorization,0,bathroom,SHINEd_sun_anryaplzeujmzfkd.tif,41,0.0333333333333333,0.0166666666666667,0.0833333333333333,1.2,876084.4846607,876085.285091,70,876084.5208442,876084.5377855,876084.6204725,876085.2908381,876086.4891746,1,0.800430300063454
108,28,4,categorization,0,kitchen,SHINEd_sun_aamedkxepzlwuxes.tif,65,0.0333333333333333,0.0166666666666667,0.0833333333333333,1.15,876086.4949736,876087.237876,70,876086.5318158,876086.5492493,876086.6317079,876087.2431009,876088.3914382,0,0.742902399972081
108,29,4,categorization,0,bathroom,SHINEd_sun_ahcvzmoyaycdoftf.tif,29,0.0333333333333333,0.0166666666666667,0.0833333333333333,1.26666666666667,876088.3967962,876088.957121,74,876088.432919,876088.4495056,876088.5341117,876088.9629347,876090.2279404,0,0.560324800084345
108,30,4,categorization,0,bathroom,SHINEd_sun_aavhrsfjbserjtht.tif,15,0.0333333333333333,0.0166666666666667,0.0833333333333333,1,876090.232462,876091.053665,70,876090.2679162,876090.2854982,876090.3681515,876091.0590254,876092.0573632,1,0.821203000028618
108,31,4,categorization,0,bathroom,SHINEd_sun_aunuadmjocsddsrl.tif,53,0.0333333333333333,0.0166666666666667,0.0833333333333333,1.46666666666667,876092.0630878,876092.9979738,70,876092.1003394,876092.1170522,876092.1997037,876093.0033694,876094.4683877,1,0.934886000002734
108,32,4,categorization,0,kitchen,SHINEd_sun_adcrxklhlbwrbkgm.tif,78,0.0333333333333333,0.0166666666666667,0.0833333333333333,1.8,876094.4746635,876095.6931001,70,876094.5119721,876094.5278215,876094.6118168,876095.6993474,876097.4976852,0,1.21843660005834
108,33,4,categorization,0,bathroom,SHINEd_sun_aapitsgbtktqubfy.tif,14,0.0333333333333333,0.0166666666666667,0.0833333333333333,0.95,876097.5025833,876098.1010155,70,876097.5384903,876097.554983,876097.6382757,876098.1061181,876099.0544566,1,0.598432200029492
108,34,4,categorization,0,bathroom,SHINEd_sun_aunuadmjocsddsrl.tif,53,0.0333333333333333,0.0166666666666667,0.0833333333333333,1.21666666666667,876099.0605158,876099.7010913,74,876099.0965267,876099.1132685,876099.1961127,876099.7073463,876100.9223502,0,0.640575499972329
108,35,4,categorization,0,kitchen,SHINEd_sun_adcrxklhlbwrbkgm.tif,78,0.0333333333333333,0.0166666666666667,0.0833333333333333,1.8,876100.9273562,876101.8460967,70,876100.9642385,876100.9799502,876101.0632915,876101.8510879,876103.6494262,0,0.918740500113927
108,36,4,categorization,0,kitchen,SHINEd_sun_aamedkxepzlwuxes.tif,65,0.0333333333333333,0.0166666666666667,0.0833333333333333,1.16666666666667,876103.6542035,876104.2456879,74,876103.6917631,876103.7082505,876103.7917216,876104.2506222,876105.4156267,1,0.591484399978071
108,37,4,categorization,0,bathroom,SHINEd_sun_ahcvzmoyaycdoftf.tif,29,0.0333333333333333,0.0166666666666667,0.0833333333333333,1.16666666666667,876105.4204976,876106.1177789,70,876105.4565419,876105.473348,876105.5572042,876106.1225073,876107.2875116,1,0.697281299973838
108,38,4,categorization,0,bathroom,SHINEd_sun_axyrejkiiaqiurjk.tif,59,0.0333333333333333,0.0166666666666667,0.0833333333333333,1.65,876107.2922678,876108.413822,74,876107.3280157,876107.3462176,876107.4277786,876108.4192132,876110.0675513,0,1.12155420007184
108,39,4,categorization,0,kitchen,SHINEd_sun_awcpdzzznmweyyhv.tif,105,0.0333333333333333,0.0166666666666667,0.0833333333333333,0.933333333333333,876110.0722731,876110.77308,74,876110.1083078,876110.1261184,876110.2078234,876110.778929,876111.7105998,1,0.700806899927557
108,40,4,categorization,0,bathroom,SHINEd_sun_atyjprilyfyzpbjv.tif,52,0.0333333333333333,0.0166666666666667,0.0833333333333333,0.95,876111.7152227,876112.4850858,70,876111.7512932,876111.7675204,876111.8517344,876112.4911711,876113.4395099,1,0.76986310002394
108,41,4,categorization,0,kitchen,SHINEd_labelme_kxvouciolcpqplr.tif,62,0.0333333333333333,0.0166666666666667,0.0833333333333333,0.75,876113.4441505,876114.4531041,74,876113.4795035,876113.4972143,876113.5798592,876114.4588308,876115.2071682,1,1.00895359995775
108,42,4,categorization,0,bathroom,SHINEd_sun_agguqiubmwhqqunb.tif,25,0.0333333333333333,0.0166666666666667,0.0833333333333333,0.833333333333333,876115.2119601,876115.9010967,74,876115.2476214,876115.2646754,876115.3475774,876115.9060595,876116.7377304,0,0.68913660000544
108,43,4,categorization,0,bathroom,SHINEd_sun_aljolscmmzydegqp.tif,34,0.0333333333333333,0.0166666666666667,0.0833333333333333,1.33333333333333,876116.7423837,876117.5739211,74,876116.7785733,876116.7952651,876116.8780919,876117.5785833,876118.9102689,0,0.83153740002308
108,44,4,categorization,0,bathroom,SHINEd_sun_agrwbmhcpmfuwmsg.tif,27,0.0333333333333333,0.0166666666666667,0.0833333333333333,0.983333333333333,876118.9169807,876119.9178089,74,876118.9525765,876118.9720824,876119.0528218,876119.9235587,876120.9052304,0,1.0008282000199
108,45,4,categorization,0,kitchen,SHINEd_sun_aegoxogugdkwpmpj.tif,81,0.0333333333333333,0.0166666666666667,0.0833333333333333,1.25,876120.9096253,876121.6697851,70,876120.9454109,876120.9624197,876121.0457051,876121.674761,876122.9230981,0,0.760159800061956
108,46,4,categorization,0,bathroom,SHINEd_sun_aamrfepkhweyewue.tif,13,0.0333333333333333,0.0166666666666667,0.0833333333333333,0.833333333333333,876122.9294131,876123.6698018,70,876122.9662407,876122.9835759,876123.0652414,876123.6748048,876124.5064756,1,0.740388700040057
108,47,4,categorization,0,bathroom,SHINEd_sun_agrwbmhcpmfuwmsg.tif,27,0.0333333333333333,0.0166666666666667,0.0833333333333333,1.91666666666667,876124.5114939,876125.1971086,70,876124.5473259,876124.5654382,876124.6486645,876125.2029865,876127.1179904,1,0.685614700079896
108,48,4,categorization,0,kitchen,SHINEd_sun_abpwyqmlzafvklqo.tif,72,0.0333333333333333,0.0166666666666667,0.0833333333333333,1.76666666666667,876127.1224136,876127.8930618,74,876127.1584252,876127.1760888,876127.2592945,876127.8988026,876129.6638063,1,0.770648200064898
108,49,4,categorization,0,kitchen,SHINEd_sun_adcrxklhlbwrbkgm.tif,78,0.0333333333333333,0.0166666666666667,0.0833333333333333,1.41666666666667,876129.6683596,876130.5730429,74,876129.7041046,876129.72215,876129.8054758,876130.5785483,876131.9935522,1,0.904683299944736
108,50,4,categorization,0,kitchen,SHINEd_sun_ahpczsiumwwocjkv.tif,93,0.0333333333333333,0.0166666666666667,0.0833333333333333,1.43333333333333,876131.9987913,876132.6299308,74,876132.0356678,876132.0527462,876132.1342456,876132.6346097,876134.066298,1,0.631139499950223
108,1,5,categorization,0,bathroom,SHINEd_sun_afmzatxvdtvhuafm.tif,24,0.0333333333333333,0.0166666666666667,0.0833333333333333,1.48333333333333,876140.628249,876141.3250662,74,876140.6638112,876140.6807807,876140.7652173,876141.3309626,876142.8126333,0,0.696817200048827
108,2,5,categorization,0,bathroom,SHINEd_sun_aljolscmmzydegqp.tif,34,0.0333333333333333,0.0166666666666667,0.0833333333333333,1.2,876142.8172378,876143.9973015,74,876142.8541825,876142.869533,876142.9529228,876144.0024422,876145.2007796,0,1.1800637000706
108,3,5,categorization,0,bathroom,SHINEd_sun_aamrfepkhweyewue.tif,13,0.0333333333333333,0.0166666666666667,0.0833333333333333,0.983333333333333,876145.2065751,876145.9490312,74,876145.2427133,876145.2593173,876145.3422874,876145.9541418,876146.9358134,0,0.742456100066192
108,4,5,categorization,0,kitchen,SHINEd_sun_aexklacwqwezaorf.tif,85,0.0333333333333333,0.0166666666666667,0.0833333333333333,1.75,876146.9406569,876147.5493936,74,876146.9776751,876146.9934013,876147.076323,876147.5539048,876149.3022432,1,0.608736699912697
108,5,5,categorization,0,kitchen,SHINEd_sun_ahpczsiumwwocjkv.tif,93,0.0333333333333333,0.0166666666666667,0.0833333333333333,1.95,876149.3085021,876150.0769975,74,876149.3453644,876149.36253,876149.4443441,876150.0827916,876152.0311288,1,0.768495400086977
108,6,5,categorization,0,kitchen,SHINEd_sun_acwjdupvyjsugpay.tif,76,0.0333333333333333,0.0166666666666667,0.0833333333333333,1.21666666666667,876152.0368649,876152.757761,74,876152.0737837,876152.0904433,876152.1719229,876152.7629989,876153.9780027,1,0.720896099926904
108,7,5,categorization,0,bathroom,SHINEd_sun_aleqenyvunhactkl.tif,33,0.0333333333333333,0.0166666666666667,0.0833333333333333,0.733333333333333,876153.982958,876154.5730449,70,876154.0186313,876154.0358032,876154.1184382,876154.5782701,876155.3099413,1,0.590086899930611
108,8,5,categorization,0,bathroom,SHINEd_sun_aamrfepkhweyewue.tif,13,0.0333333333333333,0.0166666666666667,0.0833333333333333,1.33333333333333,876155.3144087,876155.9810656,74,876155.3498958,876155.3668861,876155.4497659,876155.9868736,876157.3185437,0,0.666656899964437
108,9,5,categorization,0,kitchen,SHINEd_sun_agubuxuukhzyzpdp.tif,89,0.0333333333333333,0.0166666666666667,0.0833333333333333,1.18333333333333,876157.3233774,876158.0930817,74,876157.3593506,876157.375995,876157.4590983,876158.0987934,876159.2804635,1,0.769704299978912
108,10,5,categorization,0,bathroom,SHINEd_sun_alkosphxlxwjwgjd.tif,35,0.0333333333333333,0.0166666666666667,0.0833333333333333,1.26666666666667,876159.2854828,876160.0058064,70,876159.3212641,876159.3394337,876159.4215317,876160.0109722,876161.2759768,1,0.720323599991389
108,11,5,categorization,0,bathroom,SHINEd_sun_anhioqovhscjqqwb.tif,40,0.0333333333333333,0.0166666666666667,0.0833333333333333,1.25,876161.2808165,876161.8610093,70,876161.3166841,876161.3339802,876161.4179378,876161.866978,876163.1153149,1,0.580192800029181
108,12,5,categorization,0,kitchen,SHINEd_sun_acfluyeqiftljamq.tif,74,0.0333333333333333,0.0166666666666667,0.0833333333333333,0.766666666666667,876163.1201499,876163.7650373,74,876163.1562496,876163.1740577,876163.2553289,876163.7711034,876164.536108,1,0.644887399976142
108,13,5,categorization,0,kitchen,SHINEd_sun_abdenxonkemggwsq.tif,69,0.0333333333333333,0.0166666666666667,0.0833333333333333,1.68333333333333,876164.540532,876165.2850858,74,876164.5758367,876164.5934561,876164.6762652,876165.2904814,876166.9721522,1,0.744553799973801
108,14,5,categorization,0,bathroom,SHINEd_sun_afmzatxvdtvhuafm.tif,24,0.0333333333333333,0.0166666666666667,0.0833333333333333,1.61666666666667,876166.9769295,876168.1970049,70,876167.0126394,876167.0297185,876167.11269,876168.2033272,876169.8183322,1,1.22007539996412
108,15,5,categorization,0,bathroom,SHINEd_sun_adwvsndpdsgzeste.tif,22,0.0333333333333333,0.0166666666666667,0.0833333333333333,1.76666666666667,876169.8228389,876170.3570074,70,876169.8600511,876169.8770573,876169.9587303,876170.3625035,876172.1275091,1,0.534168499987572
108,16,5,categorization,0,bathroom,SHINEd_sun_aiskgiwswewisvph.tif,31,0.0333333333333333,0.0166666666666667,0.0833333333333333,1.63333333333333,876172.1323925,876173.0770122,74,876172.1692114,876172.1851672,876172.2694865,876173.0822704,876174.7139417,0,0.944619700079784
108,17,5,categorization,0,kitchen,SHINEd_sun_aypmqwcualkenuoe.tif,108,0.0333333333333333,0.0166666666666667,0.0833333333333333,1.13333333333333,876174.7198424,876175.5170891,74,876174.7559844,876174.7737669,876174.8568789,876175.5228852,876176.6545568,1,0.797246699919924
108,18,5,categorization,0,bathroom,SHINEd_sun_aghyqhbptboemmoq.tif,26,0.0333333333333333,0.0166666666666667,0.0833333333333333,1.3,876176.6594257,876177.5731361,74,876176.6954857,876176.7121087,876176.7951961,876177.5792471,876178.8775861,0,0.913710399996489
108,19,5,categorization,0,bathroom,SHINEd_sun_apynckhmoftszqoq.tif,46,0.0333333333333333,0.0166666666666667,0.0833333333333333,0.75,876178.8839995,876179.7419241,70,876178.9212794,876178.9378713,876179.0205784,876179.7476547,876180.4959926,1,0.857924600015394
108,20,5,categorization,0,kitchen,SHINEd_sun_abftihopvusyfakt.tif,71,0.0333333333333333,0.0166666666666667,0.0833333333333333,0.95,876180.5009801,876181.1659626,74,876180.5368105,876180.5537335,876180.6366365,876181.1709116,876182.1192494,1,0.664982500020415
108,21,5,categorization,0,kitchen,SHINEd_labelme_brsyyvweiuaazfr.tif,61,0.0333333333333333,0.0166666666666667,0.0833333333333333,0.783333333333333,876182.1241035,876183.1731008,74,876182.1603192,876182.1772728,876182.259721,876183.1781557,876183.9598271,1,1.04899729997851
108,22,5,categorization,0,kitchen,SHINEd_sun_aexklacwqwezaorf.tif,85,0.0333333333333333,0.0166666666666667,0.0833333333333333,0.8,876183.9646123,876184.7330354,74,876184.0003793,876184.0176834,876184.1004118,876184.7389108,876185.5372521,1,0.76842310000211
108,23,5,categorization,0,kitchen,SHINEd_sun_aypmqwcualkenuoe.tif,108,0.0333333333333333,0.0166666666666667,0.0833333333333333,1.85,876185.5416868,876186.5976732,74,876185.5774877,876185.5951119,876185.6778355,876186.6027529,876188.4510911,1,1.05598639999516
108,24,5,categorization,0,bathroom,SHINEd_labelme_xbsnnlvmskdknsb.tif,12,0.0333333333333333,0.0166666666666667,0.0833333333333333,1.46666666666667,876188.4558898,876189.0130072,70,876188.4915473,876188.5098393,876188.5916009,876189.0183268,876190.4833304,1,0.557117399992421
108,25,5,categorization,0,bathroom,SHINEd_sun_awnqiikzaispgmwo.tif,57,0.0333333333333333,0.0166666666666667,0.0833333333333333,1.21666666666667,876190.4879869,876191.596959,74,876190.5252408,876190.5419514,876190.6237967,876191.6026459,876192.8176504,0,1.10897209995892
108,26,5,categorization,0,bathroom,SHINEd_sun_auzqhkafidnkrwmo.tif,55,0.0333333333333333,0.0166666666666667,0.0833333333333333,1.46666666666667,876192.8232651,876193.5817768,70,876192.8605317,876192.8774995,876192.9604526,876193.5867975,876195.0518015,1,0.758511699968949
108,27,5,categorization,0,kitchen,SHINEd_sun_azmutvzbxypaceni.tif,110,0.0333333333333333,0.0166666666666667,0.0833333333333333,0.883333333333333,876195.0567732,876195.7582054,74,876195.092435,876195.1094517,876195.1926516,876195.7633021,876196.6449735,1,0.701432199915871
108,28,5,categorization,0,kitchen,SHINEd_sun_ajcbwwvdlsvjyzje.tif,95,0.0333333333333333,0.0166666666666667,0.0833333333333333,1.58333333333333,876196.6496113,876197.4060468,70,876196.6869366,876196.7026997,876196.7864445,876197.411149,876198.9928211,0,0.756435499992222
108,29,5,categorization,0,bathroom,SHINEd_sun_asfwthctfqerjvxr.tif,49,0.0333333333333333,0.0166666666666667,0.0833333333333333,1.1,876198.9986989,876199.7810426,74,876199.0347557,876199.0529462,876199.134086,876199.7868516,876200.8851886,0,0.782343700062484
108,30,5,categorization,0,kitchen,SHINEd_sun_abrcnpqqhmjwekyf.tif,73,0.0333333333333333,0.0166666666666667,0.0833333333333333,0.75,876200.8912765,876201.9737013,74,876200.9281439,876200.9451412,876201.0283194,876201.978791,876202.7271296,1,1.08242480002809
108,31,5,categorization,0,kitchen,SHINEd_labelme_rykdqxenmhulbdn.tif,63,0.0333333333333333,0.0166666666666667,0.0833333333333333,0.8,876202.7319947,876203.7498523,74,876202.7681022,876202.7850781,876202.8677349,876203.7550032,876204.5533403,1,1.01785760000348
108,32,5,categorization,0,kitchen,SHINEd_sun_abdxkyyxwfskuaqb.tif,70,0.0333333333333333,0.0166666666666667,0.0833333333333333,1.3,876204.5580204,876205.357945,74,876204.5937825,876204.6106997,876204.6936802,876205.3636499,876206.661987,1,0.79992460005451
108,33,5,categorization,0,bathroom,SHINEd_sun_anhioqovhscjqqwb.tif,40,0.0333333333333333,0.0166666666666667,0.0833333333333333,1.46666666666667,876206.6669785,876207.2529686,70,876206.7027652,876206.7209593,876206.8026066,876207.2581764,876208.7231812,1,0.585990100051276
108,34,5,categorization,0,kitchen,SHINEd_sun_afuyedyxivkhecmu.tif,86,0.0333333333333333,0.0166666666666667,0.0833333333333333,0.933333333333333,876208.7277764,876209.5491141,74,876208.7639947,876208.7807344,876208.8637167,876209.5552283,876210.4869009,1,0.821337700006552
108,35,5,categorization,0,kitchen,SHINEd_labelme_kxvouciolcpqplr.tif,62,0.0333333333333333,0.0166666666666667,0.0833333333333333,1.4,876210.4919756,876211.7017759,74,876210.5276784,876210.5447767,876210.6277962,876211.7070507,876213.1053875,1,1.20980029995553
108,36,5,categorization,0,bathroom,SHINEd_sun_aspsyogrekjtfozg.tif,50,0.0333333333333333,0.0166666666666667,0.0833333333333333,1.03333333333333,876213.1100127,876213.8370497,70,876213.1458074,876213.1627311,876213.2456524,876213.8424602,876214.8741326,1,0.727037000004202
108,37,5,categorization,0,bathroom,SHINEd_sun_aleqenyvunhactkl.tif,33,0.0333333333333333,0.0166666666666667,0.0833333333333333,0.9,876214.8800735,876215.5736449,70,876214.91587,876214.9340403,876215.0171597,876215.5787422,876216.4770797,1,0.693571400013752
108,38,5,categorization,0,bathroom,SHINEd_sun_agyqfjcfkdcydepw.tif,28,0.0333333333333333,0.0166666666666667,0.0833333333333333,0.883333333333333,876216.483188,876217.3418381,74,876216.5190377,876216.5356686,876216.6190211,876217.3468766,876218.2285475,0,0.858650099951774
108,39,5,categorization,0,kitchen,SHINEd_sun_ayqymgxqhxxiykiw.tif,109,0.0333333333333333,0.0166666666666667,0.0833333333333333,1.35,876218.2338321,876219.0133368,74,876218.2706885,876218.2877661,876218.369369,876219.0183953,876220.3667338,1,0.779504699981771
108,40,5,categorization,0,kitchen,SHINEd_sun_agorklincwxrdtga.tif,88,0.0333333333333333,0.0166666666666667,0.0833333333333333,1.03333333333333,876220.371767,876221.1976773,70,876220.4089819,876220.425687,876220.5085772,876221.203295,876222.2349664,0,0.825910300016403
108,41,5,categorization,0,kitchen,SHINEd_sun_ataniphupyuxeowc.tif,100,0.0333333333333333,0.0166666666666667,0.0833333333333333,0.733333333333333,876222.2396441,876222.9250473,74,876222.2752613,876222.2935843,876222.3764763,876222.9313851,876223.6630552,1,0.685403200099245
108,42,5,categorization,0,bathroom,SHINEd_sun_apjevzvycyhuqghb.tif,44,0.0333333333333333,0.0166666666666667,0.0833333333333333,1.41666666666667,876223.6676657,876224.581785,74,876223.7045234,876223.7213856,876223.804366,876224.5864699,876226.0014736,0,0.914119300083257
108,43,5,categorization,0,bathroom,SHINEd_sun_aapitsgbtktqubfy.tif,14,0.0333333333333333,0.0166666666666667,0.0833333333333333,0.833333333333333,876226.0064833,876226.6848778,70,876226.0437935,876226.0604191,876226.1419924,876226.6902725,876227.5219437,1,0.678394500049762
108,44,5,categorization,0,kitchen,SHINEd_sun_akcjzhbbjlbogpdi.tif,96,0.0333333333333333,0.0166666666666667,0.0833333333333333,1.61666666666667,876227.5267119,876228.3250552,74,876227.5624735,876227.5791198,876227.6624497,876228.3309239,876229.945929,1,0.79834330000449
108,45,5,categorization,0,kitchen,SHINEd_sun_ahywdevtimnqcsln.tif,94,0.0333333333333333,0.0166666666666667,0.0833333333333333,0.8,876229.9521076,876230.8930246,74,876229.9878798,876230.0046543,876230.0879887,876230.8988952,876231.697232,1,0.940916999941692
108,46,5,categorization,0,bathroom,SHINEd_sun_aleqenyvunhactkl.tif,33,0.0333333333333333,0.0166666666666667,0.0833333333333333,1.98333333333333,876231.7023159,876232.4777198,70,876231.7396916,876231.7567727,876231.8377809,876232.4827124,876234.464383,1,0.775403899955563
108,47,5,categorization,0,bathroom,SHINEd_sun_aiskgiwswewisvph.tif,31,0.0333333333333333,0.0166666666666667,0.0833333333333333,1.53333333333333,876234.4707593,876235.3729476,70,876234.5069801,876234.5235979,876234.6064617,876235.3786758,876236.9103462,1,0.902188299922273
108,48,5,categorization,0,bathroom,SHINEd_sun_aavhrsfjbserjtht.tif,15,0.0333333333333333,0.0166666666666667,0.0833333333333333,1.41666666666667,876236.9161238,876237.7489367,74,876236.9513041,876236.9691527,876237.0522574,876237.7548201,876239.169825,0,0.832812900072895
108,49,5,categorization,0,kitchen,SHINEd_sun_auaiucuqpdausiva.tif,101,0.0333333333333333,0.0166666666666667,0.0833333333333333,1.76666666666667,876239.1748847,876239.8050029,70,876239.2109528,876239.2291106,876239.3111198,876239.8103265,876241.5753305,0,0.630118199973367
108,50,5,categorization,0,bathroom,SHINEd_sun_abjtwfukuwddzted.tif,17,0.0333333333333333,0.0166666666666667,0.0833333333333333,1.75,876241.5813167,876242.3977224,70,876241.618526,876241.6350293,876241.7171643,876242.4034616,876244.1517988,1,0.81640570005402
