sub_num,trial,block,task,is_practice,category,image,texture,duration,mask_dur,jitter,stim_time,time_of_resp,trial_response,mask_time,fix_time,jit_onset,trial_end,trial_accuracy,RT
124,1,0,usability,1,bathroom,bathroom_practice3.tif,223,1.5,0,0.983333333333333,6313.527669542,6319.88977275,2,NaN,6319.896019,6319.915047583,6320.891773958,NaN,NaN
124,2,0,usability,1,bathroom,bathroom_practice4.tif,224,1.5,0,1.78333333333333,6320.896682042,6324.960959,6,NaN,6324.967048,6324.985496458,6326.762353417,NaN,NaN
124,3,0,usability,1,bathroom,bathroom_practice5.tif,225,1.5,0,1.78333333333333,6326.78142825,6330.481728125,5,NaN,6330.487099333,6330.505504125,6332.282218875,NaN,NaN
124,4,0,usability,1,bathroom,bathroom_practice2.tif,222,1.5,0,1.26666666666667,6332.301920875,6338.809766583,5,NaN,6338.815252958,6338.8334815,6340.093540292,NaN,NaN
124,5,0,usability,1,bathroom,bathroom_practice1.tif,221,1.5,0,1.05,6340.111995625,6343.689387583,6,NaN,6343.695075833,6343.713594458,6344.756961333,NaN,NaN
124,1,1,usability,0,bathroom,sun_apynckhmoftszqoq.tif,157,1.5,0,1.01666666666667,6351.405532667,6354.817239083,5,NaN,6354.822764875,6354.840996792,6355.851049792,NaN,NaN
124,2,1,usability,0,bathroom,sun_avhrdrntsqrjzccq.tif,165,1.5,0,1.61666666666667,6355.8588585,6360.289602458,6,NaN,6360.295190083,6360.313608,6361.923651708,NaN,NaN
124,3,1,usability,0,bathroom,sun_apkxzenqapsujocq.tif,155,1.5,0,1.16666666666667,6361.943493417,6365.195554375,7,NaN,6365.2158685,6365.237006042,6366.39705275,NaN,NaN
124,4,1,usability,0,bathroom,sun_aoybiabnpadelefl.tif,151,1.5,0,0.983333333333333,6366.406989917,6370.929107875,4,NaN,6370.934893292,6370.953098875,6371.929771125,NaN,NaN
124,5,1,usability,0,bathroom,sun_aggnnqpdorgxpvce.tif,131,1.5,0,0.783333333333333,6371.934947792,6377.793479875,5,NaN,6377.798853208,6377.817157417,6378.593828375,NaN,NaN
124,6,1,usability,0,bathroom,sun_ambriybtogmepttm.tif,146,1.5,0,0.816666666666667,6378.59918975,6381.913339417,3,NaN,6381.929751167,6381.94799625,6382.758000583,NaN,NaN
124,7,1,usability,0,bathroom,sun_agrwbmhcpmfuwmsg.tif,134,1.5,0,1.1,6382.762214917,6389.112757292,2,NaN,6389.118674625,6389.137096375,6390.230480083,NaN,NaN
124,8,1,usability,0,bathroom,sun_amzlamotzwfkwjco.tif,147,1.5,0,1.65,6390.238354917,6394.945256083,4,NaN,6394.950842792,6394.96920775,6396.612595667,NaN,NaN
124,9,1,usability,0,bathroom,sun_afcoljnjfoxjtgja.tif,130,1.5,0,1.13333333333333,6396.626551583,6400.304675167,5,NaN,6400.310513417,6400.328947542,6401.455646958,NaN,NaN
124,10,1,usability,0,bathroom,sun_aofnryafpsjimzsb.tif,150,1.5,0,0.766666666666667,6401.466380792,6406.873245458,4,NaN,6406.878895667,6406.897238042,6407.6572435,NaN,NaN
124,11,1,usability,0,bathroom,sun_apeeialkgkuxddgh.tif,152,1.5,0,1.25,6407.661538667,6411.345576625,3,NaN,6411.351054,6411.369483875,6412.612873917,NaN,NaN
124,12,1,usability,0,bathroom,sun_aavhrsfjbserjtht.tif,123,1.5,0,1.5,6412.634378083,6416.489116583,6,NaN,6416.494814833,6416.513275083,6418.006653,NaN,NaN
124,13,1,usability,0,bathroom,labelme_sfxiulhjbhlyiyt.tif,121,1.5,0,1.56666666666667,6418.025211375,6427.737280375,5,NaN,6427.74275075,6427.761079708,6429.32113875,NaN,NaN
124,14,1,usability,0,bathroom,sun_alkosphxlxwjwgjd.tif,144,1.5,0,1.45,6429.337327958,6432.18495875,6,NaN,6432.190595,6432.208896417,6433.652280208,NaN,NaN
124,15,1,usability,0,bathroom,sun_atstyziqcmkahyxk.tif,161,1.5,0,1.53333333333333,6433.668679792,6437.337304,7,NaN,6437.342714292,6437.36127125,6438.887981542,NaN,NaN
124,16,1,usability,0,bathroom,sun_aleqenyvunhactkl.tif,142,1.5,0,0.8,6438.905588125,6442.00898225,4,NaN,6442.01459025,6442.032891542,6442.826229417,NaN,NaN
124,17,1,usability,0,bathroom,sun_ahaulkltgpkeeemi.tif,136,1.5,0,0.933333333333333,6442.831296583,6447.841134458,5,NaN,6447.846679583,6447.864866083,6448.79153825,NaN,NaN
124,18,1,usability,0,bathroom,sun_aljolscmmzydegqp.tif,143,1.5,0,1.75,6448.798221792,6452.673253167,4,NaN,6452.678711292,6452.697062625,6454.440428792,NaN,NaN
124,19,1,usability,0,bathroom,sun_ahijqszoswveeyji.tif,138,1.5,0,1.48333333333333,6454.459553375,6460.552975083,5,NaN,6460.558719792,6460.57698975,6462.053708958,NaN,NaN
124,20,1,usability,0,bathroom,sun_aclfzgynxzxlbepz.tif,129,1.5,0,1.03333333333333,6462.072208667,6465.90547025,6,NaN,6465.911026083,6465.929359583,6466.95606725,NaN,NaN
124,21,1,usability,0,bathroom,sun_alotolagknyrgtsk.tif,145,1.5,0,1.23333333333333,6466.966467958,6470.320457625,2,NaN,6470.326312417,6470.344691417,6471.571411542,NaN,NaN
124,22,1,usability,0,bathroom,sun_axxbkopsgyouuebh.tif,168,1.5,0,1.28333333333333,6471.588653042,6474.208888,7,NaN,6474.21451175,6474.232684417,6475.509394167,NaN,NaN
124,23,1,usability,0,bathroom,sun_ahcvzmoyaycdoftf.tif,137,1.5,0,1.66666666666667,6475.527534458,6478.721406458,3,NaN,6478.72702575,6478.745614958,6480.405670542,NaN,NaN
124,24,1,usability,0,bathroom,sun_aghyqhbptboemmoq.tif,133,1.5,0,1.26666666666667,6480.416099,6484.272433292,6,NaN,6484.278346417,6484.296810958,6485.556885042,NaN,NaN
124,25,1,usability,0,bathroom,sun_awnqiikzaispgmwo.tif,166,1.5,0,1.4,6485.571617458,6491.296638833,5,NaN,6491.302807875,6491.32140125,6492.714781,NaN,NaN
124,1,2,usability,0,bathroom,sun_abjtwfukuwddzted.tif,125,1.5,0,1.66666666666667,6511.117018542,6514.608966167,5,NaN,6514.614355375,6514.632718458,6516.292750958,NaN,NaN
124,2,2,usability,0,bathroom,sun_aqrpegblszgcoujh.tif,158,1.5,0,1.85,6516.311415417,6520.040987917,4,NaN,6520.046319542,6520.064585875,6521.907966708,NaN,NaN
124,3,2,usability,0,bathroom,sun_acgyywnybuveqsro.tif,128,1.5,0,1.65,6521.924132042,6526.032549042,5,NaN,6526.038231417,6526.056607167,6527.699996583,NaN,NaN
124,4,2,usability,0,bathroom,sun_azqyogdvyhahyram.tif,170,1.5,0,0.95,6527.717005083,6532.888406417,6,NaN,6532.894212958,6532.912805917,6533.856142708,NaN,NaN
124,5,2,usability,0,bathroom,sun_apmqjbnwghzuhhzh.tif,156,1.5,0,0.783333333333333,6533.860415,6549.016417958,6,NaN,6549.022987917,6549.041289125,6549.817962208,NaN,NaN
124,6,2,usability,0,bathroom,sun_ajlawzvmubibwbpy.tif,140,1.5,0,1.13333333333333,6549.823356458,6553.120604792,5,NaN,6553.126095375,6553.144436333,6554.271152708,NaN,NaN
124,7,2,usability,0,bathroom,sun_akiytfaagpdsphgz.tif,141,1.5,0,1.63333333333333,6554.281328458,6557.568929625,6,NaN,6557.574396875,6557.592622,6559.21932525,NaN,NaN
124,8,2,usability,0,bathroom,sun_acduarbnmmoglmiv.tif,126,1.5,0,1.2,6559.228707667,6562.233777042,4,NaN,6562.258554917,6562.281859792,6563.47523875,NaN,NaN
124,9,2,usability,0,bathroom,sun_ahqjwnzgolcaoidx.tif,139,1.5,0,1.71666666666667,6563.485307708,6569.029084292,3,NaN,6569.035397125,6569.053672375,6570.763713917,NaN,NaN
124,10,2,usability,0,bathroom,sun_asfwthctfqerjvxr.tif,159,1.5,0,0.9,6570.781095583,6575.262518458,3,NaN,6575.279015792,6575.297379125,6576.190717958,NaN,NaN
124,11,2,usability,0,bathroom,sun_apjevzvycyhuqghb.tif,153,1.5,0,0.9,6576.195252083,6580.280356625,6,NaN,6580.286016667,6580.304299792,6581.197637792,NaN,NaN
124,12,2,usability,0,bathroom,sun_agguqiubmwhqqunb.tif,132,1.5,0,0.766666666666667,6581.202049708,6584.864917,5,NaN,6584.870273458,6584.888650958,6585.648654833,NaN,NaN
124,13,2,usability,0,bathroom,sun_acegryoqftbzowsg.tif,127,1.5,0,0.966666666666667,6585.653033875,6593.368350958,5,NaN,6593.3740425,6593.392298042,6594.352303792,NaN,NaN
124,14,2,usability,0,bathroom,sun_apkruvsevgegsdwp.tif,154,1.5,0,0.7,6594.356505833,6598.696604667,6,NaN,6598.702405958,6598.7208415,6599.414180875,NaN,NaN
124,15,2,usability,0,bathroom,sun_aunuadmjocsddsrl.tif,162,1.5,0,1.1,6599.418668042,6602.94436525,2,NaN,6602.950000375,6602.96831825,6604.061701917,NaN,NaN
124,16,2,usability,0,bathroom,sun_axyrejkiiaqiurjk.tif,169,1.5,0,1.33333333333333,6604.069738708,6607.57629425,4,NaN,6607.581841833,6607.600203708,6608.926914917,NaN,NaN
124,17,2,usability,0,bathroom,sun_ausgutylgojavyoq.tif,163,1.5,0,1.15,6608.944528042,6611.704225,3,NaN,6611.709960708,6611.728360917,6612.871729333,NaN,NaN
124,18,2,usability,0,bathroom,sun_aapitsgbtktqubfy.tif,122,1.5,0,1.28333333333333,6612.881134875,6622.976799167,4,NaN,6622.982188375,6623.000462417,6624.27718025,NaN,NaN
124,19,2,usability,0,bathroom,sun_agyqfjcfkdcydepw.tif,135,1.5,0,1.35,6624.295664458,6627.807828458,6,NaN,6627.813618542,6627.832021792,6629.175393708,NaN,NaN
124,20,2,usability,0,bathroom,sun_abapwbhyhkfixyex.tif,124,1.5,0,1.43333333333333,6629.193103042,6632.328814625,5,NaN,6632.34529725,6632.36346375,6633.790170708,NaN,NaN
124,21,2,usability,0,bathroom,sun_auzqhkafidnkrwmo.tif,164,1.5,0,0.916666666666667,6633.807460042,6636.984825708,5,NaN,6636.990210417,6637.008565667,6637.918571583,NaN,NaN
124,22,2,usability,0,bathroom,sun_anryaplzeujmzfkd.tif,149,1.5,0,0.766666666666667,6637.922991,6640.837827417,6,NaN,6640.86620675,6640.889484167,6641.649489083,NaN,NaN
124,23,2,usability,0,bathroom,sun_anhioqovhscjqqwb.tif,148,1.5,0,0.866666666666667,6641.654159917,6645.368832625,5,NaN,6645.374483,6645.39289175,6646.25289625,NaN,NaN
124,24,2,usability,0,bathroom,sun_axldvoqbuvuggfmq.tif,167,1.5,0,0.833333333333333,6646.257379375,6649.120620792,6,NaN,6649.149411667,6649.172346583,6649.9990165,NaN,NaN
124,25,2,usability,0,bathroom,sun_aspsyogrekjtfozg.tif,160,1.5,0,0.75,6650.004057625,6655.18405925,5,NaN,6655.189732833,6655.207957792,6655.951296583,NaN,NaN
