sub_num,trial,block,task,is_practice,category,image,texture,duration,mask_dur,jitter,stim_time,time_of_resp,trial_response,mask_time,fix_time,jit_onset,trial_end,trial_accuracy,RT
105,1,0,complexity,1,bathroom,bathroom_practice3.tif,223,1.5,0,1.56666666666667,16930.284842042,16933.951221583,2,NaN,16933.957604,16933.976174417,16935.536234792,NaN,NaN
105,2,0,complexity,1,bathroom,bathroom_practice5.tif,225,1.5,0,1.1,16935.555378125,16938.480380042,2,NaN,16938.486241625,16938.50478,16939.598203792,NaN,NaN
105,3,0,complexity,1,bathroom,bathroom_practice2.tif,222,1.5,0,1.51666666666667,16939.611412083,16942.599482083,3,NaN,16942.605718125,16942.623986208,16944.134053667,NaN,NaN
105,4,0,complexity,1,bathroom,bathroom_practice4.tif,224,1.5,0,1.15,16944.152109667,16947.607903708,2,NaN,16947.613655333,16947.632008708,16948.775420083,NaN,NaN
105,5,0,complexity,1,bathroom,bathroom_practice1.tif,221,1.5,0,1.26666666666667,16948.784006,16952.943296583,2,NaN,16952.949577208,16952.968010333,16954.228090792,NaN,NaN
105,1,1,complexity,0,bathroom,sun_abapwbhyhkfixyex.tif,124,1.5,0,0.75,16959.198102875,16963.887771417,2,NaN,16963.893594208,16963.912024208,16964.655364625,NaN,NaN
105,2,1,complexity,0,bathroom,sun_akiytfaagpdsphgz.tif,141,1.5,0,1.28333333333333,16964.659644625,16967.784354958,3,NaN,16967.791350167,16967.809655375,16969.08641275,NaN,NaN
105,3,1,complexity,0,bathroom,sun_axxbkopsgyouuebh.tif,168,1.5,0,1.76666666666667,16969.104778708,16972.279576958,2,NaN,16972.285524375,16972.303849917,16974.063927042,NaN,NaN
105,4,1,complexity,0,bathroom,sun_abjtwfukuwddzted.tif,125,1.5,0,1.28333333333333,16974.082411958,16977.936135583,3,NaN,16977.941997625,16977.960341958,16979.237100167,NaN,NaN
105,5,1,complexity,0,bathroom,sun_amzlamotzwfkwjco.tif,147,1.5,0,1.8,16979.254223625,16982.207437125,4,NaN,16982.213317375,16982.231835208,16984.025250875,NaN,NaN
105,6,1,complexity,0,bathroom,sun_aofnryafpsjimzsb.tif,150,1.5,0,0.716666666666667,16984.046403542,16987.263623708,4,NaN,16987.269382625,16987.287835625,16987.99784625,NaN,NaN
105,7,1,complexity,0,bathroom,sun_asfwthctfqerjvxr.tif,159,1.5,0,1,16988.002145,16991.815573417,3,NaN,16991.821353792,16991.839553458,16992.83289475,NaN,NaN
105,8,1,complexity,0,bathroom,sun_apjevzvycyhuqghb.tif,153,1.5,0,1.21666666666667,16992.837734083,16995.94417975,4,NaN,16995.951297125,16995.969879792,16997.179936542,NaN,NaN
105,9,1,complexity,0,bathroom,sun_aapitsgbtktqubfy.tif,122,1.5,0,1.55,16997.198279083,17000.279208583,3,NaN,17000.285414667,17000.303799917,17001.847216833,NaN,NaN
105,10,1,complexity,0,bathroom,sun_aclfzgynxzxlbepz.tif,129,1.5,0,2,17001.864610708,17004.736176583,3,NaN,17004.742313,17004.760558667,17006.753962375,NaN,NaN
105,11,1,complexity,0,bathroom,sun_aqrpegblszgcoujh.tif,158,1.5,0,0.716666666666667,17006.772656708,17009.991986292,5,NaN,17009.997793833,17010.016087083,17010.726094583,NaN,NaN
105,12,1,complexity,0,bathroom,sun_awnqiikzaispgmwo.tif,166,1.5,0,0.933333333333333,17010.730644542,17014.911082292,2,NaN,17014.91791675,17014.936674,17015.863350292,NaN,NaN
105,13,1,complexity,0,bathroom,sun_axyrejkiiaqiurjk.tif,169,1.5,0,1.58333333333333,17015.867956708,17019.022967,5,NaN,17019.029877292,17019.048312208,17020.625047958,NaN,NaN
105,14,1,complexity,0,bathroom,sun_aspsyogrekjtfozg.tif,160,1.5,0,0.9,17020.634193417,17023.695438292,6,NaN,17023.701249042,17023.719675083,17024.61301975,NaN,NaN
105,15,1,complexity,0,bathroom,sun_anryaplzeujmzfkd.tif,149,1.5,0,1.16666666666667,17024.617329792,17027.710899708,6,NaN,17027.720387833,17027.739382208,17028.899437958,NaN,NaN
105,16,1,complexity,0,bathroom,sun_ausgutylgojavyoq.tif,163,1.5,0,0.733333333333333,17028.910851875,17032.430914167,6,NaN,17032.437202875,17032.455538125,17033.182213583,NaN,NaN
105,17,1,complexity,0,bathroom,sun_ahijqszoswveeyji.tif,138,1.5,0,1.15,17033.186614167,17035.960429125,6,NaN,17035.991577125,17036.014936625,17037.158371958,NaN,NaN
105,18,1,complexity,0,bathroom,sun_acgyywnybuveqsro.tif,128,1.5,0,1.01666666666667,17037.166780083,17040.663842417,7,NaN,17040.66979925,17040.688193958,17041.698246375,NaN,NaN
105,19,1,complexity,0,bathroom,sun_aggnnqpdorgxpvce.tif,131,1.5,0,0.883333333333333,17041.710700083,17045.223037833,7,NaN,17045.229195167,17045.247689083,17046.124362625,NaN,NaN
105,20,1,complexity,0,bathroom,sun_avhrdrntsqrjzccq.tif,165,1.5,0,1.65,17046.128831375,17049.614839333,7,NaN,17049.621085167,17049.639403208,17051.282793375,NaN,NaN
105,21,1,complexity,0,bathroom,sun_aghyqhbptboemmoq.tif,133,1.5,0,0.75,17051.301144375,17054.802712375,2,NaN,17054.828584375,17054.848808292,17055.592152667,NaN,NaN
105,22,1,complexity,0,bathroom,sun_acegryoqftbzowsg.tif,127,1.5,0,1.28333333333333,17055.596666792,17058.494724667,4,NaN,17058.521682125,17058.545445708,17059.822170333,NaN,NaN
105,23,1,complexity,0,bathroom,sun_ambriybtogmepttm.tif,146,1.5,0,1.25,17059.840257167,17063.42280225,4,NaN,17063.429053208,17063.447397875,17064.690792125,NaN,NaN
105,24,1,complexity,0,bathroom,sun_agrwbmhcpmfuwmsg.tif,134,1.5,0,0.833333333333333,17064.701708708,17067.6795875,3,NaN,17067.685351208,17067.703682,17068.53035975,NaN,NaN
105,25,1,complexity,0,bathroom,sun_acduarbnmmoglmiv.tif,126,1.5,0,1.05,17068.534818667,17071.751094875,2,NaN,17071.758119333,17071.776295417,17072.819700542,NaN,NaN
105,1,2,complexity,0,bathroom,sun_apkxzenqapsujocq.tif,155,1.5,0,0.95,17077.884179375,17081.254987333,2,NaN,17081.26081625,17081.279111208,17082.222454,NaN,NaN
105,2,2,complexity,0,bathroom,sun_afcoljnjfoxjtgja.tif,130,1.5,0,1.55,17082.227041208,17085.075134333,5,NaN,17085.104963375,17085.12868725,17086.672087792,NaN,NaN
105,3,2,complexity,0,bathroom,sun_agyqfjcfkdcydepw.tif,135,1.5,0,1.2,17086.682625583,17089.398841042,6,NaN,17089.404907333,17089.423272042,17090.616664542,NaN,NaN
105,4,2,complexity,0,bathroom,sun_apkruvsevgegsdwp.tif,154,1.5,0,1.86666666666667,17090.627538083,17094.239638917,2,NaN,17094.2454925,17094.263895375,17096.123995667,NaN,NaN
105,5,2,complexity,0,bathroom,sun_alotolagknyrgtsk.tif,145,1.5,0,1.66666666666667,17096.145755458,17099.314942042,4,NaN,17099.345193833,17099.36882125,17101.028895292,NaN,NaN
105,6,2,complexity,0,bathroom,sun_axldvoqbuvuggfmq.tif,167,1.5,0,1.35,17101.047202458,17103.831384,2,NaN,17103.862318125,17103.885841917,17105.229254625,NaN,NaN
105,7,2,complexity,0,bathroom,sun_aoybiabnpadelefl.tif,151,1.5,0,1.11666666666667,17105.244834583,17108.055002875,6,NaN,17108.061006917,17108.079312042,17109.189412792,NaN,NaN
105,8,2,complexity,0,bathroom,sun_apmqjbnwghzuhhzh.tif,156,1.5,0,0.95,17109.198096958,17112.174980042,1,NaN,17112.180913875,17112.199128375,17113.142472375,NaN,NaN
105,9,2,complexity,0,bathroom,sun_aleqenyvunhactkl.tif,142,1.5,0,1.03333333333333,17113.146937125,17116.083066833,1,NaN,17116.1128255,17116.139687917,17117.166459542,NaN,NaN
105,10,2,complexity,0,bathroom,sun_aunuadmjocsddsrl.tif,162,1.5,0,1.01666666666667,17117.178220958,17120.710900333,1,NaN,17120.716914125,17120.735309292,17121.745404167,NaN,NaN
105,11,2,complexity,0,bathroom,sun_agguqiubmwhqqunb.tif,132,1.5,0,1.81666666666667,17121.754057917,17125.10249675,2,NaN,17125.108763083,17125.127079375,17126.93715075,NaN,NaN
105,12,2,complexity,0,bathroom,sun_alkosphxlxwjwgjd.tif,144,1.5,0,1.8,17126.954293417,17130.280617875,2,NaN,17130.309303708,17130.329034167,17132.122430667,NaN,NaN
105,13,2,complexity,0,bathroom,sun_atstyziqcmkahyxk.tif,161,1.5,0,1.26666666666667,17132.1408105,17134.918357667,1,NaN,17134.949461583,17134.973311792,17136.233414875,NaN,NaN
105,14,2,complexity,0,bathroom,sun_azqyogdvyhahyram.tif,170,1.5,0,1.66666666666667,17136.252778708,17139.463138875,1,NaN,17139.469020208,17139.487404667,17141.147506958,NaN,NaN
105,15,2,complexity,0,bathroom,sun_aljolscmmzydegqp.tif,143,1.5,0,1.93333333333333,17141.162763875,17144.150632167,2,NaN,17144.181238042,17144.204612792,17146.131351833,NaN,NaN
105,16,2,complexity,0,bathroom,sun_ahcvzmoyaycdoftf.tif,137,1.5,0,1.75,17146.149761917,17149.417001042,3,NaN,17149.434050958,17149.453879958,17151.197300917,NaN,NaN
105,17,2,complexity,0,bathroom,sun_aavhrsfjbserjtht.tif,123,1.5,0,0.766666666666667,17151.21555225,17154.520163792,5,NaN,17154.550706042,17154.572257333,17155.332265833,NaN,NaN
105,18,2,complexity,0,bathroom,sun_ajlawzvmubibwbpy.tif,140,1.5,0,1.43333333333333,17155.336777875,17158.686733958,4,NaN,17158.692874167,17158.711202125,17160.137936208,NaN,NaN
105,19,2,complexity,0,bathroom,sun_ahqjwnzgolcaoidx.tif,139,1.5,0,0.916666666666667,17160.1584245,17163.718854,3,NaN,17163.724774208,17163.743153333,17164.653163958,NaN,NaN
105,20,2,complexity,0,bathroom,labelme_sfxiulhjbhlyiyt.tif,121,1.5,0,0.766666666666667,17164.658231958,17168.311270792,3,NaN,17168.317142417,17168.335529792,17169.09554,NaN,NaN
105,21,2,complexity,0,bathroom,sun_apynckhmoftszqoq.tif,157,1.5,0,0.783333333333333,17169.099896792,17172.050260625,2,NaN,17172.080913125,17172.104368167,17172.881043542,NaN,NaN
105,22,2,complexity,0,bathroom,sun_anhioqovhscjqqwb.tif,148,1.5,0,1.31666666666667,17172.885871708,17176.334530458,3,NaN,17176.340592417,17176.35866425,17177.668766042,NaN,NaN
105,23,2,complexity,0,bathroom,sun_auzqhkafidnkrwmo.tif,164,1.5,0,1.1,17177.686432417,17180.4784645,5,NaN,17180.484754083,17180.50318425,17181.596592542,NaN,NaN
105,24,2,complexity,0,bathroom,sun_ahaulkltgpkeeemi.tif,136,1.5,0,1.26666666666667,17181.604958833,17184.526789417,1,NaN,17184.53261475,17184.550938,17185.811013208,NaN,NaN
105,25,2,complexity,0,bathroom,sun_apeeialkgkuxddgh.tif,152,1.5,0,0.933333333333333,17185.829500208,17188.511186208,2,NaN,17188.516958625,17188.535316125,17189.461991,NaN,NaN
