sub_num,trial,block,task,is_practice,category,image,texture,duration,mask_dur,jitter,stim_time,time_of_resp,trial_response,mask_time,fix_time,jit_onset,trial_end,trial_accuracy,RT
132,1,0,usability,1,bathroom,bathroom_practice3.tif,223,1.5,0,0.983333333333333,7913.003251416,7919.060645625,6,NaN,7919.06649675,7919.0848505,7920.061523,NaN,NaN
132,2,0,usability,1,bathroom,bathroom_practice4.tif,224,1.5,0,1.78333333333333,7920.066217291,7925.013502833,5,NaN,7925.019048708,7925.037431291,7926.814146708,NaN,NaN
132,3,0,usability,1,bathroom,bathroom_practice5.tif,225,1.5,0,1.78333333333333,7926.829820041,7933.740851458,4,NaN,7933.7464445,7933.764834791,7935.541546666,NaN,NaN
132,4,0,usability,1,bathroom,bathroom_practice2.tif,222,1.5,0,1.26666666666667,7935.555159875,7940.989394375,3,NaN,7940.994863625,7941.013201083,7942.273258166,NaN,NaN
132,5,0,usability,1,bathroom,bathroom_practice1.tif,221,1.5,0,1.05,7942.293224333,7945.197163166,7,NaN,7945.202667375,7945.220925708,7946.264299791,NaN,NaN
132,1,1,usability,0,bathroom,sun_apynckhmoftszqoq.tif,157,1.5,0,1.01666666666667,7951.281541791,7955.637311,5,NaN,7955.642764375,7955.661127541,7956.671175666,NaN,NaN
132,2,1,usability,0,bathroom,sun_avhrdrntsqrjzccq.tif,165,1.5,0,1.61666666666667,7956.679508541,7962.213135625,1,NaN,7962.218645625,7962.236995291,7963.847030166,NaN,NaN
132,3,1,usability,0,bathroom,sun_apkxzenqapsujocq.tif,155,1.5,0,1.16666666666667,7963.863637458,7967.597460958,6,NaN,7967.603196083,7967.621539291,7968.781576333,NaN,NaN
132,4,1,usability,0,bathroom,sun_aoybiabnpadelefl.tif,151,1.5,0,0.983333333333333,7968.7913335,7971.860517125,4,NaN,7971.866301791,7971.884624708,7972.861294916,NaN,NaN
132,5,1,usability,0,bathroom,sun_aggnnqpdorgxpvce.tif,131,1.5,0,0.783333333333333,7972.865890833,7976.020815625,3,NaN,7976.027718625,7976.046116333,7976.822787875,NaN,NaN
132,6,1,usability,0,bathroom,sun_ambriybtogmepttm.tif,146,1.5,0,0.816666666666667,7976.827344208,7980.909391916,3,NaN,7980.914746541,7980.932998791,7981.743002,NaN,NaN
132,7,1,usability,0,bathroom,sun_agrwbmhcpmfuwmsg.tif,134,1.5,0,1.1,7981.747722666,7992.373238041,7,NaN,7992.378646166,7992.396971375,7993.490348416,NaN,NaN
132,8,1,usability,0,bathroom,sun_amzlamotzwfkwjco.tif,147,1.5,0,1.65,7993.499105625,8002.292776541,4,NaN,8002.29819825,8002.31639575,8003.95976575,NaN,NaN
132,9,1,usability,0,bathroom,sun_afcoljnjfoxjtgja.tif,130,1.5,0,1.13333333333333,8003.978506125,8008.997141291,3,NaN,8009.002499833,8009.02091575,8010.147619333,NaN,NaN
132,10,1,usability,0,bathroom,sun_aofnryafpsjimzsb.tif,150,1.5,0,0.766666666666667,8010.157785625,8015.0363645,2,NaN,8015.042107916,8015.060484333,8015.82048975,NaN,NaN
132,11,1,usability,0,bathroom,sun_apeeialkgkuxddgh.tif,152,1.5,0,1.25,8015.824951,8018.932447583,7,NaN,8018.940114458,8018.958453166,8020.201832125,NaN,NaN
132,12,1,usability,0,bathroom,sun_aavhrsfjbserjtht.tif,123,1.5,0,1.5,8020.219693875,8025.253153041,2,NaN,8025.25883825,8025.277225916,8026.770599291,NaN,NaN
132,13,1,usability,0,bathroom,labelme_sfxiulhjbhlyiyt.tif,121,1.5,0,1.56666666666667,8026.7887195,8030.716268583,7,NaN,8030.722100291,8030.740455458,8032.300490583,NaN,NaN
132,14,1,usability,0,bathroom,sun_alkosphxlxwjwgjd.tif,144,1.5,0,1.45,8032.318959125,8035.668910458,7,NaN,8035.674415375,8035.692718166,8037.136087666,NaN,NaN
132,15,1,usability,0,bathroom,sun_atstyziqcmkahyxk.tif,161,1.5,0,1.53333333333333,8037.146320791,8040.820726291,7,NaN,8040.826142041,8040.8445165,8042.371236875,NaN,NaN
132,16,1,usability,0,bathroom,sun_aleqenyvunhactkl.tif,142,1.5,0,0.8,8042.38951,8045.972774958,5,NaN,8045.978270416,8045.996639333,8046.789975875,NaN,NaN
132,17,1,usability,0,bathroom,sun_ahaulkltgpkeeemi.tif,136,1.5,0,0.933333333333333,8046.794470666,8054.269152958,7,NaN,8054.274529208,8054.29290575,8055.219577,NaN,NaN
132,18,1,usability,0,bathroom,sun_aljolscmmzydegqp.tif,143,1.5,0,1.75,8055.223869541,8058.317109541,5,NaN,8058.327817666,8058.346951041,8060.090317125,NaN,NaN
132,19,1,usability,0,bathroom,sun_ahijqszoswveeyji.tif,138,1.5,0,1.48333333333333,8060.109220958,8063.579934708,2,NaN,8063.594041916,8063.613466458,8065.09017475,NaN,NaN
132,20,1,usability,0,bathroom,sun_aclfzgynxzxlbepz.tif,129,1.5,0,1.03333333333333,8065.103544791,8068.06022875,7,NaN,8068.065882208,8068.084182916,8069.110884166,NaN,NaN
132,21,1,usability,0,bathroom,sun_alotolagknyrgtsk.tif,145,1.5,0,1.23333333333333,8069.118621375,8071.884488333,2,NaN,8071.89010975,8071.908420875,8073.13511675,NaN,NaN
132,22,1,usability,0,bathroom,sun_axxbkopsgyouuebh.tif,168,1.5,0,1.28333333333333,8073.145614208,8076.220959416,6,NaN,8076.226386375,8076.244686041,8077.521383583,NaN,NaN
132,23,1,usability,0,bathroom,sun_ahcvzmoyaycdoftf.tif,137,1.5,0,1.66666666666667,8077.540387458,8080.500905125,7,NaN,8080.506391625,8080.524674791,8082.184711791,NaN,NaN
132,24,1,usability,0,bathroom,sun_aghyqhbptboemmoq.tif,133,1.5,0,1.26666666666667,8082.2025005,8086.796177291,5,NaN,8086.802030708,8086.8203615,8088.080403,NaN,NaN
132,25,1,usability,0,bathroom,sun_awnqiikzaispgmwo.tif,166,1.5,0,1.4,8088.098876,8092.740063916,7,NaN,8092.746175166,8092.764543666,8094.157916166,NaN,NaN
132,1,2,usability,0,bathroom,sun_abjtwfukuwddzted.tif,125,1.5,0,1.66666666666667,8100.64198525,8104.564807541,7,NaN,8104.570173208,8104.588580416,8106.248617875,NaN,NaN
132,2,2,usability,0,bathroom,sun_aqrpegblszgcoujh.tif,158,1.5,0,1.85,8106.268558666,8112.875911958,6,NaN,8112.882409,8112.900736333,8114.744111125,NaN,NaN
132,3,2,usability,0,bathroom,sun_acgyywnybuveqsro.tif,128,1.5,0,1.65,8114.759980291,8118.452448791,7,NaN,8118.458820541,8118.47722975,8120.120606458,NaN,NaN
132,4,2,usability,0,bathroom,sun_azqyogdvyhahyram.tif,170,1.5,0,0.95,8120.139618875,8122.961903958,5,NaN,8122.991258333,8123.014376583,8123.957713833,NaN,NaN
132,5,2,usability,0,bathroom,sun_apmqjbnwghzuhhzh.tif,156,1.5,0,0.783333333333333,8123.962260666,8127.108294125,7,NaN,8127.118730583,8127.137803791,8127.9144745,NaN,NaN
132,6,2,usability,0,bathroom,sun_ajlawzvmubibwbpy.tif,140,1.5,0,1.13333333333333,8127.91890675,8133.7798515,5,NaN,8133.785696333,8133.804086291,8134.930806666,NaN,NaN
132,7,2,usability,0,bathroom,sun_akiytfaagpdsphgz.tif,141,1.5,0,1.63333333333333,8134.938780416,8138.412018583,7,NaN,8138.417632458,8138.435867583,8140.062577,NaN,NaN
132,8,2,usability,0,bathroom,sun_acduarbnmmoglmiv.tif,126,1.5,0,1.2,8140.078242125,8143.212158541,2,NaN,8143.21765725,8143.235832166,8144.42919275,NaN,NaN
132,9,2,usability,0,bathroom,sun_ahqjwnzgolcaoidx.tif,139,1.5,0,1.71666666666667,8144.442809875,8148.620462125,1,NaN,8148.625902041,8148.644263166,8150.354298416,NaN,NaN
132,10,2,usability,0,bathroom,sun_asfwthctfqerjvxr.tif,159,1.5,0,0.9,8150.373053375,8154.452000875,4,NaN,8154.457904083,8154.47623275,8155.369570958,NaN,NaN
132,11,2,usability,0,bathroom,sun_apjevzvycyhuqghb.tif,153,1.5,0,0.9,8155.373823125,8161.444074041,2,NaN,8161.449660125,8161.467996291,8162.361333958,NaN,NaN
132,12,2,usability,0,bathroom,sun_agguqiubmwhqqunb.tif,132,1.5,0,0.766666666666667,8162.365682666,8166.4917465,1,NaN,8166.497586291,8166.51593425,8167.275938125,NaN,NaN
132,13,2,usability,0,bathroom,sun_acegryoqftbzowsg.tif,127,1.5,0,0.966666666666667,8167.280563625,8170.772115,4,NaN,8170.777562125,8170.795972833,8171.755976083,NaN,NaN
132,14,2,usability,0,bathroom,sun_apkruvsevgegsdwp.tif,154,1.5,0,0.7,8171.7606045,8178.020055125,4,NaN,8178.026101666,8178.044493416,8178.737830416,NaN,NaN
132,15,2,usability,0,bathroom,sun_aunuadmjocsddsrl.tif,162,1.5,0,1.1,8178.742619375,8182.484055083,3,NaN,8182.489669583,8182.507857791,8183.601231958,NaN,NaN
132,16,2,usability,0,bathroom,sun_axyrejkiiaqiurjk.tif,169,1.5,0,1.33333333333333,8183.610935916,8189.651964875,2,NaN,8189.657762375,8189.676030708,8191.002738791,NaN,NaN
132,17,2,usability,0,bathroom,sun_ausgutylgojavyoq.tif,163,1.5,0,1.15,8191.020940125,8194.724599833,6,NaN,8194.730028875,8194.748374166,8195.891750208,NaN,NaN
132,18,2,usability,0,bathroom,sun_aapitsgbtktqubfy.tif,122,1.5,0,1.28333333333333,8195.902005208,8199.17193575,7,NaN,8199.177710583,8199.195976458,8200.472683416,NaN,NaN
132,19,2,usability,0,bathroom,sun_agyqfjcfkdcydepw.tif,135,1.5,0,1.35,8200.492081416,8204.828462583,1,NaN,8204.834003,8204.852336708,8206.1957175,NaN,NaN
132,20,2,usability,0,bathroom,sun_abapwbhyhkfixyex.tif,124,1.5,0,1.43333333333333,8206.214673791,8208.964284625,1,NaN,8208.969648,8208.9881085,8210.414808958,NaN,NaN
132,21,2,usability,0,bathroom,sun_auzqhkafidnkrwmo.tif,164,1.5,0,0.916666666666667,8210.433630541,8214.331949291,2,NaN,8214.33766975,8214.3562895,8215.266294291,NaN,NaN
132,22,2,usability,0,bathroom,sun_anryaplzeujmzfkd.tif,149,1.5,0,0.766666666666667,8215.270967125,8218.724203833,5,NaN,8218.729477291,8218.747822208,8219.507826958,NaN,NaN
132,23,2,usability,0,bathroom,sun_anhioqovhscjqqwb.tif,148,1.5,0,0.866666666666667,8219.512364208,8223.70754775,6,NaN,8223.71337325,8223.73160025,8224.591606083,NaN,NaN
132,24,2,usability,0,bathroom,sun_axldvoqbuvuggfmq.tif,167,1.5,0,0.833333333333333,8224.595910166,8227.467630833,7,NaN,8227.497086333,8227.520413541,8228.347084958,NaN,NaN
132,25,2,usability,0,bathroom,sun_aspsyogrekjtfozg.tif,160,1.5,0,0.75,8228.351794958,8233.56344025,4,NaN,8233.569292625,8233.587981875,8234.331318958,NaN,NaN
