sub_num,trial,block,task,is_practice,category,image,texture,duration,blank,mask_dur,jitter,stim_time,time_of_resp,trial_response,blank_time,mask_time,fix_time,jit_onset,trial_end,trial_accuracy,RT
102,1,0,categorization,1,bathroom,SHINEd_bathroom_practice1.tif,111,0.0333333333333333,0.0333333333333333,0.0333333333333333,1.56666666666667,351772.241971,351773.0929541,70,351772.277615,351772.3123958,351772.3447041,351773.1034708,351774.6685716,1,0.850983100011945
102,2,0,categorization,1,bathroom,SHINEd_bathroom_practice2.tif,112,0.0333333333333333,0.0333333333333333,0.0333333333333333,1.26666666666667,351774.6771321,351775.364537,74,351774.7128591,351774.7468264,351774.7794316,351775.3705716,351776.635575,0,0.687404900032561
102,3,0,categorization,1,bathroom,SHINEd_bathroom_practice3.tif,113,0.0333333333333333,0.0333333333333333,0.0333333333333333,1.08333333333333,351776.6432461,351777.6840715,70,351776.6790108,351776.7128945,351776.7456241,351777.6901635,351778.7718339,1,1.04082540003583
102,4,0,categorization,1,bathroom,SHINEd_bathroom_practice4.tif,114,0.0333333333333333,0.0333333333333333,0.0333333333333333,0.916666666666667,351778.7765043,351779.4286106,70,351778.8121045,351778.8457104,351778.8786272,351779.4334934,351780.3484977,1,0.652106299996376
102,5,0,categorization,1,bathroom,SHINEd_bathroom_practice5.tif,115,0.0333333333333333,0.0333333333333333,0.0333333333333333,0.716666666666667,351780.3529998,351781.2452722,70,351780.3895113,351780.4230831,351780.455448,351781.2498945,351781.9648985,1,0.892272399971262
102,6,0,categorization,1,kitchen,SHINEd_kitchen_practice1.tif,116,0.0333333333333333,0.0333333333333333,0.0333333333333333,0.783333333333333,351781.9692904,351782.7405443,74,351782.0054581,351782.0394991,351782.0724739,351782.7452187,351783.5268906,1,0.771253900020383
102,7,0,categorization,1,kitchen,SHINEd_kitchen_practice2.tif,117,0.0333333333333333,0.0333333333333333,0.0333333333333333,1.33333333333333,351783.5319968,351784.2606204,74,351783.56754,351783.6017798,351783.6342294,351784.265033,351785.5967038,1,0.728623600036371
102,8,0,categorization,1,kitchen,SHINEd_kitchen_practice3.tif,118,0.0333333333333333,0.0333333333333333,0.0333333333333333,0.716666666666667,351785.6015023,351786.4286325,74,351785.6369499,351785.6708547,351785.7036341,351786.4335575,351787.1485619,1,0.827130199992098
102,9,0,categorization,1,kitchen,SHINEd_kitchen_practice4.tif,119,0.0333333333333333,0.0333333333333333,0.0333333333333333,1.7,351787.1551807,351788.4293777,74,351787.1908053,351787.2247754,351787.2577269,351788.4337829,351790.132121,1,1.27419700002065
102,10,0,categorization,1,kitchen,SHINEd_kitchen_practice5.tif,120,0.0333333333333333,0.0333333333333333,0.0333333333333333,1.96666666666667,351790.1364971,351791.3005932,70,351790.1723035,351790.2060469,351790.2390044,351791.3063343,351793.2713394,0,1.16409610002302
102,1,1,categorization,0,kitchen,SHINEd_sun_aeqbewejiovwrhhc.tif,80,0.0333333333333333,0.0333333333333333,0.0333333333333333,1.01666666666667,351797.2686907,351798.1004529,74,351797.304,351797.3388225,351797.37085,351798.1051153,351799.1201197,1,0.831762199988589
102,2,1,categorization,0,bathroom,SHINEd_sun_aghyqhbptboemmoq.tif,25,0.0333333333333333,0.0333333333333333,0.0333333333333333,1.53333333333333,351799.1247193,351799.8127448,70,351799.1602843,351799.1937368,351799.2264987,351799.8165556,351801.3482271,1,0.688025499985088
102,3,1,categorization,0,bathroom,SHINEd_sun_aoybiabnpadelefl.tif,43,0.0333333333333333,0.0333333333333333,0.0333333333333333,1.55,351801.352688,351802.5173951,70,351801.3891374,351801.4222039,351801.4547423,351802.5227093,351804.071046,1,1.16470709996065
102,4,1,categorization,0,bathroom,SHINEd_sun_abjtwfukuwddzted.tif,17,0.0333333333333333,0.0333333333333333,0.0333333333333333,1.13333333333333,351804.0755443,351805.5405824,70,351804.1111067,351804.1447064,351804.177898,351805.5451729,351806.6768432,1,1.46503809996648
102,5,1,categorization,0,kitchen,SHINEd_sun_abdxkyyxwfskuaqb.tif,68,0.0333333333333333,0.0333333333333333,0.0333333333333333,1.16666666666667,351806.6813435,351807.4603864,74,351806.7167919,351806.7504203,351806.7833967,351807.4645195,351808.6295236,1,0.779042900016066
102,6,1,categorization,0,bathroom,SHINEd_sun_ahcvzmoyaycdoftf.tif,28,0.0333333333333333,0.0333333333333333,0.0333333333333333,1.91666666666667,351808.63408,351810.0534742,70,351808.6692761,351808.7031515,351808.7360074,351810.0575018,351811.9725075,1,1.41939420002745
102,7,1,categorization,0,bathroom,SHINEd_sun_acsgbuurtwghzjel.tif,21,0.0333333333333333,0.0333333333333333,0.0333333333333333,0.75,351811.9770616,351812.7164711,70,351812.0131287,351812.0465807,351812.0803318,351812.7215071,351813.4698443,1,0.739409499976318
102,8,1,categorization,0,bathroom,SHINEd_sun_aamrfepkhweyewue.tif,13,0.0333333333333333,0.0333333333333333,0.0333333333333333,1.46666666666667,351813.4743208,351814.4853065,70,351813.5098838,351813.5436446,351813.5762402,351814.4896664,351815.954671,1,1.01098570000613
102,9,1,categorization,0,bathroom,SHINEd_sun_aspsyogrekjtfozg.tif,50,0.0333333333333333,0.0333333333333333,0.0333333333333333,1.76666666666667,351815.9590468,351816.8045138,70,351815.9945393,351816.0284548,351816.0611519,351816.8092103,351818.5742151,1,0.845467000035569
102,10,1,categorization,0,kitchen,SHINEd_sun_aiffeoqzngslhzfi.tif,93,0.0333333333333333,0.0333333333333333,0.0333333333333333,0.966666666666667,351818.5791953,351819.2537637,74,351818.6154916,351818.6486415,351818.6812861,351819.2576252,351820.2226303,1,0.67456840001978
102,11,1,categorization,0,bathroom,SHINEd_sun_akbyysnpwewzraii.tif,32,0.0333333333333333,0.0333333333333333,0.0333333333333333,0.866666666666667,351820.2272224,351820.9885091,70,351820.2626866,351820.2965895,351820.3294164,351820.9928557,351821.8578588,1,0.761286699969787
102,12,1,categorization,0,kitchen,SHINEd_sun_agubuxuukhzyzpdp.tif,86,0.0333333333333333,0.0333333333333333,0.0333333333333333,1.26666666666667,351821.8624493,351822.7172932,70,351821.8979809,351821.9317624,351821.9644941,351822.7223264,351823.98733,0,0.854843900015112
102,13,1,categorization,0,kitchen,SHINEd_sun_aglwoufpxbtxqecp.tif,84,0.0333333333333333,0.0333333333333333,0.0333333333333333,1.03333333333333,351823.9918859,351824.7165596,74,351824.027372,351824.0613225,351824.094144,351824.7220614,351825.7537334,1,0.724673700053245
102,14,1,categorization,0,bathroom,SHINEd_sun_akbyysnpwewzraii.tif,32,0.0333333333333333,0.0333333333333333,0.0333333333333333,1.11666666666667,351825.7582595,351826.4841824,70,351825.7937023,351825.8275981,351825.8603514,351826.4904813,351827.6054843,1,0.725922899961006
102,15,1,categorization,0,bathroom,SHINEd_sun_ambriybtogmepttm.tif,36,0.0333333333333333,0.0333333333333333,0.0333333333333333,1.11666666666667,351827.6099387,351828.4525924,70,351827.6464538,351827.6794593,351827.7122959,351828.4573307,351829.5723353,1,0.842653700034134
102,16,1,categorization,0,kitchen,SHINEd_sun_aexklacwqwezaorf.tif,81,0.0333333333333333,0.0333333333333333,0.0333333333333333,0.733333333333333,351829.5769773,351830.3725012,74,351829.6123565,351829.6475792,351829.6792519,351830.3770293,351831.1086996,1,0.795523900014814
102,17,1,categorization,0,bathroom,SHINEd_sun_apynckhmoftszqoq.tif,46,0.0333333333333333,0.0333333333333333,0.0333333333333333,1.26666666666667,351831.1133128,351831.8605104,70,351831.1507108,351831.1834536,351831.2153117,351831.8654555,351833.1304607,1,0.747197599965148
102,18,1,categorization,0,kitchen,SHINEd_labelme_rykdqxenmhulbdn.tif,61,0.0333333333333333,0.0333333333333333,0.0333333333333333,1.08333333333333,351833.1350275,351834.1326016,74,351833.1705117,351833.2044714,351833.2374234,351834.1387495,351835.2204208,1,0.997574100038037
102,19,1,categorization,0,kitchen,SHINEd_sun_axyyrmzcupyhlivc.tif,109,0.0333333333333333,0.0333333333333333,0.0333333333333333,1.38333333333333,351835.224924,351836.1005103,74,351835.260358,351835.2941424,351835.3268772,351836.1058069,351837.4874779,1,0.875586300040595
102,20,1,categorization,0,bathroom,SHINEd_sun_ambriybtogmepttm.tif,36,0.0333333333333333,0.0333333333333333,0.0333333333333333,1.46666666666667,351837.4923437,351838.5085808,70,351837.5298036,351837.5617985,351837.5944842,351838.513067,351839.9780725,1,1.01623709994601
102,21,1,categorization,0,bathroom,SHINEd_sun_aclfzgynxzxlbepz.tif,20,0.0333333333333333,0.0333333333333333,0.0333333333333333,1.3,351839.982629,351840.8129498,70,351840.0182228,351840.0521211,351840.0846448,351840.8172205,351842.1155582,1,0.830320800014306
102,22,1,categorization,0,bathroom,SHINEd_sun_anlddfvefwvocyae.tif,40,0.0333333333333333,0.0333333333333333,0.0333333333333333,0.883333333333333,351842.1202182,351842.8530888,70,351842.1555537,351842.1898244,351842.2223704,351842.8569137,351843.738585,1,0.732870599953458
102,23,1,categorization,0,kitchen,SHINEd_labelme_rykdqxenmhulbdn.tif,61,0.0333333333333333,0.0333333333333333,0.0333333333333333,0.8,351843.7431957,351844.6600022,70,351843.7787852,351843.8126457,351843.8454435,351844.666439,351845.4647772,0,0.91680649999762
102,24,1,categorization,0,bathroom,SHINEd_sun_avhrdrntsqrjzccq.tif,55,0.0333333333333333,0.0333333333333333,0.0333333333333333,0.75,351845.4692681,351846.3094012,70,351845.5063579,351845.5407726,351845.5721752,351846.3136232,351847.0619597,1,0.840133099991363
102,25,1,categorization,0,bathroom,SHINEd_sun_adbqksnwuqqwdpxc.tif,22,0.0333333333333333,0.0333333333333333,0.0333333333333333,1.63333333333333,351847.0665906,351847.8045632,70,351847.1019478,351847.1359684,351847.1687505,351847.8091148,351849.4407848,1,0.737972599978093
102,26,1,categorization,0,bathroom,SHINEd_sun_ahcvzmoyaycdoftf.tif,28,0.0333333333333333,0.0333333333333333,0.0333333333333333,0.85,351849.4472285,351850.0372895,70,351849.4830119,351849.5164199,351849.549213,351850.0413664,351850.8897029,1,0.590061000024434
102,27,1,categorization,0,bathroom,SHINEd_sun_aoybiabnpadelefl.tif,43,0.0333333333333333,0.0333333333333333,0.0333333333333333,1.71666666666667,351850.8942176,351851.6621986,70,351850.929813,351850.9635757,351850.9965506,351851.6661548,351853.3811585,1,0.767981000011787
102,28,1,categorization,0,bathroom,SHINEd_sun_aiskgiwswewisvph.tif,30,0.0333333333333333,0.0333333333333333,0.0333333333333333,0.95,351853.3857095,351854.309082,70,351853.4223896,351853.4566075,351853.4904884,351854.3133147,351855.2616537,1,0.923372499994002
102,29,1,categorization,0,bathroom,SHINEd_sun_avhrdrntsqrjzccq.tif,55,0.0333333333333333,0.0333333333333333,0.0333333333333333,0.733333333333333,351855.2662821,351855.8369163,74,351855.3019792,351855.3371758,351855.3684135,351855.8412067,351856.572877,0,0.570634200004861
102,30,1,categorization,0,bathroom,SHINEd_sun_anhioqovhscjqqwb.tif,39,0.0333333333333333,0.0333333333333333,0.0333333333333333,1.61666666666667,351856.5775656,351857.3005887,70,351856.6149603,351856.6473605,351856.6799076,351857.3063406,351858.9213449,1,0.723023099999409
102,31,1,categorization,0,bathroom,SHINEd_sun_auzqhkafidnkrwmo.tif,54,0.0333333333333333,0.0333333333333333,0.0333333333333333,1.9,351858.9255428,351859.8051661,70,351858.9612414,351858.9952267,351859.0288786,351859.8095831,351861.7079202,1,0.879623299988452
102,32,1,categorization,0,bathroom,SHINEd_sun_azqyogdvyhahyram.tif,60,0.0333333333333333,0.0333333333333333,0.0333333333333333,1.86666666666667,351861.712638,351862.3729511,70,351861.7494216,351861.7836249,351861.8165492,351862.3771348,351864.2421378,1,0.660313099971972
102,33,1,categorization,0,bathroom,SHINEd_sun_anlddfvefwvocyae.tif,40,0.0333333333333333,0.0333333333333333,0.0333333333333333,1.6,351864.2466479,351864.869551,70,351864.2821701,351864.31605,351864.3488883,351864.8740035,351866.4723407,1,0.622903099982068
102,34,1,categorization,0,kitchen,SHINEd_sun_amjjdeyrggfqgmom.tif,99,0.0333333333333333,0.0333333333333333,0.0333333333333333,1.11666666666667,351866.4767068,351867.1004757,74,351866.5121831,351866.5461037,351866.5788698,351867.1058749,351868.22088,1,0.623768899997231
102,35,1,categorization,0,kitchen,SHINEd_sun_aapllqyqlykszopd.tif,65,0.0333333333333333,0.0333333333333333,0.0333333333333333,0.933333333333333,351868.2251288,351868.8604747,74,351868.2606306,351868.2946488,351868.3272447,351868.86534,351869.7970105,1,0.635345899965614
102,36,1,categorization,0,kitchen,SHINEd_sun_aeqbewejiovwrhhc.tif,80,0.0333333333333333,0.0333333333333333,0.0333333333333333,1.48333333333333,351869.8016095,351870.4291002,74,351869.8368425,351869.8709142,351869.9038076,351870.4330637,351871.9147341,1,0.627490699989721
102,37,1,categorization,0,bathroom,SHINEd_sun_asfwthctfqerjvxr.tif,49,0.0333333333333333,0.0333333333333333,0.0333333333333333,1.58333333333333,351871.9193919,351872.5885594,70,351871.9566261,351871.9911225,351872.0219664,351872.5934214,351874.1750931,1,0.669167499989271
102,38,1,categorization,0,bathroom,SHINEd_sun_atstyziqcmkahyxk.tif,51,0.0333333333333333,0.0333333333333333,0.0333333333333333,0.95,351874.1796299,351874.7491604,70,351874.2151283,351874.2491314,351874.2818742,351874.7532233,351875.701561,1,0.569530499982648
102,39,1,categorization,0,kitchen,SHINEd_sun_abrcnpqqhmjwekyf.tif,70,0.0333333333333333,0.0333333333333333,0.0333333333333333,1.38333333333333,351875.7062551,351876.3572063,74,351875.7418105,351875.7753837,351875.8084246,351876.3613091,351877.7429803,1,0.650951199990232
102,40,1,categorization,0,kitchen,SHINEd_sun_aeqbewejiovwrhhc.tif,80,0.0333333333333333,0.0333333333333333,0.0333333333333333,1.46666666666667,351877.7476086,351878.3491885,74,351877.7830644,351877.817106,351877.8498006,351878.3533838,351879.8183874,1,0.601579900016077
102,41,1,categorization,0,bathroom,SHINEd_sun_ahqjwnzgolcaoidx.tif,29,0.0333333333333333,0.0333333333333333,0.0333333333333333,1.78333333333333,351879.8228913,351880.6684785,70,351879.8584829,351879.8921572,351879.9253392,351880.672817,351882.4544868,1,0.845587199961301
102,42,1,categorization,0,kitchen,SHINEd_sun_aapllqyqlykszopd.tif,65,0.0333333333333333,0.0333333333333333,0.0333333333333333,0.816666666666667,351882.4589938,351883.1643831,74,351882.4945086,351882.5283196,351882.5607642,351883.1708692,351883.9858864,1,0.70538930001203
102,43,1,categorization,0,bathroom,SHINEd_sun_avhrdrntsqrjzccq.tif,55,0.0333333333333333,0.0333333333333333,0.0333333333333333,1.96666666666667,351883.990406,351885.9346067,70,351884.0261513,351884.0597071,351884.0926426,351885.9389242,351887.9039371,1,1.94420069997432
102,44,1,categorization,0,kitchen,SHINEd_sun_alazdvaixpjtegwg.tif,97,0.0333333333333333,0.0333333333333333,0.0333333333333333,1.05,351887.9086077,351888.5250462,74,351887.9440826,351887.9779431,351888.0106952,351888.5292486,351889.5775871,1,0.616438500001095
102,45,1,categorization,0,bathroom,SHINEd_sun_aqrpegblszgcoujh.tif,47,0.0333333333333333,0.0333333333333333,0.0333333333333333,1.13333333333333,351889.5819508,351890.2365553,70,351889.6176239,351889.651395,351889.6841166,351890.2409506,351891.3726219,1,0.654604499984998
102,46,1,categorization,0,bathroom,SHINEd_labelme_sfxiulhjbhlyiyt.tif,11,0.0333333333333333,0.0333333333333333,0.0333333333333333,1.18333333333333,351891.3786602,351891.9731453,70,351891.4141896,351891.4495217,351891.4813253,351891.977272,351893.1589419,1,0.594485100009479
102,47,1,categorization,0,bathroom,SHINEd_sun_aspsyogrekjtfozg.tif,50,0.0333333333333333,0.0333333333333333,0.0333333333333333,1.48333333333333,351893.1637434,351893.7965325,70,351893.2000391,351893.2335368,351893.2659032,351893.8014733,351895.2831449,1,0.632789099996444
102,48,1,categorization,0,kitchen,SHINEd_sun_agorklincwxrdtga.tif,85,0.0333333333333333,0.0333333333333333,0.0333333333333333,1.31666666666667,351895.2878118,351895.9491973,74,351895.3232664,351895.3571903,351895.3903814,351895.9534099,351897.2684134,1,0.661385499988683
102,49,1,categorization,0,bathroom,SHINEd_sun_anhioqovhscjqqwb.tif,39,0.0333333333333333,0.0333333333333333,0.0333333333333333,0.866666666666667,351897.2730195,351897.9165126,70,351897.3085277,351897.3422339,351897.3749645,351897.9211115,351898.7861154,1,0.643493099953048
102,50,1,categorization,0,bathroom,SHINEd_sun_auzqhkafidnkrwmo.tif,54,0.0333333333333333,0.0333333333333333,0.0333333333333333,0.833333333333333,351898.7904239,351899.5245308,70,351898.8265009,351898.8598555,351898.8940667,351899.5293326,351900.3610028,1,0.734106899995822
