sub_num,trial,block,task,is_practice,category,image,texture,duration,mask_dur,jitter,stim_time,time_of_resp,trial_response,mask_time,fix_time,jit_onset,trial_end,trial_accuracy,RT
105,1,3,categorization,0,bathroom,SHINEd_sun_abjtwfukuwddzted.tif,15,0.0666666666666667,0.0666666666666667,0.85,7063.480762041,7064.46909175,9,7063.54280525,7063.603675208,7064.47199825,7065.315337208,0,0.988329709000027
105,2,3,categorization,0,bathroom,SHINEd_sun_apkxzenqapsujocq.tif,45,0.0666666666666667,0.0666666666666667,1.65,7065.320353541,7065.949359375,13,7065.38209375,7065.443008708,7065.96147925,7067.604863708,1,0.629005834000054
105,3,3,categorization,0,bathroom,SHINEd_sun_aunuadmjocsddsrl.tif,52,0.0666666666666667,0.0666666666666667,0.783333333333333,7067.622889791,7068.386784291,13,7067.688423416,7067.7535225,7068.410050083,7069.186722416,1,0.763894500000788
105,4,3,categorization,0,kitchen,SHINEd_sun_aehawpgmrlhlvcow.tif,81,0.0666666666666667,0.0666666666666667,0.933333333333333,7069.19253325,7069.909133041,13,7069.254321833,7069.315207875,7069.917227,7070.843899125,0,0.71659979099968
105,5,3,categorization,0,kitchen,SHINEd_sun_acfmftudsenhrfhy.tif,74,0.0666666666666667,0.0666666666666667,0.866666666666667,7070.848842,7071.742104916,13,7070.910612125,7070.9714925,7071.7566175,7072.616621458,0,0.893262915999912
105,6,3,categorization,0,bathroom,SHINEd_labelme_sfxiulhjbhlyiyt.tif,11,0.0666666666666667,0.0666666666666667,1.11666666666667,7072.621601416,7073.76559525,13,7072.683346875,7072.744253541,7073.779325208,7074.889370875,1,1.14399383399996
105,7,3,categorization,0,kitchen,SHINEd_sun_aixorpehvfykdynp.tif,95,0.0666666666666667,0.0666666666666667,0.966666666666667,7074.898703458,7075.917744041,13,7074.963491208,7075.031449708,7075.936879666,7076.896886166,0,1.01904058299988
105,8,3,categorization,0,kitchen,SHINEd_sun_agzzivivdpnawacl.tif,89,0.0666666666666667,0.0666666666666667,1.78333333333333,7076.90278225,7077.557182125,9,7076.96461525,7077.025565125,7077.560576875,7079.33729525,1,0.654399874999399
105,9,3,categorization,0,kitchen,SHINEd_sun_ahspylgoovwmwvgk.tif,93,0.0666666666666667,0.0666666666666667,1.55,7079.355705291,7080.410153291,13,7079.422516166,7079.48813875,7080.427755291,7081.971124541,0,1.05444799999987
105,10,3,categorization,0,bathroom,SHINEd_sun_aleqenyvunhactkl.tif,32,0.0666666666666667,0.0666666666666667,1.41666666666667,7081.986319958,7082.894834416,13,7082.051286458,7082.119138125,7082.908269458,7084.318310458,1,0.908514457999445
105,11,3,categorization,0,bathroom,SHINEd_sun_acegryoqftbzowsg.tif,17,0.0666666666666667,0.0666666666666667,0.8,7084.337501416,7085.703680208,9,7084.404269125,7084.470506916,7085.726848416,7086.520187166,0,1.36617879200003
105,12,3,categorization,0,kitchen,SHINEd_sun_abrcnpqqhmjwekyf.tif,73,0.0666666666666667,0.0666666666666667,1.28333333333333,7086.525585916,7087.245329041,9,7086.587378708,7086.648366208,7087.250230708,7088.526955083,1,0.719743125000605
105,13,3,categorization,0,bathroom,SHINEd_sun_aclfzgynxzxlbepz.tif,19,0.0666666666666667,0.0666666666666667,1.66666666666667,7088.546291458,7089.307690375,9,7088.612778333,7088.679355416,7089.33599125,7090.996031625,0,0.761398916999497
105,14,3,categorization,0,kitchen,SHINEd_sun_aarfiyshqohlwkmo.tif,67,0.0666666666666667,0.0666666666666667,1.81666666666667,7091.014026625,7091.744728208,13,7091.080645958,7091.14748625,7091.769700041,7093.579759083,0,0.730701583000155
105,15,3,categorization,0,bathroom,SHINEd_sun_agrwbmhcpmfuwmsg.tif,24,0.0666666666666667,0.0666666666666667,1.35,7093.599272166,7094.582435583,13,7093.665383791,7093.728269083,7094.600997791,7095.944382166,1,0.98316341699956
105,16,3,categorization,0,kitchen,SHINEd_sun_aadbddgrdsjugojn.tif,64,0.0666666666666667,0.0666666666666667,0.916666666666667,7095.960887,7097.205224375,9,7096.027617083,7096.093966,7097.235760583,7098.145764916,1,1.24433737500021
105,17,3,categorization,0,bathroom,SHINEd_sun_aspsyogrekjtfozg.tif,50,0.0666666666666667,0.0666666666666667,0.916666666666667,7098.153880125,7099.037715458,9,7098.215599583,7098.276609625,7099.044980833,7099.954985833,0,0.883835333000206
105,18,3,categorization,0,kitchen,SHINEd_sun_avszsnwsbuqfgzbn.tif,105,0.0666666666666667,0.0666666666666667,1.31666666666667,7099.959894833,7100.725157041,9,7100.021542958,7100.082620625,7100.734442958,7102.044480875,1,0.765262207999513
105,19,3,categorization,0,kitchen,SHINEd_sun_axyyrmzcupyhlivc.tif,107,0.0666666666666667,0.0666666666666667,1.45,7102.062239875,7102.710653875,13,7102.128269041,7102.195289583,7102.735351458,7104.178733708,0,0.64841400000023
105,20,3,categorization,0,bathroom,SHINEd_sun_alkosphxlxwjwgjd.tif,34,0.0666666666666667,0.0666666666666667,0.95,7104.1963075,7104.907203416,9,7104.263338375,7104.329144125,7104.935771375,7105.879140625,0,0.710895915999572
105,21,3,categorization,0,bathroom,SHINEd_sun_abapwbhyhkfixyex.tif,14,0.0666666666666667,0.0666666666666667,1.38333333333333,7105.895709,7106.64515825,13,7105.95827425,7106.0187585,7106.653793583,7108.03049575,1,0.749449249999998
105,22,3,categorization,0,bathroom,SHINEd_sun_agguqiubmwhqqunb.tif,22,0.0666666666666667,0.0666666666666667,1.16666666666667,7108.048191666,7108.794311958,13,7108.1150145,7108.181178166,7108.821269833,7109.981307791,1,0.746120292000342
105,23,3,categorization,0,bathroom,SHINEd_sun_axyrejkiiaqiurjk.tif,59,0.0666666666666667,0.0666666666666667,1.61666666666667,7109.991320708,7110.578975083,13,7110.057904083,7110.124104375,7110.597003833,7112.207056958,1,0.587654375000056
105,24,3,categorization,0,kitchen,SHINEd_sun_aymvwlarqodbwuoc.tif,108,0.0666666666666667,0.0666666666666667,1.38333333333333,7112.225900625,7112.904507,13,7112.29292025,7112.35863125,7112.930815208,7114.307531041,0,0.678606375000527
105,25,3,categorization,0,kitchen,SHINEd_sun_ahpczsiumwwocjkv.tif,92,0.0666666666666667,0.0666666666666667,1.78333333333333,7114.324960083,7115.098855625,9,7114.391663833,7114.458034708,7115.113795083,7116.890516458,1,0.773895541999991
105,26,3,categorization,0,kitchen,SHINEd_sun_awcpdzzznmweyyhv.tif,106,0.0666666666666667,0.0666666666666667,0.783333333333333,7116.908213666,7117.861385541,9,7116.975094833,7117.041048708,7117.8808655,7118.6575365,1,0.953171875000407
105,27,3,categorization,0,kitchen,SHINEd_sun_ajkqhtgcbgpcwrwn.tif,97,0.0666666666666667,0.0666666666666667,1.65,7118.663142541,7119.244949958,9,7118.725154291,7118.785815625,7119.254341958,7120.8977365,1,0.581807417000164
105,28,3,categorization,0,kitchen,SHINEd_sun_aexklacwqwezaorf.tif,84,0.0666666666666667,0.0666666666666667,1.86666666666667,7120.913254333,7121.506600541,9,7120.980077,7121.046363791,7121.535698166,7123.3957535,1,0.593346208000185
105,29,3,categorization,0,bathroom,SHINEd_sun_apmqjbnwghzuhhzh.tif,46,0.0666666666666667,0.0666666666666667,1.23333333333333,7123.41460425,7123.887757875,13,7123.481780958,7123.547339666,7123.901952333,7125.128679208,1,0.473153625000123
105,30,3,categorization,0,kitchen,SHINEd_sun_aenotlpyftoioydp.tif,82,0.0666666666666667,0.0666666666666667,0.7,7125.146707916,7125.606837458,9,7125.213239666,7125.278361333,7125.635136875,7126.32852075,1,0.460129541999777
105,31,3,categorization,0,bathroom,SHINEd_sun_ahaulkltgpkeeemi.tif,26,0.0666666666666667,0.0666666666666667,0.716666666666667,7126.343179416,7126.8081685,9,7126.410102041,7126.476044208,7126.832965791,7127.54296925,0,0.464989084000081
105,32,3,categorization,0,bathroom,SHINEd_sun_aljolscmmzydegqp.tif,33,0.0666666666666667,0.0666666666666667,1.05,7127.547783916,7127.957402083,9,7127.609463875,7127.670440833,7127.9722305,7129.015597208,0,0.40961816699928
105,33,3,categorization,0,kitchen,SHINEd_sun_acwjdupvyjsugpay.tif,76,0.0666666666666667,0.0666666666666667,1.1,7129.026715208,7129.484713291,13,7129.091300791,7129.15766375,7129.514185291,7130.60757625,0,0.457998083000348
105,34,3,categorization,0,kitchen,SHINEd_sun_abdenxonkemggwsq.tif,69,0.0666666666666667,0.0666666666666667,1.13333333333333,7130.624088166,7131.015184458,9,7130.69075975,7130.756738458,7131.026126083,7132.152835708,1,0.391096291999929
105,35,3,categorization,0,bathroom,SHINEd_sun_anryaplzeujmzfkd.tif,39,0.0666666666666667,0.0666666666666667,1.38333333333333,7132.161859208,7132.569503875,13,7132.227057166,7132.294675916,7132.584248041,7133.9609715,1,0.407644666999659
105,36,3,categorization,0,kitchen,SHINEd_sun_aeqdocilnnpuvuhx.tif,83,0.0666666666666667,0.0666666666666667,1.5,7133.974508708,7134.821619583,9,7134.041368375,7134.1073435,7134.825930583,7136.319311916,1,0.847110874999998
105,37,3,categorization,0,bathroom,SHINEd_sun_apjevzvycyhuqghb.tif,43,0.0666666666666667,0.0666666666666667,1.61666666666667,7136.337958041,7137.546042583,9,7136.404210208,7136.470613125,7137.559864416,7139.169915833,0,1.2080845419996
105,38,3,categorization,0,bathroom,SHINEd_sun_ahijqszoswveeyji.tif,28,0.0666666666666667,0.0666666666666667,0.983333333333333,7139.190067083,7139.8333135,9,7139.256879875,7139.322834,7139.863127541,7140.839799875,0,0.643246417000228
105,39,3,categorization,0,bathroom,SHINEd_sun_atstyziqcmkahyxk.tif,51,0.0666666666666667,0.0666666666666667,1.3,7140.845728,7141.461512083,9,7140.907416083,7140.968405166,7141.470284625,7142.763654125,0,0.615784083000108
105,40,3,categorization,0,bathroom,SHINEd_sun_apeeialkgkuxddgh.tif,42,0.0666666666666667,0.0666666666666667,1.03333333333333,7142.781543291,7143.336364791,9,7142.848156833,7142.914009458,7143.3534625,7144.380177,0,0.554821499999889
105,41,3,categorization,0,kitchen,SHINEd_sun_aggjlwcdjsjcaemh.tif,86,0.0666666666666667,0.0666666666666667,1.45,7144.396684125,7145.452766875,13,7144.463331,7144.529404291,7145.46532925,7146.908699916,0,1.0560827499994
105,42,3,categorization,0,bathroom,SHINEd_sun_awnqiikzaispgmwo.tif,56,0.0666666666666667,0.0666666666666667,1.23333333333333,7146.926047583,7147.417799041,13,7146.992707833,7147.058770625,7147.431441041,7148.658151541,1,0.491751458000181
105,43,3,categorization,0,kitchen,SHINEd_sun_ahywdevtimnqcsln.tif,94,0.0666666666666667,0.0666666666666667,1.26666666666667,7148.675122,7149.598603083,9,7148.742134041,7148.80768625,7149.613586333,7150.873644833,1,0.923481083000297
105,44,3,categorization,0,bathroom,SHINEd_sun_aapitsgbtktqubfy.tif,12,0.0666666666666667,0.0666666666666667,1.03333333333333,7150.891536916,7151.512842375,13,7150.95840825,7151.024332291,7151.529984208,7152.556689041,1,0.621305458999814
105,45,3,categorization,0,bathroom,SHINEd_sun_amzlamotzwfkwjco.tif,37,0.0666666666666667,0.0666666666666667,1.31666666666667,7152.572948666,7153.436932875,13,7152.639917666,7152.706043708,7153.441262958,7154.751322708,1,0.863984208999682
105,46,3,categorization,0,kitchen,SHINEd_sun_abftihopvusyfakt.tif,71,0.0666666666666667,0.0666666666666667,1.7,7154.770643458,7156.062903333,9,7154.837661958,7154.903371166,7156.096938375,7157.790313416,1,1.29225987499922
105,47,3,categorization,0,kitchen,SHINEd_labelme_kxvouciolcpqplr.tif,62,0.0666666666666667,0.0666666666666667,1.35,7157.808044583,7159.405140916,13,7157.874747958,7157.9411475,7159.410536375,7160.753915291,0,1.59709633300008
105,48,3,categorization,0,bathroom,SHINEd_sun_afcoljnjfoxjtgja.tif,20,0.0666666666666667,0.0666666666666667,0.8,7160.772986791,7161.90879775,9,7160.83974825,7160.905788583,7161.928834375,7162.722172041,0,1.13581095900008
105,49,3,categorization,0,kitchen,SHINEd_sun_auaiucuqpdausiva.tif,102,0.0666666666666667,0.0666666666666667,0.766666666666667,7162.7278665,7163.516851125,13,7162.789729916,7162.85059175,7163.535691625,7164.295696833,0,0.788984625000012
105,50,3,categorization,0,kitchen,SHINEd_sun_aaxxjlsuzvqlgylf.tif,68,0.0666666666666667,0.0666666666666667,1.38333333333333,7164.302170916,7165.365687458,13,7164.363838833,7164.424903291,7165.376951125,7166.753656,0,1.06351654199989
