sub_num,trial,block,task,is_practice,category,image,texture,duration,mask_dur,jitter,stim_time,time_of_resp,trial_response,mask_time,fix_time,jit_onset,trial_end,trial_accuracy,RT
105,1,0,categorization,1,bathroom,SHINEd_bathroom_practice1.tif,111,0.0666666666666667,0.0666666666666667,1.21666666666667,6643.17554775,6657.273718791,9,6643.241441541,6643.301691833,6657.305630291,6658.515878375,0,14.0981710409997
105,2,0,categorization,1,kitchen,SHINEd_kitchen_practice5.tif,120,0.0666666666666667,0.0666666666666667,1.36666666666667,6658.572872625,6659.317372583,9,6658.645735083,6658.707057666,6659.35401975,6660.714257708,1,0.744499958000233
105,3,0,categorization,1,bathroom,SHINEd_bathroom_practice4.tif,114,0.0666666666666667,0.0666666666666667,1.85,6660.76704025,6661.910545083,9,6660.840488208,6660.902583916,6661.947056041,6663.790616833,0,1.14350483300041
105,4,0,categorization,1,kitchen,SHINEd_kitchen_practice4.tif,119,0.0666666666666667,0.0666666666666667,1.55,6663.812222083,6664.920966583,13,6663.88152525,6663.946589625,6664.955988291,6666.499539833,0,1.10874450000028
105,5,0,categorization,1,bathroom,SHINEd_bathroom_practice5.tif,115,0.0666666666666667,0.0666666666666667,1.48333333333333,6666.5332615,6667.475593666,13,6666.606440666,6666.66817625,6667.514695541,6668.992404666,1,0.942332166000597
105,6,0,categorization,1,kitchen,SHINEd_kitchen_practice3.tif,118,0.0666666666666667,0.0666666666666667,1.15,6669.023020458,6669.91857725,13,6669.091882583,6669.157294875,6669.948882291,6671.092424625,0,0.895556792000207
105,7,0,categorization,1,bathroom,SHINEd_bathroom_practice3.tif,113,0.0666666666666667,0.0666666666666667,0.733333333333333,6671.105007458,6671.675547833,13,6671.1726595,6671.239514208,6671.695124125,6672.421829833,1,0.570540374999837
105,8,0,categorization,1,kitchen,SHINEd_kitchen_practice1.tif,116,0.0666666666666667,0.0666666666666667,1.6,6672.433081333,6673.327491083,13,6672.500147708,6672.566243708,6673.335168708,6674.928545,0,0.894409749999795
105,9,0,categorization,1,bathroom,SHINEd_bathroom_practice2.tif,112,0.0666666666666667,0.0666666666666667,0.716666666666667,6674.949406,6675.8955125,13,6675.016425583,6675.082753625,6675.922783958,6676.632790375,1,0.946106500000496
105,10,0,categorization,1,kitchen,SHINEd_kitchen_practice2.tif,117,0.0666666666666667,0.0666666666666667,1.21666666666667,6676.638899,6677.318881791,13,6676.700648916,6676.761694666,6677.33026875,6678.540314041,0,0.679982791000839
105,1,0,categorization,1,bathroom,SHINEd_bathroom_practice1.tif,111,0.0666666666666667,0.0666666666666667,1.21666666666667,6710.215183291,6711.2226335,13,6710.277714541,6710.338137375,6711.240211833,6712.450250666,1,1.00745020899922
105,2,0,categorization,1,kitchen,SHINEd_kitchen_practice5.tif,120,0.0666666666666667,0.0666666666666667,1.36666666666667,6712.466492208,6713.268500541,13,6712.534912916,6712.598972458,6713.288119958,6714.648169791,0,0.802008333000231
105,3,0,categorization,1,bathroom,SHINEd_bathroom_practice4.tif,114,0.0666666666666667,0.0666666666666667,1.85,6714.664773833,6715.383250041,13,6714.731058833,6714.797344916,6715.40356,6717.246941,1,0.718476207999629
105,4,0,categorization,1,kitchen,SHINEd_kitchen_practice4.tif,119,0.0666666666666667,0.0666666666666667,1.55,6717.264025083,6717.973012958,13,6717.330798833,6717.397053375,6717.985905791,6719.529289625,0,0.708987875000275
105,5,0,categorization,1,bathroom,SHINEd_bathroom_practice5.tif,115,0.0666666666666667,0.0666666666666667,1.48333333333333,6719.547442875,6720.05634075,13,6719.614155208,6719.680127541,6720.068190208,6721.544897291,1,0.508897875000002
105,6,0,categorization,1,kitchen,SHINEd_kitchen_practice3.tif,118,0.0666666666666667,0.0666666666666667,1.15,6721.565086791,6722.049220791,13,6721.632911041,6721.695279625,6722.069337833,6723.212715041,0,0.484134000000267
105,7,0,categorization,1,bathroom,SHINEd_bathroom_practice3.tif,113,0.0666666666666667,0.0666666666666667,0.733333333333333,6723.230867583,6723.628061208,13,6723.2981945,6723.3639995,6723.654320208,6724.38104275,1,0.397193625
105,8,0,categorization,1,kitchen,SHINEd_kitchen_practice1.tif,116,0.0666666666666667,0.0666666666666667,1.6,6724.396935291,6724.855150958,13,6724.463988291,6724.530472041,6724.870259166,6726.463636583,0,0.458215667000331
105,9,0,categorization,1,bathroom,SHINEd_bathroom_practice2.tif,112,0.0666666666666667,0.0666666666666667,0.716666666666667,6726.482551333,6726.87340325,13,6726.549900333,6726.615719666,6726.888070583,6727.598107041,1,0.390851916999964
105,10,0,categorization,1,kitchen,SHINEd_kitchen_practice2.tif,117,0.0666666666666667,0.0666666666666667,1.21666666666667,6727.613163458,6728.14308375,13,6727.680148,6727.745434375,6728.148094708,6729.358146791,0,0.529920292000497
105,1,1,categorization,0,bathroom,SHINEd_sun_acgyywnybuveqsro.tif,18,0.0666666666666667,0.0666666666666667,1.23333333333333,6755.238394458,6769.006737208,9,6755.301158416,6755.361187166,6769.030708791,6770.257416083,0,13.7683427500006
105,2,1,categorization,0,kitchen,SHINEd_sun_admlmbcdswaszruo.tif,79,0.0666666666666667,0.0666666666666667,0.783333333333333,6770.276246791,6771.66705625,13,6770.343128166,6770.409753,6771.686185916,6772.462857291,0,1.39080945900059
105,3,1,categorization,0,kitchen,SHINEd_sun_aypmqwcualkenuoe.tif,109,0.0666666666666667,0.0666666666666667,0.75,6772.468532583,6773.286813041,9,6772.530396666,6772.591336208,6773.293138791,6774.036476,1,0.818280458000118
105,4,1,categorization,0,bathroom,SHINEd_sun_acduarbnmmoglmiv.tif,16,0.0666666666666667,0.0666666666666667,1.23333333333333,6774.041448375,6774.830520791,13,6774.103247208,6774.164269375,6774.849407083,6776.0761195,1,0.789072415999726
105,5,1,categorization,0,bathroom,SHINEd_sun_agrwbmhcpmfuwmsg.tif,24,0.0666666666666667,0.0666666666666667,1.13333333333333,6776.094101208,6776.848232833,13,6776.160805625,6776.227325791,6776.866860041,6777.993540041,1,0.7541316249999
105,6,1,categorization,0,bathroom,SHINEd_labelme_sfxiulhjbhlyiyt.tif,11,0.0666666666666667,0.0666666666666667,0.95,6777.999760708,6778.6065865,13,6778.061592625,6778.122497791,6778.624416041,6779.567754208,1,0.606825791999654
105,7,1,categorization,0,bathroom,SHINEd_sun_avhrdrntsqrjzccq.tif,55,0.0666666666666667,0.0666666666666667,0.733333333333333,6779.572791583,6780.47897875,13,6779.634640375,6779.695505458,6780.497398666,6781.22406875,1,0.906187167000098
105,8,1,categorization,0,bathroom,SHINEd_sun_azqyogdvyhahyram.tif,60,0.0666666666666667,0.0666666666666667,1.31666666666667,6781.228968875,6781.998901666,13,6781.290733708,6781.35170075,6782.003413916,6783.313472916,1,0.769932791000429
105,9,1,categorization,0,kitchen,SHINEd_labelme_kxvouciolcpqplr.tif,62,0.0666666666666667,0.0666666666666667,0.8,6783.331061541,6784.209010333,13,6783.397564541,6783.463779333,6784.236776541,6785.030161208,0,0.877948792000097
105,10,1,categorization,0,kitchen,SHINEd_sun_aehawpgmrlhlvcow.tif,81,0.0666666666666667,0.0666666666666667,0.716666666666667,6785.040101666,6786.062564875,13,6785.10261175,6785.162809166,6786.081274041,6786.791279083,0,1.02246320900031
105,11,1,categorization,0,kitchen,SHINEd_sun_abdenxonkemggwsq.tif,69,0.0666666666666667,0.0666666666666667,0.916666666666667,6786.796084208,6787.615107333,13,6786.857828625,6786.918757416,6787.620637916,6788.530642166,0,0.819023125000058
105,12,1,categorization,0,kitchen,SHINEd_sun_aenotlpyftoioydp.tif,82,0.0666666666666667,0.0666666666666667,0.95,6788.537305416,6789.406496708,13,6788.599148791,6788.660037666,6789.411936583,6790.355274041,0,0.869191292000323
105,13,1,categorization,0,kitchen,SHINEd_sun_afuyedyxivkhecmu.tif,85,0.0666666666666667,0.0666666666666667,0.833333333333333,6790.36015025,6791.582752041,13,6790.42191325,6790.482872333,6791.60207525,6792.428746416,0,1.22260179100067
105,14,1,categorization,0,bathroom,SHINEd_sun_abapwbhyhkfixyex.tif,14,0.0666666666666667,0.0666666666666667,0.75,6792.433379166,6794.455122583,13,6792.495082416,6792.556105125,6794.475065541,6795.218404,1,2.02174341699993
105,15,1,categorization,0,bathroom,SHINEd_sun_alkosphxlxwjwgjd.tif,34,0.0666666666666667,0.0666666666666667,1.53333333333333,6795.223246875,6796.72711325,13,6795.2850395,6795.345979625,6796.731532375,6798.25824675,1,1.50386637500014
105,16,1,categorization,0,bathroom,SHINEd_sun_axxbkopsgyouuebh.tif,58,0.0666666666666667,0.0666666666666667,1.05,6798.278008666,6799.578620708,13,6798.344885958,6798.410731541,6799.603283416,6800.646651041,1,1.30061204200047
105,17,1,categorization,0,bathroom,SHINEd_sun_aljolscmmzydegqp.tif,33,0.0666666666666667,0.0666666666666667,0.9,6800.659188,6801.7539785,13,6800.723653208,6800.790361708,6801.778618916,6802.671961791,1,1.09479050000027
105,18,1,categorization,0,bathroom,SHINEd_sun_aleqenyvunhactkl.tif,32,0.0666666666666667,0.0666666666666667,1.18333333333333,6802.677878791,6803.838377958,13,6802.739679666,6802.800488875,6803.852721208,6805.02944625,1,1.16049916700013
105,19,1,categorization,0,bathroom,SHINEd_sun_aspsyogrekjtfozg.tif,50,0.0666666666666667,0.0666666666666667,0.9,6805.039565333,6806.320479958,13,6805.10587725,6805.172312625,6806.348303625,6807.241642416,1,1.28091462500015
105,20,1,categorization,0,kitchen,SHINEd_sun_aymvwlarqodbwuoc.tif,108,0.0666666666666667,0.0666666666666667,1.66666666666667,6807.246535833,6808.582787125,13,6807.308329041,6807.369306708,6808.588149375,6810.248197291,0,1.33625129200027
105,21,1,categorization,0,bathroom,SHINEd_sun_auzqhkafidnkrwmo.tif,54,0.0666666666666667,0.0666666666666667,1.13333333333333,6810.266776916,6811.279317041,13,6810.333614291,6810.399550916,6811.306121125,6812.432846041,1,1.01254012499976
105,22,1,categorization,0,kitchen,SHINEd_sun_aeqdocilnnpuvuhx.tif,83,0.0666666666666667,0.0666666666666667,1.3,6812.442187833,6813.394291958,13,6812.507141666,6812.574886541,6813.414665208,6814.708038458,0,0.952104125000005
105,23,1,categorization,0,kitchen,SHINEd_sun_aunzlwrbjumxhwdj.tif,103,0.0666666666666667,0.0666666666666667,1.93333333333333,6814.725231916,6815.920428833,13,6814.791996666,6814.858039333,6815.947927541,6817.874631708,0,1.19519691700043
105,24,1,categorization,0,bathroom,SHINEd_sun_anhioqovhscjqqwb.tif,38,0.0666666666666667,0.0666666666666667,1,6817.892596416,6819.030105958,13,6817.959339916,6818.025381875,6819.044527625,6820.037865791,1,1.13750954199986
105,25,1,categorization,0,kitchen,SHINEd_sun_aaxxjlsuzvqlgylf.tif,68,0.0666666666666667,0.0666666666666667,0.883333333333333,6820.042590333,6821.350340791,13,6820.10435225,6820.165313166,6821.367560833,6822.244233375,0,1.30775045800056
105,26,1,categorization,0,bathroom,SHINEd_sun_agguqiubmwhqqunb.tif,22,0.0666666666666667,0.0666666666666667,1.95,6822.248792541,6823.710418458,13,6822.310569708,6822.371437916,6823.723541375,6825.666909583,1,1.46162591700067
105,27,1,categorization,0,kitchen,SHINEd_sun_aarfiyshqohlwkmo.tif,67,0.0666666666666667,0.0666666666666667,1.25,6825.685316208,6826.737014,13,6825.750168708,6825.817946583,6826.757534541,6828.000916541,0,1.0516977920006
105,28,1,categorization,0,kitchen,SHINEd_sun_ajkqhtgcbgpcwrwn.tif,97,0.0666666666666667,0.0666666666666667,1.95,6828.018441791,6829.404415,13,6828.084731833,6828.1515945,6829.426213375,6831.369607708,0,1.38597320899953
105,29,1,categorization,0,bathroom,SHINEd_sun_acegryoqftbzowsg.tif,17,0.0666666666666667,0.0666666666666667,1.91666666666667,6831.389853666,6832.774368041,13,6831.456673875,6831.522529958,6832.791754458,6834.701803125,1,1.38451437500044
105,30,1,categorization,0,kitchen,SHINEd_sun_abrcnpqqhmjwekyf.tif,73,0.0666666666666667,0.0666666666666667,1.41666666666667,6834.718979916,6835.919233458,13,6834.785704166,6834.8529415,6835.938975708,6837.349012041,0,1.20025354200061
105,31,1,categorization,0,kitchen,SHINEd_sun_amjjdeyrggfqgmom.tif,100,0.0666666666666667,0.0666666666666667,0.716666666666667,6837.366203625,6838.477747916,9,6837.43452975,6837.498847,6838.505188708,6839.21519525,1,1.11154429100043
105,32,1,categorization,0,kitchen,SHINEd_sun_ahljzhgcdpomplvg.tif,91,0.0666666666666667,0.0666666666666667,1.28333333333333,6839.220605625,6841.038142625,13,6839.282432375,6839.343375541,6841.04592725,6842.322649583,0,1.8175369999999
105,33,1,categorization,0,bathroom,SHINEd_sun_alotolagknyrgtsk.tif,35,0.0666666666666667,0.0666666666666667,0.9,6842.340070791,6843.55238875,13,6842.407099958,6842.473316375,6843.57963175,6844.472969583,1,1.21231795900076
105,34,1,categorization,0,bathroom,SHINEd_sun_anryaplzeujmzfkd.tif,39,0.0666666666666667,0.0666666666666667,0.8,6844.477645916,6845.534718333,13,6844.539367416,6844.600680416,6845.552759916,6846.346096208,1,1.05707241699929
105,35,1,categorization,0,bathroom,SHINEd_sun_aapitsgbtktqubfy.tif,12,0.0666666666666667,0.0666666666666667,1.01666666666667,6846.350986208,6847.366847125,13,6846.412799,6846.473722791,6847.375387458,6848.385438791,1,1.01586091700028
105,36,1,categorization,0,bathroom,SHINEd_sun_aghyqhbptboemmoq.tif,23,0.0666666666666667,0.0666666666666667,0.85,6848.395611041,6850.005867625,13,6848.460108291,6848.527104208,6850.035186958,6850.878525458,1,1.61025658400013
105,37,1,categorization,0,kitchen,SHINEd_sun_agorklincwxrdtga.tif,87,0.0666666666666667,0.0666666666666667,1.51666666666667,6850.883480333,6852.126468041,13,6850.945228916,6851.00620925,6852.141667375,6853.65170875,0,1.24298770800033
105,38,1,categorization,0,bathroom,SHINEd_sun_ajlawzvmubibwbpy.tif,30,0.0666666666666667,0.0666666666666667,1.83333333333333,6853.670088875,6854.958859791,13,6853.7348415,6853.802503583,6854.978043416,6856.804756041,1,1.28877091599952
105,39,1,categorization,0,kitchen,SHINEd_sun_aexklacwqwezaorf.tif,84,0.0666666666666667,0.0666666666666667,0.716666666666667,6856.823771541,6858.057898166,13,6856.890524208,6856.956617666,6858.077125041,6858.787128291,0,1.2341266250005
105,40,1,categorization,0,kitchen,SHINEd_sun_adgqasybjyktddhj.tif,78,0.0666666666666667,0.0666666666666667,0.9,6858.791704833,6859.423020708,13,6858.853516083,6858.9144185,6859.432844541,6860.326182958,0,0.631315874999927
105,41,1,categorization,0,kitchen,SHINEd_labelme_rykdqxenmhulbdn.tif,63,0.0666666666666667,0.0666666666666667,0.916666666666667,6860.331105458,6861.182808125,13,6860.392801208,6860.453830583,6861.188934666,6862.098940541,0,0.851702666999699
105,42,1,categorization,0,kitchen,SHINEd_sun_ahdycvpopffkzzsu.tif,90,0.0666666666666667,0.0666666666666667,0.816666666666667,6862.103923916,6863.246474166,13,6862.165570416,6862.226584125,6863.261763583,6864.071767791,0,1.14255024999966
105,43,1,categorization,0,kitchen,SHINEd_sun_agzzivivdpnawacl.tif,89,0.0666666666666667,0.0666666666666667,1.88333333333333,6864.076383041,6865.990164375,13,6864.13810625,6864.198989375,6866.001219291,6867.877938958,0,1.9137813340003
105,44,1,categorization,0,bathroom,SHINEd_sun_aclfzgynxzxlbepz.tif,19,0.0666666666666667,0.0666666666666667,0.9,6867.895204625,6869.526263541,13,6867.96336225,6868.027907458,6869.53067425,6870.424011625,1,1.63105891600026
105,45,1,categorization,0,kitchen,SHINEd_sun_auaiucuqpdausiva.tif,102,0.0666666666666667,0.0666666666666667,1,6870.428850875,6872.245980208,13,6870.49070475,6870.551711291,6872.253975583,6873.247314208,0,1.81712933300059
105,46,1,categorization,0,kitchen,SHINEd_sun_ahpczsiumwwocjkv.tif,92,0.0666666666666667,0.0666666666666667,0.733333333333333,6873.253598,6874.8385475,13,6873.315238625,6873.376423291,6874.845296041,6875.571967208,0,1.58494949999931
105,47,1,categorization,0,kitchen,SHINEd_sun_ahywdevtimnqcsln.tif,94,0.0666666666666667,0.0666666666666667,0.883333333333333,6875.576455708,6876.374743958,9,6875.638195875,6875.699170791,6876.384337833,6877.261008,1,0.798288250000041
105,48,1,categorization,0,kitchen,SHINEd_sun_aapllqyqlykszopd.tif,66,0.0666666666666667,0.0666666666666667,1.73333333333333,6877.265798791,6879.694529666,9,6877.3277565,6877.388510583,6879.707335291,6881.434049916,1,2.42873087499993
105,49,1,categorization,0,kitchen,SHINEd_sun_axyyrmzcupyhlivc.tif,107,0.0666666666666667,0.0666666666666667,1.91666666666667,6881.457388458,6882.781827916,13,6881.524226583,6881.590245,6882.793438458,6884.703490625,0,1.32443945799969
105,50,1,categorization,0,kitchen,SHINEd_sun_avszsnwsbuqfgzbn.tif,105,0.0666666666666667,0.0666666666666667,1.35,6884.724160625,6886.390400458,13,6884.791112916,6884.856881541,6886.40938225,6887.75275025,0,1.66623983299996
105,1,2,categorization,0,kitchen,SHINEd_sun_ajcbwwvdlsvjyzje.tif,96,0.0666666666666667,0.0666666666666667,0.95,6898.084925416,6899.11058125,9,6898.147588708,6898.207718875,6899.126737625,6900.070074458,1,1.02565583399974
105,2,2,categorization,0,bathroom,SHINEd_sun_apeeialkgkuxddgh.tif,42,0.0666666666666667,0.0666666666666667,0.75,6900.075024083,6901.446677583,9,6900.136975458,6900.197568583,6901.466751875,6902.210090208,0,1.37165349999941
105,3,2,categorization,0,bathroom,SHINEd_sun_aqrpegblszgcoujh.tif,48,0.0666666666666667,0.0666666666666667,1.68333333333333,6902.214703583,6903.453916625,9,6902.276454458,6902.337441916,6903.4733445,6905.150048958,0,1.23921304199939
105,4,2,categorization,0,kitchen,SHINEd_sun_akcjzhbbjlbogpdi.tif,99,0.0666666666666667,0.0666666666666667,0.816666666666667,6905.167669166,6906.38449275,13,6905.235322458,6905.300681791,6906.407010166,6907.217014666,0,1.21682358399994
105,5,2,categorization,0,kitchen,SHINEd_sun_abftihopvusyfakt.tif,71,0.0666666666666667,0.0666666666666667,0.916666666666667,6907.222043916,6908.517878541,13,6907.283755291,6907.344763416,6908.530447625,6909.44045325,0,1.29583462499977
105,6,2,categorization,0,bathroom,SHINEd_sun_ahaulkltgpkeeemi.tif,26,0.0666666666666667,0.0666666666666667,1.21666666666667,6909.445555583,6910.830242916,13,6909.507439833,6909.568256166,6910.837474166,6912.047528875,1,1.38468733300033
105,7,2,categorization,0,bathroom,SHINEd_sun_ausgutylgojavyoq.tif,53,0.0666666666666667,0.0666666666666667,0.9,6912.063496708,6913.855658583,13,6912.131853083,6912.196420958,6913.87145375,6914.764791208,1,1.7921618750006
105,8,2,categorization,0,bathroom,SHINEd_sun_abjtwfukuwddzted.tif,15,0.0666666666666667,0.0666666666666667,1.65,6914.770301833,6916.134264333,13,6914.832106708,6914.892993125,6916.145355625,6917.788726666,1,1.36396249999962
105,9,2,categorization,0,bathroom,SHINEd_sun_akiytfaagpdsphgz.tif,31,0.0666666666666667,0.0666666666666667,1.15,6917.807217583,6919.502521208,13,6917.87386575,6917.940623833,6919.509858916,6920.653228333,1,1.69530362499972
105,10,2,categorization,0,bathroom,SHINEd_sun_asfwthctfqerjvxr.tif,49,0.0666666666666667,0.0666666666666667,1.13333333333333,6920.663733875,6921.574698916,13,6920.73119075,6920.797742541,6921.604039416,6922.730747041,1,0.910965041000054
105,11,2,categorization,0,bathroom,SHINEd_sun_agyqfjcfkdcydepw.tif,25,0.0666666666666667,0.0666666666666667,1.76666666666667,6922.740499666,6923.664894333,13,6922.807164083,6922.873434916,6923.679135458,6925.439190041,1,0.924394667000342
105,12,2,categorization,0,kitchen,SHINEd_sun_acxkpeoqbwcxfvip.tif,77,0.0666666666666667,0.0666666666666667,1.8,6925.457123875,6926.520639291,9,6925.523997291,6925.587015291,6926.542860375,6928.336239541,1,1.06351541599997
105,13,2,categorization,0,kitchen,SHINEd_sun_aqeaevwwwjoqhzvl.tif,101,0.0666666666666667,0.0666666666666667,0.9,6928.35510225,6929.075733791,13,6928.421987625,6928.487839708,6929.094358458,6929.9876975,0,0.72063154100033
105,14,2,categorization,0,bathroom,SHINEd_sun_amzlamotzwfkwjco.tif,37,0.0666666666666667,0.0666666666666667,0.716666666666667,6929.99260225,6930.638145125,13,6930.054357375,6930.115825958,6930.651047,6931.361050916,1,0.645542874999592
105,15,2,categorization,0,kitchen,SHINEd_sun_ahspylgoovwmwvgk.tif,93,0.0666666666666667,0.0666666666666667,1.36666666666667,6931.366053,6932.198301166,13,6931.427791833,6931.488775583,6932.207211541,6933.567263916,0,0.832248166000682
105,16,2,categorization,0,bathroom,SHINEd_sun_awnqiikzaispgmwo.tif,56,0.0666666666666667,0.0666666666666667,0.916666666666667,6933.585221125,6934.470881375,13,6933.652728541,6933.714154375,6934.486813875,6935.3968195,1,0.885660250000001
105,17,2,categorization,0,bathroom,SHINEd_sun_apjevzvycyhuqghb.tif,43,0.0666666666666667,0.0666666666666667,0.716666666666667,6935.403587416,6936.3180345,13,6935.465317625,6935.526396708,6936.328318666,6937.038322125,1,0.91444708400013
105,18,2,categorization,0,bathroom,SHINEd_sun_aggnnqpdorgxpvce.tif,21,0.0666666666666667,0.0666666666666667,0.766666666666667,6937.043318458,6938.694481791,13,6937.105067083,6937.165979416,6938.701750375,6939.461755208,1,1.65116333300011
105,19,2,categorization,0,bathroom,SHINEd_sun_aofnryafpsjimzsb.tif,40,0.0666666666666667,0.0666666666666667,1.06666666666667,6939.466720666,6941.038510916,9,6939.528526375,6939.589537833,6941.058491958,6942.118553958,0,1.57179025000005
105,20,2,categorization,0,bathroom,SHINEd_sun_apkruvsevgegsdwp.tif,44,0.0666666666666667,0.0666666666666667,0.8,6942.130594791,6942.950722833,13,6942.195426708,6942.260899083,6942.96691,6943.760287083,1,0.820128042000761
105,21,2,categorization,0,kitchen,SHINEd_sun_akchetnepxlcxhsu.tif,98,0.0666666666666667,0.0666666666666667,0.866666666666667,6943.770362833,6944.638151541,13,6943.836875125,6943.902929041,6944.65514325,6945.515148041,0,0.867788708000262
105,22,2,categorization,0,kitchen,SHINEd_sun_acfmftudsenhrfhy.tif,74,0.0666666666666667,0.0666666666666667,1.48333333333333,6945.520234541,6946.502609208,13,6945.5818335,6945.642928375,6946.511476,6947.988196208,0,0.982374666999931
105,23,2,categorization,0,kitchen,SHINEd_sun_aggjlwcdjsjcaemh.tif,86,0.0666666666666667,0.0666666666666667,1.1,6948.005847916,6949.037344916,9,6948.07261625,6948.138527041,6949.062136208,6950.155530416,1,1.03149699999994
105,24,2,categorization,0,kitchen,SHINEd_sun_aadbddgrdsjugojn.tif,64,0.0666666666666667,0.0666666666666667,0.783333333333333,6950.164776458,6951.055619875,13,6950.229763125,6950.298565458,6951.070772208,6951.847475541,0,0.890843416999815
105,25,2,categorization,0,bathroom,SHINEd_sun_ahqjwnzgolcaoidx.tif,29,0.0666666666666667,0.0666666666666667,0.866666666666667,6951.862872708,6952.558386,13,6951.9295815,6951.995377666,6952.564113125,6953.424117916,1,0.695513291999305
105,26,2,categorization,0,bathroom,SHINEd_sun_axyrejkiiaqiurjk.tif,59,0.0666666666666667,0.0666666666666667,1.83333333333333,6953.42901975,6954.502017833,13,6953.490833333,6953.551676625,6954.520084791,6956.34679325,1,1.07299808299922
105,27,2,categorization,0,kitchen,SHINEd_sun_awcpdzzznmweyyhv.tif,106,0.0666666666666667,0.0666666666666667,0.7,6956.365845625,6957.742579166,13,6956.432327833,6956.498644125,6957.751286541,6958.444625291,0,1.37673354100025
105,28,2,categorization,0,bathroom,SHINEd_sun_apynckhmoftszqoq.tif,47,0.0666666666666667,0.0666666666666667,1.33333333333333,6958.449272416,6959.654247958,13,6958.51109175,6958.571958958,6959.674418166,6961.001140583,1,1.20497554200028
105,29,2,categorization,0,bathroom,SHINEd_sun_atstyziqcmkahyxk.tif,51,0.0666666666666667,0.0666666666666667,1.33333333333333,6961.01912275,6962.149653083,13,6961.0858105,6961.152069791,6962.175217791,6963.501945958,1,1.13053033300002
105,30,2,categorization,0,bathroom,SHINEd_sun_ahijqszoswveeyji.tif,28,0.0666666666666667,0.0666666666666667,1.38333333333333,6963.518862333,6965.414429791,13,6963.585647625,6963.651567125,6965.4207635,6966.797477375,1,1.89556745800019
105,31,2,categorization,0,kitchen,SHINEd_sun_azmutvzbxypaceni.tif,110,0.0666666666666667,0.0666666666666667,1.25,6966.814764291,6968.131575333,13,6966.881774875,6966.947741458,6968.157457791,6969.400841333,0,1.31681104200015
105,32,2,categorization,0,kitchen,SHINEd_sun_acwjdupvyjsugpay.tif,76,0.0666666666666667,0.0666666666666667,1.55,6969.419090458,6970.17690725,9,6969.485986625,6969.55185525,6970.190931,6971.734307041,1,0.757816792000085
105,33,2,categorization,0,kitchen,SHINEd_sun_abdxkyyxwfskuaqb.tif,70,0.0666666666666667,0.0666666666666667,1.61666666666667,6971.7438195,6973.08623325,13,6971.809816583,6971.876595875,6973.118060458,6974.72809675,0,1.34241374999965
105,34,2,categorization,0,kitchen,SHINEd_sun_aamedkxepzlwuxes.tif,65,0.0666666666666667,0.0666666666666667,1.33333333333333,6974.746575166,6975.753017666,13,6974.813506958,6974.87915,6975.767165666,6977.093893333,0,1.00644250000005
105,35,2,categorization,0,bathroom,SHINEd_sun_apmqjbnwghzuhhzh.tif,46,0.0666666666666667,0.0666666666666667,0.833333333333333,6977.107538833,6977.89502825,13,6977.174583708,6977.24036225,6977.913373583,6978.740082291,1,0.787489416999961
105,36,2,categorization,0,bathroom,SHINEd_sun_aoybiabnpadelefl.tif,41,0.0666666666666667,0.0666666666666667,1.45,6978.7541735,6979.542261,13,6978.820912791,6978.878749458,6979.547121625,6980.99050575,1,0.788087499999165
105,37,2,categorization,0,bathroom,SHINEd_sun_apkxzenqapsujocq.tif,45,0.0666666666666667,0.0666666666666667,0.933333333333333,6981.009740208,6983.206261583,9,6981.076644166,6981.142525458,6983.21157975,6984.138250166,0,2.19652137499997
105,38,2,categorization,0,kitchen,SHINEd_sun_abpwyqmlzafvklqo.tif,72,0.0666666666666667,0.0666666666666667,1.65,6984.143255708,6986.485986833,9,6984.205052833,6984.265862916,6986.501911416,6988.145298625,1,2.34273112500068
105,39,2,categorization,0,kitchen,SHINEd_sun_aegoxogugdkwpmpj.tif,80,0.0666666666666667,0.0666666666666667,1.23333333333333,6988.1627505,6989.677985666,9,6988.231093458,6988.295368,6989.697771541,6990.924494666,1,1.51523516599991
105,40,2,categorization,0,bathroom,SHINEd_sun_ahcvzmoyaycdoftf.tif,27,0.0666666666666667,0.0666666666666667,0.766666666666667,6990.941024125,6992.038240541,13,6991.007973166,6991.073779916,6992.063708625,6992.823755875,1,1.09721641600026
105,41,2,categorization,0,bathroom,SHINEd_sun_axldvoqbuvuggfmq.tif,57,0.0666666666666667,0.0666666666666667,1.78333333333333,6992.830522541,6994.214149708,13,6992.892233958,6992.953258458,6994.222322333,6995.999035666,1,1.38362716699976
105,42,2,categorization,0,bathroom,SHINEd_sun_aavhrsfjbserjtht.tif,13,0.0666666666666667,0.0666666666666667,1.11666666666667,6996.01665575,6997.207536791,13,6996.08503975,6996.149861,6997.222321041,6998.33237,1,1.19088104100047
105,43,2,categorization,0,bathroom,SHINEd_sun_afcoljnjfoxjtgja.tif,20,0.0666666666666667,0.0666666666666667,1.85,6998.341857416,6999.914612583,13,6998.407039958,6998.4743565,6999.934517625,7001.77789825,1,1.57275516700065
105,44,2,categorization,0,bathroom,SHINEd_sun_ambriybtogmepttm.tif,36,0.0666666666666667,0.0666666666666667,0.733333333333333,7001.78957575,7003.365738583,13,7001.856438291,7001.9223555,7003.374747166,7004.10141975,1,1.57616283300013
105,45,2,categorization,0,bathroom,SHINEd_sun_aunuadmjocsddsrl.tif,52,0.0666666666666667,0.0666666666666667,0.783333333333333,7004.105984083,7004.893284,9,7004.167873625,7004.22870775,7004.897158,7005.67382925,0,0.787299916999473
105,46,2,categorization,0,kitchen,SHINEd_sun_auticobqsbwgoppi.tif,104,0.0666666666666667,0.0666666666666667,1.5,7005.679054208,7006.933862375,9,7005.740769833,7005.801776916,7006.937425625,7008.430821333,1,1.25480816700019
105,47,2,categorization,0,kitchen,SHINEd_labelme_brsyyvweiuaazfr.tif,61,0.0666666666666667,0.0666666666666667,0.733333333333333,7008.448905291,7010.573374333,9,7008.515632625,7008.581485041,7010.584230458,7011.3109005,1,2.12446904199987
105,48,2,categorization,0,kitchen,SHINEd_sun_aixorpehvfykdynp.tif,95,0.0666666666666667,0.0666666666666667,1.1,7011.31561175,7012.805445083,13,7011.377375458,7011.438298583,7012.823785208,7013.91716275,0,1.48983333300021
105,49,2,categorization,0,kitchen,SHINEd_sun_agubuxuukhzyzpdp.tif,88,0.0666666666666667,0.0666666666666667,1.6,7013.928259916,7015.054003958,9,7013.993423916,7014.060815583,7015.065546666,7016.658938166,1,1.12574404200041
105,50,2,categorization,0,kitchen,SHINEd_sun_acgtpgfybqjmzeyw.tif,75,0.0666666666666667,0.0666666666666667,1.06666666666667,7016.676832416,7018.582076416,13,7016.743652,7016.809678458,7018.595501875,7019.655557083,0,1.90524399999958
105,1,3,categorization,0,bathroom,SHINEd_sun_abjtwfukuwddzted.tif,15,0.0666666666666667,0.0666666666666667,0.85,7063.480762041,7064.46909175,9,7063.54280525,7063.603675208,7064.47199825,7065.315337208,0,0.988329709000027
105,2,3,categorization,0,bathroom,SHINEd_sun_apkxzenqapsujocq.tif,45,0.0666666666666667,0.0666666666666667,1.65,7065.320353541,7065.949359375,13,7065.38209375,7065.443008708,7065.96147925,7067.604863708,1,0.629005834000054
105,3,3,categorization,0,bathroom,SHINEd_sun_aunuadmjocsddsrl.tif,52,0.0666666666666667,0.0666666666666667,0.783333333333333,7067.622889791,7068.386784291,13,7067.688423416,7067.7535225,7068.410050083,7069.186722416,1,0.763894500000788
105,4,3,categorization,0,kitchen,SHINEd_sun_aehawpgmrlhlvcow.tif,81,0.0666666666666667,0.0666666666666667,0.933333333333333,7069.19253325,7069.909133041,13,7069.254321833,7069.315207875,7069.917227,7070.843899125,0,0.71659979099968
105,5,3,categorization,0,kitchen,SHINEd_sun_acfmftudsenhrfhy.tif,74,0.0666666666666667,0.0666666666666667,0.866666666666667,7070.848842,7071.742104916,13,7070.910612125,7070.9714925,7071.7566175,7072.616621458,0,0.893262915999912
105,6,3,categorization,0,bathroom,SHINEd_labelme_sfxiulhjbhlyiyt.tif,11,0.0666666666666667,0.0666666666666667,1.11666666666667,7072.621601416,7073.76559525,13,7072.683346875,7072.744253541,7073.779325208,7074.889370875,1,1.14399383399996
105,7,3,categorization,0,kitchen,SHINEd_sun_aixorpehvfykdynp.tif,95,0.0666666666666667,0.0666666666666667,0.966666666666667,7074.898703458,7075.917744041,13,7074.963491208,7075.031449708,7075.936879666,7076.896886166,0,1.01904058299988
105,8,3,categorization,0,kitchen,SHINEd_sun_agzzivivdpnawacl.tif,89,0.0666666666666667,0.0666666666666667,1.78333333333333,7076.90278225,7077.557182125,9,7076.96461525,7077.025565125,7077.560576875,7079.33729525,1,0.654399874999399
105,9,3,categorization,0,kitchen,SHINEd_sun_ahspylgoovwmwvgk.tif,93,0.0666666666666667,0.0666666666666667,1.55,7079.355705291,7080.410153291,13,7079.422516166,7079.48813875,7080.427755291,7081.971124541,0,1.05444799999987
105,10,3,categorization,0,bathroom,SHINEd_sun_aleqenyvunhactkl.tif,32,0.0666666666666667,0.0666666666666667,1.41666666666667,7081.986319958,7082.894834416,13,7082.051286458,7082.119138125,7082.908269458,7084.318310458,1,0.908514457999445
105,11,3,categorization,0,bathroom,SHINEd_sun_acegryoqftbzowsg.tif,17,0.0666666666666667,0.0666666666666667,0.8,7084.337501416,7085.703680208,9,7084.404269125,7084.470506916,7085.726848416,7086.520187166,0,1.36617879200003
105,12,3,categorization,0,kitchen,SHINEd_sun_abrcnpqqhmjwekyf.tif,73,0.0666666666666667,0.0666666666666667,1.28333333333333,7086.525585916,7087.245329041,9,7086.587378708,7086.648366208,7087.250230708,7088.526955083,1,0.719743125000605
105,13,3,categorization,0,bathroom,SHINEd_sun_aclfzgynxzxlbepz.tif,19,0.0666666666666667,0.0666666666666667,1.66666666666667,7088.546291458,7089.307690375,9,7088.612778333,7088.679355416,7089.33599125,7090.996031625,0,0.761398916999497
105,14,3,categorization,0,kitchen,SHINEd_sun_aarfiyshqohlwkmo.tif,67,0.0666666666666667,0.0666666666666667,1.81666666666667,7091.014026625,7091.744728208,13,7091.080645958,7091.14748625,7091.769700041,7093.579759083,0,0.730701583000155
105,15,3,categorization,0,bathroom,SHINEd_sun_agrwbmhcpmfuwmsg.tif,24,0.0666666666666667,0.0666666666666667,1.35,7093.599272166,7094.582435583,13,7093.665383791,7093.728269083,7094.600997791,7095.944382166,1,0.98316341699956
105,16,3,categorization,0,kitchen,SHINEd_sun_aadbddgrdsjugojn.tif,64,0.0666666666666667,0.0666666666666667,0.916666666666667,7095.960887,7097.205224375,9,7096.027617083,7096.093966,7097.235760583,7098.145764916,1,1.24433737500021
105,17,3,categorization,0,bathroom,SHINEd_sun_aspsyogrekjtfozg.tif,50,0.0666666666666667,0.0666666666666667,0.916666666666667,7098.153880125,7099.037715458,9,7098.215599583,7098.276609625,7099.044980833,7099.954985833,0,0.883835333000206
105,18,3,categorization,0,kitchen,SHINEd_sun_avszsnwsbuqfgzbn.tif,105,0.0666666666666667,0.0666666666666667,1.31666666666667,7099.959894833,7100.725157041,9,7100.021542958,7100.082620625,7100.734442958,7102.044480875,1,0.765262207999513
105,19,3,categorization,0,kitchen,SHINEd_sun_axyyrmzcupyhlivc.tif,107,0.0666666666666667,0.0666666666666667,1.45,7102.062239875,7102.710653875,13,7102.128269041,7102.195289583,7102.735351458,7104.178733708,0,0.64841400000023
105,20,3,categorization,0,bathroom,SHINEd_sun_alkosphxlxwjwgjd.tif,34,0.0666666666666667,0.0666666666666667,0.95,7104.1963075,7104.907203416,9,7104.263338375,7104.329144125,7104.935771375,7105.879140625,0,0.710895915999572
105,21,3,categorization,0,bathroom,SHINEd_sun_abapwbhyhkfixyex.tif,14,0.0666666666666667,0.0666666666666667,1.38333333333333,7105.895709,7106.64515825,13,7105.95827425,7106.0187585,7106.653793583,7108.03049575,1,0.749449249999998
105,22,3,categorization,0,bathroom,SHINEd_sun_agguqiubmwhqqunb.tif,22,0.0666666666666667,0.0666666666666667,1.16666666666667,7108.048191666,7108.794311958,13,7108.1150145,7108.181178166,7108.821269833,7109.981307791,1,0.746120292000342
105,23,3,categorization,0,bathroom,SHINEd_sun_axyrejkiiaqiurjk.tif,59,0.0666666666666667,0.0666666666666667,1.61666666666667,7109.991320708,7110.578975083,13,7110.057904083,7110.124104375,7110.597003833,7112.207056958,1,0.587654375000056
105,24,3,categorization,0,kitchen,SHINEd_sun_aymvwlarqodbwuoc.tif,108,0.0666666666666667,0.0666666666666667,1.38333333333333,7112.225900625,7112.904507,13,7112.29292025,7112.35863125,7112.930815208,7114.307531041,0,0.678606375000527
105,25,3,categorization,0,kitchen,SHINEd_sun_ahpczsiumwwocjkv.tif,92,0.0666666666666667,0.0666666666666667,1.78333333333333,7114.324960083,7115.098855625,9,7114.391663833,7114.458034708,7115.113795083,7116.890516458,1,0.773895541999991
105,26,3,categorization,0,kitchen,SHINEd_sun_awcpdzzznmweyyhv.tif,106,0.0666666666666667,0.0666666666666667,0.783333333333333,7116.908213666,7117.861385541,9,7116.975094833,7117.041048708,7117.8808655,7118.6575365,1,0.953171875000407
105,27,3,categorization,0,kitchen,SHINEd_sun_ajkqhtgcbgpcwrwn.tif,97,0.0666666666666667,0.0666666666666667,1.65,7118.663142541,7119.244949958,9,7118.725154291,7118.785815625,7119.254341958,7120.8977365,1,0.581807417000164
105,28,3,categorization,0,kitchen,SHINEd_sun_aexklacwqwezaorf.tif,84,0.0666666666666667,0.0666666666666667,1.86666666666667,7120.913254333,7121.506600541,9,7120.980077,7121.046363791,7121.535698166,7123.3957535,1,0.593346208000185
105,29,3,categorization,0,bathroom,SHINEd_sun_apmqjbnwghzuhhzh.tif,46,0.0666666666666667,0.0666666666666667,1.23333333333333,7123.41460425,7123.887757875,13,7123.481780958,7123.547339666,7123.901952333,7125.128679208,1,0.473153625000123
105,30,3,categorization,0,kitchen,SHINEd_sun_aenotlpyftoioydp.tif,82,0.0666666666666667,0.0666666666666667,0.7,7125.146707916,7125.606837458,9,7125.213239666,7125.278361333,7125.635136875,7126.32852075,1,0.460129541999777
105,31,3,categorization,0,bathroom,SHINEd_sun_ahaulkltgpkeeemi.tif,26,0.0666666666666667,0.0666666666666667,0.716666666666667,7126.343179416,7126.8081685,9,7126.410102041,7126.476044208,7126.832965791,7127.54296925,0,0.464989084000081
105,32,3,categorization,0,bathroom,SHINEd_sun_aljolscmmzydegqp.tif,33,0.0666666666666667,0.0666666666666667,1.05,7127.547783916,7127.957402083,9,7127.609463875,7127.670440833,7127.9722305,7129.015597208,0,0.40961816699928
105,33,3,categorization,0,kitchen,SHINEd_sun_acwjdupvyjsugpay.tif,76,0.0666666666666667,0.0666666666666667,1.1,7129.026715208,7129.484713291,13,7129.091300791,7129.15766375,7129.514185291,7130.60757625,0,0.457998083000348
105,34,3,categorization,0,kitchen,SHINEd_sun_abdenxonkemggwsq.tif,69,0.0666666666666667,0.0666666666666667,1.13333333333333,7130.624088166,7131.015184458,9,7130.69075975,7130.756738458,7131.026126083,7132.152835708,1,0.391096291999929
105,35,3,categorization,0,bathroom,SHINEd_sun_anryaplzeujmzfkd.tif,39,0.0666666666666667,0.0666666666666667,1.38333333333333,7132.161859208,7132.569503875,13,7132.227057166,7132.294675916,7132.584248041,7133.9609715,1,0.407644666999659
105,36,3,categorization,0,kitchen,SHINEd_sun_aeqdocilnnpuvuhx.tif,83,0.0666666666666667,0.0666666666666667,1.5,7133.974508708,7134.821619583,9,7134.041368375,7134.1073435,7134.825930583,7136.319311916,1,0.847110874999998
105,37,3,categorization,0,bathroom,SHINEd_sun_apjevzvycyhuqghb.tif,43,0.0666666666666667,0.0666666666666667,1.61666666666667,7136.337958041,7137.546042583,9,7136.404210208,7136.470613125,7137.559864416,7139.169915833,0,1.2080845419996
105,38,3,categorization,0,bathroom,SHINEd_sun_ahijqszoswveeyji.tif,28,0.0666666666666667,0.0666666666666667,0.983333333333333,7139.190067083,7139.8333135,9,7139.256879875,7139.322834,7139.863127541,7140.839799875,0,0.643246417000228
105,39,3,categorization,0,bathroom,SHINEd_sun_atstyziqcmkahyxk.tif,51,0.0666666666666667,0.0666666666666667,1.3,7140.845728,7141.461512083,9,7140.907416083,7140.968405166,7141.470284625,7142.763654125,0,0.615784083000108
105,40,3,categorization,0,bathroom,SHINEd_sun_apeeialkgkuxddgh.tif,42,0.0666666666666667,0.0666666666666667,1.03333333333333,7142.781543291,7143.336364791,9,7142.848156833,7142.914009458,7143.3534625,7144.380177,0,0.554821499999889
105,41,3,categorization,0,kitchen,SHINEd_sun_aggjlwcdjsjcaemh.tif,86,0.0666666666666667,0.0666666666666667,1.45,7144.396684125,7145.452766875,13,7144.463331,7144.529404291,7145.46532925,7146.908699916,0,1.0560827499994
105,42,3,categorization,0,bathroom,SHINEd_sun_awnqiikzaispgmwo.tif,56,0.0666666666666667,0.0666666666666667,1.23333333333333,7146.926047583,7147.417799041,13,7146.992707833,7147.058770625,7147.431441041,7148.658151541,1,0.491751458000181
105,43,3,categorization,0,kitchen,SHINEd_sun_ahywdevtimnqcsln.tif,94,0.0666666666666667,0.0666666666666667,1.26666666666667,7148.675122,7149.598603083,9,7148.742134041,7148.80768625,7149.613586333,7150.873644833,1,0.923481083000297
105,44,3,categorization,0,bathroom,SHINEd_sun_aapitsgbtktqubfy.tif,12,0.0666666666666667,0.0666666666666667,1.03333333333333,7150.891536916,7151.512842375,13,7150.95840825,7151.024332291,7151.529984208,7152.556689041,1,0.621305458999814
105,45,3,categorization,0,bathroom,SHINEd_sun_amzlamotzwfkwjco.tif,37,0.0666666666666667,0.0666666666666667,1.31666666666667,7152.572948666,7153.436932875,13,7152.639917666,7152.706043708,7153.441262958,7154.751322708,1,0.863984208999682
105,46,3,categorization,0,kitchen,SHINEd_sun_abftihopvusyfakt.tif,71,0.0666666666666667,0.0666666666666667,1.7,7154.770643458,7156.062903333,9,7154.837661958,7154.903371166,7156.096938375,7157.790313416,1,1.29225987499922
105,47,3,categorization,0,kitchen,SHINEd_labelme_kxvouciolcpqplr.tif,62,0.0666666666666667,0.0666666666666667,1.35,7157.808044583,7159.405140916,13,7157.874747958,7157.9411475,7159.410536375,7160.753915291,0,1.59709633300008
105,48,3,categorization,0,bathroom,SHINEd_sun_afcoljnjfoxjtgja.tif,20,0.0666666666666667,0.0666666666666667,0.8,7160.772986791,7161.90879775,9,7160.83974825,7160.905788583,7161.928834375,7162.722172041,0,1.13581095900008
105,49,3,categorization,0,kitchen,SHINEd_sun_auaiucuqpdausiva.tif,102,0.0666666666666667,0.0666666666666667,0.766666666666667,7162.7278665,7163.516851125,13,7162.789729916,7162.85059175,7163.535691625,7164.295696833,0,0.788984625000012
105,50,3,categorization,0,kitchen,SHINEd_sun_aaxxjlsuzvqlgylf.tif,68,0.0666666666666667,0.0666666666666667,1.38333333333333,7164.302170916,7165.365687458,13,7164.363838833,7164.424903291,7165.376951125,7166.753656,0,1.06351654199989
105,1,4,categorization,0,kitchen,SHINEd_labelme_brsyyvweiuaazfr.tif,61,0.0666666666666667,0.0666666666666667,1,7185.881794791,7186.75749675,9,7185.944726875,7186.004603291,7186.773067083,7187.76640525,1,0.875701959000253
105,2,4,categorization,0,kitchen,SHINEd_sun_ahdycvpopffkzzsu.tif,90,0.0666666666666667,0.0666666666666667,0.966666666666667,7187.77123825,7188.57276025,9,7187.833012583,7187.893822916,7188.578960916,7189.538965208,1,0.80152199999975
105,3,4,categorization,0,kitchen,SHINEd_sun_agorklincwxrdtga.tif,87,0.0666666666666667,0.0666666666666667,1.75,7189.543859041,7190.1331835,9,7189.605488166,7189.666586958,7190.151843833,7191.895244916,1,0.589324458999727
105,4,4,categorization,0,bathroom,SHINEd_sun_acgyywnybuveqsro.tif,18,0.0666666666666667,0.0666666666666667,1.68333333333333,7191.913209125,7192.78673925,9,7191.979803625,7192.045981666,7192.80151325,7194.478243208,0,0.873530124999888
105,5,4,categorization,0,kitchen,SHINEd_sun_ahljzhgcdpomplvg.tif,91,0.0666666666666667,0.0666666666666667,1.58333333333333,7194.49299625,7194.858966833,13,7194.560316375,7194.625811583,7194.884038333,7196.460756125,0,0.36597058299958
105,6,4,categorization,0,kitchen,SHINEd_sun_aegoxogugdkwpmpj.tif,80,0.0666666666666667,0.0666666666666667,1,7196.479846,7196.768487458,13,7196.546611625,7196.612864458,7196.785479208,7197.778864458,0,0.288641457999802
105,7,4,categorization,0,kitchen,SHINEd_sun_aypmqwcualkenuoe.tif,109,0.0666666666666667,0.0666666666666667,1.33333333333333,7197.7893345,7198.828490416,9,7197.856298166,7197.921989958,7198.84068975,7200.167406541,1,1.0391559159998
105,8,4,categorization,0,kitchen,SHINEd_sun_admlmbcdswaszruo.tif,79,0.0666666666666667,0.0666666666666667,1.26666666666667,7200.188885666,7201.032962916,9,7200.256096791,7200.321700375,7201.061160125,7202.321212583,1,0.844077249999827
105,9,4,categorization,0,bathroom,SHINEd_sun_apkruvsevgegsdwp.tif,44,0.0666666666666667,0.0666666666666667,0.883333333333333,7202.338334708,7202.906519708,13,7202.40512,7202.4709815,7202.927278208,7203.80399225,1,0.568185000000085
105,10,4,categorization,0,bathroom,SHINEd_sun_anhioqovhscjqqwb.tif,38,0.0666666666666667,0.0666666666666667,1.26666666666667,7203.820414083,7204.221203916,13,7203.887125125,7203.953105708,7204.238994791,7205.499052875,1,0.40078983300009
105,11,4,categorization,0,kitchen,SHINEd_sun_agubuxuukhzyzpdp.tif,88,0.0666666666666667,0.0666666666666667,2,7205.51721175,7205.711060083,9,7205.584034541,7205.649855125,7205.720666958,7207.714032666,1,0.19384833300046
105,12,4,categorization,0,bathroom,SHINEd_sun_akiytfaagpdsphgz.tif,31,0.0666666666666667,0.0666666666666667,0.733333333333333,7207.726243,7208.021227375,13,7207.793139958,7207.858886625,7208.0486265,7208.775328375,1,0.29498437500024
105,13,4,categorization,0,kitchen,SHINEd_sun_abdxkyyxwfskuaqb.tif,70,0.0666666666666667,0.0666666666666667,0.883333333333333,7208.787935375,7209.094684958,9,7208.854132333,7208.920663791,7209.109788833,7209.986459958,1,0.306749582999146
105,14,4,categorization,0,kitchen,SHINEd_sun_akcjzhbbjlbogpdi.tif,99,0.0666666666666667,0.0666666666666667,0.983333333333333,7209.99181175,7210.180789041,13,7210.053466041,7210.114533291,7210.1996115,7211.176283083,0,0.188977290999901
105,15,4,categorization,0,kitchen,SHINEd_sun_ajcbwwvdlsvjyzje.tif,96,0.0666666666666667,0.0666666666666667,1.56666666666667,7211.181326625,7211.301362375,9,7211.243145083,7211.304128375,7211.322460166,7212.882522791,1,0.12003575000017
105,16,4,categorization,0,kitchen,SHINEd_sun_acgtpgfybqjmzeyw.tif,75,0.0666666666666667,0.0666666666666667,1.08333333333333,7212.899690166,7213.184835,13,7212.966208958,7213.032824583,7213.205962791,7214.282686875,0,0.285144833999766
105,17,4,categorization,0,kitchen,SHINEd_labelme_rykdqxenmhulbdn.tif,63,0.0666666666666667,0.0666666666666667,0.75,7214.299523458,7214.605442375,9,7214.366195041,7214.424169166,7214.609379625,7215.352718125,1,0.305918916999872
105,18,4,categorization,0,bathroom,SHINEd_sun_ahqjwnzgolcaoidx.tif,29,0.0666666666666667,0.0666666666666667,0.966666666666667,7215.357804,7215.908691708,9,7215.419543166,7215.48053525,7215.915851708,7216.875857583,0,0.550887708000118
105,19,4,categorization,0,bathroom,SHINEd_sun_ajlawzvmubibwbpy.tif,30,0.0666666666666667,0.0666666666666667,1.63333333333333,7216.880815083,7217.956975,13,7216.942532125,7217.003481916,7217.972044333,7219.598752958,1,1.07615991700004
105,20,4,categorization,0,bathroom,SHINEd_sun_auzqhkafidnkrwmo.tif,54,0.0666666666666667,0.0666666666666667,1.46666666666667,7219.617319416,7220.077920041,9,7219.683725458,7219.748961666,7220.106125458,7221.566183875,0,0.460600624999643
105,21,4,categorization,0,bathroom,SHINEd_sun_apynckhmoftszqoq.tif,47,0.0666666666666667,0.0666666666666667,0.933333333333333,7221.584814333,7221.989773291,13,7221.65143775,7221.7139155,7222.019642666,7222.946355458,1,0.404958957999952
105,22,4,categorization,0,bathroom,SHINEd_sun_ambriybtogmepttm.tif,36,0.0666666666666667,0.0666666666666667,1.45,7222.961864375,7223.277464416,9,7223.028436458,7223.094192416,7223.2962175,7224.739611666,0,0.315600040999925
105,23,4,categorization,0,kitchen,SHINEd_sun_akchetnepxlcxhsu.tif,98,0.0666666666666667,0.0666666666666667,0.966666666666667,7224.756503666,7225.053308666,13,7224.823599125,7224.889685208,7225.079512625,7226.039568583,0,0.296804999999949
105,24,4,categorization,0,kitchen,SHINEd_sun_auticobqsbwgoppi.tif,104,0.0666666666666667,0.0666666666666667,0.816666666666667,7226.056265666,7226.39774275,9,7226.123005916,7226.189021833,7226.408102708,7227.2181075,1,0.341477083999962
105,25,4,categorization,0,kitchen,SHINEd_sun_aapllqyqlykszopd.tif,66,0.0666666666666667,0.0666666666666667,1.96666666666667,7227.2236205,7227.972882708,13,7227.285289708,7227.346318208,7227.981490291,7229.94154075,0,0.749262207999891
105,26,4,categorization,0,bathroom,SHINEd_sun_acduarbnmmoglmiv.tif,16,0.0666666666666667,0.0666666666666667,0.916666666666667,7229.959340708,7230.55980225,9,7230.025859958,7230.091992958,7230.582302208,7231.492307416,0,0.600461541999721
105,27,4,categorization,0,bathroom,SHINEd_sun_ausgutylgojavyoq.tif,53,0.0666666666666667,0.0666666666666667,1.28333333333333,7231.498078541,7232.03667475,13,7231.559826083,7231.620728333,7232.055826958,7233.332540875,1,0.538596209000389
105,28,4,categorization,0,kitchen,SHINEd_sun_afuyedyxivkhecmu.tif,85,0.0666666666666667,0.0666666666666667,1.8,7233.34941625,7233.598009291,9,7233.415758791,7233.48225025,7233.62146325,7235.414844833,1,0.248593041000277
105,29,4,categorization,0,bathroom,SHINEd_sun_alotolagknyrgtsk.tif,35,0.0666666666666667,0.0666666666666667,1.33333333333333,7235.4331805,7235.709776708,13,7235.499426708,7235.565706666,7235.7372745,7237.063980375,1,0.276596208000228
105,30,4,categorization,0,kitchen,SHINEd_sun_aqeaevwwwjoqhzvl.tif,101,0.0666666666666667,0.0666666666666667,1.06666666666667,7237.081055166,7237.508957166,9,7237.146707666,7237.211379041,7237.513345125,7238.573395708,1,0.427902000000358
105,31,4,categorization,0,kitchen,SHINEd_sun_aamedkxepzlwuxes.tif,65,0.0666666666666667,0.0666666666666667,1.03333333333333,7238.585774125,7238.96629075,9,7238.650082333,7238.715684708,7238.987689791,7240.014408625,1,0.380516624999473
105,32,4,categorization,0,kitchen,SHINEd_sun_adgqasybjyktddhj.tif,78,0.0666666666666667,0.0666666666666667,0.733333333333333,7240.030463541,7240.328769708,9,7240.097077833,7240.162647541,7240.352657958,7241.079331166,1,0.298306167000192
105,33,4,categorization,0,bathroom,SHINEd_sun_ahcvzmoyaycdoftf.tif,27,0.0666666666666667,0.0666666666666667,0.766666666666667,7241.084667166,7241.484564125,9,7241.146419791,7241.207332875,7241.492628208,7242.252633875,0,0.399896959000216
105,34,4,categorization,0,bathroom,SHINEd_sun_aofnryafpsjimzsb.tif,40,0.0666666666666667,0.0666666666666667,1.1,7242.257362583,7243.100463833,9,7242.318995125,7242.380513583,7243.115717916,7244.209087416,0,0.843101249999563
105,35,4,categorization,0,bathroom,SHINEd_sun_agyqfjcfkdcydepw.tif,25,0.0666666666666667,0.0666666666666667,1.81666666666667,7244.218919541,7244.958449333,13,7244.283668541,7244.351588958,7244.974221041,7246.784259333,1,0.739529792000212
105,36,4,categorization,0,bathroom,SHINEd_sun_aggnnqpdorgxpvce.tif,21,0.0666666666666667,0.0666666666666667,0.883333333333333,7246.803386416,7248.156773875,9,7246.870127041,7246.935978125,7248.178722708,7249.055394333,0,1.35338745900026
105,37,4,categorization,0,bathroom,SHINEd_sun_aqrpegblszgcoujh.tif,48,0.0666666666666667,0.0666666666666667,1.7,7249.060793833,7249.852810166,13,7249.122620708,7249.183532875,7249.868671833,7251.562064666,1,0.792016332999992
105,38,4,categorization,0,kitchen,SHINEd_sun_aunzlwrbjumxhwdj.tif,103,0.0666666666666667,0.0666666666666667,1.58333333333333,7251.578750416,7252.317969375,9,7251.645446875,7251.709185458,7252.331407,7253.908132,1,0.739218959000027
105,39,4,categorization,0,kitchen,SHINEd_sun_azmutvzbxypaceni.tif,110,0.0666666666666667,0.0666666666666667,0.833333333333333,7253.926997583,7254.96459075,13,7253.993322916,7254.059503666,7254.982336708,7255.809006875,0,1.03759316699961
105,40,4,categorization,0,bathroom,SHINEd_sun_avhrdrntsqrjzccq.tif,55,0.0666666666666667,0.0666666666666667,0.95,7255.813879208,7256.660598791,9,7255.875669958,7255.936654833,7256.671943458,7257.615281333,0,0.846719582999867
105,41,4,categorization,0,kitchen,SHINEd_sun_amjjdeyrggfqgmom.tif,100,0.0666666666666667,0.0666666666666667,1.06666666666667,7257.619928666,7258.516318291,9,7257.681657166,7257.742654208,7258.527903208,7259.587961708,1,0.896389624999756
105,42,4,categorization,0,bathroom,SHINEd_sun_axldvoqbuvuggfmq.tif,57,0.0666666666666667,0.0666666666666667,1.68333333333333,7259.596799708,7259.977759,13,7259.6619165,7259.727703666,7260.000633041,7261.677354041,1,0.380959292000625
105,43,4,categorization,0,bathroom,SHINEd_sun_aavhrsfjbserjtht.tif,13,0.0666666666666667,0.0666666666666667,1.31666666666667,7261.691261125,7262.249299583,9,7261.756982625,7261.82446175,7262.263111,7263.573173,0,0.558038457999828
105,44,4,categorization,0,bathroom,SHINEd_sun_axxbkopsgyouuebh.tif,58,0.0666666666666667,0.0666666666666667,1.61666666666667,7263.59232275,7264.124184583,13,7263.659730583,7263.720465333,7264.139077916,7265.749139375,1,0.531861833000221
105,45,4,categorization,0,bathroom,SHINEd_sun_aoybiabnpadelefl.tif,41,0.0666666666666667,0.0666666666666667,1.15,7265.759486125,7266.24890325,13,7265.826170708,7265.892429541,7266.26485425,7267.408232041,1,0.489417124999818
105,46,4,categorization,0,bathroom,SHINEd_sun_azqyogdvyhahyram.tif,60,0.0666666666666667,0.0666666666666667,1.25,7267.425200458,7267.89228975,13,7267.491684916,7267.557821583,7267.914135666,7269.157525333,1,0.4670892919994
105,47,4,categorization,0,bathroom,SHINEd_sun_asfwthctfqerjvxr.tif,49,0.0666666666666667,0.0666666666666667,1.1,7269.173110875,7270.2926375,13,7269.239562708,7269.305829458,7270.307949291,7271.401331125,1,1.11952662499971
105,48,4,categorization,0,bathroom,SHINEd_sun_aghyqhbptboemmoq.tif,23,0.0666666666666667,0.0666666666666667,0.9,7271.412408166,7271.820140625,13,7271.477592,7271.544715166,7271.833655333,7272.727035458,1,0.407732458999817
105,49,4,categorization,0,kitchen,SHINEd_sun_acxkpeoqbwcxfvip.tif,77,0.0666666666666667,0.0666666666666667,1.3,7272.742526625,7273.069599708,9,7272.809118791,7272.875173666,7273.09802575,7274.391414041,1,0.327073082999959
105,50,4,categorization,0,kitchen,SHINEd_sun_abpwyqmlzafvklqo.tif,72,0.0666666666666667,0.0666666666666667,1.25,7274.409240458,7274.676800583,13,7274.475878666,7274.542137875,7274.69811475,7275.941489166,0,0.267560125000273
105,1,5,categorization,0,bathroom,SHINEd_sun_apmqjbnwghzuhhzh.tif,46,0.0666666666666667,0.0666666666666667,1.7,7285.696984583,7286.836892666,13,7285.758768416,7285.819759125,7286.85486,7288.548239125,1,1.13990808299968
105,2,5,categorization,0,bathroom,SHINEd_sun_alotolagknyrgtsk.tif,35,0.0666666666666667,0.0666666666666667,1.81666666666667,7288.5618385,7289.209004208,13,7288.628447708,7288.694752541,7289.234572708,7291.044628625,1,0.647165708000102
105,3,5,categorization,0,bathroom,SHINEd_sun_abjtwfukuwddzted.tif,15,0.0666666666666667,0.0666666666666667,1.23333333333333,7291.063118833,7291.839723583,9,7291.129572666,7291.195695375,7291.869006541,7293.095707375,0,0.776604749999933
105,4,5,categorization,0,kitchen,SHINEd_sun_auaiucuqpdausiva.tif,102,0.0666666666666667,0.0666666666666667,1.4,7293.112458208,7293.485793416,13,7293.17893575,7293.24501125,7293.500889916,7294.894280875,0,0.373335207999844
105,5,5,categorization,0,bathroom,SHINEd_sun_aofnryafpsjimzsb.tif,40,0.0666666666666667,0.0666666666666667,1.03333333333333,7294.911974833,7295.364434958,13,7294.978579041,7295.036137291,7295.371163166,7296.397872916,1,0.452460124999561
105,6,5,categorization,0,kitchen,SHINEd_sun_abdxkyyxwfskuaqb.tif,70,0.0666666666666667,0.0666666666666667,1.38333333333333,7296.409549958,7296.744933041,13,7296.474152083,7296.540737041,7296.76342625,7298.140153208,0,0.335383083000124
105,7,5,categorization,0,bathroom,SHINEd_sun_afcoljnjfoxjtgja.tif,20,0.0666666666666667,0.0666666666666667,2,7298.158721583,7298.436759125,13,7298.225469375,7298.291620041,7298.444197833,7300.437585208,1,0.278037541999765
105,8,5,categorization,0,kitchen,SHINEd_sun_ahdycvpopffkzzsu.tif,90,0.0666666666666667,0.0666666666666667,1.85,7300.454833666,7327.501003916,13,7300.52154625,7300.587552666,7327.52296,7329.366350416,0,27.0461702499997
105,9,5,categorization,0,bathroom,SHINEd_sun_aggnnqpdorgxpvce.tif,21,0.0666666666666667,0.0666666666666667,0.816666666666667,7329.386256041,7330.660363625,13,7329.453002958,7329.51914625,7330.671902041,7331.481905833,1,1.27410758400038
105,10,5,categorization,0,kitchen,SHINEd_sun_ajcbwwvdlsvjyzje.tif,96,0.0666666666666667,0.0666666666666667,1.85,7331.486631083,7332.396329041,13,7331.548347833,7331.609354291,7332.411288875,7334.254661083,0,0.909697957999924
105,11,5,categorization,0,kitchen,SHINEd_sun_aqeaevwwwjoqhzvl.tif,101,0.0666666666666667,0.0666666666666667,0.733333333333333,7334.272832708,7334.872960958,13,7334.339339333,7334.40612925,7334.896137875,7335.622810041,0,0.600128249999216
105,12,5,categorization,0,bathroom,SHINEd_sun_acegryoqftbzowsg.tif,17,0.0666666666666667,0.0666666666666667,0.716666666666667,7335.628297,7336.187909541,13,7335.689995291,7335.750964,7336.202863,7336.912868666,1,0.559612541000206
105,13,5,categorization,0,bathroom,SHINEd_sun_acgyywnybuveqsro.tif,18,0.0666666666666667,0.0666666666666667,0.833333333333333,7336.917853125,7337.308424375,13,7336.979614541,7337.040547875,7337.32559325,7338.152265375,1,0.390571249999994
105,14,5,categorization,0,bathroom,SHINEd_sun_aavhrsfjbserjtht.tif,13,0.0666666666666667,0.0666666666666667,0.95,7338.156830416,7338.556204083,9,7338.218490291,7338.279646833,7338.564814666,7339.508153166,0,0.399373666999963
105,15,5,categorization,0,bathroom,SHINEd_sun_ajlawzvmubibwbpy.tif,30,0.0666666666666667,0.0666666666666667,1.96666666666667,7339.512659958,7339.86024425,13,7339.574343791,7339.635416708,7339.870553958,7341.830616,1,0.347584291999738
105,16,5,categorization,0,bathroom,SHINEd_sun_apynckhmoftszqoq.tif,47,0.0666666666666667,0.0666666666666667,1.86666666666667,7341.848712458,7342.265895041,13,7341.915131208,7341.981235166,7342.287449833,7344.147498541,1,0.417182582999885
105,17,5,categorization,0,kitchen,SHINEd_sun_abrcnpqqhmjwekyf.tif,73,0.0666666666666667,0.0666666666666667,1.51666666666667,7344.16665625,7344.638764333,13,7344.23300325,7344.299351208,7344.655273416,7346.16530825,0,0.472108082999512
105,18,5,categorization,0,kitchen,SHINEd_sun_azmutvzbxypaceni.tif,110,0.0666666666666667,0.0666666666666667,1.3,7346.183234416,7346.676820333,13,7346.249605666,7346.315992833,7346.70542525,7347.99881775,0,0.493585917000019
105,19,5,categorization,0,kitchen,SHINEd_sun_aegoxogugdkwpmpj.tif,80,0.0666666666666667,0.0666666666666667,1.91666666666667,7348.013594833,7348.933364541,13,7348.080195541,7348.146013458,7348.95220975,7350.862255541,0,0.919769707999876
105,20,5,categorization,0,kitchen,SHINEd_labelme_brsyyvweiuaazfr.tif,61,0.0666666666666667,0.0666666666666667,1.23333333333333,7350.877849208,7351.954165083,9,7350.944388458,7351.010430416,7351.984765791,7353.211495333,1,1.07631587499964
105,21,5,categorization,0,kitchen,SHINEd_sun_aamedkxepzlwuxes.tif,65,0.0666666666666667,0.0666666666666667,0.866666666666667,7353.227027958,7353.852436208,13,7353.293716083,7353.359843083,7353.86561025,7354.725673375,0,0.625408249999964
105,22,5,categorization,0,kitchen,SHINEd_sun_acxkpeoqbwcxfvip.tif,77,0.0666666666666667,0.0666666666666667,0.8,7354.738894375,7355.620732708,13,7354.8055405,7354.871590458,7355.640531916,7356.433870333,0,0.881838332999905
105,23,5,categorization,0,bathroom,SHINEd_sun_aclfzgynxzxlbepz.tif,19,0.0666666666666667,0.0666666666666667,1.51666666666667,7356.438886625,7357.892133375,13,7356.500634291,7356.56160475,7357.897450666,7359.407509833,1,1.45324675000029
105,24,5,categorization,0,bathroom,SHINEd_sun_ahijqszoswveeyji.tif,28,0.0666666666666667,0.0666666666666667,1.18333333333333,7359.424634916,7360.573625083,13,7359.492816458,7359.557310458,7360.597381541,7361.774107333,1,1.14899016699928
105,25,5,categorization,0,kitchen,SHINEd_sun_aixorpehvfykdynp.tif,95,0.0666666666666667,0.0666666666666667,1.6,7361.786478875,7362.529392916,9,7361.851298541,7361.919310041,7362.559355541,7364.152745375,1,0.742914040999494
105,26,5,categorization,0,bathroom,SHINEd_sun_acduarbnmmoglmiv.tif,16,0.0666666666666667,0.0666666666666667,1.56666666666667,7364.169417458,7364.749018,9,7364.236103208,7364.3019995,7364.775064708,7366.335106041,0,0.579600542000662
105,27,5,categorization,0,kitchen,SHINEd_sun_abpwyqmlzafvklqo.tif,72,0.0666666666666667,0.0666666666666667,1.36666666666667,7366.352812791,7366.783752916,13,7366.419623166,7366.485736333,7366.808555708,7368.168589708,0,0.430940124999324
105,28,5,categorization,0,kitchen,SHINEd_sun_ahljzhgcdpomplvg.tif,91,0.0666666666666667,0.0666666666666667,1.53333333333333,7368.185983666,7369.035828666,13,7368.252174958,7368.318654458,7369.057774291,7370.584488583,0,0.849845000000641
105,29,5,categorization,0,bathroom,SHINEd_sun_apjevzvycyhuqghb.tif,43,0.0666666666666667,0.0666666666666667,1.4,7370.602874625,7371.320565541,13,7370.669361958,7370.735755625,7371.341772166,7372.735157625,1,0.71769091599981
105,30,5,categorization,0,kitchen,SHINEd_sun_aggjlwcdjsjcaemh.tif,86,0.0666666666666667,0.0666666666666667,1.06666666666667,7372.75306025,7373.216086041,13,7372.820183875,7372.886064166,7373.242614041,7374.302653083,0,0.463025791000291
105,31,5,categorization,0,bathroom,SHINEd_sun_ahqjwnzgolcaoidx.tif,29,0.0666666666666667,0.0666666666666667,1.63333333333333,7374.319611458,7374.764827291,13,7374.386606666,7374.44392075,7374.779438791,7376.406145791,1,0.445215833000475
105,32,5,categorization,0,kitchen,SHINEd_sun_aypmqwcualkenuoe.tif,109,0.0666666666666667,0.0666666666666667,1.8,7376.421889291,7376.728698708,13,7376.487425291,7376.554858833,7376.74396525,7378.537344541,0,0.306809416999386
105,33,5,categorization,0,bathroom,SHINEd_sun_aljolscmmzydegqp.tif,33,0.0666666666666667,0.0666666666666667,1.53333333333333,7378.554984125,7379.070135041,13,7378.622032666,7378.68747975,7379.093970958,7380.620680583,1,0.515150915999584
105,34,5,categorization,0,bathroom,SHINEd_sun_ambriybtogmepttm.tif,36,0.0666666666666667,0.0666666666666667,0.766666666666667,7380.637687583,7381.007580958,9,7380.704313625,7380.770442708,7381.026487583,7381.786541625,0,0.369893375000174
105,35,5,categorization,0,kitchen,SHINEd_sun_aeqdocilnnpuvuhx.tif,83,0.0666666666666667,0.0666666666666667,1.86666666666667,7381.802069416,7382.372609583,9,7381.868690083,7381.934925791,7382.387150125,7384.2471955,1,0.570540166999308
105,36,5,categorization,0,bathroom,SHINEd_sun_awnqiikzaispgmwo.tif,56,0.0666666666666667,0.0666666666666667,1.13333333333333,7384.265031291,7384.744473125,9,7384.331559458,7384.397527708,7384.770651416,7385.897377416,0,0.479441833999772
105,37,5,categorization,0,bathroom,SHINEd_sun_asfwthctfqerjvxr.tif,49,0.0666666666666667,0.0666666666666667,1.73333333333333,7385.905960541,7386.369194708,9,7385.971025375,7386.038661458,7386.394463125,7388.121188166,0,0.463234166999428
105,38,5,categorization,0,kitchen,SHINEd_sun_avszsnwsbuqfgzbn.tif,105,0.0666666666666667,0.0666666666666667,0.766666666666667,7388.135923916,7394.066077041,13,7388.202724125,7388.268608416,7394.088215875,7394.848219875,0,5.93015312500029
105,39,5,categorization,0,bathroom,SHINEd_sun_axxbkopsgyouuebh.tif,58,0.0666666666666667,0.0666666666666667,1.85,7394.852630791,7395.76402725,13,7394.914296958,7394.975331458,7395.777098541,7397.620488083,1,0.911396459000571
105,40,5,categorization,0,bathroom,SHINEd_sun_alkosphxlxwjwgjd.tif,34,0.0666666666666667,0.0666666666666667,0.966666666666667,7397.638049916,7399.108452041,13,7397.703061625,7397.768772166,7399.121166291,7400.081169541,1,1.47040212499996
105,41,5,categorization,0,kitchen,SHINEd_labelme_kxvouciolcpqplr.tif,62,0.0666666666666667,0.0666666666666667,1.06666666666667,7400.086380333,7401.532520291,13,7400.148188833,7400.2092785,7401.544741708,7402.604788291,0,1.44613995799955
105,42,5,categorization,0,bathroom,SHINEd_sun_abapwbhyhkfixyex.tif,14,0.0666666666666667,0.0666666666666667,1.38333333333333,7402.615092541,7403.710266291,9,7402.67990625,7402.745768583,7403.733434708,7405.110139125,0,1.09517374999996
105,43,5,categorization,0,kitchen,SHINEd_sun_aarfiyshqohlwkmo.tif,67,0.0666666666666667,0.0666666666666667,0.766666666666667,7405.126071875,7405.885697791,9,7405.19386675,7405.258980458,7405.914262625,7406.674317541,1,0.759625916000005
105,44,5,categorization,0,kitchen,SHINEd_sun_aymvwlarqodbwuoc.tif,108,0.0666666666666667,0.0666666666666667,0.866666666666667,7406.690190875,7407.667936375,9,7406.755310333,7406.814223708,7407.683032125,7408.543038333,1,0.97774550000031
105,45,5,categorization,0,kitchen,SHINEd_sun_agubuxuukhzyzpdp.tif,88,0.0666666666666667,0.0666666666666667,1.25,7408.54794725,7409.628536791,9,7408.60972175,7408.670688875,7409.63981325,7410.883202708,1,1.08058954100034
105,46,5,categorization,0,bathroom,SHINEd_sun_aoybiabnpadelefl.tif,41,0.0666666666666667,0.0666666666666667,1.03333333333333,7410.899919791,7412.478103208,9,7410.968491416,7411.032628875,7412.507765541,7413.534473958,0,1.57818341700022
105,47,5,categorization,0,kitchen,SHINEd_sun_abftihopvusyfakt.tif,71,0.0666666666666667,0.0666666666666667,0.783333333333333,7413.546312375,7414.556934208,9,7413.6106525,7413.677416875,7414.583991291,7415.360713458,1,1.01062183300019
105,48,5,categorization,0,bathroom,SHINEd_sun_agguqiubmwhqqunb.tif,22,0.0666666666666667,0.0666666666666667,0.7,7415.377383291,7416.211625583,9,7415.44402,7415.509697041,7416.228439791,7416.921778083,0,0.834242291999544
105,49,5,categorization,0,bathroom,SHINEd_sun_akiytfaagpdsphgz.tif,31,0.0666666666666667,0.0666666666666667,1.75,7416.926622166,7418.195720875,9,7416.988513666,7417.049383458,7418.201484083,7419.9448795,0,1.26909870899999
105,50,5,categorization,0,kitchen,SHINEd_sun_afuyedyxivkhecmu.tif,85,0.0666666666666667,0.0666666666666667,1.36666666666667,7419.961338916,7421.005539625,13,7420.029024,7420.094021291,7421.033758041,7422.393815041,0,1.0442007089996
105,1,6,categorization,0,bathroom,SHINEd_sun_atstyziqcmkahyxk.tif,51,0.0666666666666667,0.0666666666666667,0.966666666666667,7432.389353291,7433.90769525,9,7432.451846,7432.512212083,7433.914601416,7434.874606625,0,1.51834195900028
105,2,6,categorization,0,bathroom,SHINEd_sun_axldvoqbuvuggfmq.tif,57,0.0666666666666667,0.0666666666666667,1.73333333333333,7434.879387916,7436.300580416,13,7434.94128725,7435.00207175,7436.304583708,7438.031284083,1,1.42119249999996
105,3,6,categorization,0,kitchen,SHINEd_sun_agorklincwxrdtga.tif,87,0.0666666666666667,0.0666666666666667,1.91666666666667,7438.045881125,7438.767493625,13,7438.112601958,7438.178227791,7438.784202875,7440.694260458,0,0.721612499999537
105,4,6,categorization,0,kitchen,SHINEd_sun_ahywdevtimnqcsln.tif,94,0.0666666666666667,0.0666666666666667,0.766666666666667,7440.712933541,7441.987585416,9,7440.779571375,7440.845646166,7441.998027041,7442.758031333,1,1.27465187500002
105,5,6,categorization,0,bathroom,SHINEd_labelme_sfxiulhjbhlyiyt.tif,11,0.0666666666666667,0.0666666666666667,0.916666666666667,7442.762667,7444.020527166,9,7442.8248345,7442.885339041,7444.037401125,7444.947404958,0,1.25786016599977
105,6,6,categorization,0,bathroom,SHINEd_sun_agyqfjcfkdcydepw.tif,25,0.0666666666666667,0.0666666666666667,1.18333333333333,7444.952017708,7446.452418041,9,7445.013764,7445.0747155,7446.460152791,7447.63686925,0,1.50040033299956
105,7,6,categorization,0,kitchen,SHINEd_sun_aadbddgrdsjugojn.tif,64,0.0666666666666667,0.0666666666666667,1.8,7447.651731666,7448.696624375,13,7447.71637225,7447.781498291,7448.721936833,7450.515329458,0,1.04489270900012
105,8,6,categorization,0,bathroom,SHINEd_sun_apeeialkgkuxddgh.tif,42,0.0666666666666667,0.0666666666666667,0.883333333333333,7450.537688,7451.339800666,13,7450.604841166,7450.670687041,7451.360637416,7452.237309291,1,0.80211266599963
105,9,6,categorization,0,kitchen,SHINEd_sun_aexklacwqwezaorf.tif,84,0.0666666666666667,0.0666666666666667,1.83333333333333,7452.242664083,7453.05158825,13,7452.304426916,7452.365432833,7453.067199458,7454.8939025,0,0.808924167000441
105,10,6,categorization,0,bathroom,SHINEd_sun_axyrejkiiaqiurjk.tif,59,0.0666666666666667,0.0666666666666667,1.76666666666667,7454.910874625,7455.860035208,13,7454.977337541,7455.043743625,7455.883519166,7457.643581041,1,0.949160582999866
105,11,6,categorization,0,kitchen,SHINEd_sun_auticobqsbwgoppi.tif,104,0.0666666666666667,0.0666666666666667,0.983333333333333,7457.657131166,7458.238321041,13,7457.721349208,7457.7894555,7458.263032875,7459.23970475,0,0.581189874999836
105,12,6,categorization,0,kitchen,SHINEd_sun_admlmbcdswaszruo.tif,79,0.0666666666666667,0.0666666666666667,0.883333333333333,7459.245242208,7460.243818375,13,7459.306914083,7459.367966625,7460.253090541,7461.12976,0,0.998576167000465
105,13,6,categorization,0,kitchen,SHINEd_sun_acfmftudsenhrfhy.tif,74,0.0666666666666667,0.0666666666666667,0.85,7461.13456825,7462.188149791,9,7461.196328333,7461.257217916,7462.192747833,7463.036086125,1,1.05358154100031
105,14,6,categorization,0,kitchen,SHINEd_sun_ajkqhtgcbgpcwrwn.tif,97,0.0666666666666667,0.0666666666666667,0.733333333333333,7463.04113675,7463.732301708,13,7463.102736291,7463.163851625,7463.74903975,7464.475710041,0,0.691164957999717
105,15,6,categorization,0,bathroom,SHINEd_sun_aapitsgbtktqubfy.tif,12,0.0666666666666667,0.0666666666666667,1.88333333333333,7464.48064675,7466.179622375,13,7464.542633791,7464.603279833,7466.188878375,7468.065594125,1,1.69897562499955
105,16,6,categorization,0,bathroom,SHINEd_sun_apkruvsevgegsdwp.tif,44,0.0666666666666667,0.0666666666666667,0.816666666666667,7468.083344375,7469.192004875,9,7468.150129083,7468.215928166,7469.222467916,7470.032473041,0,1.10866050000004
105,17,6,categorization,0,kitchen,SHINEd_sun_adgqasybjyktddhj.tif,78,0.0666666666666667,0.0666666666666667,1.9,7470.03716275,7470.819419791,13,7470.0991005,7470.159913166,7470.828282791,7472.721654875,0,0.782257040999866
105,18,6,categorization,0,bathroom,SHINEd_sun_aqrpegblszgcoujh.tif,48,0.0666666666666667,0.0666666666666667,0.983333333333333,7472.740099125,7474.092253125,13,7472.806673916,7472.872865916,7474.108812416,7475.085482291,1,1.35215400000016
105,19,6,categorization,0,bathroom,SHINEd_sun_azqyogdvyhahyram.tif,60,0.0666666666666667,0.0666666666666667,0.75,7475.090406708,7476.028169666,13,7475.152045541,7475.213023708,7476.031416875,7476.774755041,1,0.937762958000349
105,20,6,categorization,0,kitchen,SHINEd_sun_ahspylgoovwmwvgk.tif,93,0.0666666666666667,0.0666666666666667,1.6,7476.779755958,7477.755922166,13,7476.841409625,7476.902357375,7477.77085275,7479.364243375,0,0.976166207999995
105,21,6,categorization,0,bathroom,SHINEd_sun_ausgutylgojavyoq.tif,53,0.0666666666666667,0.0666666666666667,1.58333333333333,7479.38203025,7480.317817541,13,7479.448282416,7479.514945125,7480.33791825,7481.914627416,1,0.935787291000452
105,22,6,categorization,0,kitchen,SHINEd_sun_acwjdupvyjsugpay.tif,76,0.0666666666666667,0.0666666666666667,1.11666666666667,7481.932214125,7482.585555541,9,7481.998607541,7482.065174166,7482.604878833,7483.714932625,1,0.653341415999421
105,23,6,categorization,0,kitchen,SHINEd_sun_ahpczsiumwwocjkv.tif,92,0.0666666666666667,0.0666666666666667,1.53333333333333,7483.724738041,7484.289245875,9,7483.789591916,7483.856080083,7484.312364625,7485.839084791,1,0.564507834000324
105,24,6,categorization,0,kitchen,SHINEd_sun_abdenxonkemggwsq.tif,69,0.0666666666666667,0.0666666666666667,1.48333333333333,7485.855748166,7487.004954666,13,7485.922390458,7485.988678916,7487.029052916,7488.505764041,0,1.14920650000022
105,25,6,categorization,0,kitchen,SHINEd_sun_awcpdzzznmweyyhv.tif,106,0.0666666666666667,0.0666666666666667,1.1,7488.522100875,7489.480927916,13,7488.589188958,7488.654557291,7489.510896333,7490.604299583,0,0.958827040999495
105,26,6,categorization,0,kitchen,SHINEd_sun_agzzivivdpnawacl.tif,89,0.0666666666666667,0.0666666666666667,0.933333333333333,7490.614813083,7491.228048458,13,7490.67977725,7490.747393625,7491.253882916,7492.180604,0,0.613235374999931
105,27,6,categorization,0,kitchen,SHINEd_sun_aehawpgmrlhlvcow.tif,81,0.0666666666666667,0.0666666666666667,0.816666666666667,7492.196885583,7492.844316958,13,7492.263430958,7492.329359583,7492.848263875,7493.658269541,0,0.647431374999542
105,28,6,categorization,0,bathroom,SHINEd_sun_ahcvzmoyaycdoftf.tif,27,0.0666666666666667,0.0666666666666667,1.78333333333333,7493.663160916,7494.355999125,13,7493.724739291,7493.785874458,7494.370913916,7496.147631666,1,0.692838209000001
105,29,6,categorization,0,bathroom,SHINEd_sun_amzlamotzwfkwjco.tif,37,0.0666666666666667,0.0666666666666667,0.766666666666667,7496.165734791,7496.701601791,13,7496.232279875,7496.299386416,7496.72253375,7497.482587125,1,0.535866999999598
105,30,6,categorization,0,kitchen,SHINEd_sun_akchetnepxlcxhsu.tif,98,0.0666666666666667,0.0666666666666667,1.45,7497.489040458,7498.923227416,13,7497.550739166,7497.611737083,7498.930514125,7500.373904458,0,1.43418695800028
105,31,6,categorization,0,bathroom,SHINEd_sun_anhioqovhscjqqwb.tif,38,0.0666666666666667,0.0666666666666667,0.75,7500.392315916,7501.49674725,9,7500.459350083,7500.524626375,7501.513874083,7502.257212458,0,1.10443133399986
105,32,6,categorization,0,kitchen,SHINEd_sun_aunzlwrbjumxhwdj.tif,103,0.0666666666666667,0.0666666666666667,1.36666666666667,7502.262032875,7503.571529375,9,7502.323804708,7502.384687166,7503.586948791,7504.946996208,1,1.30949650000002
105,33,6,categorization,0,bathroom,SHINEd_sun_ahaulkltgpkeeemi.tif,26,0.0666666666666667,0.0666666666666667,0.75,7504.965134833,7506.000483958,9,7505.031481,7505.097585666,7506.020576625,7506.763914458,0,1.03534912499981
105,34,6,categorization,0,kitchen,SHINEd_sun_axyyrmzcupyhlivc.tif,107,0.0666666666666667,0.0666666666666667,0.783333333333333,7506.769543041,7507.987357833,9,7506.831193708,7506.892180875,7507.994434291,7508.771104833,1,1.21781479199944
105,35,6,categorization,0,kitchen,SHINEd_sun_akcjzhbbjlbogpdi.tif,99,0.0666666666666667,0.0666666666666667,1.11666666666667,7508.775661458,7509.996216708,13,7508.837319208,7508.898369416,7510.000763041,7511.11081175,0,1.22055524999996
105,36,6,categorization,0,kitchen,SHINEd_sun_amjjdeyrggfqgmom.tif,100,0.0666666666666667,0.0666666666666667,0.766666666666667,7511.120397916,7513.056838666,13,7511.185165333,7511.253091875,7513.078004541,7513.838008375,0,1.93644074999975
105,37,6,categorization,0,kitchen,SHINEd_sun_aapllqyqlykszopd.tif,66,0.0666666666666667,0.0666666666666667,0.716666666666667,7513.84301225,7515.795344,9,7513.904845875,7513.965851458,7515.801333375,7516.511337458,1,1.95233174999976
105,38,6,categorization,0,bathroom,SHINEd_sun_aspsyogrekjtfozg.tif,50,0.0666666666666667,0.0666666666666667,1.33333333333333,7516.517162416,7517.459607208,13,7516.5789855,7516.639849875,7517.474941416,7518.801658833,1,0.94244479200006
105,39,6,categorization,0,bathroom,SHINEd_sun_auzqhkafidnkrwmo.tif,54,0.0666666666666667,0.0666666666666667,1.75,7518.820757375,7519.445086625,9,7518.887075458,7518.953798958,7519.458147958,7521.20152325,0,0.624329250000301
105,40,6,categorization,0,bathroom,SHINEd_sun_aunuadmjocsddsrl.tif,52,0.0666666666666667,0.0666666666666667,1.13333333333333,7521.213778541,7521.67171675,9,7521.280079458,7521.3462415,7521.684930916,7522.811658458,0,0.457938209000531
105,41,6,categorization,0,kitchen,SHINEd_sun_aenotlpyftoioydp.tif,82,0.0666666666666667,0.0666666666666667,1.63333333333333,7522.8257505,7523.436216916,9,7522.8923955,7522.958283125,7523.464723,7525.091440541,1,0.610466416000236
105,42,6,categorization,0,kitchen,SHINEd_labelme_rykdqxenmhulbdn.tif,63,0.0666666666666667,0.0666666666666667,1.43333333333333,7525.110514833,7525.633783333,13,7525.177088291,7525.243311375,7525.649506458,7527.076218375,0,0.523268500000086
105,43,6,categorization,0,bathroom,SHINEd_sun_aleqenyvunhactkl.tif,32,0.0666666666666667,0.0666666666666667,1.83333333333333,7527.094275625,7527.616354333,13,7527.160949458,7527.22699225,7527.632726833,7529.459454916,1,0.522078708000663
105,44,6,categorization,0,bathroom,SHINEd_sun_anryaplzeujmzfkd.tif,39,0.0666666666666667,0.0666666666666667,1.93333333333333,7529.477711416,7530.133437333,9,7529.544353708,7529.610272,7530.149363291,7532.076082875,0,0.655725917000382
105,45,6,categorization,0,bathroom,SHINEd_sun_apkxzenqapsujocq.tif,45,0.0666666666666667,0.0666666666666667,1.26666666666667,7532.094439625,7532.987308458,13,7532.160875875,7532.226797958,7533.016582833,7534.276617708,1,0.892868833000648
105,46,6,categorization,0,bathroom,SHINEd_sun_avhrdrntsqrjzccq.tif,55,0.0666666666666667,0.0666666666666667,1.86666666666667,7534.29467225,7534.983458708,13,7534.362728041,7534.427290875,7534.999469875,7536.859531666,1,0.688786458000322
105,47,6,categorization,0,kitchen,SHINEd_sun_aaxxjlsuzvqlgylf.tif,68,0.0666666666666667,0.0666666666666667,1.41666666666667,7536.877007083,7538.016353833,9,7536.943696458,7537.009775625,7538.032525625,7539.442562083,1,1.13934675000019
105,48,6,categorization,0,bathroom,SHINEd_sun_aghyqhbptboemmoq.tif,23,0.0666666666666667,0.0666666666666667,1.11666666666667,7539.4602065,7540.114882375,13,7539.5268025,7539.593016416,7540.132590375,7541.242631416,1,0.654675875000066
105,49,6,categorization,0,bathroom,SHINEd_sun_agrwbmhcpmfuwmsg.tif,24,0.0666666666666667,0.0666666666666667,1.8,7541.253521416,7542.133965708,9,7541.318656833,7541.386542583,7542.159886416,7543.953277791,0,0.880444291999993
105,50,6,categorization,0,kitchen,SHINEd_sun_acgtpgfybqjmzeyw.tif,75,0.0666666666666667,0.0666666666666667,1.25,7543.970683166,7544.62342,13,7544.037430875,7544.103413541,7544.642940666,7545.886333166,0,0.652736834000279
105,1,7,categorization,0,bathroom,SHINEd_sun_ahaulkltgpkeeemi.tif,26,0.0666666666666667,0.0666666666666667,0.883333333333333,7590.087774291,7592.515454125,13,7590.150654083,7590.210919458,7592.529810458,7593.406481,1,2.42767983400063
105,2,7,categorization,0,kitchen,SHINEd_sun_azmutvzbxypaceni.tif,110,0.0666666666666667,0.0666666666666667,1.03333333333333,7593.411235041,7594.154822416,13,7593.472976166,7593.533905583,7594.168969083,7595.195692458,0,0.743587375000061
105,3,7,categorization,0,bathroom,SHINEd_sun_atstyziqcmkahyxk.tif,51,0.0666666666666667,0.0666666666666667,1.06666666666667,7595.2073945,7596.309471208,13,7595.272219083,7595.338491541,7596.328870125,7597.388913416,1,1.10207670799991
105,4,7,categorization,0,bathroom,SHINEd_sun_aofnryafpsjimzsb.tif,40,0.0666666666666667,0.0666666666666667,0.833333333333333,7597.398230208,7598.452484166,13,7597.462822458,7597.529386458,7598.468260958,7599.2949855,1,1.05425395800012
105,5,7,categorization,0,bathroom,SHINEd_sun_anhioqovhscjqqwb.tif,38,0.0666666666666667,0.0666666666666667,0.716666666666667,7599.311109166,7600.706778375,13,7599.377852208,7599.443766166,7600.712665791,7601.422670875,1,1.39566920899961
105,6,7,categorization,0,kitchen,SHINEd_sun_aamedkxepzlwuxes.tif,65,0.0666666666666667,0.0666666666666667,0.733333333333333,7601.427315291,7602.346884541,13,7601.489177,7601.550047708,7602.351867666,7603.0785385,0,0.919569249999768
105,7,7,categorization,0,bathroom,SHINEd_sun_alkosphxlxwjwgjd.tif,34,0.0666666666666667,0.0666666666666667,1.38333333333333,7603.083501458,7604.091009,13,7603.145275708,7603.206201333,7604.108163875,7605.484876083,1,1.00750754199998
105,8,7,categorization,0,kitchen,SHINEd_sun_abrcnpqqhmjwekyf.tif,73,0.0666666666666667,0.0666666666666667,0.9,7605.502074583,7606.253125208,9,7605.568718125,7605.634910708,7606.275267291,7607.168607458,1,0.751050625000062
105,9,7,categorization,0,bathroom,SHINEd_sun_ahijqszoswveeyji.tif,28,0.0666666666666667,0.0666666666666667,0.816666666666667,7607.174380833,7607.923512166,9,7607.236035708,7607.297135666,7607.932268791,7608.742273625,0,0.74913133300015
105,10,7,categorization,0,kitchen,SHINEd_sun_auaiucuqpdausiva.tif,102,0.0666666666666667,0.0666666666666667,0.85,7608.747152125,7610.011826083,9,7608.808879125,7608.869791208,7610.022039458,7610.865377541,1,1.26467395800046
105,11,7,categorization,0,bathroom,SHINEd_sun_axxbkopsgyouuebh.tif,58,0.0666666666666667,0.0666666666666667,1.6,7610.869940666,7612.563760583,9,7610.931663458,7610.992612208,7612.578478708,7614.171856,0,1.69381991699993
105,12,7,categorization,0,bathroom,SHINEd_sun_akiytfaagpdsphgz.tif,31,0.0666666666666667,0.0666666666666667,1.75,7614.185134291,7615.415570333,13,7614.249227958,7614.314956666,7615.441311375,7617.184696458,1,1.23043604199938
105,13,7,categorization,0,kitchen,SHINEd_sun_acxkpeoqbwcxfvip.tif,77,0.0666666666666667,0.0666666666666667,1.1,7617.203326291,7617.929173041,13,7617.270516708,7617.336285708,7617.960310875,7619.053691041,0,0.725846749999619
105,14,7,categorization,0,kitchen,SHINEd_sun_aqeaevwwwjoqhzvl.tif,101,0.0666666666666667,0.0666666666666667,1.46666666666667,7619.064591458,7621.5556085,13,7619.129355208,7619.197144083,7621.56638675,7623.026439,0,2.49101704199984
105,15,7,categorization,0,kitchen,SHINEd_sun_aarfiyshqohlwkmo.tif,67,0.0666666666666667,0.0666666666666667,1.25,7623.043635625,7624.10503625,9,7623.111766791,7623.176725208,7624.131731916,7625.375108416,1,1.06140062499981
105,16,7,categorization,0,kitchen,SHINEd_sun_admlmbcdswaszruo.tif,79,0.0666666666666667,0.0666666666666667,1.13333333333333,7625.393674458,7626.6611185,13,7625.462285916,7625.524799375,7626.68465975,7627.811373458,0,1.26744404200053
105,17,7,categorization,0,kitchen,SHINEd_sun_aaxxjlsuzvqlgylf.tif,68,0.0666666666666667,0.0666666666666667,1.33333333333333,7627.821251791,7628.898932166,13,7627.886258208,7627.954343875,7628.928733458,7630.25546,0,1.07768037500045
105,18,7,categorization,0,bathroom,SHINEd_sun_acduarbnmmoglmiv.tif,16,0.0666666666666667,0.0666666666666667,1.86666666666667,7630.27443625,7631.517848166,13,7630.342147833,7630.407459875,7631.549931333,7633.409984,1,1.24341191599979
105,19,7,categorization,0,bathroom,SHINEd_sun_azqyogdvyhahyram.tif,60,0.0666666666666667,0.0666666666666667,1.58333333333333,7633.428805791,7634.485179875,13,7633.495976083,7633.561711041,7634.499976291,7636.076697541,1,1.0563740839998
105,20,7,categorization,0,kitchen,SHINEd_sun_ahywdevtimnqcsln.tif,94,0.0666666666666667,0.0666666666666667,1.05,7636.095484458,7637.250741708,13,7636.1627745,7636.228266083,7637.267557833,7638.310946833,0,1.15525724999952
105,21,7,categorization,0,kitchen,SHINEd_sun_aypmqwcualkenuoe.tif,109,0.0666666666666667,0.0666666666666667,0.9,7638.324395166,7639.211019708,9,7638.390182458,7638.455696666,7639.227336583,7640.120710791,1,0.886624542000391
105,22,7,categorization,0,bathroom,SHINEd_sun_aclfzgynxzxlbepz.tif,19,0.0666666666666667,0.0666666666666667,0.7,7640.138970083,7640.955233875,9,7640.205983625,7640.27194425,7640.974195291,7641.667534083,0,0.816263792000427
105,23,7,categorization,0,kitchen,SHINEd_sun_agubuxuukhzyzpdp.tif,88,0.0666666666666667,0.0666666666666667,0.933333333333333,7641.672361583,7642.347670583,13,7641.734045666,7641.794975416,7642.363456416,7643.290128,0,0.675309000000198
105,24,7,categorization,0,bathroom,SHINEd_sun_avhrdrntsqrjzccq.tif,55,0.0666666666666667,0.0666666666666667,1.95,7643.295112958,7643.971323208,9,7643.356736208,7643.417809291,7643.986179916,7645.929547416,0,0.676210250000622
105,25,7,categorization,0,bathroom,SHINEd_sun_ahqjwnzgolcaoidx.tif,29,0.0666666666666667,0.0666666666666667,1.06666666666667,7645.947821,7647.314671666,13,7646.014216041,7646.080359041,7647.332709375,7648.392753791,1,1.36685066600057
105,26,7,categorization,0,kitchen,SHINEd_sun_abdxkyyxwfskuaqb.tif,70,0.0666666666666667,0.0666666666666667,1.2,7648.405212875,7649.287126625,9,7648.470278791,7648.534858166,7649.307918625,7650.501308125,1,0.881913750000422
105,27,7,categorization,0,kitchen,SHINEd_sun_abpwyqmlzafvklqo.tif,72,0.0666666666666667,0.0666666666666667,0.75,7650.510898375,7651.365312208,9,7650.575765375,7650.643384333,7651.382195,7652.125580416,1,0.854413833000763
105,28,7,categorization,0,bathroom,SHINEd_sun_ajlawzvmubibwbpy.tif,30,0.0666666666666667,0.0666666666666667,0.816666666666667,7652.139160958,7652.770862833,9,7652.205974708,7652.271599333,7652.790666333,7653.600672041,0,0.631701875000545
105,29,7,categorization,0,bathroom,SHINEd_sun_abjtwfukuwddzted.tif,15,0.0666666666666667,0.0666666666666667,1.96666666666667,7653.605413583,7654.89954525,13,7653.667168041,7653.728057,7654.913931041,7656.873972333,1,1.29413166700033
105,30,7,categorization,0,kitchen,SHINEd_sun_aadbddgrdsjugojn.tif,64,0.0666666666666667,0.0666666666666667,1.2,7656.890835583,7657.580766916,9,7656.957563416,7657.023559708,7657.596076208,7658.789472041,1,0.689931333000459
105,31,7,categorization,0,bathroom,SHINEd_sun_aunuadmjocsddsrl.tif,52,0.0666666666666667,0.0666666666666667,0.883333333333333,7658.80095325,7659.716192916,9,7658.868127375,7658.93374025,7659.738555333,7660.615233666,0,0.915239666000161
105,32,7,categorization,0,kitchen,SHINEd_sun_ajkqhtgcbgpcwrwn.tif,97,0.0666666666666667,0.0666666666666667,1.33333333333333,7660.621395541,7661.579430458,13,7660.683146,7660.744554125,7661.596262708,7662.922983041,0,0.958034917000077
105,33,7,categorization,0,kitchen,SHINEd_sun_axyyrmzcupyhlivc.tif,107,0.0666666666666667,0.0666666666666667,1.45,7662.940927,7663.805056791,13,7663.007433333,7663.073433791,7663.829564,7665.272934583,0,0.864129791000778
105,34,7,categorization,0,bathroom,SHINEd_sun_axldvoqbuvuggfmq.tif,57,0.0666666666666667,0.0666666666666667,1.15,7665.290920541,7665.840728166,13,7665.357380625,7665.423283,7665.862979875,7667.006357541,1,0.54980762500054
105,35,7,categorization,0,bathroom,SHINEd_sun_aavhrsfjbserjtht.tif,13,0.0666666666666667,0.0666666666666667,0.966666666666667,7667.016502875,7668.639669041,13,7667.08318275,7667.149181666,7668.65828325,7669.618287,1,1.62316616600037
105,36,7,categorization,0,kitchen,SHINEd_labelme_brsyyvweiuaazfr.tif,61,0.0666666666666667,0.0666666666666667,1.45,7669.623277041,7671.20265275,13,7669.685102666,7669.74600075,7671.214875,7672.65825075,0,1.57937570900049
105,37,7,categorization,0,bathroom,SHINEd_sun_aqrpegblszgcoujh.tif,48,0.0666666666666667,0.0666666666666667,0.8,7672.675618625,7673.979786125,9,7672.7427075,7672.808233666,7674.000541166,7674.793879791,0,1.30416749999949
105,38,7,categorization,0,bathroom,SHINEd_sun_anryaplzeujmzfkd.tif,39,0.0666666666666667,0.0666666666666667,1.45,7674.799688958,7675.61844325,9,7674.861330208,7674.922385,7675.62417725,7677.067557291,0,0.818754292000449
105,39,7,categorization,0,bathroom,SHINEd_sun_agguqiubmwhqqunb.tif,22,0.0666666666666667,0.0666666666666667,1.1,7677.084739666,7678.544743625,9,7677.151611916,7677.217186291,7678.575585416,7679.668967166,0,1.46000395899955
105,40,7,categorization,0,bathroom,SHINEd_sun_amzlamotzwfkwjco.tif,37,0.0666666666666667,0.0666666666666667,1.16666666666667,7679.681229083,7680.650890041,13,7679.745775458,7679.812342,7680.668252875,7681.828303875,1,0.969660957999622
105,41,7,categorization,0,kitchen,SHINEd_sun_ahdycvpopffkzzsu.tif,90,0.0666666666666667,0.0666666666666667,1.31666666666667,7681.837374625,7682.600531916,13,7681.901765583,7681.969972083,7682.626648833,7683.936689958,0,0.763157291000425
105,42,7,categorization,0,bathroom,SHINEd_sun_apjevzvycyhuqghb.tif,43,0.0666666666666667,0.0666666666666667,1.68333333333333,7683.953376458,7685.766547625,13,7684.020103666,7684.086218833,7685.794109041,7687.4708175,1,1.81317116700029
105,43,7,categorization,0,kitchen,SHINEd_sun_aeqdocilnnpuvuhx.tif,83,0.0666666666666667,0.0666666666666667,0.966666666666667,7687.488650833,7688.630725875,9,7687.555427208,7687.621757416,7688.643719916,7689.603725333,1,1.14207504200022
105,44,7,categorization,0,kitchen,SHINEd_sun_aymvwlarqodbwuoc.tif,108,0.0666666666666667,0.0666666666666667,1.4,7689.609025958,7690.530679333,9,7689.670862333,7689.731784458,7690.550383041,7691.943779458,1,0.92165337500046
105,45,7,categorization,0,bathroom,SHINEd_sun_awnqiikzaispgmwo.tif,56,0.0666666666666667,0.0666666666666667,0.783333333333333,7691.960293708,7693.044320833,9,7692.027254708,7692.0934765,7693.067134291,7693.843804166,0,1.08402712499992
105,46,7,categorization,0,kitchen,SHINEd_sun_agorklincwxrdtga.tif,87,0.0666666666666667,0.0666666666666667,1.08333333333333,7693.849762333,7694.907079833,9,7693.911477958,7693.972528333,7694.924800958,7696.001524,1,1.05731749999995
105,47,7,categorization,0,kitchen,SHINEd_sun_adgqasybjyktddhj.tif,78,0.0666666666666667,0.0666666666666667,1.43333333333333,7696.0136195,7697.319056458,9,7696.078175208,7696.146098958,7697.338028958,7698.764750208,1,1.30543695800043
105,48,7,categorization,0,kitchen,SHINEd_sun_acfmftudsenhrfhy.tif,74,0.0666666666666667,0.0666666666666667,1.75,7698.785745666,7699.583357583,9,7698.852692875,7698.918492,7699.608483291,7701.351870208,1,0.797611916999813
105,49,7,categorization,0,bathroom,SHINEd_sun_apkxzenqapsujocq.tif,45,0.0666666666666667,0.0666666666666667,1.21666666666667,7701.367083916,7702.244172541,9,7701.43420775,7701.499737875,7702.27338325,7703.483427541,0,0.877088624999487
105,50,7,categorization,0,bathroom,SHINEd_labelme_sfxiulhjbhlyiyt.tif,11,0.0666666666666667,0.0666666666666667,1.31666666666667,7703.501633833,7705.195295416,9,7703.568652291,7703.63404375,7705.226707875,7706.536763791,0,1.69366158299999
105,1,8,categorization,0,kitchen,SHINEd_sun_auticobqsbwgoppi.tif,104,0.0666666666666667,0.0666666666666667,1.18333333333333,7718.26079,7719.074605583,13,7718.322817708,7718.384021708,7719.085872291,7720.262594625,0,0.813815583000178
105,2,8,categorization,0,bathroom,SHINEd_sun_ahcvzmoyaycdoftf.tif,27,0.0666666666666667,0.0666666666666667,0.983333333333333,7720.275596666,7720.901368333,13,7720.341148916,7720.408593666,7720.913324416,7721.8900515,1,0.625771667000663
105,3,8,categorization,0,kitchen,SHINEd_sun_ahljzhgcdpomplvg.tif,91,0.0666666666666667,0.0666666666666667,1.65,7721.904642708,7722.530470625,13,7721.971625708,7722.03790725,7722.540032166,7724.183425208,0,0.625827916999697
105,4,8,categorization,0,bathroom,SHINEd_sun_apkruvsevgegsdwp.tif,44,0.0666666666666667,0.0666666666666667,1.23333333333333,7724.20281,7725.323038125,13,7724.269941791,7724.335850916,7725.341515333,7726.568222041,1,1.12022812499981
105,5,8,categorization,0,kitchen,SHINEd_sun_afuyedyxivkhecmu.tif,85,0.0666666666666667,0.0666666666666667,0.916666666666667,7726.585523,7727.68789475,13,7726.65281975,7726.718814583,7727.707770541,7728.617777625,0,1.1023717500002
105,6,8,categorization,0,bathroom,SHINEd_sun_aoybiabnpadelefl.tif,41,0.0666666666666667,0.0666666666666667,1.56666666666667,7728.623680333,7730.666283333,9,7728.685675666,7728.746593708,7730.682315708,7732.242371,0,2.04260299999987
105,7,8,categorization,0,kitchen,SHINEd_sun_amjjdeyrggfqgmom.tif,100,0.0666666666666667,0.0666666666666667,1.63333333333333,7732.2600805,7733.31546675,13,7732.326707833,7732.392667625,7733.3316935,7734.958401291,0,1.05538625000008
105,8,8,categorization,0,kitchen,SHINEd_labelme_rykdqxenmhulbdn.tif,63,0.0666666666666667,0.0666666666666667,1.1,7734.975405583,7735.475559791,13,7735.042236833,7735.108417,7735.498508791,7736.591882583,0,0.500154207999913
105,9,8,categorization,0,bathroom,SHINEd_sun_axyrejkiiaqiurjk.tif,59,0.0666666666666667,0.0666666666666667,1.38333333333333,7736.601048375,7737.747760583,13,7736.6657605,7736.733862333,7737.772909541,7739.149614625,1,1.14671220800028
105,10,8,categorization,0,kitchen,SHINEd_sun_agzzivivdpnawacl.tif,89,0.0666666666666667,0.0666666666666667,0.766666666666667,7739.168859875,7740.970707833,13,7739.235702,7739.301354208,7740.987253375,7741.74725725,0,1.80184795800051
105,11,8,categorization,0,kitchen,SHINEd_sun_akchetnepxlcxhsu.tif,98,0.0666666666666667,0.0666666666666667,1.45,7741.752160208,7743.282316958,13,7741.813992791,7741.874836291,7743.293995583,7744.737382375,0,1.53015675000006
105,12,8,categorization,0,kitchen,SHINEd_sun_aehawpgmrlhlvcow.tif,81,0.0666666666666667,0.0666666666666667,0.983333333333333,7744.755313291,7746.930479,13,7744.821974083,7744.888021791,7746.940496083,7747.917168291,0,2.17516570899988
105,13,8,categorization,0,bathroom,SHINEd_sun_alotolagknyrgtsk.tif,35,0.0666666666666667,0.0666666666666667,0.716666666666667,7747.922137041,7748.7621865,13,7747.983799625,7748.044964666,7748.780265875,7749.490269875,1,0.840049459000511
105,14,8,categorization,0,kitchen,SHINEd_sun_awcpdzzznmweyyhv.tif,106,0.0666666666666667,0.0666666666666667,1.41666666666667,7749.495560458,7752.354416416,13,7749.557346083,7749.61823275,7752.370641,7753.780692583,0,2.85885595800028
105,15,8,categorization,0,kitchen,SHINEd_sun_acwjdupvyjsugpay.tif,76,0.0666666666666667,0.0666666666666667,1.21666666666667,7753.79306175,7755.016029333,9,7753.861244541,7753.926052125,7755.031812666,7756.24187025,1,1.22296758300035
105,16,8,categorization,0,bathroom,SHINEd_sun_aghyqhbptboemmoq.tif,23,0.0666666666666667,0.0666666666666667,1.61666666666667,7756.25968325,7757.213973875,13,7756.32769625,7756.392545791,7757.231852458,7758.841891833,1,0.954290624999885
105,17,8,categorization,0,bathroom,SHINEd_sun_acegryoqftbzowsg.tif,17,0.0666666666666667,0.0666666666666667,0.783333333333333,7758.859446375,7759.631063541,13,7758.926206333,7758.992063,7759.648094375,7760.424767208,1,0.771617166000397
105,18,8,categorization,0,bathroom,SHINEd_sun_apeeialkgkuxddgh.tif,42,0.0666666666666667,0.0666666666666667,1.98333333333333,7760.432927583,7762.066936208,13,7760.494738,7760.555740208,7762.074796583,7764.051521875,1,1.63400862500021
105,19,8,categorization,0,bathroom,SHINEd_sun_aleqenyvunhactkl.tif,32,0.0666666666666667,0.0666666666666667,0.983333333333333,7764.067682375,7765.11953275,13,7764.134189291,7764.200354041,7765.139339541,7766.116011416,1,1.05185037499996
105,20,8,categorization,0,kitchen,SHINEd_sun_acgtpgfybqjmzeyw.tif,75,0.0666666666666667,0.0666666666666667,0.8,7766.120989416,7766.979143833,9,7766.182441416,7766.243855,7766.995848291,7767.789186333,1,0.858154417000151
105,21,8,categorization,0,bathroom,SHINEd_sun_ambriybtogmepttm.tif,36,0.0666666666666667,0.0666666666666667,0.733333333333333,7767.794256791,7769.515160541,9,7767.85598575,7767.916964208,7769.519319625,7770.245989791,0,1.72090374999971
105,22,8,categorization,0,kitchen,SHINEd_sun_aegoxogugdkwpmpj.tif,80,0.0666666666666667,0.0666666666666667,0.966666666666667,7770.250558916,7771.178169875,9,7770.312202416,7770.373255125,7771.192125375,7772.152129583,1,0.927610959000049
105,23,8,categorization,0,kitchen,SHINEd_sun_abftihopvusyfakt.tif,71,0.0666666666666667,0.0666666666666667,0.866666666666667,7772.157015791,7772.810214833,9,7772.218738166,7772.279706291,7772.814753041,7773.674757291,1,0.653199041999869
105,24,8,categorization,0,bathroom,SHINEd_sun_ausgutylgojavyoq.tif,53,0.0666666666666667,0.0666666666666667,1.23333333333333,7773.680239833,7774.778698,13,7773.741996875,7773.802956375,7774.788311125,7776.015026041,1,1.09845816699999
105,25,8,categorization,0,bathroom,SHINEd_sun_afcoljnjfoxjtgja.tif,20,0.0666666666666667,0.0666666666666667,1.9,7776.03195025,7776.658372708,9,7776.100160583,7776.164689625,7776.687665625,7778.581058958,0,0.626422457999979
105,26,8,categorization,0,kitchen,SHINEd_sun_ajcbwwvdlsvjyzje.tif,96,0.0666666666666667,0.0666666666666667,0.866666666666667,7778.598530166,7779.0937495,13,7778.665275708,7778.731254125,7779.120979125,7779.981023375,0,0.495219333999557
105,27,8,categorization,0,bathroom,SHINEd_sun_abapwbhyhkfixyex.tif,14,0.0666666666666667,0.0666666666666667,0.966666666666667,7779.997790583,7780.634799958,9,7780.060292125,7780.120414958,7780.638856458,7781.598860166,0,0.637009375000162
105,28,8,categorization,0,bathroom,SHINEd_sun_apmqjbnwghzuhhzh.tif,46,0.0666666666666667,0.0666666666666667,0.916666666666667,7781.604039833,7782.4739995,13,7781.66577875,7781.726788416,7782.478710083,7783.388714083,1,0.86995966700033
105,29,8,categorization,0,kitchen,SHINEd_sun_aexklacwqwezaorf.tif,84,0.0666666666666667,0.0666666666666667,0.916666666666667,7783.39356375,7783.94668275,13,7783.455201875,7783.516372791,7783.951334125,7784.861338291,0,0.553119000000152
105,30,8,categorization,0,kitchen,SHINEd_sun_akcjzhbbjlbogpdi.tif,99,0.0666666666666667,0.0666666666666667,1.4,7784.866564833,7785.633976166,13,7784.928148208,7784.989710875,7785.641706083,7787.035077625,0,0.767411333000382
105,31,8,categorization,0,bathroom,SHINEd_sun_aspsyogrekjtfozg.tif,50,0.0666666666666667,0.0666666666666667,1.75,7787.051270291,7788.0510825,9,7787.11784325,7787.184150291,7788.074358541,7789.817745875,0,0.999812209000083
105,32,8,categorization,0,bathroom,SHINEd_sun_aggnnqpdorgxpvce.tif,21,0.0666666666666667,0.0666666666666667,1.25,7789.833771958,7792.002299333,9,7789.900513958,7789.96667125,7792.018867458,7793.262254541,0,2.16852737499994
105,33,8,categorization,0,bathroom,SHINEd_sun_asfwthctfqerjvxr.tif,49,0.0666666666666667,0.0666666666666667,1.05,7793.279123875,7793.853599958,9,7793.346319083,7793.411882416,7793.867453708,7794.910842791,0,0.574476083000263
105,34,8,categorization,0,kitchen,SHINEd_sun_avszsnwsbuqfgzbn.tif,105,0.0666666666666667,0.0666666666666667,1.06666666666667,7794.927219416,7795.59449175,9,7794.99349525,7795.059917,7795.611952166,7796.67200925,1,0.66727233399979
105,35,8,categorization,0,kitchen,SHINEd_labelme_kxvouciolcpqplr.tif,62,0.0666666666666667,0.0666666666666667,1.21666666666667,7796.682978458,7797.714979583,9,7796.747710791,7796.812946666,7797.734115375,7798.944165875,1,1.03200112499962
105,36,8,categorization,0,kitchen,SHINEd_sun_aixorpehvfykdynp.tif,95,0.0666666666666667,0.0666666666666667,0.95,7798.961242208,7800.429520708,9,7799.02805925,7799.0952265,7800.455213083,7801.398550375,1,1.46827850000045
105,37,8,categorization,0,bathroom,SHINEd_sun_agyqfjcfkdcydepw.tif,25,0.0666666666666667,0.0666666666666667,0.9,7801.404098333,7802.426748,13,7801.466005083,7801.526786416,7802.445215333,7803.338554291,1,1.02264966700022
105,38,8,categorization,0,kitchen,SHINEd_sun_aenotlpyftoioydp.tif,82,0.0666666666666667,0.0666666666666667,1.78333333333333,7803.34413525,7806.409901958,13,7803.406101916,7803.46682875,7806.418994125,7808.195706958,0,3.0657667079995
105,39,8,categorization,0,kitchen,SHINEd_sun_abdenxonkemggwsq.tif,69,0.0666666666666667,0.0666666666666667,1.16666666666667,7808.213527375,7809.042112166,9,7808.279848291,7808.346424583,7809.069531,7810.22957475,1,0.828584791000139
105,40,8,categorization,0,kitchen,SHINEd_sun_aapllqyqlykszopd.tif,66,0.0666666666666667,0.0666666666666667,0.783333333333333,7810.240044291,7811.862588958,9,7810.307347375,7810.372847916,7811.880806708,7812.657478291,1,1.6225446669996
105,41,8,categorization,0,kitchen,SHINEd_sun_ahspylgoovwmwvgk.tif,93,0.0666666666666667,0.0666666666666667,1.23333333333333,7812.663209583,7813.945986166,9,7812.724941083,7812.785922625,7813.954803,7815.181506875,1,1.28277658299976
105,42,8,categorization,0,bathroom,SHINEd_sun_agrwbmhcpmfuwmsg.tif,24,0.0666666666666667,0.0666666666666667,0.9,7815.201424041,7816.231974666,9,7815.267901291,7815.333971833,7816.257525333,7817.150863625,0,1.03055062499971
105,43,8,categorization,0,kitchen,SHINEd_sun_aunzlwrbjumxhwdj.tif,103,0.0666666666666667,0.0666666666666667,0.7,7817.156532958,7818.106245,9,7817.218332375,7817.279294208,7818.114447833,7818.80778625,1,0.949712042000101
105,44,8,categorization,0,bathroom,SHINEd_sun_apynckhmoftszqoq.tif,47,0.0666666666666667,0.0666666666666667,1.23333333333333,7818.81273075,7819.842160375,9,7818.874384541,7818.935321916,7819.853719333,7821.080427958,0,1.02942962500038
105,45,8,categorization,0,bathroom,SHINEd_sun_acgyywnybuveqsro.tif,18,0.0666666666666667,0.0666666666666667,1,7821.10075325,7822.925140625,9,7821.167264583,7821.233338083,7822.942534541,7823.935874166,0,1.82438737499979
105,46,8,categorization,0,bathroom,SHINEd_sun_aljolscmmzydegqp.tif,33,0.0666666666666667,0.0666666666666667,1.38333333333333,7823.940828291,7824.746860125,9,7824.002523541,7824.0636045,7824.765509791,7826.142231041,0,0.80603183400035
105,47,8,categorization,0,kitchen,SHINEd_sun_aggjlwcdjsjcaemh.tif,86,0.0666666666666667,0.0666666666666667,1.3,7826.160064875,7827.227592375,13,7826.22801275,7826.293142916,7827.250186791,7828.543562166,0,1.06752750000032
105,48,8,categorization,0,bathroom,SHINEd_sun_aapitsgbtktqubfy.tif,12,0.0666666666666667,0.0666666666666667,0.833333333333333,7828.561091666,7829.06438375,9,7828.628725333,7828.69397325,7829.083681791,7829.910409875,0,0.50329208400035
105,49,8,categorization,0,bathroom,SHINEd_sun_auzqhkafidnkrwmo.tif,54,0.0666666666666667,0.0666666666666667,0.95,7829.927777541,7830.569898875,9,7829.994617291,7830.0601155,7830.579139666,7831.522477916,0,0.642121333999967
105,50,8,categorization,0,kitchen,SHINEd_sun_ahpczsiumwwocjkv.tif,92,0.0666666666666667,0.0666666666666667,1.43333333333333,7831.527465791,7832.106353208,9,7831.589055791,7831.650187416,7832.118664791,7833.545377083,1,0.578887416999351
105,1,9,categorization,0,kitchen,SHINEd_sun_ahspylgoovwmwvgk.tif,93,0.0666666666666667,0.0666666666666667,1.08333333333333,7862.688515833,7864.234140416,9,7862.751073833,7862.811205833,7864.2468275,7865.323554375,1,1.54562458300006
105,2,9,categorization,0,kitchen,SHINEd_sun_abdenxonkemggwsq.tif,69,0.0666666666666667,0.0666666666666667,0.8,7865.334091416,7866.542364791,13,7865.398861791,7865.4646745,7866.573528416,7867.36686925,0,1.20827337500032
105,3,9,categorization,0,kitchen,SHINEd_labelme_kxvouciolcpqplr.tif,62,0.0666666666666667,0.0666666666666667,0.833333333333333,7867.372218416,7868.250148708,9,7867.433998625,7867.494849291,7868.26351125,7869.090183541,1,0.877930292000201
105,4,9,categorization,0,bathroom,SHINEd_sun_ahaulkltgpkeeemi.tif,26,0.0666666666666667,0.0666666666666667,1.45,7869.094943791,7869.6181275,13,7869.156729958,7869.217558083,7869.6361505,7871.079544916,1,0.523183708999568
105,5,9,categorization,0,kitchen,SHINEd_sun_aamedkxepzlwuxes.tif,65,0.0666666666666667,0.0666666666666667,1.3,7871.097279541,7871.72236625,9,7871.163624541,7871.229317541,7871.733563625,7873.026959041,1,0.625086709000243
105,6,9,categorization,0,kitchen,SHINEd_sun_admlmbcdswaszruo.tif,79,0.0666666666666667,0.0666666666666667,1.21666666666667,7873.04426425,7873.422209958,13,7873.110754875,7873.177232541,7873.450384666,7874.66042,0,0.37794570799997
105,7,9,categorization,0,bathroom,SHINEd_sun_aqrpegblszgcoujh.tif,48,0.0666666666666667,0.0666666666666667,0.733333333333333,7874.673635208,7876.106178208,13,7874.740180958,7874.806284375,7876.125280375,7876.85195325,1,1.4325429999999
105,8,9,categorization,0,bathroom,SHINEd_sun_abjtwfukuwddzted.tif,15,0.0666666666666667,0.0666666666666667,1.03333333333333,7876.856876,7877.690244333,13,7876.918614041,7876.979746208,7877.698188875,7878.724902791,1,0.83336833300018
105,9,9,categorization,0,bathroom,SHINEd_sun_ajlawzvmubibwbpy.tif,30,0.0666666666666667,0.0666666666666667,1.1,7878.735742125,7879.585670875,9,7878.800317333,7878.866940375,7879.607056541,7880.700438166,0,0.84992874999989
105,10,9,categorization,0,bathroom,SHINEd_sun_aspsyogrekjtfozg.tif,50,0.0666666666666667,0.0666666666666667,1.25,7880.71772,7881.130053541,13,7880.784606958,7880.841975208,7881.143748,7882.387130208,1,0.412333541000407
105,11,9,categorization,0,bathroom,SHINEd_sun_apynckhmoftszqoq.tif,47,0.0666666666666667,0.0666666666666667,1.4,7882.400905375,7882.803788875,9,7882.467861375,7882.533555625,7882.82271475,7884.216059541,0,0.402883499999916
105,12,9,categorization,0,kitchen,SHINEd_sun_agorklincwxrdtga.tif,87,0.0666666666666667,0.0666666666666667,1.43333333333333,7884.222227833,7884.489640833,13,7884.284408708,7884.344938833,7884.496754083,7885.923455083,0,0.267412999999578
