sub_num,trial,block,task,is_practice,category,image,texture,duration,blank,mask_dur,jitter,stim_time,time_of_resp,trial_response,blank_time,mask_time,fix_time,jit_onset,trial_end,trial_accuracy,RT
107,1,0,categorization,1,bathroom,SHINEd_bathroom_practice1.tif,111,0.0166666666666667,0.0166666666666667,0.1,1.08333333333333,612000.1036243,612001.7099023,70,612000.1227367,612000.1406577,612000.2399862,612001.7432776,612002.8250932,0,1.60627800005022
107,2,0,categorization,1,bathroom,SHINEd_bathroom_practice2.tif,112,0.0166666666666667,0.0166666666666667,0.1,1.05,612002.8338567,612004.1582958,70,612002.8528446,612002.8700388,612002.9698257,612004.1672713,612005.2156083,0,1.32443909998983
107,3,0,categorization,1,bathroom,SHINEd_bathroom_practice3.tif,113,0.0166666666666667,0.0166666666666667,0.1,1.86666666666667,612005.2231273,612006.1498919,74,612005.24304,612005.2594875,612005.3588042,612006.1570408,612008.0220456,1,0.926764599978924
107,4,0,categorization,1,bathroom,SHINEd_bathroom_practice4.tif,114,0.0166666666666667,0.0166666666666667,0.1,1.11666666666667,612008.0266547,612008.9419554,74,612008.0456091,612008.0627464,612008.1622409,612008.9481331,612010.0631363,1,0.915300699998625
107,5,0,categorization,1,bathroom,SHINEd_bathroom_practice5.tif,115,0.0166666666666667,0.0166666666666667,0.1,0.9,612010.0673571,612010.8300027,74,612010.0865586,612010.1038469,612010.2029186,612010.8393287,612011.7376664,1,0.762645600014366
107,6,0,categorization,1,kitchen,SHINEd_kitchen_practice1.tif,116,0.0166666666666667,0.0166666666666667,0.1,1.18333333333333,612011.7436975,612012.6148022,70,612011.762449,612011.7795401,612011.8791518,612012.6202699,612013.8019415,1,0.871104700025171
107,7,0,categorization,1,kitchen,SHINEd_kitchen_practice2.tif,117,0.0166666666666667,0.0166666666666667,0.1,1.28333333333333,612013.8066529,612014.6713377,70,612013.8254335,612013.8430206,612013.942244,612014.6767533,612015.9584361,1,0.86468480003532
107,8,0,categorization,1,kitchen,SHINEd_kitchen_practice3.tif,118,0.0166666666666667,0.0166666666666667,0.1,0.966666666666667,612015.9635564,612016.8548847,70,612015.9831257,612015.9996062,612016.0991616,612016.8604973,612017.8255008,1,0.891328300000168
107,9,0,categorization,1,kitchen,SHINEd_kitchen_practice4.tif,119,0.0166666666666667,0.0166666666666667,0.1,1.36666666666667,612017.8315092,612018.9419174,74,612017.8508539,612017.8689852,612017.9675214,612018.9483619,612020.3133666,0,1.11040819995105
107,10,0,categorization,1,kitchen,SHINEd_kitchen_practice5.tif,120,0.0166666666666667,0.0166666666666667,0.1,1.5,612020.3184147,612021.1579331,70,612020.3383947,612020.3557954,612020.4540349,612021.1635006,612022.6618376,1,0.839518400025554
107,1,1,categorization,0,bathroom,SHINEd_sun_aghyqhbptboemmoq.tif,25,0.0166666666666667,0.0166666666666667,0.1,0.816666666666667,612035.8371877,612036.5743856,70,612035.8565814,612035.8732341,612035.9726146,612036.5799265,612037.3949302,0,0.737197900074534
107,2,1,categorization,0,kitchen,SHINEd_sun_anbcmfjhobvmedkq.tif,100,0.0166666666666667,0.0166666666666667,0.1,0.983333333333333,612037.3995208,612038.3419017,70,612037.4186784,612037.4357225,612037.535445,612038.3477539,612039.3294248,1,0.942380900029093
107,3,1,categorization,0,kitchen,SHINEd_sun_axyyrmzcupyhlivc.tif,109,0.0166666666666667,0.0166666666666667,0.1,1.15,612039.3341206,612040.1738998,74,612039.3530474,612039.3703494,612039.4698155,612040.1804269,612041.3287641,0,0.839779200032353
107,4,1,categorization,0,kitchen,SHINEd_labelme_rykdqxenmhulbdn.tif,61,0.0166666666666667,0.0166666666666667,0.1,1.35,612041.333558,612042.2219079,70,612041.3524401,612041.3697133,612041.4704967,612042.2270538,612043.575391,1,0.888349899905734
107,5,1,categorization,0,bathroom,SHINEd_sun_auzqhkafidnkrwmo.tif,54,0.0166666666666667,0.0166666666666667,0.1,1.16666666666667,612043.5799943,612044.4779343,70,612043.5990118,612043.6159083,612043.7154464,612044.4840792,612045.6490828,0,0.89793999993708
107,6,1,categorization,0,bathroom,SHINEd_sun_ambriybtogmepttm.tif,36,0.0166666666666667,0.0166666666666667,0.1,1.4,612045.6536953,612046.4939179,70,612045.6727839,612045.6902958,612045.7891625,612046.4995999,612047.8979366,0,0.840222600032575
107,7,1,categorization,0,bathroom,SHINEd_sun_acsgbuurtwghzjel.tif,21,0.0166666666666667,0.0166666666666667,0.1,0.733333333333333,612047.9025763,612048.7504276,70,612047.9214108,612047.9392792,612048.038338,612048.7553558,612049.4870276,0,0.847851300030015
107,8,1,categorization,0,bathroom,SHINEd_sun_avhrdrntsqrjzccq.tif,55,0.0166666666666667,0.0166666666666667,0.1,0.733333333333333,612049.4923499,612050.5499775,70,612049.5118649,612049.5286057,612049.6280462,612050.5565431,612051.2882152,0,1.05762760003563
107,9,1,categorization,0,bathroom,SHINEd_sun_akbyysnpwewzraii.tif,32,0.0166666666666667,0.0166666666666667,0.1,0.816666666666667,612051.2928133,612052.4138736,74,612051.3115287,612051.3288895,612051.4282359,612052.4198997,612053.2349036,1,1.12106029991992
107,10,1,categorization,0,bathroom,SHINEd_sun_azqyogdvyhahyram.tif,60,0.0166666666666667,0.0166666666666667,0.1,0.716666666666667,612053.2397978,612054.206388,74,612053.2591146,612053.2761188,612053.3755768,612054.2114481,612054.9264516,1,0.966590200085193
107,11,1,categorization,0,bathroom,SHINEd_sun_ahqjwnzgolcaoidx.tif,29,0.0166666666666667,0.0166666666666667,0.1,1.23333333333333,612054.9312893,612056.1099346,74,612054.9501484,612054.9674243,612055.0669334,612056.1158621,612057.3475335,1,1.17864529998042
107,12,1,categorization,0,kitchen,SHINEd_sun_aglwoufpxbtxqecp.tif,84,0.0166666666666667,0.0166666666666667,0.1,0.75,612057.3521979,612058.7104014,70,612057.3730505,612057.3880603,612057.4893865,612058.715681,612059.4640178,1,1.3582035000436
107,13,1,categorization,0,kitchen,SHINEd_sun_akcjzhbbjlbogpdi.tif,95,0.0166666666666667,0.0166666666666667,0.1,0.966666666666667,612059.4688892,612060.6538996,74,612059.4877531,612059.504811,612059.605001,612060.6605052,612061.6255105,0,1.18501040001865
107,14,1,categorization,0,kitchen,SHINEd_sun_avszsnwsbuqfgzbn.tif,105,0.0166666666666667,0.0166666666666667,0.1,1.23333333333333,612061.6304152,612062.6393368,70,612061.6507377,612061.6677917,612061.7671294,612062.6442812,612063.8759514,1,1.00892159994692
107,15,1,categorization,0,kitchen,SHINEd_sun_aqeaevwwwjoqhzvl.tif,101,0.0166666666666667,0.0166666666666667,0.1,1.01666666666667,612063.8803637,612064.7739813,70,612063.8992171,612063.9164116,612064.015929,612064.7794202,612065.7944235,1,0.89361759996973
107,16,1,categorization,0,bathroom,SHINEd_sun_aqrpegblszgcoujh.tif,47,0.0166666666666667,0.0166666666666667,0.1,1.48333333333333,612065.8002412,612067.0944756,70,612065.8192064,612065.8377568,612065.9359881,612067.0994154,612068.5810869,0,1.29423440003302
107,17,1,categorization,0,kitchen,SHINEd_sun_abdenxonkemggwsq.tif,67,0.0166666666666667,0.0166666666666667,0.1,1,612068.5857077,612070.5828833,70,612068.6053047,612068.62281,612068.7213992,612070.5878743,612071.5862117,1,1.99717560003046
107,18,1,categorization,0,bathroom,SHINEd_sun_agyqfjcfkdcydepw.tif,27,0.0166666666666667,0.0166666666666667,0.1,1.56666666666667,612071.5910183,612072.4939114,74,612071.6113552,612071.6270093,612071.7266382,612072.4991825,612074.0641855,1,0.902893099933863
107,19,1,categorization,0,bathroom,SHINEd_sun_axyrejkiiaqiurjk.tif,59,0.0166666666666667,0.0166666666666667,0.1,1.45,612074.0689958,612075.3098853,74,612074.0897022,612074.104846,612074.2049025,612075.315915,612076.7642523,1,1.24088950001169
107,20,1,categorization,0,kitchen,SHINEd_sun_aaofphpvkeqlhwgu.tif,64,0.0166666666666667,0.0166666666666667,0.1,1.38333333333333,612076.7690353,612077.7738655,70,612076.7879284,612076.8058946,612076.9046823,612077.7800706,612079.161742,1,1.00483019999228
107,21,1,categorization,0,bathroom,SHINEd_sun_ajlpekbqvytdohqb.tif,31,0.0166666666666667,0.0166666666666667,0.1,1.6,612079.1661591,612080.0711676,70,612079.185306,612079.2035429,612079.3033032,612080.0759365,612081.6742736,0,0.905008499976248
107,22,1,categorization,0,kitchen,SHINEd_sun_aehawpgmrlhlvcow.tif,78,0.0166666666666667,0.0166666666666667,0.1,1.96666666666667,612081.6790461,612082.6552019,74,612081.6979509,612081.7151402,612081.8158453,612082.660366,612084.625372,0,0.976155800046399
107,23,1,categorization,0,bathroom,SHINEd_sun_afcoljnjfoxjtgja.tif,24,0.0166666666666667,0.0166666666666667,0.1,0.866666666666667,612084.6314621,612086.0386358,74,612084.6502688,612084.6678141,612084.7674317,612086.0439654,612086.9089688,1,1.40717370004859
107,24,1,categorization,0,bathroom,SHINEd_sun_avhrdrntsqrjzccq.tif,55,0.0166666666666667,0.0166666666666667,0.1,1.81666666666667,612086.9138368,612088.4139811,74,612086.9329814,612086.9499357,612087.0495405,612088.4197705,612090.2347742,1,1.50014429993462
107,25,1,categorization,0,bathroom,SHINEd_sun_atstyziqcmkahyxk.tif,51,0.0166666666666667,0.0166666666666667,0.1,1.01666666666667,612090.2392966,612091.1259044,74,612090.2580528,612090.2753803,612090.3759651,612091.1312626,612092.1462682,1,0.886607800028287
107,26,1,categorization,0,kitchen,SHINEd_sun_aamedkxepzlwuxes.tif,63,0.0166666666666667,0.0166666666666667,0.1,1.43333333333333,612092.1529129,612093.7742977,74,612092.1730909,612092.1893742,612092.2884553,612093.7795705,612095.2112407,0,1.62138480006251
107,27,1,categorization,0,bathroom,SHINEd_sun_axxbkopsgyouuebh.tif,58,0.0166666666666667,0.0166666666666667,0.1,1.03333333333333,612095.2157455,612095.8939587,70,612095.2357674,612095.2531945,612095.3516243,612095.899456,612096.9311268,0,0.678213199949823
107,28,1,categorization,0,bathroom,SHINEd_sun_azqyogdvyhahyram.tif,60,0.0166666666666667,0.0166666666666667,0.1,1.05,612096.9359503,612097.7103443,74,612096.9549096,612096.9721035,612097.0727441,612097.7151037,612098.7634417,1,0.774394000065513
107,29,1,categorization,0,kitchen,SHINEd_sun_alazdvaixpjtegwg.tif,97,0.0166666666666667,0.0166666666666667,0.1,1.3,612098.76949,612100.4858524,70,612098.7896421,612098.8063505,612098.9053309,612100.4916483,612101.7899851,1,1.71636239998043
107,30,1,categorization,0,kitchen,SHINEd_sun_axyyrmzcupyhlivc.tif,109,0.0166666666666667,0.0166666666666667,0.1,1.3,612101.794671,612102.6458709,74,612101.8137647,612101.8319966,612101.9304672,612102.6515379,612103.9498753,0,0.851199900032952
107,31,1,categorization,0,bathroom,SHINEd_sun_aunuadmjocsddsrl.tif,52,0.0166666666666667,0.0166666666666667,0.1,1.28333333333333,612103.9544614,612105.1418536,74,612103.9737595,612103.9908436,612104.0901294,612105.1470199,612106.4286901,1,1.18739219999406
107,32,1,categorization,0,bathroom,SHINEd_sun_ahcvzmoyaycdoftf.tif,28,0.0166666666666667,0.0166666666666667,0.1,1.18333333333333,612106.4339464,612107.5978646,74,612106.4533857,612106.4713083,612106.5695142,612107.6043435,612108.7860141,1,1.16391820006538
107,33,1,categorization,0,kitchen,SHINEd_sun_aaofphpvkeqlhwgu.tif,64,0.0166666666666667,0.0166666666666667,0.1,1.28333333333333,612108.7908636,612109.7348913,70,612108.8096397,612108.8267581,612108.9264835,612109.7396986,612111.0213703,1,0.944027699995786
107,34,1,categorization,0,bathroom,SHINEd_sun_anltpptcpfdrhlks.tif,41,0.0166666666666667,0.0166666666666667,0.1,1.23333333333333,612111.0260984,612112.6222002,74,612111.0448233,612111.0618904,612111.1617556,612112.6272501,612113.8589212,1,1.59610179997981
107,35,1,categorization,0,kitchen,SHINEd_sun_ahpczsiumwwocjkv.tif,90,0.0166666666666667,0.0166666666666667,0.1,1.2,612113.863859,612115.461914,74,612113.8832911,612113.8999807,612113.9994264,612115.4690872,612116.6674259,0,1.59805499995127
107,36,1,categorization,0,kitchen,SHINEd_sun_agzzivivdpnawacl.tif,87,0.0166666666666667,0.0166666666666667,0.1,0.733333333333333,612116.6731972,612117.5258628,74,612116.6919007,612116.7094677,612116.8090387,612117.5313368,612118.2630068,0,0.852665599901229
107,37,1,categorization,0,bathroom,SHINEd_sun_aqrpegblszgcoujh.tif,47,0.0166666666666667,0.0166666666666667,0.1,1.85,612118.2696684,612119.7906381,74,612118.2886263,612118.305664,612118.405242,612119.7952925,612121.6436286,1,1.52096969995182
107,38,1,categorization,0,bathroom,SHINEd_sun_adbqksnwuqqwdpxc.tif,22,0.0166666666666667,0.0166666666666667,0.1,1,612121.6483812,612122.6778806,74,612121.6677749,612121.6855095,612121.7841747,612122.6834128,612123.6817588,1,1.02949939994141
107,39,1,categorization,0,kitchen,SHINEd_sun_abrcnpqqhmjwekyf.tif,70,0.0166666666666667,0.0166666666666667,0.1,1.15,612123.6870619,612124.7258576,70,612123.7063397,612123.7234073,612123.8228196,612124.7316918,612125.88003,1,1.03879569994751
107,40,1,categorization,0,bathroom,SHINEd_sun_aiskgiwswewisvph.tif,30,0.0166666666666667,0.0166666666666667,0.1,1.45,612125.8849239,612126.9188363,70,612125.904954,612125.9222652,612126.0204946,612126.9237855,612128.3721242,0,1.03391240001656
107,41,1,categorization,0,bathroom,SHINEd_sun_ajlpekbqvytdohqb.tif,31,0.0166666666666667,0.0166666666666667,0.1,0.916666666666667,612128.3770546,612129.3106283,74,612128.3963831,612128.4134878,612128.5133166,612129.3164672,612130.2314715,1,0.933573699905537
107,42,1,categorization,0,bathroom,SHINEd_sun_adwvsndpdsgzeste.tif,23,0.0166666666666667,0.0166666666666667,0.1,1.3,612130.2361986,612130.9261903,74,612130.2550365,612130.2722755,612130.3718344,612130.9309051,612132.229244,1,0.689991699997336
107,43,1,categorization,0,kitchen,SHINEd_sun_abdenxonkemggwsq.tif,67,0.0166666666666667,0.0166666666666667,0.1,1.95,612132.2337086,612133.4864357,74,612132.2530703,612132.2696639,612132.3698426,612133.4912525,612135.4395898,0,1.25272709992714
107,44,1,categorization,0,kitchen,SHINEd_sun_agfmsmojwptjoava.tif,82,0.0166666666666667,0.0166666666666667,0.1,0.883333333333333,612135.4442069,612136.470298,70,612135.4634703,612135.4801278,612135.5798837,612136.4752173,612137.3568887,1,1.02609110006597
107,45,1,categorization,0,kitchen,SHINEd_sun_alazdvaixpjtegwg.tif,97,0.0166666666666667,0.0166666666666667,0.1,1.08333333333333,612137.3618022,612138.3583715,70,612137.3805339,612137.3991648,612137.4985957,612138.3632643,612139.4449351,1,0.996569300070405
107,46,1,categorization,0,kitchen,SHINEd_sun_axaiaptzctpidqzg.tif,108,0.0166666666666667,0.0166666666666667,0.1,1.43333333333333,612139.4497421,612140.5185618,70,612139.4691762,612139.4857692,612139.5853721,612140.5234088,612141.9550804,1,1.06881970004179
107,47,1,categorization,0,kitchen,SHINEd_sun_auticobqsbwgoppi.tif,104,0.0166666666666667,0.0166666666666667,0.1,1.18333333333333,612141.9600823,612142.9667002,70,612141.980275,612141.9962397,612142.0967587,612142.9718844,612144.1535567,1,1.00661789998412
107,48,1,categorization,0,kitchen,SHINEd_sun_acwjdupvyjsugpay.tif,73,0.0166666666666667,0.0166666666666667,0.1,1.26666666666667,612144.1584725,612144.9264729,70,612144.1783072,612144.194644,612144.2937773,612144.931638,612146.1966416,1,0.768000399926677
107,49,1,categorization,0,bathroom,SHINEd_sun_aclfzgynxzxlbepz.tif,20,0.0166666666666667,0.0166666666666667,0.1,1.48333333333333,612146.2008722,612147.0778682,74,612146.2206376,612146.237199,612146.3363567,612147.083159,612148.5648286,1,0.876996000064537
107,50,1,categorization,0,bathroom,SHINEd_sun_ahcvzmoyaycdoftf.tif,28,0.0166666666666667,0.0166666666666667,0.1,0.733333333333333,612148.5694031,612149.3579473,74,612148.5893447,612148.6068709,612148.705954,612149.3630782,612150.0947488,1,0.788544200011529
107,1,2,categorization,0,kitchen,SHINEd_sun_admlmbcdswaszruo.tif,76,0.0166666666666667,0.0166666666666667,0.1,1.56666666666667,612169.0167118,612169.781903,70,612169.0356459,612169.0524417,612169.1535384,612169.7871268,612171.3521309,1,0.765191199956462
107,2,2,categorization,0,kitchen,SHINEd_sun_aeikbkmhphqzxdkv.tif,79,0.0166666666666667,0.0166666666666667,0.1,1.01666666666667,612171.3570288,612172.1102793,74,612171.3759442,612171.3932079,612171.4926353,612172.1148411,612173.129846,0,0.753250500070862
107,3,2,categorization,0,kitchen,SHINEd_sun_aglwoufpxbtxqecp.tif,84,0.0166666666666667,0.0166666666666667,0.1,1.18333333333333,612173.1347732,612173.8548241,70,612173.1547955,612173.1724863,612173.2704192,612173.8596999,612175.0413706,1,0.720050900010392
107,4,2,categorization,0,kitchen,SHINEd_sun_ataniphupyuxeowc.tif,102,0.0166666666666667,0.0166666666666667,0.1,0.966666666666667,612175.0474752,612175.6940897,70,612175.0676684,612175.0834046,612175.1841738,612175.6987074,612176.6637125,1,0.646614499972202
107,5,2,categorization,0,bathroom,SHINEd_sun_aclfzgynxzxlbepz.tif,20,0.0166666666666667,0.0166666666666667,0.1,1.33333333333333,612176.6686447,612177.4228624,70,612176.6887632,612176.7057899,612176.8046979,612177.4279622,612178.7596336,0,0.75421769998502
107,6,2,categorization,0,kitchen,SHINEd_sun_avszsnwsbuqfgzbn.tif,105,0.0166666666666667,0.0166666666666667,0.1,0.733333333333333,612178.7640615,612179.3819213,74,612178.7827934,612178.7999005,612178.8998376,612179.3875831,612180.1192535,0,0.61785979999695
107,7,2,categorization,0,kitchen,SHINEd_sun_awbyfefkbcrlrqws.tif,106,0.0166666666666667,0.0166666666666667,0.1,1.15,612180.1239566,612180.7739059,70,612180.1429908,612180.1598731,612180.2594005,612180.7793775,612181.9277283,1,0.649949299986474
107,8,2,categorization,0,bathroom,SHINEd_sun_axxbkopsgyouuebh.tif,58,0.0166666666666667,0.0166666666666667,0.1,1.23333333333333,612181.9323748,612182.7738801,70,612181.9511262,612181.9682999,612182.0680539,612182.7790887,612184.0107587,0,0.841505300020799
107,9,2,categorization,0,kitchen,SHINEd_labelme_rykdqxenmhulbdn.tif,61,0.0166666666666667,0.0166666666666667,0.1,0.733333333333333,612184.0155274,612185.4538319,70,612184.0348013,612184.0517642,612184.1509045,612185.4600239,612186.191694,1,1.43830450007226
107,10,2,categorization,0,kitchen,SHINEd_sun_acxkpeoqbwcxfvip.tif,74,0.0166666666666667,0.0166666666666667,0.1,1.38333333333333,612186.1964495,612187.1098429,70,612186.2155848,612186.2325656,612186.332175,612187.1151676,612188.4968382,1,0.913393399911001
107,11,2,categorization,0,kitchen,SHINEd_sun_alalhpqajafvlnho.tif,96,0.0166666666666667,0.0166666666666667,0.1,0.783333333333333,612188.5018937,612189.4303807,70,612188.5211596,612188.5384446,612188.6373906,612189.4351719,612190.2168417,1,0.928487000055611
107,12,2,categorization,0,kitchen,SHINEd_sun_awbyfefkbcrlrqws.tif,106,0.0166666666666667,0.0166666666666667,0.1,1.5,612190.2217582,612191.3738216,70,612190.2407319,612190.2576517,612190.3576449,612191.3791815,612192.8775201,1,1.15206340001896
107,13,2,categorization,0,kitchen,SHINEd_sun_aypmqwcualkenuoe.tif,110,0.0166666666666667,0.0166666666666667,0.1,1.51666666666667,612192.8821313,612194.125922,70,612192.9023445,612192.9190855,612193.0192343,612194.131199,612195.6462022,1,1.24379069998395
107,14,2,categorization,0,kitchen,SHINEd_sun_aexklacwqwezaorf.tif,81,0.0166666666666667,0.0166666666666667,0.1,1.28333333333333,612195.6509634,612196.6059155,70,612195.6706598,612195.6880154,612195.7878096,612196.6115636,612197.8932341,1,0.954952099942602
107,15,2,categorization,0,kitchen,SHINEd_sun_avszsnwsbuqfgzbn.tif,105,0.0166666666666667,0.0166666666666667,0.1,0.8,612197.8979186,612198.5902663,70,612197.9177362,612197.9355175,612198.0346426,612198.5950305,612199.3933667,1,0.692347700009122
107,16,2,categorization,0,kitchen,SHINEd_sun_abdxkyyxwfskuaqb.tif,68,0.0166666666666667,0.0166666666666667,0.1,1.2,612199.3982128,612200.1898784,70,612199.4184574,612199.4355785,612199.5340406,612200.1952436,612201.3935821,1,0.791665599914268
107,17,2,categorization,0,kitchen,SHINEd_sun_awbyfefkbcrlrqws.tif,106,0.0166666666666667,0.0166666666666667,0.1,1.4,612201.399334,612202.3179265,70,612201.418359,612201.4366926,612201.5349617,612202.3234881,612203.7218246,1,0.91859250003472
107,18,2,categorization,0,bathroom,SHINEd_sun_alkosphxlxwjwgjd.tif,35,0.0166666666666667,0.0166666666666667,0.1,1.28333333333333,612203.7267142,612204.4464577,70,612203.7469477,612203.7629754,612203.8621593,612204.4518469,612205.7335163,0,0.719743499998003
107,19,2,categorization,0,bathroom,SHINEd_sun_awnqiikzaispgmwo.tif,56,0.0166666666666667,0.0166666666666667,0.1,1.8,612205.7382952,612206.8863346,70,612205.7587052,612205.7740343,612205.873792,612206.8915034,612208.6898521,0,1.14803939999547
107,20,2,categorization,0,kitchen,SHINEd_sun_alpduwskzkgbcfui.tif,98,0.0166666666666667,0.0166666666666667,0.1,0.75,612208.6948947,612209.4217833,74,612208.7139083,612208.7321501,612208.8307492,612209.4272708,612210.1756082,0,0.726888600038365
107,21,2,categorization,0,kitchen,SHINEd_labelme_rykdqxenmhulbdn.tif,61,0.0166666666666667,0.0166666666666667,0.1,1.18333333333333,612210.180387,612211.1978962,70,612210.1992087,612210.2166513,612210.3159606,612211.2036035,612212.3852735,1,1.01750920002814
107,22,2,categorization,0,kitchen,SHINEd_sun_alpduwskzkgbcfui.tif,98,0.0166666666666667,0.0166666666666667,0.1,1.41666666666667,612212.3899625,612213.7584342,70,612212.4089767,612212.4272654,612212.5256088,612213.7635051,612215.1785097,1,1.36847169999965
107,23,2,categorization,0,bathroom,SHINEd_sun_adwvsndpdsgzeste.tif,23,0.0166666666666667,0.0166666666666667,0.1,0.766666666666667,612215.1841675,612215.9898135,70,612215.2033174,612215.2211836,612215.3200604,612215.9952973,612216.7603013,0,0.805645999964327
107,24,2,categorization,0,bathroom,SHINEd_sun_abjtwfukuwddzted.tif,17,0.0166666666666667,0.0166666666666667,0.1,1.75,612216.7653648,612217.5744796,74,612216.7845342,612216.8016102,612216.9014016,612217.5794788,612219.327817,1,0.809114799951203
107,25,2,categorization,0,bathroom,SHINEd_sun_anlddfvefwvocyae.tif,40,0.0166666666666667,0.0166666666666667,0.1,0.966666666666667,612219.3327982,612220.9738153,74,612219.3521677,612219.3687321,612219.4685007,612220.9796248,612221.9446298,1,1.64101710007526
107,26,2,categorization,0,kitchen,SHINEd_sun_abdxkyyxwfskuaqb.tif,68,0.0166666666666667,0.0166666666666667,0.1,0.716666666666667,612221.949666,612222.7818212,74,612221.9701403,612221.9858867,612222.0852662,612222.7872748,612223.5022843,0,0.832155200070702
107,27,2,categorization,0,kitchen,SHINEd_sun_acfmftudsenhrfhy.tif,72,0.0166666666666667,0.0166666666666667,0.1,0.716666666666667,612223.5068411,612224.1578881,70,612223.5256252,612223.5427357,612223.6427319,612224.1632745,612224.8782791,1,0.651046999963
107,28,2,categorization,0,kitchen,SHINEd_sun_acfluyeqiftljamq.tif,71,0.0166666666666667,0.0166666666666667,0.1,1.36666666666667,612224.8832447,612225.7019431,70,612224.9026338,612224.9193574,612225.0189972,612225.7077519,612227.0727558,1,0.818698399933055
107,29,2,categorization,0,kitchen,SHINEd_sun_ahljzhgcdpomplvg.tif,89,0.0166666666666667,0.0166666666666667,0.1,0.716666666666667,612227.0780184,612227.9346984,70,612227.0978146,612227.1154219,612227.2147205,612227.9395284,612228.6545314,1,0.856679999968037
107,30,2,categorization,0,kitchen,SHINEd_sun_acxkpeoqbwcxfvip.tif,74,0.0166666666666667,0.0166666666666667,0.1,1.5,612228.6590552,612229.9264261,70,612228.6779554,612228.6949158,612228.7948295,612229.9312621,612231.4295994,1,1.26737089990638
107,31,2,categorization,0,kitchen,SHINEd_sun_avszsnwsbuqfgzbn.tif,105,0.0166666666666667,0.0166666666666667,0.1,0.716666666666667,612231.4339493,612232.3104778,74,612231.4530225,612231.4699258,612231.5712529,612232.3149836,612233.0299875,0,0.876528499997221
107,32,2,categorization,0,kitchen,SHINEd_sun_agzzivivdpnawacl.tif,87,0.0166666666666667,0.0166666666666667,0.1,1.63333333333333,612233.0360186,612233.4377618,70,612233.0548837,612233.0719093,612233.171739,612233.4428362,612235.0745074,1,0.401743200025521
107,33,2,categorization,0,kitchen,SHINEd_sun_abrcnpqqhmjwekyf.tif,70,0.0166666666666667,0.0166666666666667,0.1,1.61666666666667,612235.0795076,612236.317814,70,612235.0986825,612235.1157985,612235.2151445,612236.3233728,612237.9383783,1,1.23830639990047
107,34,2,categorization,0,bathroom,SHINEd_sun_aavhrsfjbserjtht.tif,15,0.0166666666666667,0.0166666666666667,0.1,1.16666666666667,612237.9435052,612238.6945468,70,612237.9624539,612237.980819,612238.0790525,612238.6997119,612239.8647155,0,0.751041600015014
107,35,2,categorization,0,bathroom,SHINEd_sun_aleqenyvunhactkl.tif,33,0.0166666666666667,0.0166666666666667,0.1,1.15,612239.869241,612240.5580859,74,612239.8894616,612239.9057631,612240.0048296,612240.5625757,612241.710927,1,0.688844899996184
107,36,2,categorization,0,bathroom,SHINEd_sun_alkosphxlxwjwgjd.tif,35,0.0166666666666667,0.0166666666666667,0.1,1.25,612241.7164031,612242.7824586,74,612241.7359976,612241.7540313,612241.8522171,612242.787358,612244.0356959,1,1.06605549994856
107,37,2,categorization,0,kitchen,SHINEd_sun_agzzivivdpnawacl.tif,87,0.0166666666666667,0.0166666666666667,0.1,1.5,612244.040046,612244.9578082,70,612244.0590762,612244.0759069,612244.1758505,612244.9632978,612246.461636,1,0.917762199998833
107,38,2,categorization,0,bathroom,SHINEd_sun_atstyziqcmkahyxk.tif,51,0.0166666666666667,0.0166666666666667,0.1,0.85,612246.4661601,612247.1822704,70,612246.4852717,612246.5030406,612246.6018955,612247.1870395,612248.0353781,0,0.716110300039873
107,39,2,categorization,0,kitchen,SHINEd_sun_aehawpgmrlhlvcow.tif,78,0.0166666666666667,0.0166666666666667,0.1,1.06666666666667,612248.0398235,612248.7997784,74,612248.0591226,612248.075962,612248.1756499,612248.8046067,612249.8696204,0,0.759954900015146
107,40,2,categorization,0,kitchen,SHINEd_sun_ahvszpwjtodgwusx.tif,91,0.0166666666666667,0.0166666666666667,0.1,0.95,612249.8749734,612250.589829,70,612249.893961,612249.9112598,612250.0104467,612250.5960671,612251.5444048,1,0.714855599915609
107,41,2,categorization,0,kitchen,SHINEd_sun_awcpdzzznmweyyhv.tif,107,0.0166666666666667,0.0166666666666667,0.1,1.03333333333333,612251.5494686,612252.2537118,70,612251.5696937,612251.5855036,612251.6864601,612252.2602582,612253.2919284,1,0.704243200016208
107,42,2,categorization,0,kitchen,SHINEd_sun_aggjlwcdjsjcaemh.tif,83,0.0166666666666667,0.0166666666666667,0.1,0.933333333333333,612253.2966285,612254.0618216,70,612253.3151646,612253.3325908,612253.4323648,612254.0674582,612254.9991289,1,0.765193099970929
107,43,2,categorization,0,kitchen,SHINEd_sun_auaiucuqpdausiva.tif,103,0.0166666666666667,0.0166666666666667,0.1,1.1,612255.0038064,612255.7258855,70,612255.0225631,612255.0405752,612255.1393396,612255.7313918,612256.8297295,1,0.72207909997087
107,44,2,categorization,0,bathroom,SHINEd_sun_anltpptcpfdrhlks.tif,41,0.0166666666666667,0.0166666666666667,0.1,0.816666666666667,612256.8343985,612257.7103372,70,612256.8536061,612256.8704056,612256.9701019,612257.7155149,612258.5305189,0,0.875938699929975
107,45,2,categorization,0,bathroom,SHINEd_sun_azqyogdvyhahyram.tif,60,0.0166666666666667,0.0166666666666667,0.1,0.933333333333333,612258.5364317,612259.8218106,74,612258.5569538,612258.5738331,612258.672312,612259.8273895,612260.7590608,1,1.28537890000734
107,46,2,categorization,0,bathroom,SHINEd_sun_afcoljnjfoxjtgja.tif,24,0.0166666666666667,0.0166666666666667,0.1,1.45,612260.7641162,612261.5102533,70,612260.7843845,612260.8014359,612260.8996858,612261.5153377,612262.9636764,0,0.746137099922635
107,47,2,categorization,0,bathroom,SHINEd_sun_aamrfepkhweyewue.tif,13,0.0166666666666667,0.0166666666666667,0.1,1.11666666666667,612262.9686444,612263.8371886,70,612262.9888626,612263.00447,612263.1042845,612263.8433223,612264.9583265,0,0.86854419996962
107,48,2,categorization,0,bathroom,SHINEd_sun_anltpptcpfdrhlks.tif,41,0.0166666666666667,0.0166666666666667,0.1,0.733333333333333,612264.963126,612265.6777906,74,612264.9819306,612264.9992613,612265.0988367,612265.683232,612266.4149029,1,0.71466459997464
107,49,2,categorization,0,kitchen,SHINEd_sun_acfluyeqiftljamq.tif,71,0.0166666666666667,0.0166666666666667,0.1,0.95,612266.4194334,612268.0458681,70,612266.4385326,612266.4563082,612266.5548911,612268.0511812,612268.9995195,1,1.62643469998147
107,50,2,categorization,0,kitchen,SHINEd_sun_anbcmfjhobvmedkq.tif,100,0.0166666666666667,0.0166666666666667,0.1,1.58333333333333,612269.0043477,612269.7737973,70,612269.0232396,612269.0403321,612269.139898,612269.7793803,612271.3610511,1,0.769449599902146
107,1,3,categorization,0,kitchen,SHINEd_sun_aeikbkmhphqzxdkv.tif,79,0.0166666666666667,0.0166666666666667,0.1,1.4,612289.7795977,612290.6938221,70,612289.7985664,612289.8157758,612289.9153071,612290.6992327,612292.0975697,1,0.914224399952218
107,2,3,categorization,0,kitchen,SHINEd_sun_alalhpqajafvlnho.tif,96,0.0166666666666667,0.0166666666666667,0.1,1.61666666666667,612292.1026683,612292.9177954,70,612292.1223617,612292.139203,612292.2385203,612292.9233381,612294.5383416,1,0.8151270999806
107,3,3,categorization,0,kitchen,SHINEd_sun_aapllqyqlykszopd.tif,65,0.0166666666666667,0.0166666666666667,0.1,1.06666666666667,612294.5432598,612295.4544623,70,612294.562106,612294.5806202,612294.6787882,612295.4598797,612296.5248829,1,0.911202500108629
107,4,3,categorization,0,bathroom,SHINEd_sun_aovflwamhlwzwvxs.tif,42,0.0166666666666667,0.0166666666666667,0.1,0.733333333333333,612296.5295087,612297.326277,74,612296.5498682,612296.5656732,612296.6651005,612297.3308597,612298.0625295,1,0.796768300002441
107,5,3,categorization,0,bathroom,SHINEd_sun_acgyywnybuveqsro.tif,19,0.0166666666666667,0.0166666666666667,0.1,1.01666666666667,612298.067146,612298.9343767,74,612298.0864855,612298.1032703,612298.2039734,612298.9395275,612299.9545411,1,0.8672306999797
107,6,3,categorization,0,kitchen,SHINEd_sun_ajcbwwvdlsvjyzje.tif,94,0.0166666666666667,0.0166666666666667,0.1,0.85,612299.9595456,612301.0298127,74,612299.9785456,612299.9955448,612300.0953438,612301.0349925,612301.8833292,0,1.07026710000355
107,7,3,categorization,0,kitchen,SHINEd_sun_ataniphupyuxeowc.tif,102,0.0166666666666667,0.0166666666666667,0.1,0.983333333333333,612301.8881109,612302.6715407,70,612301.9079744,612301.925361,612302.0247331,612302.6764877,612303.6581575,1,0.783429800067097
107,8,3,categorization,0,kitchen,SHINEd_sun_abdxkyyxwfskuaqb.tif,68,0.0166666666666667,0.0166666666666667,0.1,1.25,612303.6639627,612304.485847,70,612303.6829598,612303.7002186,612303.8007177,612304.4916725,612305.7400092,1,0.821884299977683
107,9,3,categorization,0,kitchen,SHINEd_sun_awcpdzzznmweyyhv.tif,107,0.0166666666666667,0.0166666666666667,0.1,1.56666666666667,612305.7450391,612306.462441,70,612305.7639096,612305.7811432,612305.8808013,612306.4673486,612308.0323534,1,0.717401900095865
107,10,3,categorization,0,bathroom,SHINEd_sun_ausgutylgojavyoq.tif,53,0.0166666666666667,0.0166666666666667,0.1,1.21666666666667,612308.0372169,612309.1337299,74,612308.0559565,612308.0733136,612308.1726876,612309.1395154,612310.3545204,1,1.09651299996767
107,11,3,categorization,0,kitchen,SHINEd_sun_agorklincwxrdtga.tif,85,0.0166666666666667,0.0166666666666667,0.1,1,612310.3594061,612311.2144645,70,612310.3782958,612310.3954534,612310.4952775,612311.2192494,612312.2175866,1,0.855058399960399
107,12,3,categorization,0,kitchen,SHINEd_sun_aeqbewejiovwrhhc.tif,80,0.0166666666666667,0.0166666666666667,0.1,1.36666666666667,612312.2236716,612313.2217332,70,612312.2424519,612312.259669,612312.3593818,612313.2272742,612314.5922784,1,0.998061600024812
107,13,3,categorization,0,bathroom,SHINEd_sun_auzqhkafidnkrwmo.tif,54,0.0166666666666667,0.0166666666666667,0.1,0.983333333333333,612314.5967875,612315.3417773,70,612314.6159317,612314.6327533,612314.7329807,612315.3470401,612316.3287103,0,0.744989800034091
107,14,3,categorization,0,kitchen,SHINEd_sun_axyyrmzcupyhlivc.tif,109,0.0166666666666667,0.0166666666666667,0.1,1.9,612316.3335441,612317.7098157,70,612316.352366,612316.3696424,612316.4702189,612317.7156281,612319.613967,1,1.3762715999037
107,15,3,categorization,0,kitchen,SHINEd_sun_aaxxjlsuzvqlgylf.tif,66,0.0166666666666667,0.0166666666666667,0.1,1.91666666666667,612319.6189421,612320.3664867,70,612319.6389856,612319.6548664,612319.7545734,612320.3712386,612322.2862422,1,0.74754460004624
107,16,3,categorization,0,kitchen,SHINEd_sun_ahljzhgcdpomplvg.tif,89,0.0166666666666667,0.0166666666666667,0.1,1.43333333333333,612322.2908427,612322.9816022,70,612322.3096851,612322.3286348,612322.4265151,612322.9878148,612324.4194856,1,0.690759499906562
107,17,3,categorization,0,kitchen,SHINEd_sun_auticobqsbwgoppi.tif,104,0.0166666666666667,0.0166666666666667,0.1,1.6,612324.4240635,612325.2937508,74,612324.4428189,612324.4599915,612324.5593584,612325.2990615,612326.8973995,0,0.869687299942598
107,18,3,categorization,0,kitchen,SHINEd_sun_aexklacwqwezaorf.tif,81,0.0166666666666667,0.0166666666666667,0.1,1.28333333333333,612326.9032836,612327.5737292,70,612326.9223371,612326.9391834,612327.0397426,612327.5796103,612328.8612812,1,0.670445600058883
107,19,3,categorization,0,kitchen,SHINEd_sun_acfmftudsenhrfhy.tif,72,0.0166666666666667,0.0166666666666667,0.1,1.98333333333333,612328.8660631,612329.6536774,70,612328.88538,612328.9022204,612329.0019124,612329.6595307,612331.6412025,1,0.787614299915731
107,20,3,categorization,0,bathroom,SHINEd_sun_acgyywnybuveqsro.tif,19,0.0166666666666667,0.0166666666666667,0.1,1.01666666666667,612331.6457911,612332.7263208,70,612331.6663724,612331.6818372,612331.7814408,612332.7314485,612333.7464523,0,1.08052970003337
107,21,3,categorization,0,kitchen,SHINEd_sun_aamedkxepzlwuxes.tif,63,0.0166666666666667,0.0166666666666667,0.1,1.65,612333.7516569,612335.1977572,70,612333.770603,612333.787704,612333.8883703,612335.2036243,612336.8519614,1,1.4461002999451
107,22,3,categorization,0,bathroom,SHINEd_sun_auzqhkafidnkrwmo.tif,54,0.0166666666666667,0.0166666666666667,0.1,1.28333333333333,612336.8563326,612337.7102725,74,612336.8752482,612336.8924231,612336.9922073,612337.7152079,612338.9968788,1,0.853939899941906
107,23,3,categorization,0,bathroom,SHINEd_sun_agrwbmhcpmfuwmsg.tif,26,0.0166666666666667,0.0166666666666667,0.1,1.26666666666667,612339.0017355,612339.7742569,74,612339.020634,612339.0388502,612339.1375874,612339.7791557,612341.0441619,1,0.772521400009282
107,24,3,categorization,0,bathroom,SHINEd_sun_ahcvzmoyaycdoftf.tif,28,0.0166666666666667,0.0166666666666667,0.1,0.9,612341.0484212,612341.9098183,74,612341.067176,612341.0843527,612341.1840115,612341.9153065,612342.8136447,1,0.861397100030445
107,25,3,categorization,0,kitchen,SHINEd_sun_avszsnwsbuqfgzbn.tif,105,0.0166666666666667,0.0166666666666667,0.1,1.78333333333333,612342.8196439,612343.6857731,70,612342.8395841,612342.8558208,612342.9553275,612343.6915954,612345.4732661,1,0.866129199974239
107,26,3,categorization,0,bathroom,SHINEd_sun_aavhrsfjbserjtht.tif,15,0.0166666666666667,0.0166666666666667,0.1,0.833333333333333,612345.4795226,612346.2145301,70,612345.4984488,612345.5158457,612345.6152851,612346.219442,612347.0511123,0,0.735007500043139
107,27,3,categorization,0,bathroom,SHINEd_sun_aamrfepkhweyewue.tif,13,0.0166666666666667,0.0166666666666667,0.1,1.4,612347.0559179,612347.9417458,70,612347.0750194,612347.0920351,612347.1920171,612347.9467343,612349.3450722,0,0.88582789991051
107,28,3,categorization,0,kitchen,SHINEd_sun_amjjdeyrggfqgmom.tif,99,0.0166666666666667,0.0166666666666667,0.1,1.86666666666667,612349.3500964,612350.382398,74,612349.369003,612349.3862214,612349.4873679,612350.3876466,612352.2526511,0,1.03230159997474
107,29,3,categorization,0,bathroom,SHINEd_sun_apkxzenqapsujocq.tif,45,0.0166666666666667,0.0166666666666667,0.1,1.88333333333333,612352.25737,612353.158369,74,612352.2763831,612352.2947603,612352.3927992,612353.1632278,612355.0449087,1,0.900998999946751
107,30,3,categorization,0,bathroom,SHINEd_sun_adwvsndpdsgzeste.tif,23,0.0166666666666667,0.0166666666666667,0.1,1.8,612355.0501215,612355.8703444,74,612355.0707145,612355.0875597,612355.1860373,612355.8754452,612357.6737831,1,0.820222900016233
107,31,3,categorization,0,bathroom,SHINEd_sun_akbyysnpwewzraii.tif,32,0.0166666666666667,0.0166666666666667,0.1,1.21666666666667,612357.6799575,612359.2551018,74,612357.7002175,612357.7173223,612357.8168826,612359.2611932,612360.4761988,1,1.57514430000447
107,32,3,categorization,0,kitchen,SHINEd_sun_aapllqyqlykszopd.tif,65,0.0166666666666667,0.0166666666666667,0.1,1.28333333333333,612360.4823412,612361.5737125,70,612360.5021677,612360.5189398,612360.6180521,612361.5790206,612362.860692,1,1.09137130004819
107,33,3,categorization,0,kitchen,SHINEd_sun_agzzivivdpnawacl.tif,87,0.0166666666666667,0.0166666666666667,0.1,1.95,612362.8655461,612364.1018287,70,612362.8844688,612362.9016932,612363.001292,612364.1076652,612366.0560021,1,1.23628260008991
107,34,3,categorization,0,bathroom,SHINEd_sun_axbqssteryzzlcop.tif,57,0.0166666666666667,0.0166666666666667,0.1,1.53333333333333,612366.0604806,612368.0297656,74,612366.0793746,612366.0979027,612366.1960566,612368.035423,612369.567093,1,1.96928499999922
107,35,3,categorization,0,kitchen,SHINEd_sun_aqeaevwwwjoqhzvl.tif,101,0.0166666666666667,0.0166666666666667,0.1,1.2,612369.5718308,612370.3262235,70,612369.5906255,612369.6080115,612369.7072444,612370.3312087,612371.5295462,1,0.754392699920572
107,36,3,categorization,0,kitchen,SHINEd_sun_alalhpqajafvlnho.tif,96,0.0166666666666667,0.0166666666666667,0.1,0.983333333333333,612371.5343298,612372.4624166,70,612371.5530131,612371.5713193,612371.6699895,612372.467224,612373.4488964,1,0.928086799918674
107,37,3,categorization,0,bathroom,SHINEd_sun_aleqenyvunhactkl.tif,33,0.0166666666666667,0.0166666666666667,0.1,1.05,612373.4538858,612374.1750868,70,612373.4731721,612373.4900303,612373.5895151,612374.1800033,612375.2283407,0,0.721201000036672
107,38,3,categorization,0,bathroom,SHINEd_sun_aunuadmjocsddsrl.tif,52,0.0166666666666667,0.0166666666666667,0.1,1.88333333333333,612375.2330666,612375.9738195,70,612375.2529846,612375.2689797,612375.3688722,612375.9792335,612377.8609033,0,0.740752899902873
107,39,3,categorization,0,kitchen,SHINEd_sun_ahljzhgcdpomplvg.tif,89,0.0166666666666667,0.0166666666666667,0.1,0.983333333333333,612377.8656766,612378.7417829,70,612377.8858491,612377.9018804,612378.001605,612378.747035,612379.7287068,1,0.876106299925596
107,40,3,categorization,0,bathroom,SHINEd_sun_adbqksnwuqqwdpxc.tif,22,0.0166666666666667,0.0166666666666667,0.1,1.05,612379.7352133,612380.5738128,74,612379.7542181,612379.7712075,612379.8709422,612380.5788066,612381.6271448,1,0.838599500013515
107,41,3,categorization,0,kitchen,SHINEd_sun_aegoxogugdkwpmpj.tif,77,0.0166666666666667,0.0166666666666667,0.1,1.16666666666667,612381.6320369,612382.3818117,70,612381.6522614,612381.6684513,612381.7677308,612382.3870652,612383.5520692,1,0.749774799915031
107,42,3,categorization,0,kitchen,SHINEd_sun_ahdycvpopffkzzsu.tif,88,0.0166666666666667,0.0166666666666667,0.1,1.75,612383.5572073,612384.6374096,70,612383.5773883,612383.5930614,612383.6929143,612384.64356,612386.3918982,1,1.0802022999851
107,43,3,categorization,0,kitchen,SHINEd_sun_aadbddgrdsjugojn.tif,62,0.0166666666666667,0.0166666666666667,0.1,1.93333333333333,612386.396872,612387.1897117,70,612386.4166383,612386.4330138,612386.5335322,612387.1952339,612389.1269049,1,0.79283970000688
107,44,3,categorization,0,kitchen,SHINEd_sun_agfmsmojwptjoava.tif,82,0.0166666666666667,0.0166666666666667,0.1,1.11666666666667,612389.131825,612390.1337239,70,612389.1520592,612389.1688634,612389.2674736,612390.1390762,612391.2540799,1,1.00189889990725
107,45,3,categorization,0,bathroom,SHINEd_sun_axyrejkiiaqiurjk.tif,59,0.0166666666666667,0.0166666666666667,0.1,1.03333333333333,612391.2585595,612391.9662637,70,612391.2774601,612391.2949035,612391.3940617,612391.9711727,612393.0028541,0,0.707704200060107
107,46,3,categorization,0,kitchen,SHINEd_sun_agzzivivdpnawacl.tif,87,0.0166666666666667,0.0166666666666667,0.1,1.08333333333333,612393.0077717,612393.7184337,70,612393.0266229,612393.0437792,612393.1433467,612393.72356,612394.8052318,1,0.710661999997683
107,47,3,categorization,0,kitchen,SHINEd_sun_aapllqyqlykszopd.tif,65,0.0166666666666667,0.0166666666666667,0.1,1.76666666666667,612394.8100428,612395.7016598,70,612394.8307573,612394.8472928,612394.9453194,612395.7076389,612397.4726438,1,0.891616999986582
107,48,3,categorization,0,kitchen,SHINEd_sun_aeikbkmhphqzxdkv.tif,79,0.0166666666666667,0.0166666666666667,0.1,1.58333333333333,612397.4773978,612398.1977839,70,612397.4967581,612397.5138329,612397.6128191,612398.2032546,612399.7849287,1,0.720386100001633
107,49,3,categorization,0,bathroom,SHINEd_sun_aqrpegblszgcoujh.tif,47,0.0166666666666667,0.0166666666666667,0.1,0.733333333333333,612399.7897398,612400.5177139,70,612399.8090037,612399.8256699,612399.9254537,612400.5227621,612401.2544321,0,0.727974099921994
107,50,3,categorization,0,bathroom,SHINEd_sun_anlddfvefwvocyae.tif,40,0.0166666666666667,0.0166666666666667,0.1,1.95,612401.2591301,612402.9337818,70,612401.278402,612401.2952246,612401.3949433,612402.9396924,612404.8880297,0,1.67465169995558
107,1,4,categorization,0,kitchen,SHINEd_sun_ahvszpwjtodgwusx.tif,91,0.0166666666666667,0.0166666666666667,0.1,0.75,612410.2769631,612411.205744,70,612410.2957842,612410.312676,612410.4137533,612411.2112461,612411.9595841,1,0.92878090008162
107,2,4,categorization,0,bathroom,SHINEd_sun_aunuadmjocsddsrl.tif,52,0.0166666666666667,0.0166666666666667,0.1,1.18333333333333,612411.9644132,612413.1656881,74,612411.9831386,612412.0001254,612412.099724,612413.1711063,612414.3527765,1,1.20127489999868
107,3,4,categorization,0,kitchen,SHINEd_sun_acfluyeqiftljamq.tif,71,0.0166666666666667,0.0166666666666667,0.1,1.38333333333333,612414.35762,612416.2136921,74,612414.376366,612414.3933532,612414.4933569,612416.2193697,612417.6010422,0,1.8560720999958
107,4,4,categorization,0,bathroom,SHINEd_sun_ahqjwnzgolcaoidx.tif,29,0.0166666666666667,0.0166666666666667,0.1,0.933333333333333,612417.6058367,612418.2701967,70,612417.6247934,612417.6424429,612417.7416201,612418.2755288,612419.2072009,0,0.664360000053421
107,5,4,categorization,0,bathroom,SHINEd_sun_aunuadmjocsddsrl.tif,52,0.0166666666666667,0.0166666666666667,0.1,1.26666666666667,612419.2120195,612420.2698026,70,612419.2308633,612419.2482072,612419.3478723,612420.2766482,612421.5416533,0,1.05778310005553
107,6,4,categorization,0,kitchen,SHINEd_sun_agzzivivdpnawacl.tif,87,0.0166666666666667,0.0166666666666667,0.1,1.36666666666667,612421.5477228,612422.3582364,70,612421.5667942,612421.5835551,612421.6834676,612422.3631247,612423.7281284,1,0.810513599892147
107,7,4,categorization,0,bathroom,SHINEd_sun_abjtwfukuwddzted.tif,17,0.0166666666666667,0.0166666666666667,0.1,1.66666666666667,612423.7343253,612425.054777,74,612423.7544495,612423.7706272,612423.8696754,612425.0598305,612426.7248332,1,1.3204517000122
107,8,4,categorization,0,bathroom,SHINEd_sun_aapitsgbtktqubfy.tif,14,0.0166666666666667,0.0166666666666667,0.1,1.06666666666667,612426.7296055,612428.1737313,74,612426.749007,612426.7656297,612426.8652207,612428.1793275,612429.2443328,1,1.44412580004428
107,9,4,categorization,0,bathroom,SHINEd_labelme_xbsnnlvmskdknsb.tif,12,0.0166666666666667,0.0166666666666667,0.1,1.58333333333333,612429.2491144,612430.3977503,74,612429.2678243,612429.2851766,612429.3849674,612430.4031074,612431.9847787,1,1.14863589999732
107,10,4,categorization,0,kitchen,SHINEd_sun_ahljzhgcdpomplvg.tif,89,0.0166666666666667,0.0166666666666667,0.1,1.05,612431.9892275,612432.8298285,70,612432.0084136,612432.0256899,612432.1248408,612432.835549,612433.8838871,1,0.840601000003517
107,11,4,categorization,0,bathroom,SHINEd_sun_aleqenyvunhactkl.tif,33,0.0166666666666667,0.0166666666666667,0.1,1.48333333333333,612433.8884094,612434.7497834,70,612433.9070391,612433.9243743,612434.0239506,612434.7555767,612436.237247,0,0.861373999970965
107,12,4,categorization,0,kitchen,SHINEd_sun_aypmqwcualkenuoe.tif,110,0.0166666666666667,0.0166666666666667,0.1,0.783333333333333,612436.2421537,612436.9423909,70,612436.2611049,612436.2784243,612436.3778554,612436.9471251,612437.7287964,1,0.700237200013362
107,13,4,categorization,0,kitchen,SHINEd_sun_acxkpeoqbwcxfvip.tif,74,0.0166666666666667,0.0166666666666667,0.1,0.766666666666667,612437.7337147,612438.6857934,74,612437.752518,612437.7699415,612437.8691586,612438.6917086,612439.4567123,0,0.952078700065613
107,14,4,categorization,0,bathroom,SHINEd_sun_ahqjwnzgolcaoidx.tif,29,0.0166666666666667,0.0166666666666667,0.1,0.833333333333333,612439.4612205,612440.1423965,70,612439.4799053,612439.4972475,612439.5978539,612440.1470838,612440.9787553,0,0.681176000041887
107,15,4,categorization,0,bathroom,SHINEd_sun_ahqjwnzgolcaoidx.tif,29,0.0166666666666667,0.0166666666666667,0.1,1.31666666666667,612440.9836325,612442.2783207,74,612441.0042012,612441.0196662,612441.1194368,612442.2835216,612443.5985265,1,1.29468819999602
107,16,4,categorization,0,bathroom,SHINEd_sun_aspsyogrekjtfozg.tif,50,0.0166666666666667,0.0166666666666667,0.1,1.41666666666667,612443.6037455,612444.597799,74,612443.6229108,612443.6398072,612443.7393136,612444.6033158,612446.0183207,1,0.994053500005975
107,17,4,categorization,0,kitchen,SHINEd_sun_aaxxjlsuzvqlgylf.tif,66,0.0166666666666667,0.0166666666666667,0.1,0.766666666666667,612446.0229996,612446.8623215,70,612446.041879,612446.0593066,612446.1588296,612446.8673247,612447.6323286,1,0.83932189992629
107,18,4,categorization,0,kitchen,SHINEd_sun_abrcnpqqhmjwekyf.tif,70,0.0166666666666667,0.0166666666666667,0.1,1.18333333333333,612447.6371056,612449.1421569,70,612447.6559469,612447.6732326,612447.7727318,612449.1471823,612450.3288528,1,1.50505130004603
107,19,4,categorization,0,bathroom,SHINEd_labelme_sfxiulhjbhlyiyt.tif,11,0.0166666666666667,0.0166666666666667,0.1,1.48333333333333,612450.3338739,612451.1103468,70,612450.3534351,612450.3712758,612450.4694598,612451.1155205,612452.5971907,0,0.776472899946384
107,20,4,categorization,0,bathroom,SHINEd_sun_anlddfvefwvocyae.tif,40,0.0166666666666667,0.0166666666666667,0.1,1.13333333333333,612452.6020343,612453.4304676,74,612452.6209754,612452.6390307,612452.7376684,612453.4355956,612454.5672677,1,0.828433300019242
107,21,4,categorization,0,bathroom,SHINEd_sun_azqyogdvyhahyram.tif,60,0.0166666666666667,0.0166666666666667,0.1,1.06666666666667,612454.5725011,612455.4856981,74,612454.5917547,612454.6088076,612454.7085128,612455.4914367,612456.5564415,1,0.913196999928914
107,22,4,categorization,0,kitchen,SHINEd_sun_aggjlwcdjsjcaemh.tif,83,0.0166666666666667,0.0166666666666667,0.1,1.28333333333333,612456.5623295,612457.7257684,70,612456.5826365,612456.5980974,612456.6981,612457.7312365,612459.0129066,1,1.16343890002463
107,23,4,categorization,0,bathroom,SHINEd_sun_abeymlrfgckenfyk.tif,16,0.0166666666666667,0.0166666666666667,0.1,1.95,612459.0176487,612459.7658193,74,612459.0370287,612459.0535534,612459.1533558,612459.7714304,612461.7197668,1,0.748170599923469
107,24,4,categorization,0,bathroom,SHINEd_sun_aiskgiwswewisvph.tif,30,0.0166666666666667,0.0166666666666667,0.1,0.966666666666667,612461.7245085,612462.8456495,70,612461.7431045,612461.7605773,612461.8599839,612462.8530485,612463.8180534,0,1.12114100006875
107,25,4,categorization,0,kitchen,SHINEd_sun_alpduwskzkgbcfui.tif,98,0.0166666666666667,0.0166666666666667,0.1,1.13333333333333,612463.8231911,612464.9901697,70,612463.8421511,612463.859884,612463.9589132,612464.995048,612466.1267199,1,1.1669785999693
107,26,4,categorization,0,kitchen,SHINEd_sun_aeqbewejiovwrhhc.tif,80,0.0166666666666667,0.0166666666666667,0.1,1.16666666666667,612466.1312312,612467.5176887,70,612466.1507066,612466.1685094,612466.2671182,612467.5232269,612468.6882302,1,1.38645750004798
107,27,4,categorization,0,kitchen,SHINEd_sun_ahvszpwjtodgwusx.tif,91,0.0166666666666667,0.0166666666666667,0.1,1.58333333333333,612468.6932361,612469.8857114,70,612468.7130797,612468.7302347,612468.8289812,612469.8911034,612471.4727743,1,1.19247529993299
107,28,4,categorization,0,bathroom,SHINEd_sun_aavhrsfjbserjtht.tif,15,0.0166666666666667,0.0166666666666667,0.1,1.06666666666667,612471.4775614,612472.5024032,70,612471.4971796,612471.5150644,612471.6131032,612472.5091046,612473.5741085,0,1.02484179998282
107,29,4,categorization,0,kitchen,SHINEd_sun_auaiucuqpdausiva.tif,103,0.0166666666666667,0.0166666666666667,0.1,1.8,612473.5790977,612474.6217049,70,612473.599556,612473.6167714,612473.7149289,612474.6273032,612476.4256407,1,1.04260720009916
107,30,4,categorization,0,kitchen,SHINEd_sun_abpwyqmlzafvklqo.tif,69,0.0166666666666667,0.0166666666666667,0.1,1.58333333333333,612476.4303647,612477.4061573,70,612476.4503706,612476.4666741,612476.5675227,612477.4113103,612478.9929808,1,0.975792599958368
107,31,4,categorization,0,kitchen,SHINEd_sun_agubuxuukhzyzpdp.tif,86,0.0166666666666667,0.0166666666666667,0.1,1.28333333333333,612478.9979585,612479.7668292,70,612479.0167908,612479.0345136,612479.1336067,612479.7719507,612481.0536278,1,0.768870699917898
107,32,4,categorization,0,kitchen,SHINEd_sun_acxkpeoqbwcxfvip.tif,74,0.0166666666666667,0.0166666666666667,0.1,1.33333333333333,612481.0582851,612481.9419168,70,612481.0769889,612481.0940984,612481.1937799,612481.9471144,612483.2787861,1,0.883631699951366
107,33,4,categorization,0,bathroom,SHINEd_sun_axyrejkiiaqiurjk.tif,59,0.0166666666666667,0.0166666666666667,0.1,0.8,612483.2840022,612483.9505109,70,612483.3032429,612483.3202425,612483.4198257,612483.955552,612484.7538976,0,0.666508700000122
107,34,4,categorization,0,bathroom,SHINEd_sun_aoybiabnpadelefl.tif,43,0.0166666666666667,0.0166666666666667,0.1,1.71666666666667,612484.759097,612485.4387635,70,612484.7780855,612484.7951682,612484.8947293,612485.4435607,612487.1585657,0,0.679666499956511
107,35,4,categorization,0,bathroom,SHINEd_sun_asfwthctfqerjvxr.tif,49,0.0166666666666667,0.0166666666666667,0.1,0.85,612487.1631433,612488.2535503,70,612487.1819335,612487.1992293,612487.298723,612488.2600264,612489.1083649,0,1.0904070000397
107,36,4,categorization,0,kitchen,SHINEd_sun_agorklincwxrdtga.tif,85,0.0166666666666667,0.0166666666666667,0.1,0.983333333333333,612489.1127787,612489.7736563,74,612489.1314702,612489.1488286,612489.2484073,612489.779031,612490.7607023,0,0.660877600079402
107,37,4,categorization,0,bathroom,SHINEd_sun_anltpptcpfdrhlks.tif,41,0.0166666666666667,0.0166666666666667,0.1,0.766666666666667,612490.7655307,612491.4382733,74,612490.7842921,612490.8025526,612490.9012979,612491.4430314,612492.2081143,1,0.672742599970661
107,38,4,categorization,0,kitchen,SHINEd_sun_aexklacwqwezaorf.tif,81,0.0166666666666667,0.0166666666666667,0.1,1.23333333333333,612492.2136248,612493.6061766,74,612492.2324723,612492.2497648,612492.3491808,612493.6109208,612494.8425926,0,1.39255180000328
107,39,4,categorization,0,kitchen,SHINEd_sun_aegoxogugdkwpmpj.tif,77,0.0166666666666667,0.0166666666666667,0.1,1.46666666666667,612494.8481515,612495.7657045,70,612494.8672093,612494.8840327,612494.9839653,612495.771319,612497.2363312,1,0.917553000035696
107,40,4,categorization,0,kitchen,SHINEd_sun_aiffeoqzngslhzfi.tif,93,0.0166666666666667,0.0166666666666667,0.1,1.43333333333333,612497.241475,612498.1416835,70,612497.2618911,612497.2772973,612497.3770402,612498.1472264,612499.5788968,1,0.90020849998109
107,41,4,categorization,0,bathroom,SHINEd_sun_aclfzgynxzxlbepz.tif,20,0.0166666666666667,0.0166666666666667,0.1,1.46666666666667,612499.5837736,612501.1500668,70,612499.6041572,612499.6201007,612499.7196771,612501.1559669,612502.6209712,0,1.56629319989588
107,42,4,categorization,0,bathroom,SHINEd_sun_acsgbuurtwghzjel.tif,21,0.0166666666666667,0.0166666666666667,0.1,0.883333333333333,612502.6258287,612503.8461892,70,612502.6446797,612502.661652,612502.7611783,612503.8509326,612504.732603,0,1.22036049992312
107,43,4,categorization,0,bathroom,SHINEd_sun_abtukhmkjdzyfxhr.tif,18,0.0166666666666667,0.0166666666666667,0.1,1.18333333333333,612504.7374935,612505.4296468,74,612504.7567827,612504.7737503,612504.8732573,612505.4348459,612506.6165174,1,0.692153300042264
107,44,4,categorization,0,bathroom,SHINEd_sun_akbyysnpwewzraii.tif,32,0.0166666666666667,0.0166666666666667,0.1,1.3,612506.6222396,612507.4707736,74,612506.643059,612506.6589456,612506.7577531,612507.4759089,612508.7742466,1,0.848533999989741
107,45,4,categorization,0,kitchen,SHINEd_sun_acfmftudsenhrfhy.tif,72,0.0166666666666667,0.0166666666666667,0.1,0.75,612508.7789579,612509.8144276,70,612508.7979519,612508.8150235,612508.9146421,612509.819913,612510.5682509,1,1.03546970000025
107,46,4,categorization,0,bathroom,SHINEd_sun_ajlpekbqvytdohqb.tif,31,0.0166666666666667,0.0166666666666667,0.1,1.8,612510.5729802,612511.3977583,74,612510.5921903,612510.6104705,612510.7087475,612511.4037241,612513.2020619,1,0.824778099893592
107,47,4,categorization,0,kitchen,SHINEd_sun_aaofphpvkeqlhwgu.tif,64,0.0166666666666667,0.0166666666666667,0.1,0.783333333333333,612513.2064106,612514.0376609,70,612513.2251887,612513.2423375,612513.3421666,612514.0437312,612514.8254017,1,0.83125030004885
107,48,4,categorization,0,kitchen,SHINEd_sun_ahvszpwjtodgwusx.tif,91,0.0166666666666667,0.0166666666666667,0.1,1.2,612514.8302046,612515.9743578,70,612514.849057,612514.8661701,612514.9652974,612515.9791683,612517.1775056,1,1.14415319997352
107,49,4,categorization,0,kitchen,SHINEd_sun_amjjdeyrggfqgmom.tif,99,0.0166666666666667,0.0166666666666667,0.1,0.833333333333333,612517.1823767,612517.9576125,70,612517.2011885,612517.2184611,612517.3186857,612517.9629359,612518.7946065,1,0.775235799956135
107,50,4,categorization,0,kitchen,SHINEd_sun_axaiaptzctpidqzg.tif,108,0.0166666666666667,0.0166666666666667,0.1,1,612518.799429,612519.6536381,70,612518.8180074,612518.8351314,612518.9352517,612519.6596521,612520.6580014,1,0.854209100012667
107,1,5,categorization,0,bathroom,SHINEd_sun_aoybiabnpadelefl.tif,43,0.0166666666666667,0.0166666666666667,0.1,1.45,612531.183521,612531.9016337,70,612531.2020573,612531.2197478,612531.3193015,612531.9071615,612533.3554984,0,0.718112700036727
107,2,5,categorization,0,bathroom,SHINEd_sun_ahqjwnzgolcaoidx.tif,29,0.0166666666666667,0.0166666666666667,0.1,1.11666666666667,612533.3605986,612534.7103003,74,612533.3795772,612533.3963323,612533.4960089,612534.7149242,612535.8299296,1,1.34970170003362
107,3,5,categorization,0,bathroom,SHINEd_sun_aclfzgynxzxlbepz.tif,20,0.0166666666666667,0.0166666666666667,0.1,0.95,612535.8358028,612536.462471,74,612535.8556991,612535.8726633,612535.9711346,612536.4676748,612537.4160132,1,0.626668200013228
107,4,5,categorization,0,kitchen,SHINEd_sun_axyyrmzcupyhlivc.tif,109,0.0166666666666667,0.0166666666666667,0.1,0.883333333333333,612537.4208188,612538.1017423,74,612537.4400597,612537.4566396,612537.5564796,612538.1077748,612538.9894477,0,0.680923499981873
107,5,5,categorization,0,bathroom,SHINEd_sun_aghyqhbptboemmoq.tif,25,0.0166666666666667,0.0166666666666667,0.1,0.783333333333333,612538.9942058,612539.6697311,70,612539.0132062,612539.0315971,612539.1299162,612539.6765539,612540.458224,0,0.675525299971923
107,6,5,categorization,0,bathroom,SHINEd_sun_aclfzgynxzxlbepz.tif,20,0.0166666666666667,0.0166666666666667,0.1,0.716666666666667,612540.4630846,612541.8376692,70,612540.4822006,612540.4990855,612540.5986159,612541.8432003,612542.5582055,0,1.37458459998015
107,7,5,categorization,0,bathroom,SHINEd_sun_ajlpekbqvytdohqb.tif,31,0.0166666666666667,0.0166666666666667,0.1,1.63333333333333,612542.5632161,612543.2869055,74,612542.582107,612542.6004822,612542.69932,612543.2925937,612544.924266,1,0.72368940000888
107,8,5,categorization,0,kitchen,SHINEd_sun_aglwoufpxbtxqecp.tif,84,0.0166666666666667,0.0166666666666667,0.1,1.93333333333333,612544.9295313,612545.7256501,70,612544.9497112,612544.9655092,612545.0651147,612545.7308154,612547.6624869,1,0.796118800062686
107,9,5,categorization,0,kitchen,SHINEd_sun_aglwoufpxbtxqecp.tif,84,0.0166666666666667,0.0166666666666667,0.1,1.3,612547.6673491,612548.8136663,74,612547.6861817,612547.7033728,612547.803107,612548.8193325,612550.1176693,0,1.14631720003672
107,10,5,categorization,0,bathroom,SHINEd_sun_alkosphxlxwjwgjd.tif,35,0.0166666666666667,0.0166666666666667,0.1,1.3,612550.1224781,612550.693641,70,612550.1426965,612550.158822,612550.25785,612550.6994288,612551.997765,0,0.571162899956107
107,11,5,categorization,0,bathroom,SHINEd_sun_axyrejkiiaqiurjk.tif,59,0.0166666666666667,0.0166666666666667,0.1,1.33333333333333,612552.0031214,612552.8623923,70,612552.0231703,612552.0388702,612552.1386738,612552.8675739,612554.1992455,0,0.859270900022238
107,12,5,categorization,0,kitchen,SHINEd_sun_axaiaptzctpidqzg.tif,108,0.0166666666666667,0.0166666666666667,0.1,1.11666666666667,612554.2040299,612554.918218,74,612554.2227179,612554.2399239,612554.3405901,612554.9233618,612556.0383656,0,0.714188099955209
107,13,5,categorization,0,kitchen,SHINEd_sun_acwjdupvyjsugpay.tif,73,0.0166666666666667,0.0166666666666667,0.1,1.28333333333333,612556.0431593,612556.8776863,70,612556.0621323,612556.0791753,612556.1786785,612556.8831096,612558.1647811,1,0.834526999969967
107,14,5,categorization,0,kitchen,SHINEd_sun_abdxkyyxwfskuaqb.tif,68,0.0166666666666667,0.0166666666666667,0.1,0.766666666666667,612558.1709442,612559.1096222,70,612558.190213,612558.2071118,612558.3069777,612559.1151719,612559.8801756,1,0.938678000005893
107,15,5,categorization,0,bathroom,SHINEd_sun_adbqksnwuqqwdpxc.tif,22,0.0166666666666667,0.0166666666666667,0.1,0.866666666666667,612559.8853662,612560.5257375,74,612559.9043582,612559.9218305,612560.0208931,612560.530781,612561.3957853,1,0.640371300047264
107,16,5,categorization,0,bathroom,SHINEd_sun_aoybiabnpadelefl.tif,43,0.0166666666666667,0.0166666666666667,0.1,1.33333333333333,612561.4006961,612562.2297399,70,612561.4197289,612561.4367216,612561.5365325,612562.2353194,612563.5669905,0,0.829043800011277
107,17,5,categorization,0,kitchen,SHINEd_sun_acfluyeqiftljamq.tif,71,0.0166666666666667,0.0166666666666667,0.1,1.26666666666667,612563.5715959,612564.3016867,74,612563.5904115,612563.6088467,612563.7071265,612564.3075223,612565.572526,0,0.730090799974278
107,18,5,categorization,0,kitchen,SHINEd_sun_acfluyeqiftljamq.tif,71,0.0166666666666667,0.0166666666666667,0.1,1.6,612565.5780392,612566.2456356,70,612565.59732,612565.6139158,612565.7134818,612566.2515124,612567.84985,1,0.667596399900503
107,19,5,categorization,0,kitchen,SHINEd_sun_agubuxuukhzyzpdp.tif,86,0.0166666666666667,0.0166666666666667,0.1,1.08333333333333,612567.8543834,612568.5102545,70,612567.8733688,612567.8902624,612567.9901234,612568.5150171,612569.5966864,1,0.655871100025252
107,20,5,categorization,0,bathroom,SHINEd_sun_aoybiabnpadelefl.tif,43,0.0166666666666667,0.0166666666666667,0.1,1.41666666666667,612569.6015229,612570.2377123,70,612569.6202419,612569.6385637,612569.7382335,612570.242796,612571.6577999,0,0.636189399985597
107,21,5,categorization,0,kitchen,SHINEd_sun_aaofphpvkeqlhwgu.tif,64,0.0166666666666667,0.0166666666666667,0.1,1.85,612571.662103,612572.4457453,70,612571.6815081,612571.6983315,612571.7977594,612572.4514371,612574.2997756,1,0.783642300055362
107,22,5,categorization,0,bathroom,SHINEd_sun_apeeialkgkuxddgh.tif,44,0.0166666666666667,0.0166666666666667,0.1,1.9,612574.3045685,612575.1175992,74,612574.3232721,612574.3404954,612574.4402853,612575.123152,612577.0214892,1,0.813030699966475
107,23,5,categorization,0,bathroom,SHINEd_sun_awnqiikzaispgmwo.tif,56,0.0166666666666667,0.0166666666666667,0.1,1.38333333333333,612577.0275905,612578.1587033,74,612577.0463088,612577.0634471,612577.1629986,612578.1635807,612579.5452522,1,1.13111280009616
107,24,5,categorization,0,kitchen,SHINEd_sun_ataniphupyuxeowc.tif,102,0.0166666666666667,0.0166666666666667,0.1,1.76666666666667,612579.5497983,612581.1182827,70,612579.5684014,612579.5857992,612579.6853319,612581.1235142,612582.8885173,1,1.56848439993337
107,25,5,categorization,0,bathroom,SHINEd_sun_aljolscmmzydegqp.tif,34,0.0166666666666667,0.0166666666666667,0.1,0.75,612582.8935703,612583.5496137,70,612582.9126946,612582.9295171,612583.0292023,612583.5554633,612584.3038019,0,0.65604340005666
107,26,5,categorization,0,kitchen,SHINEd_sun_agubuxuukhzyzpdp.tif,86,0.0166666666666667,0.0166666666666667,0.1,1.18333333333333,612584.308724,612584.9416392,74,612584.3277203,612584.3446799,612584.4443805,612584.9475745,612586.1292442,0,0.632915199967101
107,27,5,categorization,0,bathroom,SHINEd_sun_arzkwskvsrwimlwo.tif,48,0.0166666666666667,0.0166666666666667,0.1,1.25,612586.1339774,612587.1336504,70,612586.1530625,612586.1700103,612586.2697442,612587.1393791,612588.387717,0,0.999672999954782
107,28,5,categorization,0,kitchen,SHINEd_sun_axaiaptzctpidqzg.tif,108,0.0166666666666667,0.0166666666666667,0.1,1.18333333333333,612588.3924713,612589.3496252,70,612588.4111247,612588.4288124,612588.5278221,612589.3553899,612590.5370597,1,0.957153900060803
107,29,5,categorization,0,kitchen,SHINEd_sun_awcpdzzznmweyyhv.tif,107,0.0166666666666667,0.0166666666666667,0.1,1.21666666666667,612590.5414197,612591.6776099,74,612590.5602737,612590.5773101,612590.677179,612591.6833165,612592.8983216,0,1.13619019999169
107,30,5,categorization,0,bathroom,SHINEd_sun_aunuadmjocsddsrl.tif,52,0.0166666666666667,0.0166666666666667,0.1,0.75,612592.9030171,612593.8697374,70,612592.9224854,612592.9404097,612593.0388324,612593.8757062,612594.6240564,0,0.966720300028101
107,31,5,categorization,0,kitchen,SHINEd_sun_ahpczsiumwwocjkv.tif,90,0.0166666666666667,0.0166666666666667,0.1,1.73333333333333,612594.6287479,612595.3976985,74,612594.6475782,612594.6658535,612594.7642037,612595.4039262,612597.135597,0,0.768950599944219
107,32,5,categorization,0,bathroom,SHINEd_sun_aapitsgbtktqubfy.tif,14,0.0166666666666667,0.0166666666666667,0.1,0.7,612597.1406737,612598.0062154,70,612597.1593418,612597.1768282,612597.2761942,612598.0112775,612598.7096155,0,0.865541699924506
107,33,5,categorization,0,kitchen,SHINEd_sun_agubuxuukhzyzpdp.tif,86,0.0166666666666667,0.0166666666666667,0.1,1.55,612598.7160034,612599.9176878,70,612598.7347686,612598.7535591,612598.8516037,612599.9236656,612601.4720035,1,1.2016843999736
107,34,5,categorization,0,bathroom,SHINEd_sun_abeymlrfgckenfyk.tif,16,0.0166666666666667,0.0166666666666667,0.1,0.816666666666667,612601.476725,612602.2296316,74,612601.4959904,612601.5138506,612601.6120497,612602.2351646,612603.0501689,1,0.752906600013375
107,35,5,categorization,0,bathroom,SHINEd_sun_agyqfjcfkdcydepw.tif,27,0.0166666666666667,0.0166666666666667,0.1,0.816666666666667,612603.0546927,612603.8783176,74,612603.0737901,612603.0920568,612603.1904084,612603.8835179,612604.6985216,1,0.823624899960123
107,36,5,categorization,0,bathroom,SHINEd_sun_anltpptcpfdrhlks.tif,41,0.0166666666666667,0.0166666666666667,0.1,1.91666666666667,612604.7042622,612605.3575802,74,612604.7247987,612604.7417336,612604.8399816,612605.3625193,612607.2775341,1,0.653317999909632
107,37,5,categorization,0,bathroom,SHINEd_sun_anhioqovhscjqqwb.tif,39,0.0166666666666667,0.0166666666666667,0.1,0.883333333333333,612607.2823767,612608.3742715,74,612607.3013013,612607.3183816,612607.4181136,612608.3794931,612609.2611642,1,1.09189480007626
107,38,5,categorization,0,bathroom,SHINEd_sun_aamrfepkhweyewue.tif,13,0.0166666666666667,0.0166666666666667,0.1,1.6,612609.2661452,612610.0935835,74,612609.285014,612609.3024669,612609.4017281,612610.0994397,612611.6977768,1,0.827438300009817
107,39,5,categorization,0,bathroom,SHINEd_sun_ahcvzmoyaycdoftf.tif,28,0.0166666666666667,0.0166666666666667,0.1,1.73333333333333,612611.7036926,612612.6536335,74,612611.7230195,612611.74016,612611.8391876,612612.6599785,612614.3916506,1,0.949940899969079
107,40,5,categorization,0,bathroom,SHINEd_sun_agyqfjcfkdcydepw.tif,27,0.0166666666666667,0.0166666666666667,0.1,1.76666666666667,612614.397024,612615.4056786,70,612614.4164311,612614.4330936,612614.5326312,612615.4113361,612617.1763419,0,1.00865460000932
107,41,5,categorization,0,bathroom,SHINEd_sun_auzqhkafidnkrwmo.tif,54,0.0166666666666667,0.0166666666666667,0.1,1.25,612617.1813472,612617.8785997,74,612617.2006489,612617.2184942,612617.317069,612617.8833481,612619.1316865,1,0.697252500103787
107,42,5,categorization,0,kitchen,SHINEd_sun_aiffeoqzngslhzfi.tif,93,0.0166666666666667,0.0166666666666667,0.1,1.28333333333333,612619.1364926,612620.2707257,70,612619.1564435,612619.1725516,612619.2722339,612620.2755106,612621.5571806,1,1.13423309999052
107,43,5,categorization,0,bathroom,SHINEd_sun_agyqfjcfkdcydepw.tif,27,0.0166666666666667,0.0166666666666667,0.1,1.38333333333333,612621.5621478,612622.4306738,70,612621.5820272,612621.5980261,612621.6978984,612622.4352365,612623.8169157,0,0.868525999947451
107,44,5,categorization,0,kitchen,SHINEd_sun_aamedkxepzlwuxes.tif,63,0.0166666666666667,0.0166666666666667,0.1,1.18333333333333,612623.822025,612624.3661469,74,612623.8419119,612623.8598361,612623.9578915,612624.3711378,612625.5528151,0,0.544121899991296
107,45,5,categorization,0,bathroom,SHINEd_sun_abtukhmkjdzyfxhr.tif,18,0.0166666666666667,0.0166666666666667,0.1,1.73333333333333,612625.5578706,612626.1500575,74,612625.5768639,612625.5952296,612625.6935585,612626.1546251,612627.8862966,1,0.592186899972148
107,46,5,categorization,0,kitchen,SHINEd_sun_axaiaptzctpidqzg.tif,108,0.0166666666666667,0.0166666666666667,0.1,0.85,612627.8910526,612628.6387236,70,612627.9098622,612627.9270725,612628.0267831,612628.6437531,612629.4920919,1,0.747670999960974
107,47,5,categorization,0,bathroom,SHINEd_sun_ammzpemadwrjdfzl.tif,37,0.0166666666666667,0.0166666666666667,0.1,1.31666666666667,612629.4968846,612630.4776573,74,612629.5157617,612629.5331913,612629.6326806,612630.483074,612631.7980776,1,0.980772699927911
107,48,5,categorization,0,bathroom,SHINEd_sun_anltpptcpfdrhlks.tif,41,0.0166666666666667,0.0166666666666667,0.1,1.6,612631.8028671,612632.5736109,74,612631.8231327,612631.8390317,612631.9386725,612632.5789893,612634.177326,1,0.770743799977936
107,49,5,categorization,0,bathroom,SHINEd_sun_axbqssteryzzlcop.tif,57,0.0166666666666667,0.0166666666666667,0.1,0.866666666666667,612634.1820528,612634.8142666,74,612634.2027426,612634.2181425,612634.3178983,612634.8195813,612635.6845863,1,0.6322137999814
107,50,5,categorization,0,kitchen,SHINEd_sun_aeikbkmhphqzxdkv.tif,79,0.0166666666666667,0.0166666666666667,0.1,0.8,612635.6891184,612636.3736049,74,612635.7083308,612635.7254789,612635.8249077,612636.3791657,612637.1775025,0,0.684486499987543
107,1,6,categorization,0,bathroom,SHINEd_sun_anltpptcpfdrhlks.tif,41,0.0166666666666667,0.0166666666666667,0.1,0.866666666666667,612644.2575161,612644.8551351,74,612644.2763786,612644.2935138,612644.3930379,612644.8597427,612645.7247486,1,0.597619000007398
107,2,6,categorization,0,kitchen,SHINEd_sun_acfluyeqiftljamq.tif,71,0.0166666666666667,0.0166666666666667,0.1,0.966666666666667,612645.7292021,612646.6776911,74,612645.748109,612645.7664235,612645.8646889,612646.6835386,612647.6485418,0,0.948489000089467
107,3,6,categorization,0,bathroom,SHINEd_sun_akbyysnpwewzraii.tif,32,0.0166666666666667,0.0166666666666667,0.1,0.966666666666667,612647.6532309,612648.3495869,74,612647.6722876,612647.6890896,612647.7891888,612648.3545642,612649.3195685,1,0.696356000029482
107,4,6,categorization,0,bathroom,SHINEd_sun_apkxzenqapsujocq.tif,45,0.0166666666666667,0.0166666666666667,0.1,1.11666666666667,612649.3241932,612649.9655826,74,612649.3428839,612649.3603087,612649.4596888,612649.9709891,612651.0859934,1,0.641389399999753
107,5,6,categorization,0,kitchen,SHINEd_sun_ahvszpwjtodgwusx.tif,91,0.0166666666666667,0.0166666666666667,0.1,1.96666666666667,612651.0912721,612651.8136941,70,612651.1103951,612651.1272653,612651.2267735,612651.8196435,612653.7846492,1,0.722422000020742
107,6,6,categorization,0,bathroom,SHINEd_sun_adbqksnwuqqwdpxc.tif,22,0.0166666666666667,0.0166666666666667,0.1,1.83333333333333,612653.7893774,612654.6061451,74,612653.8081556,612653.8255864,612653.9249915,612654.6111289,612656.4427985,1,0.816767700016499
107,7,6,categorization,0,kitchen,SHINEd_sun_aglwoufpxbtxqecp.tif,84,0.0166666666666667,0.0166666666666667,0.1,1.01666666666667,612656.4476441,612657.2615988,70,612656.4667668,612656.4851114,612656.5835145,612657.2665535,612658.2815581,1,0.813954700017348
107,8,6,categorization,0,kitchen,SHINEd_sun_ahljzhgcdpomplvg.tif,89,0.0166666666666667,0.0166666666666667,0.1,0.883333333333333,612658.2874913,612659.4305372,74,612658.3074938,612658.323528,612658.422876,612659.4353848,612660.3170562,0,1.14304589992389
107,9,6,categorization,0,bathroom,SHINEd_sun_aavhrsfjbserjtht.tif,15,0.0166666666666667,0.0166666666666667,0.1,1.15,612660.321758,612661.1975953,74,612660.3405721,612660.3578094,612660.457778,612661.2032643,612662.3516007,1,0.875837300089188
107,10,6,categorization,0,kitchen,SHINEd_sun_aiffeoqzngslhzfi.tif,93,0.0166666666666667,0.0166666666666667,0.1,1.11666666666667,612662.3559321,612663.1501623,74,612662.3747005,612662.3928861,612662.4914715,612663.1547967,612664.2698022,0,0.794230200001039
107,11,6,categorization,0,kitchen,SHINEd_sun_ajcbwwvdlsvjyzje.tif,94,0.0166666666666667,0.0166666666666667,0.1,1.55,612664.2746897,612665.0385341,74,612664.2939972,612664.3107307,612664.410459,612665.043579,612666.5919158,0,0.763844400062226
107,12,6,categorization,0,bathroom,SHINEd_sun_axbqssteryzzlcop.tif,57,0.0166666666666667,0.0166666666666667,0.1,1.05,612666.5981413,612667.3175746,74,612666.6183934,612666.6341308,612666.7340139,612667.323291,612668.3716288,1,0.719433299964294
107,13,6,categorization,0,kitchen,SHINEd_sun_anbcmfjhobvmedkq.tif,100,0.0166666666666667,0.0166666666666667,0.1,1.16666666666667,612668.3765408,612669.1259918,70,612668.3965656,612668.4129229,612668.5122043,612669.1310418,612670.2960467,1,0.749451000010595
107,14,6,categorization,0,kitchen,SHINEd_sun_ahpczsiumwwocjkv.tif,90,0.0166666666666667,0.0166666666666667,0.1,0.883333333333333,612670.3008889,612671.1504316,70,612670.3200634,612670.3390596,612670.436559,612671.1556651,612672.0373356,1,0.849542700103484
107,15,6,categorization,0,bathroom,SHINEd_sun_anlddfvefwvocyae.tif,40,0.0166666666666667,0.0166666666666667,0.1,0.9,612672.043136,612672.7095979,74,612672.0625182,612672.0794392,612672.1786524,612672.7150417,612673.6133783,1,0.66646189999301
107,16,6,categorization,0,bathroom,SHINEd_sun_acsgbuurtwghzjel.tif,21,0.0166666666666667,0.0166666666666667,0.1,0.9,612673.6197649,612674.501624,74,612673.6400849,612673.6558181,612673.7552304,612674.5068852,612675.4052217,1,0.881859100074507
107,17,6,categorization,0,kitchen,SHINEd_sun_aehawpgmrlhlvcow.tif,78,0.0166666666666667,0.0166666666666667,0.1,1.98333333333333,612675.4102061,612676.2536719,70,612675.4304143,612675.4460974,612675.545845,612676.2597766,612678.2414479,1,0.843465800047852
107,18,6,categorization,0,kitchen,SHINEd_sun_alalhpqajafvlnho.tif,96,0.0166666666666667,0.0166666666666667,0.1,0.966666666666667,612678.2465738,612678.9015788,70,612678.2655501,612678.2825351,612678.3825248,612678.907138,612679.8721429,1,0.655005000066012
107,19,6,categorization,0,kitchen,SHINEd_sun_aehawpgmrlhlvcow.tif,78,0.0166666666666667,0.0166666666666667,0.1,1.25,612679.8767014,612680.5343124,70,612679.8969771,612679.9127602,612680.0128856,612680.5392352,612681.7875743,1,0.657611000002362
107,20,6,categorization,0,kitchen,SHINEd_sun_acfluyeqiftljamq.tif,71,0.0166666666666667,0.0166666666666667,0.1,1.73333333333333,612681.792471,612682.3735719,70,612681.8117273,612681.8285571,612681.927813,612682.3790754,612684.1107453,1,0.581100899958983
107,21,6,categorization,0,kitchen,SHINEd_sun_aehawpgmrlhlvcow.tif,78,0.0166666666666667,0.0166666666666667,0.1,1.68333333333333,612684.1151305,612684.7581935,70,612684.1337409,612684.1515853,612684.2508197,612684.7629931,612686.4446651,1,0.643062999937683
107,22,6,categorization,0,kitchen,SHINEd_sun_aehawpgmrlhlvcow.tif,78,0.0166666666666667,0.0166666666666667,0.1,1,612686.449386,612687.0380668,70,612686.4684395,612686.4866035,612686.5852296,612687.0428218,612688.041159,1,0.588680799934082
107,23,6,categorization,0,bathroom,SHINEd_sun_acsgbuurtwghzjel.tif,21,0.0166666666666667,0.0166666666666667,0.1,1.28333333333333,612688.0462106,612688.8615888,70,612688.0656366,612688.0819919,612688.1818784,612688.8674129,612690.1490832,0,0.815378200029954
107,24,6,categorization,0,kitchen,SHINEd_sun_auaiucuqpdausiva.tif,103,0.0166666666666667,0.0166666666666667,0.1,1.43333333333333,612690.1539713,612690.7495511,74,612690.1751053,612690.1901829,612690.2894248,612690.7553299,612692.1870011,0,0.595579799963161
107,25,6,categorization,0,kitchen,SHINEd_sun_aypmqwcualkenuoe.tif,110,0.0166666666666667,0.0166666666666667,0.1,1.18333333333333,612692.1918343,612693.2695903,74,612692.2105847,612692.2286017,612692.3272547,612693.2752502,612694.4569202,0,1.07775599998422
107,26,6,categorization,0,bathroom,SHINEd_sun_arzkwskvsrwimlwo.tif,48,0.0166666666666667,0.0166666666666667,0.1,1.25,612694.4617237,612695.1495564,70,612694.480466,612694.4978387,612694.5972716,612695.1552709,612696.4036078,0,0.687832699972205
107,27,6,categorization,0,kitchen,SHINEd_sun_awbyfefkbcrlrqws.tif,106,0.0166666666666667,0.0166666666666667,0.1,0.966666666666667,612696.4082773,612697.5665476,70,612696.4275747,612696.4443846,612696.5454045,612697.5715718,612698.5365756,1,1.15827030001674
107,28,6,categorization,0,kitchen,SHINEd_sun_aeqbewejiovwrhhc.tif,80,0.0166666666666667,0.0166666666666667,0.1,1.08333333333333,612698.5428129,612699.3656767,70,612698.5627094,612698.5801088,612698.6785424,612699.3717178,612700.4533895,1,0.822863799985498
107,29,6,categorization,0,bathroom,SHINEd_sun_adbqksnwuqqwdpxc.tif,22,0.0166666666666667,0.0166666666666667,0.1,0.95,612700.4586253,612701.1735592,74,612700.4779932,612700.494366,612700.5943303,612701.1795977,612702.127936,1,0.714933900046162
107,30,6,categorization,0,bathroom,SHINEd_sun_akbyysnpwewzraii.tif,32,0.0166666666666667,0.0166666666666667,0.1,0.883333333333333,612702.132572,612702.8466888,74,612702.1517496,612702.1687336,612702.2695151,612702.8517303,612703.7334,1,0.714116799994372
107,31,6,categorization,0,kitchen,SHINEd_sun_aggjlwcdjsjcaemh.tif,83,0.0166666666666667,0.0166666666666667,0.1,1.21666666666667,612703.7383641,612704.5656328,70,612703.7573598,612703.774382,612703.8747687,612704.5709652,612705.7859701,1,0.827268699998967
107,32,6,categorization,0,bathroom,SHINEd_sun_ajlpekbqvytdohqb.tif,31,0.0166666666666667,0.0166666666666667,0.1,1.61666666666667,612705.7920363,612706.749887,74,612705.8109234,612705.8279116,612705.9273875,612706.7545431,612708.3695464,1,0.957850700011477
107,33,6,categorization,0,bathroom,SHINEd_sun_aghyqhbptboemmoq.tif,25,0.0166666666666667,0.0166666666666667,0.1,0.933333333333333,612708.3742608,612709.0468101,74,612708.3931696,612708.4104699,612708.509791,612709.0518563,612709.983527,1,0.672549300012179
107,34,6,categorization,0,kitchen,SHINEd_sun_alalhpqajafvlnho.tif,96,0.0166666666666667,0.0166666666666667,0.1,1.4,612709.9886641,612710.6775993,70,612710.0078346,612710.0253336,612710.1243134,612710.6829312,612712.0812677,1,0.688935200101696
107,35,6,categorization,0,kitchen,SHINEd_sun_acfluyeqiftljamq.tif,71,0.0166666666666667,0.0166666666666667,0.1,1.46666666666667,612712.0869007,612712.8775313,74,612712.1057294,612712.1229676,612712.2224969,612712.8833633,612714.348367,0,0.790630599949509
107,36,6,categorization,0,kitchen,SHINEd_sun_auticobqsbwgoppi.tif,104,0.0166666666666667,0.0166666666666667,0.1,1.66666666666667,612714.3542232,612715.0141773,70,612714.3748121,612714.3915685,612714.4897667,612715.0189505,612716.6839545,1,0.659954100032337
107,37,6,categorization,0,bathroom,SHINEd_sun_akbyysnpwewzraii.tif,32,0.0166666666666667,0.0166666666666667,0.1,0.916666666666667,612716.688904,612717.414116,70,612716.7080275,612716.7261139,612716.824599,612717.4188551,612718.3338599,0,0.72521200007759
107,38,6,categorization,0,bathroom,SHINEd_sun_aamrfepkhweyewue.tif,13,0.0166666666666667,0.0166666666666667,0.1,0.783333333333333,612718.3389171,612719.0855199,74,612718.3580596,612718.3752744,612718.4748729,612719.0912108,612719.872882,1,0.746602799976245
107,39,6,categorization,0,bathroom,SHINEd_sun_azqyogdvyhahyram.tif,60,0.0166666666666667,0.0166666666666667,0.1,1.15,612719.8776917,612720.565959,74,612719.8970361,612719.9135724,612720.0130633,612720.5706635,612721.7190015,1,0.688267300021835
107,40,6,categorization,0,bathroom,SHINEd_sun_aljolscmmzydegqp.tif,34,0.0166666666666667,0.0166666666666667,0.1,1.75,612721.7238575,612722.5183935,70,612721.7431454,612721.7606307,612721.8596265,612722.5233059,612724.271644,0,0.794536000001244
107,41,6,categorization,0,bathroom,SHINEd_sun_aljolscmmzydegqp.tif,34,0.0166666666666667,0.0166666666666667,0.1,0.833333333333333,612724.2771214,612725.0375336,74,612724.2964944,612724.3133186,612724.4128048,612725.0431639,612725.874834,1,0.760412200004794
107,42,6,categorization,0,kitchen,SHINEd_sun_ajcbwwvdlsvjyzje.tif,94,0.0166666666666667,0.0166666666666667,0.1,0.966666666666667,612725.8796929,612726.4943394,74,612725.8990914,612725.9158182,612726.016288,612726.4995473,612727.4645517,0,0.614646499976516
107,43,6,categorization,0,kitchen,SHINEd_sun_aypmqwcualkenuoe.tif,110,0.0166666666666667,0.0166666666666667,0.1,1,612727.4709104,612728.1576533,70,612727.4907955,612727.5082863,612727.606569,612728.1632407,612729.1615784,1,0.686742899939418
107,44,6,categorization,0,bathroom,SHINEd_sun_ahqjwnzgolcaoidx.tif,29,0.0166666666666667,0.0166666666666667,0.1,1.18333333333333,612729.166573,612729.9336422,70,612729.1860106,612729.2040723,612729.3025095,612729.9392685,612731.1209386,0,0.767069199937396
107,45,6,categorization,0,kitchen,SHINEd_sun_akcjzhbbjlbogpdi.tif,95,0.0166666666666667,0.0166666666666667,0.1,1.98333333333333,612731.1262107,612731.717559,74,612731.1456693,612731.1634012,612731.2630574,612731.7227516,612733.7044214,0,0.591348299989477
107,46,6,categorization,0,kitchen,SHINEd_sun_ahvszpwjtodgwusx.tif,91,0.0166666666666667,0.0166666666666667,0.1,1.28333333333333,612733.7092028,612734.542114,70,612733.728423,612733.746611,612733.8446846,612734.5469885,612735.8286605,1,0.832911200006492
107,47,6,categorization,0,bathroom,SHINEd_sun_aavhrsfjbserjtht.tif,15,0.0166666666666667,0.0166666666666667,0.1,1.1,612735.833498,612736.6216261,70,612735.852505,612735.869734,612735.9692286,612736.6269953,612737.7253319,0,0.788128099986352
107,48,6,categorization,0,bathroom,SHINEd_labelme_sfxiulhjbhlyiyt.tif,11,0.0166666666666667,0.0166666666666667,0.1,1.33333333333333,612737.730481,612738.3735203,74,612737.7496363,612737.7667322,612737.8659982,612738.3790496,612739.710721,1,0.64303929999005
107,49,6,categorization,0,bathroom,SHINEd_sun_aavhrsfjbserjtht.tif,15,0.0166666666666667,0.0166666666666667,0.1,0.816666666666667,612739.7157946,612740.421557,74,612739.7348844,612739.7518709,612739.8515113,612740.4270987,612741.2421038,1,0.705762400059029
107,50,6,categorization,0,kitchen,SHINEd_sun_agubuxuukhzyzpdp.tif,86,0.0166666666666667,0.0166666666666667,0.1,1.53333333333333,612741.247113,612742.2863779,70,612741.2661591,612741.2831073,612741.3824497,612742.2917373,612743.8234078,1,1.03926490002777
107,1,7,categorization,0,kitchen,SHINEd_sun_acfluyeqiftljamq.tif,71,0.0166666666666667,0.0166666666666667,0.1,1.71666666666667,612764.1660423,612765.1901439,70,612764.1846596,612764.203002,612764.3014961,612765.1950384,612766.9100493,1,1.02410159993451
107,2,7,categorization,0,bathroom,SHINEd_sun_azqyogdvyhahyram.tif,60,0.0166666666666667,0.0166666666666667,0.1,0.733333333333333,612766.9160575,612767.7096239,74,612766.935104,612766.9522942,612767.0514264,612767.7148499,612768.4465213,1,0.793566399952397
107,3,7,categorization,0,kitchen,SHINEd_sun_acfluyeqiftljamq.tif,71,0.0166666666666667,0.0166666666666667,0.1,1.21666666666667,612768.4522992,612769.5262343,74,612768.4723909,612768.4901626,612768.588091,612769.5312913,612770.7462958,0,1.07393509999383
107,4,7,categorization,0,bathroom,SHINEd_labelme_xbsnnlvmskdknsb.tif,12,0.0166666666666667,0.0166666666666667,0.1,1.46666666666667,612770.7517524,612771.5343617,74,612770.7721124,612770.7876363,612770.8872611,612771.5394085,612773.0044121,1,0.782609299989417
107,5,7,categorization,0,bathroom,SHINEd_labelme_sfxiulhjbhlyiyt.tif,11,0.0166666666666667,0.0166666666666667,0.1,1.26666666666667,612773.0096815,612773.7263368,74,612773.0285927,612773.0456036,612773.1453009,612773.7313822,612774.9963875,1,0.71665529999882
107,6,7,categorization,0,kitchen,SHINEd_sun_awbyfefkbcrlrqws.tif,106,0.0166666666666667,0.0166666666666667,0.1,1.91666666666667,612775.0013476,612775.8534561,70,612775.0202742,612775.0374363,612775.1369877,612775.8608806,612777.775884,1,0.852108499966562
107,7,7,categorization,0,bathroom,SHINEd_sun_anltpptcpfdrhlks.tif,41,0.0166666666666667,0.0166666666666667,0.1,1.2,612777.7817635,612778.533518,74,612777.8007499,612777.8178196,612777.9173188,612778.5395045,612779.7378424,1,0.751754500088282
107,8,7,categorization,0,bathroom,SHINEd_sun_aghyqhbptboemmoq.tif,25,0.0166666666666667,0.0166666666666667,0.1,0.883333333333333,612779.7426398,612780.5415127,70,612779.7619395,612779.7785349,612779.8786269,612780.5475568,612781.4292268,0,0.798872900079004
107,9,7,categorization,0,bathroom,SHINEd_sun_aunuadmjocsddsrl.tif,52,0.0166666666666667,0.0166666666666667,0.1,0.85,612781.4352267,612782.3022006,74,612781.4540881,612781.4725045,612781.5708323,612782.3073489,612783.1556854,1,0.866973900003359
107,10,7,categorization,0,bathroom,SHINEd_sun_aamrfepkhweyewue.tif,13,0.0166666666666667,0.0166666666666667,0.1,1.55,612783.1603157,612784.0545376,70,612783.1791929,612783.1976703,612783.295562,612784.0594097,612785.6077468,0,0.894221900030971
107,11,7,categorization,0,kitchen,SHINEd_sun_adgqasybjyktddhj.tif,75,0.0166666666666667,0.0166666666666667,0.1,0.983333333333333,612785.6125953,612786.5262104,74,612785.6325733,612785.649275,612785.7480827,612786.5312706,612787.5129422,0,0.913615100085735
107,12,7,categorization,0,bathroom,SHINEd_sun_apynckhmoftszqoq.tif,46,0.0166666666666667,0.0166666666666667,0.1,1.03333333333333,612787.5171769,612788.1096263,70,612787.53676,612787.5532771,612787.6524277,612788.1150832,612789.1467548,0,0.592449400108308
107,13,7,categorization,0,bathroom,SHINEd_sun_awnqiikzaispgmwo.tif,56,0.0166666666666667,0.0166666666666667,0.1,1.6,612789.1526889,612789.6134085,74,612789.1715651,612789.1888572,612789.2892055,612789.619192,612791.2175288,1,0.460719599970616
107,14,7,categorization,0,bathroom,SHINEd_sun_agrwbmhcpmfuwmsg.tif,26,0.0166666666666667,0.0166666666666667,0.1,0.9,612791.2223639,612791.8620671,74,612791.2411804,612791.2597849,612791.3582979,612791.867152,612792.7654895,1,0.639703199965879
107,15,7,categorization,0,bathroom,SHINEd_sun_anhioqovhscjqqwb.tif,39,0.0166666666666667,0.0166666666666667,0.1,1.71666666666667,612792.7700168,612793.4214944,74,612792.7896132,612792.8074108,612792.9059167,612793.4270757,612795.1420796,1,0.651477599982172
107,16,7,categorization,0,bathroom,SHINEd_sun_axyrejkiiaqiurjk.tif,59,0.0166666666666667,0.0166666666666667,0.1,0.916666666666667,612795.14837,612795.7661801,74,612795.1678388,612795.1849519,612795.2845464,612795.771301,612796.6863051,1,0.617810100084171
107,17,7,categorization,0,kitchen,SHINEd_sun_agfmsmojwptjoava.tif,82,0.0166666666666667,0.0166666666666667,0.1,1.91666666666667,612796.6925906,612797.3823983,70,612796.7111151,612796.7287784,612796.8282757,612797.3875431,612799.3025488,1,0.689807699993253
107,18,7,categorization,0,bathroom,SHINEd_sun_awnqiikzaispgmwo.tif,56,0.0166666666666667,0.0166666666666667,0.1,1.21666666666667,612799.3072166,612800.077504,70,612799.3260895,612799.343533,612799.4429087,612800.083224,612801.2982282,0,0.770287399995141
107,19,7,categorization,0,kitchen,SHINEd_sun_axaiaptzctpidqzg.tif,108,0.0166666666666667,0.0166666666666667,0.1,1.1,612801.3030719,612801.8454026,74,612801.3233178,612801.3391715,612801.4388964,612801.8516339,612802.9499849,0,0.542330699972808
107,20,7,categorization,0,bathroom,SHINEd_sun_agrwbmhcpmfuwmsg.tif,26,0.0166666666666667,0.0166666666666667,0.1,0.95,612802.9547084,612803.5735077,70,612802.9747597,612802.9921581,612803.0914003,612803.5786762,612804.5270148,0,0.618799300049432
107,21,7,categorization,0,kitchen,SHINEd_sun_ahywdevtimnqcsln.tif,92,0.0166666666666667,0.0166666666666667,0.1,1.85,612804.5333275,612805.4387787,70,612804.5522231,612804.5695521,612804.6690683,612805.4431793,612807.2915159,1,0.905451199971139
107,22,7,categorization,0,bathroom,SHINEd_sun_ahcvzmoyaycdoftf.tif,28,0.0166666666666667,0.0166666666666667,0.1,1.01666666666667,612807.2979028,612807.9975138,70,612807.3166989,612807.3341203,612807.4332787,612808.0032689,612809.018272,0,0.699611000018194
107,23,7,categorization,0,bathroom,SHINEd_sun_anhioqovhscjqqwb.tif,39,0.0166666666666667,0.0166666666666667,0.1,1.28333333333333,612809.0231148,612810.2142713,70,612809.0434837,612809.0594632,612809.1591757,612810.2195418,612811.5012117,0,1.19115650001913
107,24,7,categorization,0,kitchen,SHINEd_sun_agubuxuukhzyzpdp.tif,86,0.0166666666666667,0.0166666666666667,0.1,1.13333333333333,612811.5057425,612812.4774914,70,612811.525036,612811.5418205,612811.6423168,612812.4827448,612813.6144154,1,0.971748900017701
107,25,7,categorization,0,bathroom,SHINEd_sun_aavhrsfjbserjtht.tif,15,0.0166666666666667,0.0166666666666667,0.1,0.7,612813.6208557,612814.4462097,70,612813.6401833,612813.6582141,612813.7580319,612814.4516759,612815.1500135,0,0.825353999971412
107,26,7,categorization,0,bathroom,SHINEd_sun_aapitsgbtktqubfy.tif,14,0.0166666666666667,0.0166666666666667,0.1,0.783333333333333,612815.1545537,612816.0380928,74,612815.1733963,612815.1904748,612815.2914282,612816.0429697,612816.8246471,1,0.883539099944755
107,27,7,categorization,0,bathroom,SHINEd_sun_aljolscmmzydegqp.tif,34,0.0166666666666667,0.0166666666666667,0.1,1.13333333333333,612816.8296846,612817.8060768,74,612816.8484602,612816.8662263,612816.9652669,612817.8110649,612818.9427369,1,0.97639219998382
107,28,7,categorization,0,bathroom,SHINEd_sun_ambriybtogmepttm.tif,36,0.0166666666666667,0.0166666666666667,0.1,1.46666666666667,612818.9475759,612819.5740379,74,612818.9678829,612818.983669,612819.0832887,612819.5785526,612821.0435678,1,0.626461999956518
107,29,7,categorization,0,kitchen,SHINEd_sun_ahpczsiumwwocjkv.tif,90,0.0166666666666667,0.0166666666666667,0.1,0.8,612821.0491233,612822.0535018,70,612821.0691993,612821.0851228,612821.1849501,612822.0594098,612822.8577483,1,1.00437850004528
107,30,7,categorization,0,kitchen,SHINEd_sun_ahpczsiumwwocjkv.tif,90,0.0166666666666667,0.0166666666666667,0.1,1.16666666666667,612822.8626923,612823.6933958,70,612822.8815691,612822.8984837,612822.9980193,612823.6991631,612824.8641671,1,0.830703499959782
107,31,7,categorization,0,bathroom,SHINEd_sun_atstyziqcmkahyxk.tif,51,0.0166666666666667,0.0166666666666667,0.1,1.51666666666667,612824.8691697,612826.1895295,70,612824.8889903,612824.9064738,612825.0046016,612826.1951483,612827.7101669,0,1.32035980001092
107,32,7,categorization,0,kitchen,SHINEd_sun_aapllqyqlykszopd.tif,65,0.0166666666666667,0.0166666666666667,0.1,0.833333333333333,612827.7147789,612828.6140423,70,612827.7333888,612827.7507255,612827.8504793,612828.6190143,612829.4506853,1,0.899263400002383
107,33,7,categorization,0,kitchen,SHINEd_sun_aamedkxepzlwuxes.tif,63,0.0166666666666667,0.0166666666666667,0.1,1.05,612829.4554916,612830.14181,74,612829.4751875,612829.4915833,612829.5914501,612830.1470001,612831.1953377,0,0.686318399966694
107,34,7,categorization,0,kitchen,SHINEd_sun_axyyrmzcupyhlivc.tif,109,0.0166666666666667,0.0166666666666667,0.1,1.48333333333333,612831.2002759,612832.0304485,74,612831.2205039,612831.2367306,612831.3369267,612832.0354231,612833.5170942,0,0.830172599991783
107,35,7,categorization,0,kitchen,SHINEd_sun_auaiucuqpdausiva.tif,103,0.0166666666666667,0.0166666666666667,0.1,1.56666666666667,612833.5219164,612834.1334912,70,612833.5410707,612833.5581643,612833.6580753,612834.1389016,612835.7039063,1,0.611574800102971
107,36,7,categorization,0,kitchen,SHINEd_sun_aaofphpvkeqlhwgu.tif,64,0.0166666666666667,0.0166666666666667,0.1,1.81666666666667,612835.7102828,612836.4383514,70,612835.7291218,612835.7461588,612835.8456375,612836.4433972,612838.2584022,1,0.728068599943072
107,37,7,categorization,0,kitchen,SHINEd_sun_aapllqyqlykszopd.tif,65,0.0166666666666667,0.0166666666666667,0.1,1.98333333333333,612838.2642454,612838.997991,70,612838.2830502,612838.3003363,612838.3999298,612839.0026951,612840.9843671,1,0.733745599980466
107,38,7,categorization,0,kitchen,SHINEd_sun_amjjdeyrggfqgmom.tif,99,0.0166666666666667,0.0166666666666667,0.1,1.46666666666667,612840.9893724,612841.7415327,70,612841.0081479,612841.0266453,612841.1252087,612841.7471435,612843.2121476,1,0.75216030003503
107,39,7,categorization,0,bathroom,SHINEd_sun_adbqksnwuqqwdpxc.tif,22,0.0166666666666667,0.0166666666666667,0.1,1.26666666666667,612843.2181451,612843.8935078,74,612843.237092,612843.2541129,612843.3534101,612843.8989781,612845.1639818,1,0.67536269989796
107,40,7,categorization,0,bathroom,SHINEd_labelme_sfxiulhjbhlyiyt.tif,11,0.0166666666666667,0.0166666666666667,0.1,1.46666666666667,612845.1690778,612845.8534969,74,612845.189078,612845.2051739,612845.3058089,612845.8598555,612847.3248598,1,0.684419099939987
107,41,7,categorization,0,bathroom,SHINEd_labelme_xbsnnlvmskdknsb.tif,12,0.0166666666666667,0.0166666666666667,0.1,0.95,612847.3298041,612847.8934748,74,612847.3486193,612847.3655834,612847.4652484,612847.8990243,612848.8473626,1,0.563670700066723
107,42,7,categorization,0,kitchen,SHINEd_sun_acfmftudsenhrfhy.tif,72,0.0166666666666667,0.0166666666666667,0.1,1.48333333333333,612848.852564,612849.7094816,70,612848.8727497,612848.8886543,612848.9879366,612849.7150897,612851.1967617,1,0.856917600031011
107,43,7,categorization,0,bathroom,SHINEd_sun_afcoljnjfoxjtgja.tif,24,0.0166666666666667,0.0166666666666667,0.1,1.11666666666667,612851.2016707,612851.9734919,70,612851.2206182,612851.2389611,612851.3374199,612851.9792505,612853.0942541,0,0.771821200032718
107,44,7,categorization,0,bathroom,SHINEd_sun_afcoljnjfoxjtgja.tif,24,0.0166666666666667,0.0166666666666667,0.1,1.7,612853.0993033,612853.789491,70,612853.118351,612853.1363433,612853.2360529,612853.7950951,612855.4934333,0,0.690187699976377
107,45,7,categorization,0,kitchen,SHINEd_sun_aapllqyqlykszopd.tif,65,0.0166666666666667,0.0166666666666667,0.1,1.45,612855.4990824,612856.4943956,74,612855.5190685,612855.5364348,612855.6347882,612856.4995557,612857.9478923,0,0.995313200051896
107,46,7,categorization,0,bathroom,SHINEd_sun_aovflwamhlwzwvxs.tif,42,0.0166666666666667,0.0166666666666667,0.1,1.76666666666667,612857.9524958,612858.622151,74,612857.9723168,612857.9886099,612858.0882212,612858.6268118,612860.3918163,1,0.669655199977569
107,47,7,categorization,0,kitchen,SHINEd_sun_aegoxogugdkwpmpj.tif,77,0.0166666666666667,0.0166666666666667,0.1,1.71666666666667,612860.3966703,612861.4384611,74,612860.415731,612860.4327916,612860.5324562,612861.4434304,612863.1584463,0,1.04179079993628
107,48,7,categorization,0,kitchen,SHINEd_sun_aeqbewejiovwrhhc.tif,80,0.0166666666666667,0.0166666666666667,0.1,0.783333333333333,612863.1632364,612863.9663004,70,612863.182038,612863.1996719,612863.2989405,612863.9712179,612864.7528891,1,0.803063999977894
107,49,7,categorization,0,bathroom,SHINEd_sun_ausgutylgojavyoq.tif,53,0.0166666666666667,0.0166666666666667,0.1,1.43333333333333,612864.7575592,612865.7174902,74,612864.7760942,612864.7937908,612864.8932601,612865.7231538,612867.1548258,1,0.959930999903008
107,50,7,categorization,0,kitchen,SHINEd_sun_abdenxonkemggwsq.tif,67,0.0166666666666667,0.0166666666666667,0.1,1.11666666666667,612867.1596939,612868.0940435,70,612867.1788022,612867.1961352,612867.2952105,612868.0991175,612869.214121,1,0.934349599992856
107,1,8,categorization,0,kitchen,SHINEd_sun_agubuxuukhzyzpdp.tif,86,0.0166666666666667,0.0166666666666667,0.1,0.766666666666667,612878.3007466,612879.09389,70,612878.3195246,612878.3367204,612878.4375954,612879.0986451,612879.8636491,1,0.793143399991095
107,2,8,categorization,0,kitchen,SHINEd_sun_aiffeoqzngslhzfi.tif,93,0.0166666666666667,0.0166666666666667,0.1,1.23333333333333,612879.8684071,612880.8454576,74,612879.8874678,612879.9044504,612880.0040546,612880.8503064,612882.0819775,0,0.977050499990582
107,3,8,categorization,0,bathroom,SHINEd_sun_abtukhmkjdzyfxhr.tif,18,0.0166666666666667,0.0166666666666667,0.1,0.716666666666667,612882.08661,612882.7574773,74,612882.1056873,612882.1227786,612882.2220705,612882.7625172,612883.4775203,1,0.670867300010286
107,4,8,categorization,0,bathroom,SHINEd_sun_apynckhmoftszqoq.tif,46,0.0166666666666667,0.0166666666666667,0.1,1.61666666666667,612883.4821558,612884.4622794,70,612883.5012125,612883.5183116,612883.6179781,612884.4670968,612886.0821004,0,0.980123599991202
107,5,8,categorization,0,kitchen,SHINEd_sun_anbcmfjhobvmedkq.tif,100,0.0166666666666667,0.0166666666666667,0.1,1.11666666666667,612886.0870549,612886.7900235,70,612886.1061043,612886.1232381,612886.2229384,612886.7949874,612887.9099919,1,0.702968599973246
107,6,8,categorization,0,kitchen,SHINEd_labelme_rykdqxenmhulbdn.tif,61,0.0166666666666667,0.0166666666666667,0.1,1.46666666666667,612887.9163383,612888.7181745,74,612887.9353494,612887.9525512,612888.052733,612888.7230059,612890.1880097,0,0.80183620005846
107,7,8,categorization,0,bathroom,SHINEd_sun_axxbkopsgyouuebh.tif,58,0.0166666666666667,0.0166666666666667,0.1,1.95,612890.1928648,612890.8775608,74,612890.213096,612890.2291342,612890.3288529,612890.8836873,612892.8320263,1,0.68469600006938
107,8,8,categorization,0,bathroom,SHINEd_sun_anhioqovhscjqqwb.tif,39,0.0166666666666667,0.0166666666666667,0.1,1.68333333333333,612892.8377345,612893.6215391,74,612892.8577992,612892.8751134,612892.9736578,612893.626967,612895.3086386,1,0.783804600010626
107,9,8,categorization,0,bathroom,SHINEd_sun_aoybiabnpadelefl.tif,43,0.0166666666666667,0.0166666666666667,0.1,1.21666666666667,612895.3138644,612896.0219739,74,612895.3340507,612895.3499875,612895.4493805,612896.027022,612897.2420273,1,0.708109500003047
107,10,8,categorization,0,bathroom,SHINEd_sun_atstyziqcmkahyxk.tif,51,0.0166666666666667,0.0166666666666667,0.1,0.733333333333333,612897.2477544,612897.9735427,74,612897.2675133,612897.2854506,612897.3834095,612897.9785582,612898.7102295,1,0.725788300042041
107,11,8,categorization,0,bathroom,SHINEd_sun_abeymlrfgckenfyk.tif,16,0.0166666666666667,0.0166666666666667,0.1,1.93333333333333,612898.715006,612899.326021,74,612898.7350738,612898.7508157,612898.8508162,612899.3308581,612901.2625286,1,0.61101500003133
107,12,8,categorization,0,bathroom,SHINEd_sun_anhioqovhscjqqwb.tif,39,0.0166666666666667,0.0166666666666667,0.1,0.833333333333333,612901.2672372,612901.8219638,74,612901.2864046,612901.3032514,612901.403068,612901.8270191,612902.6586892,1,0.554726599948481
107,13,8,categorization,0,bathroom,SHINEd_sun_asfwthctfqerjvxr.tif,49,0.0166666666666667,0.0166666666666667,0.1,1.8,612902.6640078,612903.5254629,74,612902.6831937,612902.701514,612902.8000254,612903.5310242,612905.3293621,1,0.861455100006424
107,14,8,categorization,0,bathroom,SHINEd_sun_alkosphxlxwjwgjd.tif,35,0.0166666666666667,0.0166666666666667,0.1,1.05,612905.335701,612905.99745,74,612905.355188,612905.3724633,612905.4712699,612906.0030791,612907.0514168,1,0.661749000078999
107,15,8,categorization,0,kitchen,SHINEd_sun_awbyfefkbcrlrqws.tif,106,0.0166666666666667,0.0166666666666667,0.1,1.21666666666667,612907.056255,612907.8220367,70,612907.0763058,612907.0922923,612907.1916757,612907.8268531,612909.0418578,1,0.765781700029038
107,16,8,categorization,0,bathroom,SHINEd_sun_adwvsndpdsgzeste.tif,23,0.0166666666666667,0.0166666666666667,0.1,0.85,612909.0467988,612909.7738649,70,612909.0661706,612909.0828244,612909.1824622,612909.7785298,612910.6268683,0,0.727066099992953
107,17,8,categorization,0,kitchen,SHINEd_sun_aeikbkmhphqzxdkv.tif,79,0.0166666666666667,0.0166666666666667,0.1,1.11666666666667,612910.6313337,612911.3988752,70,612910.6501866,612910.6674482,612910.7668336,612911.4041242,612912.5191283,1,0.767541499924846
107,18,8,categorization,0,bathroom,SHINEd_sun_azqyogdvyhahyram.tif,60,0.0166666666666667,0.0166666666666667,0.1,1.03333333333333,612912.5240479,612913.3174417,74,612912.5443292,612912.5613878,612912.6595291,612913.3227163,612914.3543871,1,0.793393800035119
107,19,8,categorization,0,kitchen,SHINEd_sun_aaxxjlsuzvqlgylf.tif,66,0.0166666666666667,0.0166666666666667,0.1,1.25,612914.3592402,612914.9653892,70,612914.3781907,612914.3953938,612914.4941957,612914.9704346,612916.2187733,1,0.606148999999277
107,20,8,categorization,0,kitchen,SHINEd_sun_anbcmfjhobvmedkq.tif,100,0.0166666666666667,0.0166666666666667,0.1,1.36666666666667,612916.2237897,612916.8935522,70,612916.2426136,612916.2597126,612916.3592342,612916.899154,612918.2641586,1,0.669762500096112
107,21,8,categorization,0,kitchen,SHINEd_sun_abdenxonkemggwsq.tif,67,0.0166666666666667,0.0166666666666667,0.1,1.55,612918.2705155,612918.8854787,70,612918.2894212,612918.3074235,612918.4061599,612918.8904271,612920.4387648,1,0.614963200059719
107,22,8,categorization,0,bathroom,SHINEd_labelme_xbsnnlvmskdknsb.tif,12,0.0166666666666667,0.0166666666666667,0.1,1.38333333333333,612920.4449033,612920.9660703,70,612920.4652012,612920.4819745,612920.580901,612920.9708939,612922.3525636,0,0.52116699994076
107,23,8,categorization,0,bathroom,SHINEd_sun_aiskgiwswewisvph.tif,30,0.0166666666666667,0.0166666666666667,0.1,0.85,612922.3572176,612923.0545466,70,612922.3767991,612922.3932721,612922.492777,612923.0594343,612923.9077721,0,0.697328999987803
107,24,8,categorization,0,bathroom,SHINEd_sun_aavhrsfjbserjtht.tif,15,0.0166666666666667,0.0166666666666667,0.1,0.8,612923.9130046,612924.9504204,74,612923.9333252,612923.9501625,612924.0497889,612924.9554254,612925.7537641,1,1.03741580003407
107,25,8,categorization,0,bathroom,SHINEd_sun_aqrpegblszgcoujh.tif,47,0.0166666666666667,0.0166666666666667,0.1,1.6,612925.758647,612926.646045,74,612925.7778122,612925.7944314,612925.8943089,612926.6508589,612928.2491983,1,0.887397999991663
107,26,8,categorization,0,kitchen,SHINEd_sun_aaofphpvkeqlhwgu.tif,64,0.0166666666666667,0.0166666666666667,0.1,1.48333333333333,612928.2545667,612929.0059471,70,612928.2732979,612928.2906201,612928.3899615,612929.0105671,612930.4922376,1,0.751380400033668
107,27,8,categorization,0,bathroom,SHINEd_sun_aapitsgbtktqubfy.tif,14,0.0166666666666667,0.0166666666666667,0.1,0.783333333333333,612930.4967421,612931.1580375,70,612930.5156959,612930.532593,612930.6322194,612931.1631327,612931.9448028,0,0.661295400001109
107,28,8,categorization,0,kitchen,SHINEd_sun_akcjzhbbjlbogpdi.tif,95,0.0166666666666667,0.0166666666666667,0.1,1.63333333333333,612931.9493207,612932.4695436,74,612931.9682377,612931.9851458,612932.085002,612932.475017,612934.1066888,0,0.520222899969667
107,29,8,categorization,0,kitchen,SHINEd_sun_aapllqyqlykszopd.tif,65,0.0166666666666667,0.0166666666666667,0.1,1.45,612934.111293,612934.7820976,70,612934.1300975,612934.1471892,612934.2467485,612934.7870162,612936.2353533,1,0.670804599998519
107,30,8,categorization,0,kitchen,SHINEd_sun_agorklincwxrdtga.tif,85,0.0166666666666667,0.0166666666666667,0.1,0.983333333333333,612936.2399314,612937.174109,70,612936.2590906,612936.2764126,612936.3753522,612937.1789449,612938.1606158,1,0.934177599963732
107,31,8,categorization,0,bathroom,SHINEd_sun_ammzpemadwrjdfzl.tif,37,0.0166666666666667,0.0166666666666667,0.1,0.75,612938.1653827,612938.7820117,70,612938.1854058,612938.2014527,612938.3011236,612938.7873843,612939.5357233,0,0.616628999938257
107,32,8,categorization,0,bathroom,SHINEd_sun_aovflwamhlwzwvxs.tif,42,0.0166666666666667,0.0166666666666667,0.1,1.61666666666667,612939.5405776,612940.3574476,74,612939.5595368,612939.5766996,612939.6762184,612940.3626826,612941.9776867,1,0.816869999980554
107,33,8,categorization,0,bathroom,SHINEd_sun_adbqksnwuqqwdpxc.tif,22,0.0166666666666667,0.0166666666666667,0.1,0.816666666666667,612941.9824202,612942.6944656,74,612942.0013499,612942.0195024,612942.1182479,612942.699391,612943.5143962,1,0.712045399937779
107,34,8,categorization,0,kitchen,SHINEd_sun_auticobqsbwgoppi.tif,104,0.0166666666666667,0.0166666666666667,0.1,0.966666666666667,612943.5202811,612944.2454397,74,612943.5396882,612943.5564737,612943.6562642,612944.2511063,612945.2161104,0,0.725158600020222
107,35,8,categorization,0,bathroom,SHINEd_labelme_xbsnnlvmskdknsb.tif,12,0.0166666666666667,0.0166666666666667,0.1,0.866666666666667,612945.2207262,612946.0295099,74,612945.2395787,612945.2567819,612945.355863,612946.0350344,612946.9000386,1,0.808783699991181
107,36,8,categorization,0,kitchen,SHINEd_sun_ahvszpwjtodgwusx.tif,91,0.0166666666666667,0.0166666666666667,0.1,0.833333333333333,612946.9046909,612947.8214661,70,612946.9236551,612946.9407585,612947.0415696,612947.8267011,612948.6583729,1,0.916775200050324
