sub_num,trial,block,task,is_practice,category,image,texture,duration,blank,mask_dur,jitter,stim_time,time_of_resp,trial_response,blank_time,mask_time,fix_time,jit_onset,trial_end,trial_accuracy,RT
106,1,0,categorization,1,bathroom,SHINEd_bathroom_practice1.tif,111,0.0166666666666667,0.0166666666666667,0.1,0.7,611141.7599153,611142.4949851,70,611141.7794037,611141.7988918,611141.8958231,611142.5336755,611143.2320942,1,0.735069800051861
106,2,0,categorization,1,bathroom,SHINEd_bathroom_practice2.tif,112,0.0166666666666667,0.0166666666666667,0.1,1.73333333333333,611143.2413879,611144.1034948,70,611143.2602317,611143.2774288,611143.3770597,611144.1111933,611145.8429123,1,0.862106900080107
106,3,0,categorization,1,bathroom,SHINEd_bathroom_practice3.tif,113,0.0166666666666667,0.0166666666666667,0.1,0.983333333333333,611145.851761,611146.4784084,70,611145.8718884,611145.8888042,611145.9872616,611146.4861776,611147.4678849,1,0.626647399971262
106,4,0,categorization,1,bathroom,SHINEd_bathroom_practice4.tif,114,0.0166666666666667,0.0166666666666667,0.1,0.983333333333333,611147.4728332,611148.1591627,70,611147.4930413,611147.5090128,611147.6094978,611148.1657057,611149.147426,1,0.6863294999348
106,5,0,categorization,1,bathroom,SHINEd_bathroom_practice5.tif,115,0.0166666666666667,0.0166666666666667,0.1,1.03333333333333,611149.1532498,611150.0469436,74,611149.1722806,611149.1894893,611149.2891106,611150.0574528,611151.0892287,0,0.893693800084293
106,6,0,categorization,1,kitchen,SHINEd_kitchen_practice1.tif,116,0.0166666666666667,0.0166666666666667,0.1,1.61666666666667,611151.0945504,611151.7266757,74,611151.1136484,611151.1307252,611151.2304525,611151.7323909,611153.3473945,1,0.63212530000601
106,7,0,categorization,1,kitchen,SHINEd_kitchen_practice2.tif,117,0.0166666666666667,0.0166666666666667,0.1,1.06666666666667,611153.3519264,611154.6399335,70,611153.3717707,611153.3891225,611153.4878818,611154.6459199,611155.7109248,0,1.28800709999632
106,8,0,categorization,1,kitchen,SHINEd_kitchen_practice3.tif,118,0.0166666666666667,0.0166666666666667,0.1,0.833333333333333,611155.716566,611156.5189425,74,611155.7352477,611155.7521615,611155.8522085,611156.524222,611157.3558925,1,0.802376499981619
106,9,0,categorization,1,kitchen,SHINEd_kitchen_practice4.tif,119,0.0166666666666667,0.0166666666666667,0.1,0.933333333333333,611157.3609531,611158.0627753,74,611157.3800987,611157.3966291,611157.4981379,611158.0690925,611159.0007632,1,0.70182219997514
106,10,0,categorization,1,kitchen,SHINEd_kitchen_practice5.tif,120,0.0166666666666667,0.0166666666666667,0.1,0.883333333333333,611159.0062775,611159.8228119,70,611159.0252283,611159.0423444,611159.1415989,611159.8279344,611160.7096049,0,0.816534400102682
106,1,0,categorization,1,bathroom,SHINEd_bathroom_practice1.tif,111,0.0166666666666667,0.0166666666666667,0.1,0.7,611167.4743013,611168.246835,70,611167.4928834,611167.5103371,611167.609801,611168.251616,611168.9499544,1,0.772533699986525
106,2,0,categorization,1,bathroom,SHINEd_bathroom_practice2.tif,112,0.0166666666666667,0.0166666666666667,0.1,1.73333333333333,611168.9550186,611170.1027866,70,611168.974361,611168.9910216,611169.0903009,611170.1078161,611171.8394878,1,1.14776800002437
106,3,0,categorization,1,bathroom,SHINEd_bathroom_practice3.tif,113,0.0166666666666667,0.0166666666666667,0.1,0.983333333333333,611171.8442981,611172.7188678,70,611171.8630872,611171.8803043,611171.979652,611172.7238511,611173.7055223,1,0.874569699983113
106,4,0,categorization,1,bathroom,SHINEd_bathroom_practice4.tif,114,0.0166666666666667,0.0166666666666667,0.1,0.983333333333333,611173.7101582,611174.4549325,70,611173.7291329,611173.7475489,611173.8454797,611174.4603263,611175.4419975,1,0.744774300022982
106,5,0,categorization,1,bathroom,SHINEd_bathroom_practice5.tif,115,0.0166666666666667,0.0166666666666667,0.1,1.03333333333333,611175.4477477,611176.3103122,70,611175.466596,611175.483689,611175.5833134,611176.3154223,611177.3470929,1,0.862564499955624
106,6,0,categorization,1,kitchen,SHINEd_kitchen_practice1.tif,116,0.0166666666666667,0.0166666666666667,0.1,1.61666666666667,611177.3530973,611178.1423409,70,611177.3720769,611177.3891922,611177.4884628,611178.1476007,611179.7626048,0,0.789243599982001
106,7,0,categorization,1,kitchen,SHINEd_kitchen_practice2.tif,117,0.0166666666666667,0.0166666666666667,0.1,1.06666666666667,611179.7672435,611180.7583371,70,611179.7873639,611179.8038529,611179.9029534,611180.764251,611181.8292546,0,0.991093600052409
106,8,0,categorization,1,kitchen,SHINEd_kitchen_practice3.tif,118,0.0166666666666667,0.0166666666666667,0.1,0.833333333333333,611181.8338367,611182.7824363,74,611181.8540525,611181.8704407,611181.9706174,611182.7883193,611183.6199895,1,0.948599600000307
106,9,0,categorization,1,kitchen,SHINEd_kitchen_practice4.tif,119,0.0166666666666667,0.0166666666666667,0.1,0.933333333333333,611183.6247661,611184.6063387,74,611183.6435975,611183.6609207,611183.7602481,611184.6122203,611185.5438913,1,0.981572600081563
106,10,0,categorization,1,kitchen,SHINEd_kitchen_practice5.tif,120,0.0166666666666667,0.0166666666666667,0.1,0.883333333333333,611185.5499035,611186.4389669,74,611185.5689264,611185.5871883,611185.6855994,611186.4440716,611187.3257436,1,0.88906339998357
106,1,1,categorization,0,bathroom,SHINEd_sun_ajlpekbqvytdohqb.tif,31,0.0166666666666667,0.0166666666666667,0.1,1.06666666666667,611192.1847449,611192.9184104,70,611192.2038796,611192.2204679,611192.3203192,611192.9244393,611193.9894438,1,0.733665500069037
106,2,1,categorization,0,kitchen,SHINEd_sun_ataniphupyuxeowc.tif,102,0.0166666666666667,0.0166666666666667,0.1,1.83333333333333,611193.9937321,611194.6551036,74,611194.012413,611194.0294451,611194.1294014,611194.6599238,611196.491594,1,0.661371499998495
106,3,1,categorization,0,bathroom,SHINEd_sun_asfwthctfqerjvxr.tif,49,0.0166666666666667,0.0166666666666667,0.1,1.13333333333333,611196.4962773,611197.1022744,74,611196.5149988,611196.5323632,611196.6319459,611197.108548,611198.2402194,0,0.605997100006789
106,4,1,categorization,0,kitchen,SHINEd_sun_awcpdzzznmweyyhv.tif,107,0.0166666666666667,0.0166666666666667,0.1,1.11666666666667,611198.2449809,611199.2622952,70,611198.2639434,611198.2810964,611198.3806028,611199.2685227,611200.3835281,0,1.01731430005748
106,5,1,categorization,0,kitchen,SHINEd_sun_alpduwskzkgbcfui.tif,98,0.0166666666666667,0.0166666666666667,0.1,0.7,611200.3880134,611200.9983046,74,611200.4082332,611200.4243744,611200.5237475,611201.0037188,611201.7020555,1,0.61029119999148
106,6,1,categorization,0,bathroom,SHINEd_sun_agrwbmhcpmfuwmsg.tif,26,0.0166666666666667,0.0166666666666667,0.1,0.766666666666667,611201.7066935,611202.7191742,74,611201.7258835,611201.7428327,611201.8422519,611202.7246994,611203.4897029,0,1.01248069992289
106,7,1,categorization,0,bathroom,SHINEd_sun_aunuadmjocsddsrl.tif,52,0.0166666666666667,0.0166666666666667,0.1,1.65,611203.4942965,611204.7191095,74,611203.5135392,611203.5304059,611203.6301855,611204.7243393,611206.372678,0,1.22481299994979
106,8,1,categorization,0,bathroom,SHINEd_sun_ajlpekbqvytdohqb.tif,31,0.0166666666666667,0.0166666666666667,0.1,0.7,611206.3776276,611207.4952461,70,611206.3969883,611206.4135529,611206.5132262,611207.5002252,611208.1985622,1,1.11761850002222
106,9,1,categorization,0,bathroom,SHINEd_sun_arzkwskvsrwimlwo.tif,48,0.0166666666666667,0.0166666666666667,0.1,0.966666666666667,611208.2036081,611209.0382875,70,611208.2225806,611208.2396736,611208.3392624,611209.0439489,611210.009041,1,0.834679400082678
106,10,1,categorization,0,kitchen,SHINEd_sun_aqeaevwwwjoqhzvl.tif,101,0.0166666666666667,0.0166666666666667,0.1,1.01666666666667,611210.0143477,611210.951134,70,611210.0345197,611210.0520842,611210.1500671,611210.955937,611211.9709405,0,0.936786299920641
106,11,1,categorization,0,kitchen,SHINEd_sun_aaofphpvkeqlhwgu.tif,64,0.0166666666666667,0.0166666666666667,0.1,0.75,611211.9752542,611212.6560479,74,611211.9938167,611212.0111125,611212.1111726,611212.6609126,611213.4092506,1,0.680793699924834
106,12,1,categorization,0,bathroom,SHINEd_sun_arzkwskvsrwimlwo.tif,48,0.0166666666666667,0.0166666666666667,0.1,0.966666666666667,611213.4147254,611214.1589847,70,611213.4336588,611213.4510975,611213.550523,611214.1637258,611215.1287308,1,0.744259299943224
106,13,1,categorization,0,kitchen,SHINEd_sun_aeikbkmhphqzxdkv.tif,79,0.0166666666666667,0.0166666666666667,0.1,1.05,611215.1331689,611215.9908724,70,611215.1518774,611215.1694793,611215.2695606,611215.9954417,611217.0437867,0,0.857703499961644
106,14,1,categorization,0,kitchen,SHINEd_sun_alpduwskzkgbcfui.tif,98,0.0166666666666667,0.0166666666666667,0.1,0.75,611217.0504368,611217.7750614,74,611217.070711,611217.0870922,611217.1859825,611217.7804689,611218.5288074,1,0.724624600028619
106,15,1,categorization,0,bathroom,SHINEd_sun_aavhrsfjbserjtht.tif,15,0.0166666666666667,0.0166666666666667,0.1,0.716666666666667,611218.5335179,611219.5993198,70,611218.5541263,611218.5695298,611218.6692334,611219.604136,611220.3191402,1,1.06580189999659
106,16,1,categorization,0,kitchen,SHINEd_sun_avszsnwsbuqfgzbn.tif,105,0.0166666666666667,0.0166666666666667,0.1,1.05,611220.3237952,611220.9837545,74,611220.3427852,611220.3595623,611220.4593998,611220.9884731,611222.0368116,1,0.659959300071932
106,17,1,categorization,0,kitchen,SHINEd_sun_acwjdupvyjsugpay.tif,73,0.0166666666666667,0.0166666666666667,0.1,1.8,611222.0414729,611222.6704002,74,611222.0607402,611222.0773693,611222.1770187,611222.6770349,611224.4753718,1,0.628927299985662
106,18,1,categorization,0,bathroom,SHINEd_sun_ahcvzmoyaycdoftf.tif,28,0.0166666666666667,0.0166666666666667,0.1,1.18333333333333,611224.4796088,611225.2229022,70,611224.49829,611224.5153649,611224.6151314,611225.2279632,611226.4096353,1,0.74329339992255
106,19,1,categorization,0,bathroom,SHINEd_sun_anhioqovhscjqqwb.tif,39,0.0166666666666667,0.0166666666666667,0.1,0.866666666666667,611226.4147737,611227.0463873,70,611226.4338965,611226.4507683,611226.5505123,611227.0515866,611227.916591,1,0.631613600067794
106,20,1,categorization,0,kitchen,SHINEd_sun_aeikbkmhphqzxdkv.tif,79,0.0166666666666667,0.0166666666666667,0.1,1.03333333333333,611227.9215083,611229.1103011,70,611227.940432,611227.958903,611228.0569045,611229.1157931,611230.1474651,0,1.18879279994871
106,21,1,categorization,0,bathroom,SHINEd_sun_anlddfvefwvocyae.tif,40,0.0166666666666667,0.0166666666666667,0.1,1.9,611230.1521408,611231.3423987,70,611230.1710281,611230.1882298,611230.2877367,611231.347712,611233.2460507,1,1.19025789992884
106,22,1,categorization,0,kitchen,SHINEd_sun_aegoxogugdkwpmpj.tif,77,0.0166666666666667,0.0166666666666667,0.1,1.81666666666667,611233.2505439,611233.8543099,74,611233.2692799,611233.287658,611233.3862012,611233.860346,611235.6753503,1,0.60376600001473
106,23,1,categorization,0,bathroom,SHINEd_sun_ahqjwnzgolcaoidx.tif,29,0.0166666666666667,0.0166666666666667,0.1,1.38333333333333,611235.6797673,611236.5908584,74,611235.6984152,611235.715456,611235.8148864,611236.5964361,611237.9781065,0,0.911091099958867
106,24,1,categorization,0,bathroom,SHINEd_sun_abeymlrfgckenfyk.tif,16,0.0166666666666667,0.0166666666666667,0.1,1,611237.9828383,611238.7350439,70,611238.0025839,611238.0202645,611238.1200023,611238.7404723,611239.7388106,1,0.752205599914305
106,25,1,categorization,0,kitchen,SHINEd_sun_anbcmfjhobvmedkq.tif,100,0.0166666666666667,0.0166666666666667,0.1,1.05,611239.7431586,611240.7909256,70,611239.7623216,611239.7789106,611239.8788288,611240.7955105,611241.8438475,0,1.04776700004004
106,26,1,categorization,0,bathroom,SHINEd_sun_aamrfepkhweyewue.tif,13,0.0166666666666667,0.0166666666666667,0.1,1.01666666666667,611241.8484548,611242.5423847,74,611241.8671739,611241.8841439,611241.9839289,611242.5477477,611243.5627524,0,0.693929900065996
106,27,1,categorization,0,kitchen,SHINEd_sun_ahvszpwjtodgwusx.tif,91,0.0166666666666667,0.0166666666666667,0.1,1.76666666666667,611243.5681755,611244.1582861,74,611243.5883514,611243.605143,611243.7040296,611244.1639619,611245.9289731,1,0.590110599994659
106,28,1,categorization,0,bathroom,SHINEd_sun_alkosphxlxwjwgjd.tif,35,0.0166666666666667,0.0166666666666667,0.1,1.1,611245.9352553,611246.8391058,70,611245.9553666,611245.9722051,611246.0708867,611246.844215,611247.9425644,1,0.903850500006229
106,29,1,categorization,0,kitchen,SHINEd_sun_akcjzhbbjlbogpdi.tif,95,0.0166666666666667,0.0166666666666667,0.1,0.7,611247.947725,611248.9263716,70,611247.9673089,611247.9842777,611248.0833236,611248.9317132,611249.6300519,0,0.978646600036882
106,30,1,categorization,0,kitchen,SHINEd_sun_aapllqyqlykszopd.tif,65,0.0166666666666667,0.0166666666666667,0.1,0.833333333333333,611249.634888,611250.4304082,74,611249.653965,611249.6711111,611249.7704913,611250.4354683,611251.2671407,1,0.795520200044848
106,31,1,categorization,0,bathroom,SHINEd_sun_apeeialkgkuxddgh.tif,44,0.0166666666666667,0.0166666666666667,0.1,1.9,611251.2732327,611251.9510166,70,611251.293326,611251.3095952,611251.408984,611251.9555202,611253.8538585,1,0.677783900056966
106,32,1,categorization,0,kitchen,SHINEd_sun_aamedkxepzlwuxes.tif,63,0.0166666666666667,0.0166666666666667,0.1,0.933333333333333,611253.8585498,611254.5269124,74,611253.8777525,611253.8944422,611253.9940596,611254.5321053,611255.4637763,1,0.668362600030378
106,33,1,categorization,0,kitchen,SHINEd_sun_aglwoufpxbtxqecp.tif,84,0.0166666666666667,0.0166666666666667,0.1,1.93333333333333,611255.4685081,611256.4714342,74,611255.4882111,611255.5043873,611255.6040807,611256.4763461,611258.4080163,1,1.00292609992903
106,34,1,categorization,0,bathroom,SHINEd_sun_awnqiikzaispgmwo.tif,56,0.0166666666666667,0.0166666666666667,0.1,0.9,611258.4127699,611259.5189857,70,611258.4327933,611258.4491109,611258.5484326,611259.5238913,611260.4222302,1,1.10621579992585
106,35,1,categorization,0,bathroom,SHINEd_sun_afcoljnjfoxjtgja.tif,24,0.0166666666666667,0.0166666666666667,0.1,1.13333333333333,611260.4268781,611261.5350667,70,611260.4454509,611260.4627623,611260.5623282,611261.5408533,611262.672524,1,1.10818859993014
106,36,1,categorization,0,bathroom,SHINEd_sun_aspsyogrekjtfozg.tif,50,0.0166666666666667,0.0166666666666667,0.1,0.816666666666667,611262.6772662,611263.5188326,70,611262.6971009,611262.7130788,611262.8130362,611263.5236001,611264.3386037,1,0.841566400020383
106,37,1,categorization,0,bathroom,SHINEd_sun_awnqiikzaispgmwo.tif,56,0.0166666666666667,0.0166666666666667,0.1,1.93333333333333,611264.3431824,611265.2382649,70,611264.3621228,611264.3792807,611264.4788285,611265.2432988,611267.1749691,1,0.895082500064746
106,38,1,categorization,0,bathroom,SHINEd_sun_amzlamotzwfkwjco.tif,38,0.0166666666666667,0.0166666666666667,0.1,1.15,611267.1797154,611268.4543824,74,611267.198681,611267.2170773,611267.3155302,611268.4600778,611269.6084153,0,1.27466700004879
106,39,1,categorization,0,kitchen,SHINEd_sun_ajcbwwvdlsvjyzje.tif,94,0.0166666666666667,0.0166666666666667,0.1,1.11666666666667,611269.6131223,611270.3429184,70,611269.632301,611269.6494239,611269.749067,611270.3479017,611271.4629074,0,0.729796099942178
106,40,1,categorization,0,kitchen,SHINEd_sun_awcpdzzznmweyyhv.tif,107,0.0166666666666667,0.0166666666666667,0.1,1.45,611271.4675036,611272.1831203,74,611271.4864224,611271.5036081,611271.6030887,611272.1880109,611273.6363496,1,0.715616699890234
106,41,1,categorization,0,kitchen,SHINEd_sun_ahywdevtimnqcsln.tif,92,0.0166666666666667,0.0166666666666667,0.1,0.916666666666667,611273.6430837,611274.5582302,74,611273.6619631,611273.6790288,611273.7786184,611274.5636427,611275.4786473,1,0.915146499988623
106,42,1,categorization,0,kitchen,SHINEd_sun_anbcmfjhobvmedkq.tif,100,0.0166666666666667,0.0166666666666667,0.1,0.8,611275.4832863,611276.558269,74,611275.5023353,611275.520315,611275.6190172,611276.5640966,611277.3624335,1,1.07498270005453
106,43,1,categorization,0,bathroom,SHINEd_sun_aunuadmjocsddsrl.tif,52,0.0166666666666667,0.0166666666666667,0.1,0.85,611277.3667846,611278.1909459,70,611277.3854195,611277.4026705,611277.5025083,611278.1955153,611279.0438535,1,0.824161300086416
106,44,1,categorization,0,bathroom,SHINEd_sun_aovflwamhlwzwvxs.tif,42,0.0166666666666667,0.0166666666666667,0.1,1.2,611279.048871,611279.6789037,70,611279.0682045,611279.0852475,611279.1845061,611279.6839915,611280.882328,1,0.63003270002082
106,45,1,categorization,0,kitchen,SHINEd_sun_agfmsmojwptjoava.tif,82,0.0166666666666667,0.0166666666666667,0.1,1.31666666666667,611280.8872947,611281.5583904,74,611280.9064152,611280.9233253,611281.0229814,611281.5636195,611282.8786247,1,0.671095700003207
106,46,1,categorization,0,bathroom,SHINEd_sun_anhioqovhscjqqwb.tif,39,0.0166666666666667,0.0166666666666667,0.1,1.73333333333333,611282.8849827,611283.5745023,70,611282.9046732,611282.9224621,611283.0208981,611283.5795263,611285.3111977,1,0.689519600011408
106,47,1,categorization,0,kitchen,SHINEd_sun_abdenxonkemggwsq.tif,67,0.0166666666666667,0.0166666666666667,0.1,1.45,611285.3165785,611285.9509008,74,611285.3371036,611285.3538039,611285.4519385,611285.9554555,611287.4037923,1,0.634322299971245
106,48,1,categorization,0,kitchen,SHINEd_sun_ahywdevtimnqcsln.tif,92,0.0166666666666667,0.0166666666666667,0.1,1.16666666666667,611287.4086078,611288.1262649,74,611287.4275965,611287.4447508,611287.5441617,611288.131669,611289.2966741,1,0.717657099943608
106,49,1,categorization,0,bathroom,SHINEd_sun_asfwthctfqerjvxr.tif,49,0.0166666666666667,0.0166666666666667,0.1,0.8,611289.3013537,611289.9507985,70,611289.3214117,611289.3383015,611289.4370018,611289.9556652,611290.7540025,1,0.649444799986668
106,50,1,categorization,0,bathroom,SHINEd_sun_avhrdrntsqrjzccq.tif,55,0.0166666666666667,0.0166666666666667,0.1,0.933333333333333,611290.7588712,611291.4783321,70,611290.7777973,611290.7948658,611290.8942821,611291.4841171,611292.415788,1,0.719460899941623
106,1,2,categorization,0,kitchen,SHINEd_sun_axaiaptzctpidqzg.tif,108,0.0166666666666667,0.0166666666666667,0.1,2,611299.108122,611299.7582661,74,611299.1267019,611299.1441718,611299.2436394,611299.7637237,611301.7620602,1,0.650144099956378
106,2,2,categorization,0,kitchen,SHINEd_sun_agubuxuukhzyzpdp.tif,86,0.0166666666666667,0.0166666666666667,0.1,1.45,611301.7679647,611302.3986778,74,611301.7866333,611301.8038536,611301.9036078,611302.4036211,611303.8519579,1,0.630713099963032
106,3,2,categorization,0,kitchen,SHINEd_sun_acxkpeoqbwcxfvip.tif,74,0.0166666666666667,0.0166666666666667,0.1,1.41666666666667,611303.8567396,611304.558886,74,611303.8768937,611303.8941166,611303.9923403,611304.5638554,611305.9788601,1,0.702146399999037
106,4,2,categorization,0,kitchen,SHINEd_sun_abrcnpqqhmjwekyf.tif,70,0.0166666666666667,0.0166666666666667,0.1,1.21666666666667,611305.9834859,611306.8387913,70,611306.0034464,611306.0195717,611306.1192414,611306.843552,611308.0585569,0,0.855305399978533
106,5,2,categorization,0,bathroom,SHINEd_sun_anltpptcpfdrhlks.tif,41,0.0166666666666667,0.0166666666666667,0.1,0.8,611308.0633343,611308.6622593,70,611308.0821585,611308.099697,611308.1992421,611308.668079,611309.4664161,1,0.598925000056624
106,6,2,categorization,0,kitchen,SHINEd_labelme_rykdqxenmhulbdn.tif,61,0.0166666666666667,0.0166666666666667,0.1,0.833333333333333,611309.472279,611310.2231512,74,611309.4922136,611309.5082427,611309.6077696,611310.2279558,611311.0596263,1,0.750872200005688
106,7,2,categorization,0,kitchen,SHINEd_sun_aggjlwcdjsjcaemh.tif,83,0.0166666666666667,0.0166666666666667,0.1,1.48333333333333,611311.0642108,611311.7510427,74,611311.0831034,611311.1004289,611311.201415,611311.755492,611313.2371623,1,0.686831900035031
106,8,2,categorization,0,kitchen,SHINEd_sun_aaxxjlsuzvqlgylf.tif,66,0.0166666666666667,0.0166666666666667,0.1,1.28333333333333,611313.2416597,611314.0067735,74,611313.2609868,611313.2778325,611313.3785218,611314.011454,611315.2931252,1,0.765113799949177
106,9,2,categorization,0,bathroom,SHINEd_sun_ahqjwnzgolcaoidx.tif,29,0.0166666666666667,0.0166666666666667,0.1,1.33333333333333,611315.2993116,611316.0143456,74,611315.3195464,611315.3370557,611315.4347979,611316.0198071,611317.3515005,0,0.715033999993466
106,10,2,categorization,0,kitchen,SHINEd_sun_acfmftudsenhrfhy.tif,72,0.0166666666666667,0.0166666666666667,0.1,0.866666666666667,611317.3563162,611319.0462898,70,611317.3760176,611317.3928121,611317.492273,611319.0516504,611319.9166549,0,1.68997359997593
106,11,2,categorization,0,kitchen,SHINEd_sun_aqeaevwwwjoqhzvl.tif,101,0.0166666666666667,0.0166666666666667,0.1,0.966666666666667,611319.9214693,611320.5503775,74,611319.9402042,611319.9577396,611320.0571979,611320.5564655,611321.5214695,1,0.628908199956641
106,12,2,categorization,0,kitchen,SHINEd_sun_aaxxjlsuzvqlgylf.tif,66,0.0166666666666667,0.0166666666666667,0.1,1.78333333333333,611321.5261425,611322.2562224,74,611321.5451055,611321.5621955,611321.6618846,611322.2613012,611324.0429737,1,0.730079900007695
106,13,2,categorization,0,bathroom,SHINEd_sun_auzqhkafidnkrwmo.tif,54,0.0166666666666667,0.0166666666666667,0.1,1.21666666666667,611324.0479965,611324.8871801,70,611324.0669623,611324.0840808,611324.1837041,611324.8921366,611326.1073129,1,0.839183599920943
106,14,2,categorization,0,bathroom,SHINEd_sun_adbqksnwuqqwdpxc.tif,22,0.0166666666666667,0.0166666666666667,0.1,1.1,611326.1123974,611326.8307011,70,611326.1312133,611326.1486195,611326.2494363,611326.8358413,611327.934179,1,0.718303700094111
106,15,2,categorization,0,kitchen,SHINEd_sun_amjjdeyrggfqgmom.tif,99,0.0166666666666667,0.0166666666666667,0.1,0.7,611327.9385223,611328.6463441,74,611327.9575237,611327.9746211,611328.0743008,611328.6521434,611329.3504804,1,0.707821800024249
106,16,2,categorization,0,bathroom,SHINEd_sun_ahqjwnzgolcaoidx.tif,29,0.0166666666666667,0.0166666666666667,0.1,1.01666666666667,611329.3550529,611330.1902317,70,611329.3740294,611329.3906929,611329.4906695,611330.1948731,611331.2098778,1,0.835178799927235
106,17,2,categorization,0,kitchen,SHINEd_sun_aggjlwcdjsjcaemh.tif,83,0.0166666666666667,0.0166666666666667,0.1,0.783333333333333,611331.2158648,611332.0067988,74,611331.234797,611331.2531364,611331.351555,611332.0114152,611332.7930861,1,0.79093399993144
106,18,2,categorization,0,kitchen,SHINEd_sun_aadbddgrdsjugojn.tif,62,0.0166666666666667,0.0166666666666667,0.1,1.33333333333333,611332.797708,611333.4710918,74,611332.8171281,611332.833963,611332.9333983,611333.4762121,611334.8078846,1,0.673383799963631
106,19,2,categorization,0,kitchen,SHINEd_sun_alalhpqajafvlnho.tif,96,0.0166666666666667,0.0166666666666667,0.1,0.983333333333333,611334.8125966,611335.4302942,74,611334.8314959,611334.8498,611334.9482485,611335.435394,611336.4170654,1,0.617697599926032
106,20,2,categorization,0,kitchen,SHINEd_sun_axyyrmzcupyhlivc.tif,109,0.0166666666666667,0.0166666666666667,0.1,1.21666666666667,611336.4213226,611337.022716,70,611336.440666,611336.4574798,611336.5572276,611337.0276673,611338.2426719,0,0.601393399992958
106,21,2,categorization,0,kitchen,SHINEd_sun_aadbddgrdsjugojn.tif,62,0.0166666666666667,0.0166666666666667,0.1,0.866666666666667,611338.2471588,611338.7588911,74,611338.2670121,611338.2832554,611338.3827434,611338.7640729,611339.629077,1,0.511732299928553
106,22,2,categorization,0,bathroom,SHINEd_labelme_sfxiulhjbhlyiyt.tif,11,0.0166666666666667,0.0166666666666667,0.1,1.4,611339.6339488,611340.2463508,70,611339.6527295,611339.6713916,611339.7705875,611340.2516474,611341.6499864,1,0.612401999998838
106,23,2,categorization,0,kitchen,SHINEd_sun_abpwyqmlzafvklqo.tif,69,0.0166666666666667,0.0166666666666667,0.1,1.26666666666667,611341.6547821,611342.2862557,74,611341.6736259,611341.6906299,611341.7905453,611342.2918948,611343.5568993,1,0.631473600049503
106,24,2,categorization,0,kitchen,SHINEd_sun_aypmqwcualkenuoe.tif,110,0.0166666666666667,0.0166666666666667,0.1,1.18333333333333,611343.5612719,611344.1343143,74,611343.579978,611343.597058,611343.6968058,611344.1401904,611345.321862,1,0.573042400064878
106,25,2,categorization,0,kitchen,SHINEd_sun_aaofphpvkeqlhwgu.tif,64,0.0166666666666667,0.0166666666666667,0.1,0.733333333333333,611345.3267719,611346.0782584,74,611345.3461976,611345.3629063,611345.4635262,611346.0838827,611346.8155548,1,0.751486499910243
106,26,2,categorization,0,kitchen,SHINEd_sun_acfmftudsenhrfhy.tif,72,0.0166666666666667,0.0166666666666667,0.1,1.53333333333333,611346.8203167,611347.7349461,74,611346.8393865,611346.8561871,611346.9563578,611347.7398341,611349.2715056,1,0.914629400009289
106,27,2,categorization,0,bathroom,SHINEd_sun_adbqksnwuqqwdpxc.tif,22,0.0166666666666667,0.0166666666666667,0.1,1.1,611349.2767533,611350.1351632,70,611349.2954381,611349.3128006,611349.4121176,611350.1401476,611351.2384854,1,0.858409899985418
106,28,2,categorization,0,bathroom,SHINEd_sun_alkosphxlxwjwgjd.tif,35,0.0166666666666667,0.0166666666666667,0.1,0.766666666666667,611351.2432857,611351.8788852,74,611351.2620691,611351.2797396,611351.3786817,611351.8838232,611352.648829,0,0.635599500034004
106,29,2,categorization,0,bathroom,SHINEd_sun_aghyqhbptboemmoq.tif,25,0.0166666666666667,0.0166666666666667,0.1,1.78333333333333,611352.6537853,611353.5352085,70,611352.6741192,611352.6899696,611352.7908074,611353.5400576,611355.3217279,1,0.881423200014979
106,30,2,categorization,0,bathroom,SHINEd_labelme_sfxiulhjbhlyiyt.tif,11,0.0166666666666667,0.0166666666666667,0.1,1.21666666666667,611355.3267032,611355.9504256,74,611355.3455541,611355.3628366,611355.4625793,611355.9560818,611357.1710864,0,0.62372240005061
106,31,2,categorization,0,bathroom,SHINEd_sun_adwvsndpdsgzeste.tif,23,0.0166666666666667,0.0166666666666667,0.1,0.833333333333333,611357.1758741,611357.7985427,70,611357.1947505,611357.2117831,611357.3114218,611357.8033379,611358.6350084,1,0.622668600059114
106,32,2,categorization,0,bathroom,SHINEd_sun_atstyziqcmkahyxk.tif,51,0.0166666666666667,0.0166666666666667,0.1,1.01666666666667,611358.6396817,611359.3582545,70,611358.6585133,611358.6756604,611358.775519,611359.3637415,611360.3787463,1,0.71857279993128
106,33,2,categorization,0,kitchen,SHINEd_sun_abdxkyyxwfskuaqb.tif,68,0.0166666666666667,0.0166666666666667,0.1,0.95,611360.3845955,611360.9422427,74,611360.403913,611360.4218714,611360.5203024,611360.9474206,611361.8957595,1,0.557647200068459
106,34,2,categorization,0,bathroom,SHINEd_sun_ahqjwnzgolcaoidx.tif,29,0.0166666666666667,0.0166666666666667,0.1,1.25,611361.9007882,611362.5342701,74,611361.9201621,611361.9380101,611362.0362631,611362.5396907,611363.7880275,0,0.633481899974868
106,35,2,categorization,0,kitchen,SHINEd_sun_agubuxuukhzyzpdp.tif,86,0.0166666666666667,0.0166666666666667,0.1,0.9,611363.7926973,611364.3182286,70,611363.8115385,611363.8291324,611363.9282404,611364.3232418,611365.2215865,0,0.525531299994327
106,36,2,categorization,0,bathroom,SHINEd_sun_aspsyogrekjtfozg.tif,50,0.0166666666666667,0.0166666666666667,0.1,1.31666666666667,611365.2266406,611365.9183135,70,611365.2455119,611365.2624696,611365.3623399,611365.9241936,611367.239198,1,0.691672899993137
106,37,2,categorization,0,bathroom,SHINEd_sun_axxbkopsgyouuebh.tif,58,0.0166666666666667,0.0166666666666667,0.1,1.03333333333333,611367.2447924,611367.8709166,70,611367.2635484,611367.2811437,611367.380389,611367.8759244,611368.9075949,1,0.62612419994548
106,38,2,categorization,0,kitchen,SHINEd_sun_abdenxonkemggwsq.tif,67,0.0166666666666667,0.0166666666666667,0.1,0.75,611368.9122497,611369.7108667,74,611368.9322387,611368.9484537,611369.0479566,611369.7155808,611370.463919,1,0.798616999993101
106,39,2,categorization,0,kitchen,SHINEd_sun_ajcbwwvdlsvjyzje.tif,94,0.0166666666666667,0.0166666666666667,0.1,1.26666666666667,611370.4688289,611371.1982652,74,611370.4880629,611370.5048787,611370.6041454,611371.203482,611372.4684854,1,0.729436299996451
106,40,2,categorization,0,bathroom,SHINEd_sun_ausgutylgojavyoq.tif,53,0.0166666666666667,0.0166666666666667,0.1,0.716666666666667,611372.4729504,611373.3023363,70,611372.4924679,611372.5103057,611372.6091034,611373.3081797,611374.0231828,1,0.829385900055058
106,41,2,categorization,0,bathroom,SHINEd_sun_apkxzenqapsujocq.tif,45,0.0166666666666667,0.0166666666666667,0.1,1.21666666666667,611374.0281296,611374.8222626,70,611374.046887,611374.0646445,611374.1638596,611374.8274562,611376.0424605,1,0.794132999959402
106,42,2,categorization,0,bathroom,SHINEd_sun_arzkwskvsrwimlwo.tif,48,0.0166666666666667,0.0166666666666667,0.1,0.866666666666667,611376.0473292,611376.9989397,74,611376.0659246,611376.0833229,611376.1831755,611377.0037683,611377.8687814,0,0.951610499992967
106,43,2,categorization,0,bathroom,SHINEd_sun_aovflwamhlwzwvxs.tif,42,0.0166666666666667,0.0166666666666667,0.1,1.23333333333333,611377.8737515,611378.5103299,70,611377.893992,611377.9110775,611378.0093824,611378.5157108,611379.7473824,1,0.636578399920836
106,44,2,categorization,0,kitchen,SHINEd_labelme_rykdqxenmhulbdn.tif,61,0.0166666666666667,0.0166666666666667,0.1,0.866666666666667,611379.7521363,611380.3508337,74,611379.7713045,611379.7881809,611379.8872515,611380.3556719,611381.2206762,1,0.598697400069796
106,45,2,categorization,0,kitchen,SHINEd_sun_ahvszpwjtodgwusx.tif,91,0.0166666666666667,0.0166666666666667,0.1,1.51666666666667,611381.2257299,611382.0228507,74,611381.2455464,611381.2628054,611381.3625412,611382.0278402,611383.5428449,1,0.797120800008997
106,46,2,categorization,0,bathroom,SHINEd_sun_anltpptcpfdrhlks.tif,41,0.0166666666666667,0.0166666666666667,0.1,0.883333333333333,611383.5490265,611384.2388101,70,611383.5679481,611383.5863514,611383.6847394,611384.2434656,611385.125138,1,0.689783600042574
106,47,2,categorization,0,bathroom,SHINEd_labelme_xbsnnlvmskdknsb.tif,12,0.0166666666666667,0.0166666666666667,0.1,1.26666666666667,611385.1297702,611385.8629342,70,611385.1495729,611385.1658649,611385.2652303,611385.8678357,611387.1328413,1,0.733163999975659
106,48,2,categorization,0,bathroom,SHINEd_sun_akbyysnpwewzraii.tif,32,0.0166666666666667,0.0166666666666667,0.1,1.06666666666667,611387.137918,611387.7422467,70,611387.1580662,611387.1753906,611387.2751113,611387.7474931,611388.8124968,1,0.604328699992038
106,49,2,categorization,0,kitchen,SHINEd_sun_alazdvaixpjtegwg.tif,97,0.0166666666666667,0.0166666666666667,0.1,1.43333333333333,611388.8171668,611389.5343164,74,611388.8376291,611388.8529394,611388.9527233,611389.5409861,611390.9726573,1,0.717149599920958
106,50,2,categorization,0,kitchen,SHINEd_sun_aapllqyqlykszopd.tif,65,0.0166666666666667,0.0166666666666667,0.1,1.3,611390.9774128,611391.6627018,70,611390.9962251,611391.0133728,611391.1124568,611391.6673918,611392.9657285,0,0.685289000044577
106,1,3,categorization,0,kitchen,SHINEd_sun_axyyrmzcupyhlivc.tif,109,0.0166666666666667,0.0166666666666667,0.1,1.08333333333333,611397.2082377,611397.7828145,74,611397.2271973,611397.244132,611397.3437515,611397.7876841,611398.8693544,1,0.574576799990609
106,2,3,categorization,0,bathroom,SHINEd_sun_axbqssteryzzlcop.tif,57,0.0166666666666667,0.0166666666666667,0.1,1.71666666666667,611398.8742923,611399.4942996,70,611398.8942486,611398.9103503,611399.0097029,611399.4997668,611401.2147698,1,0.620007300050929
106,3,3,categorization,0,bathroom,SHINEd_sun_ammzpemadwrjdfzl.tif,37,0.0166666666666667,0.0166666666666667,0.1,1.5,611401.2193955,611401.855489,74,611401.2382428,611401.256328,611401.356095,611401.8602983,611403.3586366,0,0.636093499953859
106,4,3,categorization,0,kitchen,SHINEd_sun_aqeaevwwwjoqhzvl.tif,101,0.0166666666666667,0.0166666666666667,0.1,1.86666666666667,611403.3633926,611404.2459048,74,611403.3839101,611403.3995642,611403.4994125,611404.2523178,611406.1173217,1,0.882512200041674
106,5,3,categorization,0,bathroom,SHINEd_sun_ausgutylgojavyoq.tif,53,0.0166666666666667,0.0166666666666667,0.1,1.13333333333333,611406.1220149,611406.6943205,70,611406.1409676,611406.1583677,611406.2575991,611406.699532,611407.8312149,1,0.572305600042455
106,6,3,categorization,0,kitchen,SHINEd_sun_amjjdeyrggfqgmom.tif,99,0.0166666666666667,0.0166666666666667,0.1,1.68333333333333,611407.8359968,611408.470172,74,611407.8552218,611407.8730793,611407.9715214,611408.4760372,611410.1577097,1,0.634175200015306
106,7,3,categorization,0,bathroom,SHINEd_sun_avhrdrntsqrjzccq.tif,55,0.0166666666666667,0.0166666666666667,0.1,1.81666666666667,611410.1625513,611410.9422312,74,611410.181835,611410.1988981,611410.2991753,611410.9477356,611412.7627394,0,0.779679900035262
106,8,3,categorization,0,bathroom,SHINEd_sun_apkxzenqapsujocq.tif,45,0.0166666666666667,0.0166666666666667,0.1,1.35,611412.7687191,611413.3662988,70,611412.7877763,611412.8060777,611412.9053858,611413.3716139,611414.7199511,1,0.597579699940979
106,9,3,categorization,0,kitchen,SHINEd_sun_aexklacwqwezaorf.tif,81,0.0166666666666667,0.0166666666666667,0.1,0.933333333333333,611414.7252429,611415.4068568,70,611414.7441512,611414.7613425,611414.8611306,611415.4117798,611416.3434497,0,0.681613900000229
106,10,3,categorization,0,bathroom,SHINEd_sun_azqyogdvyhahyram.tif,60,0.0166666666666667,0.0166666666666667,0.1,1.41666666666667,611416.34832,611417.1108042,74,611416.3672928,611416.3848254,611416.4849924,611417.1157721,611418.5307774,0,0.762484200065956
106,11,3,categorization,0,bathroom,SHINEd_labelme_xbsnnlvmskdknsb.tif,12,0.0166666666666667,0.0166666666666667,0.1,1.56666666666667,611418.5367476,611419.0222544,70,611418.5562306,611418.5728251,611418.6724629,611419.0274313,611420.5924368,1,0.48550680000335
106,12,3,categorization,0,kitchen,SHINEd_sun_adgqasybjyktddhj.tif,75,0.0166666666666667,0.0166666666666667,0.1,1.61666666666667,611420.5976001,611421.2141883,74,611420.6163672,611420.6350234,611420.733495,611421.2195425,611422.8345464,1,0.616588199976832
106,13,3,categorization,0,bathroom,SHINEd_sun_aamrfepkhweyewue.tif,13,0.0166666666666667,0.0166666666666667,0.1,0.783333333333333,611422.8392471,611423.4702616,74,611422.8588411,611422.8756555,611422.9753378,611423.4774963,611424.2591658,0,0.631014499929734
106,14,3,categorization,0,kitchen,SHINEd_sun_anbcmfjhobvmedkq.tif,100,0.0166666666666667,0.0166666666666667,0.1,1.75,611424.2648378,611424.990676,74,611424.2853568,611424.3018996,611424.4007868,611424.9953947,611426.7437334,1,0.725838200072758
106,15,3,categorization,0,kitchen,SHINEd_sun_auticobqsbwgoppi.tif,104,0.0166666666666667,0.0166666666666667,0.1,0.866666666666667,611426.7484345,611427.4227072,74,611426.7674579,611426.7847108,611426.8838973,611427.4277107,611428.2927145,1,0.674272700096481
106,16,3,categorization,0,bathroom,SHINEd_sun_atstyziqcmkahyxk.tif,51,0.0166666666666667,0.0166666666666667,0.1,1.06666666666667,611428.2972984,611428.9189319,70,611428.3173813,611428.334478,611428.4327769,611428.9237984,611429.9888024,1,0.621633500093594
106,17,3,categorization,0,bathroom,SHINEd_labelme_xbsnnlvmskdknsb.tif,12,0.0166666666666667,0.0166666666666667,0.1,1.43333333333333,611429.9936215,611430.6622276,70,611430.0138968,611430.0296264,611430.1292853,611430.6680093,611432.0996802,1,0.668606100021861
106,18,3,categorization,0,kitchen,SHINEd_sun_aegoxogugdkwpmpj.tif,77,0.0166666666666667,0.0166666666666667,0.1,0.983333333333333,611432.1043703,611432.8144468,74,611432.1232401,611432.1407228,611432.2398994,611432.8191527,611433.8008229,1,0.710076500079595
106,19,3,categorization,0,bathroom,SHINEd_sun_ahcvzmoyaycdoftf.tif,28,0.0166666666666667,0.0166666666666667,0.1,1.48333333333333,611433.8057872,611434.4630398,70,611433.8255561,611433.8424846,611433.9414267,611434.4679862,611435.9496576,1,0.65725259995088
106,20,3,categorization,0,bathroom,SHINEd_sun_acgyywnybuveqsro.tif,19,0.0166666666666667,0.0166666666666667,0.1,1.36666666666667,611435.9539524,611436.6393698,74,611435.9734062,611435.9901762,611436.0895648,611436.644214,611438.0092189,0,0.68541739997454
106,21,3,categorization,0,kitchen,SHINEd_sun_acfluyeqiftljamq.tif,71,0.0166666666666667,0.0166666666666667,0.1,1,611438.014496,611438.6865697,74,611438.0336506,611438.0514576,611438.1503607,611438.692469,611439.6908067,1,0.672073699999601
106,22,3,categorization,0,bathroom,SHINEd_sun_aspsyogrekjtfozg.tif,50,0.0166666666666667,0.0166666666666667,0.1,1.53333333333333,611439.6957007,611440.3742823,70,611439.7146549,611439.7314727,611439.8314728,611440.3796429,611441.911314,1,0.678581599961035
106,23,3,categorization,0,bathroom,SHINEd_sun_aspsyogrekjtfozg.tif,50,0.0166666666666667,0.0166666666666667,0.1,0.8,611441.9162133,611442.6306211,70,611441.9355932,611441.9522777,611442.0529448,611442.635715,611443.4340518,1,0.714407799998298
106,24,3,categorization,0,bathroom,SHINEd_sun_anlddfvefwvocyae.tif,40,0.0166666666666667,0.0166666666666667,0.1,1.25,611443.4388776,611444.1102816,70,611443.4581975,611443.476251,611443.575461,611444.1157183,611445.3640556,1,0.671404000022449
106,25,3,categorization,0,bathroom,SHINEd_sun_ajlpekbqvytdohqb.tif,31,0.0166666666666667,0.0166666666666667,0.1,0.75,611445.3689485,611446.0862779,70,611445.3884101,611445.4054256,611445.5046011,611446.0917762,611446.8401136,1,0.717329400009476
106,26,3,categorization,0,kitchen,SHINEd_sun_awbyfefkbcrlrqws.tif,106,0.0166666666666667,0.0166666666666667,0.1,0.716666666666667,611446.8447058,611447.5581521,70,611446.8640314,611446.8808944,611446.980386,611447.5635368,611448.2785408,0,0.713446300011128
106,27,3,categorization,0,bathroom,SHINEd_sun_akbyysnpwewzraii.tif,32,0.0166666666666667,0.0166666666666667,0.1,0.816666666666667,611448.2831641,611448.9102839,70,611448.3031349,611448.3204757,611448.4185596,611448.9158651,611449.7308709,1,0.627119799959473
106,28,3,categorization,0,kitchen,SHINEd_sun_agubuxuukhzyzpdp.tif,86,0.0166666666666667,0.0166666666666667,0.1,0.85,611449.7354956,611450.3662842,70,611449.7549233,611449.7716756,611449.87142,611450.3719152,611451.2202534,0,0.630788599955849
106,29,3,categorization,0,bathroom,SHINEd_sun_aoybiabnpadelefl.tif,43,0.0166666666666667,0.0166666666666667,0.1,1.7,611451.2247851,611451.8061628,74,611451.2438829,611451.2607313,611451.3604239,611451.8117087,611453.5100468,0,0.581377700087614
106,30,3,categorization,0,kitchen,SHINEd_sun_abdenxonkemggwsq.tif,67,0.0166666666666667,0.0166666666666667,0.1,0.75,611453.5146578,611454.1182585,74,611453.5350794,611453.5508143,611453.6500672,611454.1240197,611454.8723565,1,0.603600700036623
106,31,3,categorization,0,bathroom,SHINEd_sun_adwvsndpdsgzeste.tif,23,0.0166666666666667,0.0166666666666667,0.1,1.18333333333333,611454.8769877,611455.5022567,70,611454.8957263,611454.9128845,611455.0125663,611455.5077921,611456.6894624,1,0.625268999952823
106,32,3,categorization,0,kitchen,SHINEd_sun_aadbddgrdsjugojn.tif,62,0.0166666666666667,0.0166666666666667,0.1,1.21666666666667,611456.6942514,611457.2782125,74,611456.7147569,611456.7301777,611456.8298752,611457.2833895,611458.4983934,1,0.583961100084707
106,33,3,categorization,0,kitchen,SHINEd_sun_aqeaevwwwjoqhzvl.tif,101,0.0166666666666667,0.0166666666666667,0.1,0.883333333333333,611458.504359,611459.0627829,74,611458.5233857,611458.5419081,611458.6401389,611459.0680673,611459.9497386,1,0.558423899929039
106,34,3,categorization,0,bathroom,SHINEd_sun_aapitsgbtktqubfy.tif,14,0.0166666666666667,0.0166666666666667,0.1,1.73333333333333,611459.9544676,611460.5822842,70,611459.9736006,611459.9917168,611460.0900568,611460.5879276,611462.3195999,1,0.627816600026563
106,35,3,categorization,0,bathroom,SHINEd_sun_asfwthctfqerjvxr.tif,49,0.0166666666666667,0.0166666666666667,0.1,1,611462.3243605,611463.0144504,70,611462.3436334,611462.3603953,611462.4600213,611463.0199313,611464.0182697,1,0.690089900046587
106,36,3,categorization,0,bathroom,SHINEd_sun_aapitsgbtktqubfy.tif,14,0.0166666666666667,0.0166666666666667,0.1,0.75,611464.023161,611464.7104609,70,611464.0422981,611464.0607319,611464.1586858,611464.7154863,611465.4638241,1,0.687299899989739
106,37,3,categorization,0,bathroom,SHINEd_sun_ahcvzmoyaycdoftf.tif,28,0.0166666666666667,0.0166666666666667,0.1,0.866666666666667,611465.4698245,611466.5901999,70,611465.4888075,611465.5071217,611465.6065331,611466.5954621,611467.4604664,1,1.12037539994344
106,38,3,categorization,0,bathroom,SHINEd_sun_aqrpegblszgcoujh.tif,47,0.0166666666666667,0.0166666666666667,0.1,0.816666666666667,611467.4654059,611468.1663021,70,611467.4849697,611467.5014627,611467.6011362,611468.1714791,611468.9864836,1,0.700896200025454
106,39,3,categorization,0,bathroom,SHINEd_sun_adwvsndpdsgzeste.tif,23,0.0166666666666667,0.0166666666666667,0.1,1.45,611468.9914004,611469.5662419,70,611469.011396,611469.0273083,611469.1268656,611469.5717558,611471.0200947,1,0.574841500027105
106,40,3,categorization,0,kitchen,SHINEd_sun_ahdycvpopffkzzsu.tif,88,0.0166666666666667,0.0166666666666667,0.1,1.33333333333333,611471.0247509,611471.6388514,74,611471.0436444,611471.060882,611471.1603002,611471.6437111,611472.9753831,1,0.614100500009954
106,41,3,categorization,0,bathroom,SHINEd_sun_aunuadmjocsddsrl.tif,52,0.0166666666666667,0.0166666666666667,0.1,1.15,611472.9809866,611473.4786856,74,611473.0012449,611473.0174442,611473.1183261,611473.483122,611474.6314584,0,0.497698999941349
106,42,3,categorization,0,bathroom,SHINEd_sun_aavhrsfjbserjtht.tif,15,0.0166666666666667,0.0166666666666667,0.1,0.733333333333333,611474.6361738,611475.3501737,74,611474.655113,611474.6731541,611474.7719743,611475.3561376,611476.087808,0,0.71399990003556
106,43,3,categorization,0,kitchen,SHINEd_sun_auaiucuqpdausiva.tif,103,0.0166666666666667,0.0166666666666667,0.1,1.3,611476.0924548,611476.8308384,74,611476.1115594,611476.1298408,611476.2279528,611476.8357161,611478.134053,1,0.738383600022644
106,44,3,categorization,0,bathroom,SHINEd_sun_aclfzgynxzxlbepz.tif,20,0.0166666666666667,0.0166666666666667,0.1,0.883333333333333,611478.1394884,611478.8149873,70,611478.1585479,611478.1755972,611478.2754218,611478.8202526,611479.7019225,1,0.675498900003731
106,45,3,categorization,0,bathroom,SHINEd_sun_abtukhmkjdzyfxhr.tif,18,0.0166666666666667,0.0166666666666667,0.1,1.03333333333333,611479.7066526,611480.2788649,70,611479.7255934,611479.7426143,611479.8427,611480.2837393,611481.315411,1,0.572212300030515
106,46,3,categorization,0,bathroom,SHINEd_sun_afcoljnjfoxjtgja.tif,24,0.0166666666666667,0.0166666666666667,0.1,0.816666666666667,611481.3201498,611481.8302016,74,611481.3399342,611481.3559488,611481.4558003,611481.8359479,611482.6509523,0,0.510051799938083
106,47,3,categorization,0,bathroom,SHINEd_sun_aunuadmjocsddsrl.tif,52,0.0166666666666667,0.0166666666666667,0.1,1.31666666666667,611482.6556017,611483.4153118,70,611482.674579,611482.6916052,611482.7915593,611483.4203709,611484.7353788,1,0.759710100013763
106,48,3,categorization,0,bathroom,SHINEd_sun_apynckhmoftszqoq.tif,46,0.0166666666666667,0.0166666666666667,0.1,0.866666666666667,611484.7402111,611485.3348528,70,611484.7593399,611484.7762082,611484.8762142,611485.3395223,611486.204527,1,0.594641700037755
106,49,3,categorization,0,kitchen,SHINEd_sun_agzzivivdpnawacl.tif,87,0.0166666666666667,0.0166666666666667,0.1,1.01666666666667,611486.2092923,611486.9022552,74,611486.2281853,611486.2453313,611486.3448123,611486.9077736,611487.9227838,1,0.692962899920531
106,50,3,categorization,0,bathroom,SHINEd_sun_aghyqhbptboemmoq.tif,25,0.0166666666666667,0.0166666666666667,0.1,1.06666666666667,611487.9278152,611488.6706801,70,611487.9465791,611487.9634632,611488.0633573,611488.6758011,611489.7408058,1,0.742864900035784
106,1,4,categorization,0,kitchen,SHINEd_sun_ahljzhgcdpomplvg.tif,89,0.0166666666666667,0.0166666666666667,0.1,0.9,611497.1328155,611497.7994714,74,611497.151784,611497.1687229,611497.2685024,611497.80446,611498.7027976,1,0.666655899956822
106,2,4,categorization,0,kitchen,SHINEd_sun_awbyfefkbcrlrqws.tif,106,0.0166666666666667,0.0166666666666667,0.1,1.83333333333333,611498.7075159,611499.2627636,74,611498.7267113,611498.7436394,611498.8431507,611499.2676487,611501.0993206,1,0.555247699958272
106,3,4,categorization,0,kitchen,SHINEd_sun_aeikbkmhphqzxdkv.tif,79,0.0166666666666667,0.0166666666666667,0.1,0.816666666666667,611501.1044529,611501.7421892,74,611501.1236883,611501.1421149,611501.2398905,611501.7473333,611502.5623374,1,0.637736300006509
106,4,4,categorization,0,kitchen,SHINEd_sun_awbyfefkbcrlrqws.tif,106,0.0166666666666667,0.0166666666666667,0.1,1.3,611502.5670001,611503.1021444,74,611502.586128,611502.6031774,611502.702658,611503.1088102,611504.4071491,1,0.535144299967214
106,5,4,categorization,0,kitchen,SHINEd_sun_aqeaevwwwjoqhzvl.tif,101,0.0166666666666667,0.0166666666666667,0.1,1,611504.4115796,611504.9421817,74,611504.4303856,611504.4474633,611504.5470734,611504.9473081,611505.9456453,1,0.530602100072429
106,6,4,categorization,0,kitchen,SHINEd_sun_awbyfefkbcrlrqws.tif,106,0.0166666666666667,0.0166666666666667,0.1,0.866666666666667,611505.9503584,611506.5502806,74,611505.9706792,611505.9863982,611506.0864905,611506.5556076,611507.4206122,1,0.599922199966386
106,7,4,categorization,0,kitchen,SHINEd_sun_adgqasybjyktddhj.tif,75,0.0166666666666667,0.0166666666666667,0.1,0.933333333333333,611507.4251426,611507.9422014,74,611507.443781,611507.4610782,611507.5608138,611507.9476177,611508.8793006,1,0.51705879997462
106,8,4,categorization,0,bathroom,SHINEd_sun_apkxzenqapsujocq.tif,45,0.0166666666666667,0.0166666666666667,0.1,0.833333333333333,611508.8843312,611509.5422791,70,611508.9043695,611508.921404,611509.0214467,611509.5476997,611510.3793711,1,0.657947900006548
106,9,4,categorization,0,kitchen,SHINEd_sun_aypmqwcualkenuoe.tif,110,0.0166666666666667,0.0166666666666667,0.1,1.88333333333333,611510.3841895,611511.0621783,70,611510.4037614,611510.4216576,611510.5196901,611511.0678869,611512.9495579,0,0.677988799987361
106,10,4,categorization,0,bathroom,SHINEd_sun_apkxzenqapsujocq.tif,45,0.0166666666666667,0.0166666666666667,0.1,1.56666666666667,611512.9544858,611513.5028612,70,611512.9746898,611512.990621,611513.0901924,611513.5072283,611515.0722338,1,0.548375400016084
106,11,4,categorization,0,bathroom,SHINEd_sun_auzqhkafidnkrwmo.tif,54,0.0166666666666667,0.0166666666666667,0.1,1.2,611515.0770482,611515.9021959,70,611515.0965588,611515.1131961,611515.2125576,611515.9077858,611517.1061239,1,0.825147700030357
106,12,4,categorization,0,kitchen,SHINEd_sun_alazdvaixpjtegwg.tif,97,0.0166666666666667,0.0166666666666667,0.1,1.78333333333333,611517.1119888,611517.7981567,74,611517.1322664,611517.148389,611517.2478971,611517.8035407,611519.5852119,1,0.686167899984866
106,13,4,categorization,0,kitchen,SHINEd_sun_agzzivivdpnawacl.tif,87,0.0166666666666667,0.0166666666666667,0.1,1.03333333333333,611519.5899104,611521.0222398,74,611519.6088888,611519.6262066,611519.7257512,611521.027288,611522.0589599,1,1.43232939997688
106,14,4,categorization,0,kitchen,SHINEd_sun_abpwyqmlzafvklqo.tif,69,0.0166666666666667,0.0166666666666667,0.1,0.95,611522.0635261,611522.7829646,74,611522.0821428,611522.1007261,611522.1990025,611522.787675,611523.7360199,1,0.719438500003889
106,15,4,categorization,0,kitchen,SHINEd_sun_ahdycvpopffkzzsu.tif,88,0.0166666666666667,0.0166666666666667,0.1,1.65,611523.7416652,611524.2541618,74,611523.760482,611523.7776573,611523.8773314,611524.2602435,611525.9085824,1,0.51249660004396
106,16,4,categorization,0,kitchen,SHINEd_sun_aamedkxepzlwuxes.tif,63,0.0166666666666667,0.0166666666666667,0.1,1,611525.9133477,611526.4950936,74,611525.9335823,611525.9499011,611526.0487311,611526.5001966,611527.4985334,1,0.581745899980888
106,17,4,categorization,0,kitchen,SHINEd_sun_alpduwskzkgbcfui.tif,98,0.0166666666666667,0.0166666666666667,0.1,1.55,611527.5050234,611528.2948484,74,611527.5243479,611527.5410018,611527.6409637,611528.2998447,611529.8481821,1,0.7898250001017
106,18,4,categorization,0,bathroom,SHINEd_sun_avhrdrntsqrjzccq.tif,55,0.0166666666666667,0.0166666666666667,0.1,0.9,611529.8528268,611530.4461689,70,611529.8715512,611529.8889313,611529.9882304,611530.4516971,611531.3500344,1,0.593342100037262
106,19,4,categorization,0,kitchen,SHINEd_sun_acxkpeoqbwcxfvip.tif,74,0.0166666666666667,0.0166666666666667,0.1,1.96666666666667,611531.3548979,611532.0062117,70,611531.3738484,611531.3908018,611531.4905417,611532.0110735,611533.9760772,0,0.651313800015487
106,20,4,categorization,0,kitchen,SHINEd_sun_acfluyeqiftljamq.tif,71,0.0166666666666667,0.0166666666666667,0.1,1.05,611533.9819897,611534.6230282,74,611534.000917,611534.0180064,611534.1184298,611534.6274031,611535.6757403,1,0.641038500005379
106,21,4,categorization,0,bathroom,SHINEd_sun_anltpptcpfdrhlks.tif,41,0.0166666666666667,0.0166666666666667,0.1,0.783333333333333,611535.6820309,611536.3421274,70,611535.700899,611535.7185188,611535.8178997,611536.3478371,611537.1295085,1,0.660096499952488
106,22,4,categorization,0,kitchen,SHINEd_sun_anbcmfjhobvmedkq.tif,100,0.0166666666666667,0.0166666666666667,0.1,1.11666666666667,611537.1359253,611537.702246,74,611537.1561685,611537.1732051,611537.2723353,611537.707867,611538.8228716,1,0.566320699988864
106,23,4,categorization,0,bathroom,SHINEd_sun_ahqjwnzgolcaoidx.tif,29,0.0166666666666667,0.0166666666666667,0.1,1.95,611538.8274936,611539.5748001,70,611538.8463838,611538.8636975,611538.9631338,611539.5795636,611541.5279006,1,0.747306499979459
106,24,4,categorization,0,kitchen,SHINEd_sun_aexklacwqwezaorf.tif,81,0.0166666666666667,0.0166666666666667,0.1,1.23333333333333,611541.5325439,611542.0781679,74,611541.5529112,611541.5695374,611541.6684642,611542.083327,611543.3149993,1,0.545624000020325
106,25,4,categorization,0,bathroom,SHINEd_sun_aghyqhbptboemmoq.tif,25,0.0166666666666667,0.0166666666666667,0.1,0.716666666666667,611543.3200053,611543.9350063,74,611543.3397407,611543.3573254,611543.4556749,611543.9399064,611544.6549102,0,0.615000999998301
106,26,4,categorization,0,bathroom,SHINEd_sun_aovflwamhlwzwvxs.tif,42,0.0166666666666667,0.0166666666666667,0.1,1.91666666666667,611544.6593476,611545.3106551,70,611544.6793192,611544.695252,611544.7950585,611545.3156254,611547.2306303,1,0.651307500083931
106,27,4,categorization,0,bathroom,SHINEd_sun_agyqfjcfkdcydepw.tif,27,0.0166666666666667,0.0166666666666667,0.1,1.25,611547.2357326,611547.9581537,70,611547.2550903,611547.2718368,611547.3713466,611547.9632586,611549.2115961,1,0.722421100013889
106,28,4,categorization,0,bathroom,SHINEd_sun_acsgbuurtwghzjel.tif,21,0.0166666666666667,0.0166666666666667,0.1,1.56666666666667,611549.2179256,611549.8388309,70,611549.2370357,611549.254854,611549.3538337,611549.8435132,611551.4085169,1,0.62090530002024
106,29,4,categorization,0,bathroom,SHINEd_sun_axbqssteryzzlcop.tif,57,0.0166666666666667,0.0166666666666667,0.1,0.816666666666667,611551.413305,611551.9747694,70,611551.4321197,611551.4493061,611551.5491184,611551.9793289,611552.7943317,1,0.561464399914257
106,30,4,categorization,0,bathroom,SHINEd_sun_acsgbuurtwghzjel.tif,21,0.0166666666666667,0.0166666666666667,0.1,1.16666666666667,611552.7989278,611553.382533,70,611552.817588,611552.8349196,611552.9346616,611553.3879371,611554.5529418,1,0.583605199935846
106,31,4,categorization,0,kitchen,SHINEd_sun_agfmsmojwptjoava.tif,82,0.0166666666666667,0.0166666666666667,0.1,1.16666666666667,611554.5589669,611555.1501456,70,611554.5777001,611554.5948599,611554.6943912,611555.1553953,611556.3203991,0,0.591178699978627
106,32,4,categorization,0,bathroom,SHINEd_sun_ahcvzmoyaycdoftf.tif,28,0.0166666666666667,0.0166666666666667,0.1,1.83333333333333,611556.3249292,611556.9502226,70,611556.3450953,611556.3608491,611556.4605158,611556.9560725,611558.7877435,1,0.625293400022201
106,33,4,categorization,0,kitchen,SHINEd_sun_abdenxonkemggwsq.tif,67,0.0166666666666667,0.0166666666666667,0.1,1.25,611558.7929317,611559.3669086,74,611558.8121074,611558.8303005,611558.9290216,611559.3714365,611560.6197745,1,0.573976899962872
106,34,4,categorization,0,bathroom,SHINEd_sun_anltpptcpfdrhlks.tif,41,0.0166666666666667,0.0166666666666667,0.1,0.866666666666667,611560.6245407,611561.1828709,70,611560.6438644,611560.6605152,611560.7601489,611561.1878703,611562.0528751,1,0.558330200030468
106,35,4,categorization,0,bathroom,SHINEd_sun_aunuadmjocsddsrl.tif,52,0.0166666666666667,0.0166666666666667,0.1,1.98333333333333,611562.0578422,611562.9022776,70,611562.0779047,611562.093897,611562.1935958,611562.907786,611564.8894646,1,0.844435399980284
106,36,4,categorization,0,bathroom,SHINEd_sun_akbyysnpwewzraii.tif,32,0.0166666666666667,0.0166666666666667,0.1,0.883333333333333,611564.8953579,611565.6061129,70,611564.9143103,611564.9315848,611565.0310249,611565.6116581,611566.49333,1,0.710755000007339
106,37,4,categorization,0,kitchen,SHINEd_sun_axyyrmzcupyhlivc.tif,109,0.0166666666666667,0.0166666666666667,0.1,1.83333333333333,611566.4977287,611567.0392847,70,611566.5164463,611566.533651,611566.6337474,611567.044256,611568.8759268,0,0.541555999894626
106,38,4,categorization,0,bathroom,SHINEd_sun_azqyogdvyhahyram.tif,60,0.0166666666666667,0.0166666666666667,0.1,1.7,611568.8817385,611569.4301865,70,611568.9019241,611568.9194844,611569.0174222,611569.4359287,611571.1342654,1,0.54844799998682
106,39,4,categorization,0,bathroom,SHINEd_sun_axxbkopsgyouuebh.tif,58,0.0166666666666667,0.0166666666666667,0.1,1.51666666666667,611571.1391531,611571.902239,70,611571.1585092,611571.1760007,611571.2753714,611571.9081434,611573.4231475,1,0.763085899990983
106,40,4,categorization,0,bathroom,SHINEd_sun_apynckhmoftszqoq.tif,46,0.0166666666666667,0.0166666666666667,0.1,1,611573.4273099,611574.0541789,70,611573.4459512,611573.4647208,611573.5631378,611574.0602957,611575.0586343,1,0.626868999912404
106,41,4,categorization,0,kitchen,SHINEd_sun_alpduwskzkgbcfui.tif,98,0.0166666666666667,0.0166666666666667,0.1,1.28333333333333,611575.0645626,611575.6461182,70,611575.0835453,611575.1014686,611575.2004343,611575.6521951,611576.9338659,0,0.581555600045249
106,42,4,categorization,0,bathroom,SHINEd_sun_aoybiabnpadelefl.tif,43,0.0166666666666667,0.0166666666666667,0.1,1.03333333333333,611576.9385119,611577.6781799,70,611576.9585638,611576.9755542,611577.0743582,611577.6837422,611578.7154118,1,0.739668000023812
106,43,4,categorization,0,bathroom,SHINEd_sun_apkxzenqapsujocq.tif,45,0.0166666666666667,0.0166666666666667,0.1,1.25,611578.7213711,611579.3500508,70,611578.7403548,611578.7572633,611578.8569894,611579.3550955,611580.6034349,1,0.628679699962959
106,44,4,categorization,0,kitchen,SHINEd_sun_ajcbwwvdlsvjyzje.tif,94,0.0166666666666667,0.0166666666666667,0.1,1.83333333333333,611580.608176,611581.1990947,74,611580.6281342,611580.6443993,611580.7437794,611581.204431,611583.0361023,1,0.590918700094335
106,45,4,categorization,0,bathroom,SHINEd_sun_aljolscmmzydegqp.tif,34,0.0166666666666667,0.0166666666666667,0.1,0.766666666666667,611583.0423348,611583.5901147,74,611583.0612312,611583.0791147,611583.1778845,611583.5959058,611584.3609095,0,0.547779900021851
106,46,4,categorization,0,bathroom,SHINEd_sun_aovflwamhlwzwvxs.tif,42,0.0166666666666667,0.0166666666666667,0.1,1.75,611584.3658656,611585.1822217,74,611584.3848817,611584.4020106,611584.5015164,611585.1875063,611586.9358443,0,0.816356100025587
106,47,4,categorization,0,kitchen,SHINEd_sun_agorklincwxrdtga.tif,85,0.0166666666666667,0.0166666666666667,0.1,0.85,611586.9407508,611587.4543145,74,611586.9595217,611586.9766113,611587.0762044,611587.4604265,611588.3087656,1,0.513563700020313
106,48,4,categorization,0,bathroom,SHINEd_sun_aoybiabnpadelefl.tif,43,0.0166666666666667,0.0166666666666667,0.1,1.55,611588.3132428,611588.9347442,74,611588.3320628,611588.34916,611588.4488274,611588.939812,611590.4881497,0,0.621501400019042
106,49,4,categorization,0,bathroom,SHINEd_sun_auzqhkafidnkrwmo.tif,54,0.0166666666666667,0.0166666666666667,0.1,1.53333333333333,611590.4930688,611591.2221292,70,611590.5118651,611590.5291068,611590.6288002,611591.2277675,611592.7594379,1,0.729060400044546
106,50,4,categorization,0,kitchen,SHINEd_sun_aegoxogugdkwpmpj.tif,77,0.0166666666666667,0.0166666666666667,0.1,0.733333333333333,611592.7655995,611593.4713758,74,611592.7849708,611592.8018274,611592.9010607,611593.4764043,611594.2080757,1,0.70577629993204
106,1,5,categorization,0,kitchen,SHINEd_sun_amjjdeyrggfqgmom.tif,99,0.0166666666666667,0.0166666666666667,0.1,0.816666666666667,611600.4721946,611601.0301224,74,611600.4915035,611600.5092124,611600.6077189,611601.0355786,611601.8505837,1,0.557927799993195
106,2,5,categorization,0,bathroom,SHINEd_sun_acgyywnybuveqsro.tif,19,0.0166666666666667,0.0166666666666667,0.1,0.95,611601.8551731,611602.3901341,74,611601.8742219,611601.8915894,611601.9907539,611602.3957083,611603.3440514,0,0.534960999968462
106,3,5,categorization,0,bathroom,SHINEd_sun_aiskgiwswewisvph.tif,30,0.0166666666666667,0.0166666666666667,0.1,0.866666666666667,611603.3493398,611603.9661326,70,611603.3687263,611603.3854044,611603.4849423,611603.9716848,611604.8366888,1,0.616792800021358
106,4,5,categorization,0,kitchen,SHINEd_sun_aehawpgmrlhlvcow.tif,78,0.0166666666666667,0.0166666666666667,0.1,1.2,611604.8414277,611605.4392131,74,611604.8613042,611604.8773549,611604.9768729,611605.4439859,611606.6423243,1,0.597785399993882
106,5,5,categorization,0,bathroom,SHINEd_sun_avhrdrntsqrjzccq.tif,55,0.0166666666666667,0.0166666666666667,0.1,1,611606.6474025,611607.4710988,70,611606.6676746,611606.68371,611606.7845628,611607.4759683,611608.4743065,1,0.823696299921721
106,6,5,categorization,0,kitchen,SHINEd_sun_aglwoufpxbtxqecp.tif,84,0.0166666666666667,0.0166666666666667,0.1,1.83333333333333,611608.4795033,611609.1427373,74,611608.5000105,611608.5156322,611608.6151875,611609.1476943,611610.9793646,1,0.66323399997782
106,7,5,categorization,0,kitchen,SHINEd_sun_agorklincwxrdtga.tif,85,0.0166666666666667,0.0166666666666667,0.1,0.783333333333333,611610.9838141,611611.5901878,74,611611.002591,611611.0198279,611611.1192335,611611.595902,611612.3775731,1,0.606373699964024
106,8,5,categorization,0,kitchen,SHINEd_sun_alazdvaixpjtegwg.tif,97,0.0166666666666667,0.0166666666666667,0.1,1.41666666666667,611612.3823443,611612.9822145,74,611612.4023044,611612.419396,611612.5178591,611612.9876787,611614.4026827,1,0.599870199919678
106,9,5,categorization,0,bathroom,SHINEd_sun_ammzpemadwrjdfzl.tif,37,0.0166666666666667,0.0166666666666667,0.1,1.11666666666667,611614.4090103,611614.9427063,74,611614.4278352,611614.445236,611614.5445959,611614.9478345,611616.062839,0,0.533695999998599
106,10,5,categorization,0,kitchen,SHINEd_sun_aggjlwcdjsjcaemh.tif,83,0.0166666666666667,0.0166666666666667,0.1,1.5,611616.0673844,611616.5740895,70,611616.0877963,611616.1038611,611616.2028026,611616.5792199,611618.0775576,0,0.506705099949613
106,11,5,categorization,0,kitchen,SHINEd_sun_ajcbwwvdlsvjyzje.tif,94,0.0166666666666667,0.0166666666666667,0.1,1.58333333333333,611618.0824857,611618.7586724,70,611618.1023193,611618.1187586,611618.2181551,611618.7636846,611620.3453564,0,0.67618670000229
106,12,5,categorization,0,bathroom,SHINEd_sun_acsgbuurtwghzjel.tif,21,0.0166666666666667,0.0166666666666667,0.1,1.73333333333333,611620.3503229,611620.9985027,70,611620.3696663,611620.3864481,611620.4859674,611621.003129,611622.7348014,1,0.648179800016806
106,13,5,categorization,0,kitchen,SHINEd_sun_aiffeoqzngslhzfi.tif,93,0.0166666666666667,0.0166666666666667,0.1,0.766666666666667,611622.7395691,611623.3507756,74,611622.7590553,611622.7754555,611622.8758298,611623.3553418,611624.120345,1,0.611206499976106
106,14,5,categorization,0,kitchen,SHINEd_sun_aiffeoqzngslhzfi.tif,93,0.0166666666666667,0.0166666666666667,0.1,1.9,611624.1247103,611624.7827609,74,611624.1439928,611624.1607188,611624.260302,611624.7875222,611626.6858599,1,0.658050599973649
106,15,5,categorization,0,bathroom,SHINEd_labelme_xbsnnlvmskdknsb.tif,12,0.0166666666666667,0.0166666666666667,0.1,0.866666666666667,611626.6906771,611627.2866168,70,611626.7112258,611626.7269552,611626.8261421,611627.2915414,611628.1565466,1,0.595939700026065
106,16,5,categorization,0,bathroom,SHINEd_sun_aclfzgynxzxlbepz.tif,20,0.0166666666666667,0.0166666666666667,0.1,1.78333333333333,611628.1611087,611629.0861168,70,611628.1796275,611628.1969708,611628.296823,611629.0920175,611630.8736899,1,0.925008099991828
106,17,5,categorization,0,bathroom,SHINEd_sun_aclfzgynxzxlbepz.tif,20,0.0166666666666667,0.0166666666666667,0.1,0.95,611630.8780971,611631.7425079,74,611630.8971676,611630.9140737,611631.0136177,611631.7471733,611632.6955104,0,0.864410800044425
106,18,5,categorization,0,bathroom,SHINEd_sun_anhioqovhscjqqwb.tif,39,0.0166666666666667,0.0166666666666667,0.1,0.716666666666667,611632.7003085,611633.3181107,70,611632.7190506,611632.73634,611632.8357384,611633.3239874,611634.0389915,1,0.617802200024016
106,19,5,categorization,0,bathroom,SHINEd_sun_ausgutylgojavyoq.tif,53,0.0166666666666667,0.0166666666666667,0.1,1.51666666666667,611634.0436318,611634.7026886,70,611634.062576,611634.0795275,611634.1792701,611634.7084348,611636.223438,1,0.659056800068356
106,20,5,categorization,0,kitchen,SHINEd_sun_ahljzhgcdpomplvg.tif,89,0.0166666666666667,0.0166666666666667,0.1,1.78333333333333,611636.2284029,611637.0621235,70,611636.2472378,611636.2644014,611636.3641318,611637.0683722,611638.8500452,0,0.833720599999651
106,21,5,categorization,0,kitchen,SHINEd_sun_awcpdzzznmweyyhv.tif,107,0.0166666666666667,0.0166666666666667,0.1,1.01666666666667,611638.8547889,611639.5990868,74,611638.8738763,611638.8917666,611638.9904891,611639.6039527,611640.6189564,1,0.744297900004312
106,22,5,categorization,0,kitchen,SHINEd_sun_abpwyqmlzafvklqo.tif,69,0.0166666666666667,0.0166666666666667,0.1,1.25,611640.6236702,611641.1985021,74,611640.6428349,611640.6596271,611640.7591906,611641.2031949,611642.4515323,1,0.574831899954006
106,23,5,categorization,0,bathroom,SHINEd_sun_aghyqhbptboemmoq.tif,25,0.0166666666666667,0.0166666666666667,0.1,0.7,611642.4563316,611643.0461867,70,611642.4764669,611642.4940149,611642.5920363,611643.0519497,611643.7502877,1,0.589855100028217
106,24,5,categorization,0,kitchen,SHINEd_sun_axyyrmzcupyhlivc.tif,109,0.0166666666666667,0.0166666666666667,0.1,0.783333333333333,611643.7548866,611644.6141184,74,611643.775124,611643.7912759,611643.890427,611644.6199018,611645.4015732,1,0.859231800073758
106,25,5,categorization,0,bathroom,SHINEd_sun_aapitsgbtktqubfy.tif,14,0.0166666666666667,0.0166666666666667,0.1,1.36666666666667,611645.406335,611646.0622041,70,611645.4254796,611645.4425008,611645.5421167,611646.0675452,611647.4325502,1,0.655869100010023
106,26,5,categorization,0,kitchen,SHINEd_sun_agubuxuukhzyzpdp.tif,86,0.0166666666666667,0.0166666666666667,0.1,1.58333333333333,611647.4379633,611648.0460949,74,611647.4568958,611647.4743821,611647.5736427,611648.0515347,611649.6332045,1,0.60813159996178
106,27,5,categorization,0,kitchen,SHINEd_sun_ahywdevtimnqcsln.tif,92,0.0166666666666667,0.0166666666666667,0.1,0.816666666666667,611649.6380094,611650.3427648,74,611649.6570487,611649.6755048,611649.7736147,611650.3479091,611651.1630713,1,0.704755399958231
106,28,5,categorization,0,kitchen,SHINEd_sun_ahpczsiumwwocjkv.tif,90,0.0166666666666667,0.0166666666666667,0.1,0.866666666666667,611651.1684658,611651.7820861,74,611651.1885522,611651.2056619,611651.3040495,611651.7874827,611652.6524875,1,0.613620299962349
106,29,5,categorization,0,bathroom,SHINEd_sun_acsgbuurtwghzjel.tif,21,0.0166666666666667,0.0166666666666667,0.1,0.733333333333333,611652.6577312,611653.2541326,70,611652.676991,611652.6950345,611652.7932707,611653.2598844,611653.9915552,1,0.596401400049217
106,30,5,categorization,0,kitchen,SHINEd_sun_ahvszpwjtodgwusx.tif,91,0.0166666666666667,0.0166666666666667,0.1,0.733333333333333,611653.9960989,611654.8466583,74,611654.0149978,611654.0322259,611654.1317738,611654.8520399,611655.5837125,1,0.850559400045313
106,31,5,categorization,0,bathroom,SHINEd_sun_abeymlrfgckenfyk.tif,16,0.0166666666666667,0.0166666666666667,0.1,1.63333333333333,611655.5883389,611656.2141188,70,611655.6072525,611655.6244859,611655.7236736,611656.2195033,611657.8511747,1,0.625779900001362
106,32,5,categorization,0,bathroom,SHINEd_sun_aspsyogrekjtfozg.tif,50,0.0166666666666667,0.0166666666666667,0.1,0.916666666666667,611657.8560979,611658.9427752,70,611657.8766778,611657.8939076,611657.9917713,611658.9481746,611659.8631785,1,1.08667730004527
106,33,5,categorization,0,bathroom,SHINEd_sun_aclfzgynxzxlbepz.tif,20,0.0166666666666667,0.0166666666666667,0.1,0.733333333333333,611659.8677097,611660.4620776,70,611659.8869664,611659.9040448,611660.0033701,611660.4673776,611661.1990494,1,0.594367899931967
106,34,5,categorization,0,bathroom,SHINEd_sun_ammzpemadwrjdfzl.tif,37,0.0166666666666667,0.0166666666666667,0.1,0.833333333333333,611661.2041243,611661.7901631,70,611661.2228602,611661.2405359,611661.3397595,611661.7956593,611662.627331,1,0.586038799956441
106,35,5,categorization,0,bathroom,SHINEd_sun_aamrfepkhweyewue.tif,13,0.0166666666666667,0.0166666666666667,0.1,1.88333333333333,611662.6321035,611663.1586525,74,611662.6511196,611662.6682193,611662.7678829,611663.1632853,611665.044957,0,0.526549000060186
106,36,5,categorization,0,bathroom,SHINEd_sun_agyqfjcfkdcydepw.tif,27,0.0166666666666667,0.0166666666666667,0.1,1.53333333333333,611665.0498242,611665.6066906,74,611665.0688045,611665.0862063,611665.1856521,611665.6118121,611667.1434834,0,0.556866400060244
106,37,5,categorization,0,bathroom,SHINEd_sun_ambriybtogmepttm.tif,36,0.0166666666666667,0.0166666666666667,0.1,0.733333333333333,611667.1498961,611667.7520492,70,611667.1690348,611667.1858805,611667.2859314,611667.7568739,611668.4885458,1,0.602153099956922
106,38,5,categorization,0,kitchen,SHINEd_sun_alalhpqajafvlnho.tif,96,0.0166666666666667,0.0166666666666667,0.1,0.933333333333333,611668.4931293,611669.0628038,74,611668.5121354,611668.5293589,611668.6287027,611669.0675352,611669.999207,1,0.569674500031397
106,39,5,categorization,0,kitchen,SHINEd_sun_avszsnwsbuqfgzbn.tif,105,0.0166666666666667,0.0166666666666667,0.1,0.8,611670.0040696,611670.4711612,74,611670.0232102,611670.0407688,611670.1396252,611670.4765187,611671.274857,1,0.467091599944979
106,40,5,categorization,0,kitchen,SHINEd_sun_ajcbwwvdlsvjyzje.tif,94,0.0166666666666667,0.0166666666666667,0.1,0.75,611671.2793856,611671.9190868,74,611671.2983741,611671.3154707,611671.4150161,611671.9239602,611672.6723107,1,0.63970119995065
106,41,5,categorization,0,bathroom,SHINEd_sun_asfwthctfqerjvxr.tif,49,0.0166666666666667,0.0166666666666667,0.1,1.01666666666667,611672.6767692,611673.3021537,74,611672.6956665,611672.7128605,611672.8125206,611673.3084705,611674.3235638,0,0.62538450001739
106,42,5,categorization,0,bathroom,SHINEd_sun_aljolscmmzydegqp.tif,34,0.0166666666666667,0.0166666666666667,0.1,1.45,611674.3283341,611674.967358,74,611674.3472012,611674.3644457,611674.4638435,611674.9723021,611676.4206411,0,0.639023900032043
106,43,5,categorization,0,kitchen,SHINEd_sun_admlmbcdswaszruo.tif,76,0.0166666666666667,0.0166666666666667,0.1,1.16666666666667,611676.4253745,611677.022641,74,611676.4442247,611676.4617622,611676.5609221,611677.027516,611678.19252,1,0.597266500000842
106,44,5,categorization,0,bathroom,SHINEd_sun_atstyziqcmkahyxk.tif,51,0.0166666666666667,0.0166666666666667,0.1,1.8,611678.1973761,611678.726718,70,611678.216465,611678.2336142,611678.3331997,611678.7317707,611680.5301081,1,0.5293419000227
106,45,5,categorization,0,bathroom,SHINEd_sun_acsgbuurtwghzjel.tif,21,0.0166666666666667,0.0166666666666667,0.1,1.31666666666667,611680.5362666,611681.1349049,70,611680.5549325,611680.5742684,611680.6719251,611681.1404242,611682.4554285,1,0.598638299969025
106,46,5,categorization,0,kitchen,SHINEd_sun_ataniphupyuxeowc.tif,102,0.0166666666666667,0.0166666666666667,0.1,0.783333333333333,611682.459944,611683.1100715,74,611682.4787978,611682.4959388,611682.595678,611683.1159786,611683.8976502,1,0.650127499946393
106,47,5,categorization,0,kitchen,SHINEd_sun_abpwyqmlzafvklqo.tif,69,0.0166666666666667,0.0166666666666667,0.1,0.933333333333333,611683.9022033,611684.5347409,70,611683.9224353,611683.9395669,611684.0379844,611684.5397567,611685.4714285,0,0.632537600002252
106,48,5,categorization,0,bathroom,SHINEd_sun_alkosphxlxwjwgjd.tif,35,0.0166666666666667,0.0166666666666667,0.1,1.15,611685.4770288,611686.0622146,74,611685.4963411,611685.5129326,611685.6125104,611686.0677848,611687.2161227,0,0.585185799980536
106,49,5,categorization,0,kitchen,SHINEd_sun_awbyfefkbcrlrqws.tif,106,0.0166666666666667,0.0166666666666667,0.1,1.2,611687.2219948,611688.0140619,74,611687.2410357,611687.2580455,611687.3573558,611688.0199829,611689.2183213,1,0.792067099944688
106,50,5,categorization,0,bathroom,SHINEd_sun_anltpptcpfdrhlks.tif,41,0.0166666666666667,0.0166666666666667,0.1,1.25,611689.2230959,611689.8387564,70,611689.2420185,611689.259131,611689.3588883,611689.8437363,611691.0920747,1,0.615660500014201
