sub_num,trial,block,task,is_practice,category,image,texture,duration,mask_dur,jitter,stim_time,time_of_resp,trial_response,mask_time,fix_time,jit_onset,trial_end,trial_accuracy,RT
132,6,0,typicality,1,kitchen,kitchen_practice2.tif,227,1.5,0,0.966666666666667,8822.721952958,8826.62511175,2,NaN,8826.648542458,8826.669934875,8827.630102416,NaN,NaN
132,7,0,typicality,1,kitchen,kitchen_practice5.tif,230,1.5,0,1.58333333333333,8827.652114208,8831.065739125,6,NaN,8831.075396625,8831.094324708,8832.671146541,NaN,NaN
132,8,0,typicality,1,kitchen,kitchen_practice1.tif,226,1.5,0,1.03333333333333,8832.69938175,8836.2031645,2,NaN,8836.234153541,8836.257817416,8837.28451725,NaN,NaN
132,9,0,typicality,1,kitchen,kitchen_practice4.tif,229,1.5,0,1.68333333333333,8837.304483041,8840.714289708,1,NaN,8840.721152875,8840.739383666,8842.416108166,NaN,NaN
132,10,0,typicality,1,kitchen,kitchen_practice3.tif,228,1.5,0,1.45,8842.446240166,8845.601055916,3,NaN,8845.647095708,8845.670260125,8847.113642041,NaN,NaN
132,1,1,typicality,0,kitchen,sun_agubuxuukhzyzpdp.tif,198,1.5,0,0.733333333333333,8853.033287166,8857.0337725,4,NaN,8857.040160791,8857.058493166,8857.78516475,NaN,NaN
132,2,1,typicality,0,kitchen,sun_ahpczsiumwwocjkv.tif,202,1.5,0,1.18333333333333,8857.801902541,8865.38506175,4,NaN,8865.391190666,8865.40955625,8866.586248333,NaN,NaN
132,3,1,typicality,0,kitchen,sun_aapllqyqlykszopd.tif,176,1.5,0,0.7,8866.596209166,8869.289862375,6,NaN,8869.2954175,8869.31385325,8870.0071925,NaN,NaN
132,4,1,typicality,0,kitchen,sun_auaiucuqpdausiva.tif,212,1.5,0,1.2,8870.011629416,8874.017864458,2,NaN,8874.023472416,8874.041837291,8875.235221333,NaN,NaN
132,5,1,typicality,0,kitchen,sun_adgqasybjyktddhj.tif,188,1.5,0,0.966666666666667,8875.245066375,8877.681538166,7,NaN,8877.687113333,8877.705336416,8878.665340958,NaN,NaN
132,6,1,typicality,0,kitchen,sun_aaxxjlsuzvqlgylf.tif,178,1.5,0,1.3,8878.670027541,8883.185872958,5,NaN,8883.191727208,8883.210107583,8884.503493791,NaN,NaN
132,7,1,typicality,0,kitchen,labelme_kxvouciolcpqplr.tif,172,1.5,0,1.65,8884.522164625,8887.441832791,7,NaN,8887.447562458,8887.465945291,8889.109321,NaN,NaN
132,8,1,typicality,0,kitchen,sun_amjjdeyrggfqgmom.tif,210,1.5,0,1.63333333333333,8889.125676958,8892.689908541,3,NaN,8892.699448208,8892.718299041,8894.345013666,NaN,NaN
132,9,1,typicality,0,kitchen,sun_acfmftudsenhrfhy.tif,184,1.5,0,0.9,8894.360514625,8897.947909291,6,NaN,8897.963103875,8897.982979166,8898.876318625,NaN,NaN
132,10,1,typicality,0,kitchen,sun_aypmqwcualkenuoe.tif,219,1.5,0,0.95,8898.880933833,8902.33804375,5,NaN,8902.343716375,8902.362045708,8903.305384416,NaN,NaN
132,11,1,typicality,0,kitchen,sun_avszsnwsbuqfgzbn.tif,215,1.5,0,0.816666666666667,8903.309660291,8906.769407875,2,NaN,8906.774804791,8906.793081,8907.60308525,NaN,NaN
132,12,1,typicality,0,kitchen,sun_aarfiyshqohlwkmo.tif,177,1.5,0,1.96666666666667,8907.60740075,8916.057458375,4,NaN,8916.062822458,8916.081123958,8918.04117825,NaN,NaN
132,13,1,typicality,0,kitchen,sun_aeqdocilnnpuvuhx.tif,193,1.5,0,0.783333333333333,8918.060591666,8922.793410333,4,NaN,8922.798820625,8922.817195458,8923.593865583,NaN,NaN
132,14,1,typicality,0,kitchen,sun_ahdycvpopffkzzsu.tif,200,1.5,0,0.733333333333333,8923.598020166,8927.337738875,6,NaN,8927.343142958,8927.361539041,8928.088211041,NaN,NaN
132,15,1,typicality,0,kitchen,sun_acgtpgfybqjmzeyw.tif,185,1.5,0,1.9,8928.092475083,8931.377338291,7,NaN,8931.382787541,8931.401202416,8933.294552375,NaN,NaN
132,16,1,typicality,0,kitchen,sun_aqeaevwwwjoqhzvl.tif,211,1.5,0,0.75,8933.30610975,8938.24156475,1,NaN,8938.246999541,8938.265365291,8939.00870325,NaN,NaN
132,17,1,typicality,0,kitchen,sun_aenotlpyftoioydp.tif,192,1.5,0,0.916666666666667,8939.013045625,8942.082042041,6,NaN,8942.092083166,8942.111151666,8943.021155375,NaN,NaN
132,18,1,typicality,0,kitchen,sun_ajkqhtgcbgpcwrwn.tif,207,1.5,0,0.733333333333333,8943.02559825,8946.14526225,7,NaN,8946.152237708,8946.170387041,8946.897057416,NaN,NaN
132,19,1,typicality,0,kitchen,sun_acxkpeoqbwcxfvip.tif,187,1.5,0,1.81666666666667,8946.901718125,8950.273557291,3,NaN,8950.2789065,8950.297258291,8952.107303791,NaN,NaN
132,20,1,typicality,0,kitchen,labelme_rykdqxenmhulbdn.tif,173,1.5,0,1.16666666666667,8952.124869041,8956.505183416,6,NaN,8956.511362625,8956.529702208,8957.689749,NaN,NaN
132,21,1,typicality,0,kitchen,sun_agorklincwxrdtga.tif,197,1.5,0,1.81666666666667,8957.699478625,8961.561046375,4,NaN,8961.56679775,8961.58539,8963.3954415,NaN,NaN
132,22,1,typicality,0,kitchen,sun_aexklacwqwezaorf.tif,194,1.5,0,1.35,8963.41296775,8966.422660916,3,NaN,8966.452245708,8966.475366875,8967.818737541,NaN,NaN
132,23,1,typicality,0,kitchen,sun_ahywdevtimnqcsln.tif,204,1.5,0,1.25,8967.838003791,8971.593130458,6,NaN,8971.59867275,8971.617142666,8972.8605085,NaN,NaN
132,24,1,typicality,0,kitchen,sun_aamedkxepzlwuxes.tif,175,1.5,0,1.05,8972.878975958,8976.304996333,5,NaN,8976.310676083,8976.329097041,8977.372465625,NaN,NaN
132,25,1,typicality,0,kitchen,sun_ajcbwwvdlsvjyzje.tif,206,1.5,0,0.916666666666667,8977.381125541,8982.13652725,5,NaN,8982.142457875,8982.160731458,8983.070736541,NaN,NaN
132,1,2,typicality,0,kitchen,sun_awcpdzzznmweyyhv.tif,216,1.5,0,1.56666666666667,8988.764874791,8992.737246625,2,NaN,8992.742698166,8992.761037458,8994.321091541,NaN,NaN
132,2,2,typicality,0,kitchen,sun_aegoxogugdkwpmpj.tif,190,1.5,0,0.883333333333333,8994.337087208,8998.121414541,4,NaN,8998.126788375,8998.145154041,8999.021825875,NaN,NaN
132,3,2,typicality,0,kitchen,sun_aixorpehvfykdynp.tif,205,1.5,0,0.75,8999.026179083,9002.825264541,6,NaN,9002.8316195,9002.850070791,9003.593409875,NaN,NaN
132,4,2,typicality,0,kitchen,sun_aehawpgmrlhlvcow.tif,191,1.5,0,1.23333333333333,9003.597986791,9007.553353625,2,NaN,9007.558925208,9007.577216375,9008.803920291,NaN,NaN
132,5,2,typicality,0,kitchen,sun_acwjdupvyjsugpay.tif,186,1.5,0,0.85,9008.818810291,9011.945177958,7,NaN,9011.95072875,9011.969746666,9012.813085625,NaN,NaN
132,6,2,typicality,0,kitchen,labelme_brsyyvweiuaazfr.tif,171,1.5,0,0.916666666666667,9012.817413125,9017.5367695,4,NaN,9017.542578458,9017.560869083,9018.4708745,NaN,NaN
132,7,2,typicality,0,kitchen,sun_akchetnepxlcxhsu.tif,208,1.5,0,1.75,9018.475447083,9021.189326625,7,NaN,9021.213162666,9021.236170083,9022.979540041,NaN,NaN
132,8,2,typicality,0,kitchen,sun_ahljzhgcdpomplvg.tif,201,1.5,0,1.43333333333333,9022.997017833,9026.229572083,5,NaN,9026.258652958,9026.281871875,9027.708585458,NaN,NaN
132,9,2,typicality,0,kitchen,sun_abpwyqmlzafvklqo.tif,182,1.5,0,0.783333333333333,9027.727012166,9031.049052416,6,NaN,9031.054566666,9031.072860375,9031.849532375,NaN,NaN
132,10,2,typicality,0,kitchen,sun_axyyrmzcupyhlivc.tif,217,1.5,0,1.76666666666667,9031.853989375,9039.296356375,7,NaN,9039.30234875,9039.320493666,9041.080541833,NaN,NaN
132,11,2,typicality,0,kitchen,sun_auticobqsbwgoppi.tif,214,1.5,0,1.78333333333333,9041.099737625,9044.48069225,6,NaN,9044.506433208,9044.527638,9046.304359166,NaN,NaN
132,12,2,typicality,0,kitchen,sun_aymvwlarqodbwuoc.tif,218,1.5,0,1.85,9046.322076416,9049.265404958,3,NaN,9049.2860605,9049.30716625,9051.150542791,NaN,NaN
132,13,2,typicality,0,kitchen,sun_ahspylgoovwmwvgk.tif,203,1.5,0,1.18333333333333,9051.161022666,9054.84062725,5,NaN,9054.846236,9054.8644515,9056.04117425,NaN,NaN
132,14,2,typicality,0,kitchen,sun_aggjlwcdjsjcaemh.tif,196,1.5,0,1.01666666666667,9056.053728708,9061.120850708,6,NaN,9061.126417708,9061.144767041,9062.154810875,NaN,NaN
132,15,2,typicality,0,kitchen,sun_aunzlwrbjumxhwdj.tif,213,1.5,0,1.65,9062.162272125,9066.760334333,6,NaN,9066.766369208,9066.785005625,9068.428374041,NaN,NaN
132,16,2,typicality,0,kitchen,sun_abrcnpqqhmjwekyf.tif,183,1.5,0,1.83333333333333,9068.442485416,9074.832780833,5,NaN,9074.838400375,9074.856946958,9076.683650375,NaN,NaN
132,17,2,typicality,0,kitchen,sun_agzzivivdpnawacl.tif,199,1.5,0,1.58333333333333,9076.699357625,9080.792803958,1,NaN,9080.79847475,9080.816829125,9082.393537416,NaN,NaN
132,18,2,typicality,0,kitchen,sun_abftihopvusyfakt.tif,181,1.5,0,1.85,9082.41080875,9087.537070291,3,NaN,9087.543101458,9087.561461208,9089.404849041,NaN,NaN
132,19,2,typicality,0,kitchen,sun_afuyedyxivkhecmu.tif,195,1.5,0,0.766666666666667,9089.423667,9097.104552416,2,NaN,9097.110152916,9097.128553416,9097.888558583,NaN,NaN
132,20,2,typicality,0,kitchen,sun_aadbddgrdsjugojn.tif,174,1.5,0,0.716666666666667,9097.893014083,9101.688984958,5,NaN,9101.694528041,9101.712812,9102.422817791,NaN,NaN
132,21,2,typicality,0,kitchen,sun_azmutvzbxypaceni.tif,220,1.5,0,1.38333333333333,9102.434108708,9105.89673875,6,NaN,9105.902015458,9105.920247583,9107.296933125,NaN,NaN
132,22,2,typicality,0,kitchen,sun_abdxkyyxwfskuaqb.tif,180,1.5,0,0.866666666666667,9107.30843475,9109.704974,2,NaN,9109.710336666,9109.728719541,9110.588724791,NaN,NaN
132,23,2,typicality,0,kitchen,sun_akcjzhbbjlbogpdi.tif,209,1.5,0,1.4,9110.593378125,9113.976751958,7,NaN,9113.982508416,9114.001373208,9115.394761958,NaN,NaN
132,24,2,typicality,0,kitchen,sun_admlmbcdswaszruo.tif,189,1.5,0,1,9115.412928458,9119.32026125,6,NaN,9119.326101,9119.34438675,9120.3377255,NaN,NaN
132,25,2,typicality,0,kitchen,sun_abdenxonkemggwsq.tif,179,1.5,0,1.28333333333333,9120.342247666,9123.432564958,3,NaN,9123.442810375,9123.461888958,9124.738596583,NaN,NaN
