sub_num,trial,block,task,is_practice,category,image,texture,duration,mask_dur,jitter,stim_time,time_of_resp,trial_response,mask_time,fix_time,jit_onset,trial_end,trial_accuracy,RT
138,1,0,typicality,1,bathroom,bathroom_practice2.tif,222,1.5,0,1.48333333333333,292.034110583,302.308167625,3,NaN,302.330781666,302.350982416,303.828022666,NaN,NaN
138,2,0,typicality,1,bathroom,bathroom_practice4.tif,224,1.5,0,0.75,303.904328125,308.412377458,6,NaN,308.421900958,308.440681458,309.184037458,NaN,NaN
138,3,0,typicality,1,bathroom,bathroom_practice1.tif,221,1.5,0,1.93333333333333,309.1897645,312.748882208,4,NaN,312.75575075,312.774591583,314.701487791,NaN,NaN
138,4,0,typicality,1,bathroom,bathroom_practice5.tif,225,1.5,0,0.983333333333333,314.739277375,319.820355041,3,NaN,319.8279255,319.846681083,320.823364041,NaN,NaN
138,5,0,typicality,1,bathroom,bathroom_practice3.tif,223,1.5,0,0.883333333333333,320.831516208,323.75674525,2,NaN,323.812109958,323.845502583,324.72229025,NaN,NaN
138,1,1,typicality,0,bathroom,sun_aapitsgbtktqubfy.tif,122,1.5,0,0.866666666666667,331.127461875,334.980187375,4,NaN,334.986576833,335.005026166,335.865046958,NaN,NaN
138,2,1,typicality,0,bathroom,sun_aleqenyvunhactkl.tif,142,1.5,0,1.03333333333333,335.869979458,338.696048666,6,NaN,338.725867833,338.749754875,339.77646575,NaN,NaN
138,3,1,typicality,0,bathroom,sun_ajlawzvmubibwbpy.tif,140,1.5,0,0.866666666666667,339.785855041,343.131974041,3,NaN,343.137631625,343.1559255,344.01592925,NaN,NaN
138,4,1,typicality,0,bathroom,sun_alkosphxlxwjwgjd.tif,144,1.5,0,1.61666666666667,344.020472916,349.556770625,3,NaN,349.562579083,349.581028958,351.191070666,NaN,NaN
138,5,1,typicality,0,bathroom,sun_anhioqovhscjqqwb.tif,148,1.5,0,0.883333333333333,351.208051,354.876882458,7,NaN,354.883330208,354.90169225,355.778364833,NaN,NaN
138,6,1,typicality,0,bathroom,sun_alotolagknyrgtsk.tif,145,1.5,0,0.933333333333333,355.783048708,358.432165208,1,NaN,358.460621291,358.484489833,359.411162833,NaN,NaN
138,7,1,typicality,0,bathroom,sun_aghyqhbptboemmoq.tif,133,1.5,0,1.5,359.415731083,362.332637208,6,NaN,362.361457625,362.38464225,363.878014458,NaN,NaN
138,8,1,typicality,0,bathroom,sun_asfwthctfqerjvxr.tif,159,1.5,0,1.36666666666667,363.977061875,366.988169,3,NaN,366.993681,367.01193875,368.371984708,NaN,NaN
138,9,1,typicality,0,bathroom,sun_agyqfjcfkdcydepw.tif,135,1.5,0,0.85,368.389665666,372.115650666,2,NaN,372.121557375,372.139962333,372.983302208,NaN,NaN
138,10,1,typicality,0,bathroom,sun_apeeialkgkuxddgh.tif,152,1.5,0,1.81666666666667,372.987799666,376.29968525,7,NaN,376.305647833,376.32408875,378.134144708,NaN,NaN
138,11,1,typicality,0,bathroom,sun_acegryoqftbzowsg.tif,127,1.5,0,1.28333333333333,378.152338541,381.627792416,1,NaN,381.636007708,381.654351541,382.93106875,NaN,NaN
138,12,1,typicality,0,bathroom,sun_anryaplzeujmzfkd.tif,149,1.5,0,1.23333333333333,382.948263291,387.46755325,2,NaN,387.474290458,387.492569375,388.719276416,NaN,NaN
138,13,1,typicality,0,bathroom,sun_amzlamotzwfkwjco.tif,147,1.5,0,0.883333333333333,388.733670541,392.740389333,1,NaN,392.745888125,392.764235666,393.640906666,NaN,NaN
138,14,1,typicality,0,bathroom,sun_afcoljnjfoxjtgja.tif,130,1.5,0,0.866666666666667,393.64552125,397.739911333,2,NaN,397.74559225,397.763945375,398.62395125,NaN,NaN
138,15,1,typicality,0,bathroom,sun_aclfzgynxzxlbepz.tif,129,1.5,0,1.36666666666667,398.628234041,401.796253875,6,NaN,401.801847416,401.820040458,403.180070291,NaN,NaN
138,16,1,typicality,0,bathroom,sun_acduarbnmmoglmiv.tif,126,1.5,0,1.05,403.194584125,406.732092791,2,NaN,406.737516875,406.755941333,407.799334083,NaN,NaN
138,17,1,typicality,0,bathroom,sun_auzqhkafidnkrwmo.tif,164,1.5,0,1.21666666666667,407.808852416,410.459425083,2,NaN,410.465245833,410.483513333,411.69355725,NaN,NaN
138,18,1,typicality,0,bathroom,sun_aofnryafpsjimzsb.tif,150,1.5,0,0.816666666666667,411.71124025,414.588206625,3,NaN,414.593677166,414.612084625,415.422089041,NaN,NaN
138,19,1,typicality,0,bathroom,sun_apmqjbnwghzuhhzh.tif,156,1.5,0,1,415.426339583,418.172937708,6,NaN,418.19902175,418.222646083,419.215985875,NaN,NaN
138,20,1,typicality,0,bathroom,sun_abjtwfukuwddzted.tif,125,1.5,0,1.21666666666667,419.220509666,422.075026375,3,NaN,422.104192458,422.127569916,423.3376255,NaN,NaN
138,21,1,typicality,0,bathroom,sun_awnqiikzaispgmwo.tif,166,1.5,0,1.46666666666667,423.356039958,426.812086375,5,NaN,426.817465083,426.835700208,428.295757041,NaN,NaN
138,22,1,typicality,0,bathroom,sun_aljolscmmzydegqp.tif,143,1.5,0,1.4,428.313953416,431.228321666,2,NaN,431.234178,431.25314375,432.646515958,NaN,NaN
138,23,1,typicality,0,bathroom,sun_abapwbhyhkfixyex.tif,124,1.5,0,0.783333333333333,432.66221575,435.475608416,5,NaN,435.481254,435.499661208,436.27633275,NaN,NaN
138,24,1,typicality,0,bathroom,labelme_sfxiulhjbhlyiyt.tif,121,1.5,0,1.21666666666667,436.284983416,438.807547666,7,NaN,438.834607333,438.857564791,440.067611625,NaN,NaN
138,25,1,typicality,0,bathroom,sun_axldvoqbuvuggfmq.tif,167,1.5,0,1.35,440.084983666,442.795696458,3,NaN,442.801366708,442.819872458,444.163268458,NaN,NaN
138,1,2,typicality,0,bathroom,sun_aoybiabnpadelefl.tif,151,1.5,0,1.65,448.490147166,452.291773541,2,NaN,452.297254458,452.315534416,453.958909375,NaN,NaN
138,2,2,typicality,0,bathroom,sun_apkruvsevgegsdwp.tif,154,1.5,0,1.01666666666667,453.973364416,456.906567625,7,NaN,456.931164375,456.954524708,457.96452925,NaN,NaN
138,3,2,typicality,0,bathroom,sun_ahijqszoswveeyji.tif,138,1.5,0,1.58333333333333,457.9697205,460.9305585,5,NaN,460.959712666,460.983526666,462.560206208,NaN,NaN
138,4,2,typicality,0,bathroom,sun_aunuadmjocsddsrl.tif,162,1.5,0,0.7,462.580083458,465.502064458,6,NaN,465.524400458,465.5457985,466.239136958,NaN,NaN
138,5,2,typicality,0,bathroom,sun_apkxzenqapsujocq.tif,155,1.5,0,1.23333333333333,466.243935958,469.6353695,5,NaN,469.64097075,469.659275166,470.8859975,NaN,NaN
138,6,2,typicality,0,bathroom,sun_akiytfaagpdsphgz.tif,141,1.5,0,0.816666666666667,470.902487458,473.547514666,3,NaN,473.553057041,473.571301833,474.381305625,NaN,NaN
138,7,2,typicality,0,bathroom,sun_agrwbmhcpmfuwmsg.tif,134,1.5,0,0.733333333333333,474.386234583,478.451816583,3,NaN,478.457167041,478.475622541,479.202295,NaN,NaN
138,8,2,typicality,0,bathroom,sun_agguqiubmwhqqunb.tif,132,1.5,0,1.15,479.217614416,481.935180833,3,NaN,481.958909916,481.981896291,483.125271166,NaN,NaN
138,9,2,typicality,0,bathroom,sun_axyrejkiiaqiurjk.tif,169,1.5,0,0.933333333333333,483.134338375,486.323215666,3,NaN,486.330050708,486.348395166,487.275067625,NaN,NaN
138,10,2,typicality,0,bathroom,sun_aavhrsfjbserjtht.tif,123,1.5,0,0.916666666666667,487.284201833,489.963388458,3,NaN,489.987582916,490.01002825,490.920032583,NaN,NaN
138,11,2,typicality,0,bathroom,sun_avhrdrntsqrjzccq.tif,165,1.5,0,1.26666666666667,490.93441925,493.888012625,1,NaN,493.909376625,493.932192625,495.192229666,NaN,NaN
138,12,2,typicality,0,bathroom,sun_aqrpegblszgcoujh.tif,158,1.5,0,0.933333333333333,495.209395416,499.579305833,3,NaN,499.58493375,499.603171916,500.529844833,NaN,NaN
138,13,2,typicality,0,bathroom,sun_ambriybtogmepttm.tif,146,1.5,0,1,500.550954833,503.38365975,1,NaN,503.403514,503.424732166,504.418070833,NaN,NaN
138,14,2,typicality,0,bathroom,sun_acgyywnybuveqsro.tif,128,1.5,0,1,504.422686333,507.30533475,2,NaN,507.329804416,507.353813291,508.347150625,NaN,NaN
138,15,2,typicality,0,bathroom,sun_aggnnqpdorgxpvce.tif,131,1.5,0,1.21666666666667,508.352663291,511.819380875,3,NaN,511.826110541,511.844527583,513.0545705,NaN,NaN
138,16,2,typicality,0,bathroom,sun_apjevzvycyhuqghb.tif,153,1.5,0,1.85,513.071618708,516.85972775,3,NaN,516.865066208,516.883409125,518.726791541,NaN,NaN
138,17,2,typicality,0,bathroom,sun_aspsyogrekjtfozg.tif,160,1.5,0,0.766666666666667,518.745367458,521.534188166,4,NaN,521.555631708,521.578730541,522.338736541,NaN,NaN
138,18,2,typicality,0,bathroom,sun_axxbkopsgyouuebh.tif,168,1.5,0,0.966666666666667,522.343357791,524.935306291,6,NaN,524.96331875,524.986840458,525.946844416,NaN,NaN
138,19,2,typicality,0,bathroom,sun_ahaulkltgpkeeemi.tif,136,1.5,0,1.4,525.952635333,529.024572083,2,NaN,529.053581375,529.075663791,530.46904225,NaN,NaN
138,20,2,typicality,0,bathroom,sun_apynckhmoftszqoq.tif,157,1.5,0,0.933333333333333,530.483800333,533.283007625,6,NaN,533.288650541,533.306995291,534.233666083,NaN,NaN
138,21,2,typicality,0,bathroom,sun_ahqjwnzgolcaoidx.tif,139,1.5,0,1.7,534.238113708,536.999847166,3,NaN,537.023311291,537.046439958,538.739831583,NaN,NaN
138,22,2,typicality,0,bathroom,sun_ahcvzmoyaycdoftf.tif,137,1.5,0,0.916666666666667,538.75678275,541.452981916,2,NaN,541.476185708,541.497469458,542.40747525,NaN,NaN
138,23,2,typicality,0,bathroom,sun_ausgutylgojavyoq.tif,163,1.5,0,0.833333333333333,542.417305333,547.554735958,3,NaN,547.561435583,547.57987625,548.406548916,NaN,NaN
138,24,2,typicality,0,bathroom,sun_azqyogdvyhahyram.tif,170,1.5,0,0.783333333333333,548.417277333,551.276328666,6,NaN,551.300366541,551.323176375,552.099847833,NaN,NaN
138,25,2,typicality,0,bathroom,sun_atstyziqcmkahyxk.tif,161,1.5,0,1.4,552.104487916,555.899211708,5,NaN,555.904733375,555.923008666,557.316408666,NaN,NaN
