sub_num,trial,block,task,is_practice,category,image,texture,duration,mask_dur,jitter,stim_time,time_of_resp,trial_response,mask_time,fix_time,jit_onset,trial_end,trial_accuracy,RT
133,1,5,categorization,0,bathroom,SHINEd_sun_ahcvzmoyaycdoftf.tif,27,0.0666666666666667,0.0666666666666667,1.7,1295.377132208,1296.787379166,13,1295.439384,1295.500055916,1296.802256083,1298.495607625,1,1.41024695800002
133,2,5,categorization,0,bathroom,SHINEd_sun_alkosphxlxwjwgjd.tif,34,0.0666666666666667,0.0666666666666667,1.81666666666667,1298.504243333,1299.302506,13,1298.569286291,1298.637860458,1299.327297041,1301.137354958,1,0.798262667000017
133,3,5,categorization,0,bathroom,SHINEd_sun_axxbkopsgyouuebh.tif,58,0.0666666666666667,0.0666666666666667,1.23333333333333,1301.154147375,1302.220780083,9,1301.220629166,1301.28887825,1302.245764791,1303.472486208,0,1.06663270799982
133,4,5,categorization,0,kitchen,SHINEd_sun_acfmftudsenhrfhy.tif,74,0.0666666666666667,0.0666666666666667,1.4,1303.489724041,1305.35523625,13,1303.556306541,1303.623671458,1305.359580375,1306.752945666,0,1.86551220899992
133,5,5,categorization,0,bathroom,SHINEd_sun_anryaplzeujmzfkd.tif,39,0.0666666666666667,0.0666666666666667,1.03333333333333,1306.769033791,1307.438972666,13,1306.836798041,1306.902816791,1307.459580208,1308.486284666,1,0.669938874999843
133,6,5,categorization,0,bathroom,SHINEd_sun_ahaulkltgpkeeemi.tif,26,0.0666666666666667,0.0666666666666667,1.38333333333333,1308.495566791,1309.527186875,9,1308.560967416,1308.628605041,1309.551719083,1310.92842625,0,1.031620084
133,7,5,categorization,0,bathroom,SHINEd_sun_axldvoqbuvuggfmq.tif,57,0.0666666666666667,0.0666666666666667,2,1310.944544666,1311.903657833,13,1311.011092708,1311.078470083,1311.935365583,1313.928735833,1,0.959113166999941
133,8,5,categorization,0,kitchen,SHINEd_sun_acwjdupvyjsugpay.tif,76,0.0666666666666667,0.0666666666666667,1.85,1313.946284708,1314.446981,13,1314.012948666,1314.08059725,1314.46926375,1316.312654458,0,0.500696292000157
133,9,5,categorization,0,kitchen,SHINEd_sun_ajkqhtgcbgpcwrwn.tif,97,0.0666666666666667,0.0666666666666667,0.816666666666667,1316.321881666,1317.274807166,9,1316.388362875,1316.454092291,1317.293707083,1318.103712291,1,0.952925499999992
133,10,5,categorization,0,bathroom,SHINEd_sun_abjtwfukuwddzted.tif,15,0.0666666666666667,0.0666666666666667,1.85,1318.108713541,1318.707278666,13,1318.170490958,1318.231625625,1318.716820625,1320.560192583,1,0.59856512500005
133,11,5,categorization,0,kitchen,SHINEd_sun_ajcbwwvdlsvjyzje.tif,96,0.0666666666666667,0.0666666666666667,0.733333333333333,1320.576944666,1321.882838958,9,1320.643485333,1320.710785708,1321.896849583,1322.623521416,1,1.30589429200018
133,12,5,categorization,0,kitchen,SHINEd_sun_aamedkxepzlwuxes.tif,65,0.0666666666666667,0.0666666666666667,0.716666666666667,1322.628108166,1323.64351675,9,1322.689808375,1322.750994333,1323.653022125,1324.363028125,1,1.01540858399994
133,13,5,categorization,0,kitchen,SHINEd_sun_aixorpehvfykdynp.tif,95,0.0666666666666667,0.0666666666666667,0.833333333333333,1324.367634416,1325.538794958,9,1324.429304333,1324.490572,1325.542603416,1326.369275583,1,1.17116054199982
133,14,5,categorization,0,bathroom,SHINEd_sun_acduarbnmmoglmiv.tif,16,0.0666666666666667,0.0666666666666667,0.95,1326.374096166,1327.483300583,13,1326.435826375,1326.497110083,1327.499177666,1328.442514666,1,1.109204417
133,15,5,categorization,0,kitchen,SHINEd_sun_agubuxuukhzyzpdp.tif,88,0.0666666666666667,0.0666666666666667,1.96666666666667,1328.447036,1329.195025458,9,1328.508682541,1328.56987775,1329.205418333,1331.165474208,1,0.747989457999893
133,16,5,categorization,0,bathroom,SHINEd_sun_apeeialkgkuxddgh.tif,42,0.0666666666666667,0.0666666666666667,1.86666666666667,1331.182409,1331.954506833,9,1331.249315,1331.316798083,1331.973087708,1333.833120958,0,0.772097833000089
133,17,5,categorization,0,kitchen,SHINEd_sun_ahljzhgcdpomplvg.tif,91,0.0666666666666667,0.0666666666666667,1.51666666666667,1333.849933583,1334.325206458,13,1333.916483291,1333.984375666,1334.338467,1335.848523416,0,0.475272874999973
133,18,5,categorization,0,bathroom,SHINEd_sun_auzqhkafidnkrwmo.tif,54,0.0666666666666667,0.0666666666666667,1.3,1335.865405708,1336.4686565,9,1335.932061166,1335.999398625,1336.488013125,1337.781389791,0,0.603250791999926
133,19,5,categorization,0,kitchen,SHINEd_sun_admlmbcdswaszruo.tif,79,0.0666666666666667,0.0666666666666667,1.91666666666667,1337.798198958,1338.570874541,9,1337.865011625,1337.9320275,1338.588128625,1340.498145875,1,0.772675582999909
133,20,5,categorization,0,bathroom,SHINEd_sun_abapwbhyhkfixyex.tif,14,0.0666666666666667,0.0666666666666667,1.23333333333333,1340.50749825,1341.151358166,13,1340.574160666,1340.641794125,1341.181837,1342.408549125,1,0.643859915999883
133,21,5,categorization,0,bathroom,SHINEd_sun_amzlamotzwfkwjco.tif,37,0.0666666666666667,0.0666666666666667,0.866666666666667,1342.422640666,1342.897178708,9,1342.487840416,1342.555658208,1342.928824041,1343.788874125,0,0.474538041999949
133,22,5,categorization,0,kitchen,SHINEd_sun_agorklincwxrdtga.tif,87,0.0666666666666667,0.0666666666666667,0.8,1343.804855625,1344.490637041,9,1343.870940083,1343.938479708,1344.506912833,1345.30025175,1,0.685781415999827
133,23,5,categorization,0,kitchen,SHINEd_sun_abpwyqmlzafvklqo.tif,72,0.0666666666666667,0.0666666666666667,1.51666666666667,1345.305037,1345.859128666,9,1345.366773458,1345.428033625,1345.863247041,1347.373293208,1,0.554091665999977
133,24,5,categorization,0,bathroom,SHINEd_sun_agyqfjcfkdcydepw.tif,25,0.0666666666666667,0.0666666666666667,1.18333333333333,1347.393566291,1348.103477958,9,1347.460285583,1347.527247625,1348.133688916,1349.310393,0,0.709911666999915
133,25,5,categorization,0,bathroom,SHINEd_sun_afcoljnjfoxjtgja.tif,20,0.0666666666666667,0.0666666666666667,1.6,1349.320068541,1349.976049333,13,1349.386671625,1349.453276958,1349.992220583,1351.585609125,1,0.655980792000037
133,26,5,categorization,0,bathroom,SHINEd_sun_apkxzenqapsujocq.tif,45,0.0666666666666667,0.0666666666666667,1.56666666666667,1351.60397025,1352.015249958,13,1351.67050925,1351.737809708,1352.044216833,1353.604274958,1,0.411279707999938
133,27,5,categorization,0,bathroom,SHINEd_sun_aqrpegblszgcoujh.tif,48,0.0666666666666667,0.0666666666666667,1.36666666666667,1353.622208166,1354.025706916,13,1353.688418375,1353.755986833,1354.045958208,1355.406011666,1,0.403498749999926
133,28,5,categorization,0,bathroom,SHINEd_labelme_sfxiulhjbhlyiyt.tif,11,0.0666666666666667,0.0666666666666667,1.53333333333333,1355.423241375,1355.787072833,13,1355.4858445,1355.546261625,1355.798073125,1357.324779125,1,0.363831457999822
133,29,5,categorization,0,bathroom,SHINEd_sun_asfwthctfqerjvxr.tif,49,0.0666666666666667,0.0666666666666667,1.4,1357.3421775,1357.685550958,13,1357.408779833,1357.476495791,1357.716226625,1359.109612041,1,0.343373458000087
133,30,5,categorization,0,bathroom,SHINEd_sun_azqyogdvyhahyram.tif,60,0.0666666666666667,0.0666666666666667,1.06666666666667,1359.125830541,1359.490164083,13,1359.192396083,1359.259703375,1359.516248541,1360.576284083,1,0.364333542000168
133,31,5,categorization,0,kitchen,SHINEd_sun_auaiucuqpdausiva.tif,102,0.0666666666666667,0.0666666666666667,1.63333333333333,1360.592363166,1361.21117575,9,1360.659168166,1360.726250041,1361.228802208,1362.855505541,1,0.618812583999897
133,32,5,categorization,0,kitchen,SHINEd_labelme_kxvouciolcpqplr.tif,62,0.0666666666666667,0.0666666666666667,1.8,1362.872437458,1363.258876666,9,1362.938778791,1363.006139416,1363.278871833,1365.07224175,1,0.386439208000183
133,33,5,categorization,0,bathroom,SHINEd_sun_agguqiubmwhqqunb.tif,22,0.0666666666666667,0.0666666666666667,1.53333333333333,1365.088479208,1365.809533166,9,1365.154710708,1365.2219385,1365.828024041,1367.354729916,0,0.721053957999857
133,34,5,categorization,0,kitchen,SHINEd_sun_abrcnpqqhmjwekyf.tif,73,0.0666666666666667,0.0666666666666667,0.766666666666667,1367.372191083,1368.315416583,13,1367.438521458,1367.5065625,1368.327487458,1369.087492083,0,0.943225499999926
133,35,5,categorization,0,bathroom,SHINEd_sun_agrwbmhcpmfuwmsg.tif,24,0.0666666666666667,0.0666666666666667,1.86666666666667,1369.09241075,1369.619301666,13,1369.154196208,1369.215300541,1369.633761583,1371.493802583,1,0.526890915999957
133,36,5,categorization,0,kitchen,SHINEd_sun_ahywdevtimnqcsln.tif,94,0.0666666666666667,0.0666666666666667,1.13333333333333,1371.510657833,1372.451145416,13,1371.577637208,1371.6448965,1372.466706958,1373.593403791,0,0.940487582999822
133,37,5,categorization,0,kitchen,SHINEd_sun_aggjlwcdjsjcaemh.tif,86,0.0666666666666667,0.0666666666666667,1.73333333333333,1373.602614958,1374.303218833,13,1373.667846083,1373.73647975,1374.324411,1376.051119416,0,0.70060387500007
133,38,5,categorization,0,kitchen,SHINEd_sun_aarfiyshqohlwkmo.tif,67,0.0666666666666667,0.0666666666666667,0.766666666666667,1376.068354125,1376.595243416,13,1376.135111291,1376.202184375,1376.626066083,1377.386107166,0,0.526889290999861
133,39,5,categorization,0,kitchen,SHINEd_sun_ahdycvpopffkzzsu.tif,90,0.0666666666666667,0.0666666666666667,1.85,1377.402797583,1377.930800083,13,1377.469827666,1377.536576375,1377.938947916,1379.782335958,0,0.528002499999957
133,40,5,categorization,0,kitchen,SHINEd_sun_aqeaevwwwjoqhzvl.tif,101,0.0666666666666667,0.0666666666666667,0.966666666666667,1379.798991833,1380.243282166,13,1379.865724541,1379.932679916,1380.272520708,1381.232524958,0,0.444290333000026
133,41,5,categorization,0,bathroom,SHINEd_sun_alotolagknyrgtsk.tif,35,0.0666666666666667,0.0666666666666667,1.06666666666667,1381.237358458,1381.739426291,13,1381.299147666,1381.360411125,1381.7456515,1382.805694541,1,0.502067832999955
133,42,5,categorization,0,kitchen,SHINEd_sun_aypmqwcualkenuoe.tif,109,0.0666666666666667,0.0666666666666667,1.38333333333333,1382.81484175,1383.446449291,13,1382.879175166,1382.946200916,1383.470153416,1384.846878,0,0.631607540999994
133,43,5,categorization,0,kitchen,SHINEd_sun_axyyrmzcupyhlivc.tif,107,0.0666666666666667,0.0666666666666667,0.766666666666667,1384.863202291,1385.383843583,13,1384.929349083,1384.996913041,1385.402878166,1386.162911125,0,0.520641291999937
133,44,5,categorization,0,kitchen,SHINEd_sun_aenotlpyftoioydp.tif,82,0.0666666666666667,0.0666666666666667,0.866666666666667,1386.178472291,1386.732190166,9,1386.244780791,1386.311343583,1386.750694083,1387.6106995,1,0.553717875000075
133,45,5,categorization,0,bathroom,SHINEd_sun_apjevzvycyhuqghb.tif,43,0.0666666666666667,0.0666666666666667,1.25,1387.615509625,1388.706841125,9,1387.677116458,1387.738725708,1388.724279875,1389.967653875,0,1.09133150000002
133,46,5,categorization,0,kitchen,SHINEd_sun_abftihopvusyfakt.tif,71,0.0666666666666667,0.0666666666666667,1.03333333333333,1389.983854958,1390.603868375,9,1390.050054291,1390.11766975,1390.623339208,1391.650051166,1,0.620013417000109
133,47,5,categorization,0,kitchen,SHINEd_sun_aadbddgrdsjugojn.tif,64,0.0666666666666667,0.0666666666666667,0.783333333333333,1391.665177166,1392.386445875,9,1391.731725083,1391.798859958,1392.400739125,1393.177410791,1,0.721268709000014
133,48,5,categorization,0,bathroom,SHINEd_sun_aggnnqpdorgxpvce.tif,21,0.0666666666666667,0.0666666666666667,0.7,1393.18194375,1393.866787,9,1393.243689916,1393.304881333,1393.873194583,1394.566533125,0,0.684843249999858
133,49,5,categorization,0,bathroom,SHINEd_sun_awnqiikzaispgmwo.tif,56,0.0666666666666667,0.0666666666666667,1.75,1394.571179791,1395.914741583,9,1394.632851833,1394.694157041,1395.929587458,1397.6729735,0,1.34356179199995
133,50,5,categorization,0,bathroom,SHINEd_sun_axyrejkiiaqiurjk.tif,59,0.0666666666666667,0.0666666666666667,1.36666666666667,1397.689713791,1399.723058833,13,1397.756615333,1397.823364166,1399.742508916,1401.102546291,1,2.03334504200006
