sub_num,trial,block,task,is_practice,category,image,texture,duration,mask_dur,jitter,stim_time,time_of_resp,trial_response,mask_time,fix_time,jit_onset,trial_end,trial_accuracy,RT
133,1,13,categorization,0,kitchen,SHINEd_sun_abdxkyyxwfskuaqb.tif,70,0.0666666666666667,0.0666666666666667,0.933333333333333,2516.773113333,2518.4625395,13,2516.8356365,2516.896352333,2518.481887458,2519.408557958,0,1.68942616699997
133,2,13,categorization,0,kitchen,SHINEd_sun_agzzivivdpnawacl.tif,89,0.0666666666666667,0.0666666666666667,1.36666666666667,2519.413265041,2520.902515833,9,2519.475053333,2519.536135041,2520.921693625,2522.281729125,1,1.48925079199989
133,3,13,categorization,0,kitchen,SHINEd_sun_avszsnwsbuqfgzbn.tif,105,0.0666666666666667,0.0666666666666667,1.88333333333333,2522.295953708,2523.296587166,9,2522.362745041,2522.426830583,2523.316246291,2525.192946583,1,1.00063345799981
133,4,13,categorization,0,kitchen,SHINEd_sun_aehawpgmrlhlvcow.tif,81,0.0666666666666667,0.0666666666666667,1.35,2525.210483625,2526.758698416,9,2525.277050875,2525.34448,2526.763076875,2528.106460041,1,1.54821479099974
133,5,13,categorization,0,bathroom,SHINEd_sun_agyqfjcfkdcydepw.tif,25,0.0666666666666667,0.0666666666666667,1.3,2528.122722125,2529.934677208,9,2528.189183291,2528.256770375,2529.942795458,2531.236185708,0,1.8119550829997
133,6,13,categorization,0,kitchen,SHINEd_sun_agorklincwxrdtga.tif,87,0.0666666666666667,0.0666666666666667,1.93333333333333,2531.248031375,2532.902248958,9,2531.314942708,2531.381253083,2532.92241625,2534.849135208,1,1.65421758299999
133,7,13,categorization,0,bathroom,SHINEd_sun_aofnryafpsjimzsb.tif,40,0.0666666666666667,0.0666666666666667,0.95,2534.867106208,2536.886780125,13,2534.933564791,2535.000990375,2536.902967666,2537.84630625,1,2.01967391699964
133,8,13,categorization,0,bathroom,SHINEd_sun_apjevzvycyhuqghb.tif,43,0.0666666666666667,0.0666666666666667,1.56666666666667,2537.8513995,2539.542923791,9,2537.913112333,2537.9743275,2539.560318791,2541.120352458,0,1.69152429099995
133,9,13,categorization,0,bathroom,SHINEd_sun_agrwbmhcpmfuwmsg.tif,24,0.0666666666666667,0.0666666666666667,1.3,2541.139106041,2542.319268,9,2541.205881458,2541.273170166,2542.345386666,2543.638761541,0,1.18016195900009
133,10,13,categorization,0,kitchen,SHINEd_sun_aypmqwcualkenuoe.tif,109,0.0666666666666667,0.0666666666666667,1.3,2543.655705083,2545.240842625,13,2543.72272425,2543.789707708,2545.265708166,2546.559083666,0,1.58513754199976
133,11,13,categorization,0,kitchen,SHINEd_sun_aeqdocilnnpuvuhx.tif,83,0.0666666666666667,0.0666666666666667,1.03333333333333,2546.573809833,2548.997958666,13,2546.6405565,2546.708130208,2549.010574666,2550.037272708,0,2.42414883300034
133,12,13,categorization,0,kitchen,SHINEd_sun_aadbddgrdsjugojn.tif,64,0.0666666666666667,0.0666666666666667,1.93333333333333,2550.04748,2550.919151791,9,2550.111584625,2550.180288708,2550.935997625,2552.8627155,1,0.871671790999699
133,13,13,categorization,0,bathroom,SHINEd_sun_alkosphxlxwjwgjd.tif,34,0.0666666666666667,0.0666666666666667,0.966666666666667,2552.880573375,2553.722902208,13,2552.94710475,2553.01435175,2553.754453208,2554.714458458,1,0.84232883300001
133,14,13,categorization,0,kitchen,SHINEd_sun_awcpdzzznmweyyhv.tif,106,0.0666666666666667,0.0666666666666667,0.916666666666667,2554.719350333,2555.57392275,13,2554.780975666,2554.84238175,2555.577590125,2556.487594083,0,0.854572416999872
133,15,13,categorization,0,bathroom,SHINEd_sun_axldvoqbuvuggfmq.tif,57,0.0666666666666667,0.0666666666666667,1.3,2556.49220575,2557.630783208,9,2556.553774333,2556.615160458,2557.650856,2558.944231875,0,1.13857745800033
133,16,13,categorization,0,bathroom,SHINEd_sun_aghyqhbptboemmoq.tif,23,0.0666666666666667,0.0666666666666667,0.75,2558.959223125,2559.999097916,13,2559.025715333,2559.092962916,2560.015464375,2560.758803083,1,1.03987479100033
133,17,13,categorization,0,bathroom,SHINEd_sun_anhioqovhscjqqwb.tif,38,0.0666666666666667,0.0666666666666667,1.03333333333333,2560.763607458,2561.454176333,9,2560.825500583,2560.887050666,2561.472237416,2562.498960416,0,0.690568874999826
133,18,13,categorization,0,kitchen,SHINEd_sun_auaiucuqpdausiva.tif,102,0.0666666666666667,0.0666666666666667,1.28333333333333,2562.506755333,2563.349955333,13,2562.571223333,2562.638476875,2563.378317291,2564.655019791,0,0.843199999999797
133,19,13,categorization,0,bathroom,SHINEd_sun_aclfzgynxzxlbepz.tif,19,0.0666666666666667,0.0666666666666667,1.25,2564.666702791,2565.586022166,9,2564.73359925,2564.800510875,2565.606730583,2566.850119208,0,0.919319375000214
133,20,13,categorization,0,bathroom,SHINEd_sun_asfwthctfqerjvxr.tif,49,0.0666666666666667,0.0666666666666667,1.75,2566.867097041,2567.7098205,13,2566.9337505,2567.0010815,2567.740419583,2569.483803916,1,0.842723459000354
133,21,13,categorization,0,bathroom,SHINEd_sun_atstyziqcmkahyxk.tif,51,0.0666666666666667,0.0666666666666667,1.76666666666667,2569.503387583,2570.773830125,9,2569.569873875,2569.63772625,2570.796334375,2572.556390375,0,1.27044254200018
133,22,13,categorization,0,bathroom,SHINEd_sun_acduarbnmmoglmiv.tif,16,0.0666666666666667,0.0666666666666667,0.733333333333333,2572.571917708,2574.765611541,9,2572.638644083,2572.705894625,2574.774682041,2575.501354041,0,2.193693833
133,23,13,categorization,0,kitchen,SHINEd_sun_ahywdevtimnqcsln.tif,94,0.0666666666666667,0.0666666666666667,1.43333333333333,2575.50597,2576.350553375,9,2575.567655666,2575.628937833,2576.363939083,2577.79065375,1,0.844583374999729
133,24,13,categorization,0,kitchen,SHINEd_sun_ajcbwwvdlsvjyzje.tif,96,0.0666666666666667,0.0666666666666667,1.81666666666667,2577.807430541,2578.497454166,13,2577.8739495,2577.941318458,2578.512516833,2580.322544625,0,0.690023624999867
133,25,13,categorization,0,bathroom,SHINEd_sun_aoybiabnpadelefl.tif,41,0.0666666666666667,0.0666666666666667,0.95,2580.335422416,2581.155006625,9,2580.401985625,2580.466981291,2581.173083708,2582.11642225,0,0.819584209000368
133,26,13,categorization,0,kitchen,SHINEd_sun_ahdycvpopffkzzsu.tif,90,0.0666666666666667,0.0666666666666667,0.783333333333333,2582.121302291,2583.4065665,9,2582.183011875,2582.244252,2583.413338333,2584.190010166,1,1.28526420899971
133,27,13,categorization,0,kitchen,SHINEd_sun_akcjzhbbjlbogpdi.tif,99,0.0666666666666667,0.0666666666666667,1.66666666666667,2584.194527083,2584.981988833,13,2584.256469708,2584.317541916,2584.9860715,2586.646109125,0,0.787461749999693
133,28,13,categorization,0,bathroom,SHINEd_sun_ausgutylgojavyoq.tif,53,0.0666666666666667,0.0666666666666667,1.18333333333333,2586.663033583,2587.311855833,13,2586.7293265,2586.797032458,2587.336937458,2588.513649083,1,0.648822250000194
133,29,13,categorization,0,kitchen,SHINEd_sun_aenotlpyftoioydp.tif,82,0.0666666666666667,0.0666666666666667,1.58333333333333,2588.523300791,2589.021338083,13,2588.588454541,2588.657496416,2589.047988375,2590.624695583,0,0.498037291999935
133,30,13,categorization,0,kitchen,SHINEd_sun_azmutvzbxypaceni.tif,110,0.0666666666666667,0.0666666666666667,1.1,2590.643002916,2591.646368333,9,2590.709716291,2590.777158666,2591.666602166,2592.759982791,1,1.00336541699971
133,31,13,categorization,0,bathroom,SHINEd_sun_ahcvzmoyaycdoftf.tif,27,0.0666666666666667,0.0666666666666667,1.78333333333333,2592.768720666,2593.624261041,9,2592.83339725,2592.902328583,2593.640522375,2595.417235916,0,0.855540375000146
133,32,13,categorization,0,kitchen,SHINEd_sun_aaxxjlsuzvqlgylf.tif,68,0.0666666666666667,0.0666666666666667,1.78333333333333,2595.436086,2596.119897,13,2595.503086583,2595.570339958,2596.144286833,2597.921006291,0,0.683810999999878
133,33,13,categorization,0,kitchen,SHINEd_sun_aegoxogugdkwpmpj.tif,80,0.0666666666666667,0.0666666666666667,1.08333333333333,2597.938608625,2598.676353041,9,2598.005323458,2598.073228708,2598.696807291,2599.773509041,1,0.737744415999714
133,34,13,categorization,0,bathroom,SHINEd_sun_acgyywnybuveqsro.tif,18,0.0666666666666667,0.0666666666666667,1.66666666666667,2599.782140875,2600.859390958,9,2599.846421125,2599.913864583,2600.88767075,2602.547720875,0,1.07725008299985
133,35,13,categorization,0,bathroom,SHINEd_sun_ahqjwnzgolcaoidx.tif,29,0.0666666666666667,0.0666666666666667,1.58333333333333,2602.557274833,2603.198154083,9,2602.625661,2602.69145475,2603.213409041,2604.790125333,0,0.640879250000125
133,36,13,categorization,0,bathroom,SHINEd_sun_aunuadmjocsddsrl.tif,52,0.0666666666666667,0.0666666666666667,1.26666666666667,2604.807980666,2605.530603583,9,2604.874978,2604.942368708,2605.548541708,2606.808595291,0,0.722622917000081
133,37,13,categorization,0,kitchen,SHINEd_sun_abpwyqmlzafvklqo.tif,72,0.0666666666666667,0.0666666666666667,0.966666666666667,2606.826742625,2607.382586583,9,2606.893675916,2606.960771416,2607.40074,2608.360793916,1,0.555843957999969
133,38,13,categorization,0,bathroom,SHINEd_sun_abapwbhyhkfixyex.tif,14,0.0666666666666667,0.0666666666666667,0.9,2608.371789333,2609.086020041,13,2608.436743166,2608.5045435,2609.0904235,2609.983761833,1,0.714230708000287
133,39,13,categorization,0,bathroom,SHINEd_sun_apkxzenqapsujocq.tif,45,0.0666666666666667,0.0666666666666667,1.46666666666667,2609.988645708,2610.605327625,9,2610.050379375,2610.111661416,2610.613425708,2612.073475291,0,0.616681916999823
133,40,13,categorization,0,bathroom,SHINEd_sun_ajlawzvmubibwbpy.tif,30,0.0666666666666667,0.0666666666666667,1.5,2612.0901665,2612.825457458,9,2612.156575708,2612.224371833,2612.84705525,2614.340436166,0,0.73529095799995
133,41,13,categorization,0,bathroom,SHINEd_sun_aggnnqpdorgxpvce.tif,21,0.0666666666666667,0.0666666666666667,0.716666666666667,2614.353285625,2615.089933958,9,2614.420163958,2614.481297333,2615.120789666,2615.830828333,0,0.736648333000176
133,42,13,categorization,0,bathroom,SHINEd_sun_ahaulkltgpkeeemi.tif,26,0.0666666666666667,0.0666666666666667,1.5,2615.846098041,2616.517947041,9,2615.908937916,2615.969369041,2616.537934083,2618.031316333,0,0.671848999999838
133,43,13,categorization,0,kitchen,SHINEd_sun_akchetnepxlcxhsu.tif,98,0.0666666666666667,0.0666666666666667,0.866666666666667,2618.044871041,2618.65008775,9,2618.111385666,2618.178484625,2618.667985833,2619.528037083,1,0.605216708999706
133,44,13,categorization,0,kitchen,SHINEd_sun_acxkpeoqbwcxfvip.tif,77,0.0666666666666667,0.0666666666666667,0.933333333333333,2619.543781666,2620.285336125,9,2619.610161041,2619.675601708,2620.2943155,2621.220987583,1,0.741554458999872
133,45,13,categorization,0,kitchen,SHINEd_sun_aexklacwqwezaorf.tif,84,0.0666666666666667,0.0666666666666667,1.55,2621.225607541,2622.093707958,9,2621.287220583,2621.348797875,2622.100916916,2623.644295791,1,0.868100416999823
133,46,13,categorization,0,bathroom,SHINEd_sun_avhrdrntsqrjzccq.tif,55,0.0666666666666667,0.0666666666666667,1.3,2623.661280583,2624.235348416,13,2623.727943833,2623.795421208,2624.251178791,2625.544547041,1,0.574067832999845
133,47,13,categorization,0,kitchen,SHINEd_sun_afuyedyxivkhecmu.tif,85,0.0666666666666667,0.0666666666666667,1.78333333333333,2625.561552,2626.326759833,9,2625.628315291,2625.695562666,2626.351176041,2628.127898291,1,0.765207832999749
133,48,13,categorization,0,bathroom,SHINEd_sun_akiytfaagpdsphgz.tif,31,0.0666666666666667,0.0666666666666667,1.8,2628.144524458,2629.127092333,13,2628.211167958,2628.27851225,2629.152034791,2630.945428791,1,0.982567874999859
133,49,13,categorization,0,bathroom,SHINEd_sun_afcoljnjfoxjtgja.tif,20,0.0666666666666667,0.0666666666666667,0.816666666666667,2630.96279675,2631.686679083,9,2631.029258833,2631.096740125,2631.702635958,2632.5126415,0,0.723882332999892
133,50,13,categorization,0,bathroom,SHINEd_sun_aavhrsfjbserjtht.tif,13,0.0666666666666667,0.0666666666666667,0.966666666666667,2632.517581708,2633.310354583,9,2632.579334041,2632.640537958,2633.326044708,2634.286050416,0,0.792772875000082
