sub_num,trial,block,task,is_practice,category,image,texture,duration,blank,mask_dur,jitter,stim_time,time_of_resp,trial_response,blank_time,mask_time,fix_time,jit_onset,trial_end,trial_accuracy,RT
103,1,0,categorization,1,bathroom,SHINEd_bathroom_practice1.tif,111,0.0333333333333333,0.0333333333333333,0.0833333333333333,1.11666666666667,436381.7447117,436384.2967957,74,436381.783753,436381.820028,436381.8998807,436384.3144298,436385.4295582,1,2.55208399996627
103,2,0,categorization,1,bathroom,SHINEd_bathroom_practice2.tif,112,0.0333333333333333,0.0333333333333333,0.0833333333333333,0.866666666666667,436385.4403833,436386.6817901,74,436385.4775825,436385.5122418,436385.6001036,436386.6894106,436387.5544141,1,1.24140679999255
103,3,0,categorization,1,bathroom,SHINEd_bathroom_practice3.tif,113,0.0333333333333333,0.0333333333333333,0.0833333333333333,1.68333333333333,436387.563323,436388.3369951,74,436387.6003627,436387.6374423,436387.7169429,436388.3438738,436390.0255459,1,0.77367210004013
103,4,0,categorization,1,bathroom,SHINEd_bathroom_practice4.tif,114,0.0333333333333333,0.0333333333333333,0.0833333333333333,1.45,436390.0314626,436404.8249568,74,436390.070922,436390.1026922,436390.1856035,436405.1494539,436406.5977931,1,14.7934941999847
103,5,0,categorization,1,bathroom,SHINEd_bathroom_practice5.tif,115,0.0333333333333333,0.0333333333333333,0.0833333333333333,1.1,436406.6038111,436407.3778332,74,436406.6403906,436406.675549,436406.7576253,436407.3846078,436408.4829471,1,0.774022099969443
103,6,0,categorization,1,kitchen,SHINEd_kitchen_practice1.tif,116,0.0333333333333333,0.0333333333333333,0.0833333333333333,1.28333333333333,436408.4892899,436410.626477,70,436408.529951,436408.5612813,436408.6430211,436410.6322726,436411.9139454,1,2.13718710001558
103,7,0,categorization,1,kitchen,SHINEd_kitchen_practice2.tif,117,0.0333333333333333,0.0333333333333333,0.0833333333333333,0.983333333333333,436411.9199301,436413.089532,70,436411.9570147,436411.9912883,436412.0735973,436413.0954935,436414.0771764,1,1.16960190003738
103,8,0,categorization,1,kitchen,SHINEd_kitchen_practice3.tif,118,0.0333333333333333,0.0333333333333333,0.0833333333333333,0.75,436414.08399,436416.0254079,70,436414.1211135,436414.1572892,436414.2379539,436416.0317202,436416.7800585,1,1.94141789997229
103,9,0,categorization,1,kitchen,SHINEd_kitchen_practice4.tif,119,0.0333333333333333,0.0333333333333333,0.0833333333333333,1.46666666666667,436416.7862312,436418.0018773,70,436416.8230653,436416.8613507,436416.9399677,436418.0073137,436419.4723221,1,1.21564609999768
103,10,0,categorization,1,kitchen,SHINEd_kitchen_practice5.tif,120,0.0333333333333333,0.0333333333333333,0.0833333333333333,1.73333333333333,436419.4784785,436421.6111076,70,436419.5155295,436419.5499965,436419.6323369,436421.6173827,436423.3490549,1,2.13262910000049
103,1,1,categorization,0,bathroom,SHINEd_sun_arzkwskvsrwimlwo.tif,48,0.0333333333333333,0.0333333333333333,0.0833333333333333,1.68333333333333,436440.4194037,436441.0574987,74,436440.4566491,436440.4910895,436440.5732587,436441.063193,436442.7448653,1,0.638095000002068
103,2,1,categorization,0,kitchen,SHINEd_sun_alalhpqajafvlnho.tif,96,0.0333333333333333,0.0333333333333333,0.0833333333333333,0.883333333333333,436442.750968,436444.0415394,70,436442.7883705,436442.8224638,436442.9045459,436444.0474236,436444.9290944,1,1.2905714000226
103,3,1,categorization,0,kitchen,SHINEd_sun_auticobqsbwgoppi.tif,104,0.0333333333333333,0.0333333333333333,0.0833333333333333,0.95,436444.9353645,436445.664957,74,436444.972417,436445.0065753,436445.0891754,436445.671173,436446.6195101,0,0.729592500021681
103,4,1,categorization,0,bathroom,SHINEd_sun_akbyysnpwewzraii.tif,32,0.0333333333333333,0.0333333333333333,0.0833333333333333,1.65,436446.6256459,436447.4819534,74,436446.6627428,436446.6985411,436446.7795043,436447.4873454,436449.1356822,1,0.856307499983814
103,5,1,categorization,0,kitchen,SHINEd_sun_abdxkyyxwfskuaqb.tif,68,0.0333333333333333,0.0333333333333333,0.0833333333333333,1.65,436449.1414442,436450.4031406,70,436449.178586,436449.2152957,436449.2953088,436450.4088792,436452.0572184,1,1.26169640000444
103,6,1,categorization,0,kitchen,SHINEd_sun_ahljzhgcdpomplvg.tif,89,0.0333333333333333,0.0333333333333333,0.0833333333333333,1.2,436452.0634891,436453.0737145,70,436452.1010894,436452.1360052,436452.2171631,436453.0795567,436454.2778942,1,1.01022539997939
103,7,1,categorization,0,kitchen,SHINEd_sun_aeqbewejiovwrhhc.tif,80,0.0333333333333333,0.0333333333333333,0.0833333333333333,0.85,436454.2843284,436455.3864564,70,436454.3210496,436454.3556439,436454.4380097,436455.3921496,436456.2404883,1,1.10212799999863
103,8,1,categorization,0,kitchen,SHINEd_sun_aggjlwcdjsjcaemh.tif,83,0.0333333333333333,0.0333333333333333,0.0833333333333333,0.9,436456.2468463,436458.2969634,70,436456.2838065,436456.3181879,436456.4006628,436458.3036734,436459.2020115,1,2.05011709994869
103,9,1,categorization,0,bathroom,SHINEd_sun_acsgbuurtwghzjel.tif,21,0.0333333333333333,0.0333333333333333,0.0833333333333333,0.966666666666667,436459.2095596,436459.8736586,74,436459.2465582,436459.281028,436459.3671595,436459.8794253,436460.8444313,1,0.664098999986891
103,10,1,categorization,0,bathroom,SHINEd_sun_axbqssteryzzlcop.tif,57,0.0333333333333333,0.0333333333333333,0.0833333333333333,0.783333333333333,436460.8508325,436461.5209193,74,436460.887727,436460.9222048,436461.0044733,436461.5272751,436462.3089481,1,0.670086800004356
103,11,1,categorization,0,kitchen,SHINEd_sun_acxkpeoqbwcxfvip.tif,74,0.0333333333333333,0.0333333333333333,0.0833333333333333,1.51666666666667,436462.3151748,436463.3209289,70,436462.3521319,436462.3867662,436462.4688514,436463.3277673,436464.8427736,1,1.00575409998419
103,12,1,categorization,0,bathroom,SHINEd_sun_arzkwskvsrwimlwo.tif,48,0.0333333333333333,0.0333333333333333,0.0833333333333333,1.5,436464.8489725,436467.6176257,74,436464.8859171,436464.9240115,436465.0029162,436467.6233841,436469.1217235,1,2.76865320000798
103,13,1,categorization,0,kitchen,SHINEd_sun_aglwoufpxbtxqecp.tif,84,0.0333333333333333,0.0333333333333333,0.0833333333333333,0.766666666666667,436469.1285609,436470.0489548,70,436469.1677006,436469.2006326,436469.282232,436470.0574702,436470.822474,1,0.92039390001446
103,14,1,categorization,0,bathroom,SHINEd_sun_aleqenyvunhactkl.tif,33,0.0333333333333333,0.0333333333333333,0.0833333333333333,1.01666666666667,436470.8291444,436471.9289084,70,436470.8675816,436470.900586,436470.9834134,436471.9352352,436472.9502403,0,1.09976399998413
103,15,1,categorization,0,kitchen,SHINEd_labelme_rykdqxenmhulbdn.tif,61,0.0333333333333333,0.0333333333333333,0.0833333333333333,0.95,436472.9581193,436473.9689101,70,436472.9951554,436473.0297084,436473.1118548,436473.9753519,436474.9236906,1,1.01079079997726
103,16,1,categorization,0,bathroom,SHINEd_sun_aghyqhbptboemmoq.tif,25,0.0333333333333333,0.0333333333333333,0.0833333333333333,0.733333333333333,436474.931128,436476.0329618,70,436474.968692,436475.0023836,436475.084801,436476.040165,436476.7718374,0,1.10183379997034
103,17,1,categorization,0,kitchen,SHINEd_sun_auticobqsbwgoppi.tif,104,0.0333333333333333,0.0333333333333333,0.0833333333333333,1.08333333333333,436476.7783936,436477.769571,70,436476.8171689,436476.8497618,436476.9332009,436477.7758113,436478.8574828,1,0.991177399992011
103,18,1,categorization,0,kitchen,SHINEd_sun_acwjdupvyjsugpay.tif,73,0.0333333333333333,0.0333333333333333,0.0833333333333333,1.16666666666667,436478.8639337,436479.9529678,70,436478.9011244,436478.9354012,436479.0184108,436479.959604,436481.1246076,1,1.08903410000494
103,19,1,categorization,0,kitchen,SHINEd_sun_aeqbewejiovwrhhc.tif,80,0.0333333333333333,0.0333333333333333,0.0833333333333333,1.03333333333333,436481.1305696,436482.0489391,70,436481.168124,436481.203581,436481.2842567,436482.0553313,436483.087004,1,0.91836950002471
103,20,1,categorization,0,kitchen,SHINEd_sun_agzzivivdpnawacl.tif,87,0.0333333333333333,0.0333333333333333,0.0833333333333333,1.23333333333333,436483.0938305,436484.248927,70,436483.1307598,436483.1651265,436483.2476881,436484.2571367,436485.4888075,1,1.15509650000604
103,21,1,categorization,0,bathroom,SHINEd_sun_anhioqovhscjqqwb.tif,39,0.0333333333333333,0.0333333333333333,0.0833333333333333,1.85,436485.4966579,436486.3945543,74,436485.5343697,436485.5692808,436485.650601,436486.4006488,436488.2489861,1,0.897896400012542
103,22,1,categorization,0,kitchen,SHINEd_sun_awbyfefkbcrlrqws.tif,106,0.0333333333333333,0.0333333333333333,0.0833333333333333,1.23333333333333,436488.2557521,436489.0025118,70,436488.2925383,436488.3272043,436488.4095707,436489.0083935,436490.2400658,1,0.746759699948598
103,23,1,categorization,0,bathroom,SHINEd_sun_abtukhmkjdzyfxhr.tif,18,0.0333333333333333,0.0333333333333333,0.0833333333333333,1.7,436490.2459462,436491.3210355,74,436490.2830544,436490.3172411,436490.3997185,436491.3281507,436493.0264895,1,1.07508929999312
103,24,1,categorization,0,kitchen,SHINEd_sun_ahywdevtimnqcsln.tif,92,0.0333333333333333,0.0333333333333333,0.0833333333333333,0.95,436493.0330468,436494.2658804,70,436493.0699695,436493.104324,436493.1868792,436494.2712841,436495.2196213,1,1.23283360002097
103,25,1,categorization,0,bathroom,SHINEd_sun_atstyziqcmkahyxk.tif,51,0.0333333333333333,0.0333333333333333,0.0833333333333333,1.9,436495.2257701,436496.3769138,74,436495.2633466,436495.2971581,436495.3795793,436496.3862629,436498.28461,1,1.15114370000083
103,26,1,categorization,0,kitchen,SHINEd_sun_avszsnwsbuqfgzbn.tif,105,0.0333333333333333,0.0333333333333333,0.0833333333333333,0.7,436498.2925481,436500.5369838,74,436498.3302295,436498.364256,436498.4507564,436500.5510006,436501.2493381,0,2.24443570000585
103,27,1,categorization,0,kitchen,SHINEd_sun_amjjdeyrggfqgmom.tif,99,0.0333333333333333,0.0333333333333333,0.0833333333333333,1.48333333333333,436501.2554584,436502.0809303,70,436501.2948723,436501.3269463,436501.4093844,436502.0903361,436503.5720082,1,0.825471899996046
103,28,1,categorization,0,kitchen,SHINEd_sun_aadbddgrdsjugojn.tif,62,0.0333333333333333,0.0333333333333333,0.0833333333333333,0.816666666666667,436503.5792582,436504.6923344,70,436503.6164481,436503.6513186,436503.7377475,436504.6978899,436505.5128944,1,1.11307620001025
103,29,1,categorization,0,bathroom,SHINEd_sun_asfwthctfqerjvxr.tif,49,0.0333333333333333,0.0333333333333333,0.0833333333333333,0.85,436505.5190431,436506.2968943,70,436505.5568571,436505.5904342,436505.6727083,436506.3035651,436507.1519047,0,0.777851199964061
103,30,1,categorization,0,bathroom,SHINEd_sun_adwvsndpdsgzeste.tif,23,0.0333333333333333,0.0333333333333333,0.0833333333333333,1.06666666666667,436507.1579705,436507.9208892,74,436507.1949953,436507.2292943,436507.3116791,436507.9312405,436508.996247,1,0.762918699998409
103,31,1,categorization,0,bathroom,SHINEd_sun_apkxzenqapsujocq.tif,45,0.0333333333333333,0.0333333333333333,0.0833333333333333,1.31666666666667,436509.0056229,436510.9221037,74,436509.0428151,436509.0772012,436509.1597472,436510.9278917,436512.2428971,1,1.91648080002051
103,32,1,categorization,0,bathroom,SHINEd_sun_axyrejkiiaqiurjk.tif,59,0.0333333333333333,0.0333333333333333,0.0833333333333333,1.08333333333333,436512.2488947,436513.1293279,74,436512.2858749,436512.320217,436512.4025414,436513.1349409,436514.2166132,1,0.880433199985418
103,33,1,categorization,0,bathroom,SHINEd_sun_aljolscmmzydegqp.tif,34,0.0333333333333333,0.0333333333333333,0.0833333333333333,1.01666666666667,436514.2226123,436515.4495154,74,436514.2597993,436514.2968554,436514.3763644,436515.4569979,436516.4720021,1,1.22690309997415
103,34,1,categorization,0,kitchen,SHINEd_sun_aeikbkmhphqzxdkv.tif,79,0.0333333333333333,0.0333333333333333,0.0833333333333333,1.21666666666667,436516.4781468,436518.4178928,74,436516.51527,436516.5500307,436516.6336514,436518.4236142,436519.6386199,0,1.9397459999891
103,35,1,categorization,0,bathroom,SHINEd_sun_aunuadmjocsddsrl.tif,52,0.0333333333333333,0.0333333333333333,0.0833333333333333,1.15,436519.6447346,436521.3689144,74,436519.6820593,436519.7162304,436519.8000749,436521.3756026,436522.5239413,1,1.72417980001774
103,36,1,categorization,0,kitchen,SHINEd_sun_acfmftudsenhrfhy.tif,72,0.0333333333333333,0.0333333333333333,0.0833333333333333,0.8,436522.5298913,436523.9368788,74,436522.5672315,436522.6016322,436522.6838795,436523.9430283,436524.7413671,0,1.40698749996955
103,37,1,categorization,0,kitchen,SHINEd_labelme_rykdqxenmhulbdn.tif,61,0.0333333333333333,0.0333333333333333,0.0833333333333333,1.41666666666667,436524.7469642,436526.2409175,70,436524.7870194,436524.8190079,436524.9006898,436526.2489279,436527.6639329,1,1.4939532999997
103,38,1,categorization,0,bathroom,SHINEd_labelme_xbsnnlvmskdknsb.tif,12,0.0333333333333333,0.0333333333333333,0.0833333333333333,1.55,436527.6703788,436529.0902509,74,436527.7088826,436527.7456046,436527.8244035,436529.0963163,436530.6446546,1,1.41987209999934
103,39,1,categorization,0,kitchen,SHINEd_labelme_rykdqxenmhulbdn.tif,61,0.0333333333333333,0.0333333333333333,0.0833333333333333,1.86666666666667,436530.6509219,436531.8026692,70,436530.6891751,436530.7223588,436530.8046675,436531.808651,436533.6736554,1,1.15174729999853
103,40,1,categorization,0,kitchen,SHINEd_labelme_rykdqxenmhulbdn.tif,61,0.0333333333333333,0.0333333333333333,0.0833333333333333,1.13333333333333,436533.680041,436534.8020343,70,436533.718685,436533.7514983,436533.8338768,436534.8100529,436535.9417252,1,1.12199329998111
103,41,1,categorization,0,bathroom,SHINEd_sun_azqyogdvyhahyram.tif,60,0.0333333333333333,0.0333333333333333,0.0833333333333333,1.01666666666667,436535.9483303,436537.4569694,70,436535.9857617,436536.0203342,436536.1024152,436537.4630039,436538.4780091,0,1.50863910000771
103,42,1,categorization,0,bathroom,SHINEd_sun_aunuadmjocsddsrl.tif,52,0.0333333333333333,0.0333333333333333,0.0833333333333333,0.766666666666667,436538.4852332,436539.7529307,70,436538.5229255,436538.5567436,436538.6389386,436539.7594234,436540.5244268,0,1.26769750000676
103,43,1,categorization,0,bathroom,SHINEd_labelme_sfxiulhjbhlyiyt.tif,11,0.0333333333333333,0.0333333333333333,0.0833333333333333,0.9,436540.5302906,436541.4088449,70,436540.5672389,436540.6016266,436540.6842086,436541.4150821,436542.3134211,0,0.878554299997631
103,44,1,categorization,0,bathroom,SHINEd_sun_abtukhmkjdzyfxhr.tif,18,0.0333333333333333,0.0333333333333333,0.0833333333333333,1.76666666666667,436542.3193973,436543.4182543,74,436542.3593617,436542.3909111,436542.4734688,436543.4255781,436545.1905838,1,1.0988570000045
103,45,1,categorization,0,kitchen,SHINEd_sun_ahljzhgcdpomplvg.tif,89,0.0333333333333333,0.0333333333333333,0.0833333333333333,1.28333333333333,436545.1974248,436546.5447786,70,436545.2358255,436545.2691913,436545.3518882,436546.551074,436547.8327456,1,1.3473537999671
103,46,1,categorization,0,kitchen,SHINEd_sun_aiffeoqzngslhzfi.tif,93,0.0333333333333333,0.0333333333333333,0.0833333333333333,0.8,436547.8388495,436548.705531,70,436547.8758495,436547.9104059,436547.9926653,436548.7110526,436549.5093909,1,0.866681499988772
103,47,1,categorization,0,bathroom,SHINEd_sun_awnqiikzaispgmwo.tif,56,0.0333333333333333,0.0333333333333333,0.0833333333333333,1.81666666666667,436549.5154395,436550.5381576,74,436549.5525226,436549.5869535,436549.6730452,436550.5463187,436552.3613233,1,1.02271809999365
103,48,1,categorization,0,kitchen,SHINEd_sun_agfmsmojwptjoava.tif,82,0.0333333333333333,0.0333333333333333,0.0833333333333333,1.23333333333333,436552.3688387,436553.4408853,70,436552.4060073,436552.4403037,436552.5250481,436553.4474293,436554.6790999,1,1.07204659999115
103,49,1,categorization,0,bathroom,SHINEd_sun_adwvsndpdsgzeste.tif,23,0.0333333333333333,0.0333333333333333,0.0833333333333333,1.76666666666667,436554.6855796,436555.4672721,74,436554.7232449,436554.757141,436554.8396288,436555.4737694,436557.2387731,1,0.781692499993369
103,50,1,categorization,0,kitchen,SHINEd_sun_abdxkyyxwfskuaqb.tif,68,0.0333333333333333,0.0333333333333333,0.0833333333333333,0.9,436557.244807,436558.6969098,70,436557.2820701,436557.3179274,436557.3987108,436558.7034634,436559.6018024,1,1.45210280001629
103,1,2,categorization,0,bathroom,SHINEd_sun_ahcvzmoyaycdoftf.tif,28,0.0333333333333333,0.0333333333333333,0.0833333333333333,0.816666666666667,436618.3299346,436619.5856457,70,436618.3671259,436618.4015008,436618.4850589,436619.591615,436620.4066205,0,1.25571110000601
103,2,2,categorization,0,kitchen,SHINEd_sun_aglwoufpxbtxqecp.tif,84,0.0333333333333333,0.0333333333333333,0.0833333333333333,0.9,436620.4129596,436621.2331909,70,436620.4498968,436620.488809,436620.5667837,436621.2389307,436622.1372698,1,0.820231300021987
103,3,2,categorization,0,kitchen,SHINEd_sun_abpwyqmlzafvklqo.tif,69,0.0333333333333333,0.0333333333333333,0.0833333333333333,1.46666666666667,436622.1436973,436623.0333225,70,436622.1806737,436622.2151048,436622.2974691,436623.0391694,436624.504185,1,0.889625200012233
103,4,2,categorization,0,bathroom,SHINEd_sun_apeeialkgkuxddgh.tif,44,0.0333333333333333,0.0333333333333333,0.0833333333333333,0.716666666666667,436624.5109653,436625.5933361,74,436624.5524836,436624.5849994,436624.6648085,436625.5988363,436626.3138419,1,1.08237079996616
103,5,2,categorization,0,kitchen,SHINEd_sun_amjjdeyrggfqgmom.tif,99,0.0333333333333333,0.0333333333333333,0.0833333333333333,0.75,436626.3203775,436627.696873,74,436626.359073,436626.3924658,436626.4740836,436627.7037786,436628.4521175,0,1.37649550003698
103,6,2,categorization,0,kitchen,SHINEd_sun_auticobqsbwgoppi.tif,104,0.0333333333333333,0.0333333333333333,0.0833333333333333,1.6,436628.4590172,436629.361331,70,436628.4960984,436628.5303879,436628.6151575,436629.366957,436630.9652947,1,0.902313800004777
103,7,2,categorization,0,kitchen,SHINEd_sun_abdxkyyxwfskuaqb.tif,68,0.0333333333333333,0.0333333333333333,0.0833333333333333,1.35,436630.9714175,436632.2023284,70,436631.0119057,436631.0444408,436631.1251939,436632.2079418,436633.5562788,1,1.2309108999907
103,8,2,categorization,0,kitchen,SHINEd_sun_abrcnpqqhmjwekyf.tif,70,0.0333333333333333,0.0333333333333333,0.0833333333333333,0.733333333333333,436633.5625188,436634.3688334,70,436633.6011602,436633.6337214,436633.7186047,436634.3755601,436635.1072301,1,0.80631459999131
103,9,2,categorization,0,kitchen,SHINEd_sun_aeqbewejiovwrhhc.tif,80,0.0333333333333333,0.0333333333333333,0.0833333333333333,0.916666666666667,436635.1139062,436636.1856495,70,436635.1510661,436635.1853397,436635.2717914,436636.1914726,436637.1064763,1,1.07174330000998
103,10,2,categorization,0,bathroom,SHINEd_sun_apeeialkgkuxddgh.tif,44,0.0333333333333333,0.0333333333333333,0.0833333333333333,1.61666666666667,436637.1125983,436637.9207793,74,436637.1504358,436637.1841466,436637.2663272,436637.9266875,436639.5416919,1,0.808181000000332
103,11,2,categorization,0,bathroom,SHINEd_sun_aamrfepkhweyewue.tif,13,0.0333333333333333,0.0333333333333333,0.0833333333333333,1.25,436639.5480057,436641.1464029,74,436639.5852663,436639.6231671,436639.7024717,436641.1521476,436642.4004866,1,1.59839719999582
103,12,2,categorization,0,kitchen,SHINEd_sun_agfmsmojwptjoava.tif,82,0.0333333333333333,0.0333333333333333,0.0833333333333333,1.81666666666667,436642.4084929,436643.1054508,70,436642.4455312,436642.4798573,436642.563393,436643.1109596,436644.9259639,1,0.696957899956033
103,13,2,categorization,0,bathroom,SHINEd_sun_aghyqhbptboemmoq.tif,25,0.0333333333333333,0.0333333333333333,0.0833333333333333,0.716666666666667,436644.9318204,436646.2976739,74,436644.9689083,436645.0032328,436645.0854232,436646.3035248,436647.0185311,1,1.3658534999704
103,14,2,categorization,0,kitchen,SHINEd_sun_ahdycvpopffkzzsu.tif,88,0.0333333333333333,0.0333333333333333,0.0833333333333333,0.783333333333333,436647.024729,436647.9283028,70,436647.0617048,436647.09625,436647.1784201,436647.938276,436648.7199463,1,0.903573799994774
103,15,2,categorization,0,bathroom,SHINEd_sun_anhioqovhscjqqwb.tif,39,0.0333333333333333,0.0333333333333333,0.0833333333333333,1.43333333333333,436648.7261932,436649.8090794,74,436648.7633461,436648.7978271,436648.8802349,436649.815025,436651.2466962,1,1.08288619999075
103,16,2,categorization,0,bathroom,SHINEd_sun_alkosphxlxwjwgjd.tif,35,0.0333333333333333,0.0333333333333333,0.0833333333333333,1.8,436651.2529332,436652.2696715,74,436651.2900321,436651.324271,436651.4065865,436652.2752489,436654.0735866,1,1.0167383000371
103,17,2,categorization,0,kitchen,SHINEd_sun_agfmsmojwptjoava.tif,82,0.0333333333333333,0.0333333333333333,0.0833333333333333,1.08333333333333,436654.0798139,436654.8879658,70,436654.1170231,436654.151351,436654.2337265,436654.8978861,436655.9796312,1,0.80815190001158
103,18,2,categorization,0,bathroom,SHINEd_sun_amzlamotzwfkwjco.tif,38,0.0333333333333333,0.0333333333333333,0.0833333333333333,0.75,436655.9858969,436657.1298566,70,436656.022823,436656.060212,436656.1414138,436657.1356627,436657.8840113,0,1.14395970001351
103,19,2,categorization,0,kitchen,SHINEd_sun_abrcnpqqhmjwekyf.tif,70,0.0333333333333333,0.0333333333333333,0.0833333333333333,1.23333333333333,436657.8919695,436658.7208179,70,436657.9295095,436657.963465,436658.0492778,436658.7272981,436659.9589691,1,0.828848399978597
103,20,2,categorization,0,kitchen,SHINEd_sun_axyyrmzcupyhlivc.tif,109,0.0333333333333333,0.0333333333333333,0.0833333333333333,1.76666666666667,436659.9650485,436660.673713,70,436660.0026122,436660.0365978,436660.1189744,436660.6794775,436662.4444813,1,0.70866450003814
103,21,2,categorization,0,kitchen,SHINEd_sun_agorklincwxrdtga.tif,85,0.0333333333333333,0.0333333333333333,0.0833333333333333,1.35,436662.4505752,436664.3145268,70,436662.4875019,436662.5217594,436662.6067074,436664.3216986,436665.6700382,1,1.8639515999821
103,22,2,categorization,0,kitchen,SHINEd_sun_alazdvaixpjtegwg.tif,97,0.0333333333333333,0.0333333333333333,0.0833333333333333,1.05,436665.6762705,436666.3187828,70,436665.7133977,436665.7478513,436665.8301952,436666.3245425,436667.3728806,1,0.642512299993541
103,23,2,categorization,0,bathroom,SHINEd_sun_aleqenyvunhactkl.tif,33,0.0333333333333333,0.0333333333333333,0.0833333333333333,1.55,436667.3790362,436668.9688343,70,436667.416162,436667.4505276,436667.5329937,436668.9754866,436670.5238241,0,1.58979810000164
103,24,2,categorization,0,bathroom,SHINEd_sun_aleqenyvunhactkl.tif,33,0.0333333333333333,0.0333333333333333,0.0833333333333333,0.9,436670.5298502,436671.2488524,74,436670.5676672,436670.6015786,436670.6839792,436671.256228,436672.1545654,1,0.719002199999522
103,25,2,categorization,0,kitchen,SHINEd_sun_aglwoufpxbtxqecp.tif,84,0.0333333333333333,0.0333333333333333,0.0833333333333333,0.8,436672.1613056,436672.8888139,70,436672.1981611,436672.2351593,436672.3151731,436672.8953661,436673.6937053,1,0.727508299984038
103,26,2,categorization,0,kitchen,SHINEd_sun_agzzivivdpnawacl.tif,87,0.0333333333333333,0.0333333333333333,0.0833333333333333,1.71666666666667,436673.6999529,436674.616833,70,436673.7369671,436673.7769567,436673.8537729,436674.623724,436676.3387286,1,0.91688009997597
103,27,2,categorization,0,bathroom,SHINEd_sun_aunuadmjocsddsrl.tif,52,0.0333333333333333,0.0333333333333333,0.0833333333333333,1.76666666666667,436676.3448462,436677.2017204,70,436676.3817031,436676.4163128,436676.4986648,436677.2074074,436678.9724143,0,0.85687419999158
103,28,2,categorization,0,bathroom,SHINEd_sun_aqrpegblszgcoujh.tif,47,0.0333333333333333,0.0333333333333333,0.0833333333333333,0.933333333333333,436678.9794756,436679.9528658,70,436679.0193448,436679.0520607,436679.1339679,436679.9590547,436680.8907253,0,0.973390200000722
103,29,2,categorization,0,bathroom,SHINEd_sun_aspsyogrekjtfozg.tif,50,0.0333333333333333,0.0333333333333333,0.0833333333333333,1.95,436680.8969906,436681.8087912,74,436680.9341084,436680.9686116,436681.0506764,436681.8147785,436683.7631176,1,0.911800600006245
103,30,2,categorization,0,bathroom,SHINEd_sun_aamrfepkhweyewue.tif,13,0.0333333333333333,0.0333333333333333,0.0833333333333333,1.3,436683.7692577,436684.7447863,70,436683.8071147,436683.8408294,436683.9230349,436684.75105,436686.0493993,0,0.97552859998541
103,31,2,categorization,0,bathroom,SHINEd_sun_avhrdrntsqrjzccq.tif,55,0.0333333333333333,0.0333333333333333,0.0833333333333333,0.883333333333333,436686.0561836,436687.0737477,74,436686.0933522,436686.1274801,436686.2098618,436687.07941,436687.9610824,1,1.01756410003873
103,32,2,categorization,0,kitchen,SHINEd_sun_abdenxonkemggwsq.tif,67,0.0333333333333333,0.0333333333333333,0.0833333333333333,0.9,436687.9668846,436689.1287754,70,436688.0063313,436688.0393449,436688.120632,436689.1351069,436690.0334459,1,1.16189079999458
103,33,2,categorization,0,kitchen,SHINEd_sun_aadbddgrdsjugojn.tif,62,0.0333333333333333,0.0333333333333333,0.0833333333333333,0.716666666666667,436690.0397338,436691.3927914,70,436690.0767203,436690.1108534,436690.1935092,436691.3999186,436692.1150002,1,1.35305760003394
103,34,2,categorization,0,bathroom,SHINEd_sun_arzkwskvsrwimlwo.tif,48,0.0333333333333333,0.0333333333333333,0.0833333333333333,1.1,436692.1213404,436693.497674,70,436692.1585557,436692.1928599,436692.2750613,436693.5036096,436694.6019478,0,1.37633359996835
103,35,2,categorization,0,kitchen,SHINEd_sun_anbcmfjhobvmedkq.tif,100,0.0333333333333333,0.0333333333333333,0.0833333333333333,0.733333333333333,436694.6089017,436695.2659497,70,436694.647651,436694.6802557,436694.7629772,436695.2715659,436696.0032359,1,0.657048000022769
103,36,2,categorization,0,kitchen,SHINEd_sun_abdenxonkemggwsq.tif,67,0.0333333333333333,0.0333333333333333,0.0833333333333333,1.51666666666667,436696.0091132,436699.0727542,74,436696.0477668,436696.0805677,436696.1649564,436699.0790639,436700.5940682,0,3.0636410000152
103,37,2,categorization,0,bathroom,SHINEd_sun_ambriybtogmepttm.tif,36,0.0333333333333333,0.0333333333333333,0.0833333333333333,1.05,436700.6008635,436701.4096161,74,436700.6381197,436700.6722271,436700.7552485,436701.415725,436702.4640634,1,0.808752600045409
103,38,2,categorization,0,kitchen,SHINEd_sun_axyyrmzcupyhlivc.tif,109,0.0333333333333333,0.0333333333333333,0.0833333333333333,1,436702.4712694,436703.4247904,74,436702.5081671,436702.5428419,436702.6250644,436703.4314858,436704.429825,0,0.953521000046749
103,39,2,categorization,0,kitchen,SHINEd_sun_aapllqyqlykszopd.tif,65,0.0333333333333333,0.0333333333333333,0.0833333333333333,1.75,436704.4358455,436706.3368478,70,436704.4729742,436704.5073807,436704.5908417,436706.3430624,436708.0914017,1,1.90100230003009
103,40,2,categorization,0,bathroom,SHINEd_sun_apkxzenqapsujocq.tif,45,0.0333333333333333,0.0333333333333333,0.0833333333333333,0.716666666666667,436708.0980534,436709.1288422,70,436708.1356387,436708.1693068,436708.2528047,436709.1357796,436709.8507857,0,1.03078879998066
103,41,2,categorization,0,bathroom,SHINEd_sun_ajlpekbqvytdohqb.tif,31,0.0333333333333333,0.0333333333333333,0.0833333333333333,0.766666666666667,436709.8567747,436711.696715,74,436709.8937018,436709.9289743,436710.0107033,436711.703754,436712.4687586,1,1.83994030003669
103,42,2,categorization,0,kitchen,SHINEd_sun_aypmqwcualkenuoe.tif,110,0.0333333333333333,0.0333333333333333,0.0833333333333333,1.36666666666667,436712.4749883,436713.8808368,74,436712.5121825,436712.5465202,436712.6288743,436713.8872669,436715.2522703,0,1.40584849996958
103,43,2,categorization,0,bathroom,SHINEd_sun_abtukhmkjdzyfxhr.tif,18,0.0333333333333333,0.0333333333333333,0.0833333333333333,1.01666666666667,436715.2581793,436715.9937222,74,436715.2953344,436715.3297206,436715.4132096,436715.9994559,436717.0144618,1,0.735542899987195
103,44,2,categorization,0,bathroom,SHINEd_sun_anlddfvefwvocyae.tif,40,0.0333333333333333,0.0333333333333333,0.0833333333333333,1.05,436717.020465,436717.8574553,74,436717.0577762,436717.0943347,436717.1741206,436717.8631409,436718.9114843,1,0.836990299983881
103,45,2,categorization,0,bathroom,SHINEd_sun_aapitsgbtktqubfy.tif,14,0.0333333333333333,0.0333333333333333,0.0833333333333333,1.5,436718.9181177,436719.7615073,74,436718.9552887,436718.9896701,436719.0719457,436719.7671457,436721.2654842,1,0.843389599991497
103,46,2,categorization,0,kitchen,SHINEd_sun_abpwyqmlzafvklqo.tif,69,0.0333333333333333,0.0333333333333333,0.0833333333333333,1.35,436721.271642,436722.0088902,74,436721.3091957,436721.343073,436721.4251852,436722.0155204,436723.363871,0,0.737248199991882
103,47,2,categorization,0,kitchen,SHINEd_sun_aglwoufpxbtxqecp.tif,84,0.0333333333333333,0.0333333333333333,0.0833333333333333,0.733333333333333,436723.3703656,436724.3288381,70,436723.4075012,436723.4416359,436723.5245915,436724.3350973,436725.0667695,1,0.958472500031348
103,48,2,categorization,0,kitchen,SHINEd_sun_awcpdzzznmweyyhv.tif,107,0.0333333333333333,0.0333333333333333,0.0833333333333333,0.783333333333333,436725.0730813,436726.336764,74,436725.1109863,436725.1446792,436725.2270715,436726.3430729,436727.1247445,0,1.26368269999512
103,49,2,categorization,0,bathroom,SHINEd_sun_agyqfjcfkdcydepw.tif,27,0.0333333333333333,0.0333333333333333,0.0833333333333333,1.45,436727.1307514,436727.9695402,74,436727.1677081,436727.2023264,436727.2844298,436727.9751221,436729.423461,1,0.838788799999747
103,50,2,categorization,0,bathroom,SHINEd_sun_axyrejkiiaqiurjk.tif,59,0.0333333333333333,0.0333333333333333,0.0833333333333333,0.766666666666667,436729.4316646,436730.3447949,74,436729.4687064,436729.5030466,436729.5863277,436730.3511739,436731.1161784,1,0.913130300003104
103,1,3,categorization,0,kitchen,SHINEd_sun_aexklacwqwezaorf.tif,81,0.0333333333333333,0.0333333333333333,0.0833333333333333,0.833333333333333,436738.2311215,436739.2415455,70,436738.2690105,436738.3030058,436738.3866405,436739.2472332,436740.0789042,1,1.01042399997823
103,2,3,categorization,0,kitchen,SHINEd_sun_acwjdupvyjsugpay.tif,73,0.0333333333333333,0.0333333333333333,0.0833333333333333,0.933333333333333,436740.0863333,436740.7448456,70,436740.1234097,436740.1575939,436740.2435331,436740.7512683,436741.6829404,1,0.658512299996801
103,3,3,categorization,0,kitchen,SHINEd_sun_abdenxonkemggwsq.tif,67,0.0333333333333333,0.0333333333333333,0.0833333333333333,1.58333333333333,436741.6891932,436742.4000738,70,436741.7278782,436741.7606092,436741.8429107,436742.4079701,436743.9896413,1,0.710880599974189
103,4,3,categorization,0,kitchen,SHINEd_sun_agubuxuukhzyzpdp.tif,86,0.0333333333333333,0.0333333333333333,0.0833333333333333,0.966666666666667,436743.9958126,436744.969897,70,436744.0331186,436744.0672855,436744.1495403,436744.9753117,436745.9403151,1,0.974084399989806
103,5,3,categorization,0,bathroom,SHINEd_sun_avhrdrntsqrjzccq.tif,55,0.0333333333333333,0.0333333333333333,0.0833333333333333,1.01666666666667,436745.9460929,436746.7058869,70,436745.9847175,436746.0175743,436746.0996862,436746.7115534,436747.7265579,0,0.759794000012334
103,6,3,categorization,0,kitchen,SHINEd_sun_aexklacwqwezaorf.tif,81,0.0333333333333333,0.0333333333333333,0.0833333333333333,0.966666666666667,436747.7340753,436748.784757,70,436747.7711827,436747.8054725,436747.8877058,436748.7914576,436749.7564614,1,1.05068169999868
103,7,3,categorization,0,bathroom,SHINEd_sun_akbyysnpwewzraii.tif,32,0.0333333333333333,0.0333333333333333,0.0833333333333333,1.21666666666667,436749.762623,436750.5687467,74,436749.8000994,436749.8344986,436749.9161568,436750.5749042,436751.7899103,1,0.806123699992895
103,8,3,categorization,0,kitchen,SHINEd_sun_acxkpeoqbwcxfvip.tif,74,0.0333333333333333,0.0333333333333333,0.0833333333333333,1.25,436751.7965994,436754.3527647,70,436751.8342591,436751.8687491,436751.9503488,436754.3591283,436755.6074651,1,2.55616530001862
103,9,3,categorization,0,bathroom,SHINEd_sun_alkosphxlxwjwgjd.tif,35,0.0333333333333333,0.0333333333333333,0.0833333333333333,0.9,436755.6139438,436756.6487269,74,436755.6514926,436755.6853837,436755.7679816,436756.6545653,436757.5529046,1,1.03478310001083
103,10,3,categorization,0,bathroom,SHINEd_sun_anhioqovhscjqqwb.tif,39,0.0333333333333333,0.0333333333333333,0.0833333333333333,0.866666666666667,436757.5595524,436758.4727569,74,436757.5984548,436757.6310415,436757.7133096,436758.479027,436759.3440319,1,0.913204499986023
103,11,3,categorization,0,kitchen,SHINEd_sun_agubuxuukhzyzpdp.tif,86,0.0333333333333333,0.0333333333333333,0.0833333333333333,1.63333333333333,436759.3518483,436760.5858764,70,436759.3888598,436759.4234232,436759.5088329,436760.591761,436762.2234312,1,1.23402809997788
103,12,3,categorization,0,kitchen,SHINEd_sun_acfmftudsenhrfhy.tif,72,0.0333333333333333,0.0333333333333333,0.0833333333333333,0.95,436762.2298347,436763.0202756,70,436762.2665979,436762.3036091,436762.3841369,436763.0258611,436763.9742001,1,0.790440900018439
103,13,3,categorization,0,kitchen,SHINEd_sun_aglwoufpxbtxqecp.tif,84,0.0333333333333333,0.0333333333333333,0.0833333333333333,0.833333333333333,436763.9827859,436764.9615332,70,436764.0203788,436764.0540605,436764.1381823,436764.9672208,436765.7988935,1,0.978747299988754
103,14,3,categorization,0,kitchen,SHINEd_sun_awbyfefkbcrlrqws.tif,106,0.0333333333333333,0.0333333333333333,0.0833333333333333,0.75,436765.8049819,436766.6531467,70,436765.8447573,436765.8765792,436765.9587555,436766.658817,436767.4071547,1,0.848164800030645
103,15,3,categorization,0,kitchen,SHINEd_sun_adgqasybjyktddhj.tif,75,0.0333333333333333,0.0333333333333333,0.0833333333333333,1.8,436767.4132288,436768.2567962,70,436767.4502902,436767.4845038,436767.5672861,436768.2629432,436770.0612813,1,0.843567400006577
103,16,3,categorization,0,kitchen,SHINEd_sun_aaxxjlsuzvqlgylf.tif,66,0.0333333333333333,0.0333333333333333,0.0833333333333333,1.43333333333333,436770.067462,436770.9395843,70,436770.1044631,436770.1389202,436770.2229722,436770.9451521,436772.3768235,1,0.872122299973853
103,17,3,categorization,0,kitchen,SHINEd_sun_aggjlwcdjsjcaemh.tif,83,0.0333333333333333,0.0333333333333333,0.0833333333333333,0.733333333333333,436772.3832438,436773.2807601,70,436772.4203347,436772.4555574,436772.5369142,436773.2880259,436774.0196974,1,0.897516299970448
103,18,3,categorization,0,kitchen,SHINEd_sun_ahpczsiumwwocjkv.tif,90,0.0333333333333333,0.0333333333333333,0.0833333333333333,1.36666666666667,436774.0256658,436774.8568236,70,436774.0628764,436774.0985984,436774.179512,436774.863287,436776.228291,1,0.831157799984794
103,19,3,categorization,0,bathroom,SHINEd_sun_avhrdrntsqrjzccq.tif,55,0.0333333333333333,0.0333333333333333,0.0833333333333333,1.53333333333333,436776.2354062,436777.1447745,70,436776.2723533,436776.3067939,436776.3890702,436777.1507643,436778.682436,0,0.909368299995549
103,20,3,categorization,0,bathroom,SHINEd_sun_aiskgiwswewisvph.tif,30,0.0333333333333333,0.0333333333333333,0.0833333333333333,1.18333333333333,436778.6889477,436780.2733281,70,436778.7259758,436778.7643587,436778.8427867,436780.279471,436781.4611424,0,1.58438039995963
103,21,3,categorization,0,bathroom,SHINEd_sun_avhrdrntsqrjzccq.tif,55,0.0333333333333333,0.0333333333333333,0.0833333333333333,1.81666666666667,436781.4672674,436782.5287669,70,436781.5042774,436781.5386767,436781.6213381,436782.5368139,436784.3518189,0,1.0614995000069
103,22,3,categorization,0,kitchen,SHINEd_sun_awcpdzzznmweyyhv.tif,107,0.0333333333333333,0.0333333333333333,0.0833333333333333,1.16666666666667,436784.358661,436785.9214864,70,436784.3973896,436784.4298791,436784.5124717,436785.9269447,436787.0919481,1,1.56282540003303
103,23,3,categorization,0,bathroom,SHINEd_sun_apynckhmoftszqoq.tif,46,0.0333333333333333,0.0333333333333333,0.0833333333333333,1.08333333333333,436787.099126,436787.9542582,74,436787.1361736,436787.1705265,436787.2530564,436787.9599325,436789.0416034,1,0.855132199998479
103,24,3,categorization,0,bathroom,SHINEd_sun_aunuadmjocsddsrl.tif,52,0.0333333333333333,0.0333333333333333,0.0833333333333333,1.11666666666667,436789.0475385,436789.7193805,74,436789.0845905,436789.1189229,436789.201124,436789.7317709,436790.8467757,1,0.67184200003976
103,25,3,categorization,0,kitchen,SHINEd_sun_ahdycvpopffkzzsu.tif,88,0.0333333333333333,0.0333333333333333,0.0833333333333333,1.46666666666667,436790.8525995,436791.6967578,70,436790.8902614,436790.9251832,436791.0084151,436791.7035403,436793.1685451,1,0.844158300023992
103,26,3,categorization,0,kitchen,SHINEd_sun_aqeaevwwwjoqhzvl.tif,101,0.0333333333333333,0.0333333333333333,0.0833333333333333,0.85,436793.174544,436794.1447516,70,436793.2143583,436793.2458756,436793.3284447,436794.150967,436794.9993066,1,0.970207599981222
103,27,3,categorization,0,bathroom,SHINEd_sun_asfwthctfqerjvxr.tif,49,0.0333333333333333,0.0333333333333333,0.0833333333333333,0.716666666666667,436795.0054575,436796.1767861,70,436795.0425716,436795.0766655,436795.1594924,436796.1847617,436796.8998663,0,1.17132860003039
103,28,3,categorization,0,bathroom,SHINEd_sun_aavhrsfjbserjtht.tif,15,0.0333333333333333,0.0333333333333333,0.0833333333333333,0.766666666666667,436796.9063472,436797.7107393,70,436796.9433567,436796.9776202,436797.0598827,436797.7207445,436798.4857483,0,0.804392100020777
103,29,3,categorization,0,kitchen,SHINEd_sun_aapllqyqlykszopd.tif,65,0.0333333333333333,0.0333333333333333,0.0833333333333333,0.866666666666667,436798.4919657,436800.1208281,70,436798.5291699,436798.563666,436798.6468929,436800.1275722,436800.9925767,1,1.62886240001535
103,30,3,categorization,0,bathroom,SHINEd_sun_akbyysnpwewzraii.tif,32,0.0333333333333333,0.0333333333333333,0.0833333333333333,1.76666666666667,436800.9995331,436801.6657388,74,436801.0370258,436801.0714342,436801.153202,436801.6720316,436803.4370356,1,0.666205700021237
103,31,3,categorization,0,bathroom,SHINEd_sun_atstyziqcmkahyxk.tif,51,0.0333333333333333,0.0333333333333333,0.0833333333333333,1.08333333333333,436803.4432186,436804.1848135,74,436803.4805114,436803.5145845,436803.5967794,436804.1968759,436805.2785479,1,0.741594899969641
103,32,3,categorization,0,bathroom,SHINEd_sun_agrwbmhcpmfuwmsg.tif,26,0.0333333333333333,0.0333333333333333,0.0833333333333333,1.11666666666667,436805.2846204,436806.0656018,74,436805.321813,436805.356105,436805.4399019,436806.071854,436807.1868601,1,0.780981399992015
103,33,3,categorization,0,kitchen,SHINEd_sun_admlmbcdswaszruo.tif,76,0.0333333333333333,0.0333333333333333,0.0833333333333333,1.63333333333333,436807.1930175,436808.2247056,70,436807.2322031,436807.264607,436807.3467661,436808.2316792,436809.8633515,1,1.03168810001807
103,34,3,categorization,0,bathroom,SHINEd_sun_alkosphxlxwjwgjd.tif,35,0.0333333333333333,0.0333333333333333,0.0833333333333333,0.85,436809.8695501,436810.4974906,74,436809.9067272,436809.9410523,436810.0258224,436810.5032696,436811.3516084,1,0.627940499980468
103,35,3,categorization,0,kitchen,SHINEd_sun_agorklincwxrdtga.tif,85,0.0333333333333333,0.0333333333333333,0.0833333333333333,0.833333333333333,436811.357547,436812.3276257,70,436811.3953836,436811.4293397,436811.5114455,436812.33598,436813.1676506,1,0.970078699989244
103,36,3,categorization,0,kitchen,SHINEd_sun_acwjdupvyjsugpay.tif,73,0.0333333333333333,0.0333333333333333,0.0833333333333333,1.08333333333333,436813.1738332,436814.0648101,70,436813.2118429,436813.2453552,436813.3274555,436814.0739136,436815.1555848,1,0.890976900001988
103,37,3,categorization,0,bathroom,SHINEd_sun_agyqfjcfkdcydepw.tif,27,0.0333333333333333,0.0333333333333333,0.0833333333333333,1.05,436815.1632579,436816.0407376,70,436815.2007727,436815.2348557,436815.3171696,436816.0485816,436817.0969207,0,0.877479700022377
103,38,3,categorization,0,kitchen,SHINEd_sun_ahpczsiumwwocjkv.tif,90,0.0333333333333333,0.0333333333333333,0.0833333333333333,0.75,436817.1029873,436818.3855839,70,436817.1401584,436817.1786139,436817.2571022,436818.391212,436819.1395502,1,1.28259659995092
103,39,3,categorization,0,bathroom,SHINEd_sun_aqrpegblszgcoujh.tif,47,0.0333333333333333,0.0333333333333333,0.0833333333333333,1.91666666666667,436819.1453826,436821.7453622,70,436819.1825319,436819.2166931,436819.2991545,436821.7508475,436823.6658522,0,2.599979599996
103,40,3,categorization,0,kitchen,SHINEd_sun_agubuxuukhzyzpdp.tif,86,0.0333333333333333,0.0333333333333333,0.0833333333333333,0.933333333333333,436823.672129,436824.5607564,70,436823.7089911,436823.7446456,436823.8274571,436824.5671821,436825.4988542,1,0.888627399981488
103,41,3,categorization,0,bathroom,SHINEd_sun_aclfzgynxzxlbepz.tif,20,0.0333333333333333,0.0333333333333333,0.0833333333333333,1.36666666666667,436825.5049912,436826.3047683,70,436825.5421638,436825.5763668,436825.6586829,436826.3110168,436827.6760222,0,0.79977709997911
103,42,3,categorization,0,kitchen,SHINEd_sun_admlmbcdswaszruo.tif,76,0.0333333333333333,0.0333333333333333,0.0833333333333333,1.51666666666667,436827.6822589,436828.6087055,70,436827.720668,436827.7537599,436827.8360555,436828.6148279,436830.1298414,1,0.926446600002237
103,43,3,categorization,0,bathroom,SHINEd_sun_amzlamotzwfkwjco.tif,38,0.0333333333333333,0.0333333333333333,0.0833333333333333,0.816666666666667,436830.1375497,436831.1625778,70,436830.1747475,436830.2091431,436830.2969123,436831.1683981,436831.9834018,0,1.02502810000442
103,44,3,categorization,0,bathroom,SHINEd_sun_awnqiikzaispgmwo.tif,56,0.0333333333333333,0.0333333333333333,0.0833333333333333,0.816666666666667,436831.9896107,436833.1686385,70,436832.0269514,436832.0612847,436832.1432673,436833.1770695,436833.9920731,0,1.17902779998258
103,45,3,categorization,0,kitchen,SHINEd_sun_acwjdupvyjsugpay.tif,73,0.0333333333333333,0.0333333333333333,0.0833333333333333,1.46666666666667,436833.9979669,436834.6494627,70,436834.0350825,436834.0694571,436834.1518773,436834.6549331,436836.1199383,1,0.651495800004341
103,46,3,categorization,0,kitchen,SHINEd_sun_ahvszpwjtodgwusx.tif,91,0.0333333333333333,0.0333333333333333,0.0833333333333333,1.6,436836.1265742,436836.9367149,70,436836.1640823,436836.1979828,436836.2801506,436836.9433036,436838.5416417,1,0.810140700021293
103,47,3,categorization,0,bathroom,SHINEd_sun_apkxzenqapsujocq.tif,45,0.0333333333333333,0.0333333333333333,0.0833333333333333,0.833333333333333,436838.5475856,436839.3527071,74,436838.5845691,436838.6224811,436838.7026877,436839.3594116,436840.1910829,1,0.805121499986853
103,48,3,categorization,0,bathroom,SHINEd_sun_adbqksnwuqqwdpxc.tif,22,0.0333333333333333,0.0333333333333333,0.0833333333333333,0.783333333333333,436840.197254,436840.8968051,74,436840.2349376,436840.2686778,436840.3514648,436840.9030895,436841.6847603,1,0.699551100027747
103,49,3,categorization,0,kitchen,SHINEd_sun_awbyfefkbcrlrqws.tif,106,0.0333333333333333,0.0333333333333333,0.0833333333333333,0.883333333333333,436841.6915238,436842.4096127,70,436841.7286755,436841.7630203,436841.8452149,436842.4153695,436843.297053,1,0.718088899971917
103,50,3,categorization,0,kitchen,SHINEd_sun_axyyrmzcupyhlivc.tif,109,0.0333333333333333,0.0333333333333333,0.0833333333333333,0.883333333333333,436843.305379,436844.0247692,70,436843.3425451,436843.3766394,436843.4615549,436844.0314894,436844.9131611,1,0.719390199985355
103,1,4,categorization,0,bathroom,SHINEd_sun_anhioqovhscjqqwb.tif,39,0.0333333333333333,0.0333333333333333,0.0833333333333333,0.833333333333333,436857.4180185,436858.3955366,74,436857.4558858,436857.4899404,436857.5718851,436858.4011133,436859.2327836,1,0.977518100000452
103,2,4,categorization,0,bathroom,SHINEd_sun_acsgbuurtwghzjel.tif,21,0.0333333333333333,0.0333333333333333,0.0833333333333333,1.66666666666667,436859.2385656,436860.0092998,74,436859.2757056,436859.3101228,436859.3925074,436860.014912,436861.6799184,1,0.770734199963044
103,3,4,categorization,0,bathroom,SHINEd_sun_aamrfepkhweyewue.tif,13,0.0333333333333333,0.0333333333333333,0.0833333333333333,1.35,436861.6861852,436862.8087536,70,436861.7232209,436861.7577069,436861.8414462,436862.8154583,436864.1637966,0,1.12256839999463
103,4,4,categorization,0,kitchen,SHINEd_sun_abrcnpqqhmjwekyf.tif,70,0.0333333333333333,0.0333333333333333,0.0833333333333333,0.95,436864.1695116,436864.8563303,70,436864.2062735,436864.2427247,436864.3238051,436864.8668933,436865.8152301,1,0.686818699992727
103,5,4,categorization,0,bathroom,SHINEd_sun_aavhrsfjbserjtht.tif,15,0.0333333333333333,0.0333333333333333,0.0833333333333333,0.7,436865.8212112,436866.5387102,70,436865.8628513,436865.8943035,436865.9748246,436866.546802,436867.2451395,0,0.717499000020325
103,6,4,categorization,0,bathroom,SHINEd_sun_abtukhmkjdzyfxhr.tif,18,0.0333333333333333,0.0333333333333333,0.0833333333333333,1.73333333333333,436867.2512493,436867.9776523,74,436867.2909177,436867.322546,436867.4046948,436867.9833523,436869.7150239,1,0.726402999949642
103,7,4,categorization,0,kitchen,SHINEd_labelme_rykdqxenmhulbdn.tif,61,0.0333333333333333,0.0333333333333333,0.0833333333333333,1.05,436869.7210325,436871.3457816,70,436869.7584202,436869.7926684,436869.8749862,436871.3514366,436872.3997747,1,1.62474910001038
103,8,4,categorization,0,bathroom,SHINEd_sun_abtukhmkjdzyfxhr.tif,18,0.0333333333333333,0.0333333333333333,0.0833333333333333,0.866666666666667,436872.4064465,436873.0429471,74,436872.4437139,436872.4780744,436872.5611707,436873.048587,436873.9135923,1,0.63650060002692
103,9,4,categorization,0,bathroom,SHINEd_sun_auzqhkafidnkrwmo.tif,54,0.0333333333333333,0.0333333333333333,0.0833333333333333,0.983333333333333,436873.9195712,436874.8407949,74,436873.9568453,436873.9914759,436874.0752823,436874.846693,436875.8283661,1,0.921223700046539
103,10,4,categorization,0,bathroom,SHINEd_sun_amzlamotzwfkwjco.tif,38,0.0333333333333333,0.0333333333333333,0.0833333333333333,0.9,436875.8344833,436877.5047621,74,436875.872129,436875.9057426,436875.9908902,436877.5134209,436878.4117596,1,1.67027880001115
103,11,4,categorization,0,kitchen,SHINEd_sun_aaofphpvkeqlhwgu.tif,64,0.0333333333333333,0.0333333333333333,0.0833333333333333,0.8,436878.4179264,436879.1229893,70,436878.4549589,436878.4893364,436878.5715553,436879.1287064,436879.9270434,1,0.705062899971381
103,12,4,categorization,0,kitchen,SHINEd_sun_avszsnwsbuqfgzbn.tif,105,0.0333333333333333,0.0333333333333333,0.0833333333333333,1.98333333333333,436879.9330591,436880.6978519,70,436879.9702118,436880.0044846,436880.0870722,436880.7035373,436882.6852095,1,0.764792800007854
103,13,4,categorization,0,kitchen,SHINEd_sun_agzzivivdpnawacl.tif,87,0.0333333333333333,0.0333333333333333,0.0833333333333333,0.866666666666667,436882.6914485,436885.6327526,70,436882.728587,436882.7627499,436882.8451837,436885.6399054,436886.5049104,1,2.94130410003709
103,14,4,categorization,0,kitchen,SHINEd_sun_avszsnwsbuqfgzbn.tif,105,0.0333333333333333,0.0333333333333333,0.0833333333333333,1.48333333333333,436886.5111943,436887.1687062,70,436886.5497736,436886.5832355,436886.6650469,436887.1752417,436888.6569129,1,0.657511900004465
103,15,4,categorization,0,kitchen,SHINEd_sun_axaiaptzctpidqzg.tif,108,0.0333333333333333,0.0333333333333333,0.0833333333333333,0.983333333333333,436888.6633393,436889.600722,70,436888.7004994,436888.7357463,436888.8169413,436889.6077757,436890.5894483,1,0.937382699979935
103,16,4,categorization,0,bathroom,SHINEd_sun_arzkwskvsrwimlwo.tif,48,0.0333333333333333,0.0333333333333333,0.0833333333333333,1.7,436890.595335,436891.5532367,70,436890.6323332,436890.6670848,436890.7492103,436891.558896,436893.2572329,0,0.957901699992362
103,17,4,categorization,0,bathroom,SHINEd_sun_abjtwfukuwddzted.tif,17,0.0333333333333333,0.0333333333333333,0.0833333333333333,1.25,436893.2638013,436893.9767444,74,436893.302462,436893.3352094,436893.4174502,436893.9829472,436895.2312843,1,0.712943099963013
103,18,4,categorization,0,bathroom,SHINEd_sun_anltpptcpfdrhlks.tif,41,0.0333333333333333,0.0333333333333333,0.0833333333333333,0.866666666666667,436895.2372265,436895.9447761,74,436895.274333,436895.3127432,436895.3911847,436895.9515135,436896.8165191,1,0.707549599988852
103,19,4,categorization,0,bathroom,SHINEd_sun_aavhrsfjbserjtht.tif,15,0.0333333333333333,0.0333333333333333,0.0833333333333333,1.4,436896.8224482,436897.4487761,74,436896.8601367,436896.8939979,436896.9775494,436897.455057,436898.8533955,1,0.626327899983153
103,20,4,categorization,0,bathroom,SHINEd_sun_axbqssteryzzlcop.tif,57,0.0333333333333333,0.0333333333333333,0.0833333333333333,1.06666666666667,436898.8596412,436899.4967212,74,436898.8972728,436898.9311358,436899.0134143,436899.5027544,436900.5677579,1,0.637080000014976
103,21,4,categorization,0,kitchen,SHINEd_sun_aegoxogugdkwpmpj.tif,77,0.0333333333333333,0.0333333333333333,0.0833333333333333,0.766666666666667,436900.5742602,436901.4166497,70,436900.6112643,436900.6457913,436900.7279804,436901.4229913,436902.1879972,1,0.842389500001445
103,22,4,categorization,0,bathroom,SHINEd_sun_apeeialkgkuxddgh.tif,44,0.0333333333333333,0.0333333333333333,0.0833333333333333,1.3,436902.1947165,436902.9854281,74,436902.2330446,436902.2661494,436902.3486057,436902.990867,436904.2892074,1,0.790711599984206
103,23,4,categorization,0,bathroom,SHINEd_sun_apeeialkgkuxddgh.tif,44,0.0333333333333333,0.0333333333333333,0.0833333333333333,0.766666666666667,436904.295191,436905.02473,74,436904.3322771,436904.366375,436904.4517301,436905.03194,436905.7969458,1,0.729539000021759
103,24,4,categorization,0,kitchen,SHINEd_sun_ahdycvpopffkzzsu.tif,88,0.0333333333333333,0.0333333333333333,0.0833333333333333,1.01666666666667,436905.8029766,436906.4566989,74,436905.8400022,436905.8742743,436905.9568181,436906.465858,436907.4808617,0,0.653722299961373
103,25,4,categorization,0,kitchen,SHINEd_sun_akcjzhbbjlbogpdi.tif,95,0.0333333333333333,0.0333333333333333,0.0833333333333333,0.933333333333333,436907.4880621,436908.1375171,70,436907.5252425,436907.5592581,436907.643301,436908.1434008,436909.0750726,1,0.649455000006128
103,26,4,categorization,0,bathroom,SHINEd_sun_ahcvzmoyaycdoftf.tif,28,0.0333333333333333,0.0333333333333333,0.0833333333333333,0.916666666666667,436909.0812299,436910.2560978,74,436909.118391,436909.1527673,436909.2349895,436910.2650295,436911.1800342,1,1.17486789997201
103,27,4,categorization,0,kitchen,SHINEd_sun_auaiucuqpdausiva.tif,103,0.0333333333333333,0.0333333333333333,0.0833333333333333,0.8,436911.1863015,436912.1061538,70,436911.2234571,436911.2580084,436911.3404564,436912.1119883,436912.9103275,1,0.919852299964987
103,28,4,categorization,0,bathroom,SHINEd_sun_abjtwfukuwddzted.tif,17,0.0333333333333333,0.0333333333333333,0.0833333333333333,1.66666666666667,436912.9174448,436913.8253948,70,436912.9542816,436912.9888139,436913.0712989,436913.8309984,436915.4960024,0,0.90794999996433
103,29,4,categorization,0,bathroom,SHINEd_sun_anltpptcpfdrhlks.tif,41,0.0333333333333333,0.0333333333333333,0.0833333333333333,1.81666666666667,436915.5025451,436916.0887248,74,436915.5395978,436915.5742353,436915.6580067,436916.0947327,436917.9097378,1,0.586179699981585
103,30,4,categorization,0,bathroom,SHINEd_sun_anhioqovhscjqqwb.tif,39,0.0333333333333333,0.0333333333333333,0.0833333333333333,1.13333333333333,436917.9155471,436918.5527317,74,436917.9525376,436917.9870608,436918.0692739,436918.5608394,436919.6925117,1,0.637184599996544
103,31,4,categorization,0,bathroom,SHINEd_sun_aljolscmmzydegqp.tif,34,0.0333333333333333,0.0333333333333333,0.0833333333333333,1.71666666666667,436919.6989224,436920.3697054,74,436919.7358451,436919.770347,436919.8560608,436920.3785186,436922.0935224,1,0.670783000008669
103,32,4,categorization,0,bathroom,SHINEd_sun_abtukhmkjdzyfxhr.tif,18,0.0333333333333333,0.0333333333333333,0.0833333333333333,1.53333333333333,436922.0995301,436922.8340522,74,436922.1371448,436922.1709038,436922.2537408,436922.8398722,436924.3715434,1,0.734522100014146
103,33,4,categorization,0,bathroom,SHINEd_sun_adbqksnwuqqwdpxc.tif,22,0.0333333333333333,0.0333333333333333,0.0833333333333333,0.85,436924.3774949,436924.9935173,74,436924.4157167,436924.4490178,436924.5314894,436924.9994155,436925.8477544,1,0.616022399975918
103,34,4,categorization,0,bathroom,SHINEd_sun_acgyywnybuveqsro.tif,19,0.0333333333333333,0.0333333333333333,0.0833333333333333,1.81666666666667,436925.8536098,436926.4022127,74,436925.8907704,436925.9248708,436926.0075867,436926.4078385,436928.2228438,1,0.548602900002152
103,35,4,categorization,0,bathroom,SHINEd_sun_anhioqovhscjqqwb.tif,39,0.0333333333333333,0.0333333333333333,0.0833333333333333,1.61666666666667,436928.2288492,436928.8406858,74,436928.2658103,436928.3009561,436928.3826014,436928.8466388,436930.4616429,1,0.61183660000097
103,36,4,categorization,0,bathroom,SHINEd_sun_agyqfjcfkdcydepw.tif,27,0.0333333333333333,0.0333333333333333,0.0833333333333333,1.11666666666667,436930.4675752,436931.3534447,74,436930.5053742,436930.5391769,436930.6244191,436931.3592935,436932.4743,1,0.885869499994442
103,37,4,categorization,0,bathroom,SHINEd_sun_ajlpekbqvytdohqb.tif,31,0.0333333333333333,0.0333333333333333,0.0833333333333333,1.9,436932.4802866,436933.1624861,74,436932.5178544,436932.5523854,436932.6342528,436933.1681038,436935.0664426,1,0.682199499977287
103,38,4,categorization,0,bathroom,SHINEd_sun_aghyqhbptboemmoq.tif,25,0.0333333333333333,0.0333333333333333,0.0833333333333333,1.4,436935.0728103,436936.387908,74,436935.1099809,436935.1456897,436935.2265497,436936.3938593,436937.7921964,1,1.31509769998956
103,39,4,categorization,0,kitchen,SHINEd_sun_avszsnwsbuqfgzbn.tif,105,0.0333333333333333,0.0333333333333333,0.0833333333333333,0.833333333333333,436937.7982611,436938.4572583,70,436937.8359297,436937.869504,436937.9519941,436938.4628454,436939.2945161,1,0.658997199963778
103,40,4,categorization,0,bathroom,SHINEd_sun_apeeialkgkuxddgh.tif,44,0.0333333333333333,0.0333333333333333,0.0833333333333333,1.03333333333333,436939.30075,436940.3126465,74,436939.3383118,436939.3720266,436939.4549125,436940.3188417,436941.3505141,1,1.0118965000147
103,41,4,categorization,0,kitchen,SHINEd_sun_adgqasybjyktddhj.tif,75,0.0333333333333333,0.0333333333333333,0.0833333333333333,0.916666666666667,436941.3566563,436942.145588,70,436941.3942847,436941.4282088,436941.5101917,436942.1534661,436943.0684707,1,0.788931699993555
103,42,4,categorization,0,kitchen,SHINEd_sun_aadbddgrdsjugojn.tif,62,0.0333333333333333,0.0333333333333333,0.0833333333333333,1.13333333333333,436943.0748541,436943.7989329,70,436943.1117555,436943.146725,436943.2286954,436943.8090347,436944.9407051,1,0.724078800005373
103,43,4,categorization,0,bathroom,SHINEd_sun_arzkwskvsrwimlwo.tif,48,0.0333333333333333,0.0333333333333333,0.0833333333333333,1.53333333333333,436944.9465721,436945.7322249,70,436944.9832958,436945.0180424,436945.1002325,436945.7385501,436947.2702206,0,0.785652799997479
103,44,4,categorization,0,kitchen,SHINEd_sun_ahpczsiumwwocjkv.tif,90,0.0333333333333333,0.0333333333333333,0.0833333333333333,1.06666666666667,436947.2763517,436948.0700736,70,436947.3131885,436947.3483692,436947.4302856,436948.0755785,436949.1405986,1,0.793721899972297
103,45,4,categorization,0,bathroom,SHINEd_sun_agyqfjcfkdcydepw.tif,27,0.0333333333333333,0.0333333333333333,0.0833333333333333,1.98333333333333,436949.1467706,436949.8813234,74,436949.1838936,436949.2181879,436949.3005136,436949.8867952,436951.8684667,1,0.734552800015081
103,46,4,categorization,0,bathroom,SHINEd_sun_aspsyogrekjtfozg.tif,50,0.0333333333333333,0.0333333333333333,0.0833333333333333,1.15,436951.8747293,436952.769393,70,436951.9122204,436951.9461082,436952.0283,436952.7750363,436953.9233757,0,0.894663700019009
103,47,4,categorization,0,kitchen,SHINEd_sun_aeikbkmhphqzxdkv.tif,79,0.0333333333333333,0.0333333333333333,0.0833333333333333,0.75,436953.92946,436954.6086833,70,436953.9669468,436954.0007429,436954.0832638,436954.6147089,436955.3630468,1,0.679223299957812
103,48,4,categorization,0,bathroom,SHINEd_sun_aavhrsfjbserjtht.tif,15,0.0333333333333333,0.0333333333333333,0.0833333333333333,1.28333333333333,436955.3690909,436956.0885785,70,436955.4062122,436955.4406931,436955.5229376,436956.0962242,436957.3778958,0,0.719487600028515
103,49,4,categorization,0,kitchen,SHINEd_sun_auticobqsbwgoppi.tif,104,0.0333333333333333,0.0333333333333333,0.0833333333333333,1.83333333333333,436957.3839751,436958.1206147,70,436957.42083,436957.4555064,436957.5409023,436958.1315,436959.9631704,1,0.736639600014314
103,50,4,categorization,0,bathroom,SHINEd_sun_acgyywnybuveqsro.tif,19,0.0333333333333333,0.0333333333333333,0.0833333333333333,1.26666666666667,436959.9696192,436960.6647539,74,436960.0069008,436960.0412646,436960.1235006,436960.6710932,436961.9360995,1,0.695134700043127
103,1,5,categorization,0,bathroom,SHINEd_sun_aghyqhbptboemmoq.tif,25,0.0333333333333333,0.0333333333333333,0.0833333333333333,0.916666666666667,436976.9612396,436977.5067574,75,436976.9989296,436977.0348152,436977.1150856,436977.5135939,436978.4285981,NaN,0.545517800026573
103,2,5,categorization,0,bathroom,SHINEd_sun_aspsyogrekjtfozg.tif,50,0.0333333333333333,0.0333333333333333,0.0833333333333333,1.68333333333333,436978.4350143,436980.0726232,75,436978.4722218,436978.5066113,436978.5889844,436980.078683,436981.7603534,NaN,1.63760890002595
103,3,5,categorization,0,bathroom,SHINEd_sun_aghyqhbptboemmoq.tif,25,0.0333333333333333,0.0333333333333333,0.0833333333333333,1.15,436981.7663587,436984.4807467,74,436981.8032933,436981.8377772,436981.920887,436984.4884839,436985.6368227,1,2.71438800002215
103,4,5,categorization,0,kitchen,SHINEd_sun_axaiaptzctpidqzg.tif,108,0.0333333333333333,0.0333333333333333,0.0833333333333333,1.08333333333333,436985.6444338,436986.7531385,81,436985.6815278,436985.7160668,436985.8016558,436986.7588327,436987.8405028,NaN,1.10870469996007
103,5,5,categorization,0,bathroom,SHINEd_sun_abtukhmkjdzyfxhr.tif,18,0.0333333333333333,0.0333333333333333,0.0833333333333333,1.5,436987.8468793,436989.4413789,74,436987.8839628,436987.9183098,436988.0007239,436989.4469354,436990.9452748,1,1.59449960000347
103,6,5,categorization,0,bathroom,SHINEd_sun_apkxzenqapsujocq.tif,45,0.0333333333333333,0.0333333333333333,0.0833333333333333,1.03333333333333,436990.9514014,436991.6979131,74,436990.9884655,436991.0226685,436991.1052991,436991.7037817,436992.7354541,1,0.746511700039264
103,7,5,categorization,0,kitchen,SHINEd_sun_aglwoufpxbtxqecp.tif,84,0.0333333333333333,0.0333333333333333,0.0833333333333333,1.35,436992.7420456,436993.5375277,70,436992.7791653,436992.8134383,436992.8958691,436993.5432815,436994.8916203,1,0.795482099987566
103,8,5,categorization,0,bathroom,SHINEd_sun_ambriybtogmepttm.tif,36,0.0333333333333333,0.0333333333333333,0.0833333333333333,1.46666666666667,436994.8996783,436995.7462129,70,436994.9366619,436994.9709666,436995.0544452,436995.7521863,436997.2171901,0,0.846534599957522
103,9,5,categorization,0,bathroom,SHINEd_sun_abjtwfukuwddzted.tif,17,0.0333333333333333,0.0333333333333333,0.0833333333333333,1,436997.2231394,436997.9206535,70,436997.2601455,436997.2945687,436997.3772937,436997.9266946,436998.9250324,0,0.697514100000262
103,10,5,categorization,0,bathroom,SHINEd_sun_aclfzgynxzxlbepz.tif,20,0.0333333333333333,0.0333333333333333,0.0833333333333333,0.883333333333333,436998.9309029,437000.0246856,74,436998.9677862,436999.0022886,436999.0846447,437000.0343861,437000.9160576,1,1.09378270001616
103,11,5,categorization,0,bathroom,SHINEd_sun_aspsyogrekjtfozg.tif,50,0.0333333333333333,0.0333333333333333,0.0833333333333333,0.95,437000.9223558,437002.1123508,74,437000.9602814,437000.9937929,437001.0761957,437002.1245608,437003.072898,1,1.18999500002246
103,12,5,categorization,0,kitchen,SHINEd_sun_auaiucuqpdausiva.tif,103,0.0333333333333333,0.0333333333333333,0.0833333333333333,1.33333333333333,437003.0792026,437004.0407748,70,437003.1164469,437003.1508016,437003.2331282,437004.0471564,437005.3788289,1,0.961572200001683
103,13,5,categorization,0,kitchen,SHINEd_sun_auaiucuqpdausiva.tif,103,0.0333333333333333,0.0333333333333333,0.0833333333333333,0.883333333333333,437005.3847817,437006.145711,70,437005.421966,437005.4562194,437005.5386039,437006.1543932,437007.0360634,1,0.760929300042335
103,14,5,categorization,0,kitchen,SHINEd_sun_alpduwskzkgbcfui.tif,98,0.0333333333333333,0.0333333333333333,0.0833333333333333,0.916666666666667,437007.0420988,437010.0806291,74,437007.0792208,437007.1132873,437007.1959449,437010.0866965,437011.0017018,0,3.0385302999639
103,15,5,categorization,0,bathroom,SHINEd_sun_ahcvzmoyaycdoftf.tif,28,0.0333333333333333,0.0333333333333333,0.0833333333333333,1.78333333333333,437011.0078411,437011.7446895,74,437011.045342,437011.0793866,437011.16129,437011.7508054,437013.5324763,1,0.736848400032613
103,16,5,categorization,0,kitchen,SHINEd_sun_aiffeoqzngslhzfi.tif,93,0.0333333333333333,0.0333333333333333,0.0833333333333333,0.983333333333333,437013.5389448,437014.6826566,70,437013.5757491,437013.6126891,437013.6934692,437014.6887295,437015.670401,1,1.14371180004673
103,17,5,categorization,0,bathroom,SHINEd_sun_ahqjwnzgolcaoidx.tif,29,0.0333333333333333,0.0333333333333333,0.0833333333333333,0.783333333333333,437015.676589,437016.5297243,70,437015.7142314,437015.7480827,437015.830254,437016.535478,437017.3171492,0,0.853135300043505
103,18,5,categorization,0,bathroom,SHINEd_sun_ajlpekbqvytdohqb.tif,31,0.0333333333333333,0.0333333333333333,0.0833333333333333,0.916666666666667,437017.3239064,437017.9931223,74,437017.3608837,437017.3952316,437017.4796236,437017.9986775,437018.913682,1,0.669215900008567
103,19,5,categorization,0,bathroom,SHINEd_sun_aovflwamhlwzwvxs.tif,42,0.0333333333333333,0.0333333333333333,0.0833333333333333,0.716666666666667,437018.9200161,437019.6966355,74,437018.9570709,437018.9973785,437019.0739757,437019.7033386,437020.4183435,1,0.77661940001417
103,20,5,categorization,0,bathroom,SHINEd_sun_aghyqhbptboemmoq.tif,25,0.0333333333333333,0.0333333333333333,0.0833333333333333,1.15,437020.4250374,437021.4326845,74,437020.4632149,437020.4963671,437020.5793811,437021.4396006,437022.5879391,1,1.00764710002113
103,21,5,categorization,0,kitchen,SHINEd_sun_aeikbkmhphqzxdkv.tif,79,0.0333333333333333,0.0333333333333333,0.0833333333333333,0.716666666666667,437022.593903,437023.9934228,70,437022.6308305,437022.6655152,437022.7478556,437023.9989545,437024.713959,1,1.39951979997568
103,22,5,categorization,0,kitchen,SHINEd_sun_alalhpqajafvlnho.tif,96,0.0333333333333333,0.0333333333333333,0.0833333333333333,1.51666666666667,437024.7200337,437025.3686534,70,437024.7579657,437024.7924032,437024.8736598,437025.3751594,437026.8901634,1,0.648619699990377
103,23,5,categorization,0,bathroom,SHINEd_sun_aclfzgynxzxlbepz.tif,20,0.0333333333333333,0.0333333333333333,0.0833333333333333,1.81666666666667,437026.8962078,437027.553558,74,437026.9331593,437026.9695507,437027.0501082,437027.5592922,437029.3742977,1,0.657350199995562
103,24,5,categorization,0,bathroom,SHINEd_sun_aqrpegblszgcoujh.tif,47,0.0333333333333333,0.0333333333333333,0.0833333333333333,1.06666666666667,437029.3805788,437029.9871241,74,437029.4175575,437029.4518233,437029.5357975,437029.9924967,437031.0575197,1,0.606545299990103
103,25,5,categorization,0,bathroom,SHINEd_labelme_sfxiulhjbhlyiyt.tif,11,0.0333333333333333,0.0333333333333333,0.0833333333333333,1.2,437031.0639512,437031.8486116,74,437031.101101,437031.1353021,437031.2193715,437031.8547976,437033.053135,1,0.784660400007851
103,26,5,categorization,0,kitchen,SHINEd_sun_acxkpeoqbwcxfvip.tif,74,0.0333333333333333,0.0333333333333333,0.0833333333333333,1.31666666666667,437033.0599663,437033.6946761,70,437033.0968302,437033.134959,437033.2142088,437033.700283,437035.0152891,1,0.634709800011478
103,27,5,categorization,0,kitchen,SHINEd_sun_aypmqwcualkenuoe.tif,110,0.0333333333333333,0.0333333333333333,0.0833333333333333,1.95,437035.0246231,437035.6805806,70,437035.0617499,437035.0959065,437035.1790925,437035.6870402,437037.6353787,1,0.655957499984652
103,28,5,categorization,0,bathroom,SHINEd_labelme_sfxiulhjbhlyiyt.tif,11,0.0333333333333333,0.0333333333333333,0.0833333333333333,0.833333333333333,437037.6413518,437038.4411604,74,437037.6788648,437037.7129007,437037.7950537,437038.44688,437039.2785503,1,0.799808599986136
103,29,5,categorization,0,bathroom,SHINEd_sun_apkxzenqapsujocq.tif,45,0.0333333333333333,0.0333333333333333,0.0833333333333333,1.06666666666667,437039.2844659,437040.0806274,70,437039.3212794,437039.3568662,437039.438166,437040.087138,437041.1521424,0,0.796161500038579
103,30,5,categorization,0,kitchen,SHINEd_sun_ahljzhgcdpomplvg.tif,89,0.0333333333333333,0.0333333333333333,0.0833333333333333,1.33333333333333,437041.1584976,437041.7925922,70,437041.19582,437041.2300012,437041.3120757,437041.7990002,437043.1306722,1,0.634094599983655
103,31,5,categorization,0,kitchen,SHINEd_sun_abrcnpqqhmjwekyf.tif,70,0.0333333333333333,0.0333333333333333,0.0833333333333333,1.3,437043.1370179,437043.744654,70,437043.1740425,437043.2085504,437043.2907844,437043.7512985,437045.0496368,1,0.607636099972297
103,32,5,categorization,0,kitchen,SHINEd_sun_adgqasybjyktddhj.tif,75,0.0333333333333333,0.0333333333333333,0.0833333333333333,1.23333333333333,437045.0570782,437045.6666805,70,437045.0941699,437045.1284816,437045.2106039,437045.6726898,437046.90436,1,0.609602300042752
103,33,5,categorization,0,bathroom,SHINEd_sun_anlddfvefwvocyae.tif,40,0.0333333333333333,0.0333333333333333,0.0833333333333333,1.35,437046.9105465,437048.6725771,74,437046.9474812,437046.9846737,437047.0641896,437048.6789446,437050.0272819,1,1.76203059998807
103,34,5,categorization,0,bathroom,SHINEd_sun_amzlamotzwfkwjco.tif,38,0.0333333333333333,0.0333333333333333,0.0833333333333333,0.7,437050.0334333,437050.8805773,70,437050.0723877,437050.1048784,437050.1871417,437050.8866549,437051.5849936,0,0.847143999999389
103,35,5,categorization,0,bathroom,SHINEd_sun_atstyziqcmkahyxk.tif,51,0.0333333333333333,0.0333333333333333,0.0833333333333333,1.58333333333333,437051.5911438,437052.2086417,70,437051.6282479,437051.6626668,437051.7450036,437052.2151317,437053.796804,0,0.617497899977025
103,36,5,categorization,0,bathroom,SHINEd_sun_amzlamotzwfkwjco.tif,38,0.0333333333333333,0.0333333333333333,0.0833333333333333,1.31666666666667,437053.8030637,437054.8246358,74,437053.8405801,437053.8747485,437053.9616333,437054.8314448,437056.1464502,1,1.02157209999859
103,37,5,categorization,0,kitchen,SHINEd_sun_aaofphpvkeqlhwgu.tif,64,0.0333333333333333,0.0333333333333333,0.0833333333333333,0.8,437056.152551,437056.8246821,70,437056.1895006,437056.2241134,437056.3063169,437056.8312483,437057.6295861,1,0.672131099971011
103,38,5,categorization,0,bathroom,SHINEd_labelme_sfxiulhjbhlyiyt.tif,11,0.0333333333333333,0.0333333333333333,0.0833333333333333,1.06666666666667,437057.6355394,437058.3564659,74,437057.6739388,437057.7071238,437057.7894954,437058.3622767,437059.4272805,1,0.720926500041969
103,39,5,categorization,0,bathroom,SHINEd_sun_azqyogdvyhahyram.tif,60,0.0333333333333333,0.0333333333333333,0.0833333333333333,1.26666666666667,437059.4332941,437060.1772316,74,437059.4723264,437059.5048111,437059.5874682,437060.1829868,437061.4479919,1,0.743937499995809
103,40,5,categorization,0,kitchen,SHINEd_sun_aamedkxepzlwuxes.tif,63,0.0333333333333333,0.0333333333333333,0.0833333333333333,1.16666666666667,437061.4694728,437062.4734663,70,437061.5077052,437061.5406148,437061.6231201,437062.4796066,437063.644611,1,1.00399350002408
103,41,5,categorization,0,kitchen,SHINEd_sun_aegoxogugdkwpmpj.tif,77,0.0333333333333333,0.0333333333333333,0.0833333333333333,1.51666666666667,437063.6507727,437064.3294316,70,437063.6877397,437063.7221636,437063.8044381,437064.3350714,437065.8500774,1,0.678658899967559
103,42,5,categorization,0,kitchen,SHINEd_sun_aeqbewejiovwrhhc.tif,80,0.0333333333333333,0.0333333333333333,0.0833333333333333,1.86666666666667,437065.856032,437068.4646272,70,437065.8932589,437065.9276297,437066.0098175,437068.4714367,437070.3364409,1,2.6085951999994
103,43,5,categorization,0,kitchen,SHINEd_sun_auaiucuqpdausiva.tif,103,0.0333333333333333,0.0333333333333333,0.0833333333333333,1.15,437070.3424479,437071.5613161,70,437070.3798159,437070.414033,437070.4961354,437071.5668472,437072.715186,1,1.21886820002692
103,44,5,categorization,0,bathroom,SHINEd_sun_abeymlrfgckenfyk.tif,16,0.0333333333333333,0.0333333333333333,0.0833333333333333,0.733333333333333,437072.7214038,437073.4420948,74,437072.7587098,437072.7928392,437072.8772013,437073.4477937,437074.1794649,1,0.720690999994986
103,45,5,categorization,0,bathroom,SHINEd_sun_alkosphxlxwjwgjd.tif,35,0.0333333333333333,0.0333333333333333,0.0833333333333333,1.28333333333333,437074.1854868,437077.1141289,74,437074.2227688,437074.2571713,437074.339215,437077.1199693,437078.401642,1,2.92864210001426
103,46,5,categorization,0,kitchen,SHINEd_sun_aehawpgmrlhlvcow.tif,78,0.0333333333333333,0.0333333333333333,0.0833333333333333,0.816666666666667,437078.407664,437079.1059145,70,437078.444669,437078.4791142,437078.5614719,437079.1116099,437079.9266251,1,0.69825050001964
103,47,5,categorization,0,kitchen,SHINEd_sun_ataniphupyuxeowc.tif,102,0.0333333333333333,0.0333333333333333,0.0833333333333333,1.23333333333333,437079.9328677,437080.8655002,70,437079.9701059,437080.0045547,437080.0880836,437080.8710321,437082.1027038,1,0.932632500014734
103,48,5,categorization,0,kitchen,SHINEd_sun_acwjdupvyjsugpay.tif,73,0.0333333333333333,0.0333333333333333,0.0833333333333333,1.58333333333333,437082.1088797,437082.7766337,70,437082.1459375,437082.1804366,437082.26252,437082.7833344,437084.3650068,1,0.667753999994602
103,49,5,categorization,0,bathroom,SHINEd_sun_aiskgiwswewisvph.tif,30,0.0333333333333333,0.0333333333333333,0.0833333333333333,1.05,437084.3713709,437085.0208448,70,437084.4084625,437084.4427465,437084.5275341,437085.026522,437086.0748608,0,0.649473899975419
103,50,5,categorization,0,kitchen,SHINEd_sun_admlmbcdswaszruo.tif,76,0.0333333333333333,0.0333333333333333,0.0833333333333333,1.11666666666667,437086.0810473,437086.7366558,70,437086.1181484,437086.1525177,437086.2373318,437086.7429091,437087.8579134,1,0.655608500004746
103,1,6,categorization,0,kitchen,SHINEd_sun_acfmftudsenhrfhy.tif,72,0.0333333333333333,0.0333333333333333,0.0833333333333333,1.88333333333333,437323.665373,437324.3764558,70,437323.7031425,437323.7376836,437323.8211722,437324.3833087,437326.2649789,1,0.71108280000044
103,2,6,categorization,0,bathroom,SHINEd_sun_aleqenyvunhactkl.tif,33,0.0333333333333333,0.0333333333333333,0.0833333333333333,1.28333333333333,437326.2717255,437326.7768933,74,437326.3088682,437326.3432009,437326.4262994,437326.7825983,437328.0642705,1,0.5051678000018
103,3,6,categorization,0,kitchen,SHINEd_sun_ajcbwwvdlsvjyzje.tif,94,0.0333333333333333,0.0333333333333333,0.0833333333333333,0.8,437328.0720184,437328.7124976,70,437328.1091523,437328.1435266,437328.2259178,437328.7204762,437329.5188154,1,0.640479199995752
103,4,6,categorization,0,kitchen,SHINEd_sun_agzzivivdpnawacl.tif,87,0.0333333333333333,0.0333333333333333,0.0833333333333333,1.41666666666667,437329.5247114,437330.4805032,70,437329.5617582,437329.5961737,437329.6785144,437330.4871794,437331.902185,1,0.955791799991857
103,5,6,categorization,0,kitchen,SHINEd_sun_amjjdeyrggfqgmom.tif,99,0.0333333333333333,0.0333333333333333,0.0833333333333333,1.35,437331.9082486,437332.7284971,70,437331.9462238,437331.9808388,437332.0621705,437332.7346029,437334.0829406,1,0.820248499978334
103,6,6,categorization,0,kitchen,SHINEd_sun_acfluyeqiftljamq.tif,71,0.0333333333333333,0.0333333333333333,0.0833333333333333,0.85,437334.0905778,437334.7128939,70,437334.1286694,437334.1626204,437334.2470867,437334.7185974,437335.5669365,1,0.62231609999435
103,7,6,categorization,0,bathroom,SHINEd_sun_afcoljnjfoxjtgja.tif,24,0.0333333333333333,0.0333333333333333,0.0833333333333333,1.11666666666667,437335.5749041,437336.2805045,70,437335.6119149,437335.6482428,437335.7292535,437336.2926482,437337.4076518,0,0.705600400047842
103,8,6,categorization,0,kitchen,SHINEd_sun_agorklincwxrdtga.tif,85,0.0333333333333333,0.0333333333333333,0.0833333333333333,1.05,437337.4138276,437338.4165158,70,437337.4515483,437337.4867201,437337.5684719,437338.4227983,437339.4711457,1,1.00268819998018
103,9,6,categorization,0,bathroom,SHINEd_sun_aqrpegblszgcoujh.tif,47,0.0333333333333333,0.0333333333333333,0.0833333333333333,0.733333333333333,437339.4779937,437340.2896695,74,437339.5153149,437339.5495141,437339.632198,437340.2954518,437341.0271235,1,0.811675800010562
103,10,6,categorization,0,kitchen,SHINEd_sun_agzzivivdpnawacl.tif,87,0.0333333333333333,0.0333333333333333,0.0833333333333333,1.33333333333333,437341.0335223,437341.6324736,74,437341.0703844,437341.1048894,437341.1871299,437341.638792,437342.9704632,0,0.598951299965847
103,11,6,categorization,0,kitchen,SHINEd_sun_agzzivivdpnawacl.tif,87,0.0333333333333333,0.0333333333333333,0.0833333333333333,0.75,437342.9766918,437343.7052695,70,437343.0139028,437343.0481059,437343.1307987,437343.7108864,437344.4592247,1,0.728577699977905
103,12,6,categorization,0,bathroom,SHINEd_sun_azqyogdvyhahyram.tif,60,0.0333333333333333,0.0333333333333333,0.0833333333333333,0.866666666666667,437344.4656955,437345.2885016,74,437344.5025466,437344.537169,437344.619587,437345.2950989,437346.1601048,1,0.822806099953596
103,13,6,categorization,0,bathroom,SHINEd_sun_aspsyogrekjtfozg.tif,50,0.0333333333333333,0.0333333333333333,0.0833333333333333,1.2,437346.1663789,437347.6404585,70,437346.2042714,437346.2404363,437346.3200585,437347.6467393,437348.8450774,0,1.47407960001146
103,14,6,categorization,0,kitchen,SHINEd_sun_agfmsmojwptjoava.tif,82,0.0333333333333333,0.0333333333333333,0.0833333333333333,1,437348.8509893,437349.488284,70,437348.8882179,437348.9226065,437349.0047401,437349.4955006,437350.4938399,1,0.637294700019993
103,15,6,categorization,0,bathroom,SHINEd_sun_axxbkopsgyouuebh.tif,58,0.0333333333333333,0.0333333333333333,0.0833333333333333,1.7,437350.5017231,437351.3285116,74,437350.5392826,437350.5730468,437350.6582586,437351.3351058,437353.0334443,1,0.826788499951363
103,16,6,categorization,0,bathroom,SHINEd_sun_awnqiikzaispgmwo.tif,56,0.0333333333333333,0.0333333333333333,0.0833333333333333,0.9,437353.0394076,437353.9284856,74,437353.0762016,437353.1107016,437353.1930815,437353.9361305,437354.8344687,1,0.889077999978326
103,17,6,categorization,0,kitchen,SHINEd_sun_admlmbcdswaszruo.tif,76,0.0333333333333333,0.0333333333333333,0.0833333333333333,0.883333333333333,437354.841076,437355.8892172,70,437354.8781738,437354.9125153,437354.9948719,437355.8948919,437356.7765649,1,1.048141199979
103,18,6,categorization,0,bathroom,SHINEd_sun_aapitsgbtktqubfy.tif,14,0.0333333333333333,0.0333333333333333,0.0833333333333333,0.7,437356.7825827,437357.6200365,70,437356.8197759,437356.85393,437356.9364572,437357.626242,437358.3245811,0,0.837453799962532
103,19,6,categorization,0,bathroom,SHINEd_sun_asfwthctfqerjvxr.tif,49,0.0333333333333333,0.0333333333333333,0.0833333333333333,1.16666666666667,437358.3308238,437359.3045303,70,437358.367921,437358.4023944,437358.4844971,437359.3109324,437360.4759369,0,0.973706500022672
103,20,6,categorization,0,bathroom,SHINEd_sun_aavhrsfjbserjtht.tif,15,0.0333333333333333,0.0333333333333333,0.0833333333333333,1.63333333333333,437360.4827547,437361.2332523,70,437360.5197111,437360.5540342,437360.6366586,437361.2389786,437362.8706492,0,0.750497600005474
103,21,6,categorization,0,kitchen,SHINEd_sun_aqeaevwwwjoqhzvl.tif,101,0.0333333333333333,0.0333333333333333,0.0833333333333333,1.15,437362.8774517,437363.6581028,70,437362.917181,437362.949971,437363.0310794,437363.663691,437364.8120292,1,0.780651100038085
103,22,6,categorization,0,kitchen,SHINEd_sun_adgqasybjyktddhj.tif,75,0.0333333333333333,0.0333333333333333,0.0833333333333333,0.8,437364.8184416,437365.569022,70,437364.8561152,437364.8897399,437364.9738595,437365.5743696,437366.3727069,1,0.75058039999567
103,23,6,categorization,0,bathroom,SHINEd_sun_aapitsgbtktqubfy.tif,14,0.0333333333333333,0.0333333333333333,0.0833333333333333,1.05,437366.3787011,437367.3693911,74,437366.416053,437366.4504006,437366.5328985,437367.3750814,437368.4234196,1,0.990690000005998
103,24,6,categorization,0,bathroom,SHINEd_labelme_xbsnnlvmskdknsb.tif,12,0.0333333333333333,0.0333333333333333,0.0833333333333333,1.45,437368.431795,437369.4335683,74,437368.4709755,437368.5032281,437368.5903759,437369.4392934,437370.8876321,1,1.0017732999986
103,25,6,categorization,0,bathroom,SHINEd_sun_alkosphxlxwjwgjd.tif,35,0.0333333333333333,0.0333333333333333,0.0833333333333333,0.816666666666667,437370.8940467,437371.4805173,74,437370.9311037,437370.9655706,437371.0479599,437371.4868081,437372.3018136,1,0.586470600042958
103,26,6,categorization,0,bathroom,SHINEd_sun_ammzpemadwrjdfzl.tif,37,0.0333333333333333,0.0333333333333333,0.0833333333333333,1.3,437372.3082023,437373.0084645,74,437372.3455036,437372.3797022,437372.4621118,437373.0145909,437374.3129292,1,0.700262200029101
103,27,6,categorization,0,kitchen,SHINEd_sun_amjjdeyrggfqgmom.tif,99,0.0333333333333333,0.0333333333333333,0.0833333333333333,1.85,437374.3187852,437375.119903,74,437374.3557754,437374.390384,437374.4726078,437375.1309012,437376.9792401,0,0.801117800001521
103,28,6,categorization,0,bathroom,SHINEd_sun_atstyziqcmkahyxk.tif,51,0.0333333333333333,0.0333333333333333,0.0833333333333333,1.48333333333333,437376.9851066,437377.665328,74,437377.0238243,437377.0568888,437377.1390166,437377.6709934,437379.1526646,1,0.680221399990842
103,29,6,categorization,0,kitchen,SHINEd_sun_alpduwskzkgbcfui.tif,98,0.0333333333333333,0.0333333333333333,0.0833333333333333,0.95,437379.1589489,437379.9623228,70,437379.1965316,437379.2302638,437379.3127952,437379.9683678,437380.9167074,1,0.803373900009319
103,30,6,categorization,0,bathroom,SHINEd_sun_adwvsndpdsgzeste.tif,23,0.0333333333333333,0.0333333333333333,0.0833333333333333,1.1,437380.9234307,437381.5924727,74,437380.960971,437380.9949539,437381.0772519,437381.6010923,437382.6994294,1,0.669042000023182
103,31,6,categorization,0,bathroom,SHINEd_sun_abjtwfukuwddzted.tif,17,0.0333333333333333,0.0333333333333333,0.0833333333333333,1.11666666666667,437382.7056206,437383.7364408,70,437382.7433499,437382.7769315,437382.8592228,437383.7431521,437384.8581574,0,1.03082019998692
103,32,6,categorization,0,kitchen,SHINEd_sun_admlmbcdswaszruo.tif,76,0.0333333333333333,0.0333333333333333,0.0833333333333333,1,437384.8649415,437385.6185212,70,437384.9019142,437384.9363873,437385.0214672,437385.6243296,437386.6226672,1,0.753579700016417
103,33,6,categorization,0,kitchen,SHINEd_sun_ahvszpwjtodgwusx.tif,91,0.0333333333333333,0.0333333333333333,0.0833333333333333,0.833333333333333,437386.6291851,437387.4091678,70,437386.6662333,437386.7013178,437386.7831207,437387.4146407,437388.246312,1,0.779982699954417
103,34,6,categorization,0,bathroom,SHINEd_labelme_xbsnnlvmskdknsb.tif,12,0.0333333333333333,0.0333333333333333,0.0833333333333333,1.76666666666667,437388.2524012,437389.0484938,74,437388.2894745,437388.324083,437388.4060955,437389.0546539,437390.8196576,1,0.796092599979602
103,35,6,categorization,0,bathroom,SHINEd_sun_aljolscmmzydegqp.tif,34,0.0333333333333333,0.0333333333333333,0.0833333333333333,1.4,437390.8258686,437391.7646285,70,437390.8627622,437390.8995836,437390.9798463,437391.7781697,437393.1765068,0,0.938759899989236
103,36,6,categorization,0,bathroom,SHINEd_sun_arzkwskvsrwimlwo.tif,48,0.0333333333333333,0.0333333333333333,0.0833333333333333,1.95,437393.1827782,437393.905466,70,437393.2219307,437393.2542036,437393.3366333,437393.9111564,437395.8594934,0,0.722687800007407
103,37,6,categorization,0,bathroom,SHINEd_sun_aljolscmmzydegqp.tif,34,0.0333333333333333,0.0333333333333333,0.0833333333333333,0.783333333333333,437395.8655992,437396.5051698,70,437395.9032398,437395.9370632,437396.0193533,437396.5107644,437397.2924556,0,0.639570600003935
103,38,6,categorization,0,bathroom,SHINEd_sun_abjtwfukuwddzted.tif,17,0.0333333333333333,0.0333333333333333,0.0833333333333333,1.53333333333333,437397.2988345,437397.9771805,70,437397.3362642,437397.3704031,437397.4525323,437397.983165,437399.5148367,0,0.678345999971498
103,39,6,categorization,0,kitchen,SHINEd_sun_aggjlwcdjsjcaemh.tif,83,0.0333333333333333,0.0333333333333333,0.0833333333333333,1.35,437399.5215959,437400.4411863,70,437399.5586707,437399.5930015,437399.6759963,437400.4468503,437401.7951979,1,0.919590400008019
103,40,6,categorization,0,bathroom,SHINEd_sun_apkxzenqapsujocq.tif,45,0.0333333333333333,0.0333333333333333,0.0833333333333333,1.16666666666667,437401.8013119,437402.4485559,74,437401.8389648,437401.8728874,437401.9553619,437402.4548439,437403.6198485,1,0.647243999992497
103,41,6,categorization,0,bathroom,SHINEd_sun_atstyziqcmkahyxk.tif,51,0.0333333333333333,0.0333333333333333,0.0833333333333333,0.783333333333333,437403.6259141,437405.6972884,74,437403.66307,437403.6971888,437403.7800493,437405.7029537,437406.4846335,1,2.07137430005241
103,42,6,categorization,0,kitchen,SHINEd_sun_acwjdupvyjsugpay.tif,73,0.0333333333333333,0.0333333333333333,0.0833333333333333,0.95,437406.4907033,437407.2760138,70,437406.5280444,437406.5621719,437406.6468785,437407.289415,437408.2377527,1,0.785310500010382
103,43,6,categorization,0,kitchen,SHINEd_sun_avszsnwsbuqfgzbn.tif,105,0.0333333333333333,0.0333333333333333,0.0833333333333333,1.51666666666667,437408.2437649,437408.8331901,70,437408.2818872,437408.3168735,437408.3976239,437408.8387102,437410.3537149,1,0.589425199956167
103,44,6,categorization,0,bathroom,SHINEd_sun_adbqksnwuqqwdpxc.tif,22,0.0333333333333333,0.0333333333333333,0.0833333333333333,1.75,437410.3598147,437410.9698506,74,437410.3968941,437410.4322207,437410.5137177,437410.9755278,437412.7238666,1,0.61003590002656
103,45,6,categorization,0,bathroom,SHINEd_sun_aunuadmjocsddsrl.tif,52,0.0333333333333333,0.0333333333333333,0.0833333333333333,1.68333333333333,437412.7298201,437413.7931677,74,437412.7683849,437412.8016631,437412.884124,437413.7993689,437415.4810408,1,1.06334759999299
103,46,6,categorization,0,bathroom,SHINEd_sun_axxbkopsgyouuebh.tif,58,0.0333333333333333,0.0333333333333333,0.0833333333333333,1.53333333333333,437415.4870058,437416.2724775,74,437415.5238046,437415.5582755,437415.6408603,437416.2811276,437417.8128005,1,0.785471700015478
103,47,6,categorization,0,bathroom,SHINEd_sun_aapitsgbtktqubfy.tif,14,0.0333333333333333,0.0333333333333333,0.0833333333333333,0.833333333333333,437417.8189203,437418.664342,70,437417.8559284,437417.890216,437417.9727975,437418.670178,437419.5018481,0,0.845421699981671
103,48,6,categorization,0,bathroom,SHINEd_sun_anlddfvefwvocyae.tif,40,0.0333333333333333,0.0333333333333333,0.0833333333333333,0.716666666666667,437419.5080626,437420.6014387,74,437419.5461739,437419.5794036,437419.6630757,437420.6079845,437421.3229881,1,1.09337610000512
103,49,6,categorization,0,bathroom,SHINEd_sun_agrwbmhcpmfuwmsg.tif,26,0.0333333333333333,0.0333333333333333,0.0833333333333333,0.866666666666667,437421.329246,437421.9844839,74,437421.3662606,437421.4007685,437421.4828738,437421.9934629,437422.8584868,1,0.65523790003499
103,50,6,categorization,0,bathroom,SHINEd_sun_adbqksnwuqqwdpxc.tif,22,0.0333333333333333,0.0333333333333333,0.0833333333333333,1.86666666666667,437422.8647474,437423.6250331,74,437422.9017222,437422.9362027,437423.0219222,437423.6307099,437425.4957137,1,0.760285700031091
103,1,7,categorization,0,bathroom,SHINEd_sun_abtukhmkjdzyfxhr.tif,18,0.0333333333333333,0.0333333333333333,0.0833333333333333,1.9,437431.9988061,437432.8569183,74,437432.0385929,437432.0709151,437432.1526133,437432.8625849,437434.7609237,1,0.858112199988682
103,2,7,categorization,0,kitchen,SHINEd_sun_aapllqyqlykszopd.tif,65,0.0333333333333333,0.0333333333333333,0.0833333333333333,1.23333333333333,437434.7671297,437435.4490373,74,437434.8045379,437434.839763,437434.9214266,437435.4546264,437436.6862986,0,0.681907600024715
103,3,7,categorization,0,kitchen,SHINEd_sun_abdxkyyxwfskuaqb.tif,68,0.0333333333333333,0.0333333333333333,0.0833333333333333,0.75,437436.6923026,437437.3845782,74,437436.7300212,437436.7638479,437436.8459886,437437.3916714,437438.1400085,0,0.692275599983986
103,4,7,categorization,0,kitchen,SHINEd_sun_aeikbkmhphqzxdkv.tif,79,0.0333333333333333,0.0333333333333333,0.0833333333333333,1.66666666666667,437438.1458644,437438.8244453,74,437438.1834317,437438.2172895,437438.2995597,437438.8313957,437440.4964142,0,0.678580899955705
103,5,7,categorization,0,bathroom,SHINEd_sun_ambriybtogmepttm.tif,36,0.0333333333333333,0.0333333333333333,0.0833333333333333,1.11666666666667,437440.5029627,437441.4029218,74,437440.5403712,437440.5744199,437440.6566728,437441.4085539,437442.5235577,1,0.899959100002889
103,6,7,categorization,0,kitchen,SHINEd_sun_alpduwskzkgbcfui.tif,98,0.0333333333333333,0.0333333333333333,0.0833333333333333,1.48333333333333,437442.5295373,437443.1124404,70,437442.5667756,437442.6011182,437442.6834272,437443.1189341,437444.6006063,1,0.582903100003023
103,7,7,categorization,0,kitchen,SHINEd_sun_aaxxjlsuzvqlgylf.tif,66,0.0333333333333333,0.0333333333333333,0.0833333333333333,1.01666666666667,437444.6072771,437445.3051726,70,437444.6444384,437444.6788894,437444.7609896,437445.3107963,437446.3258003,1,0.697895500052255
103,8,7,categorization,0,kitchen,SHINEd_sun_axaiaptzctpidqzg.tif,108,0.0333333333333333,0.0333333333333333,0.0833333333333333,1.96666666666667,437446.3335242,437447.016457,70,437446.3703937,437446.4074207,437446.4871664,437447.0230759,437448.9880814,1,0.682932799973059
103,9,7,categorization,0,kitchen,SHINEd_sun_aiffeoqzngslhzfi.tif,93,0.0333333333333333,0.0333333333333333,0.0833333333333333,1.86666666666667,437448.9955498,437449.672479,70,437449.0337676,437449.0668226,437449.149047,437449.6786598,437451.543665,1,0.676929200009909
103,10,7,categorization,0,bathroom,SHINEd_sun_ahqjwnzgolcaoidx.tif,29,0.0333333333333333,0.0333333333333333,0.0833333333333333,0.916666666666667,437451.5502386,437452.2404877,70,437451.5871167,437451.6215425,437451.7075685,437452.2464843,437453.1614902,0,0.690249099978246
103,11,7,categorization,0,bathroom,SHINEd_sun_ahqjwnzgolcaoidx.tif,29,0.0333333333333333,0.0333333333333333,0.0833333333333333,1.48333333333333,437453.1679841,437453.8623157,70,437453.2050046,437453.2393737,437453.3218088,437453.8742011,437455.3558849,0,0.694331599981524
103,12,7,categorization,0,kitchen,SHINEd_sun_aiffeoqzngslhzfi.tif,93,0.0333333333333333,0.0333333333333333,0.0833333333333333,1.31666666666667,437455.3622827,437456.6403988,70,437455.3994034,437455.4336447,437455.5185449,437456.6466154,437457.9616193,1,1.27811610000208
103,13,7,categorization,0,bathroom,SHINEd_sun_aovflwamhlwzwvxs.tif,42,0.0333333333333333,0.0333333333333333,0.0833333333333333,0.95,437457.9678635,437458.7541743,74,437458.0051991,437458.0399523,437458.121806,437458.760102,437459.7084408,1,0.786310800001957
103,14,7,categorization,0,kitchen,SHINEd_sun_awbyfefkbcrlrqws.tif,106,0.0333333333333333,0.0333333333333333,0.0833333333333333,1.71666666666667,437459.7143736,437461.2092495,70,437459.75205,437459.7857352,437459.8706738,437461.2151189,437462.9301245,1,1.49487589998171
103,15,7,categorization,0,kitchen,SHINEd_sun_aggjlwcdjsjcaemh.tif,83,0.0333333333333333,0.0333333333333333,0.0833333333333333,1.96666666666667,437462.9365838,437463.5443418,70,437462.9738131,437463.0086083,437463.0906654,437463.5505589,437465.5155628,1,0.607757999969181
103,16,7,categorization,0,kitchen,SHINEd_sun_aamedkxepzlwuxes.tif,63,0.0333333333333333,0.0333333333333333,0.0833333333333333,0.933333333333333,437465.5213769,437466.1694393,70,437465.5584653,437465.5960725,437465.6753981,437466.1754555,437467.1071281,1,0.648062399995979
103,17,7,categorization,0,bathroom,SHINEd_sun_ausgutylgojavyoq.tif,53,0.0333333333333333,0.0333333333333333,0.0833333333333333,1.03333333333333,437467.1130891,437468.067129,70,437467.1507264,437467.1845495,437467.2667499,437468.0726005,437469.1042732,0,0.954039899981581
103,18,7,categorization,0,kitchen,SHINEd_sun_awbyfefkbcrlrqws.tif,106,0.0333333333333333,0.0333333333333333,0.0833333333333333,0.816666666666667,437469.1104111,437469.7772676,70,437469.1478668,437469.1848904,437469.2641143,437469.7828631,437470.5978701,1,0.666856500029098
103,19,7,categorization,0,bathroom,SHINEd_sun_amzlamotzwfkwjco.tif,38,0.0333333333333333,0.0333333333333333,0.0833333333333333,1.91666666666667,437470.6037843,437472.0484159,74,437470.640601,437470.6750727,437470.7581638,437472.055446,437473.9704504,1,1.44463159999577
103,20,7,categorization,0,kitchen,SHINEd_sun_aamedkxepzlwuxes.tif,63,0.0333333333333333,0.0333333333333333,0.0833333333333333,1.38333333333333,437473.9765481,437475.5924271,70,437474.0135343,437474.048074,437474.1303305,437475.5998457,437476.9815176,1,1.61587899998995
103,21,7,categorization,0,kitchen,SHINEd_sun_awbyfefkbcrlrqws.tif,106,0.0333333333333333,0.0333333333333333,0.0833333333333333,1.96666666666667,437476.9875222,437477.6653007,70,437477.0246334,437477.0590188,437477.1415019,437477.6709596,437479.6359645,1,0.677778500015847
103,22,7,categorization,0,bathroom,SHINEd_sun_agrwbmhcpmfuwmsg.tif,26,0.0333333333333333,0.0333333333333333,0.0833333333333333,1.68333333333333,437479.642298,437480.568955,74,437479.6808027,437479.7156617,437479.7959314,437480.5745656,437482.2562376,1,0.926657000032719
103,23,7,categorization,0,bathroom,SHINEd_sun_aunuadmjocsddsrl.tif,52,0.0333333333333333,0.0333333333333333,0.0833333333333333,1.08333333333333,437482.2623167,437483.0905624,74,437482.2994008,437482.3336271,437482.4162154,437483.0964152,437484.1780876,1,0.828245699987747
103,24,7,categorization,0,bathroom,SHINEd_labelme_sfxiulhjbhlyiyt.tif,11,0.0333333333333333,0.0333333333333333,0.0833333333333333,0.766666666666667,437484.1847295,437485.1044454,74,437484.2219601,437484.2559485,437484.3383821,437485.1110034,437485.8760076,1,0.919715900032315
103,25,7,categorization,0,bathroom,SHINEd_sun_ammzpemadwrjdfzl.tif,37,0.0333333333333333,0.0333333333333333,0.0833333333333333,0.75,437485.882039,437486.6587858,74,437485.9190898,437485.9533509,437486.0372899,437486.664568,437487.4129062,1,0.776746799994726
103,26,7,categorization,0,kitchen,SHINEd_sun_ajcbwwvdlsvjyzje.tif,94,0.0333333333333333,0.0333333333333333,0.0833333333333333,1.53333333333333,437487.4187367,437488.4332576,70,437487.4564342,437487.4901364,437487.572598,437488.4390927,437489.970764,1,1.01452089997474
103,27,7,categorization,0,kitchen,SHINEd_sun_aadbddgrdsjugojn.tif,62,0.0333333333333333,0.0333333333333333,0.0833333333333333,1.86666666666667,437489.9768381,437490.585445,70,437490.0138253,437490.0503432,437490.1305778,437490.5909636,437492.4559698,1,0.608606899972074
103,28,7,categorization,0,kitchen,SHINEd_sun_ahvszpwjtodgwusx.tif,91,0.0333333333333333,0.0333333333333333,0.0833333333333333,0.916666666666667,437492.4620346,437493.4331265,70,437492.4988955,437492.5378136,437492.6161868,437493.4385595,437494.3535639,1,0.971091900020838
103,29,7,categorization,0,kitchen,SHINEd_sun_awbyfefkbcrlrqws.tif,106,0.0333333333333333,0.0333333333333333,0.0833333333333333,1.2,437494.3594343,437494.9351622,70,437494.3965529,437494.4309544,437494.5132229,437494.9451222,437496.1434609,1,0.575727900024503
103,30,7,categorization,0,kitchen,SHINEd_sun_anbcmfjhobvmedkq.tif,100,0.0333333333333333,0.0333333333333333,0.0833333333333333,0.733333333333333,437496.1494458,437497.1546412,70,437496.1865478,437496.2206099,437496.3032413,437497.1605093,437497.8921822,1,1.00519539997913
103,31,7,categorization,0,kitchen,SHINEd_sun_abdenxonkemggwsq.tif,67,0.0333333333333333,0.0333333333333333,0.0833333333333333,1.13333333333333,437497.8987748,437498.5929543,70,437497.9356216,437497.9702209,437498.052316,437498.5985008,437499.7301719,1,0.694179499987513
103,32,7,categorization,0,kitchen,SHINEd_sun_ataniphupyuxeowc.tif,102,0.0333333333333333,0.0333333333333333,0.0833333333333333,0.8,437499.7361573,437500.3613328,70,437499.7734064,437499.8073936,437499.8902254,437500.3675618,437501.1659013,1,0.625175499997567
103,33,7,categorization,0,kitchen,SHINEd_sun_auaiucuqpdausiva.tif,103,0.0333333333333333,0.0333333333333333,0.0833333333333333,1.58333333333333,437501.1719752,437502.017231,70,437501.2090189,437501.2432856,437501.3257692,437502.0230603,437503.604731,1,0.845255799998995
103,34,7,categorization,0,kitchen,SHINEd_sun_aqeaevwwwjoqhzvl.tif,101,0.0333333333333333,0.0333333333333333,0.0833333333333333,1.65,437503.6108704,437504.3844393,70,437503.6488795,437503.6821038,437503.7651101,437504.3908658,437506.0392053,1,0.773568900011014
103,35,7,categorization,0,kitchen,SHINEd_sun_awbyfefkbcrlrqws.tif,106,0.0333333333333333,0.0333333333333333,0.0833333333333333,1.2,437506.0453028,437506.663843,70,437506.0822031,437506.1166364,437506.1990421,437506.6727399,437507.8710783,1,0.618540199997369
103,36,7,categorization,0,bathroom,SHINEd_sun_aiskgiwswewisvph.tif,30,0.0333333333333333,0.0333333333333333,0.0833333333333333,1.91666666666667,437507.8772126,437510.1130183,70,437507.9148168,437507.9486359,437508.0306407,437510.1186263,437512.0336298,0,2.23580569995102
103,37,7,categorization,0,bathroom,SHINEd_sun_agrwbmhcpmfuwmsg.tif,26,0.0333333333333333,0.0333333333333333,0.0833333333333333,0.783333333333333,437512.0398881,437512.7368792,70,437512.0769197,437512.1112287,437512.1964031,437512.7431945,437513.5248657,0,0.696991099976003
103,38,7,categorization,0,bathroom,SHINEd_sun_ahcvzmoyaycdoftf.tif,28,0.0333333333333333,0.0333333333333333,0.0833333333333333,0.75,437513.5309657,437516.3357164,70,437513.5681253,437513.602473,437513.6845469,437516.3455848,437517.0939221,0,2.80475070001557
103,39,7,categorization,0,bathroom,SHINEd_sun_awnqiikzaispgmwo.tif,56,0.0333333333333333,0.0333333333333333,0.0833333333333333,0.966666666666667,437517.099962,437518.0004305,70,437517.136905,437517.1713362,437517.2535644,437518.0076823,437518.9726857,0,0.900468500040006
103,40,7,categorization,0,bathroom,SHINEd_sun_anhioqovhscjqqwb.tif,39,0.0333333333333333,0.0333333333333333,0.0833333333333333,0.933333333333333,437518.9790084,437519.6404799,74,437519.0166749,437519.0504338,437519.1330501,437519.646975,437520.5786456,1,0.661471500003245
103,41,7,categorization,0,kitchen,SHINEd_sun_aadbddgrdsjugojn.tif,62,0.0333333333333333,0.0333333333333333,0.0833333333333333,1.15,437520.584809,437521.2176838,70,437520.621935,437520.6561802,437520.7421932,437521.2249081,437522.3732461,1,0.632874799950514
103,42,7,categorization,0,kitchen,SHINEd_sun_acfmftudsenhrfhy.tif,72,0.0333333333333333,0.0333333333333333,0.0833333333333333,0.733333333333333,437522.3797918,437523.2423329,70,437522.4167598,437522.4510546,437522.5335288,437523.2483839,437523.9800566,1,0.862541100010276
103,43,7,categorization,0,kitchen,SHINEd_sun_alpduwskzkgbcfui.tif,98,0.0333333333333333,0.0333333333333333,0.0833333333333333,1.08333333333333,437523.9860506,437525.9281313,70,437524.0242969,437524.0575734,437524.1402587,437525.9354118,437527.0170831,1,1.94208070001332
103,44,7,categorization,0,bathroom,SHINEd_sun_aqrpegblszgcoujh.tif,47,0.0333333333333333,0.0333333333333333,0.0833333333333333,0.75,437527.0236048,437527.6713529,70,437527.0630999,437527.0950661,437527.1783527,437527.6802327,437528.4285717,0,0.647748099989258
103,45,7,categorization,0,bathroom,SHINEd_sun_adwvsndpdsgzeste.tif,23,0.0333333333333333,0.0333333333333333,0.0833333333333333,1.63333333333333,437528.4348468,437529.248909,74,437528.472077,437528.5061698,437528.5926714,437529.2545493,437530.8862211,1,0.814062200020999
103,46,7,categorization,0,bathroom,SHINEd_sun_awnqiikzaispgmwo.tif,56,0.0333333333333333,0.0333333333333333,0.0833333333333333,1.41666666666667,437530.8925302,437531.8884321,74,437530.931099,437530.9641088,437531.0464498,437531.8953439,437533.3103489,1,0.995901899994351
103,47,7,categorization,0,kitchen,SHINEd_sun_abdxkyyxwfskuaqb.tif,68,0.0333333333333333,0.0333333333333333,0.0833333333333333,0.783333333333333,437533.3169588,437534.3693052,70,437533.354526,437533.388431,437533.4711769,437534.3750796,437535.1567498,1,1.05234639998525
103,48,7,categorization,0,bathroom,SHINEd_sun_asfwthctfqerjvxr.tif,49,0.0333333333333333,0.0333333333333333,0.0833333333333333,1.25,437535.1630109,437536.3444089,70,437535.2001755,437535.2352492,437535.3170279,437536.3519982,437537.6003371,0,1.18139799998607
103,49,7,categorization,0,bathroom,SHINEd_sun_aljolscmmzydegqp.tif,34,0.0333333333333333,0.0333333333333333,0.0833333333333333,0.983333333333333,437537.6062386,437538.7444115,74,437537.6433538,437537.6777864,437537.7597456,437538.7511715,437539.7328586,1,1.13817290001316
103,50,7,categorization,0,bathroom,SHINEd_sun_aunuadmjocsddsrl.tif,52,0.0333333333333333,0.0333333333333333,0.0833333333333333,1.18333333333333,437539.7416219,437540.3140727,74,437539.7793093,437539.8130268,437539.8972579,437540.3195823,437541.501253,1,0.572450799983926
