sub_num,trial,block,task,is_practice,category,image,texture,duration,mask_dur,jitter,stim_time,time_of_resp,trial_response,mask_time,fix_time,jit_onset,trial_end,trial_accuracy,RT
130,1,0,categorization,1,bathroom,SHINEd_bathroom_practice4.tif,114,0.0666666666666667,0.0666666666666667,1.21666666666667,7586.163490916,7588.146956791,13,7586.229323583,7586.289339708,7588.177031916,7589.387315416,1,1.98346587499964
130,2,0,categorization,1,bathroom,SHINEd_bathroom_practice5.tif,115,0.0666666666666667,0.0666666666666667,1.36666666666667,7589.442875083,7590.958212583,13,7589.515674916,7589.57549625,7591.006376416,7592.366607708,1,1.51533749999999
130,3,0,categorization,1,bathroom,SHINEd_bathroom_practice2.tif,112,0.0666666666666667,0.0666666666666667,1.85,7592.41533825,7593.557209125,9,7592.488163291,7592.544512666,7593.587454875,7595.431037,0,1.14187087499977
130,4,0,categorization,1,kitchen,SHINEd_kitchen_practice4.tif,119,0.0666666666666667,0.0666666666666667,1.55,7595.459016583,7596.444109458,9,7595.528838916,7595.591882041,7596.469300833,7598.012885833,1,0.985092874999282
130,5,0,categorization,1,bathroom,SHINEd_bathroom_practice1.tif,111,0.0666666666666667,0.0666666666666667,1.48333333333333,7598.046373875,7598.879635791,13,7598.119666083,7598.18143,7598.920789,7600.398487583,1,0.833261915999174
130,6,0,categorization,1,kitchen,SHINEd_kitchen_practice3.tif,118,0.0666666666666667,0.0666666666666667,1.15,7600.427420791,7601.605177041,9,7600.496320958,7600.558084708,7601.633901291,7602.777432125,1,1.17775625000013
130,7,0,categorization,1,kitchen,SHINEd_kitchen_practice2.tif,117,0.0666666666666667,0.0666666666666667,0.733333333333333,7602.788219041,7603.726815666,9,7602.857302041,7602.923187333,7603.747463625,7604.474170291,1,0.938596625000173
130,8,0,categorization,1,bathroom,SHINEd_bathroom_practice3.tif,113,0.0666666666666667,0.0666666666666667,1.6,7604.4859385,7605.210284791,13,7604.550996416,7604.618483,7605.220715125,7606.814089666,1,0.724346291000074
130,9,0,categorization,1,kitchen,SHINEd_kitchen_practice1.tif,116,0.0666666666666667,0.0666666666666667,0.716666666666667,7606.83470675,7608.223160125,13,7606.901775333,7606.968048041,7608.240237291,7608.950243958,0,1.3884533749997
130,10,0,categorization,1,kitchen,SHINEd_kitchen_practice5.tif,120,0.0666666666666667,0.0666666666666667,1.21666666666667,7608.955774625,7609.898776958,9,7609.017564083,7609.078425333,7609.913689791,7611.123730791,1,0.94300233299964
130,1,1,categorization,0,bathroom,SHINEd_sun_asfwthctfqerjvxr.tif,49,0.0666666666666667,0.0666666666666667,1.23333333333333,7638.969338416,7640.251155458,9,7639.0317445,7639.092404625,7640.261403833,7641.488230416,0,1.2818170419996
130,2,1,categorization,0,bathroom,SHINEd_sun_agguqiubmwhqqunb.tif,22,0.0666666666666667,0.0666666666666667,0.783333333333333,7641.506358791,7642.597986333,9,7641.57332975,7641.639466791,7642.6109655,7643.387637375,0,1.09162754200042
130,3,1,categorization,0,kitchen,SHINEd_sun_aqeaevwwwjoqhzvl.tif,101,0.0666666666666667,0.0666666666666667,0.75,7643.393622833,7644.642508666,9,7643.455553333,7643.516554541,7644.652059041,7645.395398416,1,1.2488858329998
130,4,1,categorization,0,bathroom,SHINEd_sun_agrwbmhcpmfuwmsg.tif,24,0.0666666666666667,0.0666666666666667,1.23333333333333,7645.402275583,7646.706741291,13,7645.464057041,7645.525084708,7646.710451541,7647.937161041,1,1.30446570799995
130,5,1,categorization,0,bathroom,SHINEd_sun_ambriybtogmepttm.tif,36,0.0666666666666667,0.0666666666666667,1.13333333333333,7647.955273833,7648.932897708,9,7648.022418291,7648.088279375,7648.961952458,7650.088667458,0,0.977623875000063
130,6,1,categorization,0,bathroom,SHINEd_sun_azqyogdvyhahyram.tif,60,0.0666666666666667,0.0666666666666667,0.95,7650.098909791,7650.938132375,13,7650.164046666,7650.232635625,7650.955542625,7651.898910375,1,0.839222584000709
130,7,1,categorization,0,bathroom,SHINEd_sun_alotolagknyrgtsk.tif,35,0.0666666666666667,0.0666666666666667,0.733333333333333,7651.913143125,7653.482790166,13,7651.97759425,7652.036662625,7653.488944666,7654.215616166,1,1.56964704100028
130,8,1,categorization,0,kitchen,SHINEd_sun_auaiucuqpdausiva.tif,102,0.0666666666666667,0.0666666666666667,1.31666666666667,7654.220217791,7655.162914583,13,7654.28193425,7654.342933791,7655.178173083,7656.488211291,0,0.942696791999879
130,9,1,categorization,0,bathroom,SHINEd_sun_auzqhkafidnkrwmo.tif,54,0.0666666666666667,0.0666666666666667,0.8,7656.503938625,7657.428150958,9,7656.56793875,7656.634526458,7657.457859541,7658.251228708,0,0.924212332999559
130,10,1,categorization,0,kitchen,SHINEd_sun_aaxxjlsuzvqlgylf.tif,68,0.0666666666666667,0.0666666666666667,0.716666666666667,7658.26266525,7658.978119875,9,7658.325264416,7658.385341833,7658.987184875,7659.697188791,1,0.715454624999438
130,11,1,categorization,0,bathroom,SHINEd_sun_apmqjbnwghzuhhzh.tif,46,0.0666666666666667,0.0666666666666667,0.916666666666667,7659.702028458,7660.682054333,13,7659.763753416,7659.824849708,7660.693387041,7661.603393166,1,0.980025875000138
130,12,1,categorization,0,kitchen,SHINEd_sun_abpwyqmlzafvklqo.tif,72,0.0666666666666667,0.0666666666666667,0.95,7661.608634333,7662.754901416,13,7661.670348916,7661.731289708,7662.766410541,7663.709748666,0,1.14626708300057
130,13,1,categorization,0,bathroom,SHINEd_sun_abapwbhyhkfixyex.tif,14,0.0666666666666667,0.0666666666666667,0.833333333333333,7663.714619458,7664.547042041,9,7663.776342375,7663.837266875,7664.55571925,7665.382392125,0,0.832422583000152
130,14,1,categorization,0,bathroom,SHINEd_sun_acgyywnybuveqsro.tif,18,0.0666666666666667,0.0666666666666667,0.75,7665.387207708,7666.747054375,13,7665.448840125,7665.509948583,7666.762180458,7667.505518375,1,1.35984666700006
130,15,1,categorization,0,kitchen,SHINEd_sun_aapllqyqlykszopd.tif,66,0.0666666666666667,0.0666666666666667,1.53333333333333,7667.510125541,7668.306097583,9,7667.571916875,7667.632933708,7668.318096708,7669.844811625,1,0.795972042000358
130,16,1,categorization,0,bathroom,SHINEd_labelme_sfxiulhjbhlyiyt.tif,11,0.0666666666666667,0.0666666666666667,1.05,7669.862781375,7671.167156708,9,7669.929338708,7669.995829958,7671.189066791,7672.23244875,0,1.30437533300028
130,17,1,categorization,0,bathroom,SHINEd_sun_aqrpegblszgcoujh.tif,48,0.0666666666666667,0.0666666666666667,0.9,7672.245057166,7674.030762291,9,7672.309873125,7672.3766955,7674.053698375,7674.947036958,0,1.78570512500028
130,18,1,categorization,0,bathroom,SHINEd_sun_axxbkopsgyouuebh.tif,58,0.0666666666666667,0.0666666666666667,1.18333333333333,7674.952223833,7676.442403625,13,7675.014070458,7675.0752375,7676.461004875,7677.63772375,1,1.49017979200016
130,19,1,categorization,0,bathroom,SHINEd_sun_axyrejkiiaqiurjk.tif,59,0.0666666666666667,0.0666666666666667,0.9,7677.648998458,7678.938989791,13,7677.717222041,7677.78217725,7678.957396833,7679.850736083,1,1.28999133299931
130,20,1,categorization,0,kitchen,SHINEd_sun_acwjdupvyjsugpay.tif,76,0.0666666666666667,0.0666666666666667,1.66666666666667,7679.855652333,7680.906317625,9,7679.917451625,7679.978402666,7680.913582083,7682.573631333,1,1.0506652920003
130,21,1,categorization,0,kitchen,SHINEd_sun_acfmftudsenhrfhy.tif,74,0.0666666666666667,0.0666666666666667,1.13333333333333,7682.586081416,7683.619995375,9,7682.652722041,7682.718952541,7683.642359333,7684.769067666,1,1.03391395900053
130,22,1,categorization,0,kitchen,SHINEd_sun_ahywdevtimnqcsln.tif,94,0.0666666666666667,0.0666666666666667,1.3,7684.777816916,7685.934905291,9,7684.8428275,7684.911730875,7685.95094075,7687.244309125,1,1.15708837500006
130,23,1,categorization,0,bathroom,SHINEd_sun_ahcvzmoyaycdoftf.tif,27,0.0666666666666667,0.0666666666666667,1.93333333333333,7687.262684375,7688.052418,13,7687.329556041,7687.396206208,7688.067761541,7689.994484291,1,0.789733624999826
130,24,1,categorization,0,kitchen,SHINEd_sun_ajcbwwvdlsvjyzje.tif,96,0.0666666666666667,0.0666666666666667,1,7690.012706416,7691.353973458,13,7690.079443,7690.145321375,7691.364068916,7692.357406583,0,1.34126704200025
130,25,1,categorization,0,bathroom,SHINEd_sun_aoybiabnpadelefl.tif,41,0.0666666666666667,0.0666666666666667,0.883333333333333,7692.362703,7693.482962708,9,7692.424374416,7692.485416041,7693.487215875,7694.36388625,0,1.12025970800005
130,26,1,categorization,0,kitchen,SHINEd_sun_abrcnpqqhmjwekyf.tif,73,0.0666666666666667,0.0666666666666667,1.95,7694.368664625,7696.450535791,9,7694.430410166,7694.491421208,7696.460396291,7698.403781375,1,2.08187116600038
130,27,1,categorization,0,kitchen,SHINEd_sun_ahspylgoovwmwvgk.tif,93,0.0666666666666667,0.0666666666666667,1.25,7698.422714625,7699.389160166,9,7698.489736666,7698.554099291,7699.411279,7700.654654291,1,0.966445541000212
130,28,1,categorization,0,bathroom,SHINEd_sun_awnqiikzaispgmwo.tif,56,0.0666666666666667,0.0666666666666667,1.95,7700.664628791,7701.506345416,13,7700.731631375,7700.798280666,7701.520636083,7703.464015208,1,0.841716625000117
130,29,1,categorization,0,kitchen,SHINEd_sun_aegoxogugdkwpmpj.tif,80,0.0666666666666667,0.0666666666666667,1.91666666666667,7703.482471166,7705.2103115,13,7703.5490705,7703.615209708,7705.217505208,7707.127550458,0,1.72784033399967
130,30,1,categorization,0,bathroom,SHINEd_sun_aapitsgbtktqubfy.tif,12,0.0666666666666667,0.0666666666666667,1.41666666666667,7707.144929166,7708.48298375,9,7707.213073916,7707.27790625,7708.4966745,7709.906735041,0,1.33805458400002
130,31,1,categorization,0,kitchen,SHINEd_sun_ahpczsiumwwocjkv.tif,92,0.0666666666666667,0.0666666666666667,0.716666666666667,7709.925128958,7710.686545125,9,7709.992360375,7710.059566416,7710.716322916,7711.42637525,1,0.761416166999879
130,32,1,categorization,0,bathroom,SHINEd_sun_ahaulkltgpkeeemi.tif,26,0.0666666666666667,0.0666666666666667,1.28333333333333,7711.442859666,7712.442368416,13,7711.510247541,7711.5673745,7712.452826666,7713.729549875,1,0.999508750000132
130,33,1,categorization,0,kitchen,SHINEd_sun_axyyrmzcupyhlivc.tif,107,0.0666666666666667,0.0666666666666667,0.9,7713.747262708,7714.985723875,9,7713.814361666,7713.879909333,7715.004736583,7715.8980755,1,1.23846116700042
130,34,1,categorization,0,kitchen,SHINEd_sun_ajkqhtgcbgpcwrwn.tif,97,0.0666666666666667,0.0666666666666667,0.8,7715.903475416,7717.146211916,9,7715.96527325,7716.026223666,7717.161566,7717.954905041,1,1.24273649999941
130,35,1,categorization,0,kitchen,SHINEd_sun_aenotlpyftoioydp.tif,82,0.0666666666666667,0.0666666666666667,1.01666666666667,7717.959935,7719.202165541,9,7718.021723416,7718.082657291,7719.217847416,7720.22789475,1,1.24223054100003
130,36,1,categorization,0,bathroom,SHINEd_sun_aspsyogrekjtfozg.tif,50,0.0666666666666667,0.0666666666666667,0.85,7720.237821791,7721.109668708,13,7720.302577416,7720.368941291,7721.123622041,7721.966998333,1,0.871846916999857
130,37,1,categorization,0,bathroom,SHINEd_sun_acegryoqftbzowsg.tif,17,0.0666666666666667,0.0666666666666667,1.51666666666667,7721.984538625,7723.106461791,13,7722.051659875,7722.117341166,7723.119310125,7724.629367125,1,1.12192316599976
130,38,1,categorization,0,kitchen,SHINEd_sun_aadbddgrdsjugojn.tif,64,0.0666666666666667,0.0666666666666667,1.83333333333333,7724.640302875,7725.651442958,9,7724.709409958,7724.772821291,7725.68016575,7727.506867375,1,1.0111400830001
130,39,1,categorization,0,bathroom,SHINEd_sun_aleqenyvunhactkl.tif,32,0.0666666666666667,0.0666666666666667,0.716666666666667,7727.524759541,7728.541024041,13,7727.593835458,7727.658463583,7728.563600916,7729.273607666,1,1.01626450000003
130,40,1,categorization,0,bathroom,SHINEd_sun_ausgutylgojavyoq.tif,53,0.0666666666666667,0.0666666666666667,0.9,7729.278729041,7730.098136875,13,7729.340537958,7729.401552041,7730.1033825,7730.996719916,1,0.819407834000231
130,41,1,categorization,0,kitchen,SHINEd_sun_amjjdeyrggfqgmom.tif,100,0.0666666666666667,0.0666666666666667,0.916666666666667,7731.001865958,7731.778141916,9,7731.0637165,7731.124595875,7731.793148791,7732.703153583,1,0.776275958000042
130,42,1,categorization,0,kitchen,SHINEd_sun_aixorpehvfykdynp.tif,95,0.0666666666666667,0.0666666666666667,0.816666666666667,7732.707909708,7733.650171916,9,7732.769608875,7732.830523666,7733.665637666,7734.475641583,1,0.942262207999192
130,43,1,categorization,0,kitchen,SHINEd_sun_abftihopvusyfakt.tif,71,0.0666666666666667,0.0666666666666667,1.88333333333333,7734.480547583,7735.378564875,9,7734.5422585,7734.603283125,7735.388402166,7737.265116708,1,0.898017292000077
130,44,1,categorization,0,bathroom,SHINEd_sun_apkruvsevgegsdwp.tif,44,0.0666666666666667,0.0666666666666667,0.9,7737.282937583,7738.130648541,13,7737.349132583,7737.415872166,7738.156190208,7739.049528416,1,0.84771095799988
130,45,1,categorization,0,bathroom,SHINEd_sun_amzlamotzwfkwjco.tif,37,0.0666666666666667,0.0666666666666667,1,7739.054609458,7740.194182875,13,7739.116322625,7739.177349041,7740.212523625,7741.205861833,1,1.13957341699916
130,46,1,categorization,0,kitchen,SHINEd_sun_azmutvzbxypaceni.tif,110,0.0666666666666667,0.0666666666666667,0.733333333333333,7741.210604791,7742.46624425,9,7741.27234275,7741.333399291,7742.4854885,7743.212162041,1,1.25563945900012
130,47,1,categorization,0,bathroom,SHINEd_sun_abjtwfukuwddzted.tif,15,0.0666666666666667,0.0666666666666667,0.883333333333333,7743.218312333,7744.561938416,13,7743.28004025,7743.341095,7744.576852791,7745.453524625,1,1.34362608300034
130,48,1,categorization,0,bathroom,SHINEd_sun_apynckhmoftszqoq.tif,47,0.0666666666666667,0.0666666666666667,1.73333333333333,7745.458137625,7746.498256666,13,7745.520015166,7745.580842,7746.516146666,7748.24286825,1,1.04011904100025
130,49,1,categorization,0,kitchen,SHINEd_sun_adgqasybjyktddhj.tif,78,0.0666666666666667,0.0666666666666667,1.91666666666667,7748.2606935,7749.745924625,9,7748.327529625,7748.39395975,7749.762500291,7751.672537208,1,1.4852311249997
130,50,1,categorization,0,kitchen,SHINEd_sun_afuyedyxivkhecmu.tif,85,0.0666666666666667,0.0666666666666667,1.35,7751.691028958,7752.820617,9,7751.758027208,7751.823640583,7752.84368675,7754.187077291,1,1.12958804200025
130,1,2,categorization,0,kitchen,SHINEd_sun_aypmqwcualkenuoe.tif,109,0.0666666666666667,0.0666666666666667,0.95,7776.869344666,7777.56993575,9,7776.931889333,7776.992331958,7777.577545958,7778.520885,1,0.700591083999825
130,2,2,categorization,0,bathroom,SHINEd_sun_aavhrsfjbserjtht.tif,13,0.0666666666666667,0.0666666666666667,0.75,7778.525633583,7779.369767,9,7778.587408125,7778.648347625,7779.383463416,7780.126799916,0,0.844133417000194
130,3,2,categorization,0,kitchen,SHINEd_sun_acxkpeoqbwcxfvip.tif,77,0.0666666666666667,0.0666666666666667,1.68333333333333,7780.131621916,7781.026182416,13,7780.19352525,7780.254334208,7781.039576041,7782.716294583,0,0.894560499999898
130,4,2,categorization,0,kitchen,SHINEd_sun_aggjlwcdjsjcaemh.tif,86,0.0666666666666667,0.0666666666666667,0.816666666666667,7782.733826375,7783.994667916,9,7782.800525708,7782.866951666,7784.023241541,7784.833245958,1,1.26084154100045
130,5,2,categorization,0,bathroom,SHINEd_sun_agyqfjcfkdcydepw.tif,25,0.0666666666666667,0.0666666666666667,0.916666666666667,7784.837948875,7786.594050583,13,7784.899712375,7784.960690333,7786.612998666,7787.523002791,1,1.75610170800064
130,6,2,categorization,0,kitchen,SHINEd_sun_akcjzhbbjlbogpdi.tif,99,0.0666666666666667,0.0666666666666667,1.21666666666667,7787.527929875,7788.569819708,9,7787.589608125,7787.65052925,7788.585691875,7789.795735791,1,1.04188983299991
130,7,2,categorization,0,kitchen,SHINEd_sun_aamedkxepzlwuxes.tif,65,0.0666666666666667,0.0666666666666667,0.9,7789.814992291,7790.692438916,9,7789.88235225,7789.947824541,7790.720564791,7791.613937541,1,0.87744662500063
130,8,2,categorization,0,kitchen,SHINEd_sun_akchetnepxlcxhsu.tif,98,0.0666666666666667,0.0666666666666667,1.65,7791.623569041,7792.69815175,9,7791.685459208,7791.74632475,7792.714898208,7794.358277625,1,1.07458270899951
130,9,2,categorization,0,bathroom,SHINEd_sun_aljolscmmzydegqp.tif,33,0.0666666666666667,0.0666666666666667,1.15,7794.37619575,7795.291393458,13,7794.443032541,7794.505291375,7795.3115855,7796.454962041,1,0.915197708000051
130,10,2,categorization,0,kitchen,SHINEd_sun_acgtpgfybqjmzeyw.tif,75,0.0666666666666667,0.0666666666666667,1.13333333333333,7796.465713375,7797.870404541,9,7796.52982675,7796.597456708,7797.889779166,7799.016479166,1,1.4046911660007
130,11,2,categorization,0,bathroom,SHINEd_sun_alkosphxlxwjwgjd.tif,34,0.0666666666666667,0.0666666666666667,1.76666666666667,7799.026075333,7800.339672916,13,7799.091305458,7799.159111875,7800.3672985,7802.127350666,1,1.31359758300005
130,12,2,categorization,0,kitchen,SHINEd_sun_aexklacwqwezaorf.tif,84,0.0666666666666667,0.0666666666666667,1.8,7802.145239041,7803.394628791,9,7802.212334875,7802.27791775,7803.421052583,7805.214428,1,1.24938974999986
130,13,2,categorization,0,kitchen,SHINEd_sun_aarfiyshqohlwkmo.tif,67,0.0666666666666667,0.0666666666666667,0.9,7805.226782375,7806.538547833,13,7805.294087208,7805.3599505,7806.545889,7807.439227041,0,1.31176545800008
130,14,2,categorization,0,bathroom,SHINEd_sun_ajlawzvmubibwbpy.tif,30,0.0666666666666667,0.0666666666666667,0.716666666666667,7807.443989416,7808.641722333,9,7807.505846708,7807.566852166,7808.652174208,7809.3621805,0,1.19773291700039
130,15,2,categorization,0,kitchen,SHINEd_sun_abdenxonkemggwsq.tif,69,0.0666666666666667,0.0666666666666667,1.36666666666667,7809.367985791,7811.13002575,13,7809.429812583,7809.490660958,7811.142914083,7812.502936958,0,1.76203995899959
130,16,2,categorization,0,kitchen,SHINEd_labelme_rykdqxenmhulbdn.tif,63,0.0666666666666667,0.0666666666666667,0.916666666666667,7812.515485375,7813.330397125,13,7812.580413291,7812.649116291,7813.355678208,7814.2656905,0,0.814911749999737
130,17,2,categorization,0,bathroom,SHINEd_sun_aggnnqpdorgxpvce.tif,21,0.0666666666666667,0.0666666666666667,0.716666666666667,7814.271797708,7815.601808791,13,7814.333578,7814.394486333,7815.613542458,7816.323548291,1,1.33001108299959
130,18,2,categorization,0,kitchen,SHINEd_sun_ahdycvpopffkzzsu.tif,90,0.0666666666666667,0.0666666666666667,0.766666666666667,7816.32820125,7817.274065875,13,7816.390019041,7816.450838458,7817.285979916,7818.045984291,0,0.945864624999558
130,19,2,categorization,0,bathroom,SHINEd_sun_aofnryafpsjimzsb.tif,40,0.0666666666666667,0.0666666666666667,1.06666666666667,7818.051298041,7819.297984375,13,7818.112994541,7818.1739805,7819.30961375,7820.369669791,1,1.24668633399961
130,20,2,categorization,0,kitchen,SHINEd_sun_admlmbcdswaszruo.tif,79,0.0666666666666667,0.0666666666666667,0.8,7820.379183125,7821.185557833,9,7820.444293333,7820.509922916,7821.198908708,7821.992289083,1,0.806374707999566
130,21,2,categorization,0,kitchen,SHINEd_sun_agubuxuukhzyzpdp.tif,88,0.0666666666666667,0.0666666666666667,0.866666666666667,7822.002177333,7822.946521333,9,7822.069500041,7822.135520875,7822.954109125,7823.814114083,1,0.944344000000456
130,22,2,categorization,0,bathroom,SHINEd_sun_ahijqszoswveeyji.tif,28,0.0666666666666667,0.0666666666666667,1.48333333333333,7823.819031458,7824.697525875,13,7823.880870958,7823.941722375,7824.710252708,7826.186958875,1,0.878494417000184
130,23,2,categorization,0,kitchen,SHINEd_sun_avszsnwsbuqfgzbn.tif,105,0.0666666666666667,0.0666666666666667,1.1,7826.203834458,7827.0710845,9,7826.268811166,7826.335688041,7827.091404875,7828.184773416,1,0.867250042000705
130,24,2,categorization,0,bathroom,SHINEd_sun_afcoljnjfoxjtgja.tif,20,0.0666666666666667,0.0666666666666667,0.783333333333333,7828.194704875,7828.948244583,9,7828.259489583,7828.327397041,7828.966676833,7829.743388166,0,0.753539708000062
130,25,2,categorization,0,kitchen,SHINEd_labelme_brsyyvweiuaazfr.tif,61,0.0666666666666667,0.0666666666666667,0.866666666666667,7829.755028458,7830.53033125,9,7829.821594458,7829.887837125,7830.539571458,7831.399574916,1,0.77530279199982
130,26,2,categorization,0,kitchen,SHINEd_sun_abdxkyyxwfskuaqb.tif,70,0.0666666666666667,0.0666666666666667,1.83333333333333,7831.404519291,7832.26571725,9,7831.466200083,7831.527181625,7832.278975083,7834.105706083,1,0.861197959000492
130,27,2,categorization,0,bathroom,SHINEd_sun_anryaplzeujmzfkd.tif,39,0.0666666666666667,0.0666666666666667,0.7,7834.124035208,7834.977557208,9,7834.190488166,7834.256814083,7834.99640475,7835.689742791,0,0.85352199999943
130,28,2,categorization,0,bathroom,SHINEd_sun_axldvoqbuvuggfmq.tif,57,0.0666666666666667,0.0666666666666667,1.33333333333333,7835.6951445,7836.697624583,9,7835.756903291,7835.81787625,7836.703048333,7838.029746,0,1.00248008299968
130,29,2,categorization,0,bathroom,SHINEd_sun_aghyqhbptboemmoq.tif,23,0.0666666666666667,0.0666666666666667,1.33333333333333,7838.046772916,7838.99371525,13,7838.113424625,7838.179408541,7839.019344125,7840.346046208,1,0.946942333999687
130,30,2,categorization,0,bathroom,SHINEd_sun_atstyziqcmkahyxk.tif,51,0.0666666666666667,0.0666666666666667,1.38333333333333,7840.363362958,7840.980950125,13,7840.429797958,7840.496146791,7841.002496541,7842.379220291,1,0.617587167000238
130,31,2,categorization,0,kitchen,SHINEd_sun_agzzivivdpnawacl.tif,89,0.0666666666666667,0.0666666666666667,1.25,7842.397208541,7843.028111375,13,7842.463757958,7842.526855708,7843.049542083,7844.292906041,0,0.630902834000153
130,32,2,categorization,0,kitchen,SHINEd_sun_agorklincwxrdtga.tif,87,0.0666666666666667,0.0666666666666667,1.55,7844.302845916,7845.228069458,9,7844.370249916,7844.43594275,7845.241791833,7846.785158291,1,0.925223542000822
130,33,2,categorization,0,bathroom,SHINEd_sun_apkxzenqapsujocq.tif,45,0.0666666666666667,0.0666666666666667,1.61666666666667,7846.802849875,7847.654235583,13,7846.869394875,7846.93572075,7847.675975041,7849.286028541,1,0.851385707999725
130,34,2,categorization,0,bathroom,SHINEd_sun_aunuadmjocsddsrl.tif,52,0.0666666666666667,0.0666666666666667,1.33333333333333,7849.302968083,7850.610403666,13,7849.369762166,7849.435976791,7850.625256,7851.9519705,1,1.30743558299946
130,35,2,categorization,0,bathroom,SHINEd_sun_avhrdrntsqrjzccq.tif,55,0.0666666666666667,0.0666666666666667,0.833333333333333,7851.970877166,7852.735275458,13,7852.037651416,7852.103754833,7852.758664375,7853.585363041,1,0.764398291999896
130,36,2,categorization,0,kitchen,SHINEd_sun_aeqdocilnnpuvuhx.tif,83,0.0666666666666667,0.0666666666666667,1.45,7853.602905833,7854.217548333,9,7853.666989,7853.725808041,7854.227597666,7855.670965916,1,0.614642500000627
130,37,2,categorization,0,kitchen,SHINEd_sun_aymvwlarqodbwuoc.tif,108,0.0666666666666667,0.0666666666666667,0.933333333333333,7855.688791833,7856.338500541,9,7855.755261166,7855.821790625,7856.36065875,7857.287360333,1,0.649708707999707
130,38,2,categorization,0,bathroom,SHINEd_sun_anhioqovhscjqqwb.tif,38,0.0666666666666667,0.0666666666666667,1.65,7857.304261583,7858.010008333,13,7857.36696225,7857.427024583,7858.028788708,7859.672185666,1,0.705746749999889
130,39,2,categorization,0,kitchen,SHINEd_sun_ahljzhgcdpomplvg.tif,91,0.0666666666666667,0.0666666666666667,1.23333333333333,7859.686760875,7860.966167166,9,7859.75360675,7859.819747,7860.995684333,7862.2223965,1,1.27940629099976
130,40,2,categorization,0,kitchen,SHINEd_sun_awcpdzzznmweyyhv.tif,106,0.0666666666666667,0.0666666666666667,0.766666666666667,7862.239982791,7862.98098425,9,7862.304534583,7862.372673416,7862.995255333,7863.755297791,1,0.741001458999563
130,41,2,categorization,0,kitchen,SHINEd_labelme_kxvouciolcpqplr.tif,62,0.0666666666666667,0.0666666666666667,1.78333333333333,7863.771223625,7864.52188525,13,7863.8380195,7863.903869291,7864.538987333,7866.315687375,0,0.750661625000248
130,42,2,categorization,0,kitchen,SHINEd_sun_aunzlwrbjumxhwdj.tif,103,0.0666666666666667,0.0666666666666667,1.11666666666667,7866.3326485,7867.496941583,13,7866.399064958,7866.465207208,7867.522031,7868.632063041,0,1.1642930830003
130,43,2,categorization,0,bathroom,SHINEd_sun_acduarbnmmoglmiv.tif,16,0.0666666666666667,0.0666666666666667,1.85,7868.643262125,7869.430766291,9,7868.709458416,7868.776076208,7869.448986916,7871.292359041,0,0.787504165999962
130,44,2,categorization,0,bathroom,SHINEd_sun_apjevzvycyhuqghb.tif,43,0.0666666666666667,0.0666666666666667,0.733333333333333,7871.310200958,7872.842156375,9,7871.377546625,7871.443235333,7872.862375333,7873.589047416,0,1.53195541700006
130,45,2,categorization,0,bathroom,SHINEd_sun_akiytfaagpdsphgz.tif,31,0.0666666666666667,0.0666666666666667,0.783333333333333,7873.593689208,7874.553459541,13,7873.655510625,7873.716424833,7874.568147375,7875.34481975,1,0.959770333000051
130,46,2,categorization,0,bathroom,SHINEd_sun_apeeialkgkuxddgh.tif,42,0.0666666666666667,0.0666666666666667,1.5,7875.350626208,7876.18529025,13,7875.412500583,7875.473416,7876.191909541,7877.685281208,1,0.834664042000441
130,47,2,categorization,0,kitchen,SHINEd_sun_auticobqsbwgoppi.tif,104,0.0666666666666667,0.0666666666666667,0.733333333333333,7877.702957625,7878.580535166,13,7877.7698155,7877.836081916,7878.607866458,7879.334539625,0,0.877577541000392
130,48,2,categorization,0,bathroom,SHINEd_sun_ahqjwnzgolcaoidx.tif,29,0.0666666666666667,0.0666666666666667,1.1,7879.340378791,7880.193305666,13,7879.402099916,7879.463165708,7880.19813525,7881.291500833,1,0.852926874999866
130,49,2,categorization,0,kitchen,SHINEd_sun_aehawpgmrlhlvcow.tif,81,0.0666666666666667,0.0666666666666667,1.6,7881.302324541,7883.06959325,9,7881.367459875,7881.435348708,7883.093777458,7884.687147166,1,1.76726870899984
130,50,2,categorization,0,bathroom,SHINEd_sun_aclfzgynxzxlbepz.tif,19,0.0666666666666667,0.0666666666666667,1.06666666666667,7884.705636,7885.473804708,13,7884.772935958,7884.838714708,7885.495852833,7886.555891958,1,0.768168708000303
130,1,3,categorization,0,bathroom,SHINEd_sun_agrwbmhcpmfuwmsg.tif,24,0.0666666666666667,0.0666666666666667,0.85,7896.1192605,7896.858149875,13,7896.18177775,7896.241965666,7896.877137166,7897.720477958,1,0.738889375000326
130,2,3,categorization,0,bathroom,SHINEd_sun_aunuadmjocsddsrl.tif,52,0.0666666666666667,0.0666666666666667,1.65,7897.726110958,7898.513484166,13,7897.787916791,7897.848797625,7898.517143416,7900.16052175,1,0.787373207999735
130,3,3,categorization,0,bathroom,SHINEd_sun_aljolscmmzydegqp.tif,33,0.0666666666666667,0.0666666666666667,0.783333333333333,7900.178651166,7901.323398,13,7900.245135458,7900.311366458,7901.351242,7902.127913958,1,1.14474683400022
130,4,3,categorization,0,bathroom,SHINEd_sun_apkxzenqapsujocq.tif,45,0.0666666666666667,0.0666666666666667,0.933333333333333,7902.134420875,7902.865777208,13,7902.196209041,7902.257167916,7902.875724208,7903.802396583,1,0.731356332999894
130,5,3,categorization,0,bathroom,SHINEd_sun_acduarbnmmoglmiv.tif,16,0.0666666666666667,0.0666666666666667,0.866666666666667,7903.807398416,7904.705762375,13,7903.869204625,7903.929991375,7904.715196791,7905.575202416,1,0.898363958999653
130,6,3,categorization,0,bathroom,SHINEd_sun_ahijqszoswveeyji.tif,28,0.0666666666666667,0.0666666666666667,1.11666666666667,7905.580784958,7907.649841416,13,7905.642464458,7905.703562708,7907.655813458,7908.765852916,1,2.06905645799998
130,7,3,categorization,0,kitchen,SHINEd_sun_aadbddgrdsjugojn.tif,64,0.0666666666666667,0.0666666666666667,0.966666666666667,7908.77558875,7909.264988125,9,7908.840543625,7908.908747625,7909.281307166,7910.241362166,1,0.489399375000175
130,8,3,categorization,0,bathroom,SHINEd_sun_axxbkopsgyouuebh.tif,58,0.0666666666666667,0.0666666666666667,1.78333333333333,7910.25873025,7910.913373916,13,7910.325605125,7910.388770541,7910.924255416,7912.700969208,1,0.654643666000084
130,9,3,categorization,0,bathroom,SHINEd_sun_aleqenyvunhactkl.tif,32,0.0666666666666667,0.0666666666666667,1.55,7912.71926275,7913.826478958,13,7912.786029625,7912.852079541,7913.841026375,7915.384404333,1,1.10721620799995
130,10,3,categorization,0,bathroom,SHINEd_sun_apkruvsevgegsdwp.tif,44,0.0666666666666667,0.0666666666666667,1.41666666666667,7915.40399025,7916.350900583,13,7915.4708115,7915.537390458,7916.377348416,7917.787397333,1,0.946910333000233
130,11,3,categorization,0,bathroom,SHINEd_sun_ausgutylgojavyoq.tif,53,0.0666666666666667,0.0666666666666667,0.8,7917.805585833,7919.482126958,9,7917.872504333,7917.938054166,7919.490988458,7920.284326375,0,1.67654112499986
130,12,3,categorization,0,kitchen,SHINEd_sun_azmutvzbxypaceni.tif,110,0.0666666666666667,0.0666666666666667,1.28333333333333,7920.2893485,7921.049800958,9,7920.351137375,7920.412062625,7921.063876125,7922.340583041,1,0.760452457999236
130,13,3,categorization,0,bathroom,SHINEd_sun_aclfzgynxzxlbepz.tif,19,0.0666666666666667,0.0666666666666667,1.66666666666667,7922.358566,7923.220861416,13,7922.425449791,7922.490208666,7923.24690775,7924.906966125,1,0.862295416000052
130,14,3,categorization,0,bathroom,SHINEd_sun_atstyziqcmkahyxk.tif,51,0.0666666666666667,0.0666666666666667,1.81666666666667,7924.925730875,7925.66976175,13,7924.99252525,7925.058564083,7925.698897125,7927.50894275,1,0.744030875000135
130,15,3,categorization,0,kitchen,SHINEd_sun_avszsnwsbuqfgzbn.tif,105,0.0666666666666667,0.0666666666666667,1.35,7927.528699916,7928.049645333,9,7927.595823,7927.660639125,7928.066500375,7929.40987475,1,0.520945416999893
130,16,3,categorization,0,kitchen,SHINEd_sun_ahljzhgcdpomplvg.tif,91,0.0666666666666667,0.0666666666666667,0.916666666666667,7929.428388958,7929.968815916,9,7929.495181958,7929.561202166,7929.982883708,7930.892931666,1,0.540426957999443
130,17,3,categorization,0,bathroom,SHINEd_sun_amzlamotzwfkwjco.tif,37,0.0666666666666667,0.0666666666666667,0.916666666666667,7930.910036625,7931.6174565,9,7930.976778583,7931.043051541,7931.628191666,7932.538195958,0,0.707419874999687
130,18,3,categorization,0,kitchen,SHINEd_sun_ajkqhtgcbgpcwrwn.tif,97,0.0666666666666667,0.0666666666666667,1.31666666666667,7932.543033916,7933.449362708,9,7932.6048215,7932.665745208,7933.467950583,7934.777985583,1,0.90632879199984
130,19,3,categorization,0,bathroom,SHINEd_sun_acegryoqftbzowsg.tif,17,0.0666666666666667,0.0666666666666667,1.45,7934.794790458,7935.484090041,13,7934.860794458,7934.9278605,7935.500879916,7936.9442565,1,0.68929958300032
130,20,3,categorization,0,kitchen,SHINEd_sun_aaxxjlsuzvqlgylf.tif,68,0.0666666666666667,0.0666666666666667,0.95,7936.961495333,7937.6897015,9,7937.028461041,7937.094435125,7937.718419791,7938.661787416,1,0.72820616700028
130,21,3,categorization,0,kitchen,SHINEd_sun_acgtpgfybqjmzeyw.tif,75,0.0666666666666667,0.0666666666666667,1.38333333333333,7938.676249583,7939.889511,9,7938.738783041,7938.798999083,7939.900830291,7941.277550708,1,1.21326141700047
130,22,3,categorization,0,bathroom,SHINEd_sun_anhioqovhscjqqwb.tif,38,0.0666666666666667,0.0666666666666667,1.16666666666667,7941.293997916,7942.018579708,13,7941.360954875,7941.427238125,7942.033032333,7943.193080375,1,0.724581792000208
130,23,3,categorization,0,kitchen,SHINEd_sun_aymvwlarqodbwuoc.tif,108,0.0666666666666667,0.0666666666666667,1.61666666666667,7943.203811125,7944.139483375,9,7943.270721041,7943.33653775,7944.159898708,7945.769939458,1,0.935672249999698
130,24,3,categorization,0,kitchen,SHINEd_sun_aenotlpyftoioydp.tif,82,0.0666666666666667,0.0666666666666667,1.38333333333333,7945.788814208,7946.619339875,9,7945.855547125,7945.921747458,7946.644461666,7948.021182083,1,0.830525667000074
130,25,3,categorization,0,bathroom,SHINEd_sun_aapitsgbtktqubfy.tif,12,0.0666666666666667,0.0666666666666667,1.78333333333333,7948.041750166,7948.932910708,9,7948.108636958,7948.174498666,7948.947675833,7950.724401041,0,0.891160541999852
130,26,3,categorization,0,bathroom,SHINEd_sun_alkosphxlxwjwgjd.tif,34,0.0666666666666667,0.0666666666666667,0.783333333333333,7950.743135208,7951.54930725,9,7950.810065041,7950.8761725,7951.5662975,7952.3429695,0,0.806172042000071
130,27,3,categorization,0,kitchen,SHINEd_sun_abftihopvusyfakt.tif,71,0.0666666666666667,0.0666666666666667,1.65,7952.35059475,7953.297160041,9,7952.412366,7952.47337075,7953.308626833,7954.952006,1,0.946565291000297
130,28,3,categorization,0,kitchen,SHINEd_sun_acwjdupvyjsugpay.tif,76,0.0666666666666667,0.0666666666666667,1.86666666666667,7954.970420041,7956.034185125,9,7955.037241,7955.103447541,7956.060577,7957.920618208,1,1.0637650839999
130,29,3,categorization,0,kitchen,SHINEd_sun_aypmqwcualkenuoe.tif,109,0.0666666666666667,0.0666666666666667,1.23333333333333,7957.936488875,7958.738381,9,7958.003522375,7958.069291125,7958.758960583,7959.985658083,1,0.80189212500045
130,30,3,categorization,0,kitchen,SHINEd_sun_admlmbcdswaszruo.tif,79,0.0666666666666667,0.0666666666666667,0.7,7960.004259166,7960.932652666,9,7960.071170083,7960.138632541,7960.963042708,7961.656438375,1,0.928393499999402
130,31,3,categorization,0,kitchen,SHINEd_sun_axyyrmzcupyhlivc.tif,107,0.0666666666666667,0.0666666666666667,0.716666666666667,7961.672640583,7962.513712166,9,7961.737125,7961.802722583,7962.52134675,7963.231350875,1,0.841071582999575
130,32,3,categorization,0,kitchen,SHINEd_sun_abpwyqmlzafvklqo.tif,72,0.0666666666666667,0.0666666666666667,1.05,7963.236673708,7964.137332416,9,7963.298400375,7963.359384125,7964.144692125,7965.18807825,1,0.900658708000265
130,33,3,categorization,0,kitchen,SHINEd_sun_abdxkyyxwfskuaqb.tif,70,0.0666666666666667,0.0666666666666667,1.1,7965.199455458,7966.433618208,13,7965.264616583,7965.3308045,7966.454428541,7967.54780925,0,1.23416275
130,34,3,categorization,0,kitchen,SHINEd_sun_awcpdzzznmweyyhv.tif,106,0.0666666666666667,0.0666666666666667,1.13333333333333,7967.558605958,7968.339769583,9,7967.624112125,7967.692057791,7968.366084291,7969.492807583,1,0.781163624999863
130,35,3,categorization,0,kitchen,SHINEd_sun_akcjzhbbjlbogpdi.tif,99,0.0666666666666667,0.0666666666666667,1.38333333333333,7969.511412333,7970.273127541,9,7969.574057166,7969.634288,7970.286079458,7971.66280375,1,0.761715207999259
130,36,3,categorization,0,kitchen,SHINEd_sun_aamedkxepzlwuxes.tif,65,0.0666666666666667,0.0666666666666667,1.5,7971.676329458,7972.513272458,9,7971.743417333,7971.809806333,7972.531060083,7974.024449875,1,0.836943000000247
130,37,3,categorization,0,kitchen,SHINEd_sun_aehawpgmrlhlvcow.tif,81,0.0666666666666667,0.0666666666666667,1.61666666666667,7974.042935958,7974.82812525,9,7974.110460458,7974.17614825,7974.848504458,7976.458554708,1,0.785189291999814
130,38,3,categorization,0,bathroom,SHINEd_sun_anryaplzeujmzfkd.tif,39,0.0666666666666667,0.0666666666666667,0.983333333333333,7976.47291725,7977.708542375,9,7976.537719958,7976.604580375,7977.727293208,7978.703964583,0,1.2356251250003
130,39,3,categorization,0,kitchen,SHINEd_sun_acfmftudsenhrfhy.tif,74,0.0666666666666667,0.0666666666666667,1.3,7978.708786541,7979.865713125,13,7978.770552708,7978.831671458,7979.883377541,7981.176750333,0,1.15692658399985
130,40,3,categorization,0,bathroom,SHINEd_sun_ahaulkltgpkeeemi.tif,26,0.0666666666666667,0.0666666666666667,1.03333333333333,7981.192890458,7981.763173291,13,7981.262059666,7981.3258355,7981.782607,7982.809308625,1,0.570282833000419
130,41,3,categorization,0,kitchen,SHINEd_sun_adgqasybjyktddhj.tif,78,0.0666666666666667,0.0666666666666667,1.45,7982.826938958,7983.473416166,9,7982.894279125,7982.9598765,7983.478488916,7984.921859583,1,0.646477207999851
130,42,3,categorization,0,bathroom,SHINEd_sun_azqyogdvyhahyram.tif,60,0.0666666666666667,0.0666666666666667,1.23333333333333,7984.939656208,7985.685939083,13,7985.006911166,7985.072811375,7985.719240625,7986.945947916,1,0.746282875000361
130,43,3,categorization,0,kitchen,SHINEd_sun_agubuxuukhzyzpdp.tif,88,0.0666666666666667,0.0666666666666667,1.26666666666667,7986.963626666,7987.718357416,9,7987.030336541,7987.096102625,7987.735730833,7988.995765833,1,0.754730749999908
130,44,3,categorization,0,bathroom,SHINEd_sun_aggnnqpdorgxpvce.tif,21,0.0666666666666667,0.0666666666666667,1.03333333333333,7989.015383791,7990.048505625,13,7989.081948791,7989.148920083,7990.073108916,7991.099813375,1,1.03312183399976
130,45,3,categorization,0,bathroom,SHINEd_sun_ambriybtogmepttm.tif,36,0.0666666666666667,0.0666666666666667,1.31666666666667,7991.114350375,7992.094416583,9,7991.17949525,7991.246160375,7992.1203425,7993.430391791,0,0.980066207999698
130,46,3,categorization,0,kitchen,SHINEd_sun_ahdycvpopffkzzsu.tif,90,0.0666666666666667,0.0666666666666667,1.7,7993.449828958,7994.645554541,13,7993.519040166,7993.583056375,7994.672663833,7996.366031708,0,1.19572558300024
130,47,3,categorization,0,bathroom,SHINEd_labelme_sfxiulhjbhlyiyt.tif,11,0.0666666666666667,0.0666666666666667,1.35,7996.387451791,7997.715738416,13,7996.454890333,7996.521122708,7997.726687625,7999.070055583,1,1.32828662500015
130,48,3,categorization,0,kitchen,SHINEd_sun_ajcbwwvdlsvjyzje.tif,96,0.0666666666666667,0.0666666666666667,0.8,7999.088099666,8000.507596375,13,7999.154734416,7999.220940458,8000.528181791,8001.321520541,0,1.41949670899976
130,49,3,categorization,0,bathroom,SHINEd_sun_afcoljnjfoxjtgja.tif,20,0.0666666666666667,0.0666666666666667,0.766666666666667,8001.327108166,8001.969599791,9,8001.388830291,8001.449870458,8001.984984083,8002.744987708,0,0.64249162500073
130,50,3,categorization,0,kitchen,SHINEd_sun_auaiucuqpdausiva.tif,102,0.0666666666666667,0.0666666666666667,1.38333333333333,8002.750275291,8003.481766166,9,8002.812066166,8002.873089375,8003.491506,8004.868203625,1,0.731490874999508
130,1,4,categorization,0,bathroom,SHINEd_sun_abjtwfukuwddzted.tif,15,0.0666666666666667,0.0666666666666667,1,8011.285288583,8012.145172791,13,8011.347693083,8011.40794625,8012.159782416,8013.153121125,1,0.85988420800004
130,2,4,categorization,0,kitchen,SHINEd_labelme_kxvouciolcpqplr.tif,62,0.0666666666666667,0.0666666666666667,0.966666666666667,8013.157917166,8014.033275666,9,8013.219655958,8013.280697416,8014.049112083,8015.009118,1,0.875358500000402
130,3,4,categorization,0,bathroom,SHINEd_sun_ahqjwnzgolcaoidx.tif,29,0.0666666666666667,0.0666666666666667,1.75,8015.01403525,8015.78529675,13,8015.075849166,8015.136832,8015.788472,8017.531850458,1,0.771261500000037
130,4,4,categorization,0,bathroom,SHINEd_sun_aoybiabnpadelefl.tif,41,0.0666666666666667,0.0666666666666667,1.68333333333333,8017.552129333,8018.766038541,9,8017.619237708,8017.685134708,8018.793870875,8020.470557041,0,1.21390920799968
130,5,4,categorization,0,bathroom,SHINEd_sun_acgyywnybuveqsro.tif,18,0.0666666666666667,0.0666666666666667,1.58333333333333,8020.481282291,8021.194745833,13,8020.545990083,8020.613173916,8021.220182041,8022.796894125,1,0.713463541999772
130,6,4,categorization,0,bathroom,SHINEd_sun_aghyqhbptboemmoq.tif,23,0.0666666666666667,0.0666666666666667,1,8022.813284041,8023.5344075,13,8022.880148416,8022.945702958,8023.551847208,8024.545188916,1,0.72112345900041
130,7,4,categorization,0,bathroom,SHINEd_sun_agguqiubmwhqqunb.tif,22,0.0666666666666667,0.0666666666666667,1.33333333333333,8024.550411083,8025.393309458,13,8024.612063916,8024.673152625,8025.408273791,8026.734992625,1,0.842898375000004
130,8,4,categorization,0,bathroom,SHINEd_sun_alotolagknyrgtsk.tif,35,0.0666666666666667,0.0666666666666667,1.26666666666667,8026.753781458,8027.876411791,9,8026.820424708,8026.887089666,8027.893170541,8029.153222333,0,1.12263033299951
130,9,4,categorization,0,bathroom,SHINEd_sun_ahcvzmoyaycdoftf.tif,27,0.0666666666666667,0.0666666666666667,0.883333333333333,8029.170868041,8029.95854225,13,8029.237615708,8029.303605166,8029.976356708,8030.853073375,1,0.787674209000215
130,10,4,categorization,0,kitchen,SHINEd_sun_aegoxogugdkwpmpj.tif,80,0.0666666666666667,0.0666666666666667,1.26666666666667,8030.869314333,8031.857162875,9,8030.936022375,8031.0019525,8031.870566208,8033.130605,1,0.987848541999483
130,11,4,categorization,0,kitchen,SHINEd_sun_aeqdocilnnpuvuhx.tif,83,0.0666666666666667,0.0666666666666667,2,8033.148186416,8034.182124333,9,8033.214934833,8033.281898083,8034.205363791,8036.198742583,1,1.033937917
130,12,4,categorization,0,kitchen,SHINEd_sun_aggjlwcdjsjcaemh.tif,86,0.0666666666666667,0.0666666666666667,0.733333333333333,8036.219161541,8037.118044208,9,8036.286048916,8036.351847041,8037.141484625,8037.868156041,1,0.89888266700018
130,13,4,categorization,0,kitchen,SHINEd_sun_acxkpeoqbwcxfvip.tif,77,0.0666666666666667,0.0666666666666667,0.883333333333333,8037.874102041,8039.105196666,9,8037.9356845,8037.996846291,8039.115668083,8039.992338625,1,1.23109462499997
130,14,4,categorization,0,bathroom,SHINEd_sun_aofnryafpsjimzsb.tif,40,0.0666666666666667,0.0666666666666667,0.983333333333333,8039.997004875,8040.944902,9,8040.058719541,8040.119676208,8040.954854,8041.931526791,0,0.947897125000054
130,15,4,categorization,0,bathroom,SHINEd_sun_akiytfaagpdsphgz.tif,31,0.0666666666666667,0.0666666666666667,1.56666666666667,8041.937285125,8042.881087083,13,8041.998996833,8042.059957666,8042.89517625,8044.455216083,1,0.943801958000222
130,16,4,categorization,0,bathroom,SHINEd_sun_axyrejkiiaqiurjk.tif,59,0.0666666666666667,0.0666666666666667,1.08333333333333,8044.469580666,8045.397143458,9,8044.5337515,8044.600994166,8045.423889583,8046.500605625,0,0.927562791999662
130,17,4,categorization,0,kitchen,SHINEd_sun_agorklincwxrdtga.tif,87,0.0666666666666667,0.0666666666666667,0.75,8046.511070458,8047.401234166,9,8046.576040916,8046.642583458,8047.414853833,8048.158228041,1,0.890163707999818
130,18,4,categorization,0,bathroom,SHINEd_sun_agyqfjcfkdcydepw.tif,25,0.0666666666666667,0.0666666666666667,0.966666666666667,8048.174622583,8049.304690416,13,8048.240995541,8048.307292833,8049.309324875,8050.269330625,1,1.13006783299988
130,19,4,categorization,0,kitchen,SHINEd_sun_aapllqyqlykszopd.tif,66,0.0666666666666667,0.0666666666666667,1.63333333333333,8050.274018416,8051.265325833,9,8050.335861791,8050.396709875,8051.281875208,8052.90859575,1,0.991307416999916
130,20,4,categorization,0,kitchen,SHINEd_labelme_rykdqxenmhulbdn.tif,63,0.0666666666666667,0.0666666666666667,1.46666666666667,8052.925222958,8053.692119458,9,8052.9914255,8053.058269125,8053.71489475,8055.174941083,1,0.766896500000257
130,21,4,categorization,0,kitchen,SHINEd_sun_amjjdeyrggfqgmom.tif,100,0.0666666666666667,0.0666666666666667,0.933333333333333,8055.193637333,8055.876854291,9,8055.260606166,8055.326736458,8055.9003175,8056.827022,1,0.68321695800023
130,22,4,categorization,0,bathroom,SHINEd_sun_auzqhkafidnkrwmo.tif,54,0.0666666666666667,0.0666666666666667,1.45,8056.834897333,8057.577101625,9,8056.896712333,8056.957765875,8057.592797291,8059.036168666,0,0.742204291999769
130,23,4,categorization,0,bathroom,SHINEd_sun_apjevzvycyhuqghb.tif,43,0.0666666666666667,0.0666666666666667,0.966666666666667,8059.053299708,8059.874696,13,8059.119985166,8059.1861695,8059.892163916,8060.852170833,1,0.821396291999918
130,24,4,categorization,0,kitchen,SHINEd_sun_aixorpehvfykdynp.tif,95,0.0666666666666667,0.0666666666666667,0.816666666666667,8060.858081875,8061.737168916,9,8060.919821791,8060.980934791,8061.749339833,8062.559343916,1,0.879087041000275
130,25,4,categorization,0,kitchen,SHINEd_sun_auticobqsbwgoppi.tif,104,0.0666666666666667,0.0666666666666667,1.96666666666667,8062.564056916,8063.632646916,9,8062.625839166,8062.686710416,8063.638269958,8065.598324666,1,1.06859000000077
130,26,4,categorization,0,kitchen,SHINEd_sun_aarfiyshqohlwkmo.tif,67,0.0666666666666667,0.0666666666666667,0.916666666666667,8065.615935333,8066.912854833,13,8065.683079041,8065.748922208,8066.918161375,8067.828167833,0,1.2969194999996
130,27,4,categorization,0,kitchen,SHINEd_sun_ahspylgoovwmwvgk.tif,93,0.0666666666666667,0.0666666666666667,1.28333333333333,8067.833059208,8068.545450583,9,8067.894882583,8067.955681916,8068.557452041,8069.834165833,1,0.712391375000152
130,28,4,categorization,0,kitchen,SHINEd_sun_afuyedyxivkhecmu.tif,85,0.0666666666666667,0.0666666666666667,1.8,8069.852430875,8070.83095,9,8069.919167416,8069.985341916,8070.859105875,8072.65247475,1,0.978519124999366
130,29,4,categorization,0,kitchen,SHINEd_sun_aunzlwrbjumxhwdj.tif,103,0.0666666666666667,0.0666666666666667,1.33333333333333,8072.669277,8073.542415,13,8072.736006583,8072.80239925,8073.558726583,8074.885432208,0,0.873137999999926
130,30,4,categorization,0,kitchen,SHINEd_sun_ahpczsiumwwocjkv.tif,92,0.0666666666666667,0.0666666666666667,1.06666666666667,8074.90340975,8075.835866541,9,8074.970494083,8075.036438833,8075.860373416,8076.9204075,1,0.932456790999822
130,31,4,categorization,0,bathroom,SHINEd_sun_abapwbhyhkfixyex.tif,14,0.0666666666666667,0.0666666666666667,1.03333333333333,8076.929982166,8078.067137791,9,8076.994938291,8077.061679291,8078.084870208,8079.111594416,0,1.13715562500056
130,32,4,categorization,0,kitchen,SHINEd_sun_abrcnpqqhmjwekyf.tif,73,0.0666666666666667,0.0666666666666667,0.733333333333333,8079.123688333,8079.834344416,13,8079.189155833,8079.25554725,8079.863814166,8080.59053175,0,0.710656082999776
130,33,4,categorization,0,bathroom,SHINEd_sun_apynckhmoftszqoq.tif,47,0.0666666666666667,0.0666666666666667,0.766666666666667,8080.599837208,8081.456606541,13,8080.666514208,8080.7331545,8081.468998875,8082.229004125,1,0.856769332999647
130,34,4,categorization,0,kitchen,SHINEd_sun_akchetnepxlcxhsu.tif,98,0.0666666666666667,0.0666666666666667,1.1,8082.234573416,8083.232966583,13,8082.296348666,8082.35730725,8083.242463875,8084.335849083,0,0.998393167000359
130,35,4,categorization,0,bathroom,SHINEd_sun_aavhrsfjbserjtht.tif,13,0.0666666666666667,0.0666666666666667,1.81666666666667,8084.346931041,8085.163057791,9,8084.412069583,8084.475297083,8085.181738958,8086.991779666,0,0.816126749999967
130,36,4,categorization,0,bathroom,SHINEd_sun_awnqiikzaispgmwo.tif,56,0.0666666666666667,0.0666666666666667,0.883333333333333,8087.010044375,8087.808265791,13,8087.077014833,8087.142876458,8087.83329725,8088.709968791,1,0.79822141600016
130,37,4,categorization,0,bathroom,SHINEd_sun_avhrdrntsqrjzccq.tif,55,0.0666666666666667,0.0666666666666667,1.7,8088.716162333,8089.745128708,13,8088.778003958,8088.838917916,8089.757373166,8091.450745208,1,1.02896637499998
130,38,4,categorization,0,bathroom,SHINEd_sun_aspsyogrekjtfozg.tif,50,0.0666666666666667,0.0666666666666667,1.58333333333333,8091.469173291,8092.250921666,13,8091.5363025,8091.60221775,8092.275725791,8093.852444958,1,0.781748375000461
130,39,4,categorization,0,bathroom,SHINEd_sun_ajlawzvmubibwbpy.tif,30,0.0666666666666667,0.0666666666666667,0.833333333333333,8093.87064825,8094.779320083,13,8093.937621375,8094.004018291,8094.793136458,8095.619810375,1,0.908671832999971
130,40,4,categorization,0,bathroom,SHINEd_sun_apmqjbnwghzuhhzh.tif,46,0.0666666666666667,0.0666666666666667,0.95,8095.6255935,8096.360845333,13,8095.687326291,8095.748663583,8096.36724725,8097.310586666,1,0.735251832999893
130,41,4,categorization,0,bathroom,SHINEd_sun_aqrpegblszgcoujh.tif,48,0.0666666666666667,0.0666666666666667,1.06666666666667,8097.31646225,8097.94469925,13,8097.378315166,8097.439249,8097.957889208,8099.017934083,1,0.628236999999899
130,42,4,categorization,0,kitchen,SHINEd_labelme_brsyyvweiuaazfr.tif,61,0.0666666666666667,0.0666666666666667,1.68333333333333,8099.031001416,8099.666503875,13,8099.095573583,8099.161714583,8099.684312666,8101.36102275,0,0.635502458999326
130,43,4,categorization,0,bathroom,SHINEd_sun_asfwthctfqerjvxr.tif,49,0.0666666666666667,0.0666666666666667,1.31666666666667,8101.379525875,8102.162573416,13,8101.445885708,8101.512126791,8102.185442458,8103.4954795,1,0.783047541000087
130,44,4,categorization,0,kitchen,SHINEd_sun_abdenxonkemggwsq.tif,69,0.0666666666666667,0.0666666666666667,1.61666666666667,8103.513661625,8104.1154955,9,8103.58018225,8103.646247916,8104.135842125,8105.745876958,1,0.601833875000011
130,45,4,categorization,0,kitchen,SHINEd_sun_agzzivivdpnawacl.tif,89,0.0666666666666667,0.0666666666666667,1.15,8105.764410875,8106.418146125,13,8105.830930375,8105.897378666,8106.437076333,8107.580464041,0,0.653735249999954
130,46,4,categorization,0,bathroom,SHINEd_sun_apeeialkgkuxddgh.tif,42,0.0666666666666667,0.0666666666666667,1.25,8107.598987791,8108.352245333,13,8107.665825666,8107.73215925,8108.371915916,8109.615285375,1,0.753257542000028
130,47,4,categorization,0,bathroom,SHINEd_sun_axldvoqbuvuggfmq.tif,57,0.0666666666666667,0.0666666666666667,1.1,8109.626443791,8110.60239,13,8109.691275833,8109.759162916,8110.613491208,8111.706875458,1,0.97594620899963
130,48,4,categorization,0,kitchen,SHINEd_sun_ahywdevtimnqcsln.tif,94,0.0666666666666667,0.0666666666666667,0.9,8111.723531916,8112.3202545,9,8111.7903245,8111.856246333,8112.346462458,8113.239838083,1,0.596722584000418
130,49,4,categorization,0,kitchen,SHINEd_sun_aqeaevwwwjoqhzvl.tif,101,0.0666666666666667,0.0666666666666667,1.3,8113.256482791,8114.144609083,9,8113.3232555,8113.389591083,8114.1584405,8115.4518115,1,0.888126292000379
130,50,4,categorization,0,kitchen,SHINEd_sun_aexklacwqwezaorf.tif,84,0.0666666666666667,0.0666666666666667,1.25,8115.469798458,8116.25875275,9,8115.536679416,8115.603062,8116.275869958,8117.519251958,1,0.788954292000199
130,1,5,categorization,0,kitchen,SHINEd_sun_aggjlwcdjsjcaemh.tif,86,0.0666666666666667,0.0666666666666667,1.7,8124.142592375,8124.872883041,13,8124.20508875,8124.265351541,8124.883831166,8126.577213,0,0.730290665999746
130,2,5,categorization,0,bathroom,SHINEd_sun_aclfzgynxzxlbepz.tif,19,0.0666666666666667,0.0666666666666667,1.81666666666667,8126.588037083,8127.262353625,13,8126.654957291,8126.719436291,8127.292609416,8129.102654833,1,0.67431654200027
130,3,5,categorization,0,bathroom,SHINEd_sun_acgyywnybuveqsro.tif,18,0.0666666666666667,0.0666666666666667,1.23333333333333,8129.120957041,8129.733189875,13,8129.1877775,8129.254047041,8129.760484625,8130.987203,1,0.612232833999769
130,4,5,categorization,0,bathroom,SHINEd_sun_afcoljnjfoxjtgja.tif,20,0.0666666666666667,0.0666666666666667,1.4,8131.004146541,8132.129892916,13,8131.070940166,8131.137572,8132.144556166,8133.537944875,1,1.12574637499984
130,5,5,categorization,0,kitchen,SHINEd_sun_aymvwlarqodbwuoc.tif,108,0.0666666666666667,0.0666666666666667,1.03333333333333,8133.555246875,8134.168900875,9,8133.622039041,8133.688011208,8134.194780416,8135.22145625,1,0.613653999999769
130,6,5,categorization,0,bathroom,SHINEd_sun_aapitsgbtktqubfy.tif,12,0.0666666666666667,0.0666666666666667,1.38333333333333,8135.227439041,8136.080590083,13,8135.289206041,8135.350153,8136.085327291,8137.462037791,1,0.853151041999809
130,7,5,categorization,0,bathroom,SHINEd_sun_anhioqovhscjqqwb.tif,38,0.0666666666666667,0.0666666666666667,2,8137.480182833,8138.1085565,13,8137.54679525,8137.612707666,8138.135772083,8140.129153833,1,0.628373667000233
130,8,5,categorization,0,bathroom,SHINEd_sun_aspsyogrekjtfozg.tif,50,0.0666666666666667,0.0666666666666667,1.85,8140.147793666,8140.77119775,13,8140.214364208,8140.280819541,8140.786679666,8142.63004775,1,0.623404083999958
130,9,5,categorization,0,kitchen,SHINEd_sun_aadbddgrdsjugojn.tif,64,0.0666666666666667,0.0666666666666667,0.816666666666667,8142.65179125,8143.499402083,9,8142.718435333,8142.784643458,8143.524585833,8144.334591458,1,0.847610832999635
130,10,5,categorization,0,kitchen,SHINEd_sun_acxkpeoqbwcxfvip.tif,77,0.0666666666666667,0.0666666666666667,1.85,8144.340423041,8144.89695175,9,8144.402191083,8144.463148416,8144.914980291,8146.758348166,1,0.556528709000304
130,11,5,categorization,0,kitchen,SHINEd_sun_acgtpgfybqjmzeyw.tif,75,0.0666666666666667,0.0666666666666667,0.733333333333333,8146.776376708,8147.656089375,9,8146.843042541,8146.909162375,8147.68286,8148.4095325,1,0.879712667000604
130,12,5,categorization,0,kitchen,SHINEd_sun_agubuxuukhzyzpdp.tif,88,0.0666666666666667,0.0666666666666667,0.716666666666667,8148.416575791,8149.584400416,13,8148.478231083,8148.53925275,8149.591443291,8150.301448708,0,1.16782462500032
130,13,5,categorization,0,bathroom,SHINEd_sun_ahaulkltgpkeeemi.tif,26,0.0666666666666667,0.0666666666666667,0.833333333333333,8150.306416,8151.232216958,9,8150.368085541,8150.42905925,8151.247737166,8152.074409541,0,0.925800957999854
130,14,5,categorization,0,kitchen,SHINEd_sun_awcpdzzznmweyyhv.tif,106,0.0666666666666667,0.0666666666666667,0.95,8152.079293708,8152.873126041,9,8152.141013375,8152.202009416,8152.887128416,8153.830466125,1,0.793832333000864
130,15,5,categorization,0,bathroom,SHINEd_sun_aunuadmjocsddsrl.tif,52,0.0666666666666667,0.0666666666666667,1.96666666666667,8153.835331916,8154.977121458,13,8153.897131708,8153.957957875,8154.993253125,8156.953309958,1,1.14178954199997
130,16,5,categorization,0,kitchen,SHINEd_sun_agzzivivdpnawacl.tif,89,0.0666666666666667,0.0666666666666667,1.86666666666667,8156.970221208,8157.935828,13,8157.036941125,8157.103066916,8157.959429666,8159.8194815,0,0.965606791999562
130,17,5,categorization,0,kitchen,SHINEd_sun_ahspylgoovwmwvgk.tif,93,0.0666666666666667,0.0666666666666667,1.51666666666667,8159.837346208,8160.660051125,9,8159.903975458,8159.970240458,8160.676427666,8162.18647825,1,0.82270491700001
130,18,5,categorization,0,bathroom,SHINEd_sun_apkruvsevgegsdwp.tif,44,0.0666666666666667,0.0666666666666667,1.3,8162.204164041,8162.922573125,13,8162.271074958,8162.337115291,8162.943393208,8164.236781125,1,0.718409084000086
130,19,5,categorization,0,kitchen,SHINEd_sun_abdenxonkemggwsq.tif,69,0.0666666666666667,0.0666666666666667,1.91666666666667,8164.255421291,8165.094074958,9,8164.3221735,8164.38838125,8165.111216458,8167.021268,1,0.838653667000472
130,20,5,categorization,0,kitchen,SHINEd_sun_abpwyqmlzafvklqo.tif,72,0.0666666666666667,0.0666666666666667,1.23333333333333,8167.038693458,8167.958512291,9,8167.105731625,8167.171519791,8167.97809275,8169.20481225,1,0.919818833000136
130,21,5,categorization,0,kitchen,SHINEd_sun_ahpczsiumwwocjkv.tif,92,0.0666666666666667,0.0666666666666667,0.866666666666667,8169.222968708,8170.143743708,9,8169.290051166,8169.355754166,8170.162044916,8171.022091375,1,0.920775000000503
130,22,5,categorization,0,bathroom,SHINEd_sun_agyqfjcfkdcydepw.tif,25,0.0666666666666667,0.0666666666666667,0.8,8171.038264625,8172.0642835,9,8171.101086958,8171.16097025,8172.079473166,8172.87281175,0,1.02601887499986
130,23,5,categorization,0,kitchen,SHINEd_sun_ajkqhtgcbgpcwrwn.tif,97,0.0666666666666667,0.0666666666666667,1.51666666666667,8172.877656583,8173.680374375,9,8172.939402166,8173.000852083,8173.685921583,8175.195957125,1,0.802717791999385
130,24,5,categorization,0,kitchen,SHINEd_sun_acwjdupvyjsugpay.tif,76,0.0666666666666667,0.0666666666666667,1.18333333333333,8175.214188583,8176.155807333,9,8175.280764166,8175.347411291,8176.1677505,8177.344466791,1,0.941618750000089
130,25,5,categorization,0,kitchen,SHINEd_sun_aixorpehvfykdynp.tif,95,0.0666666666666667,0.0666666666666667,1.6,8177.356191291,8178.28948375,9,8177.423570708,8177.4898985,8178.314137708,8179.907512583,1,0.933292458999858
130,26,5,categorization,0,bathroom,SHINEd_sun_ahcvzmoyaycdoftf.tif,27,0.0666666666666667,0.0666666666666667,1.56666666666667,8179.927526041,8180.740553541,13,8179.994702291,8180.061796916,8180.769769,8182.329820541,1,0.813027499999407
130,27,5,categorization,0,kitchen,SHINEd_sun_axyyrmzcupyhlivc.tif,107,0.0666666666666667,0.0666666666666667,1.36666666666667,8182.351607125,8183.122615583,13,8182.419040916,8182.484557583,8183.141747083,8184.5017675,0,0.771008458000324
130,28,5,categorization,0,kitchen,SHINEd_sun_adgqasybjyktddhj.tif,78,0.0666666666666667,0.0666666666666667,1.53333333333333,8184.516189375,8185.250912416,9,8184.5822265,8184.646351916,8185.269474458,8186.796186,1,0.734723040999597
130,29,5,categorization,0,kitchen,SHINEd_sun_abftihopvusyfakt.tif,71,0.0666666666666667,0.0666666666666667,1.4,8186.817665666,8187.469271,9,8186.88502625,8186.950766541,8187.491866416,8188.885249958,1,0.651605334000124
130,30,5,categorization,0,bathroom,SHINEd_sun_aljolscmmzydegqp.tif,33,0.0666666666666667,0.0666666666666667,1.06666666666667,8188.903871666,8189.646051791,13,8188.971282708,8189.037305375,8189.660277,8190.720329833,1,0.742180125000232
130,31,5,categorization,0,bathroom,SHINEd_sun_agguqiubmwhqqunb.tif,22,0.0666666666666667,0.0666666666666667,1.63333333333333,8190.734069416,8192.032173791,13,8190.799580166,8190.865812166,8192.059568166,8193.686289666,1,1.29810437499964
130,32,5,categorization,0,kitchen,SHINEd_sun_abrcnpqqhmjwekyf.tif,73,0.0666666666666667,0.0666666666666667,1.8,8193.704581875,8194.463947041,9,8193.771820625,8193.837861416,8194.476264791,8196.269646833,1,0.759365166000862
130,33,5,categorization,0,kitchen,SHINEd_sun_ajcbwwvdlsvjyzje.tif,96,0.0666666666666667,0.0666666666666667,1.53333333333333,8196.287362833,8197.075554416,13,8196.354657458,8196.420986208,8197.093228833,8198.619939625,0,0.788191583000298
130,34,5,categorization,0,bathroom,SHINEd_sun_axxbkopsgyouuebh.tif,58,0.0666666666666667,0.0666666666666667,0.766666666666667,8198.632756416,8199.194171791,13,8198.700307166,8198.765773541,8199.223680166,8199.983730458,1,0.561415374999342
130,35,5,categorization,0,bathroom,SHINEd_sun_aggnnqpdorgxpvce.tif,21,0.0666666666666667,0.0666666666666667,1.86666666666667,8200.001492875,8200.808100333,9,8200.068633916,8200.135010375,8200.820586875,8202.680635875,0,0.806607458000144
130,36,5,categorization,0,kitchen,SHINEd_sun_admlmbcdswaszruo.tif,79,0.0666666666666667,0.0666666666666667,1.13333333333333,8202.695088458,8203.405326625,9,8202.76186675,8202.827771625,8203.434888208,8204.5615945,1,0.710238166999261
130,37,5,categorization,0,kitchen,SHINEd_labelme_kxvouciolcpqplr.tif,62,0.0666666666666667,0.0666666666666667,1.73333333333333,8204.570950625,8205.769499083,13,8204.6358405,8204.702776333,8205.794507166,8207.521229583,0,1.198548458
130,38,5,categorization,0,kitchen,SHINEd_sun_ahdycvpopffkzzsu.tif,90,0.0666666666666667,0.0666666666666667,0.766666666666667,8207.539347708,8209.703958041,13,8207.606694166,8207.672115958,8209.707729333,8210.467733083,0,2.16461033300038
130,39,5,categorization,0,kitchen,SHINEd_sun_afuyedyxivkhecmu.tif,85,0.0666666666666667,0.0666666666666667,1.85,8210.4731415,8211.448120791,9,8210.534980791,8210.595820375,8211.464330375,8213.30770925,1,0.974979290998817
130,40,5,categorization,0,bathroom,SHINEd_sun_akiytfaagpdsphgz.tif,31,0.0666666666666667,0.0666666666666667,0.966666666666667,8213.32569825,8214.457166375,13,8213.393543875,8213.458924708,8214.480505625,8215.440510625,1,1.13146812499872
130,41,5,categorization,0,bathroom,SHINEd_sun_apeeialkgkuxddgh.tif,42,0.0666666666666667,0.0666666666666667,1.06666666666667,8215.445233833,8216.135837625,13,8215.506973416,8215.567900791,8216.153330541,8217.21338275,1,0.69060379199982
130,42,5,categorization,0,bathroom,SHINEd_sun_aavhrsfjbserjtht.tif,13,0.0666666666666667,0.0666666666666667,1.38333333333333,8217.223086708,8218.512651,13,8217.287481625,8217.351928458,8218.523865291,8219.900580833,1,1.28956429199934
130,43,5,categorization,0,bathroom,SHINEd_sun_alotolagknyrgtsk.tif,35,0.0666666666666667,0.0666666666666667,0.766666666666667,8219.918866875,8220.55503975,9,8219.985632541,8220.051609708,8220.573215541,8221.333258125,0,0.636172874999829
130,44,5,categorization,0,bathroom,SHINEd_sun_alkosphxlxwjwgjd.tif,34,0.0666666666666667,0.0666666666666667,0.866666666666667,8221.350750625,8222.744293833,13,8221.416959416,8221.483536,8222.752441916,8223.6124485,1,1.39354320799976
130,45,5,categorization,0,kitchen,SHINEd_sun_aexklacwqwezaorf.tif,84,0.0666666666666667,0.0666666666666667,1.25,8223.617825833,8224.744139291,9,8223.679446833,8223.740720416,8224.759286375,8226.0026635,1,1.12631345800037
130,46,5,categorization,0,kitchen,SHINEd_labelme_brsyyvweiuaazfr.tif,61,0.0666666666666667,0.0666666666666667,1.03333333333333,8226.019512125,8227.202122,9,8226.086125625,8226.152020916,8227.225267541,8228.251979375,1,1.18260987500071
130,47,5,categorization,0,bathroom,SHINEd_sun_aofnryafpsjimzsb.tif,40,0.0666666666666667,0.0666666666666667,0.783333333333333,8228.2636175,8229.10579275,9,8228.328452041,8228.395753625,8229.136129333,8229.912851291,0,0.842175249999855
130,48,5,categorization,0,bathroom,SHINEd_sun_apynckhmoftszqoq.tif,47,0.0666666666666667,0.0666666666666667,0.7,8229.929612708,8230.584679458,13,8229.995982625,8230.06213225,8230.597501875,8231.290840791,1,0.655066749999605
130,49,5,categorization,0,bathroom,SHINEd_sun_axldvoqbuvuggfmq.tif,57,0.0666666666666667,0.0666666666666667,1.75,8231.296550375,8232.696431416,9,8231.358304958,8231.419293916,8232.704961958,8234.4483485,0,1.39988104099939
130,50,5,categorization,0,kitchen,SHINEd_sun_aaxxjlsuzvqlgylf.tif,68,0.0666666666666667,0.0666666666666667,1.36666666666667,8234.467836583,8235.291185791,9,8234.532262083,8234.599588791,8235.305094208,8236.665136875,1,0.823349207999854
130,1,6,categorization,0,bathroom,SHINEd_sun_atstyziqcmkahyxk.tif,51,0.0666666666666667,0.0666666666666667,0.966666666666667,8242.6714295,8243.40023825,13,8242.733894,8242.794189666,8243.412620583,8244.372625333,1,0.728808750000098
130,2,6,categorization,0,kitchen,SHINEd_sun_amjjdeyrggfqgmom.tif,100,0.0666666666666667,0.0666666666666667,1.73333333333333,8244.378107333,8245.144269041,9,8244.439718833,8244.500790208,8245.152539583,8246.879244875,1,0.766161708001164
130,3,6,categorization,0,bathroom,SHINEd_sun_agrwbmhcpmfuwmsg.tif,24,0.0666666666666667,0.0666666666666667,1.91666666666667,8246.897697833,8248.312162541,13,8246.964338916,8247.030284625,8248.31638325,8250.22643125,1,1.41446470800111
130,4,6,categorization,0,kitchen,SHINEd_sun_aqeaevwwwjoqhzvl.tif,101,0.0666666666666667,0.0666666666666667,0.766666666666667,8250.243519666,8252.440307583,9,8250.311250166,8250.376320125,8252.4452475,8253.2052525,1,2.1967879169988
130,5,6,categorization,0,kitchen,SHINEd_sun_acfmftudsenhrfhy.tif,74,0.0666666666666667,0.0666666666666667,0.916666666666667,8253.210062708,8254.104303208,9,8253.271867791,8253.332711541,8254.117763291,8255.02776825,1,0.894240499999796
130,6,6,categorization,0,kitchen,SHINEd_sun_agorklincwxrdtga.tif,87,0.0666666666666667,0.0666666666666667,1.18333333333333,8255.033199583,8256.215900541,9,8255.094957875,8255.155913333,8256.224884458,8257.401596625,1,1.18270095799926
130,7,6,categorization,0,kitchen,SHINEd_sun_aarfiyshqohlwkmo.tif,67,0.0666666666666667,0.0666666666666667,1.8,8257.411654416,8258.291226833,13,8257.47970425,8257.544276291,8258.317521958,8260.110897083,0,0.879572416999508
130,8,6,categorization,0,bathroom,SHINEd_sun_ambriybtogmepttm.tif,36,0.0666666666666667,0.0666666666666667,0.883333333333333,8260.1289765,8261.944535291,13,8260.195743625,8260.261591875,8261.963944,8262.840616916,1,1.81555879100051
130,9,6,categorization,0,bathroom,SHINEd_sun_acegryoqftbzowsg.tif,17,0.0666666666666667,0.0666666666666667,1.83333333333333,8262.845648125,8263.671626375,9,8262.907475791,8262.968338,8263.6868685,8265.513577958,0,0.825978250000844
130,10,6,categorization,0,bathroom,SHINEd_sun_awnqiikzaispgmwo.tif,56,0.0666666666666667,0.0666666666666667,1.76666666666667,8265.533912625,8266.250029916,13,8265.600546125,8265.667231916,8266.274288833,8268.034316291,1,0.716117291000046
130,11,6,categorization,0,bathroom,SHINEd_sun_auzqhkafidnkrwmo.tif,54,0.0666666666666667,0.0666666666666667,0.983333333333333,8268.050396875,8268.667586416,13,8268.116713875,8268.182942375,8268.689620541,8269.666292125,1,0.617189541000698
130,12,6,categorization,0,bathroom,SHINEd_sun_asfwthctfqerjvxr.tif,49,0.0666666666666667,0.0666666666666667,0.883333333333333,8269.672200666,8270.431688916,13,8269.733852416,8269.794925958,8270.446764125,8271.323434791,1,0.759488249999777
130,13,6,categorization,0,bathroom,SHINEd_sun_apjevzvycyhuqghb.tif,43,0.0666666666666667,0.0666666666666667,0.85,8271.328358375,8272.024483791,9,8271.390176166,8271.451178333,8272.036461416,8272.879800291,0,0.696125415999632
130,14,6,categorization,0,kitchen,SHINEd_sun_aegoxogugdkwpmpj.tif,80,0.0666666666666667,0.0666666666666667,0.733333333333333,8272.884722375,8273.655973708,9,8272.946514625,8273.007332416,8273.658947625,8274.385619125,1,0.771251333000691
130,15,6,categorization,0,kitchen,SHINEd_sun_azmutvzbxypaceni.tif,110,0.0666666666666667,0.0666666666666667,1.88333333333333,8274.390437291,8275.383871583,9,8274.452017333,8274.513367291,8275.398511208,8277.275213208,1,0.993434292000529
130,16,6,categorization,0,kitchen,SHINEd_sun_aehawpgmrlhlvcow.tif,81,0.0666666666666667,0.0666666666666667,0.816666666666667,8277.292948291,8278.013458916,9,8277.35977775,8277.426015541,8278.032443208,8278.842447083,1,0.720510625000315
130,17,6,categorization,0,bathroom,SHINEd_sun_amzlamotzwfkwjco.tif,37,0.0666666666666667,0.0666666666666667,1.9,8278.849170583,8279.76055575,13,8278.910873291,8278.971818875,8279.773622416,8281.667009041,1,0.911385166999025
130,18,6,categorization,0,bathroom,SHINEd_sun_abapwbhyhkfixyex.tif,14,0.0666666666666667,0.0666666666666667,0.983333333333333,8281.682574,8282.751339416,9,8281.749296,8281.815405,8282.77224875,8283.748920166,0,1.06876541599922
130,19,6,categorization,0,bathroom,SHINEd_sun_azqyogdvyhahyram.tif,60,0.0666666666666667,0.0666666666666667,0.75,8283.754786625,8284.4875345,13,8283.81650575,8283.877525875,8284.49588375,8285.239223708,1,0.732747874999404
130,20,6,categorization,0,bathroom,SHINEd_sun_apkxzenqapsujocq.tif,45,0.0666666666666667,0.0666666666666667,1.6,8285.245032791,8285.87983475,13,8285.306834208,8285.367697875,8285.886132458,8287.479503708,1,0.63480195900047
130,21,6,categorization,0,kitchen,SHINEd_sun_akcjzhbbjlbogpdi.tif,99,0.0666666666666667,0.0666666666666667,1.58333333333333,8287.497468291,8288.118083666,13,8287.563786541,8287.630224708,8288.136336458,8289.713052583,0,0.620615375000853
130,22,6,categorization,0,kitchen,SHINEd_sun_aeqdocilnnpuvuhx.tif,83,0.0666666666666667,0.0666666666666667,1.11666666666667,8289.730672166,8290.7862735,13,8289.797261666,8289.863827958,8290.8033025,8291.913334875,0,1.05560133399922
130,23,6,categorization,0,bathroom,SHINEd_sun_anryaplzeujmzfkd.tif,39,0.0666666666666667,0.0666666666666667,1.53333333333333,8291.922753333,8292.994463416,13,8291.9878845,8292.055385166,8293.011602458,8294.538285791,1,1.07171008300065
130,24,6,categorization,0,bathroom,SHINEd_sun_ahijqszoswveeyji.tif,28,0.0666666666666667,0.0666666666666667,1.48333333333333,8294.549230166,8295.437037875,13,8294.613895,8294.681935375,8295.454876458,8296.931581791,1,0.887807709001208
130,25,6,categorization,0,kitchen,SHINEd_labelme_rykdqxenmhulbdn.tif,63,0.0666666666666667,0.0666666666666667,1.1,8296.945928375,8297.628547125,13,8297.012323166,8297.078226458,8297.652092958,8298.745471375,0,0.682618749999165
130,26,6,categorization,0,kitchen,SHINEd_sun_avszsnwsbuqfgzbn.tif,105,0.0666666666666667,0.0666666666666667,0.933333333333333,8298.75563875,8299.368537791,9,8298.820813583,8298.888684708,8299.395322916,8300.322050166,1,0.612899040999764
130,27,6,categorization,0,bathroom,SHINEd_sun_aleqenyvunhactkl.tif,32,0.0666666666666667,0.0666666666666667,0.816666666666667,8300.336765791,8301.080468208,9,8300.403529375,8300.468467916,8301.087168,8301.897174833,0,0.74370241699944
130,28,6,categorization,0,kitchen,SHINEd_sun_aapllqyqlykszopd.tif,66,0.0666666666666667,0.0666666666666667,1.78333333333333,8301.902938333,8302.736206916,9,8301.964618666,8302.025676166,8302.744174458,8304.520881625,1,0.833268583000972
130,29,6,categorization,0,bathroom,SHINEd_sun_apmqjbnwghzuhhzh.tif,46,0.0666666666666667,0.0666666666666667,0.766666666666667,8304.533533458,8305.140699375,13,8304.598284375,8304.66617975,8305.1550205,8305.915026083,1,0.607165917001112
130,30,6,categorization,0,kitchen,SHINEd_sun_akchetnepxlcxhsu.tif,98,0.0666666666666667,0.0666666666666667,1.45,8305.920721541,8306.535985916,13,8305.982501625,8306.043435208,8306.545114291,8307.98850175,0,0.615264374999242
130,31,6,categorization,0,bathroom,SHINEd_sun_ajlawzvmubibwbpy.tif,30,0.0666666666666667,0.0666666666666667,0.75,8308.00819975,8309.26352625,13,8308.075459,8308.141273625,8309.279896416,8310.023235958,1,1.25532650000059
130,32,6,categorization,0,kitchen,SHINEd_sun_ahywdevtimnqcsln.tif,94,0.0666666666666667,0.0666666666666667,1.36666666666667,8310.028497166,8310.807414333,9,8310.090369916,8310.151172833,8310.819702041,8312.179764291,1,0.778917166999236
130,33,6,categorization,0,bathroom,SHINEd_sun_aoybiabnpadelefl.tif,41,0.0666666666666667,0.0666666666666667,0.75,8312.197037666,8313.568404166,13,8312.263709,8312.329960666,8313.587734458,8314.331074541,1,1.37136650000139
130,34,6,categorization,0,bathroom,SHINEd_sun_acduarbnmmoglmiv.tif,16,0.0666666666666667,0.0666666666666667,0.783333333333333,8314.336453041,8315.09587525,9,8314.398498666,8314.459220125,8315.111139958,8315.887811125,0,0.75942220899924
130,35,6,categorization,0,bathroom,SHINEd_sun_avhrdrntsqrjzccq.tif,55,0.0666666666666667,0.0666666666666667,1.11666666666667,8315.892602875,8316.91990875,13,8315.954397875,8316.01534975,8316.933785708,8318.043827583,1,1.02730587500082
130,36,6,categorization,0,kitchen,SHINEd_sun_aypmqwcualkenuoe.tif,109,0.0666666666666667,0.0666666666666667,0.766666666666667,8318.053581416,8318.853184458,9,8318.118258291,8318.186059,8318.875897916,8319.635962291,1,0.799603041999944
130,37,6,categorization,0,bathroom,SHINEd_sun_aghyqhbptboemmoq.tif,23,0.0666666666666667,0.0666666666666667,0.716666666666667,8319.652379083,8320.783532041,13,8319.718738625,8319.785225041,8320.786949833,8321.496955166,1,1.1311529579998
130,38,6,categorization,0,kitchen,SHINEd_sun_auaiucuqpdausiva.tif,102,0.0666666666666667,0.0666666666666667,1.33333333333333,8321.501966708,8322.255909,9,8321.563853625,8321.624805291,8322.259927333,8323.586636,1,0.75394229199992
130,39,6,categorization,0,bathroom,SHINEd_sun_aqrpegblszgcoujh.tif,48,0.0666666666666667,0.0666666666666667,1.75,8323.603710125,8325.399917166,13,8323.670573166,8323.737159458,8325.406360208,8327.149734,1,1.79620704099943
130,40,6,categorization,0,kitchen,SHINEd_sun_aenotlpyftoioydp.tif,82,0.0666666666666667,0.0666666666666667,1.13333333333333,8327.169043958,8327.903713291,9,8327.235868708,8327.301847541,8327.925167708,8329.051887208,1,0.734669333000056
130,41,6,categorization,0,kitchen,SHINEd_sun_aamedkxepzlwuxes.tif,65,0.0666666666666667,0.0666666666666667,1.63333333333333,8329.061553625,8329.52965375,9,8329.126789833,8329.1940845,8329.550162,8331.176866125,1,0.468100124999182
130,42,6,categorization,0,bathroom,SHINEd_sun_ahqjwnzgolcaoidx.tif,29,0.0666666666666667,0.0666666666666667,1.43333333333333,8331.196370125,8332.452228666,13,8331.262694583,8331.329440291,8332.468967791,8333.895681166,1,1.25585854099882
130,43,6,categorization,0,bathroom,SHINEd_sun_abjtwfukuwddzted.tif,15,0.0666666666666667,0.0666666666666667,1.83333333333333,8333.913036166,8335.177945833,13,8333.979518375,8334.046130791,8335.206305208,8337.0330165,1,1.2649096669993
130,44,6,categorization,0,kitchen,SHINEd_sun_auticobqsbwgoppi.tif,104,0.0666666666666667,0.0666666666666667,1.93333333333333,8337.051612541,8337.637852333,9,8337.119081375,8337.184543208,8337.657878041,8339.584577625,1,0.586239792000924
130,45,6,categorization,0,bathroom,SHINEd_labelme_sfxiulhjbhlyiyt.tif,11,0.0666666666666667,0.0666666666666667,1.26666666666667,8339.602396625,8340.440188375,9,8339.669348125,8339.735667958,8340.459008958,8341.7190515,0,0.837791750000179
130,46,6,categorization,0,kitchen,SHINEd_sun_aunzlwrbjumxhwdj.tif,103,0.0666666666666667,0.0666666666666667,1.86666666666667,8341.73646475,8342.3972915,9,8341.80328,8341.869778583,8342.426522208,8344.286579541,1,0.660826749999615
130,47,6,categorization,0,bathroom,SHINEd_sun_ausgutylgojavyoq.tif,53,0.0666666666666667,0.0666666666666667,1.41666666666667,8344.304306916,8345.983902708,13,8344.371178458,8344.437423625,8345.989722791,8347.399768291,1,1.67959579200033
130,48,6,categorization,0,kitchen,SHINEd_sun_abdxkyyxwfskuaqb.tif,70,0.0666666666666667,0.0666666666666667,1.11666666666667,8347.419069125,8348.128780958,9,8347.486015708,8347.551820083,8348.158737166,8349.268777958,1,0.709711833000256
130,49,6,categorization,0,kitchen,SHINEd_sun_ahljzhgcdpomplvg.tif,91,0.0666666666666667,0.0666666666666667,1.8,8349.279785416,8350.172116416,9,8349.344897833,8349.412512833,8350.202769125,8351.996161833,1,0.892331000000922
130,50,6,categorization,0,bathroom,SHINEd_sun_axyrejkiiaqiurjk.tif,59,0.0666666666666667,0.0666666666666667,1.25,8352.013792791,8353.312972,9,8352.08088125,8352.1467035,8353.339498958,8354.582879291,0,1.2991792089997
130,1,7,categorization,0,bathroom,SHINEd_sun_amzlamotzwfkwjco.tif,37,0.0666666666666667,0.0666666666666667,0.883333333333333,8383.483156041,8384.959887708,13,8383.545825583,8383.605850833,8384.974780958,8385.851453583,1,1.47673166700042
130,2,7,categorization,0,bathroom,SHINEd_sun_aggnnqpdorgxpvce.tif,21,0.0666666666666667,0.0666666666666667,1.03333333333333,8385.856328833,8386.623952875,9,8385.918085875,8385.978999041,8386.630851125,8387.657572041,0,0.767624041998715
130,3,7,categorization,0,kitchen,SHINEd_sun_auaiucuqpdausiva.tif,102,0.0666666666666667,0.0666666666666667,1.06666666666667,8387.669373208,8388.453707875,9,8387.73458,8387.799546291,8388.470421625,8389.530468041,1,0.784334666999712
130,4,7,categorization,0,kitchen,SHINEd_sun_abdenxonkemggwsq.tif,69,0.0666666666666667,0.0666666666666667,0.833333333333333,8389.550026666,8390.40789625,9,8389.616335333,8389.681895208,8390.417601583,8391.244272916,1,0.857869584000582
130,5,7,categorization,0,kitchen,SHINEd_sun_aarfiyshqohlwkmo.tif,67,0.0666666666666667,0.0666666666666667,0.716666666666667,8391.249218083,8392.272002,9,8391.310908416,8391.371875833,8392.290426291,8393.000431541,1,1.0227839170002
130,6,7,categorization,0,kitchen,SHINEd_sun_avszsnwsbuqfgzbn.tif,105,0.0666666666666667,0.0666666666666667,0.733333333333333,8393.00538775,8393.807463458,9,8393.067160458,8393.128136083,8393.813230416,8394.539900416,1,0.802075708001212
130,7,7,categorization,0,kitchen,SHINEd_sun_awcpdzzznmweyyhv.tif,106,0.0666666666666667,0.0666666666666667,1.38333333333333,8394.54459575,8395.744093125,9,8394.606458083,8394.66726775,8395.752427541,8397.129147708,1,1.19949737500065
130,8,7,categorization,0,kitchen,SHINEd_sun_ahspylgoovwmwvgk.tif,93,0.0666666666666667,0.0666666666666667,0.9,8397.145666375,8398.314768833,9,8397.21206775,8397.278001833,8398.335429166,8399.228767791,1,1.16910245799954
130,9,7,categorization,0,bathroom,SHINEd_sun_ausgutylgojavyoq.tif,53,0.0666666666666667,0.0666666666666667,0.816666666666667,8399.234168833,8399.903237875,13,8399.295931458,8399.356892458,8399.908609375,8400.718612875,1,0.669069042000046
130,10,7,categorization,0,kitchen,SHINEd_sun_agorklincwxrdtga.tif,87,0.0666666666666667,0.0666666666666667,0.85,8400.72343375,8402.064160791,9,8400.785171458,8400.846157583,8402.08154975,8402.9248865,1,1.34072704100072
130,11,7,categorization,0,bathroom,SHINEd_sun_aavhrsfjbserjtht.tif,13,0.0666666666666667,0.0666666666666667,1.6,8402.931695166,8403.943805333,9,8402.99341075,8403.054483375,8403.956281666,8405.549649375,0,1.01211016699926
130,12,7,categorization,0,kitchen,SHINEd_sun_abrcnpqqhmjwekyf.tif,73,0.0666666666666667,0.0666666666666667,1.75,8405.567977625,8406.586754791,13,8405.634571666,8405.701083708,8406.606517958,8408.349889708,0,1.01877716600029
130,13,7,categorization,0,bathroom,SHINEd_sun_anryaplzeujmzfkd.tif,39,0.0666666666666667,0.0666666666666667,1.1,8408.368159625,8409.295138583,13,8408.435163041,8408.49878725,8409.322735875,8410.416111833,1,0.926978957999381
130,14,7,categorization,0,kitchen,SHINEd_sun_auticobqsbwgoppi.tif,104,0.0666666666666667,0.0666666666666667,1.46666666666667,8410.429321083,8411.460897166,9,8410.49437275,8410.560072375,8411.483829416,8412.943874166,1,1.03157608299989
130,15,7,categorization,0,kitchen,SHINEd_sun_abdxkyyxwfskuaqb.tif,70,0.0666666666666667,0.0666666666666667,1.25,8412.961658291,8413.922846208,9,8413.029490333,8413.095375208,8413.952239916,8415.195611416,1,0.961187916998824
130,16,7,categorization,0,bathroom,SHINEd_sun_aspsyogrekjtfozg.tif,50,0.0666666666666667,0.0666666666666667,1.13333333333333,8415.214453333,8416.023196416,13,8415.283368541,8415.347443333,8416.054353333,8417.18104425,1,0.808743083000081
130,17,7,categorization,0,bathroom,SHINEd_sun_apkxzenqapsujocq.tif,45,0.0666666666666667,0.0666666666666667,1.33333333333333,8417.19167275,8417.744279833,13,8417.258936833,8417.324621416,8417.764131166,8419.090840833,1,0.552607083000112
130,18,7,categorization,0,kitchen,SHINEd_sun_azmutvzbxypaceni.tif,110,0.0666666666666667,0.0666666666666667,1.86666666666667,8419.11032275,8420.24739275,9,8419.173377041,8419.23324775,8420.251871,8422.111927958,1,1.13706999999886
130,19,7,categorization,0,bathroom,SHINEd_sun_alkosphxlxwjwgjd.tif,34,0.0666666666666667,0.0666666666666667,1.58333333333333,8422.130988166,8423.043607375,13,8422.198093333,8422.264047791,8423.070949958,8424.64765825,1,0.912619209000695
130,20,7,categorization,0,kitchen,SHINEd_sun_aixorpehvfykdynp.tif,95,0.0666666666666667,0.0666666666666667,1.05,8424.666508625,8425.420519083,9,8424.7332935,8424.799878166,8425.440056916,8426.483435458,1,0.754010458000266
130,21,7,categorization,0,bathroom,SHINEd_sun_agrwbmhcpmfuwmsg.tif,24,0.0666666666666667,0.0666666666666667,0.9,8426.494561125,8427.183372833,13,8426.559718791,8426.625874625,8427.19866725,8428.092041708,1,0.688811707999776
130,22,7,categorization,0,bathroom,SHINEd_sun_apynckhmoftszqoq.tif,47,0.0666666666666667,0.0666666666666667,0.7,8428.10613625,8428.647884833,13,8428.173683875,8428.239606208,8428.658621833,8429.35196075,1,0.541748583000299
130,23,7,categorization,0,kitchen,SHINEd_labelme_kxvouciolcpqplr.tif,62,0.0666666666666667,0.0666666666666667,0.933333333333333,8429.357528541,8429.911160208,13,8429.419162291,8429.480256333,8429.915380833,8430.842052708,0,0.553631666998626
130,24,7,categorization,0,kitchen,SHINEd_sun_aqeaevwwwjoqhzvl.tif,101,0.0666666666666667,0.0666666666666667,1.95,8430.84837075,8431.511859916,13,8430.910146833,8430.97105025,8431.522847291,8433.466216666,0,0.663489165999636
130,25,7,categorization,0,bathroom,SHINEd_sun_abapwbhyhkfixyex.tif,14,0.0666666666666667,0.0666666666666667,1.06666666666667,8433.483968666,8434.17150175,13,8433.550780583,8433.616736833,8434.189420875,8435.249469583,1,0.687533083999369
130,26,7,categorization,0,kitchen,SHINEd_sun_agzzivivdpnawacl.tif,89,0.0666666666666667,0.0666666666666667,1.2,8435.261392291,8436.51383775,13,8435.326129041,8435.391702791,8436.530848875,8437.724217875,0,1.25244545900023
130,27,7,categorization,0,bathroom,SHINEd_sun_afcoljnjfoxjtgja.tif,20,0.0666666666666667,0.0666666666666667,0.75,8437.737176458,8438.57918225,13,8437.8052595,8437.867891375,8438.606311208,8439.349697291,1,0.842005791999327
130,28,7,categorization,0,kitchen,SHINEd_sun_agubuxuukhzyzpdp.tif,88,0.0666666666666667,0.0666666666666667,0.816666666666667,8439.366442833,8439.887619958,9,8439.433515125,8439.499511625,8439.9014055,8440.711410458,1,0.521177125001486
130,29,7,categorization,0,bathroom,SHINEd_sun_ahijqszoswveeyji.tif,28,0.0666666666666667,0.0666666666666667,1.96666666666667,8440.715958375,8441.887014208,13,8440.777657583,8440.838725166,8441.89038225,8443.850433541,1,1.17105583299963
130,30,7,categorization,0,bathroom,SHINEd_sun_avhrdrntsqrjzccq.tif,55,0.0666666666666667,0.0666666666666667,1.2,8443.86843075,8444.517322708,9,8443.935271125,8444.001498041,8444.539583083,8445.732958041,0,0.648891957998785
130,31,7,categorization,0,bathroom,SHINEd_sun_aqrpegblszgcoujh.tif,48,0.0666666666666667,0.0666666666666667,0.883333333333333,8445.744716041,8446.375869458,13,8445.811357833,8445.877348166,8446.400510833,8447.277212458,1,0.63115341699995
130,32,7,categorization,0,bathroom,SHINEd_sun_ahaulkltgpkeeemi.tif,26,0.0666666666666667,0.0666666666666667,1.33333333333333,8447.293677666,8447.8959285,13,8447.360441791,8447.426343375,8447.911898791,8449.238610958,1,0.602250833999278
130,33,7,categorization,0,bathroom,SHINEd_sun_acgyywnybuveqsro.tif,18,0.0666666666666667,0.0666666666666667,1.45,8449.257164208,8449.922721166,13,8449.323695208,8449.389813875,8449.946543833,8451.389916375,1,0.665556957999797
130,34,7,categorization,0,kitchen,SHINEd_sun_aenotlpyftoioydp.tif,82,0.0666666666666667,0.0666666666666667,1.15,8451.408459333,8451.963172708,9,8451.475194,8451.54117175,8451.980694708,8453.124080125,1,0.554713374998755
130,35,7,categorization,0,kitchen,SHINEd_sun_aapllqyqlykszopd.tif,66,0.0666666666666667,0.0666666666666667,0.966666666666667,8453.133844708,8453.607634125,9,8453.196500833,8453.256697708,8453.625205416,8454.585209458,1,0.473789416999352
130,36,7,categorization,0,bathroom,SHINEd_sun_agguqiubmwhqqunb.tif,22,0.0666666666666667,0.0666666666666667,1.45,8454.590124416,8455.743540583,9,8454.651883916,8454.71279875,8455.74819775,8457.191581166,0,1.15341616700061
130,37,7,categorization,0,bathroom,SHINEd_sun_acegryoqftbzowsg.tif,17,0.0666666666666667,0.0666666666666667,0.8,8457.20525675,8458.285136083,13,8457.272358875,8457.338433458,8458.311864166,8459.105203333,1,1.07987933300137
130,38,7,categorization,0,bathroom,SHINEd_sun_asfwthctfqerjvxr.tif,49,0.0666666666666667,0.0666666666666667,1.45,8459.110470083,8459.9669945,13,8459.172442708,8459.233292375,8459.985066791,8461.428457416,1,0.856524417000401
130,39,7,categorization,0,kitchen,SHINEd_sun_akcjzhbbjlbogpdi.tif,99,0.0666666666666667,0.0666666666666667,1.1,8461.447233041,8462.158625291,9,8461.515840583,8461.58039575,8462.187572333,8463.280950375,1,0.711392249999335
130,40,7,categorization,0,bathroom,SHINEd_sun_aoybiabnpadelefl.tif,41,0.0666666666666667,0.0666666666666667,1.16666666666667,8463.292584875,8463.983727208,9,8463.358185833,8463.426018791,8463.999034625,8465.159096458,0,0.691142333000244
130,41,7,categorization,0,kitchen,SHINEd_sun_afuyedyxivkhecmu.tif,85,0.0666666666666667,0.0666666666666667,1.31666666666667,8465.176074,8466.086844666,9,8465.238955583,8465.298955625,8466.10101625,8467.411077666,1,0.910770665999735
130,42,7,categorization,0,kitchen,SHINEd_sun_aggjlwcdjsjcaemh.tif,86,0.0666666666666667,0.0666666666666667,1.68333333333333,8467.429516166,8469.286915208,9,8467.497390791,8467.562601666,8469.298339208,8470.975053041,1,1.85739904200091
130,43,7,categorization,0,bathroom,SHINEd_sun_abjtwfukuwddzted.tif,15,0.0666666666666667,0.0666666666666667,0.966666666666667,8470.993216833,8471.619858708,13,8471.061744708,8471.125856791,8471.649858833,8472.609862833,1,0.626641875000132
130,44,7,categorization,0,bathroom,SHINEd_sun_aghyqhbptboemmoq.tif,23,0.0666666666666667,0.0666666666666667,1.4,8472.615053708,8473.615280791,13,8472.676804666,8472.737780291,8473.622948291,8475.016330916,1,1.00022708300094
130,45,7,categorization,0,bathroom,SHINEd_sun_ajlawzvmubibwbpy.tif,30,0.0666666666666667,0.0666666666666667,0.783333333333333,8475.034043375,8475.943244916,9,8475.100974,8475.167346916,8475.974152625,8476.750825291,0,0.909201540998765
130,46,7,categorization,0,bathroom,SHINEd_sun_akiytfaagpdsphgz.tif,31,0.0666666666666667,0.0666666666666667,1.08333333333333,8476.756450958,8477.879463458,13,8476.818170791,8476.879190666,8477.897690583,8478.974401083,1,1.12301250000019
130,47,7,categorization,0,kitchen,SHINEd_sun_admlmbcdswaszruo.tif,79,0.0666666666666667,0.0666666666666667,1.43333333333333,8478.984081791,8479.616847375,9,8479.051101625,8479.116895458,8479.6408185,8481.067526791,1,0.632765583999571
130,48,7,categorization,0,kitchen,SHINEd_sun_acfmftudsenhrfhy.tif,74,0.0666666666666667,0.0666666666666667,1.75,8481.079252416,8481.608141541,9,8481.14639425,8481.209203541,8481.632741125,8483.376122125,1,0.528889125000205
130,49,7,categorization,0,kitchen,SHINEd_sun_adgqasybjyktddhj.tif,78,0.0666666666666667,0.0666666666666667,1.21666666666667,8483.395062041,8484.081392166,9,8483.461674875,8483.527883375,8484.100599041,8485.310641083,1,0.686330124999586
130,50,7,categorization,0,bathroom,SHINEd_sun_awnqiikzaispgmwo.tif,56,0.0666666666666667,0.0666666666666667,1.31666666666667,8485.32111725,8486.154186083,13,8485.386356375,8485.454094958,8486.177780125,8487.48783025,1,0.833068833000652
130,1,8,categorization,0,kitchen,SHINEd_sun_aegoxogugdkwpmpj.tif,80,0.0666666666666667,0.0666666666666667,1.18333333333333,8495.058857916,8496.063190916,9,8495.121443333,8495.181861791,8496.066862375,8497.243569625,1,1.00433300000077
130,2,8,categorization,0,bathroom,SHINEd_sun_agyqfjcfkdcydepw.tif,25,0.0666666666666667,0.0666666666666667,0.983333333333333,8497.253705958,8497.807261833,13,8497.322423,8497.38705575,8497.826446083,8498.803149333,1,0.553555874999802
130,3,8,categorization,0,bathroom,SHINEd_sun_apmqjbnwghzuhhzh.tif,46,0.0666666666666667,0.0666666666666667,1.65,8498.819297625,8499.399122333,13,8498.886900666,8498.951650166,8499.403630166,8501.047010958,1,0.57982470800016
130,4,8,categorization,0,bathroom,SHINEd_sun_anhioqovhscjqqwb.tif,38,0.0666666666666667,0.0666666666666667,1.23333333333333,8501.066587208,8501.647432625,13,8501.133615541,8501.19942525,8501.672323416,8502.89903775,1,0.580845417000091
130,5,8,categorization,0,kitchen,SHINEd_sun_aehawpgmrlhlvcow.tif,81,0.0666666666666667,0.0666666666666667,0.916666666666667,8502.916403416,8503.594623041,9,8502.983285,8503.044549125,8503.618063583,8504.528084208,1,0.678219625000565
130,6,8,categorization,0,bathroom,SHINEd_sun_alotolagknyrgtsk.tif,35,0.0666666666666667,0.0666666666666667,1.56666666666667,8504.536710625,8505.183295625,9,8504.601521083,8504.669392875,8505.188142875,8506.748204291,0,0.646585000000414
130,7,8,categorization,0,bathroom,SHINEd_sun_axxbkopsgyouuebh.tif,58,0.0666666666666667,0.0666666666666667,1.63333333333333,8506.766244625,8507.627905166,13,8506.832762875,8506.899144083,8507.655764333,8509.282483208,1,0.861660541000674
130,8,8,categorization,0,kitchen,SHINEd_sun_abpwyqmlzafvklqo.tif,72,0.0666666666666667,0.0666666666666667,1.1,8509.299623125,8510.180847208,9,8509.366395958,8509.432302916,8510.205521625,8511.298911083,1,0.881224082999324
130,9,8,categorization,0,kitchen,SHINEd_sun_ajkqhtgcbgpcwrwn.tif,97,0.0666666666666667,0.0666666666666667,1.38333333333333,8511.308821083,8512.011075291,9,8511.373932083,8511.441529916,8512.0312895,8513.40799075,1,0.70225420800125
130,10,8,categorization,0,kitchen,SHINEd_sun_ahljzhgcdpomplvg.tif,91,0.0666666666666667,0.0666666666666667,0.766666666666667,8513.424967958,8514.268452875,9,8513.491526333,8513.557691625,8514.297558041,8515.057601416,1,0.843484916998932
130,11,8,categorization,0,bathroom,SHINEd_sun_aofnryafpsjimzsb.tif,40,0.0666666666666667,0.0666666666666667,1.45,8515.074354666,8515.7510495,13,8515.141122166,8515.206933166,8515.759277583,8517.202661875,1,0.676694834000955
130,12,8,categorization,0,kitchen,SHINEd_sun_aymvwlarqodbwuoc.tif,108,0.0666666666666667,0.0666666666666667,0.983333333333333,8517.2203045,8517.9279105,13,8517.287183416,8517.353715333,8517.942987666,8518.919660041,0,0.707605999999942
130,13,8,categorization,0,kitchen,SHINEd_sun_akchetnepxlcxhsu.tif,98,0.0666666666666667,0.0666666666666667,0.716666666666667,8518.925468458,8519.591533541,13,8518.9873105,8519.0481375,8519.599861666,8520.309866125,0,0.66606508300174
130,14,8,categorization,0,bathroom,SHINEd_sun_aljolscmmzydegqp.tif,33,0.0666666666666667,0.0666666666666667,1.41666666666667,8520.314695541,8521.183431291,13,8520.376447416,8520.4375325,8521.189490875,8522.59952425,1,0.868735750000269
130,15,8,categorization,0,bathroom,SHINEd_sun_azqyogdvyhahyram.tif,60,0.0666666666666667,0.0666666666666667,1.21666666666667,8522.608894708,8523.550665291,13,8522.674053416,8522.742027833,8523.5635715,8524.773621791,1,0.941770583000107
130,16,8,categorization,0,kitchen,SHINEd_sun_acxkpeoqbwcxfvip.tif,77,0.0666666666666667,0.0666666666666667,1.61666666666667,8524.792649875,8525.729240541,9,8524.859705083,8524.925600416,8525.7485675,8527.358606791,1,0.936590666000484
130,17,8,categorization,0,bathroom,SHINEd_sun_atstyziqcmkahyxk.tif,51,0.0666666666666667,0.0666666666666667,0.783333333333333,8527.378394875,8528.07832775,13,8527.445958375,8527.511677333,8528.101786291,8528.878459708,1,0.699932874998922
130,18,8,categorization,0,bathroom,SHINEd_sun_ahcvzmoyaycdoftf.tif,27,0.0666666666666667,0.0666666666666667,1.98333333333333,8528.884553,8529.439453916,13,8528.94624675,8529.007359,8529.442364875,8531.419086125,1,0.554900916000406
130,19,8,categorization,0,kitchen,SHINEd_sun_aaxxjlsuzvqlgylf.tif,68,0.0666666666666667,0.0666666666666667,0.983333333333333,8531.438889708,8532.001258041,9,8531.505589625,8531.571779833,8532.028566125,8533.005238,1,0.56236833299954
130,20,8,categorization,0,kitchen,SHINEd_labelme_brsyyvweiuaazfr.tif,61,0.0666666666666667,0.0666666666666667,0.8,8533.010868666,8533.742804625,9,8533.072590583,8533.133573875,8533.752130541,8534.545468625,1,0.731935959000111
130,21,8,categorization,0,bathroom,SHINEd_sun_apeeialkgkuxddgh.tif,42,0.0666666666666667,0.0666666666666667,0.733333333333333,8534.55032025,8535.175115916,13,8534.612249791,8534.673146041,8535.191676083,8535.918346083,1,0.624795665999045
130,22,8,categorization,0,kitchen,SHINEd_sun_abftihopvusyfakt.tif,71,0.0666666666666667,0.0666666666666667,0.966666666666667,8535.923185625,8536.607265708,9,8535.984835625,8536.046011625,8536.614581458,8537.574587,1,0.684080082999571
130,23,8,categorization,0,kitchen,SHINEd_sun_acwjdupvyjsugpay.tif,76,0.0666666666666667,0.0666666666666667,0.866666666666667,8537.580436125,8538.607326791,13,8537.6423465,8537.7031275,8538.621660583,8539.481666166,0,1.02689066600033
130,24,8,categorization,0,kitchen,SHINEd_sun_axyyrmzcupyhlivc.tif,107,0.0666666666666667,0.0666666666666667,1.23333333333333,8539.486797375,8540.079541166,13,8539.548577458,8539.60942125,8540.094955583,8541.321680666,0,0.592743790999521
130,25,8,categorization,0,kitchen,SHINEd_sun_ahdycvpopffkzzsu.tif,90,0.0666666666666667,0.0666666666666667,1.9,8541.3395625,8541.932633083,9,8541.406472041,8541.472419958,8541.962432125,8543.855823833,1,0.593070583001463
130,26,8,categorization,0,bathroom,SHINEd_sun_apjevzvycyhuqghb.tif,43,0.0666666666666667,0.0666666666666667,0.866666666666667,8543.875072666,8544.623032083,9,8543.941670666,8544.00755475,8544.646735583,8545.506741208,0,0.747959416999947
130,27,8,categorization,0,bathroom,SHINEd_sun_auzqhkafidnkrwmo.tif,54,0.0666666666666667,0.0666666666666667,0.966666666666667,8545.514630083,8546.327354333,13,8545.57635475,8545.637450041,8546.339301791,8547.29930725,1,0.812724249999519
130,28,8,categorization,0,bathroom,SHINEd_sun_apkruvsevgegsdwp.tif,44,0.0666666666666667,0.0666666666666667,0.916666666666667,8547.304202958,8547.919239,13,8547.365939916,8547.426921875,8547.92883325,8548.838838875,1,0.61503604200152
130,29,8,categorization,0,bathroom,SHINEd_sun_aleqenyvunhactkl.tif,32,0.0666666666666667,0.0666666666666667,0.916666666666667,8548.843821666,8549.951176125,13,8548.905503583,8548.96649975,8549.96831975,8550.8783245,1,1.10735445899991
130,30,8,categorization,0,bathroom,SHINEd_labelme_sfxiulhjbhlyiyt.tif,11,0.0666666666666667,0.0666666666666667,1.4,8550.882983541,8551.550675875,13,8550.94487725,8551.005625166,8551.557570833,8552.950951833,1,0.667692334000094
130,31,8,categorization,0,kitchen,SHINEd_sun_aeqdocilnnpuvuhx.tif,83,0.0666666666666667,0.0666666666666667,1.75,8552.968293916,8553.462807458,9,8553.034291208,8553.101038458,8553.491052958,8555.234425416,1,0.494513542000277
130,32,8,categorization,0,kitchen,SHINEd_sun_aunzlwrbjumxhwdj.tif,103,0.0666666666666667,0.0666666666666667,1.25,8555.251702208,8555.971529833,9,8555.318345333,8555.384410083,8555.990558208,8557.233931208,1,0.719827625000107
130,33,8,categorization,0,bathroom,SHINEd_sun_aclfzgynxzxlbepz.tif,19,0.0666666666666667,0.0666666666666667,1.05,8557.252729125,8558.039965458,9,8557.319525083,8557.385979958,8558.05890375,8559.102278666,0,0.787236332998873
130,34,8,categorization,0,bathroom,SHINEd_sun_acduarbnmmoglmiv.tif,16,0.0666666666666667,0.0666666666666667,1.06666666666667,8559.112484541,8559.752486375,13,8559.179221166,8559.245400041,8559.767849166,8560.827881,1,0.640001834000941
130,35,8,categorization,0,bathroom,SHINEd_sun_aapitsgbtktqubfy.tif,12,0.0666666666666667,0.0666666666666667,1.21666666666667,8560.842047375,8561.542902708,13,8560.908803583,8560.974806708,8561.560015458,8562.770066583,1,0.700855333001527
130,36,8,categorization,0,kitchen,SHINEd_sun_aamedkxepzlwuxes.tif,65,0.0666666666666667,0.0666666666666667,0.95,8562.784905958,8563.298257416,9,8562.85197975,8562.918082375,8563.324638125,8564.2680255,1,0.513351457999306
130,37,8,categorization,0,kitchen,SHINEd_sun_ahywdevtimnqcsln.tif,94,0.0666666666666667,0.0666666666666667,0.9,8564.285153625,8564.99063325,9,8564.352350375,8564.418005375,8565.003447458,8565.896785541,1,0.705479624999498
130,38,8,categorization,0,kitchen,SHINEd_labelme_rykdqxenmhulbdn.tif,63,0.0666666666666667,0.0666666666666667,1.78333333333333,8565.901888,8566.583150583,9,8565.963649083,8566.024631291,8566.593287375,8568.370009125,1,0.681262582998897
130,39,8,categorization,0,kitchen,SHINEd_sun_acgtpgfybqjmzeyw.tif,75,0.0666666666666667,0.0666666666666667,1.16666666666667,8568.388415791,8569.147453958,9,8568.45499925,8568.519935708,8569.176837166,8570.3368775,1,0.759038166999744
130,40,8,categorization,0,kitchen,SHINEd_sun_aypmqwcualkenuoe.tif,109,0.0666666666666667,0.0666666666666667,0.783333333333333,8570.347018708,8571.3865605,9,8570.413647,8570.474262458,8571.414056083,8572.190756041,1,1.039541791999
130,41,8,categorization,0,bathroom,SHINEd_sun_ambriybtogmepttm.tif,36,0.0666666666666667,0.0666666666666667,1.23333333333333,8572.2070315,8572.8709475,9,8572.269956625,8572.330668291,8572.882591625,8574.109312666,0,0.663915999999517
130,42,8,categorization,0,kitchen,SHINEd_sun_aexklacwqwezaorf.tif,84,0.0666666666666667,0.0666666666666667,0.9,8574.127175083,8575.369161791,13,8574.193758916,8574.2597165,8575.39982775,8576.293167291,0,1.2419867080007
130,43,8,categorization,0,bathroom,SHINEd_sun_axldvoqbuvuggfmq.tif,57,0.0666666666666667,0.0666666666666667,0.7,8576.298807541,8577.103393833,13,8576.360525125,8576.4215515,8577.10668425,8577.800022708,1,0.804586292000749
130,44,8,categorization,0,kitchen,SHINEd_sun_aadbddgrdsjugojn.tif,64,0.0666666666666667,0.0666666666666667,1.23333333333333,8577.805010041,8578.399125291,9,8577.866805625,8577.927851333,8578.413017875,8579.639727541,1,0.594115249999959
130,45,8,categorization,0,kitchen,SHINEd_sun_ahpczsiumwwocjkv.tif,92,0.0666666666666667,0.0666666666666667,1,8579.658770083,8580.43472,9,8579.725616125,8579.791456833,8580.447352333,8581.440697791,1,0.775949916998798
130,46,8,categorization,0,kitchen,SHINEd_sun_amjjdeyrggfqgmom.tif,100,0.0666666666666667,0.0666666666666667,1.38333333333333,8581.447585791,8582.071398083,9,8581.509364583,8581.570268333,8582.088722875,8583.465435333,1,0.623812292000366
130,47,8,categorization,0,bathroom,SHINEd_sun_axyrejkiiaqiurjk.tif,59,0.0666666666666667,0.0666666666666667,1.3,8583.481177041,8584.207562916,9,8583.547903541,8583.613750291,8584.218636708,8585.512002041,0,0.726385875001142
130,48,8,categorization,0,bathroom,SHINEd_sun_aunuadmjocsddsrl.tif,52,0.0666666666666667,0.0666666666666667,0.833333333333333,8585.527753333,8586.090463,13,8585.594387333,8585.660375041,8586.117059583,8586.94376575,1,0.562709666999581
130,49,8,categorization,0,bathroom,SHINEd_sun_ahqjwnzgolcaoidx.tif,29,0.0666666666666667,0.0666666666666667,0.95,8586.960539583,8587.598468625,13,8587.027082291,8587.093042916,8587.611751041,8588.555089791,1,0.637929041999087
130,50,8,categorization,0,kitchen,SHINEd_sun_ajcbwwvdlsvjyzje.tif,96,0.0666666666666667,0.0666666666666667,1.43333333333333,8588.559852833,8589.782748375,9,8588.621658708,8588.682602583,8589.80168,8591.228382541,1,1.22289554200142
130,1,9,categorization,0,bathroom,SHINEd_sun_ahaulkltgpkeeemi.tif,26,0.0666666666666667,0.0666666666666667,1.08333333333333,8596.283779125,8597.151163541,9,8596.34615475,8596.40656125,8597.158470041,8598.235183875,0,0.867384416000277
130,2,9,categorization,0,bathroom,SHINEd_sun_ahijqszoswveeyji.tif,28,0.0666666666666667,0.0666666666666667,0.8,8598.244376625,8598.931344,9,8598.308913041,8598.374148958,8598.946458125,8599.739850625,0,0.686967375000677
130,3,9,categorization,0,bathroom,SHINEd_sun_aofnryafpsjimzsb.tif,40,0.0666666666666667,0.0666666666666667,0.833333333333333,8599.756433583,8600.462467958,13,8599.822728625,8599.889181916,8600.474347166,8601.301019625,1,0.706034374999945
130,4,9,categorization,0,kitchen,SHINEd_sun_aadbddgrdsjugojn.tif,64,0.0666666666666667,0.0666666666666667,1.45,8601.306153625,8602.095229333,9,8601.367931041,8601.428844208,8602.114010208,8603.557401125,1,0.789075707998563
130,5,9,categorization,0,bathroom,SHINEd_sun_aljolscmmzydegqp.tif,33,0.0666666666666667,0.0666666666666667,1.3,8603.573945666,8604.28639375,13,8603.64155775,8603.706907791,8604.313375125,8605.606758583,1,0.712448084001153
130,6,9,categorization,0,kitchen,SHINEd_sun_aqeaevwwwjoqhzvl.tif,101,0.0666666666666667,0.0666666666666667,1.21666666666667,8605.625541375,8606.389935875,9,8605.692147916,8605.757994333,8606.41457325,8607.624619291,1,0.76439449999998
130,7,9,categorization,0,bathroom,SHINEd_sun_awnqiikzaispgmwo.tif,56,0.0666666666666667,0.0666666666666667,0.733333333333333,8607.643747333,8608.518402291,13,8607.710547583,8607.776200833,8608.530690958,8609.257390375,1,0.874654957999155
130,8,9,categorization,0,bathroom,SHINEd_sun_afcoljnjfoxjtgja.tif,20,0.0666666666666667,0.0666666666666667,1.03333333333333,8609.273161333,8610.166789833,13,8609.339632125,8609.405859333,8610.174362333,8611.201082625,1,0.893628499999977
130,9,9,categorization,0,bathroom,SHINEd_sun_aoybiabnpadelefl.tif,41,0.0666666666666667,0.0666666666666667,1.1,8611.212733333,8612.4492065,13,8611.277124083,8611.343977625,8612.46819425,8613.561560375,1,1.23647316699862
130,10,9,categorization,0,kitchen,SHINEd_sun_acxkpeoqbwcxfvip.tif,77,0.0666666666666667,0.0666666666666667,1.25,8613.572260166,8614.278620166,9,8613.637924375,8613.705537666,8614.294613708,8615.537989541,1,0.706360000000132
130,11,9,categorization,0,bathroom,SHINEd_sun_axxbkopsgyouuebh.tif,58,0.0666666666666667,0.0666666666666667,1.4,8615.556456125,8616.199222708,13,8615.619251375,8615.67927325,8616.214444041,8617.60781975,1,0.642766583001503
130,12,9,categorization,0,kitchen,SHINEd_sun_awcpdzzznmweyyhv.tif,106,0.0666666666666667,0.0666666666666667,1.43333333333333,8617.626432208,8618.319479416,9,8617.693455958,8617.759163625,8618.34903825,8619.77574125,1,0.69304720800028
130,13,9,categorization,0,bathroom,SHINEd_sun_axyrejkiiaqiurjk.tif,59,0.0666666666666667,0.0666666666666667,1.26666666666667,8619.793552541,8620.39550725,9,8619.86027025,8619.926372166,8620.415892666,8621.675949958,0,0.601954708999983
130,14,9,categorization,0,bathroom,SHINEd_sun_ahcvzmoyaycdoftf.tif,27,0.0666666666666667,0.0666666666666667,0.916666666666667,8621.693938166,8622.623111291,13,8621.760390291,8621.826658416,8622.649353583,8623.559360916,1,0.929173125001398
130,15,9,categorization,0,kitchen,SHINEd_sun_abdenxonkemggwsq.tif,69,0.0666666666666667,0.0666666666666667,1.05,8623.5651545,8624.199240625,9,8623.626949291,8623.687857458,8624.206353666,8625.249720666,1,0.634086124999158
130,16,9,categorization,0,bathroom,SHINEd_sun_aunuadmjocsddsrl.tif,52,0.0666666666666667,0.0666666666666667,1.53333333333333,8625.26011125,8626.041878875,9,8625.325064875,8625.390665125,8626.064678625,8627.591393416,0,0.781767624999702
130,17,9,categorization,0,kitchen,SHINEd_sun_amjjdeyrggfqgmom.tif,100,0.0666666666666667,0.0666666666666667,1.11666666666667,8627.61180125,8628.518338416,9,8627.678363666,8627.745235708,8628.533205583,8629.643240333,1,0.906537165999907
130,18,9,categorization,0,kitchen,SHINEd_sun_aixorpehvfykdynp.tif,95,0.0666666666666667,0.0666666666666667,1.05,8629.654955083,8630.391789875,9,8629.7198355,8629.78798175,8630.4104625,8631.453840458,1,0.736834792000082
130,19,9,categorization,0,kitchen,SHINEd_sun_aeqdocilnnpuvuhx.tif,83,0.0666666666666667,0.0666666666666667,1.66666666666667,8631.471459916,8632.102944416,9,8631.538718333,8631.596036791,8632.114624458,8633.7746795,1,0.631484499999715
130,20,9,categorization,0,kitchen,SHINEd_sun_afuyedyxivkhecmu.tif,85,0.0666666666666667,0.0666666666666667,1.98333333333333,8633.7938185,8634.425986708,9,8633.860288416,8633.926261083,8634.449834125,8636.426549333,1,0.632168207999712
130,21,9,categorization,0,bathroom,SHINEd_sun_aleqenyvunhactkl.tif,32,0.0666666666666667,0.0666666666666667,1.06666666666667,8636.446031416,8636.986976708,13,8636.511377958,8636.577488916,8637.017123375,8638.077156708,1,0.540945291999378
130,22,9,categorization,0,bathroom,SHINEd_labelme_sfxiulhjbhlyiyt.tif,11,0.0666666666666667,0.0666666666666667,1.31666666666667,8638.086391208,8638.946606541,9,8638.150901541,8638.216662375,8638.973321625,8640.283379125,0,0.86021533299936
