sub_num,trial,block,task,is_practice,category,image,texture,duration,mask_dur,jitter,stim_time,time_of_resp,trial_response,mask_time,fix_time,jit_onset,trial_end,trial_accuracy,RT
130,1,18,categorization,0,bathroom,SHINEd_sun_apjevzvycyhuqghb.tif,43,0.0666666666666667,0.0666666666666667,0.75,9679.225565708,9680.402219416,13,9679.288347875,9679.34834575,9680.416935666,9681.160275541,1,1.17665370800023
130,2,18,categorization,0,bathroom,SHINEd_sun_agyqfjcfkdcydepw.tif,25,0.0666666666666667,0.0666666666666667,1.05,9681.164872916,9681.897948416,9,9681.226679916,9681.287589041,9681.906023166,9682.949397041,0,0.733075500000268
130,3,18,categorization,0,bathroom,SHINEd_sun_apkxzenqapsujocq.tif,45,0.0666666666666667,0.0666666666666667,1.08333333333333,9682.959204083,9683.663181916,13,9683.024741375,9683.089004416,9683.6787065,9684.755408541,1,0.703977832999954
130,4,18,categorization,0,kitchen,SHINEd_sun_abdenxonkemggwsq.tif,69,0.0666666666666667,0.0666666666666667,1.78333333333333,9684.777147375,9685.666137833,9,9684.843751833,9684.907060041,9685.675863625,9687.452570916,1,0.88899045800099
130,5,18,categorization,0,kitchen,SHINEd_sun_ajcbwwvdlsvjyzje.tif,96,0.0666666666666667,0.0666666666666667,0.733333333333333,9687.469553625,9688.134094666,13,9687.536313791,9687.601818,9688.158617958,9688.885292208,0,0.66454104100012
130,6,18,categorization,0,kitchen,SHINEd_sun_aypmqwcualkenuoe.tif,109,0.0666666666666667,0.0666666666666667,0.716666666666667,9688.892154666,9689.53811575,9,9688.954067125,9689.014857666,9689.549988083,9690.25999175,1,0.645961083999282
130,7,18,categorization,0,kitchen,SHINEd_sun_acxkpeoqbwcxfvip.tif,77,0.0666666666666667,0.0666666666666667,1.76666666666667,9690.265568958,9690.930868666,9,9690.327208166,9690.388318083,9690.94020125,9692.700238125,1,0.66529970800002
130,8,18,categorization,0,kitchen,SHINEd_sun_aenotlpyftoioydp.tif,82,0.0666666666666667,0.0666666666666667,1.11666666666667,9692.718357541,9693.378778416,9,9692.785142833,9692.85021075,9693.407171833,9694.517209,1,0.660420874999545
130,9,18,categorization,0,kitchen,SHINEd_sun_amjjdeyrggfqgmom.tif,100,0.0666666666666667,0.0666666666666667,0.8,9694.527438333,9695.26309075,9,9694.592085041,9694.658506166,9695.2807705,9696.074149833,1,0.735652417000892
130,10,18,categorization,0,kitchen,SHINEd_sun_agzzivivdpnawacl.tif,89,0.0666666666666667,0.0666666666666667,1.53333333333333,9696.091045416,9696.858818208,13,9696.157729833,9696.223826875,9696.875789375,9698.402513708,0,0.76777279199996
130,11,18,categorization,0,bathroom,SHINEd_sun_avhrdrntsqrjzccq.tif,55,0.0666666666666667,0.0666666666666667,0.966666666666667,9698.418868791,9699.428593541,9,9698.484771666,9698.550094916,9699.456846875,9700.416854041,0,1.00972475000162
130,12,18,categorization,0,bathroom,SHINEd_sun_afcoljnjfoxjtgja.tif,20,0.0666666666666667,0.0666666666666667,1.31666666666667,9700.422557166,9701.026452958,13,9700.484254708,9700.545216083,9701.030245416,9702.340278416,1,0.603895791999093
130,13,18,categorization,0,bathroom,SHINEd_sun_ahijqszoswveeyji.tif,28,0.0666666666666667,0.0666666666666667,1.25,9702.357119375,9702.943846083,13,9702.423918083,9702.488191458,9702.96062375,9704.203997125,1,0.586726708001152
130,14,18,categorization,0,kitchen,SHINEd_labelme_kxvouciolcpqplr.tif,62,0.0666666666666667,0.0666666666666667,0.85,9704.222655416,9704.883330583,13,9704.289278958,9704.355097416,9704.911379041,9705.754763916,0,0.660675166998772
130,15,18,categorization,0,kitchen,SHINEd_sun_aggjlwcdjsjcaemh.tif,86,0.0666666666666667,0.0666666666666667,1.68333333333333,9705.770732666,9706.433811416,9,9705.83733375,9705.903705,9706.439031125,9708.115755708,1,0.663078749999841
130,16,18,categorization,0,bathroom,SHINEd_sun_apkruvsevgegsdwp.tif,44,0.0666666666666667,0.0666666666666667,1.06666666666667,9708.135291041,9708.845985375,13,9708.20229325,9708.268228416,9708.875181,9709.9352305,1,0.710694333998617
130,17,18,categorization,0,kitchen,SHINEd_sun_agubuxuukhzyzpdp.tif,88,0.0666666666666667,0.0666666666666667,1.48333333333333,9709.946858791,9711.012890375,9,9710.011738208,9710.077358458,9711.034240375,9712.510965875,1,1.06603158399957
130,18,18,categorization,0,bathroom,SHINEd_sun_aljolscmmzydegqp.tif,33,0.0666666666666667,0.0666666666666667,1.81666666666667,9712.526380666,9712.999389625,13,9712.591560041,9712.659124791,9713.01514725,9714.825200291,1,0.473008958999344
130,19,18,categorization,0,kitchen,SHINEd_sun_admlmbcdswaszruo.tif,79,0.0666666666666667,0.0666666666666667,0.966666666666667,9714.841867916,9715.536341458,9,9714.908607333,9714.97468525,9715.564690375,9716.524695333,1,0.694473542000196
130,20,18,categorization,0,bathroom,SHINEd_sun_aunuadmjocsddsrl.tif,52,0.0666666666666667,0.0666666666666667,1.6,9716.529915958,9717.04257375,13,9716.591688541,9716.652755583,9717.054946791,9718.648331666,1,0.512657792000027
130,21,18,categorization,0,kitchen,SHINEd_sun_ahdycvpopffkzzsu.tif,90,0.0666666666666667,0.0666666666666667,1.28333333333333,9718.658816375,9719.631098208,9,9718.725736708,9718.792084791,9719.648439708,9720.92515925,1,0.972281832999215
130,22,18,categorization,0,kitchen,SHINEd_sun_akcjzhbbjlbogpdi.tif,99,0.0666666666666667,0.0666666666666667,0.9,9720.943599333,9721.676101625,9,9721.010507666,9721.076546166,9721.700326916,9722.593708291,1,0.732502291999481
130,23,18,categorization,0,bathroom,SHINEd_sun_aclfzgynxzxlbepz.tif,19,0.0666666666666667,0.0666666666666667,1.41666666666667,9722.60351975,9723.106111958,13,9722.670359708,9722.736235708,9723.121404708,9724.531430166,1,0.502592208000351
130,24,18,categorization,0,kitchen,SHINEd_sun_aaxxjlsuzvqlgylf.tif,68,0.0666666666666667,0.0666666666666667,0.8,9724.541698333,9725.286122375,13,9724.606727708,9724.674127083,9725.313975708,9726.107363291,0,0.744424042000901
130,25,18,categorization,0,bathroom,SHINEd_sun_axyrejkiiaqiurjk.tif,59,0.0666666666666667,0.0666666666666667,1.05,9726.123125291,9726.778595083,13,9726.1856815,9726.245815041,9726.797568833,9727.840939166,1,0.655469792000076
130,26,18,categorization,0,bathroom,SHINEd_sun_ahcvzmoyaycdoftf.tif,27,0.0666666666666667,0.0666666666666667,0.766666666666667,9727.852853875,9728.416161208,9,9727.917592583,9727.98344325,9728.4398995,9729.199942416,0,0.563307333000921
130,27,18,categorization,0,kitchen,SHINEd_sun_afuyedyxivkhecmu.tif,85,0.0666666666666667,0.0666666666666667,0.816666666666667,9729.212803791,9730.082102416,9,9729.279396458,9729.345469916,9730.097956833,9730.907961416,1,0.869298624998919
130,28,18,categorization,0,kitchen,SHINEd_sun_aapllqyqlykszopd.tif,66,0.0666666666666667,0.0666666666666667,0.95,9730.912968625,9731.521851416,9,9730.974744791,9731.035703333,9731.53739675,9732.480735458,1,0.608882791000724
130,29,18,categorization,0,bathroom,SHINEd_sun_aqrpegblszgcoujh.tif,48,0.0666666666666667,0.0666666666666667,1.46666666666667,9732.485415958,9733.082749208,13,9732.547100333,9732.608053541,9733.093181541,9734.553222125,1,0.597333249999792
130,30,18,categorization,0,bathroom,SHINEd_sun_acduarbnmmoglmiv.tif,16,0.0666666666666667,0.0666666666666667,0.8,9734.56409375,9735.087864333,13,9734.628157291,9734.696755083,9735.101824916,9735.895194916,1,0.523770583000442
130,31,18,categorization,0,bathroom,SHINEd_sun_ajlawzvmubibwbpy.tif,30,0.0666666666666667,0.0666666666666667,1.88333333333333,9735.911038875,9736.554641375,13,9735.977562375,9736.0438315,9736.562150583,9738.438853666,1,0.64360250000027
130,32,18,categorization,0,bathroom,SHINEd_sun_acgyywnybuveqsro.tif,18,0.0666666666666667,0.0666666666666667,1.03333333333333,9738.456532958,9739.044883041,13,9738.52142025,9738.588032708,9739.060615875,9740.087320458,1,0.588350083000478
130,33,18,categorization,0,bathroom,SHINEd_sun_awnqiikzaispgmwo.tif,56,0.0666666666666667,0.0666666666666667,0.916666666666667,9740.097341,9740.794738875,13,9740.162371666,9740.22822275,9740.817976625,9741.728023625,1,0.697397874999297
130,34,18,categorization,0,kitchen,SHINEd_sun_auticobqsbwgoppi.tif,104,0.0666666666666667,0.0666666666666667,0.883333333333333,9741.744822208,9742.818234833,9,9741.81145575,9741.877476416,9742.829487916,9743.706159,1,1.07341262499904
130,35,18,categorization,0,kitchen,SHINEd_sun_avszsnwsbuqfgzbn.tif,105,0.0666666666666667,0.0666666666666667,0.983333333333333,9743.710977083,9744.186123916,9,9743.7728815,9743.833646083,9744.202038166,9745.178710916,1,0.475146833001418
130,36,18,categorization,0,bathroom,SHINEd_sun_axxbkopsgyouuebh.tif,58,0.0666666666666667,0.0666666666666667,0.933333333333333,9745.184490416,9745.665923625,13,9745.246220458,9745.307161958,9745.675748208,9746.602418708,1,0.481433208999078
130,37,18,categorization,0,bathroom,SHINEd_sun_aapitsgbtktqubfy.tif,12,0.0666666666666667,0.0666666666666667,0.783333333333333,9746.608462125,9747.050090166,13,9746.670437041,9746.73126825,9747.066432041,9747.843104375,1,0.441628041000513
130,38,18,categorization,0,kitchen,SHINEd_sun_aeqdocilnnpuvuhx.tif,83,0.0666666666666667,0.0666666666666667,0.85,9747.848088541,9748.986197625,13,9747.909817833,9747.970756291,9748.989700333,9749.833038291,0,1.13810908399864
130,39,18,categorization,0,bathroom,SHINEd_sun_aleqenyvunhactkl.tif,32,0.0666666666666667,0.0666666666666667,1.7,9749.838215166,9750.298541,13,9749.899978208,9749.960813041,9750.312556625,9752.005949583,1,0.460325833999377
130,40,18,categorization,0,bathroom,SHINEd_sun_ahaulkltgpkeeemi.tif,26,0.0666666666666667,0.0666666666666667,1.31666666666667,9752.026729666,9752.58911325,13,9752.093444208,9752.159892583,9752.615215416,9753.925258916,1,0.56238358399969
130,41,18,categorization,0,kitchen,SHINEd_sun_awcpdzzznmweyyhv.tif,106,0.0666666666666667,0.0666666666666667,0.9,9753.943903583,9754.692762583,9,9754.010597166,9754.076514791,9754.716791125,9755.610167708,1,0.748858999999356
130,42,18,categorization,0,kitchen,SHINEd_sun_aqeaevwwwjoqhzvl.tif,101,0.0666666666666667,0.0666666666666667,1.75,9755.626568666,9756.1222975,9,9755.693182583,9755.750391375,9756.135686208,9757.879059541,1,0.495728833999237
130,43,18,categorization,0,bathroom,SHINEd_sun_atstyziqcmkahyxk.tif,51,0.0666666666666667,0.0666666666666667,1.41666666666667,9757.896421333,9758.440053583,13,9757.963157708,9758.029585708,9758.468161083,9759.878219458,1,0.543632249999064
130,44,18,categorization,0,bathroom,SHINEd_sun_anhioqovhscjqqwb.tif,38,0.0666666666666667,0.0666666666666667,1.01666666666667,9759.896331083,9760.464308666,13,9759.963209833,9760.029355708,9760.484579125,9761.494630125,1,0.567977582999447
130,45,18,categorization,0,bathroom,SHINEd_sun_agguqiubmwhqqunb.tif,22,0.0666666666666667,0.0666666666666667,1.95,9761.50987125,9762.08220825,9,9761.572481625,9761.632594791,9762.10123675,9764.044614791,0,0.572336999999607
130,46,18,categorization,0,bathroom,SHINEd_sun_azqyogdvyhahyram.tif,60,0.0666666666666667,0.0666666666666667,0.916666666666667,9764.059900791,9764.498654458,13,9764.126565125,9764.193067875,9764.515051208,9765.425057416,1,0.438753667000128
130,47,18,categorization,0,bathroom,SHINEd_sun_apynckhmoftszqoq.tif,47,0.0666666666666667,0.0666666666666667,1.08333333333333,9765.430905125,9765.889984916,13,9765.492658166,9765.553627583,9765.905344458,9766.982045208,1,0.459079791000477
130,48,18,categorization,0,kitchen,SHINEd_sun_acgtpgfybqjmzeyw.tif,75,0.0666666666666667,0.0666666666666667,1.16666666666667,9766.994073833,9767.423974666,13,9767.058983041,9767.126561583,9767.449790541,9768.609835083,0,0.42990083299992
130,49,18,categorization,0,kitchen,SHINEd_sun_aadbddgrdsjugojn.tif,64,0.0666666666666667,0.0666666666666667,1.78333333333333,9768.619628583,9769.258365375,9,9768.686373875,9768.752430375,9769.271517375,9771.048241583,1,0.638736792001509
130,50,18,categorization,0,bathroom,SHINEd_sun_ahqjwnzgolcaoidx.tif,29,0.0666666666666667,0.0666666666666667,1.2,9771.067099666,9771.706657833,13,9771.133506583,9771.199689041,9771.722066958,9772.915456541,1,0.639558167000359
