sub_num,trial,block,task,is_practice,category,image,texture,duration,mask_dur,jitter,stim_time,time_of_resp,trial_response,mask_time,fix_time,jit_onset,trial_end,trial_accuracy,RT
114,1,0,familiarity,1,bathroom,bathroom_practice1.tif,221,1.5,0,0.916666666666667,1700.475853417,1705.867665167,2,NaN,1705.873464708,1705.891907583,1706.801913583,NaN,NaN
114,2,0,familiarity,1,bathroom,bathroom_practice2.tif,222,1.5,0,0.85,1706.806483625,1709.7509515,1,NaN,1709.780720375,1709.803800917,1710.647139833,NaN,NaN
114,3,0,familiarity,1,bathroom,bathroom_practice3.tif,223,1.5,0,0.883333333333333,1710.651942458,1716.49062675,2,NaN,1716.496753,1716.515238833,1717.391910583,NaN,NaN
114,4,0,familiarity,1,bathroom,bathroom_practice5.tif,225,1.5,0,1.43333333333333,1717.396613917,1723.210832125,3,NaN,1723.216875625,1723.235276958,1724.661978583,NaN,NaN
114,5,0,familiarity,1,bathroom,bathroom_practice4.tif,224,1.5,0,1.53333333333333,1724.6803805,1730.130878417,2,NaN,1730.13692875,1730.155342042,1731.682053625,NaN,NaN
114,1,1,familiarity,0,bathroom,sun_ahcvzmoyaycdoftf.tif,137,1.5,0,1.26666666666667,1766.667425875,1772.098850833,3,NaN,1772.104809,1772.123168792,1773.383227917,NaN,NaN
114,2,1,familiarity,0,bathroom,sun_aggnnqpdorgxpvce.tif,131,1.5,0,1.76666666666667,1773.401988,1776.458841375,1,NaN,1776.464755208,1776.483124833,1778.243185417,NaN,NaN
114,3,1,familiarity,0,bathroom,sun_aclfzgynxzxlbepz.tif,129,1.5,0,1.46666666666667,1778.258360542,1782.482853042,4,NaN,1782.488575708,1782.506954958,1783.966991208,NaN,NaN
114,4,1,familiarity,0,bathroom,sun_apmqjbnwghzuhhzh.tif,156,1.5,0,1.28333333333333,1783.984371667,1787.451012458,1,NaN,1787.456893542,1787.475199,1788.751918583,NaN,NaN
114,5,1,familiarity,0,bathroom,sun_acegryoqftbzowsg.tif,127,1.5,0,0.966666666666667,1788.768874833,1794.730395708,3,NaN,1794.736515333,1794.754940042,1795.714944625,NaN,NaN
114,6,1,familiarity,0,bathroom,sun_alkosphxlxwjwgjd.tif,144,1.5,0,0.783333333333333,1795.719301708,1801.467120542,3,NaN,1801.472843917,1801.491259667,1802.2679315,NaN,NaN
114,7,1,familiarity,0,bathroom,sun_acgyywnybuveqsro.tif,128,1.5,0,1.21666666666667,1802.272436083,1809.522820083,4,NaN,1809.529195,1809.549385708,1810.766522458,NaN,NaN
114,8,1,familiarity,0,bathroom,sun_anhioqovhscjqqwb.tif,148,1.5,0,1.4,1810.792523458,1814.138820917,2,NaN,1814.1444905,1814.163288667,1815.556678167,NaN,NaN
114,9,1,familiarity,0,bathroom,sun_aspsyogrekjtfozg.tif,160,1.5,0,1.3,1815.572148375,1818.33038425,1,NaN,1818.336304625,1818.354765833,1819.6481395,NaN,NaN
114,10,1,familiarity,0,bathroom,sun_ahqjwnzgolcaoidx.tif,139,1.5,0,0.95,1819.667013208,1826.658449,1,NaN,1826.664344417,1826.682669708,1827.626007,NaN,NaN
114,11,1,familiarity,0,bathroom,sun_ausgutylgojavyoq.tif,163,1.5,0,1.96666666666667,1827.631437667,1832.459301625,1,NaN,1832.464958208,1832.483229708,1834.443277042,NaN,NaN
114,12,1,familiarity,0,bathroom,sun_axyrejkiiaqiurjk.tif,169,1.5,0,1.13333333333333,1834.462300958,1837.190968042,1,NaN,1837.21976625,1837.243079583,1838.369798542,NaN,NaN
114,13,1,familiarity,0,bathroom,sun_agrwbmhcpmfuwmsg.tif,134,1.5,0,0.933333333333333,1838.378310625,1841.978914792,3,NaN,1841.984445833,1842.002799833,1842.929471833,NaN,NaN
114,14,1,familiarity,0,bathroom,sun_axxbkopsgyouuebh.tif,168,1.5,0,1.6,1842.933956,1848.210924208,6,NaN,1848.216562042,1848.234798375,1849.828177708,NaN,NaN
114,15,1,familiarity,0,bathroom,sun_akiytfaagpdsphgz.tif,141,1.5,0,1.38333333333333,1849.847501875,1853.031140458,1,NaN,1853.056260542,1853.077971833,1854.454671625,NaN,NaN
114,16,1,familiarity,0,bathroom,sun_aavhrsfjbserjtht.tif,123,1.5,0,1.58333333333333,1854.469340583,1858.226583042,1,NaN,1858.232568,1858.250986292,1859.82771575,NaN,NaN
114,17,1,familiarity,0,bathroom,sun_auzqhkafidnkrwmo.tif,164,1.5,0,0.966666666666667,1859.846564542,1862.954928667,1,NaN,1862.960514167,1862.978887958,1863.938893958,NaN,NaN
114,18,1,familiarity,0,bathroom,sun_amzlamotzwfkwjco.tif,147,1.5,0,0.983333333333333,1863.943419167,1867.514574292,1,NaN,1867.520322125,1867.538784625,1868.515456542,NaN,NaN
114,19,1,familiarity,0,bathroom,sun_asfwthctfqerjvxr.tif,159,1.5,0,0.8,1868.520033458,1871.642453625,1,NaN,1871.649360083,1871.667676,1872.461013125,NaN,NaN
114,20,1,familiarity,0,bathroom,sun_apkxzenqapsujocq.tif,155,1.5,0,0.7,1872.465606958,1876.914471417,7,NaN,1876.920253208,1876.938609542,1877.631948625,NaN,NaN
114,21,1,familiarity,0,bathroom,sun_anryaplzeujmzfkd.tif,149,1.5,0,0.716666666666667,1877.645965833,1881.234150583,2,NaN,1881.240101083,1881.258374125,1881.968379708,NaN,NaN
114,22,1,familiarity,0,bathroom,sun_atstyziqcmkahyxk.tif,161,1.5,0,1.76666666666667,1881.979195333,1886.018266125,7,NaN,1886.023992542,1886.042567833,1887.802621958,NaN,NaN
114,23,1,familiarity,0,bathroom,sun_ajlawzvmubibwbpy.tif,140,1.5,0,1.7,1887.819013292,1891.866566042,2,NaN,1891.872298708,1891.8907645,1893.58414,NaN,NaN
114,24,1,familiarity,0,bathroom,sun_aljolscmmzydegqp.tif,143,1.5,0,1.38333333333333,1893.602853583,1898.498290333,2,NaN,1898.504144833,1898.522524708,1899.899252333,NaN,NaN
114,25,1,familiarity,0,bathroom,sun_afcoljnjfoxjtgja.tif,130,1.5,0,0.766666666666667,1899.918233458,1906.474311708,3,NaN,1906.480268375,1906.498500667,1907.258504708,NaN,NaN
114,1,2,familiarity,0,bathroom,sun_azqyogdvyhahyram.tif,170,1.5,0,0.85,1912.854292083,1917.170947917,5,NaN,1917.176839625,1917.195270042,1918.038608792,NaN,NaN
114,2,2,familiarity,0,bathroom,sun_agguqiubmwhqqunb.tif,132,1.5,0,1.53333333333333,1918.045680458,1921.339057333,1,NaN,1921.344778583,1921.363226875,1922.889957333,NaN,NaN
114,3,2,familiarity,0,bathroom,sun_avhrdrntsqrjzccq.tif,165,1.5,0,0.7,1922.90475875,1925.826230208,1,NaN,1925.832125458,1925.850311875,1926.543650083,NaN,NaN
114,4,2,familiarity,0,bathroom,sun_aunuadmjocsddsrl.tif,162,1.5,0,1.36666666666667,1926.547940042,1930.794518708,2,NaN,1930.800086375,1930.818523625,1932.178571042,NaN,NaN
114,5,2,familiarity,0,bathroom,sun_abapwbhyhkfixyex.tif,124,1.5,0,0.716666666666667,1932.197427958,1936.138989958,4,NaN,1936.144745042,1936.16310025,1936.873105583,NaN,NaN
114,6,2,familiarity,0,bathroom,sun_alotolagknyrgtsk.tif,145,1.5,0,1.38333333333333,1936.877595333,1939.995120042,1,NaN,1940.003760042,1940.022300958,1941.399008833,NaN,NaN
114,7,2,familiarity,0,bathroom,labelme_sfxiulhjbhlyiyt.tif,121,1.5,0,0.916666666666667,1941.417681125,1947.2983565,4,NaN,1947.30418475,1947.322566292,1948.232572042,NaN,NaN
114,8,2,familiarity,0,bathroom,sun_aqrpegblszgcoujh.tif,158,1.5,0,1.58333333333333,1948.237138792,1953.88283725,2,NaN,1953.889462292,1953.908028042,1955.484733,NaN,NaN
114,9,2,familiarity,0,bathroom,sun_ahijqszoswveeyji.tif,138,1.5,0,1.25,1955.500824625,1961.130244417,4,NaN,1961.137931583,1961.156295458,1962.399672792,NaN,NaN
114,10,2,familiarity,0,bathroom,sun_axldvoqbuvuggfmq.tif,167,1.5,0,0.95,1962.417186708,1966.578845875,3,NaN,1966.584383458,1966.602709542,1967.546047417,NaN,NaN
114,11,2,familiarity,0,bathroom,sun_ahaulkltgpkeeemi.tif,136,1.5,0,1.4,1967.55051625,1970.810569375,6,NaN,1970.816867833,1970.835270792,1972.228658167,NaN,NaN
114,12,2,familiarity,0,bathroom,sun_aghyqhbptboemmoq.tif,133,1.5,0,0.766666666666667,1972.246369042,1976.138030958,6,NaN,1976.143934667,1976.162645292,1976.922651292,NaN,NaN
114,13,2,familiarity,0,bathroom,sun_apynckhmoftszqoq.tif,157,1.5,0,0.733333333333333,1976.927074375,1982.226021458,5,NaN,1982.233186,1982.251473333,1982.978145792,NaN,NaN
114,14,2,familiarity,0,bathroom,sun_apeeialkgkuxddgh.tif,152,1.5,0,1.06666666666667,1982.982702917,1986.250058375,7,NaN,1986.256891833,1986.275220125,1987.33527225,NaN,NaN
114,15,2,familiarity,0,bathroom,sun_agyqfjcfkdcydepw.tif,135,1.5,0,1.33333333333333,1987.34389125,1990.338708083,1,NaN,1990.344429833,1990.362811458,1991.689537042,NaN,NaN
114,16,2,familiarity,0,bathroom,sun_aleqenyvunhactkl.tif,142,1.5,0,1.41666666666667,1991.706779542,1996.434382625,3,NaN,1996.439929375,1996.458206833,1997.8682555,NaN,NaN
114,17,2,familiarity,0,bathroom,sun_aapitsgbtktqubfy.tif,122,1.5,0,1.95,1997.886178208,2003.890394292,4,NaN,2003.896035208,2003.914367375,2005.857742083,NaN,NaN
114,18,2,familiarity,0,bathroom,sun_ambriybtogmepttm.tif,146,1.5,0,0.866666666666667,2005.876098417,2009.085367125,1,NaN,2009.115123542,2009.138133417,2009.998139875,NaN,NaN
114,19,2,familiarity,0,bathroom,sun_apkruvsevgegsdwp.tif,154,1.5,0,0.983333333333333,2010.002854667,2014.674494292,5,NaN,2014.680308833,2014.698491583,2015.675162625,NaN,NaN
114,20,2,familiarity,0,bathroom,sun_awnqiikzaispgmwo.tif,166,1.5,0,0.983333333333333,2015.679849708,2020.938414625,5,NaN,2020.94419575,2020.962615083,2021.939287292,NaN,NaN
114,21,2,familiarity,0,bathroom,sun_abjtwfukuwddzted.tif,125,1.5,0,0.766666666666667,2021.943764833,2026.610699125,4,NaN,2026.616443,2026.634782917,2027.3947885,NaN,NaN
114,22,2,familiarity,0,bathroom,sun_acduarbnmmoglmiv.tif,126,1.5,0,0.833333333333333,2027.39936575,2030.722451958,3,NaN,2030.728771083,2030.746943333,2031.573615833,NaN,NaN
114,23,2,familiarity,0,bathroom,sun_apjevzvycyhuqghb.tif,153,1.5,0,0.833333333333333,2031.578157958,2038.449541375,1,NaN,2038.455550625,2038.47397025,2039.300643625,NaN,NaN
114,24,2,familiarity,0,bathroom,sun_aofnryafpsjimzsb.tif,150,1.5,0,0.716666666666667,2039.305125958,2042.546489542,1,NaN,2042.552257583,2042.570489125,2043.280492417,NaN,NaN
114,25,2,familiarity,0,bathroom,sun_aoybiabnpadelefl.tif,151,1.5,0,1.71666666666667,2043.285112458,2046.345177125,1,NaN,2046.364478833,2046.38452375,2048.094562417,NaN,NaN
