sub_num,trial,block,task,is_practice,category,image,texture,duration,mask_dur,jitter,stim_time,time_of_resp,trial_response,mask_time,fix_time,jit_onset,trial_end,trial_accuracy,RT
123,1,12,categorization,0,kitchen,SHINEd_sun_abpwyqmlzafvklqo.tif,72,0.0666666666666667,0.0666666666666667,1.01666666666667,1944.224397583,1945.035112333,9,1944.28701325,1944.3471165,1945.048927083,1946.058967166,1,0.810714749999988
123,2,12,categorization,0,kitchen,SHINEd_sun_auticobqsbwgoppi.tif,104,0.0666666666666667,0.0666666666666667,0.766666666666667,1946.067955375,1946.757137291,13,1946.132889708,1946.199131541,1946.771405791,1947.531459708,0,0.689181915999825
123,3,12,categorization,0,bathroom,SHINEd_sun_apeeialkgkuxddgh.tif,42,0.0666666666666667,0.0666666666666667,0.716666666666667,1947.544913375,1948.061575291,13,1947.611513291,1947.677799875,1948.081441791,1948.791446708,1,0.516661915999975
123,4,12,categorization,0,kitchen,SHINEd_sun_aqeaevwwwjoqhzvl.tif,101,0.0666666666666667,0.0666666666666667,0.816666666666667,1948.796307166,1949.45156425,9,1948.857947083,1948.919074875,1949.471422333,1950.281427541,1,0.655257084000141
123,5,12,categorization,0,bathroom,SHINEd_sun_agyqfjcfkdcydepw.tif,25,0.0666666666666667,0.0666666666666667,1.96666666666667,1950.286161708,1950.979648625,13,1950.347886041,1950.40887275,1950.994377625,1952.95441175,1,0.693486916999973
123,6,12,categorization,0,bathroom,SHINEd_sun_anryaplzeujmzfkd.tif,39,0.0666666666666667,0.0666666666666667,0.85,1952.972086833,1953.770636833,13,1953.038854208,1953.105067583,1953.793609291,1954.636947291,1,0.798549999999977
123,7,12,categorization,0,bathroom,SHINEd_sun_afcoljnjfoxjtgja.tif,20,0.0666666666666667,0.0666666666666667,0.7,1954.641931958,1955.307015625,13,1954.703722583,1954.764648291,1955.316616916,1956.009956083,1,0.66508366700009
123,8,12,categorization,0,kitchen,SHINEd_sun_ahpczsiumwwocjkv.tif,92,0.0666666666666667,0.0666666666666667,1.23333333333333,1956.014630625,1956.643120041,9,1956.07628475,1956.137334208,1956.655802916,1957.88249575,1,0.628489415999866
123,9,12,categorization,0,bathroom,SHINEd_sun_azqyogdvyhahyram.tif,60,0.0666666666666667,0.0666666666666667,1.13333333333333,1957.894381291,1958.501404958,13,1957.961082041,1958.02719825,1958.516433125,1959.643140583,1,0.607023667000021
123,10,12,categorization,0,kitchen,SHINEd_sun_admlmbcdswaszruo.tif,79,0.0666666666666667,0.0666666666666667,0.95,1959.659430666,1960.306998875,9,1959.725503,1959.784007666,1960.319285125,1961.262623958,1,0.647568209000156
123,11,12,categorization,0,bathroom,SHINEd_sun_avhrdrntsqrjzccq.tif,55,0.0666666666666667,0.0666666666666667,1.83333333333333,1961.267305708,1962.107157666,13,1961.328932916,1961.389976791,1962.125136666,1963.951859375,1,0.839851957999826
123,12,12,categorization,0,kitchen,SHINEd_sun_aehawpgmrlhlvcow.tif,81,0.0666666666666667,0.0666666666666667,1.41666666666667,1963.970071291,1964.691460875,9,1964.036404958,1964.1027855,1964.708782541,1966.118839791,1,0.721389584000008
123,13,12,categorization,0,kitchen,SHINEd_sun_ajkqhtgcbgpcwrwn.tif,97,0.0666666666666667,0.0666666666666667,1.06666666666667,1966.136903791,1966.800838708,13,1966.203308208,1966.269697291,1966.826159416,1967.886199791,0,0.663934917000006
123,14,12,categorization,0,bathroom,SHINEd_sun_auzqhkafidnkrwmo.tif,54,0.0666666666666667,0.0666666666666667,0.716666666666667,1967.895393,1968.620447666,13,1967.961764125,1968.028596583,1968.634103666,1969.344157166,1,0.725054666000005
123,15,12,categorization,0,bathroom,SHINEd_sun_apkruvsevgegsdwp.tif,44,0.0666666666666667,0.0666666666666667,1.4,1969.363340375,1970.019781,13,1969.429997666,1969.496098458,1970.03206125,1971.42544125,1,0.656440624999959
123,16,12,categorization,0,kitchen,SHINEd_sun_ahspylgoovwmwvgk.tif,93,0.0666666666666667,0.0666666666666667,1.36666666666667,1971.442731791,1972.273074416,9,1971.509491208,1971.575400166,1972.298405375,1973.65846425,1,0.830342625000185
123,17,12,categorization,0,bathroom,SHINEd_sun_akiytfaagpdsphgz.tif,31,0.0666666666666667,0.0666666666666667,0.983333333333333,1973.676836,1974.346534125,13,1973.74180925,1973.809791208,1974.36563275,1975.342351416,1,0.669698124999968
123,18,12,categorization,0,bathroom,SHINEd_sun_asfwthctfqerjvxr.tif,49,0.0666666666666667,0.0666666666666667,1.93333333333333,1975.358375,1976.298759166,9,1975.4210645,1975.481101583,1976.316287625,1978.242988291,0,0.940384166000058
123,19,12,categorization,0,bathroom,SHINEd_sun_acegryoqftbzowsg.tif,17,0.0666666666666667,0.0666666666666667,1.81666666666667,1978.259909583,1979.045799333,13,1978.326487916,1978.39263525,1979.0653775,1980.875414541,1,0.785889750000024
123,20,12,categorization,0,kitchen,SHINEd_sun_aaxxjlsuzvqlgylf.tif,68,0.0666666666666667,0.0666666666666667,1.15,1980.888016083,1981.814671875,13,1980.954522416,1981.020823375,1981.825124625,1982.968514,0,0.92665579200002
123,21,12,categorization,0,bathroom,SHINEd_sun_awnqiikzaispgmwo.tif,56,0.0666666666666667,0.0666666666666667,1.65,1982.980119125,1983.625306,13,1983.046818958,1983.112935833,1983.652682625,1985.296049333,1,0.645186874999808
123,22,12,categorization,0,bathroom,SHINEd_sun_aoybiabnpadelefl.tif,41,0.0666666666666667,0.0666666666666667,1.66666666666667,1985.31342,1986.107779625,13,1985.380121416,1985.44675875,1986.135936041,1987.79597475,1,0.79435962499997
123,23,12,categorization,0,kitchen,SHINEd_labelme_brsyyvweiuaazfr.tif,61,0.0666666666666667,0.0666666666666667,1.01666666666667,1987.812963916,1988.588619,13,1987.877940416,1987.945203583,1988.618390375,1989.628444458,0,0.775655084000164
123,24,12,categorization,0,kitchen,SHINEd_sun_afuyedyxivkhecmu.tif,85,0.0666666666666667,0.0666666666666667,1.98333333333333,1989.638801,1990.511334416,9,1989.70274825,1989.769459083,1990.525371291,1992.502091166,1,0.872533415999897
123,25,12,categorization,0,bathroom,SHINEd_sun_aghyqhbptboemmoq.tif,23,0.0666666666666667,0.0666666666666667,1.03333333333333,1992.520423916,1993.232996541,13,1992.586954541,1992.652924833,1993.259525833,1994.286233083,1,0.712572624999893
123,26,12,categorization,0,kitchen,SHINEd_sun_aymvwlarqodbwuoc.tif,108,0.0666666666666667,0.0666666666666667,1.5,1994.297922416,1994.98760675,9,1994.362635791,1994.429416875,1995.001688333,1996.495059,1,0.689684334000049
123,27,12,categorization,0,bathroom,SHINEd_labelme_sfxiulhjbhlyiyt.tif,11,0.0666666666666667,0.0666666666666667,1.1,1996.512710375,1997.20414375,13,1996.579710208,1996.64534175,1997.217884166,1998.311272875,1,0.69143337499986
123,28,12,categorization,0,bathroom,SHINEd_sun_agrwbmhcpmfuwmsg.tif,24,0.0666666666666667,0.0666666666666667,0.783333333333333,1998.329222375,1998.9153725,13,1998.3957815,1998.462313208,1998.9316535,1999.708325,1,0.586150125000131
123,29,12,categorization,0,kitchen,SHINEd_sun_azmutvzbxypaceni.tif,110,0.0666666666666667,0.0666666666666667,1.21666666666667,1999.712984041,2000.339004125,9,1999.774624125,1999.835589833,2000.354240541,2001.56429425,1,0.626020083999947
123,30,12,categorization,0,bathroom,SHINEd_sun_atstyziqcmkahyxk.tif,51,0.0666666666666667,0.0666666666666667,1.41666666666667,2001.579857541,2002.236905166,13,2001.646328041,2001.712512041,2002.251635583,2003.661678416,1,0.657047625000132
123,31,12,categorization,0,kitchen,SHINEd_sun_abftihopvusyfakt.tif,71,0.0666666666666667,0.0666666666666667,1.28333333333333,2003.678998875,2004.432990958,13,2003.744244791,2003.8121665,2004.451663458,2005.728380291,0,0.753992082999957
123,32,12,categorization,0,bathroom,SHINEd_sun_abapwbhyhkfixyex.tif,14,0.0666666666666667,0.0666666666666667,0.95,2005.739961166,2006.355684166,9,2005.80671375,2005.869724375,2006.376247458,2007.319628375,0,0.615722999999889
123,33,12,categorization,0,kitchen,SHINEd_sun_abdxkyyxwfskuaqb.tif,70,0.0666666666666667,0.0666666666666667,1.73333333333333,2007.335769416,2007.939143916,13,2007.402369375,2007.468419583,2007.953666958,2009.6803875,0,0.603374499999973
123,34,12,categorization,0,kitchen,SHINEd_sun_acxkpeoqbwcxfvip.tif,77,0.0666666666666667,0.0666666666666667,1.56666666666667,2009.697549666,2010.384969458,9,2009.764670583,2009.82574075,2010.398102833,2011.958141875,1,0.687419791999901
123,35,12,categorization,0,bathroom,SHINEd_sun_apynckhmoftszqoq.tif,47,0.0666666666666667,0.0666666666666667,1.05,2011.967732083,2012.613061125,13,2012.033910375,2012.10073925,2012.640939166,2013.684308333,1,0.645329041999958
123,36,12,categorization,0,kitchen,SHINEd_sun_aenotlpyftoioydp.tif,82,0.0666666666666667,0.0666666666666667,0.916666666666667,2013.694534875,2014.335522583,9,2013.759016,2013.825207291,2014.365010541,2015.275050208,1,0.640987708000011
123,37,12,categorization,0,kitchen,SHINEd_sun_aunzlwrbjumxhwdj.tif,103,0.0666666666666667,0.0666666666666667,1.61666666666667,2015.290933,2016.139519833,9,2015.357368541,2015.42339125,2016.158706,2017.768747375,1,0.848586832999899
123,38,12,categorization,0,bathroom,SHINEd_sun_ahijqszoswveeyji.tif,28,0.0666666666666667,0.0666666666666667,0.916666666666667,2017.783612041,2018.562831416,13,2017.848675958,2017.913233333,2018.586512291,2019.496515875,1,0.779219375000139
123,39,12,categorization,0,bathroom,SHINEd_sun_anhioqovhscjqqwb.tif,38,0.0666666666666667,0.0666666666666667,0.916666666666667,2019.501377583,2020.315623416,13,2019.5630075,2019.624217083,2020.326000458,2021.236004875,1,0.814245833000086
123,40,12,categorization,0,kitchen,SHINEd_sun_acfmftudsenhrfhy.tif,74,0.0666666666666667,0.0666666666666667,0.916666666666667,2021.240755,2021.906624833,9,2021.302395125,2021.363407708,2021.915148333,2022.825152583,1,0.665869832999988
123,41,12,categorization,0,bathroom,SHINEd_sun_acgyywnybuveqsro.tif,18,0.0666666666666667,0.0666666666666667,1.28333333333333,2022.830498041,2023.571305333,13,2022.892148916,2022.953146208,2023.58904025,2024.865760375,1,0.740807292
123,42,12,categorization,0,kitchen,SHINEd_sun_axyyrmzcupyhlivc.tif,107,0.0666666666666667,0.0666666666666667,0.916666666666667,2024.883009791,2025.647467416,9,2024.949529625,2025.015902666,2025.672465375,2026.582520416,1,0.764457624999977
123,43,12,categorization,0,bathroom,SHINEd_sun_apkxzenqapsujocq.tif,45,0.0666666666666667,0.0666666666666667,1.68333333333333,2026.596139958,2027.291077625,13,2026.662392375,2026.720743458,2027.306431666,2028.983139875,1,0.694937666999976
123,44,12,categorization,0,kitchen,SHINEd_sun_aadbddgrdsjugojn.tif,64,0.0666666666666667,0.0666666666666667,0.933333333333333,2029.00105125,2029.611438,9,2029.06787275,2029.133826208,2029.64067825,2030.56735,1,0.610386749999861
123,45,12,categorization,0,kitchen,SHINEd_sun_abdenxonkemggwsq.tif,69,0.0666666666666667,0.0666666666666667,1.86666666666667,2030.572687583,2031.299263416,9,2030.634376708,2030.69555675,2031.314446916,2033.174504041,1,0.72657583299997
123,46,12,categorization,0,bathroom,SHINEd_sun_axyrejkiiaqiurjk.tif,59,0.0666666666666667,0.0666666666666667,1.03333333333333,2033.192638333,2033.908636375,9,2033.258899958,2033.325434458,2033.931519958,2034.958224291,0,0.71599804199991
123,47,12,categorization,0,bathroom,SHINEd_sun_ahcvzmoyaycdoftf.tif,27,0.0666666666666667,0.0666666666666667,1.43333333333333,2034.968168541,2035.600618041,13,2035.032941583,2035.099402541,2035.62273825,2037.049479916,1,0.632449499999893
123,48,12,categorization,0,kitchen,SHINEd_sun_aegoxogugdkwpmpj.tif,80,0.0666666666666667,0.0666666666666667,0.833333333333333,2037.060924875,2037.646826708,9,2037.125792833,2037.193396333,2037.665775833,2038.492481666,1,0.58590183299998
123,49,12,categorization,0,kitchen,SHINEd_sun_awcpdzzznmweyyhv.tif,106,0.0666666666666667,0.0666666666666667,0.833333333333333,2038.508875333,2039.227627541,9,2038.575657041,2038.641540125,2039.244195916,2040.07086825,1,0.718752207999842
123,50,12,categorization,0,kitchen,SHINEd_sun_aexklacwqwezaorf.tif,84,0.0666666666666667,0.0666666666666667,0.916666666666667,2040.076644666,2040.691174125,9,2040.138394791,2040.199326458,2040.701021041,2041.611024708,1,0.614529459000096
