sub_num,trial,block,task,is_practice,category,image,texture,duration,mask_dur,jitter,stim_time,time_of_resp,trial_response,mask_time,fix_time,jit_onset,trial_end,trial_accuracy,RT
123,1,20,categorization,0,bathroom,SHINEd_sun_acduarbnmmoglmiv.tif,16,0.0666666666666667,0.0666666666666667,1.95,3008.256964416,3008.950920791,13,3008.319474041,3008.379742125,3008.964954208,3010.908323708,1,0.693956375000198
123,2,20,categorization,0,kitchen,SHINEd_sun_abdxkyyxwfskuaqb.tif,70,0.0666666666666667,0.0666666666666667,0.85,3010.925057583,3011.786225875,13,3010.992225333,3011.058074541,3011.814796083,3012.658132833,0,0.861168292000002
123,3,20,categorization,0,kitchen,SHINEd_sun_abrcnpqqhmjwekyf.tif,73,0.0666666666666667,0.0666666666666667,0.816666666666667,3012.663126291,3013.255314041,9,3012.724739416,3012.785777625,3013.270999458,3014.081004291,1,0.592187749999994
123,4,20,categorization,0,kitchen,SHINEd_sun_aegoxogugdkwpmpj.tif,80,0.0666666666666667,0.0666666666666667,0.983333333333333,3014.085949541,3014.838985333,9,3014.147726541,3014.20886125,3014.844329958,3015.821001375,1,0.753035791999991
123,5,20,categorization,0,kitchen,SHINEd_sun_aaxxjlsuzvqlgylf.tif,68,0.0666666666666667,0.0666666666666667,0.75,3015.82560525,3016.534547,9,3015.887223166,3015.948376375,3016.550497625,3017.293834416,1,0.708941750000122
123,6,20,categorization,0,bathroom,SHINEd_sun_aljolscmmzydegqp.tif,33,0.0666666666666667,0.0666666666666667,1.48333333333333,3017.298527833,3017.910557583,13,3017.360145833,3017.421238583,3017.923017041,3019.399732708,1,0.612029749999692
123,7,20,categorization,0,bathroom,SHINEd_sun_acgyywnybuveqsro.tif,18,0.0666666666666667,0.0666666666666667,0.75,3019.418115666,3020.110443666,13,3019.484168541,3019.550959375,3020.14077675,3020.884160333,1,0.692327999999634
123,8,20,categorization,0,kitchen,SHINEd_sun_aexklacwqwezaorf.tif,84,0.0666666666666667,0.0666666666666667,1.58333333333333,3020.900645583,3021.68659325,13,3020.963419291,3021.023673166,3021.69226875,3023.268979583,0,0.785947667000073
123,9,20,categorization,0,kitchen,SHINEd_sun_abpwyqmlzafvklqo.tif,72,0.0666666666666667,0.0666666666666667,1.88333333333333,3023.287974833,3023.972827291,9,3023.354528125,3023.420669791,3023.993816125,3025.870509458,1,0.684852458000023
123,10,20,categorization,0,bathroom,SHINEd_sun_apkxzenqapsujocq.tif,45,0.0666666666666667,0.0666666666666667,1.18333333333333,3025.881930791,3026.5005935,13,3025.949276875,3026.014749083,3026.521111875,3027.697793458,1,0.618662709000091
123,11,20,categorization,0,bathroom,SHINEd_sun_akiytfaagpdsphgz.tif,31,0.0666666666666667,0.0666666666666667,1.65,3027.708328291,3028.468921625,13,3027.77496075,3027.837379958,3028.493836791,3030.137214666,1,0.760593334000077
123,12,20,categorization,0,bathroom,SHINEd_sun_apjevzvycyhuqghb.tif,43,0.0666666666666667,0.0666666666666667,1.33333333333333,3030.155098916,3030.914438458,9,3030.221790125,3030.288048708,3030.944609291,3032.271308,0,0.759339541999907
123,13,20,categorization,0,kitchen,SHINEd_sun_aixorpehvfykdynp.tif,95,0.0666666666666667,0.0666666666666667,0.95,3032.291495416,3033.640702416,13,3032.358272958,3032.424350375,3033.667039666,3034.610377333,0,1.34920699999975
123,14,20,categorization,0,bathroom,SHINEd_sun_aunuadmjocsddsrl.tif,52,0.0666666666666667,0.0666666666666667,1.56666666666667,3034.615474708,3035.367006875,13,3034.677430958,3034.738133041,3035.373108583,3036.933145833,1,0.751532166999823
123,15,20,categorization,0,kitchen,SHINEd_sun_abftihopvusyfakt.tif,71,0.0666666666666667,0.0666666666666667,1.91666666666667,3036.950369791,3037.720637958,9,3037.016988291,3037.082889708,3037.739122375,3039.649173041,1,0.770268167000268
123,16,20,categorization,0,bathroom,SHINEd_sun_anryaplzeujmzfkd.tif,39,0.0666666666666667,0.0666666666666667,1.75,3039.665813375,3040.394088291,13,3039.73178,3039.799196833,3040.422529791,3042.165913083,1,0.728274915999918
123,17,20,categorization,0,bathroom,SHINEd_sun_alotolagknyrgtsk.tif,35,0.0666666666666667,0.0666666666666667,0.966666666666667,3042.183520833,3042.76849825,9,3042.250194333,3042.316092166,3042.789076916,3043.749080875,0,0.584977417000118
123,18,20,categorization,0,kitchen,SHINEd_sun_ajcbwwvdlsvjyzje.tif,96,0.0666666666666667,0.0666666666666667,1.15,3043.755452375,3044.822628791,9,3043.81728425,3043.878228666,3044.830594375,3045.973977916,1,1.06717641600017
123,19,20,categorization,0,bathroom,SHINEd_sun_apkruvsevgegsdwp.tif,44,0.0666666666666667,0.0666666666666667,0.733333333333333,3045.987076791,3046.610741958,13,3046.051973833,3046.119708583,3046.625567583,3047.352279333,1,0.623665166999672
123,20,20,categorization,0,bathroom,SHINEd_sun_agguqiubmwhqqunb.tif,22,0.0666666666666667,0.0666666666666667,1.41666666666667,3047.368940041,3048.070542083,9,3047.4352595,3047.5014075,3048.087432625,3049.497466208,0,0.701602042000104
123,21,20,categorization,0,bathroom,SHINEd_sun_alkosphxlxwjwgjd.tif,34,0.0666666666666667,0.0666666666666667,0.916666666666667,3049.514661583,3050.180063083,13,3049.58120675,3049.6475235,3050.2039765,3051.114015708,1,0.665401499999916
123,22,20,categorization,0,bathroom,SHINEd_sun_ajlawzvmubibwbpy.tif,30,0.0666666666666667,0.0666666666666667,1.05,3051.1304455,3051.902726625,13,3051.193095125,3051.253595541,3051.922087583,3052.965460958,1,0.772281125000063
123,23,20,categorization,0,bathroom,SHINEd_sun_ahcvzmoyaycdoftf.tif,27,0.0666666666666667,0.0666666666666667,1,3052.974999458,3053.654377583,13,3053.039738708,3053.106414125,3053.681213625,3054.674585666,1,0.679378124999857
123,24,20,categorization,0,bathroom,SHINEd_sun_aavhrsfjbserjtht.tif,13,0.0666666666666667,0.0666666666666667,0.766666666666667,3054.692184958,3055.566919416,13,3054.75944975,3054.825355125,3055.577423708,3056.337427625,1,0.874734458000148
123,25,20,categorization,0,kitchen,SHINEd_sun_agorklincwxrdtga.tif,87,0.0666666666666667,0.0666666666666667,0.783333333333333,3056.342274416,3056.999309083,9,3056.404019583,3056.465048875,3057.017043541,3057.79371525,1,0.657034667000062
123,26,20,categorization,0,kitchen,SHINEd_sun_akchetnepxlcxhsu.tif,98,0.0666666666666667,0.0666666666666667,1.45,3057.798377458,3058.438352208,13,3057.860056583,3057.921198083,3058.456532416,3059.899914625,0,0.63997475000042
123,27,20,categorization,0,bathroom,SHINEd_sun_agrwbmhcpmfuwmsg.tif,24,0.0666666666666667,0.0666666666666667,1.15,3059.91504375,3060.696428625,13,3059.9815225,3060.047119875,3060.720393208,3061.863778125,1,0.781384874999731
123,28,20,categorization,0,bathroom,SHINEd_sun_asfwthctfqerjvxr.tif,49,0.0666666666666667,0.0666666666666667,1.35,3061.872039458,3062.577711666,13,3061.936809791,3062.005009875,3062.5943105,3063.937686541,1,0.705672208000124
123,29,20,categorization,0,bathroom,SHINEd_sun_aoybiabnpadelefl.tif,41,0.0666666666666667,0.0666666666666667,1.26666666666667,3063.950138666,3064.494614833,9,3064.016703333,3064.082764458,3064.52249525,3065.782537083,0,0.544476167000084
123,30,20,categorization,0,bathroom,SHINEd_sun_aleqenyvunhactkl.tif,32,0.0666666666666667,0.0666666666666667,1.05,3065.795984708,3066.51865425,9,3065.860579916,3065.920828416,3066.522863875,3067.566236416,0,0.722669541999949
123,31,20,categorization,0,kitchen,SHINEd_sun_adgqasybjyktddhj.tif,78,0.0666666666666667,0.0666666666666667,0.8,3067.573953333,3068.235673291,9,3067.638039,3067.704908458,3068.261212416,3069.054589708,1,0.661719957999594
123,32,20,categorization,0,kitchen,SHINEd_sun_aqeaevwwwjoqhzvl.tif,101,0.0666666666666667,0.0666666666666667,0.866666666666667,3069.071313291,3070.294430625,9,3069.138218833,3069.204103208,3070.306571166,3071.166576833,1,1.22311733400011
123,33,20,categorization,0,kitchen,SHINEd_sun_aarfiyshqohlwkmo.tif,67,0.0666666666666667,0.0666666666666667,0.866666666666667,3071.172022583,3071.806317,9,3071.233765291,3071.2947825,3071.813036625,3072.673041583,1,0.634294417000092
123,34,20,categorization,0,bathroom,SHINEd_sun_aqrpegblszgcoujh.tif,48,0.0666666666666667,0.0666666666666667,1.53333333333333,3072.677895541,3073.44645625,13,3072.739586291,3072.800605875,3073.452726083,3074.97942925,1,0.768560709000212
123,35,20,categorization,0,bathroom,SHINEd_sun_acegryoqftbzowsg.tif,17,0.0666666666666667,0.0666666666666667,1.66666666666667,3074.997754625,3075.803740541,13,3075.064414958,3075.130775583,3075.819230375,3077.479262125,1,0.805985915999827
123,36,20,categorization,0,bathroom,SHINEd_sun_ahaulkltgpkeeemi.tif,26,0.0666666666666667,0.0666666666666667,1.95,3077.496650583,3078.177358333,13,3077.563117166,3077.629157791,3078.202662208,3080.146047958,1,0.680707750000238
123,37,20,categorization,0,kitchen,SHINEd_sun_ahywdevtimnqcsln.tif,94,0.0666666666666667,0.0666666666666667,1.3,3080.165477166,3080.816569166,9,3080.232039958,3080.298295208,3080.838081833,3082.131457958,1,0.651092000000062
123,38,20,categorization,0,kitchen,SHINEd_sun_akcjzhbbjlbogpdi.tif,99,0.0666666666666667,0.0666666666666667,1.25,3082.149357375,3082.899746666,9,3082.215662375,3082.281914958,3082.922043083,3084.165410166,1,0.750389290999919
123,39,20,categorization,0,kitchen,SHINEd_sun_awcpdzzznmweyyhv.tif,106,0.0666666666666667,0.0666666666666667,1.2,3084.181993875,3084.83286975,9,3084.248714125,3084.314782625,3084.854735,3086.048077583,1,0.650875875000111
123,40,20,categorization,0,kitchen,SHINEd_sun_ahdycvpopffkzzsu.tif,90,0.0666666666666667,0.0666666666666667,1.61666666666667,3086.056603208,3086.926500708,13,3086.118500583,3086.179536666,3086.931916958,3088.541951875,0,0.869897499999752
123,41,20,categorization,0,kitchen,SHINEd_sun_aadbddgrdsjugojn.tif,64,0.0666666666666667,0.0666666666666667,1.65,3088.557303625,3089.322388666,9,3088.621096375,3088.687389166,3089.34240775,3090.9857925,1,0.76508504100002
123,42,20,categorization,0,kitchen,SHINEd_sun_abdenxonkemggwsq.tif,69,0.0666666666666667,0.0666666666666667,0.9,3091.009030833,3091.580163833,9,3091.076560833,3091.142452041,3091.599459375,3092.49280375,1,0.571132999999918
123,43,20,categorization,0,bathroom,SHINEd_sun_aghyqhbptboemmoq.tif,23,0.0666666666666667,0.0666666666666667,0.816666666666667,3092.498392791,3093.206925875,13,3092.560169875,3092.62113025,3093.2229365,3094.032942375,1,0.70853308400001
123,44,20,categorization,0,kitchen,SHINEd_sun_aeqdocilnnpuvuhx.tif,83,0.0666666666666667,0.0666666666666667,1.86666666666667,3094.038027708,3094.703313958,9,3094.099818958,3094.160838,3094.71251325,3096.572698416,1,0.665286250000008
123,45,20,categorization,0,bathroom,SHINEd_sun_ahqjwnzgolcaoidx.tif,29,0.0666666666666667,0.0666666666666667,1.38333333333333,3096.588708166,3097.28751175,13,3096.654773208,3096.720333916,3097.31157925,3098.688575875,1,0.698803583999961
123,46,20,categorization,0,bathroom,SHINEd_sun_abjtwfukuwddzted.tif,15,0.0666666666666667,0.0666666666666667,1.63333333333333,3098.707114791,3099.550707958,13,3098.774411791,3098.840245,3099.580779,3101.207482333,1,0.843593167000108
123,47,20,categorization,0,kitchen,SHINEd_sun_aypmqwcualkenuoe.tif,109,0.0666666666666667,0.0666666666666667,1.56666666666667,3101.225375416,3101.911299125,9,3101.2925585,3101.358808708,3101.931566125,3103.491621125,1,0.685923708999781
123,48,20,categorization,0,bathroom,SHINEd_sun_awnqiikzaispgmwo.tif,56,0.0666666666666667,0.0666666666666667,1.21666666666667,3103.508818541,3104.226698375,13,3103.576116791,3103.642049041,3104.249543208,3105.459593041,1,0.717879834000087
123,49,20,categorization,0,bathroom,SHINEd_labelme_sfxiulhjbhlyiyt.tif,11,0.0666666666666667,0.0666666666666667,0.716666666666667,3105.476750333,3106.201990166,13,3105.543774,3105.610498791,3106.216887958,3106.926941375,1,0.72523983300016
123,50,20,categorization,0,bathroom,SHINEd_sun_anhioqovhscjqqwb.tif,38,0.0666666666666667,0.0666666666666667,0.966666666666667,3106.943300166,3107.494136041,13,3107.010210208,3107.076220708,3107.512037541,3108.472044208,1,0.550835874999848
