sub_num,trial,block,task,is_practice,category,image,texture,duration,mask_dur,jitter,stim_time,time_of_resp,trial_response,mask_time,fix_time,jit_onset,trial_end,trial_accuracy,RT
103,6,0,usability,1,kitchen,kitchen_practice2.tif,227,1.5,0,1.13333333333333,3642.961558791,3646.93079125,4,NaN,3646.937390375,3646.955824708,3648.08260325,NaN,NaN
103,7,0,usability,1,kitchen,kitchen_practice3.tif,228,1.5,0,0.933333333333333,3648.092206833,3651.314627916,6,NaN,3651.320417,3651.338750208,3652.265427291,NaN,NaN
103,8,0,usability,1,kitchen,kitchen_practice1.tif,226,1.5,0,1.48333333333333,3652.269846375,3656.21141875,5,NaN,3656.217087916,3656.235282583,3657.712058708,NaN,NaN
103,9,0,usability,1,kitchen,kitchen_practice4.tif,229,1.5,0,1.33333333333333,3657.73143075,3660.682895583,4,NaN,3660.688459583,3660.706849541,3662.033595125,NaN,NaN
103,10,0,usability,1,kitchen,kitchen_practice5.tif,230,1.5,0,1.3,3662.048208125,3665.147267625,6,NaN,3665.152905583,3665.171229833,3666.46464025,NaN,NaN
103,1,1,usability,0,kitchen,sun_amjjdeyrggfqgmom.tif,210,1.5,0,1.91666666666667,3671.226220916,3675.322378708,6,NaN,3675.328283375,3675.346559375,3677.256626125,NaN,NaN
103,2,1,usability,0,kitchen,sun_aymvwlarqodbwuoc.tif,218,1.5,0,0.85,3677.275284416,3680.497729208,6,NaN,3680.527213333,3680.550615125,3681.393958541,NaN,NaN
103,3,1,usability,0,kitchen,labelme_rykdqxenmhulbdn.tif,173,1.5,0,0.7,3681.398632958,3684.507511416,4,NaN,3684.51610575,3684.535171833,3685.228513916,NaN,NaN
103,4,1,usability,0,kitchen,sun_adgqasybjyktddhj.tif,188,1.5,0,1.6,3685.23361525,3688.690859166,6,NaN,3688.696486833,3688.7148385,3690.308244375,NaN,NaN
103,5,1,usability,0,kitchen,sun_aehawpgmrlhlvcow.tif,191,1.5,0,1.13333333333333,3690.327499958,3693.174107416,6,NaN,3693.203146541,3693.226382125,3694.353128541,NaN,NaN
103,6,1,usability,0,kitchen,sun_aadbddgrdsjugojn.tif,174,1.5,0,0.716666666666667,3694.363000791,3697.091057958,6,NaN,3697.096548833,3697.114847166,3697.824854708,NaN,NaN
103,7,1,usability,0,kitchen,sun_acwjdupvyjsugpay.tif,186,1.5,0,1.6,3697.829146875,3700.574607458,6,NaN,3700.60305675,3700.626464541,3702.219878458,NaN,NaN
103,8,1,usability,0,kitchen,sun_aixorpehvfykdynp.tif,205,1.5,0,1.68333333333333,3702.23618275,3705.634138375,6,NaN,3705.640172333,3705.658510708,3707.335253958,NaN,NaN
103,9,1,usability,0,kitchen,sun_auaiucuqpdausiva.tif,212,1.5,0,1.41666666666667,3707.353615208,3710.622011083,5,NaN,3710.651642583,3710.675086208,3712.085170958,NaN,NaN
103,10,1,usability,0,kitchen,sun_aamedkxepzlwuxes.tif,175,1.5,0,1,3712.094756083,3714.755007583,4,NaN,3714.760540708,3714.778952375,3715.772292458,NaN,NaN
103,11,1,usability,0,kitchen,sun_ahpczsiumwwocjkv.tif,202,1.5,0,1.33333333333333,3715.776633708,3719.050846791,5,NaN,3719.056280041,3719.074724375,3720.401479333,NaN,NaN
103,12,1,usability,0,kitchen,sun_aenotlpyftoioydp.tif,192,1.5,0,1.15,3720.418545041,3724.674610375,3,NaN,3724.680365458,3724.699009083,3725.84244225,NaN,NaN
103,13,1,usability,0,kitchen,sun_aexklacwqwezaorf.tif,194,1.5,0,1.86666666666667,3725.851090208,3728.994801666,5,NaN,3729.00030875,3729.018556458,3730.8786545,NaN,NaN
103,14,1,usability,0,kitchen,sun_aapllqyqlykszopd.tif,176,1.5,0,1.18333333333333,3730.895946416,3734.554129166,4,NaN,3734.560025625,3734.578438333,3735.755194666,NaN,NaN
103,15,1,usability,0,kitchen,sun_ahywdevtimnqcsln.tif,204,1.5,0,1.71666666666667,3735.765261708,3738.698549625,3,NaN,3738.704154583,3738.722527583,3740.432615791,NaN,NaN
103,16,1,usability,0,kitchen,sun_aggjlwcdjsjcaemh.tif,196,1.5,0,1.1,3740.452029958,3743.673661375,5,NaN,3743.702770958,3743.726294458,3744.819710833,NaN,NaN
103,17,1,usability,0,kitchen,sun_acxkpeoqbwcxfvip.tif,187,1.5,0,0.983333333333333,3744.830080541,3748.394503458,5,NaN,3748.400226333,3748.418463833,3749.39514075,NaN,NaN
103,18,1,usability,0,kitchen,sun_aeqdocilnnpuvuhx.tif,193,1.5,0,0.916666666666667,3749.399961375,3752.586694625,4,NaN,3752.593176166,3752.611465375,3753.521472291,NaN,NaN
103,19,1,usability,0,kitchen,sun_akcjzhbbjlbogpdi.tif,209,1.5,0,0.716666666666667,3753.525980666,3757.841898958,5,NaN,3757.847943375,3757.866544333,3758.576554708,NaN,NaN
103,20,1,usability,0,kitchen,sun_ajcbwwvdlsvjyzje.tif,206,1.5,0,0.883333333333333,3758.580909875,3762.378505958,5,NaN,3762.384065375,3762.4023235,3763.279001416,NaN,NaN
103,21,1,usability,0,kitchen,sun_azmutvzbxypaceni.tif,220,1.5,0,1.93333333333333,3763.283546958,3766.266931791,7,NaN,3766.295773041,3766.317336625,3768.244106333,NaN,NaN
103,22,1,usability,0,kitchen,sun_awcpdzzznmweyyhv.tif,216,1.5,0,0.9,3768.261900458,3771.415587083,3,NaN,3771.444454875,3771.467822458,3772.36116225,NaN,NaN
103,23,1,usability,0,kitchen,sun_aunzlwrbjumxhwdj.tif,213,1.5,0,1.13333333333333,3772.366461625,3777.050869041,2,NaN,3777.056501791,3777.074845708,3778.201619541,NaN,NaN
103,24,1,usability,0,kitchen,labelme_kxvouciolcpqplr.tif,172,1.5,0,0.766666666666667,3778.210831916,3781.178665458,3,NaN,3781.18413025,3781.202365875,3781.962376916,NaN,NaN
103,25,1,usability,0,kitchen,sun_agubuxuukhzyzpdp.tif,198,1.5,0,0.966666666666667,3781.966715125,3784.955143291,3,NaN,3784.983555208,3785.006191708,3785.966199541,NaN,NaN
103,1,2,usability,0,kitchen,sun_ajkqhtgcbgpcwrwn.tif,207,1.5,0,1.56666666666667,3789.837788333,3792.525795,1,NaN,3792.554142833,3792.577297666,3794.13737475,NaN,NaN
103,2,2,usability,0,kitchen,sun_avszsnwsbuqfgzbn.tif,215,1.5,0,1.2,3794.152667041,3797.522507625,2,NaN,3797.528104958,3797.546430333,3798.7398635,NaN,NaN
103,3,2,usability,0,kitchen,sun_admlmbcdswaszruo.tif,189,1.5,0,1.73333333333333,3798.751854416,3801.738816416,7,NaN,3801.744407041,3801.762714458,3803.489476083,NaN,NaN
103,4,2,usability,0,kitchen,sun_abdxkyyxwfskuaqb.tif,180,1.5,0,1.61666666666667,3803.503166041,3806.71913125,3,NaN,3806.748338125,3806.771678166,3808.381742333,NaN,NaN
103,5,2,usability,0,kitchen,sun_aypmqwcualkenuoe.tif,219,1.5,0,1.38333333333333,3808.400857708,3811.122652583,4,NaN,3811.128151541,3811.146620791,3812.523346333,NaN,NaN
103,6,2,usability,0,kitchen,sun_agzzivivdpnawacl.tif,199,1.5,0,1.73333333333333,3812.542536208,3816.226614,2,NaN,3816.232363375,3816.2505595,3817.977328375,NaN,NaN
103,7,2,usability,0,kitchen,sun_aaxxjlsuzvqlgylf.tif,178,1.5,0,1.96666666666667,3817.995240916,3821.091427041,3,NaN,3821.120332208,3821.143531083,3823.103631583,NaN,NaN
103,8,2,usability,0,kitchen,sun_abftihopvusyfakt.tif,181,1.5,0,0.883333333333333,3823.12159825,3825.789444375,2,NaN,3825.81524525,3825.838158625,3826.7148355,NaN,NaN
103,9,2,usability,0,kitchen,sun_agorklincwxrdtga.tif,197,1.5,0,1.06666666666667,3826.719469833,3829.737567833,5,NaN,3829.766639666,3829.785963208,3830.846054666,NaN,NaN
103,10,2,usability,0,kitchen,labelme_brsyyvweiuaazfr.tif,171,1.5,0,1.06666666666667,3830.855804875,3834.193792958,5,NaN,3834.199673666,3834.217837708,3835.277925541,NaN,NaN
103,11,2,usability,0,kitchen,sun_afuyedyxivkhecmu.tif,195,1.5,0,0.966666666666667,3835.28644425,3838.16197825,2,NaN,3838.167780125,3838.186204291,3839.146215,NaN,NaN
103,12,2,usability,0,kitchen,sun_aegoxogugdkwpmpj.tif,190,1.5,0,1.78333333333333,3839.150495875,3842.212778458,4,NaN,3842.228167333,3842.2479395,3844.024712833,NaN,NaN
103,13,2,usability,0,kitchen,sun_axyyrmzcupyhlivc.tif,217,1.5,0,1.68333333333333,3844.04277575,3847.215694666,7,NaN,3847.244151708,3847.267524625,3848.944256375,NaN,NaN
103,14,2,usability,0,kitchen,sun_abpwyqmlzafvklqo.tif,182,1.5,0,0.983333333333333,3848.962234416,3852.323357041,3,NaN,3852.350478833,3852.373958166,3853.350633208,NaN,NaN
103,15,2,usability,0,kitchen,sun_abdenxonkemggwsq.tif,179,1.5,0,1.33333333333333,3853.355380458,3856.498215666,3,NaN,3856.5047365,3856.523159083,3857.849909166,NaN,NaN
103,16,2,usability,0,kitchen,sun_acgtpgfybqjmzeyw.tif,185,1.5,0,1.56666666666667,3857.867922625,3860.754066625,1,NaN,3860.7595085,3860.777925041,3862.337997666,NaN,NaN
103,17,2,usability,0,kitchen,sun_ahspylgoovwmwvgk.tif,203,1.5,0,1.66666666666667,3862.352750583,3865.697657666,5,NaN,3865.7035705,3865.721915833,3867.382002041,NaN,NaN
103,18,2,usability,0,kitchen,sun_auticobqsbwgoppi.tif,214,1.5,0,1.86666666666667,3867.401407791,3870.397898125,1,NaN,3870.427564208,3870.45084425,3872.310930208,NaN,NaN
103,19,2,usability,0,kitchen,sun_aqeaevwwwjoqhzvl.tif,211,1.5,0,1.95,3872.331471375,3875.421270541,3,NaN,3875.448088,3875.471398916,3877.414820833,NaN,NaN
103,20,2,usability,0,kitchen,sun_acfmftudsenhrfhy.tif,184,1.5,0,0.966666666666667,3877.433331125,3880.4292315,3,NaN,3880.45899425,3880.48302375,3881.443036208,NaN,NaN
103,21,2,usability,0,kitchen,sun_abrcnpqqhmjwekyf.tif,183,1.5,0,1.43333333333333,3881.447738666,3884.618027291,5,NaN,3884.626678541,3884.645752375,3886.072450458,NaN,NaN
103,22,2,usability,0,kitchen,sun_ahdycvpopffkzzsu.tif,200,1.5,0,0.85,3886.08325525,3889.346187083,5,NaN,3889.351802875,3889.370330375,3890.21367375,NaN,NaN
103,23,2,usability,0,kitchen,sun_ahljzhgcdpomplvg.tif,201,1.5,0,1.53333333333333,3890.217971,3894.993714708,2,NaN,3894.999401291,3895.017642791,3896.544421458,NaN,NaN
103,24,2,usability,0,kitchen,sun_akchetnepxlcxhsu.tif,208,1.5,0,1.18333333333333,3896.563846625,3899.817628875,5,NaN,3899.823428375,3899.841824291,3901.018565625,NaN,NaN
103,25,2,usability,0,kitchen,sun_aarfiyshqohlwkmo.tif,177,1.5,0,1.86666666666667,3901.030779791,3903.594397958,6,NaN,3903.599903416,3903.618122791,3905.478213041,NaN,NaN
