sub_num,trial,block,task,is_practice,category,image,texture,duration,mask_dur,jitter,stim_time,time_of_resp,trial_response,mask_time,fix_time,jit_onset,trial_end,trial_accuracy,RT
129,6,0,typicality,1,kitchen,kitchen_practice2.tif,227,1.5,0,0.966666666666667,6615.321449083,6618.842026083,1,NaN,6618.864020375,6618.885258458,6619.845356875,NaN,NaN
129,7,0,typicality,1,kitchen,kitchen_practice5.tif,230,1.5,0,1.58333333333333,6619.856161542,6623.018229583,3,NaN,6623.031402917,6623.050405125,6624.627235875,NaN,NaN
129,8,0,typicality,1,kitchen,kitchen_practice1.tif,226,1.5,0,1.03333333333333,6624.655162792,6627.607002583,2,NaN,6627.638609833,6627.660296125,6628.687011,NaN,NaN
129,9,0,typicality,1,kitchen,kitchen_practice4.tif,229,1.5,0,1.68333333333333,6628.707547958,6631.602955917,4,NaN,6631.609690667,6631.628040583,6633.304759042,NaN,NaN
129,10,0,typicality,1,kitchen,kitchen_practice3.tif,228,1.5,0,1.45,6633.33374625,6636.890479167,2,NaN,6636.899729625,6636.917870042,6638.361243583,NaN,NaN
129,1,1,typicality,0,kitchen,sun_agubuxuukhzyzpdp.tif,198,1.5,0,0.733333333333333,6643.38971575,6646.372023083,2,NaN,6646.402319667,6646.425442417,6647.152113708,NaN,NaN
129,2,1,typicality,0,kitchen,sun_ahpczsiumwwocjkv.tif,202,1.5,0,1.18333333333333,6647.156825417,6649.725748542,1,NaN,6649.752022625,6649.773563458,6650.95027775,NaN,NaN
129,3,1,typicality,0,kitchen,sun_aapllqyqlykszopd.tif,176,1.5,0,0.7,6650.961262083,6653.394151042,4,NaN,6653.399843667,6653.417923292,6654.111262042,NaN,NaN
129,4,1,typicality,0,kitchen,sun_auaiucuqpdausiva.tif,212,1.5,0,1.2,6654.1156425,6656.982099167,1,NaN,6657.010461917,6657.033703792,6658.22708825,NaN,NaN
129,5,1,typicality,0,kitchen,sun_adgqasybjyktddhj.tif,188,1.5,0,0.966666666666667,6658.239824167,6661.034845792,6,NaN,6661.04010325,6661.058319292,6662.018323125,NaN,NaN
129,6,1,typicality,0,kitchen,sun_aaxxjlsuzvqlgylf.tif,178,1.5,0,1.3,6662.022835417,6664.73385125,2,NaN,6664.761394083,6664.785376083,6666.078740958,NaN,NaN
129,7,1,typicality,0,kitchen,labelme_kxvouciolcpqplr.tif,172,1.5,0,1.65,6666.094000833,6669.21807575,6,NaN,6669.22367225,6669.241987292,6670.88535975,NaN,NaN
129,8,1,typicality,0,kitchen,sun_amjjdeyrggfqgmom.tif,210,1.5,0,1.63333333333333,6670.904456333,6674.076518208,1,NaN,6674.097697042,6674.11852,6675.745223792,NaN,NaN
129,9,1,typicality,0,kitchen,sun_acfmftudsenhrfhy.tif,184,1.5,0,0.9,6675.759829625,6679.171033333,4,NaN,6679.199835708,6679.222945042,6680.116283833,NaN,NaN
129,10,1,typicality,0,kitchen,sun_aypmqwcualkenuoe.tif,219,1.5,0,0.95,6680.12116875,6683.298401417,3,NaN,6683.303622,6683.321935833,6684.265274,NaN,NaN
129,11,1,typicality,0,kitchen,sun_avszsnwsbuqfgzbn.tif,215,1.5,0,0.816666666666667,6684.269388292,6687.338097125,3,NaN,6687.347734708,6687.3670245,6688.177028083,NaN,NaN
129,12,1,typicality,0,kitchen,sun_aarfiyshqohlwkmo.tif,177,1.5,0,1.96666666666667,6688.181687167,6690.773879875,3,NaN,6690.801773333,6690.824925792,6692.784965667,NaN,NaN
129,13,1,typicality,0,kitchen,sun_aeqdocilnnpuvuhx.tif,193,1.5,0,0.783333333333333,6692.804305125,6695.3830145,2,NaN,6695.41031,6695.433677833,6696.210350417,NaN,NaN
129,14,1,typicality,0,kitchen,sun_ahdycvpopffkzzsu.tif,200,1.5,0,0.733333333333333,6696.215166208,6698.843499375,7,NaN,6698.868163875,6698.889647583,6699.61631825,NaN,NaN
129,15,1,typicality,0,kitchen,sun_acgtpgfybqjmzeyw.tif,185,1.5,0,1.9,6699.621326042,6702.430463167,7,NaN,6702.4591625,6702.482674458,6704.37604025,NaN,NaN
129,16,1,typicality,0,kitchen,sun_aqeaevwwwjoqhzvl.tif,211,1.5,0,0.75,6704.395281,6707.623426417,2,NaN,6707.652282833,6707.674102875,6708.417439917,NaN,NaN
129,17,1,typicality,0,kitchen,sun_aenotlpyftoioydp.tif,192,1.5,0,0.916666666666667,6708.422261208,6711.142406,5,NaN,6711.169449917,6711.192411958,6712.10241675,NaN,NaN
129,18,1,typicality,0,kitchen,sun_ajkqhtgcbgpcwrwn.tif,207,1.5,0,0.733333333333333,6712.107055458,6714.839096167,6,NaN,6714.868530042,6714.891482958,6715.618154917,NaN,NaN
129,19,1,typicality,0,kitchen,sun_acxkpeoqbwcxfvip.tif,187,1.5,0,1.81666666666667,6715.623390625,6718.267104667,1,NaN,6718.28798875,6718.311262083,6720.121297583,NaN,NaN
129,20,1,typicality,0,kitchen,labelme_rykdqxenmhulbdn.tif,173,1.5,0,1.16666666666667,6720.137622083,6723.562074542,4,NaN,6723.570087875,6723.588625833,6724.7486575,NaN,NaN
129,21,1,typicality,0,kitchen,sun_agorklincwxrdtga.tif,197,1.5,0,1.81666666666667,6724.759659542,6727.826575833,2,NaN,6727.832327167,6727.850571083,6729.660590333,NaN,NaN
129,22,1,typicality,0,kitchen,sun_aexklacwqwezaorf.tif,194,1.5,0,1.35,6729.672116,6732.30952075,2,NaN,6732.337961333,6732.361356792,6733.704712875,NaN,NaN
129,23,1,typicality,0,kitchen,sun_ahywdevtimnqcsln.tif,204,1.5,0,1.25,6733.718892458,6737.193891417,5,NaN,6737.199605292,6737.217969792,6738.461339,NaN,NaN
129,24,1,typicality,0,kitchen,sun_aamedkxepzlwuxes.tif,175,1.5,0,1.05,6738.478648833,6741.121648792,4,NaN,6741.12725325,6741.145605917,6742.188993958,NaN,NaN
129,25,1,typicality,0,kitchen,sun_ajcbwwvdlsvjyzje.tif,206,1.5,0,0.916666666666667,6742.196351708,6744.881909375,3,NaN,6744.887615458,6744.905989792,6745.815994542,NaN,NaN
129,1,2,typicality,0,kitchen,sun_awcpdzzznmweyyhv.tif,216,1.5,0,1.56666666666667,6750.02166825,6753.10771475,3,NaN,6753.120773792,6753.140778417,6754.700795125,NaN,NaN
129,2,2,typicality,0,kitchen,sun_aegoxogugdkwpmpj.tif,190,1.5,0,0.883333333333333,6754.71138,6757.738023208,3,NaN,6757.743340208,6757.76166375,6758.638334708,NaN,NaN
129,3,2,typicality,0,kitchen,sun_aixorpehvfykdynp.tif,205,1.5,0,0.75,6758.642619375,6761.882523417,4,NaN,6761.887690458,6761.905989375,6762.649326625,NaN,NaN
129,4,2,typicality,0,kitchen,sun_aehawpgmrlhlvcow.tif,191,1.5,0,1.23333333333333,6762.653604625,6765.169579125,1,NaN,6765.197533625,6765.220681375,6766.447386083,NaN,NaN
129,5,2,typicality,0,kitchen,sun_acwjdupvyjsugpay.tif,186,1.5,0,0.85,6766.463410958,6769.209878583,5,NaN,6769.21557625,6769.23369925,6770.077037292,NaN,NaN
129,6,2,typicality,0,kitchen,labelme_brsyyvweiuaazfr.tif,171,1.5,0,0.916666666666667,6770.081469583,6773.122976542,4,NaN,6773.131106542,6773.150060958,6774.060065542,NaN,NaN
129,7,2,typicality,0,kitchen,sun_akchetnepxlcxhsu.tif,208,1.5,0,1.75,6774.064718208,6776.805507042,4,NaN,6776.835301625,6776.858275292,6778.601665208,NaN,NaN
129,8,2,typicality,0,kitchen,sun_ahljzhgcdpomplvg.tif,201,1.5,0,1.43333333333333,6778.618554292,6781.405557625,3,NaN,6781.434868,6781.457969625,6782.88468175,NaN,NaN
129,9,2,typicality,0,kitchen,sun_abpwyqmlzafvklqo.tif,182,1.5,0,0.783333333333333,6782.903483583,6785.70577325,5,NaN,6785.711586,6785.729873917,6786.506544292,NaN,NaN
129,10,2,typicality,0,kitchen,sun_axyyrmzcupyhlivc.tif,217,1.5,0,1.76666666666667,6786.510862542,6790.201699375,4,NaN,6790.2074145,6790.22578225,6791.985823375,NaN,NaN
129,11,2,typicality,0,kitchen,sun_auticobqsbwgoppi.tif,214,1.5,0,1.78333333333333,6792.003384375,6794.9871805,6,NaN,6795.015283542,6795.038150792,6796.814854458,NaN,NaN
129,12,2,typicality,0,kitchen,sun_aymvwlarqodbwuoc.tif,218,1.5,0,1.85,6796.825576208,6800.127227167,3,NaN,6800.155041333,6800.17788675,6802.021271417,NaN,NaN
129,13,2,typicality,0,kitchen,sun_ahspylgoovwmwvgk.tif,203,1.5,0,1.18333333333333,6802.038178833,6805.339404958,3,NaN,6805.367775667,6805.390850708,6806.567568458,NaN,NaN
129,14,2,typicality,0,kitchen,sun_aggjlwcdjsjcaemh.tif,196,1.5,0,1.01666666666667,6806.57822125,6809.402407042,5,NaN,6809.407731542,6809.426249542,6810.436266542,NaN,NaN
129,15,2,typicality,0,kitchen,sun_aunzlwrbjumxhwdj.tif,213,1.5,0,1.65,6810.449279667,6813.22574175,5,NaN,6813.231213833,6813.250036958,6814.893410208,NaN,NaN
129,16,2,typicality,0,kitchen,sun_abrcnpqqhmjwekyf.tif,183,1.5,0,1.83333333333333,6814.910823,6817.501098833,4,NaN,6817.527141333,6817.551212375,6819.377913958,NaN,NaN
129,17,2,typicality,0,kitchen,sun_agzzivivdpnawacl.tif,199,1.5,0,1.58333333333333,6819.388833167,6822.086017625,4,NaN,6822.108854667,6822.132053417,6823.70876575,NaN,NaN
129,18,2,typicality,0,kitchen,sun_abftihopvusyfakt.tif,181,1.5,0,1.85,6823.719777833,6826.67468775,3,NaN,6826.702572,6826.725851792,6828.569237583,NaN,NaN
129,19,2,typicality,0,kitchen,sun_afuyedyxivkhecmu.tif,195,1.5,0,0.766666666666667,6828.58670675,6831.642940667,3,NaN,6831.663772917,6831.685447375,6832.445452,NaN,NaN
129,20,2,typicality,0,kitchen,sun_aadbddgrdsjugojn.tif,174,1.5,0,0.716666666666667,6832.449991708,6835.585870458,4,NaN,6835.591536875,6835.609967958,6836.319971958,NaN,NaN
129,21,2,typicality,0,kitchen,sun_azmutvzbxypaceni.tif,220,1.5,0,1.38333333333333,6836.331489583,6839.099115792,4,NaN,6839.126627958,6839.15096475,6840.527679667,NaN,NaN
129,22,2,typicality,0,kitchen,sun_abdxkyyxwfskuaqb.tif,180,1.5,0,0.866666666666667,6840.543613208,6843.970160042,2,NaN,6843.975429833,6843.993758667,6844.853764583,NaN,NaN
129,23,2,typicality,0,kitchen,sun_akcjzhbbjlbogpdi.tif,209,1.5,0,1.4,6844.864816167,6848.514206417,5,NaN,6848.519422792,6848.537687625,6849.931061583,NaN,NaN
129,24,2,typicality,0,kitchen,sun_admlmbcdswaszruo.tif,189,1.5,0,1,6849.946967,6852.873924125,3,NaN,6852.879216708,6852.897621833,6853.890959875,NaN,NaN
129,25,2,typicality,0,kitchen,sun_abdenxonkemggwsq.tif,179,1.5,0,1.28333333333333,6853.895267292,6857.297314583,2,NaN,6857.30307375,6857.321435292,6858.598144708,NaN,NaN
