sub_num,trial,block,task,is_practice,category,image,texture,duration,blank,mask_dur,jitter,stim_time,time_of_resp,trial_response,blank_time,mask_time,fix_time,jit_onset,trial_end,trial_accuracy,RT
110,1,13,categorization,0,bathroom,SHINEd_sun_agyqfjcfkdcydepw.tif,24,0.05,0.05,0.0833333333333333,0.7,954705.8610169,NaN,NaN,954705.9132062,954705.9635663,954706.0467041,NaN,NaN,NaN,NaN
110,2,13,categorization,0,bathroom,SHINEd_sun_aqrpegblszgcoujh.tif,48,0.05,0.05,0.0833333333333333,1.31666666666667,NaN,NaN,NaN,NaN,NaN,NaN,NaN,NaN,NaN,NaN
110,3,13,categorization,0,kitchen,SHINEd_sun_azmutvzbxypaceni.tif,110,0.05,0.05,0.0833333333333333,0.966666666666667,NaN,NaN,NaN,NaN,NaN,NaN,NaN,NaN,NaN,NaN
110,4,13,categorization,0,bathroom,SHINEd_sun_auzqhkafidnkrwmo.tif,54,0.05,0.05,0.0833333333333333,1.36666666666667,NaN,NaN,NaN,NaN,NaN,NaN,NaN,NaN,NaN,NaN
110,5,13,categorization,0,kitchen,SHINEd_sun_admlmbcdswaszruo.tif,80,0.05,0.05,0.0833333333333333,1.1,NaN,NaN,NaN,NaN,NaN,NaN,NaN,NaN,NaN,NaN
110,6,13,categorization,0,bathroom,SHINEd_sun_apmqjbnwghzuhhzh.tif,46,0.05,0.05,0.0833333333333333,1.41666666666667,NaN,NaN,NaN,NaN,NaN,NaN,NaN,NaN,NaN,NaN
110,7,13,categorization,0,bathroom,SHINEd_sun_aunuadmjocsddsrl.tif,52,0.05,0.05,0.0833333333333333,0.7,NaN,NaN,NaN,NaN,NaN,NaN,NaN,NaN,NaN,NaN
110,8,13,categorization,0,kitchen,SHINEd_sun_aehawpgmrlhlvcow.tif,82,0.05,0.05,0.0833333333333333,1.48333333333333,NaN,NaN,NaN,NaN,NaN,NaN,NaN,NaN,NaN,NaN
110,9,13,categorization,0,kitchen,SHINEd_sun_abdxkyyxwfskuaqb.tif,70,0.05,0.05,0.0833333333333333,0.9,NaN,NaN,NaN,NaN,NaN,NaN,NaN,NaN,NaN,NaN
110,10,13,categorization,0,kitchen,SHINEd_sun_agorklincwxrdtga.tif,89,0.05,0.05,0.0833333333333333,1,NaN,NaN,NaN,NaN,NaN,NaN,NaN,NaN,NaN,NaN
110,11,13,categorization,0,bathroom,SHINEd_sun_alkosphxlxwjwgjd.tif,33,0.05,0.05,0.0833333333333333,1.4,NaN,NaN,NaN,NaN,NaN,NaN,NaN,NaN,NaN,NaN
110,12,13,categorization,0,kitchen,SHINEd_sun_avszsnwsbuqfgzbn.tif,104,0.05,0.05,0.0833333333333333,1.01666666666667,NaN,NaN,NaN,NaN,NaN,NaN,NaN,NaN,NaN,NaN
110,13,13,categorization,0,bathroom,SHINEd_sun_aljolscmmzydegqp.tif,32,0.05,0.05,0.0833333333333333,0.783333333333333,NaN,NaN,NaN,NaN,NaN,NaN,NaN,NaN,NaN,NaN
110,14,13,categorization,0,kitchen,SHINEd_sun_aenotlpyftoioydp.tif,84,0.05,0.05,0.0833333333333333,1.01666666666667,NaN,NaN,NaN,NaN,NaN,NaN,NaN,NaN,NaN,NaN
110,15,13,categorization,0,bathroom,SHINEd_labelme_sfxiulhjbhlyiyt.tif,11,0.05,0.05,0.0833333333333333,0.85,NaN,NaN,NaN,NaN,NaN,NaN,NaN,NaN,NaN,NaN
110,16,13,categorization,0,kitchen,SHINEd_sun_agzzivivdpnawacl.tif,91,0.05,0.05,0.0833333333333333,1.8,NaN,NaN,NaN,NaN,NaN,NaN,NaN,NaN,NaN,NaN
110,17,13,categorization,0,kitchen,SHINEd_sun_abftihopvusyfakt.tif,71,0.05,0.05,0.0833333333333333,1.16666666666667,NaN,NaN,NaN,NaN,NaN,NaN,NaN,NaN,NaN,NaN
110,18,13,categorization,0,kitchen,SHINEd_labelme_kxvouciolcpqplr.tif,62,0.05,0.05,0.0833333333333333,1.56666666666667,NaN,NaN,NaN,NaN,NaN,NaN,NaN,NaN,NaN,NaN
110,19,13,categorization,0,bathroom,SHINEd_sun_azqyogdvyhahyram.tif,60,0.05,0.05,0.0833333333333333,1.96666666666667,NaN,NaN,NaN,NaN,NaN,NaN,NaN,NaN,NaN,NaN
110,20,13,categorization,0,bathroom,SHINEd_sun_agrwbmhcpmfuwmsg.tif,23,0.05,0.05,0.0833333333333333,1.1,NaN,NaN,NaN,NaN,NaN,NaN,NaN,NaN,NaN,NaN
110,21,13,categorization,0,kitchen,SHINEd_sun_aapllqyqlykszopd.tif,66,0.05,0.05,0.0833333333333333,0.833333333333333,NaN,NaN,NaN,NaN,NaN,NaN,NaN,NaN,NaN,NaN
110,22,13,categorization,0,bathroom,SHINEd_sun_ambriybtogmepttm.tif,35,0.05,0.05,0.0833333333333333,0.783333333333333,NaN,NaN,NaN,NaN,NaN,NaN,NaN,NaN,NaN,NaN
110,23,13,categorization,0,bathroom,SHINEd_sun_afcoljnjfoxjtgja.tif,20,0.05,0.05,0.0833333333333333,1.31666666666667,NaN,NaN,NaN,NaN,NaN,NaN,NaN,NaN,NaN,NaN
110,24,13,categorization,0,bathroom,SHINEd_sun_avhrdrntsqrjzccq.tif,55,0.05,0.05,0.0833333333333333,0.983333333333333,NaN,NaN,NaN,NaN,NaN,NaN,NaN,NaN,NaN,NaN
110,25,13,categorization,0,bathroom,SHINEd_sun_akiytfaagpdsphgz.tif,30,0.05,0.05,0.0833333333333333,1.13333333333333,NaN,NaN,NaN,NaN,NaN,NaN,NaN,NaN,NaN,NaN
110,26,13,categorization,0,kitchen,SHINEd_sun_acfmftudsenhrfhy.tif,74,0.05,0.05,0.0833333333333333,0.75,NaN,NaN,NaN,NaN,NaN,NaN,NaN,NaN,NaN,NaN
110,27,13,categorization,0,kitchen,SHINEd_sun_aamedkxepzlwuxes.tif,65,0.05,0.05,0.0833333333333333,1.66666666666667,NaN,NaN,NaN,NaN,NaN,NaN,NaN,NaN,NaN,NaN
110,28,13,categorization,0,kitchen,SHINEd_sun_aunzlwrbjumxhwdj.tif,102,0.05,0.05,0.0833333333333333,1.83333333333333,NaN,NaN,NaN,NaN,NaN,NaN,NaN,NaN,NaN,NaN
110,29,13,categorization,0,kitchen,SHINEd_sun_abrcnpqqhmjwekyf.tif,73,0.05,0.05,0.0833333333333333,0.983333333333333,NaN,NaN,NaN,NaN,NaN,NaN,NaN,NaN,NaN,NaN
110,30,13,categorization,0,kitchen,SHINEd_sun_auticobqsbwgoppi.tif,103,0.05,0.05,0.0833333333333333,1.78333333333333,NaN,NaN,NaN,NaN,NaN,NaN,NaN,NaN,NaN,NaN
110,31,13,categorization,0,bathroom,SHINEd_sun_acduarbnmmoglmiv.tif,17,0.05,0.05,0.0833333333333333,1.38333333333333,NaN,NaN,NaN,NaN,NaN,NaN,NaN,NaN,NaN,NaN
110,32,13,categorization,0,bathroom,SHINEd_sun_ammzpemadwrjdfzl.tif,36,0.05,0.05,0.0833333333333333,0.75,NaN,NaN,NaN,NaN,NaN,NaN,NaN,NaN,NaN,NaN
110,33,13,categorization,0,kitchen,SHINEd_sun_acgtpgfybqjmzeyw.tif,75,0.05,0.05,0.0833333333333333,1.21666666666667,NaN,NaN,NaN,NaN,NaN,NaN,NaN,NaN,NaN,NaN
110,34,13,categorization,0,bathroom,SHINEd_sun_axxbkopsgyouuebh.tif,58,0.05,0.05,0.0833333333333333,1.33333333333333,NaN,NaN,NaN,NaN,NaN,NaN,NaN,NaN,NaN,NaN
110,35,13,categorization,0,bathroom,SHINEd_sun_atstyziqcmkahyxk.tif,51,0.05,0.05,0.0833333333333333,0.75,NaN,NaN,NaN,NaN,NaN,NaN,NaN,NaN,NaN,NaN
110,36,13,categorization,0,bathroom,SHINEd_sun_acgyywnybuveqsro.tif,18,0.05,0.05,0.0833333333333333,1.01666666666667,NaN,NaN,NaN,NaN,NaN,NaN,NaN,NaN,NaN,NaN
110,37,13,categorization,0,bathroom,SHINEd_sun_ajlawzvmubibwbpy.tif,29,0.05,0.05,0.0833333333333333,0.733333333333333,NaN,NaN,NaN,NaN,NaN,NaN,NaN,NaN,NaN,NaN
110,38,13,categorization,0,bathroom,SHINEd_sun_axyrejkiiaqiurjk.tif,59,0.05,0.05,0.0833333333333333,1.08333333333333,NaN,NaN,NaN,NaN,NaN,NaN,NaN,NaN,NaN,NaN
110,39,13,categorization,0,bathroom,SHINEd_sun_ausgutylgojavyoq.tif,53,0.05,0.05,0.0833333333333333,0.8,NaN,NaN,NaN,NaN,NaN,NaN,NaN,NaN,NaN,NaN
110,40,13,categorization,0,kitchen,SHINEd_sun_aeqdocilnnpuvuhx.tif,85,0.05,0.05,0.0833333333333333,1.3,NaN,NaN,NaN,NaN,NaN,NaN,NaN,NaN,NaN,NaN
110,41,13,categorization,0,bathroom,SHINEd_sun_ahqjwnzgolcaoidx.tif,28,0.05,0.05,0.0833333333333333,0.983333333333333,NaN,NaN,NaN,NaN,NaN,NaN,NaN,NaN,NaN,NaN
110,42,13,categorization,0,bathroom,SHINEd_sun_ahcvzmoyaycdoftf.tif,26,0.05,0.05,0.0833333333333333,1.2,NaN,NaN,NaN,NaN,NaN,NaN,NaN,NaN,NaN,NaN
110,43,13,categorization,0,kitchen,SHINEd_sun_adcrxklhlbwrbkgm.tif,78,0.05,0.05,0.0833333333333333,0.8,NaN,NaN,NaN,NaN,NaN,NaN,NaN,NaN,NaN,NaN
110,44,13,categorization,0,kitchen,SHINEd_sun_abdenxonkemggwsq.tif,69,0.05,0.05,0.0833333333333333,1.16666666666667,NaN,NaN,NaN,NaN,NaN,NaN,NaN,NaN,NaN,NaN
110,45,13,categorization,0,kitchen,SHINEd_sun_aexklacwqwezaorf.tif,86,0.05,0.05,0.0833333333333333,1.26666666666667,NaN,NaN,NaN,NaN,NaN,NaN,NaN,NaN,NaN,NaN
110,46,13,categorization,0,kitchen,SHINEd_sun_ajkqhtgcbgpcwrwn.tif,97,0.05,0.05,0.0833333333333333,0.916666666666667,NaN,NaN,NaN,NaN,NaN,NaN,NaN,NaN,NaN,NaN
110,47,13,categorization,0,kitchen,SHINEd_sun_acwjdupvyjsugpay.tif,76,0.05,0.05,0.0833333333333333,0.766666666666667,NaN,NaN,NaN,NaN,NaN,NaN,NaN,NaN,NaN,NaN
110,48,13,categorization,0,bathroom,SHINEd_sun_asfwthctfqerjvxr.tif,49,0.05,0.05,0.0833333333333333,0.7,NaN,NaN,NaN,NaN,NaN,NaN,NaN,NaN,NaN,NaN
110,49,13,categorization,0,kitchen,SHINEd_sun_ahpczsiumwwocjkv.tif,94,0.05,0.05,0.0833333333333333,1,NaN,NaN,NaN,NaN,NaN,NaN,NaN,NaN,NaN,NaN
110,50,13,categorization,0,bathroom,SHINEd_sun_amzlamotzwfkwjco.tif,37,0.05,0.05,0.0833333333333333,0.783333333333333,NaN,NaN,NaN,NaN,NaN,NaN,NaN,NaN,NaN,NaN
