sub_num,trial,block,task,is_practice,category,image,texture,duration,mask_dur,jitter,stim_time,time_of_resp,trial_response,mask_time,fix_time,jit_onset,trial_end,trial_accuracy,RT
129,6,0,complexity,1,kitchen,kitchen_practice5.tif,230,1.5,0,1.46666666666667,7828.446014042,7831.342219583,4,NaN,7831.37164275,7831.395025,7832.85507775,NaN,NaN
129,7,0,complexity,1,kitchen,kitchen_practice2.tif,227,1.5,0,1.31666666666667,7832.871255917,7836.254959583,7,NaN,7836.260165542,7836.278382792,7837.588415667,NaN,NaN
129,8,0,complexity,1,kitchen,kitchen_practice4.tif,229,1.5,0,1.76666666666667,7837.606047375,7840.566237708,6,NaN,7840.572016083,7840.590368042,7842.350406333,NaN,NaN
129,9,0,complexity,1,kitchen,kitchen_practice1.tif,226,1.5,0,0.816666666666667,7842.367788625,7844.92591075,6,NaN,7844.948958625,7844.970463042,7845.780507292,NaN,NaN
129,10,0,complexity,1,kitchen,kitchen_practice3.tif,228,1.5,0,0.9,7845.795359,7848.39968325,4,NaN,7848.424518083,7848.447853542,7849.341190708,NaN,NaN
129,1,1,complexity,0,kitchen,sun_avszsnwsbuqfgzbn.tif,215,1.5,0,1.15,7853.67243475,7856.466160833,7,NaN,7856.495417417,7856.518794833,7857.662176917,NaN,NaN
129,2,1,complexity,0,kitchen,sun_ahpczsiumwwocjkv.tif,202,1.5,0,1.33333333333333,7857.67078925,7860.27068025,3,NaN,7860.276161667,7860.29440375,7861.621114583,NaN,NaN
129,3,1,complexity,0,kitchen,sun_aeqdocilnnpuvuhx.tif,193,1.5,0,1.75,7861.634223792,7864.398481833,3,NaN,7864.403948417,7864.422362958,7866.165729542,NaN,NaN
129,4,1,complexity,0,kitchen,sun_ahywdevtimnqcsln.tif,204,1.5,0,1.2,7866.180515,7868.793765542,4,NaN,7868.821149875,7868.844413542,7870.037791958,NaN,NaN
129,5,1,complexity,0,kitchen,sun_aqeaevwwwjoqhzvl.tif,211,1.5,0,1.46666666666667,7870.053703458,7872.654390792,5,NaN,7872.660003958,7872.678187833,7874.138241542,NaN,NaN
129,6,1,complexity,0,kitchen,sun_aehawpgmrlhlvcow.tif,191,1.5,0,1.01666666666667,7874.154886958,7876.902539583,3,NaN,7876.90815775,7876.926402542,7877.93643675,NaN,NaN
129,7,1,complexity,0,kitchen,sun_agorklincwxrdtga.tif,197,1.5,0,1.18333333333333,7877.945005333,7880.814397875,3,NaN,7880.82006775,7880.838435958,7882.015158875,NaN,NaN
129,8,1,complexity,0,kitchen,sun_agzzivivdpnawacl.tif,199,1.5,0,1.03333333333333,7882.025185375,7885.590697875,4,NaN,7885.596145375,7885.614406583,7886.641113125,NaN,NaN
129,9,1,complexity,0,kitchen,sun_acfmftudsenhrfhy.tif,184,1.5,0,1.25,7886.64947725,7891.094273833,5,NaN,7891.100083333,7891.118373667,7892.361761,NaN,NaN
129,10,1,complexity,0,kitchen,sun_aarfiyshqohlwkmo.tif,177,1.5,0,0.733333333333333,7892.378336667,7895.294277167,5,NaN,7895.299780375,7895.318064292,7896.044736375,NaN,NaN
129,11,1,complexity,0,kitchen,labelme_rykdqxenmhulbdn.tif,173,1.5,0,1.01666666666667,7896.049023625,7898.471181042,4,NaN,7898.494951792,7898.517777333,7899.527780792,NaN,NaN
129,12,1,complexity,0,kitchen,sun_aexklacwqwezaorf.tif,194,1.5,0,1.53333333333333,7899.532536042,7902.3862805,4,NaN,7902.413108708,7902.4369645,7903.963675083,NaN,NaN
129,13,1,complexity,0,kitchen,sun_aunzlwrbjumxhwdj.tif,213,1.5,0,1.33333333333333,7903.980944583,7906.984165917,3,NaN,7906.989431583,7907.007941,7908.334646667,NaN,NaN
129,14,1,complexity,0,kitchen,sun_ahljzhgcdpomplvg.tif,201,1.5,0,1.53333333333333,7908.35201125,7911.159,3,NaN,7911.164314792,7911.182617792,7912.709326958,NaN,NaN
129,15,1,complexity,0,kitchen,labelme_kxvouciolcpqplr.tif,172,1.5,0,1.01666666666667,7912.721730958,7915.390700417,2,NaN,7915.395975375,7915.414412667,7916.424444833,NaN,NaN
129,16,1,complexity,0,kitchen,sun_awcpdzzznmweyyhv.tif,216,1.5,0,1.23333333333333,7916.43289225,7920.174998667,3,NaN,7920.1803655,7920.198822375,7921.425536125,NaN,NaN
129,17,1,complexity,0,kitchen,sun_aaxxjlsuzvqlgylf.tif,178,1.5,0,1.18333333333333,7921.438943125,7924.398293375,3,NaN,7924.40378475,7924.42209275,7925.598806542,NaN,NaN
129,18,1,complexity,0,kitchen,sun_aamedkxepzlwuxes.tif,175,1.5,0,0.783333333333333,7925.608211792,7928.382881542,5,NaN,7928.388144042,7928.406452292,7929.18312275,NaN,NaN
129,19,1,complexity,0,kitchen,sun_ajcbwwvdlsvjyzje.tif,206,1.5,0,1.73333333333333,7929.187417625,7932.002423833,5,NaN,7932.030394417,7932.053434708,7933.780138833,NaN,NaN
129,20,1,complexity,0,kitchen,sun_azmutvzbxypaceni.tif,220,1.5,0,1.21666666666667,7933.799665042,7936.339144333,1,NaN,7936.366851417,7936.390393083,7937.600443542,NaN,NaN
129,21,1,complexity,0,kitchen,sun_acxkpeoqbwcxfvip.tif,187,1.5,0,1.26666666666667,7937.618896542,7940.31854975,5,NaN,7940.323817667,7940.342055583,7941.602104458,NaN,NaN
129,22,1,complexity,0,kitchen,sun_aggjlwcdjsjcaemh.tif,196,1.5,0,0.783333333333333,7941.615560417,7944.534003125,3,NaN,7944.540020375,7944.558319625,7945.334991667,NaN,NaN
129,23,1,complexity,0,kitchen,sun_aadbddgrdsjugojn.tif,174,1.5,0,1.48333333333333,7945.341623708,7948.021337333,5,NaN,7948.049605833,7948.072843875,7949.549557917,NaN,NaN
129,24,1,complexity,0,kitchen,sun_acwjdupvyjsugpay.tif,186,1.5,0,1.36666666666667,7949.567514917,7952.853970292,3,NaN,7952.859868125,7952.878134042,7954.238180667,NaN,NaN
129,25,1,complexity,0,kitchen,sun_auticobqsbwgoppi.tif,214,1.5,0,0.983333333333333,7954.255376917,7956.774348292,3,NaN,7956.779652833,7956.797996875,7957.774668167,NaN,NaN
129,1,2,complexity,0,kitchen,sun_aixorpehvfykdynp.tif,205,1.5,0,1.26666666666667,7962.264929917,7965.726677042,4,NaN,7965.731992042,7965.750371292,7967.010412958,NaN,NaN
129,2,2,complexity,0,kitchen,sun_aypmqwcualkenuoe.tif,219,1.5,0,1.11666666666667,7967.022947083,7969.533859417,7,NaN,7969.539515708,7969.557803542,7970.667839625,NaN,NaN
129,3,2,complexity,0,kitchen,sun_aymvwlarqodbwuoc.tif,218,1.5,0,1.43333333333333,7970.677603625,7975.062246833,3,NaN,7975.067795667,7975.0861075,7976.512825583,NaN,NaN
129,4,2,complexity,0,kitchen,sun_amjjdeyrggfqgmom.tif,210,1.5,0,0.8,7976.531523667,7980.1428035,2,NaN,7980.148172708,7980.166453542,7980.959791042,NaN,NaN
129,5,2,complexity,0,kitchen,sun_akcjzhbbjlbogpdi.tif,209,1.5,0,0.733333333333333,7980.964370708,7983.631406667,3,NaN,7983.657482125,7983.679052833,7984.405724083,NaN,NaN
129,6,2,complexity,0,kitchen,sun_abdxkyyxwfskuaqb.tif,180,1.5,0,1.03333333333333,7984.41004875,7987.385966667,5,NaN,7987.414122875,7987.437210875,7988.463912167,NaN,NaN
129,7,2,complexity,0,kitchen,sun_acgtpgfybqjmzeyw.tif,185,1.5,0,1.56666666666667,7988.471484042,7991.06981275,4,NaN,7991.075438792,7991.093638667,7992.653705458,NaN,NaN
129,8,2,complexity,0,kitchen,sun_ahdycvpopffkzzsu.tif,200,1.5,0,0.866666666666667,7992.670156375,7995.478423708,5,NaN,7995.483641708,7995.501860375,7996.3618645,NaN,NaN
129,9,2,complexity,0,kitchen,sun_ajkqhtgcbgpcwrwn.tif,207,1.5,0,0.716666666666667,7996.366080583,7999.373244042,5,NaN,7999.401384667,7999.424939125,8000.134944583,NaN,NaN
129,10,2,complexity,0,kitchen,sun_agubuxuukhzyzpdp.tif,198,1.5,0,1.33333333333333,8000.139628917,8003.006732708,5,NaN,8003.034531417,8003.057651208,8004.384359833,NaN,NaN
129,11,2,complexity,0,kitchen,sun_aegoxogugdkwpmpj.tif,190,1.5,0,1.01666666666667,8004.401149333,8007.317737167,6,NaN,8007.323471875,8007.341975208,8008.35200975,NaN,NaN
129,12,2,complexity,0,kitchen,sun_aenotlpyftoioydp.tif,192,1.5,0,0.733333333333333,8008.360017375,8011.149903,3,NaN,8011.155586042,8011.173842083,8011.900514458,NaN,NaN
129,13,2,complexity,0,kitchen,sun_auaiucuqpdausiva.tif,212,1.5,0,1.38333333333333,8011.904812625,8014.714073958,7,NaN,8014.740270792,8014.763310083,8016.140016917,NaN,NaN
129,14,2,complexity,0,kitchen,sun_aapllqyqlykszopd.tif,176,1.5,0,1.06666666666667,8016.158134625,8019.262046333,4,NaN,8019.267565792,8019.285962667,8020.346004833,NaN,NaN
129,15,2,complexity,0,kitchen,sun_adgqasybjyktddhj.tif,188,1.5,0,0.85,8020.3546155,8023.166473458,3,NaN,8023.171689083,8023.190475292,8024.033814542,NaN,NaN
129,16,2,complexity,0,kitchen,labelme_brsyyvweiuaazfr.tif,171,1.5,0,0.9,8024.038183125,8026.691943208,5,NaN,8026.720064708,8026.742908042,8027.636245667,NaN,NaN
129,17,2,complexity,0,kitchen,sun_admlmbcdswaszruo.tif,189,1.5,0,1.55,8027.640904917,8030.627792208,4,NaN,8030.6528865,8030.67341625,8032.21679925,NaN,NaN
129,18,2,complexity,0,kitchen,sun_abrcnpqqhmjwekyf.tif,183,1.5,0,0.7,8032.234900625,8034.990310917,4,NaN,8034.995638833,8035.0139975,8035.707337042,NaN,NaN
129,19,2,complexity,0,kitchen,sun_abdenxonkemggwsq.tif,179,1.5,0,0.716666666666667,8035.711612458,8039.230582458,5,NaN,8039.235819792,8039.254159458,8039.964163542,NaN,NaN
129,20,2,complexity,0,kitchen,sun_akchetnepxlcxhsu.tif,208,1.5,0,0.85,8039.968269208,8043.261772458,3,NaN,8043.268206542,8043.286697833,8044.130036667,NaN,NaN
129,21,2,complexity,0,kitchen,sun_axyyrmzcupyhlivc.tif,217,1.5,0,1.35,8044.134293958,8047.262650708,3,NaN,8047.271731667,8047.290824167,8048.634188292,NaN,NaN
129,22,2,complexity,0,kitchen,sun_abftihopvusyfakt.tif,181,1.5,0,1.96666666666667,8048.651722667,8051.269904333,3,NaN,8051.275371375,8051.293591917,8053.2536295,NaN,NaN
129,23,2,complexity,0,kitchen,sun_afuyedyxivkhecmu.tif,195,1.5,0,0.933333333333333,8053.268931417,8055.993564667,6,NaN,8056.021314458,8056.045268542,8056.971940375,NaN,NaN
129,24,2,complexity,0,kitchen,sun_ahspylgoovwmwvgk.tif,203,1.5,0,1.33333333333333,8056.97673825,8060.325553542,3,NaN,8060.330936583,8060.349230583,8061.675934625,NaN,NaN
129,25,2,complexity,0,kitchen,sun_abpwyqmlzafvklqo.tif,182,1.5,0,1.16666666666667,8061.685568958,8064.454064958,6,NaN,8064.459523875,8064.477661625,8065.637712917,NaN,NaN
