sub_num,trial,block,task,is_practice,category,image,texture,duration,mask_dur,jitter,stim_time,time_of_resp,trial_response,mask_time,fix_time,jit_onset,trial_end,trial_accuracy,RT
109,6,0,usability,1,kitchen,kitchen_practice2.tif,227,1.5,0,1.13333333333333,9104.671109542,9108.76831225,4,NaN,9108.774218417,9108.792582833,9109.919339458,NaN,NaN
109,7,0,usability,1,kitchen,kitchen_practice3.tif,228,1.5,0,0.933333333333333,9109.93009725,9113.120105542,4,NaN,9113.125999583,9113.144326958,9114.071000333,NaN,NaN
109,8,0,usability,1,kitchen,kitchen_practice1.tif,226,1.5,0,1.48333333333333,9114.075523792,9117.487434292,4,NaN,9117.493824542,9117.512149875,9118.988916667,NaN,NaN
109,9,0,usability,1,kitchen,kitchen_practice4.tif,229,1.5,0,1.33333333333333,9119.008839333,9121.903361458,5,NaN,9121.909664958,9121.928048625,9123.254813208,NaN,NaN
109,10,0,usability,1,kitchen,kitchen_practice5.tif,230,1.5,0,1.3,9123.274090708,9126.575773042,5,NaN,9126.581726708,9126.600103333,9127.89349675,NaN,NaN
109,1,1,usability,0,kitchen,sun_amjjdeyrggfqgmom.tif,210,1.5,0,1.91666666666667,9134.635841458,9137.887379708,2,NaN,9137.893978667,9137.9123985,9139.822469167,NaN,NaN
109,2,1,usability,0,kitchen,sun_aymvwlarqodbwuoc.tif,218,1.5,0,0.85,9139.842327875,9142.769314667,3,NaN,9142.802617917,9142.826816833,9143.670158875,NaN,NaN
109,3,1,usability,0,kitchen,labelme_rykdqxenmhulbdn.tif,173,1.5,0,0.7,9143.675123375,9146.872235208,3,NaN,9146.87815225,9146.896351583,9147.589691375,NaN,NaN
109,4,1,usability,0,kitchen,sun_adgqasybjyktddhj.tif,188,1.5,0,1.6,9147.594227875,9150.609429042,4,NaN,9150.632453917,9150.653527833,9152.246959708,NaN,NaN
109,5,1,usability,0,kitchen,sun_aehawpgmrlhlvcow.tif,191,1.5,0,1.13333333333333,9152.265199708,9156.232343333,2,NaN,9156.238256875,9156.256604583,9157.383331083,NaN,NaN
109,6,1,usability,0,kitchen,sun_aadbddgrdsjugojn.tif,174,1.5,0,0.716666666666667,9157.392509458,9160.631992458,3,NaN,9160.637930875,9160.656339958,9161.366350833,NaN,NaN
109,7,1,usability,0,kitchen,sun_acwjdupvyjsugpay.tif,186,1.5,0,1.6,9161.370683292,9165.184313042,1,NaN,9165.190489542,9165.208809292,9166.802226292,NaN,NaN
109,8,1,usability,0,kitchen,sun_aixorpehvfykdynp.tif,205,1.5,0,1.68333333333333,9166.821745125,9170.9282955,5,NaN,9170.934244083,9170.952523917,9172.629270292,NaN,NaN
109,9,1,usability,0,kitchen,sun_auaiucuqpdausiva.tif,212,1.5,0,1.41666666666667,9172.64199425,9176.135306708,5,NaN,9176.148856833,9176.168041042,9177.578143917,NaN,NaN
109,10,1,usability,0,kitchen,sun_aamedkxepzlwuxes.tif,175,1.5,0,1,9177.600711042,9180.383552125,4,NaN,9180.38951525,9180.407905333,9181.401248333,NaN,NaN
109,11,1,usability,0,kitchen,sun_ahpczsiumwwocjkv.tif,202,1.5,0,1.33333333333333,9181.405955042,9184.856136167,4,NaN,9184.862047708,9184.880432625,9186.207174333,NaN,NaN
109,12,1,usability,0,kitchen,sun_aenotlpyftoioydp.tif,192,1.5,0,1.15,9186.225746875,9189.240126958,5,NaN,9189.2460155,9189.264309708,9190.407696167,NaN,NaN
109,13,1,usability,0,kitchen,sun_aexklacwqwezaorf.tif,194,1.5,0,1.86666666666667,9190.416483042,9194.623364667,5,NaN,9194.629580792,9194.647918,9196.507975375,NaN,NaN
109,14,1,usability,0,kitchen,sun_aapllqyqlykszopd.tif,176,1.5,0,1.18333333333333,9196.525592625,9199.802844583,6,NaN,9199.835745333,9199.859372917,9201.0360655,NaN,NaN
109,15,1,usability,0,kitchen,sun_ahywdevtimnqcsln.tif,204,1.5,0,1.71666666666667,9201.045100958,9203.79950025,6,NaN,9203.805351333,9203.82372525,9205.533819875,NaN,NaN
109,16,1,usability,0,kitchen,sun_aggjlwcdjsjcaemh.tif,196,1.5,0,1.1,9205.553980583,9209.663641708,4,NaN,9209.669699667,9209.688064083,9210.781499708,NaN,NaN
109,17,1,usability,0,kitchen,sun_acxkpeoqbwcxfvip.tif,187,1.5,0,0.983333333333333,9210.7934615,9214.280113,2,NaN,9214.2858715,9214.304192042,9215.280868667,NaN,NaN
109,18,1,usability,0,kitchen,sun_aeqdocilnnpuvuhx.tif,193,1.5,0,0.916666666666667,9215.285696208,9218.759586125,1,NaN,9218.765540917,9218.784101958,9219.694110958,NaN,NaN
109,19,1,usability,0,kitchen,sun_akcjzhbbjlbogpdi.tif,209,1.5,0,0.716666666666667,9219.698622417,9223.040102958,1,NaN,9223.045845125,9223.064198167,9223.77420875,NaN,NaN
109,20,1,usability,0,kitchen,sun_ajcbwwvdlsvjyzje.tif,206,1.5,0,0.883333333333333,9223.778464708,9227.670972833,6,NaN,9227.678077833,9227.696301083,9228.572975625,NaN,NaN
109,21,1,usability,0,kitchen,sun_azmutvzbxypaceni.tif,220,1.5,0,1.93333333333333,9228.577385417,9231.697524625,5,NaN,9231.709676083,9231.728887167,9233.655645208,NaN,NaN
109,22,1,usability,0,kitchen,sun_awcpdzzznmweyyhv.tif,216,1.5,0,0.9,9233.675778125,9238.903247792,5,NaN,9238.909465375,9238.927735917,9239.821075708,NaN,NaN
109,23,1,usability,0,kitchen,sun_aunzlwrbjumxhwdj.tif,213,1.5,0,1.13333333333333,9239.825344333,9243.407142792,3,NaN,9243.413440917,9243.431939958,9244.558692167,NaN,NaN
109,24,1,usability,0,kitchen,labelme_kxvouciolcpqplr.tif,172,1.5,0,0.766666666666667,9244.569041667,9247.847198833,4,NaN,9247.853057625,9247.871485542,9248.631494875,NaN,NaN
109,25,1,usability,0,kitchen,sun_agubuxuukhzyzpdp.tif,198,1.5,0,0.966666666666667,9248.648866042,9251.672462417,4,NaN,9251.683338375,9251.702519875,9252.662528083,NaN,NaN
109,1,2,usability,0,kitchen,sun_ajkqhtgcbgpcwrwn.tif,207,1.5,0,1.56666666666667,9257.635647042,9260.967077,6,NaN,9260.973191792,9260.991718375,9262.551822833,NaN,NaN
109,2,2,usability,0,kitchen,sun_avszsnwsbuqfgzbn.tif,215,1.5,0,1.2,9262.569287875,9265.758912917,7,NaN,9265.788019125,9265.811476458,9267.004864667,NaN,NaN
109,3,2,usability,0,kitchen,sun_admlmbcdswaszruo.tif,189,1.5,0,1.73333333333333,9267.019474583,9270.463101875,7,NaN,9270.469239625,9270.487465167,9272.21420575,NaN,NaN
109,4,2,usability,0,kitchen,sun_abdxkyyxwfskuaqb.tif,180,1.5,0,1.61666666666667,9272.233575458,9275.304737083,5,NaN,9275.3359375,9275.359685708,9276.969740875,NaN,NaN
109,5,2,usability,0,kitchen,sun_aypmqwcualkenuoe.tif,219,1.5,0,1.38333333333333,9276.986944417,9279.783106417,2,NaN,9279.789303458,9279.807796167,9281.184520417,NaN,NaN
109,6,2,usability,0,kitchen,sun_agzzivivdpnawacl.tif,199,1.5,0,1.73333333333333,9281.202105875,9286.055753083,3,NaN,9286.062263833,9286.081037083,9287.807761208,NaN,NaN
109,7,2,usability,0,kitchen,sun_aaxxjlsuzvqlgylf.tif,178,1.5,0,1.96666666666667,9287.826569792,9291.132990875,2,NaN,9291.163735208,9291.187306542,9293.147386083,NaN,NaN
109,8,2,usability,0,kitchen,sun_abftihopvusyfakt.tif,181,1.5,0,0.883333333333333,9293.164809375,9296.186623167,5,NaN,9296.218503917,9296.239638583,9297.116314583,NaN,NaN
109,9,2,usability,0,kitchen,sun_agorklincwxrdtga.tif,197,1.5,0,1.06666666666667,9297.121029292,9303.102775583,5,NaN,9303.109167375,9303.12746575,9304.187548167,NaN,NaN
109,10,2,usability,0,kitchen,labelme_brsyyvweiuaazfr.tif,171,1.5,0,1.06666666666667,9304.196967167,9308.751015125,7,NaN,9308.757067917,9308.775417125,9309.835486833,NaN,NaN
109,11,2,usability,0,kitchen,sun_afuyedyxivkhecmu.tif,195,1.5,0,0.966666666666667,9309.844050167,9313.111620292,2,NaN,9313.117363042,9313.135642833,9314.095650875,NaN,NaN
109,12,2,usability,0,kitchen,sun_aegoxogugdkwpmpj.tif,190,1.5,0,1.78333333333333,9314.1001775,9317.438890542,6,NaN,9317.445648583,9317.46421475,9319.240971042,NaN,NaN
109,13,2,usability,0,kitchen,sun_axyyrmzcupyhlivc.tif,217,1.5,0,1.68333333333333,9319.259477458,9322.695808083,3,NaN,9322.702502375,9322.720999208,9324.397752958,NaN,NaN
109,14,2,usability,0,kitchen,sun_abpwyqmlzafvklqo.tif,182,1.5,0,0.983333333333333,9324.420049542,9328.09474825,4,NaN,9328.101603875,9328.119919333,9329.096596208,NaN,NaN
109,15,2,usability,0,kitchen,sun_abdenxonkemggwsq.tif,179,1.5,0,1.33333333333333,9329.101281167,9335.526948625,3,NaN,9335.532982917,9335.551315,9336.878072375,NaN,NaN
109,16,2,usability,0,kitchen,sun_acgtpgfybqjmzeyw.tif,185,1.5,0,1.56666666666667,9336.895352583,9341.255414458,4,NaN,9341.261464167,9341.279877833,9342.839931167,NaN,NaN
109,17,2,usability,0,kitchen,sun_ahspylgoovwmwvgk.tif,203,1.5,0,1.66666666666667,9342.859377042,9347.014769292,6,NaN,9347.021000333,9347.039336042,9348.699417708,NaN,NaN
109,18,2,usability,0,kitchen,sun_auticobqsbwgoppi.tif,214,1.5,0,1.86666666666667,9348.709587292,9352.855201625,4,NaN,9352.861247917,9352.879707708,9354.739808583,NaN,NaN
109,19,2,usability,0,kitchen,sun_aqeaevwwwjoqhzvl.tif,211,1.5,0,1.95,9354.758988375,9358.159477375,1,NaN,9358.166513333,9358.184889875,9360.128279625,NaN,NaN
109,20,2,usability,0,kitchen,sun_acfmftudsenhrfhy.tif,184,1.5,0,0.966666666666667,9360.148996958,9363.287860667,2,NaN,9363.319248875,9363.343002917,9364.303009125,NaN,NaN
109,21,2,usability,0,kitchen,sun_abrcnpqqhmjwekyf.tif,183,1.5,0,1.43333333333333,9364.307977625,9367.807585417,7,NaN,9367.814643583,9367.833571083,9369.260329875,NaN,NaN
109,22,2,usability,0,kitchen,sun_ahdycvpopffkzzsu.tif,200,1.5,0,0.85,9369.278265167,9373.110590708,2,NaN,9373.117006667,9373.135379625,9373.978721,NaN,NaN
109,23,2,usability,0,kitchen,sun_ahljzhgcdpomplvg.tif,201,1.5,0,1.53333333333333,9373.983597583,9378.270762333,3,NaN,9378.27683175,9378.295232583,9379.821958417,NaN,NaN
109,24,2,usability,0,kitchen,sun_akchetnepxlcxhsu.tif,208,1.5,0,1.18333333333333,9379.840419792,9384.855155042,3,NaN,9384.861069292,9384.879583625,9386.056296667,NaN,NaN
109,25,2,usability,0,kitchen,sun_aarfiyshqohlwkmo.tif,177,1.5,0,1.86666666666667,9386.068283083,9391.031414583,3,NaN,9391.037433042,9391.055874667,9392.91596975,NaN,NaN
