sub_num,trial,block,task,is_practice,category,image,texture,duration,mask_dur,jitter,stim_time,time_of_resp,trial_response,mask_time,fix_time,jit_onset,trial_end,trial_accuracy,RT
121,1,13,categorization,0,bathroom,SHINEd_sun_agyqfjcfkdcydepw.tif,25,0.0666666666666667,0.0666666666666667,0.933333333333333,24244.991645,24245.690996958,9,24245.054087708,24245.114287708,24245.699511792,24246.626182125,0,0.699351958002808
121,2,13,categorization,0,kitchen,SHINEd_sun_aegoxogugdkwpmpj.tif,80,0.0666666666666667,0.0666666666666667,1.36666666666667,24246.631412167,24247.315039792,9,24246.693149958,24246.754236292,24247.322631667,24248.682685375,1,0.683627624999644
121,3,13,categorization,0,kitchen,SHINEd_sun_aixorpehvfykdynp.tif,95,0.0666666666666667,0.0666666666666667,1.88333333333333,24248.700262958,24249.404572208,9,24248.767008875,24248.832767583,24249.422767125,24251.299482167,1,0.704309250002552
121,4,13,categorization,0,bathroom,SHINEd_sun_asfwthctfqerjvxr.tif,49,0.0666666666666667,0.0666666666666667,1.35,24251.318624792,24252.027799083,9,24251.3879305,24251.452045167,24252.041021,24253.384403167,0,0.709174291001545
121,5,13,categorization,0,kitchen,SHINEd_sun_agorklincwxrdtga.tif,87,0.0666666666666667,0.0666666666666667,1.3,24253.404070292,24254.016565958,9,24253.47102425,24253.537341417,24254.045045417,24255.338417625,1,0.61249566600236
121,6,13,categorization,0,bathroom,SHINEd_sun_atstyziqcmkahyxk.tif,51,0.0666666666666667,0.0666666666666667,1.93333333333333,24255.358782042,24256.083052875,13,24255.426422,24255.491798625,24256.099275875,24258.025975542,1,0.724270833001356
121,7,13,categorization,0,bathroom,SHINEd_sun_ahcvzmoyaycdoftf.tif,27,0.0666666666666667,0.0666666666666667,0.95,24258.045897,24258.61296175,13,24258.113114208,24258.179270083,24258.636661792,24259.579998708,1,0.567064750001009
121,8,13,categorization,0,bathroom,SHINEd_sun_afcoljnjfoxjtgja.tif,20,0.0666666666666667,0.0666666666666667,1.56666666666667,24259.585232167,24260.202554375,13,24259.64714625,24259.708130417,24260.210139125,24261.770192167,1,0.617322207999678
121,9,13,categorization,0,kitchen,SHINEd_sun_abdenxonkemggwsq.tif,69,0.0666666666666667,0.0666666666666667,1.3,24261.78760075,24262.475469167,9,24261.853919,24261.920188542,24262.493013583,24263.786381583,1,0.687868416996935
121,10,13,categorization,0,kitchen,SHINEd_sun_aapllqyqlykszopd.tif,66,0.0666666666666667,0.0666666666666667,1.3,24263.803198583,24264.516530708,9,24263.871108333,24263.936286292,24264.542812792,24265.836192917,1,0.713332125000306
121,11,13,categorization,0,kitchen,SHINEd_sun_ahywdevtimnqcsln.tif,94,0.0666666666666667,0.0666666666666667,1.03333333333333,24265.855096708,24266.426223958,9,24265.921481708,24265.98778225,24266.44394825,24267.4706545,1,0.571127249997517
121,12,13,categorization,0,kitchen,SHINEd_sun_ahpczsiumwwocjkv.tif,92,0.0666666666666667,0.0666666666666667,1.93333333333333,24267.487567333,24268.115356542,9,24267.554126875,24267.611829292,24268.130285042,24270.057003083,1,0.627789209000184
121,13,13,categorization,0,kitchen,SHINEd_sun_aymvwlarqodbwuoc.tif,108,0.0666666666666667,0.0666666666666667,0.966666666666667,24270.075689,24270.831226417,9,24270.142411333,24270.207047,24270.846361083,24271.806366417,1,0.755537417000596
121,14,13,categorization,0,bathroom,SHINEd_sun_ajlawzvmubibwbpy.tif,30,0.0666666666666667,0.0666666666666667,0.916666666666667,24271.811324792,24272.45840175,9,24271.873058583,24271.934105625,24272.469201917,24273.379206667,0,0.647076957997342
121,15,13,categorization,0,bathroom,SHINEd_sun_aoybiabnpadelefl.tif,41,0.0666666666666667,0.0666666666666667,1.3,24273.384102625,24273.906801667,9,24273.445792917,24273.506757833,24273.92553075,24275.218918208,0,0.522699041997839
121,16,13,categorization,0,bathroom,SHINEd_sun_azqyogdvyhahyram.tif,60,0.0666666666666667,0.0666666666666667,0.75,24275.237490208,24275.55008875,9,24275.303817125,24275.370524833,24275.576881458,24276.3202535,0,0.312598541997431
121,17,13,categorization,0,bathroom,SHINEd_sun_avhrdrntsqrjzccq.tif,55,0.0666666666666667,0.0666666666666667,1.03333333333333,24276.330366792,24277.036080542,13,24276.397122708,24276.462866042,24277.048894458,24278.075605625,1,0.705713749997813
121,18,13,categorization,0,bathroom,SHINEd_sun_aqrpegblszgcoujh.tif,48,0.0666666666666667,0.0666666666666667,1.28333333333333,24278.085084458,24278.615617167,9,24278.149882708,24278.216371042,24278.6395545,24279.916274542,0,0.53053270899909
121,19,13,categorization,0,kitchen,SHINEd_sun_aunzlwrbjumxhwdj.tif,103,0.0666666666666667,0.0666666666666667,1.25,24279.933704167,24280.2670955,13,24280.000303333,24280.066344167,24280.284862125,24281.528233542,0,0.333391332998872
121,20,13,categorization,0,kitchen,SHINEd_sun_aadbddgrdsjugojn.tif,64,0.0666666666666667,0.0666666666666667,1.75,24281.546084208,24282.103966917,9,24281.612957583,24281.678723208,24282.117632042,24283.861004167,1,0.557882708999387
121,21,13,categorization,0,bathroom,SHINEd_sun_ausgutylgojavyoq.tif,53,0.0666666666666667,0.0666666666666667,1.76666666666667,24283.879089,24284.426598042,9,24283.945998042,24284.011739292,24284.451740208,24286.211763125,0,0.547509042000456
121,22,13,categorization,0,kitchen,SHINEd_labelme_rykdqxenmhulbdn.tif,63,0.0666666666666667,0.0666666666666667,0.733333333333333,24286.223629583,24286.634158625,9,24286.288200917,24286.356272583,24286.663071875,24287.3897765,1,0.410529041997506
121,23,13,categorization,0,bathroom,SHINEd_sun_aavhrsfjbserjtht.tif,13,0.0666666666666667,0.0666666666666667,1.43333333333333,24287.404443833,24288.963062958,13,24287.470352375,24287.537013917,24288.972763958,24290.399463833,1,1.5586191250004
121,24,13,categorization,0,bathroom,SHINEd_sun_awnqiikzaispgmwo.tif,56,0.0666666666666667,0.0666666666666667,1.81666666666667,24290.416492875,24291.183655917,9,24290.483311917,24290.549268417,24291.20583325,24293.015886333,0,0.767163042000902
121,25,13,categorization,0,bathroom,SHINEd_sun_axyrejkiiaqiurjk.tif,59,0.0666666666666667,0.0666666666666667,0.95,24293.03263175,24293.693573542,9,24293.099915792,24293.164960667,24293.721675917,24294.665012875,0,0.660941792000813
121,26,13,categorization,0,kitchen,SHINEd_sun_agubuxuukhzyzpdp.tif,88,0.0666666666666667,0.0666666666666667,0.783333333333333,24294.669962958,24295.539049,9,24294.731740292,24294.792749125,24295.544634833,24296.321305,1,0.869086041999253
121,27,13,categorization,0,kitchen,SHINEd_sun_ajkqhtgcbgpcwrwn.tif,97,0.0666666666666667,0.0666666666666667,1.66666666666667,24296.326146375,24297.115178792,9,24296.387739708,24296.448972917,24297.134658917,24298.794708042,1,0.789032417000271
121,28,13,categorization,0,bathroom,SHINEd_sun_aunuadmjocsddsrl.tif,52,0.0666666666666667,0.0666666666666667,1.18333333333333,24298.813174417,24299.235305458,9,24298.880515333,24298.946267417,24299.252553,24300.429268833,0,0.422131041003013
121,29,13,categorization,0,kitchen,SHINEd_sun_auticobqsbwgoppi.tif,104,0.0666666666666667,0.0666666666666667,1.58333333333333,24300.441200833,24301.106258292,13,24300.508323208,24300.574055167,24301.13132575,24302.708032083,0,0.66505745899849
121,30,13,categorization,0,bathroom,SHINEd_sun_abjtwfukuwddzted.tif,15,0.0666666666666667,0.0666666666666667,1.1,24302.7261615,24303.350171958,13,24302.792970458,24302.859001917,24303.365001542,24304.458372792,1,0.624010458002886
121,31,13,categorization,0,kitchen,SHINEd_sun_aarfiyshqohlwkmo.tif,67,0.0666666666666667,0.0666666666666667,1.78333333333333,24304.468883625,24305.191188542,9,24304.537212292,24304.601837083,24305.208145833,24306.984854042,1,0.722304917002475
121,32,13,categorization,0,kitchen,SHINEd_sun_akchetnepxlcxhsu.tif,98,0.0666666666666667,0.0666666666666667,1.78333333333333,24307.003287833,24307.516805167,9,24307.069938083,24307.135847667,24307.543229333,24309.31993775,1,0.513517334002245
121,33,13,categorization,0,bathroom,SHINEd_sun_akiytfaagpdsphgz.tif,31,0.0666666666666667,0.0666666666666667,1.08333333333333,24309.343189542,24310.124614458,13,24309.41026725,24309.476207458,24310.149482625,24311.226199417,1,0.781424916000105
121,34,13,categorization,0,bathroom,SHINEd_sun_apynckhmoftszqoq.tif,47,0.0666666666666667,0.0666666666666667,1.66666666666667,24311.241684333,24312.027449083,13,24311.306333417,24311.373553875,24312.047116542,24313.707152792,1,0.785764750002272
121,35,13,categorization,0,bathroom,SHINEd_sun_alotolagknyrgtsk.tif,35,0.0666666666666667,0.0666666666666667,1.58333333333333,24313.724589,24314.542849667,9,24313.791465625,24313.857188083,24314.564307667,24316.14103325,0,0.818260666997958
121,36,13,categorization,0,kitchen,SHINEd_sun_agzzivivdpnawacl.tif,89,0.0666666666666667,0.0666666666666667,1.26666666666667,24316.160258583,24316.670194292,13,24316.225391667,24316.288241,24316.695539042,24317.955580625,0,0.509935709000274
121,37,13,categorization,0,kitchen,SHINEd_sun_akcjzhbbjlbogpdi.tif,99,0.0666666666666667,0.0666666666666667,0.966666666666667,24317.97530525,24318.532416708,9,24318.042484083,24318.108806833,24318.548461583,24319.508511958,1,0.5571114580016
121,38,13,categorization,0,bathroom,SHINEd_sun_axxbkopsgyouuebh.tif,58,0.0666666666666667,0.0666666666666667,0.9,24319.525953292,24320.138445458,13,24319.593092875,24319.659313583,24320.145169042,24321.038507542,1,0.612492166001175
121,39,13,categorization,0,kitchen,SHINEd_sun_aexklacwqwezaorf.tif,84,0.0666666666666667,0.0666666666666667,1.46666666666667,24321.04349,24321.858993958,13,24321.105154958,24321.166168542,24321.868194333,24323.328233667,0,0.8155039580015
121,40,13,categorization,0,kitchen,SHINEd_sun_ahspylgoovwmwvgk.tif,93,0.0666666666666667,0.0666666666666667,1.5,24323.346179417,24324.058046708,9,24323.412748042,24323.479176667,24324.086154292,24325.579536083,1,0.71186729100009
121,41,13,categorization,0,bathroom,SHINEd_sun_amzlamotzwfkwjco.tif,37,0.0666666666666667,0.0666666666666667,0.716666666666667,24325.597202167,24326.260326583,9,24325.664162625,24325.731261833,24326.268564917,24326.978604,0,0.663124416001665
121,42,13,categorization,0,bathroom,SHINEd_sun_alkosphxlxwjwgjd.tif,34,0.0666666666666667,0.0666666666666667,1.5,24326.994215583,24327.714530042,9,24327.060857083,24327.126566042,24327.728642875,24329.222023375,0,0.720314459002111
121,43,13,categorization,0,bathroom,SHINEd_sun_aapitsgbtktqubfy.tif,12,0.0666666666666667,0.0666666666666667,0.866666666666667,24329.24221675,24329.754835375,9,24329.309123625,24329.374629958,24329.781298958,24330.641342375,0,0.51261862499814
121,44,13,categorization,0,bathroom,SHINEd_sun_agrwbmhcpmfuwmsg.tif,24,0.0666666666666667,0.0666666666666667,0.933333333333333,24330.657958583,24331.434878,9,24330.724663583,24330.790710958,24331.44303475,24332.369705917,0,0.77691941699959
121,45,13,categorization,0,kitchen,SHINEd_sun_azmutvzbxypaceni.tif,110,0.0666666666666667,0.0666666666666667,1.55,24332.374601583,24333.138757083,9,24332.436370333,24332.497328917,24333.149702667,24334.693083208,1,0.764155500000925
121,46,13,categorization,0,kitchen,SHINEd_labelme_brsyyvweiuaazfr.tif,61,0.0666666666666667,0.0666666666666667,1.3,24334.709844125,24335.372257875,13,24334.776462125,24334.842801125,24335.3990695,24336.692447792,0,0.662413750000269
121,47,13,categorization,0,bathroom,SHINEd_sun_apmqjbnwghzuhhzh.tif,46,0.0666666666666667,0.0666666666666667,1.78333333333333,24336.710746958,24337.453646958,13,24336.77737425,24336.843212875,24337.483233417,24339.259949042,1,0.7429000000011
121,48,13,categorization,0,bathroom,SHINEd_sun_ahaulkltgpkeeemi.tif,26,0.0666666666666667,0.0666666666666667,1.8,24339.278173125,24339.619345792,13,24339.344960458,24339.410635667,24339.632529917,24341.425916083,1,0.341172667001956
121,49,13,categorization,0,kitchen,SHINEd_sun_aamedkxepzlwuxes.tif,65,0.0666666666666667,0.0666666666666667,0.816666666666667,24341.443787083,24341.736393375,13,24341.510348458,24341.576406792,24341.765048292,24342.575096917,0,0.292606291997799
121,50,13,categorization,0,kitchen,SHINEd_sun_ahdycvpopffkzzsu.tif,90,0.0666666666666667,0.0666666666666667,0.966666666666667,24342.590097417,24343.186357208,9,24342.656539708,24342.715402542,24343.200507792,24344.160511667,1,0.596259791000193
