sub_num,trial,block,task,is_practice,category,image,texture,duration,mask_dur,jitter,stim_time,time_of_resp,trial_response,mask_time,fix_time,jit_onset,trial_end,trial_accuracy,RT
121,1,9,categorization,0,bathroom,SHINEd_sun_acegryoqftbzowsg.tif,17,0.0666666666666667,0.0666666666666667,1.08333333333333,23816.328215542,23817.3563385,9,23816.390837375,23816.451029333,23817.369842125,23818.446544833,0,1.02812295800322
121,2,9,categorization,0,kitchen,SHINEd_sun_aapllqyqlykszopd.tif,66,0.0666666666666667,0.0666666666666667,0.8,23818.455839167,23820.556406042,13,23818.520191917,23818.588700375,23820.574700083,23821.368036458,0,2.10056687500037
121,3,9,categorization,0,kitchen,SHINEd_sun_afuyedyxivkhecmu.tif,85,0.0666666666666667,0.0666666666666667,0.833333333333333,23821.375298708,23822.796374417,9,23821.437066083,23821.498200875,23822.800683875,23823.627356125,1,1.42107570900043
121,4,9,categorization,0,kitchen,SHINEd_sun_ajcbwwvdlsvjyzje.tif,96,0.0666666666666667,0.0666666666666667,1.45,23823.632244208,23824.660946333,9,23823.694031167,23823.755079875,23824.673816417,23826.117202042,1,1.02870212499693
121,5,9,categorization,0,kitchen,SHINEd_sun_ajkqhtgcbgpcwrwn.tif,97,0.0666666666666667,0.0666666666666667,1.3,23826.134212792,23828.460074667,13,23826.198968833,23826.262656167,23828.464785792,23829.758175125,0,2.32586187500056
121,6,9,categorization,0,bathroom,SHINEd_sun_axxbkopsgyouuebh.tif,58,0.0666666666666667,0.0666666666666667,1.21666666666667,23829.776790667,23830.4199075,13,23829.843291583,23829.910002667,23830.449775333,23831.659830708,1,0.643116832998203
121,7,9,categorization,0,bathroom,SHINEd_sun_agrwbmhcpmfuwmsg.tif,24,0.0666666666666667,0.0666666666666667,0.733333333333333,23831.677703458,23832.36116425,9,23831.744453917,23831.810664042,23832.383876875,23833.110591792,0,0.683460791999096
121,8,9,categorization,0,kitchen,SHINEd_sun_ahywdevtimnqcsln.tif,94,0.0666666666666667,0.0666666666666667,1.03333333333333,23833.126658625,23834.052732375,9,23833.193507,23833.259479333,23834.062050292,23835.0887685,1,0.926073750000796
121,9,9,categorization,0,kitchen,SHINEd_sun_azmutvzbxypaceni.tif,110,0.0666666666666667,0.0666666666666667,1.1,23835.100637,23835.640658667,13,23835.164961333,23835.232404417,23835.65474975,23836.748131375,0,0.540021666998655
121,10,9,categorization,0,kitchen,SHINEd_sun_acxkpeoqbwcxfvip.tif,77,0.0666666666666667,0.0666666666666667,1.25,23836.764751208,23837.628794917,9,23836.832275875,23836.897699125,23837.633534167,23838.876911208,1,0.864043708999816
121,11,9,categorization,0,bathroom,SHINEd_sun_apmqjbnwghzuhhzh.tif,46,0.0666666666666667,0.0666666666666667,1.4,23838.895184583,23839.727077708,13,23838.961824,23839.028013,23839.751576625,23841.144959917,1,0.831893124999624
121,12,9,categorization,0,kitchen,SHINEd_sun_awcpdzzznmweyyhv.tif,106,0.0666666666666667,0.0666666666666667,1.43333333333333,23841.163037625,23842.102814458,9,23841.22942375,23841.295675208,23842.117853208,23843.54457425,1,0.939776833001815
121,13,9,categorization,0,bathroom,SHINEd_sun_ajlawzvmubibwbpy.tif,30,0.0666666666666667,0.0666666666666667,1.26666666666667,23843.56342975,23844.501656625,13,23843.629811333,23843.696149667,23844.519005125,23845.779049792,1,0.938226875001419
121,14,9,categorization,0,kitchen,SHINEd_sun_ahpczsiumwwocjkv.tif,92,0.0666666666666667,0.0666666666666667,0.916666666666667,23845.797355917,23846.558161083,9,23845.864114417,23845.930400792,23846.587104833,23847.497152833,1,0.760805166002683
121,15,9,categorization,0,bathroom,SHINEd_sun_auzqhkafidnkrwmo.tif,54,0.0666666666666667,0.0666666666666667,1.05,23847.513242458,23848.564409792,13,23847.576140042,23847.63621325,23848.571548042,23849.614925167,1,1.05116733400064
121,16,9,categorization,0,bathroom,SHINEd_sun_aclfzgynxzxlbepz.tif,19,0.0666666666666667,0.0666666666666667,1.53333333333333,23849.625716042,23850.484492958,13,23849.690217875,23849.758168833,23850.51477525,23852.041497292,1,0.858776916000352
121,17,9,categorization,0,kitchen,SHINEd_sun_abrcnpqqhmjwekyf.tif,73,0.0666666666666667,0.0666666666666667,1.11666666666667,23852.062328,23852.997810042,9,23852.128643875,23852.194086125,23853.016955583,23854.127,1,0.93548204200124
121,18,9,categorization,0,bathroom,SHINEd_sun_alotolagknyrgtsk.tif,35,0.0666666666666667,0.0666666666666667,1.05,23854.1371125,23854.886266042,13,23854.201926458,23854.265105417,23854.904605708,23855.947994958,1,0.749153542001295
121,19,9,categorization,0,kitchen,SHINEd_sun_aamedkxepzlwuxes.tif,65,0.0666666666666667,0.0666666666666667,1.66666666666667,23855.964329167,23856.580295083,9,23856.031434958,23856.097201917,23856.599115292,23858.259133917,1,0.615965916000278
121,20,9,categorization,0,kitchen,SHINEd_sun_agorklincwxrdtga.tif,87,0.0666666666666667,0.0666666666666667,1.98333333333333,23858.268776708,23858.600467458,13,23858.334346958,23858.401701208,23858.624790667,23860.601510292,0,0.331690750001144
121,21,9,categorization,0,bathroom,SHINEd_sun_axyrejkiiaqiurjk.tif,59,0.0666666666666667,0.0666666666666667,1.06666666666667,23860.618146458,23861.341288708,9,23860.686058042,23860.751484333,23861.357682667,23862.417737833,0,0.723142250000819
121,22,9,categorization,0,bathroom,SHINEd_sun_anhioqovhscjqqwb.tif,38,0.0666666666666667,0.0666666666666667,1.31666666666667,23862.430594167,23863.159829292,13,23862.495568458,23862.559775,23863.183283125,23864.493331958,1,0.729235124999832
121,23,9,categorization,0,kitchen,SHINEd_labelme_kxvouciolcpqplr.tif,62,0.0666666666666667,0.0666666666666667,1.78333333333333,23864.503780292,23865.305370083,9,23864.570960208,23864.636582375,23865.326448583,23867.103168167,1,0.801589790997241
121,24,9,categorization,0,bathroom,SHINEd_sun_asfwthctfqerjvxr.tif,49,0.0666666666666667,0.0666666666666667,0.816666666666667,23867.120930833,23867.913143833,9,23867.187865833,23867.253603917,23867.943555917,23868.753564958,0,0.792213000000629
121,25,9,categorization,0,bathroom,SHINEd_sun_alkosphxlxwjwgjd.tif,34,0.0666666666666667,0.0666666666666667,0.933333333333333,23868.759903958,23869.516146333,9,23868.821696958,23868.882717667,23869.535200083,23870.461871167,0,0.756242374998692
121,26,9,categorization,0,bathroom,SHINEd_sun_acgyywnybuveqsro.tif,18,0.0666666666666667,0.0666666666666667,1.33333333333333,23870.466783167,23871.220882458,13,23870.528424542,23870.589550833,23871.225263833,23872.551995792,1,0.754099290999875
121,27,9,categorization,0,bathroom,SHINEd_sun_apkxzenqapsujocq.tif,45,0.0666666666666667,0.0666666666666667,0.833333333333333,23872.56822975,23873.242576417,9,23872.634734417,23872.700944,23873.256512875,23874.083236083,0,0.674346667001373
121,28,9,categorization,0,bathroom,SHINEd_sun_akiytfaagpdsphgz.tif,31,0.0666666666666667,0.0666666666666667,0.933333333333333,23874.099245625,23874.884756125,9,23874.166017042,23874.228304583,23874.897014042,23875.823684542,0,0.785510500001692
121,29,9,categorization,0,kitchen,SHINEd_sun_agubuxuukhzyzpdp.tif,88,0.0666666666666667,0.0666666666666667,1.85,23875.828625375,23876.94036875,9,23875.890309792,23875.951365875,23876.9536135,23878.796981625,1,1.11174337500051
121,30,9,categorization,0,bathroom,SHINEd_sun_aggnnqpdorgxpvce.tif,21,0.0666666666666667,0.0666666666666667,0.966666666666667,23878.814387792,23879.605303375,9,23878.880914708,23878.947603875,23879.619293167,23880.579297667,0,0.790915582998423
121,31,9,categorization,0,kitchen,SHINEd_sun_aixorpehvfykdynp.tif,95,0.0666666666666667,0.0666666666666667,0.766666666666667,23880.584314167,23881.212907833,9,23880.646031083,23880.70711525,23881.225625417,23881.985629167,1,0.628593665998778
121,32,9,categorization,0,kitchen,SHINEd_sun_aadbddgrdsjugojn.tif,64,0.0666666666666667,0.0666666666666667,1.15,23881.991598125,23882.795897958,9,23882.053354417,23882.114367625,23882.799676375,23883.943060625,1,0.804299832998367
121,33,9,categorization,0,bathroom,SHINEd_sun_apkruvsevgegsdwp.tif,44,0.0666666666666667,0.0666666666666667,0.75,23883.952208708,23884.917034292,13,23884.018872542,23884.085226542,23884.941898667,23885.685286792,1,0.964825584000209
121,34,9,categorization,0,bathroom,SHINEd_sun_agguqiubmwhqqunb.tif,22,0.0666666666666667,0.0666666666666667,0.9,23885.700632708,23886.516839167,9,23885.767111208,23885.830416625,23886.532327167,23887.425664958,0,0.816206458999659
121,35,9,categorization,0,kitchen,SHINEd_sun_aeqdocilnnpuvuhx.tif,83,0.0666666666666667,0.0666666666666667,1.88333333333333,23887.430643125,23888.491722375,9,23887.492369667,23887.553684208,23888.505558542,23890.382257125,1,1.06107925000106
121,36,9,categorization,0,bathroom,SHINEd_sun_ahijqszoswveeyji.tif,28,0.0666666666666667,0.0666666666666667,1.65,23890.399200333,23893.4600415,9,23890.465978,23890.532401208,23893.468645792,23895.112027375,0,3.06084116700004
121,37,9,categorization,0,bathroom,SHINEd_sun_aoybiabnpadelefl.tif,41,0.0666666666666667,0.0666666666666667,0.816666666666667,23895.1306775,23896.120579125,13,23895.19737925,23895.263368,23896.135859375,23896.945863833,1,0.989901624998311
121,38,9,categorization,0,kitchen,SHINEd_sun_abpwyqmlzafvklqo.tif,72,0.0666666666666667,0.0666666666666667,0.9,23896.950924708,23897.460724167,9,23897.012918417,23897.07370125,23897.475565292,23898.368903458,1,0.509799458999623
121,39,9,categorization,0,kitchen,SHINEd_sun_aymvwlarqodbwuoc.tif,108,0.0666666666666667,0.0666666666666667,0.733333333333333,23898.374866375,23899.244705208,13,23898.436596917,23898.497715,23899.24978875,23899.976460042,0,0.86983883299763
121,40,9,categorization,0,bathroom,SHINEd_sun_apynckhmoftszqoq.tif,47,0.0666666666666667,0.0666666666666667,0.85,23899.981294333,23900.84383525,9,23900.042952667,23900.103986083,23900.856545417,23901.699882625,0,0.862540917001752
121,41,9,categorization,0,kitchen,SHINEd_sun_ahspylgoovwmwvgk.tif,93,0.0666666666666667,0.0666666666666667,1.58333333333333,23901.704820833,23902.612519958,9,23901.766542208,23901.827606542,23902.629827917,23904.206536375,1,0.907699124996725
121,42,9,categorization,0,kitchen,SHINEd_sun_auticobqsbwgoppi.tif,104,0.0666666666666667,0.0666666666666667,1.8,23904.226328792,23904.873189167,13,23904.290560583,23904.35917075,23904.898960667,23906.692333542,0,0.64686037499996
121,43,9,categorization,0,kitchen,SHINEd_sun_abdxkyyxwfskuaqb.tif,70,0.0666666666666667,0.0666666666666667,1.3,23906.710867708,23907.413666583,9,23906.77734425,23906.843755583,23907.433265292,23908.72663775,1,0.702798875001463
121,44,9,categorization,0,bathroom,SHINEd_sun_aspsyogrekjtfozg.tif,50,0.0666666666666667,0.0666666666666667,0.766666666666667,23908.74407,23909.662363708,13,23908.810816042,23908.876871,23909.683305458,23910.443341917,1,0.918293708000419
121,45,9,categorization,0,kitchen,SHINEd_sun_ahdycvpopffkzzsu.tif,90,0.0666666666666667,0.0666666666666667,1.15,23910.459796625,23911.532743583,9,23910.522352375,23910.582449,23911.551518333,23912.694889792,1,1.0729469580001
121,46,9,categorization,0,kitchen,SHINEd_sun_agzzivivdpnawacl.tif,89,0.0666666666666667,0.0666666666666667,1.36666666666667,23912.703790875,23913.666232667,9,23912.77207675,23912.836309625,23913.692730167,23915.052767708,1,0.96244179200221
121,47,9,categorization,0,bathroom,SHINEd_sun_aofnryafpsjimzsb.tif,40,0.0666666666666667,0.0666666666666667,0.783333333333333,23915.070307083,23915.89623025,9,23915.137066417,23915.202904958,23915.9259725,23916.702693958,0,0.825923167001747
121,48,9,categorization,0,bathroom,SHINEd_sun_ambriybtogmepttm.tif,36,0.0666666666666667,0.0666666666666667,1.25,23916.720043,23917.924092667,9,23916.782462333,23916.842917458,23917.929027958,23919.172402417,0,1.20404966699789
121,49,9,categorization,0,bathroom,SHINEd_sun_aavhrsfjbserjtht.tif,13,0.0666666666666667,0.0666666666666667,1.5,23919.189335375,23920.18476325,9,23919.257410083,23919.322801958,23920.213389917,23921.706776458,0,0.995427875001042
121,50,9,categorization,0,kitchen,SHINEd_labelme_brsyyvweiuaazfr.tif,61,0.0666666666666667,0.0666666666666667,1.03333333333333,23921.727403208,23922.396994042,9,23921.794571667,23921.860574708,23922.418146458,23923.444860833,1,0.669590834000701
