sub_num,trial,block,task,is_practice,category,image,texture,duration,mask_dur,jitter,stim_time,time_of_resp,trial_response,mask_time,fix_time,jit_onset,trial_end,trial_accuracy,RT
135,6,0,aesthetic,1,kitchen,kitchen_practice2.tif,227,1.5,0,1.08333333333333,8103.787950291,8108.589690458,2,NaN,8108.595613958,8108.613968083,8109.690723,NaN,NaN
135,7,0,aesthetic,1,kitchen,kitchen_practice1.tif,226,1.5,0,1.06666666666667,8109.698660416,8112.022266958,1,NaN,8112.027674541,8112.045937291,8113.106020958,NaN,NaN
135,8,0,aesthetic,1,kitchen,kitchen_practice4.tif,229,1.5,0,1.11666666666667,8113.114133583,8116.2144355,3,NaN,8116.220680916,8116.23890275,8117.348963791,NaN,NaN
135,9,0,aesthetic,1,kitchen,kitchen_practice3.tif,228,1.5,0,0.95,8117.357131375,8120.605463083,5,NaN,8120.611426625,8120.629778208,8121.573119375,NaN,NaN
135,10,0,aesthetic,1,kitchen,kitchen_practice5.tif,230,1.5,0,0.9,8121.584012166,8124.45915375,4,NaN,8124.487938875,8124.511421625,8125.404763916,NaN,NaN
135,1,1,aesthetic,0,kitchen,sun_ahljzhgcdpomplvg.tif,201,1.5,0,1.48333333333333,8129.805785833,8132.413755333,5,NaN,8132.440766958,8132.463828416,8133.940570458,NaN,NaN
135,2,1,aesthetic,0,kitchen,sun_afuyedyxivkhecmu.tif,195,1.5,0,1.46666666666667,8133.957672791,8136.997921708,1,NaN,8137.003642291,8137.021964458,8138.482020916,NaN,NaN
135,3,1,aesthetic,0,kitchen,sun_adgqasybjyktddhj.tif,188,1.5,0,0.766666666666667,8138.498200166,8141.221460875,2,NaN,8141.227372958,8141.2457455,8142.005757333,NaN,NaN
135,4,1,aesthetic,0,kitchen,sun_ahpczsiumwwocjkv.tif,202,1.5,0,1.16666666666667,8142.010210916,8144.979470666,6,NaN,8145.009237416,8145.032703291,8146.192768416,NaN,NaN
135,5,1,aesthetic,0,kitchen,sun_agorklincwxrdtga.tif,197,1.5,0,1.6,8146.203839416,8150.430173541,3,NaN,8150.435763166,8150.454116291,8152.047514125,NaN,NaN
135,6,1,aesthetic,0,kitchen,sun_auaiucuqpdausiva.tif,212,1.5,0,1.68333333333333,8152.066295208,8155.100847375,5,NaN,8155.130898125,8155.1545355,8156.83129625,NaN,NaN
135,7,1,aesthetic,0,kitchen,sun_aapllqyqlykszopd.tif,176,1.5,0,1.5,8156.851878833,8159.296629166,2,NaN,8159.315478625,8159.337261416,8160.830656583,NaN,NaN
135,8,1,aesthetic,0,kitchen,sun_awcpdzzznmweyyhv.tif,216,1.5,0,0.833333333333333,8160.849530208,8163.941645916,5,NaN,8163.947438416,8163.965732708,8164.792409125,NaN,NaN
135,9,1,aesthetic,0,kitchen,sun_aadbddgrdsjugojn.tif,174,1.5,0,0.9,8164.8005055,8167.523438958,2,NaN,8167.553371583,8167.577142208,8168.470483333,NaN,NaN
135,10,1,aesthetic,0,kitchen,sun_aegoxogugdkwpmpj.tif,190,1.5,0,0.933333333333333,8168.475136166,8171.049789708,2,NaN,8171.078540583,8171.102032958,8172.028709083,NaN,NaN
135,11,1,aesthetic,0,kitchen,sun_abrcnpqqhmjwekyf.tif,183,1.5,0,0.9,8172.033435166,8174.686311041,4,NaN,8174.715223666,8174.738335208,8175.6316785,NaN,NaN
135,12,1,aesthetic,0,kitchen,sun_avszsnwsbuqfgzbn.tif,215,1.5,0,0.85,8175.636357958,8178.477565166,6,NaN,8178.506635666,8178.530334541,8179.37367775,NaN,NaN
135,13,1,aesthetic,0,kitchen,labelme_kxvouciolcpqplr.tif,172,1.5,0,1.83333333333333,8179.378368,8182.709282458,1,NaN,8182.716081916,8182.734476541,8184.561232791,NaN,NaN
135,14,1,aesthetic,0,kitchen,sun_agzzivivdpnawacl.tif,199,1.5,0,0.733333333333333,8184.581024,8187.193201708,1,NaN,8187.222724791,8187.246406708,8187.973087416,NaN,NaN
135,15,1,aesthetic,0,kitchen,sun_aunzlwrbjumxhwdj.tif,213,1.5,0,1.63333333333333,8187.978539166,8190.738069208,1,NaN,8190.766906875,8190.790003541,8192.416726875,NaN,NaN
135,16,1,aesthetic,0,kitchen,sun_aymvwlarqodbwuoc.tif,218,1.5,0,0.766666666666667,8192.435777333,8195.390592083,4,NaN,8195.41268025,8195.435632416,8196.195638416,NaN,NaN
135,17,1,aesthetic,0,kitchen,sun_abpwyqmlzafvklqo.tif,182,1.5,0,1.71666666666667,8196.200473083,8199.038454541,1,NaN,8199.069947083,8199.092692166,8200.802774125,NaN,NaN
135,18,1,aesthetic,0,kitchen,sun_abdxkyyxwfskuaqb.tif,180,1.5,0,1.51666666666667,8200.822830208,8203.58482275,2,NaN,8203.611594291,8203.635285208,8205.145379875,NaN,NaN
135,19,1,aesthetic,0,kitchen,sun_aaxxjlsuzvqlgylf.tif,178,1.5,0,1.25,8205.163331208,8208.293425208,4,NaN,8208.29927075,8208.317580625,8209.560955875,NaN,NaN
135,20,1,aesthetic,0,kitchen,sun_azmutvzbxypaceni.tif,220,1.5,0,1.41666666666667,8209.571462833,8212.557800416,4,NaN,8212.563275041,8212.581705333,8213.991780166,NaN,NaN
135,21,1,aesthetic,0,kitchen,sun_axyyrmzcupyhlivc.tif,217,1.5,0,1.1,8214.008362958,8216.933286541,3,NaN,8216.9391385,8216.957517125,8218.05093425,NaN,NaN
135,22,1,aesthetic,0,kitchen,sun_ajkqhtgcbgpcwrwn.tif,207,1.5,0,0.95,8218.0598635,8220.814099208,4,NaN,8220.819512375,8220.837843333,8221.78118425,NaN,NaN
135,23,1,aesthetic,0,kitchen,sun_aamedkxepzlwuxes.tif,175,1.5,0,1.45,8221.786837083,8224.553695125,2,NaN,8224.580737208,8224.604478291,8226.047882375,NaN,NaN
135,24,1,aesthetic,0,kitchen,sun_akcjzhbbjlbogpdi.tif,209,1.5,0,0.883333333333333,8226.066741958,8228.853158375,2,NaN,8228.859037875,8228.877421125,8229.75409675,NaN,NaN
135,25,1,aesthetic,0,kitchen,sun_ahywdevtimnqcsln.tif,204,1.5,0,1.23333333333333,8229.766902833,8232.131025041,2,NaN,8232.159808958,8232.183589166,8233.410335083,NaN,NaN
135,1,2,aesthetic,0,kitchen,sun_aeqdocilnnpuvuhx.tif,193,1.5,0,1.78333333333333,8237.62549025,8240.610503,6,NaN,8240.639466083,8240.662969541,8242.439717125,NaN,NaN
135,2,2,aesthetic,0,kitchen,sun_aggjlwcdjsjcaemh.tif,196,1.5,0,1.8,8242.457841291,8244.985693916,5,NaN,8245.012859625,8245.036843625,8246.830246208,NaN,NaN
135,3,2,aesthetic,0,kitchen,sun_aixorpehvfykdynp.tif,205,1.5,0,0.8,8246.84989075,8249.073051875,6,NaN,8249.103400666,8249.12615825,8249.919567166,NaN,NaN
135,4,2,aesthetic,0,kitchen,sun_acfmftudsenhrfhy.tif,184,1.5,0,1.01666666666667,8249.936598375,8253.03179775,3,NaN,8253.045301166,8253.064659958,8254.074748875,NaN,NaN
135,5,2,aesthetic,0,kitchen,sun_acxkpeoqbwcxfvip.tif,187,1.5,0,0.85,8254.083479333,8257.629097125,5,NaN,8257.635040833,8257.653340333,8258.496679833,NaN,NaN
135,6,2,aesthetic,0,kitchen,sun_admlmbcdswaszruo.tif,189,1.5,0,1.83333333333333,8258.501931166,8261.237932916,7,NaN,8261.264002291,8261.285503833,8263.112232375,NaN,NaN
135,7,2,aesthetic,0,kitchen,sun_aexklacwqwezaorf.tif,194,1.5,0,1.11666666666667,8263.130617083,8265.953588833,6,NaN,8265.980286375,8266.004369541,8267.114452375,NaN,NaN
135,8,2,aesthetic,0,kitchen,sun_agubuxuukhzyzpdp.tif,198,1.5,0,1.88333333333333,8267.123104333,8272.149086,3,NaN,8272.155912416,8272.174514208,8274.051279291,NaN,NaN
135,9,2,aesthetic,0,kitchen,sun_aypmqwcualkenuoe.tif,219,1.5,0,0.916666666666667,8274.072562291,8277.111084625,3,NaN,8277.137171083,8277.160736208,8278.070744291,NaN,NaN
135,10,2,aesthetic,0,kitchen,labelme_rykdqxenmhulbdn.tif,173,1.5,0,1.05,8278.075584083,8281.709498958,3,NaN,8281.715095875,8281.733920875,8282.777318041,NaN,NaN
135,11,2,aesthetic,0,kitchen,sun_aqeaevwwwjoqhzvl.tif,211,1.5,0,1.35,8282.786464708,8287.901394541,3,NaN,8287.907819375,8287.926416333,8289.269772541,NaN,NaN
135,12,2,aesthetic,0,kitchen,sun_ahspylgoovwmwvgk.tif,203,1.5,0,1.01666666666667,8289.280321291,8292.205821791,6,NaN,8292.211407416,8292.230044125,8293.240134458,NaN,NaN
135,13,2,aesthetic,0,kitchen,sun_aehawpgmrlhlvcow.tif,191,1.5,0,2,8293.248006291,8296.421770041,7,NaN,8296.427339583,8296.445624916,8298.439018458,NaN,NaN
135,14,2,aesthetic,0,kitchen,sun_ahdycvpopffkzzsu.tif,200,1.5,0,0.9,8298.458928958,8302.061045666,1,NaN,8302.06765,8302.08585125,8302.979192,NaN,NaN
135,15,2,aesthetic,0,kitchen,sun_akchetnepxlcxhsu.tif,208,1.5,0,1.15,8302.985163375,8306.877242583,2,NaN,8306.883121458,8306.901567166,8308.044978958,NaN,NaN
135,16,2,aesthetic,0,kitchen,sun_abdenxonkemggwsq.tif,179,1.5,0,1.23333333333333,8308.05482925,8311.269448333,4,NaN,8311.275061875,8311.293376791,8312.520123541,NaN,NaN
135,17,2,aesthetic,0,kitchen,sun_ajcbwwvdlsvjyzje.tif,206,1.5,0,1.03333333333333,8312.538081833,8315.277718166,3,NaN,8315.283268333,8315.301562,8316.328326041,NaN,NaN
135,18,2,aesthetic,0,kitchen,sun_acgtpgfybqjmzeyw.tif,185,1.5,0,0.783333333333333,8316.336587,8319.197502375,2,NaN,8319.202990875,8319.221313458,8319.997991333,NaN,NaN
135,19,2,aesthetic,0,kitchen,sun_acwjdupvyjsugpay.tif,186,1.5,0,0.766666666666667,8320.002475125,8322.786810625,2,NaN,8322.815416833,8322.838527916,8323.598536916,NaN,NaN
135,20,2,aesthetic,0,kitchen,sun_auticobqsbwgoppi.tif,214,1.5,0,1.18333333333333,8323.616362791,8326.258670125,1,NaN,8326.287140208,8326.310678291,8327.487410666,NaN,NaN
135,21,2,aesthetic,0,kitchen,sun_aenotlpyftoioydp.tif,192,1.5,0,0.7,8327.496708583,8330.268650041,1,NaN,8330.274656958,8330.293034916,8330.986376625,NaN,NaN
135,22,2,aesthetic,0,kitchen,labelme_brsyyvweiuaazfr.tif,171,1.5,0,0.7,8330.999637916,8333.498172208,2,NaN,8333.526921,8333.550404583,8334.243745875,NaN,NaN
135,23,2,aesthetic,0,kitchen,sun_abftihopvusyfakt.tif,181,1.5,0,1.55,8334.248576083,8337.016599541,6,NaN,8337.042493,8337.066069125,8338.609472541,NaN,NaN
135,24,2,aesthetic,0,kitchen,sun_aarfiyshqohlwkmo.tif,177,1.5,0,1.16666666666667,8338.627832583,8341.445583041,2,NaN,8341.451064583,8341.469439166,8342.629540958,NaN,NaN
135,25,2,aesthetic,0,kitchen,sun_amjjdeyrggfqgmom.tif,210,1.5,0,1.68333333333333,8342.639075666,8345.404563083,7,NaN,8345.410594791,8345.428949208,8347.105673416,NaN,NaN
