sub_num,trial,block,task,is_practice,category,image,texture,duration,mask_dur,jitter,stim_time,time_of_resp,trial_response,mask_time,fix_time,jit_onset,trial_end,trial_accuracy,RT
125,1,0,usability,1,bathroom,bathroom_practice3.tif,223,1.5,0,0.983333333333333,1471.27671175,1476.300739291,6,NaN,1476.307234125,1476.325927916,1477.302653583,NaN,NaN
125,2,0,usability,1,bathroom,bathroom_practice4.tif,224,1.5,0,1.78333333333333,1477.307801208,1480.997531208,6,NaN,1481.003269916,1481.021680666,1482.798532041,NaN,NaN
125,3,0,usability,1,bathroom,bathroom_practice5.tif,225,1.5,0,1.78333333333333,1482.816412833,1486.325290875,5,NaN,1486.330940583,1486.349411458,1488.126123875,NaN,NaN
125,4,0,usability,1,bathroom,bathroom_practice2.tif,222,1.5,0,1.26666666666667,1488.144406125,1492.117085791,3,NaN,1492.122616625,1492.140916625,1493.400970458,NaN,NaN
125,5,0,usability,1,bathroom,bathroom_practice1.tif,221,1.5,0,1.05,1493.419173083,1496.629103166,6,NaN,1496.634697166,1496.653041583,1497.6964135,NaN,NaN
125,1,1,usability,0,bathroom,sun_apynckhmoftszqoq.tif,157,1.5,0,1.01666666666667,1502.625313708,1506.093103916,5,NaN,1506.098542583,1506.116864083,1507.126918125,NaN,NaN
125,2,1,usability,0,bathroom,sun_avhrdrntsqrjzccq.tif,165,1.5,0,1.61666666666667,1507.144833833,1511.820682416,5,NaN,1511.826576958,1511.844857458,1513.454895,NaN,NaN
125,3,1,usability,0,bathroom,sun_apkxzenqapsujocq.tif,155,1.5,0,1.16666666666667,1513.472711083,1517.821402708,4,NaN,1517.826992083,1517.845245708,1519.005289333,NaN,NaN
125,4,1,usability,0,bathroom,sun_aoybiabnpadelefl.tif,151,1.5,0,0.983333333333333,1519.016482875,1522.796806875,3,NaN,1522.80258075,1522.820904791,1523.797577541,NaN,NaN
125,5,1,usability,0,bathroom,sun_aggnnqpdorgxpvce.tif,131,1.5,0,0.783333333333333,1523.802819458,1530.468767291,5,NaN,1530.474488416,1530.492891666,1531.269563083,NaN,NaN
125,6,1,usability,0,bathroom,sun_ambriybtogmepttm.tif,146,1.5,0,0.816666666666667,1531.274931541,1535.044897166,2,NaN,1535.050553333,1535.068888916,1535.878893083,NaN,NaN
125,7,1,usability,0,bathroom,sun_agrwbmhcpmfuwmsg.tif,134,1.5,0,1.1,1535.884195291,1541.236399875,4,NaN,1541.242352375,1541.261452416,1542.354830791,NaN,NaN
125,8,1,usability,0,bathroom,sun_amzlamotzwfkwjco.tif,147,1.5,0,1.65,1542.364643708,1545.508483083,1,NaN,1545.514407,1545.532628125,1547.176012291,NaN,NaN
125,9,1,usability,0,bathroom,sun_afcoljnjfoxjtgja.tif,130,1.5,0,1.13333333333333,1547.192779458,1550.868361291,5,NaN,1550.87428175,1550.892655041,1552.019360166,NaN,NaN
125,10,1,usability,0,bathroom,sun_aofnryafpsjimzsb.tif,150,1.5,0,0.766666666666667,1552.028365,1557.37312775,4,NaN,1557.378626125,1557.396924083,1558.156929208,NaN,NaN
125,11,1,usability,0,bathroom,sun_apeeialkgkuxddgh.tif,152,1.5,0,1.25,1558.1615775,1561.828803375,4,NaN,1561.834629833,1561.852895833,1563.096284,NaN,NaN
125,12,1,usability,0,bathroom,sun_aavhrsfjbserjtht.tif,123,1.5,0,1.5,1563.113269083,1567.420881333,5,NaN,1567.426606166,1567.4446,1568.937974333,NaN,NaN
125,13,1,usability,0,bathroom,labelme_sfxiulhjbhlyiyt.tif,121,1.5,0,1.56666666666667,1568.954898458,1572.741231166,3,NaN,1572.7467945,1572.765165625,1574.325226833,NaN,NaN
125,14,1,usability,0,bathroom,sun_alkosphxlxwjwgjd.tif,144,1.5,0,1.45,1574.343239875,1578.557298291,5,NaN,1578.562870125,1578.581245541,1580.024622083,NaN,NaN
125,15,1,usability,0,bathroom,sun_atstyziqcmkahyxk.tif,161,1.5,0,1.53333333333333,1580.034968875,1583.140256708,4,NaN,1583.14629825,1583.164543208,1584.691257958,NaN,NaN
125,16,1,usability,0,bathroom,sun_aleqenyvunhactkl.tif,142,1.5,0,0.8,1584.708936375,1588.80529575,3,NaN,1588.810807416,1588.828962916,1589.622303041,NaN,NaN
125,17,1,usability,0,bathroom,sun_ahaulkltgpkeeemi.tif,136,1.5,0,0.933333333333333,1589.627605291,1594.381021583,2,NaN,1594.386572791,1594.404927291,1595.3315995,NaN,NaN
125,18,1,usability,0,bathroom,sun_aljolscmmzydegqp.tif,143,1.5,0,1.75,1595.337082,1599.252220791,6,NaN,1599.258207666,1599.27658775,1601.019964875,NaN,NaN
125,19,1,usability,0,bathroom,sun_ahijqszoswveeyji.tif,138,1.5,0,1.48333333333333,1601.037132208,1604.22029925,7,NaN,1604.249175833,1604.272549375,1605.749263666,NaN,NaN
125,20,1,usability,0,bathroom,sun_aclfzgynxzxlbepz.tif,129,1.5,0,1.03333333333333,1605.764020333,1609.493231041,3,NaN,1609.498685375,1609.51707925,1610.543788458,NaN,NaN
125,21,1,usability,0,bathroom,sun_alotolagknyrgtsk.tif,145,1.5,0,1.23333333333333,1610.551889291,1613.805262083,2,NaN,1613.810814833,1613.829026583,1615.055742875,NaN,NaN
125,22,1,usability,0,bathroom,sun_axxbkopsgyouuebh.tif,168,1.5,0,1.28333333333333,1615.071178625,1620.092444875,6,NaN,1620.098170375,1620.116563708,1621.393267875,NaN,NaN
125,23,1,usability,0,bathroom,sun_ahcvzmoyaycdoftf.tif,137,1.5,0,1.66666666666667,1621.410532041,1626.772340875,5,NaN,1626.778283,1626.796601916,1628.456646291,NaN,NaN
125,24,1,usability,0,bathroom,sun_aghyqhbptboemmoq.tif,133,1.5,0,1.26666666666667,1628.473414,1631.830423791,5,NaN,1631.859454583,1631.879441583,1633.139494041,NaN,NaN
125,25,1,usability,0,bathroom,sun_awnqiikzaispgmwo.tif,166,1.5,0,1.4,1633.156469125,1636.356606041,7,NaN,1636.362317291,1636.380622708,1637.774013541,NaN,NaN
125,1,2,usability,0,bathroom,sun_abjtwfukuwddzted.tif,125,1.5,0,1.66666666666667,1642.480168208,1647.076416416,5,NaN,1647.082586041,1647.100959125,1648.761007375,NaN,NaN
125,2,2,usability,0,bathroom,sun_aqrpegblszgcoujh.tif,158,1.5,0,1.85,1648.779016208,1652.10422,6,NaN,1652.13330225,1652.156364083,1653.999714791,NaN,NaN
125,3,2,usability,0,bathroom,sun_acgyywnybuveqsro.tif,128,1.5,0,1.65,1654.011027958,1657.167936541,4,NaN,1657.196615333,1657.219965333,1658.863352875,NaN,NaN
125,4,2,usability,0,bathroom,sun_azqyogdvyhahyram.tif,170,1.5,0,0.95,1658.877994958,1661.996759291,3,NaN,1662.014580333,1662.036152,1662.979490833,NaN,NaN
125,5,2,usability,0,bathroom,sun_apmqjbnwghzuhhzh.tif,156,1.5,0,0.783333333333333,1662.984908666,1666.228893541,3,NaN,1666.234342458,1666.252670541,1667.029341416,NaN,NaN
125,6,2,usability,0,bathroom,sun_ajlawzvmubibwbpy.tif,140,1.5,0,1.13333333333333,1667.033936083,1670.284812791,4,NaN,1670.290435833,1670.309335291,1671.436062958,NaN,NaN
125,7,2,usability,0,bathroom,sun_akiytfaagpdsphgz.tif,141,1.5,0,1.63333333333333,1671.445237833,1674.875965833,6,NaN,1674.882045625,1674.900237541,1676.526944541,NaN,NaN
125,8,2,usability,0,bathroom,sun_acduarbnmmoglmiv.tif,126,1.5,0,1.2,1676.539921375,1679.74883475,7,NaN,1679.777948666,1679.800918458,1680.994311583,NaN,NaN
125,9,2,usability,0,bathroom,sun_ahqjwnzgolcaoidx.tif,139,1.5,0,1.71666666666667,1681.004966958,1683.964086916,4,NaN,1683.97007875,1683.988466208,1685.6985035,NaN,NaN
125,10,2,usability,0,bathroom,sun_asfwthctfqerjvxr.tif,159,1.5,0,0.9,1685.714528458,1689.580571291,3,NaN,1689.586161041,1689.604582666,1690.497919458,NaN,NaN
125,11,2,usability,0,bathroom,sun_apjevzvycyhuqghb.tif,153,1.5,0,0.9,1690.502942208,1693.836966541,5,NaN,1693.842494875,1693.86067725,1694.754015083,NaN,NaN
125,12,2,usability,0,bathroom,sun_agguqiubmwhqqunb.tif,132,1.5,0,0.766666666666667,1694.759872875,1697.556318875,4,NaN,1697.584767166,1697.608076416,1698.368080958,NaN,NaN
125,13,2,usability,0,bathroom,sun_acegryoqftbzowsg.tif,127,1.5,0,0.966666666666667,1698.372636291,1702.3329135,5,NaN,1702.338444833,1702.356798333,1703.316802666,NaN,NaN
125,14,2,usability,0,bathroom,sun_apkruvsevgegsdwp.tif,154,1.5,0,0.7,1703.322067666,1706.130034208,3,NaN,1706.158821083,1706.181831291,1706.875168708,NaN,NaN
125,15,2,usability,0,bathroom,sun_aunuadmjocsddsrl.tif,162,1.5,0,1.1,1706.892236,1709.693460208,2,NaN,1709.721136208,1709.743575208,1710.836938583,NaN,NaN
125,16,2,usability,0,bathroom,sun_axyrejkiiaqiurjk.tif,169,1.5,0,1.33333333333333,1710.845581416,1714.244188416,4,NaN,1714.249863833,1714.268143125,1715.594843583,NaN,NaN
125,17,2,usability,0,bathroom,sun_ausgutylgojavyoq.tif,163,1.5,0,1.15,1715.61205125,1718.788148375,2,NaN,1718.793806125,1718.812013666,1719.9554005,NaN,NaN
125,18,2,usability,0,bathroom,sun_aapitsgbtktqubfy.tif,122,1.5,0,1.28333333333333,1719.965475833,1722.852427958,5,NaN,1722.857978083,1722.876979791,1724.153700875,NaN,NaN
125,19,2,usability,0,bathroom,sun_agyqfjcfkdcydepw.tif,135,1.5,0,1.35,1724.166214166,1729.915812708,5,NaN,1729.921779708,1729.940075875,1731.283463666,NaN,NaN
125,20,2,usability,0,bathroom,sun_abapwbhyhkfixyex.tif,124,1.5,0,1.43333333333333,1731.301506791,1736.396746791,5,NaN,1736.402689541,1736.421338,1737.848054833,NaN,NaN
125,21,2,usability,0,bathroom,sun_auzqhkafidnkrwmo.tif,164,1.5,0,0.916666666666667,1737.864949916,1741.092093541,5,NaN,1741.097798041,1741.116066083,1742.026069708,NaN,NaN
125,22,2,usability,0,bathroom,sun_anryaplzeujmzfkd.tif,149,1.5,0,0.766666666666667,1742.030348375,1744.80005025,4,NaN,1744.828618791,1744.851125333,1745.611129458,NaN,NaN
125,23,2,usability,0,bathroom,sun_anhioqovhscjqqwb.tif,148,1.5,0,0.866666666666667,1745.616608875,1748.615667583,5,NaN,1748.644760958,1748.6681995,1749.528204791,NaN,NaN
125,24,2,usability,0,bathroom,sun_axldvoqbuvuggfmq.tif,167,1.5,0,0.833333333333333,1749.533752875,1752.439958166,4,NaN,1752.469142875,1752.492413625,1753.31908675,NaN,NaN
125,25,2,usability,0,bathroom,sun_aspsyogrekjtfozg.tif,160,1.5,0,0.75,1753.324578833,1757.636236666,6,NaN,1757.641999458,1757.660254833,1758.403592708,NaN,NaN
