sub_num,trial,block,task,is_practice,category,image,texture,duration,mask_dur,jitter,stim_time,time_of_resp,trial_response,mask_time,fix_time,jit_onset,trial_end,trial_accuracy,RT
108,1,0,categorization,1,bathroom,SHINEd_bathroom_practice4.tif,114,0.05,0.0666666666666667,1.21666666666667,777.765681958,780.405871083,13,777.815216166,777.875589125,780.429987375,781.640186791,1,2.64018912500001
108,2,0,categorization,1,bathroom,SHINEd_bathroom_practice1.tif,111,0.05,0.0666666666666667,1.36666666666667,781.686594083,783.121525,13,781.743217125,781.803058583,783.165950416,784.526175583,1,1.43493091699997
108,3,0,categorization,1,bathroom,SHINEd_bathroom_practice5.tif,115,0.05,0.0666666666666667,1.85,784.578334208,786.051397708,13,784.637241541,784.696347125,786.092932708,787.936477333,1,1.47306349999997
108,4,0,categorization,1,bathroom,SHINEd_bathroom_practice3.tif,113,0.05,0.0666666666666667,1.55,787.961352083,789.095678666,13,788.014101916,788.078678208,789.120213708,790.663757375,1,1.13432658300007
108,5,0,categorization,1,kitchen,SHINEd_kitchen_practice5.tif,120,0.05,0.0666666666666667,1.48333333333333,790.700274208,792.078088041,13,790.757231291,790.817903041,792.124228291,793.60185325,0,1.377813833
108,6,0,categorization,1,kitchen,SHINEd_kitchen_practice1.tif,116,0.05,0.0666666666666667,1.15,793.634063916,795.453465125,13,793.686624625,793.751406333,795.471381541,796.614884125,0,1.81940120900003
108,7,0,categorization,1,kitchen,SHINEd_kitchen_practice2.tif,117,0.05,0.0666666666666667,0.733333333333333,796.625010916,798.133641541,13,796.673701125,796.742066083,798.149587583,798.876281916,0,1.50863062500002
108,8,0,categorization,1,bathroom,SHINEd_bathroom_practice2.tif,112,0.05,0.0666666666666667,1.6,798.882125958,800.461567541,13,798.92721975,798.988063583,800.474112166,802.067479916,1,1.57944158300006
108,9,0,categorization,1,kitchen,SHINEd_kitchen_practice4.tif,119,0.05,0.0666666666666667,0.716666666666667,802.084576083,803.493663541,13,802.134788625,802.200860958,803.503900708,804.213906166,0,1.40908745800004
108,10,0,categorization,1,kitchen,SHINEd_kitchen_practice3.tif,118,0.05,0.0666666666666667,1.21666666666667,804.218494458,805.909385958,13,804.263569708,804.32449175,805.927183208,807.137215791,0,1.69089150000002
108,1,0,categorization,1,bathroom,SHINEd_bathroom_practice4.tif,114,0.05,0.0666666666666667,1.21666666666667,825.939645375,827.077016333,13,825.985429583,826.045937708,827.080867833,828.290916958,1,1.13737095799991
108,2,0,categorization,1,bathroom,SHINEd_bathroom_practice1.tif,111,0.05,0.0666666666666667,1.36666666666667,828.306528958,829.533773833,13,828.357727625,828.42267525,829.564982833,830.925035166,1,1.22724487500011
108,3,0,categorization,1,bathroom,SHINEd_bathroom_practice5.tif,115,0.05,0.0666666666666667,1.85,830.942029333,832.326044291,13,830.992093666,831.058388541,832.351089958,834.194468625,1,1.38401495799997
108,4,0,categorization,1,bathroom,SHINEd_bathroom_practice3.tif,113,0.05,0.0666666666666667,1.55,834.211750083,835.158900666,9,834.261378125,834.327664583,835.18440575,836.727784083,0,0.947150583000052
108,5,0,categorization,1,kitchen,SHINEd_kitchen_practice5.tif,120,0.05,0.0666666666666667,1.48333333333333,836.7459075,838.081883916,13,836.796063625,836.861913291,838.103529166,839.58023625,0,1.33597641599999
108,6,0,categorization,1,kitchen,SHINEd_kitchen_practice1.tif,116,0.05,0.0666666666666667,1.15,839.599022541,840.875452833,9,839.649051833,839.714994666,840.908221333,842.051595583,1,1.2764302920001
108,7,0,categorization,1,kitchen,SHINEd_kitchen_practice2.tif,117,0.05,0.0666666666666667,0.733333333333333,842.060755916,842.928478166,9,842.109184958,842.177867875,842.951560916,843.678270708,1,0.867722250000043
108,8,0,categorization,1,bathroom,SHINEd_bathroom_practice2.tif,112,0.05,0.0666666666666667,1.6,843.694947041,844.556841833,13,843.744903541,843.811474333,844.563976333,846.157355375,1,0.861894792000044
108,9,0,categorization,1,kitchen,SHINEd_kitchen_practice4.tif,119,0.05,0.0666666666666667,0.716666666666667,846.175431416,847.104384208,13,846.225277375,846.291465833,847.129757958,847.839763458,0,0.928952792000018
108,10,0,categorization,1,kitchen,SHINEd_kitchen_practice3.tif,118,0.05,0.0666666666666667,1.21666666666667,847.844659958,848.965776666,13,847.88972575,847.950779875,848.969837375,850.179854,0,1.12111670800005
108,1,1,categorization,0,bathroom,SHINEd_sun_aoybiabnpadelefl.tif,41,0.05,0.0666666666666667,1.23333333333333,861.520337791,862.49339225,13,861.5662915,861.626534,862.511580166,863.738289791,1,0.973054459000082
108,2,1,categorization,0,bathroom,SHINEd_sun_azqyogdvyhahyram.tif,60,0.05,0.0666666666666667,0.783333333333333,863.756532333,864.638755583,13,863.8076,863.872916583,864.663965375,865.440667541,1,0.882223250000038
108,3,1,categorization,0,bathroom,SHINEd_sun_aapitsgbtktqubfy.tif,12,0.05,0.0666666666666667,0.75,865.458515083,866.373652583,13,865.509245541,865.574739333,866.394286333,867.137624208,1,0.915137500000014
108,4,1,categorization,0,bathroom,SHINEd_sun_agyqfjcfkdcydepw.tif,25,0.05,0.0666666666666667,1.23333333333333,867.142489125,868.221104083,9,867.1875565,867.24839475,868.233786916,869.460508708,0,1.078614958
108,5,1,categorization,0,kitchen,SHINEd_sun_akcjzhbbjlbogpdi.tif,99,0.05,0.0666666666666667,1.13333333333333,869.4752855,870.189624458,13,869.525985375,869.591606708,870.215945291,871.342650125,0,0.714338957999985
108,6,1,categorization,0,bathroom,SHINEd_sun_apeeialkgkuxddgh.tif,42,0.05,0.0666666666666667,0.95,871.354996208,872.0413885,13,871.40523425,871.47137375,872.062136416,873.005506416,1,0.68639229200005
108,7,1,categorization,0,bathroom,SHINEd_sun_afcoljnjfoxjtgja.tif,20,0.05,0.0666666666666667,0.733333333333333,873.023096416,873.805431291,13,873.073964875,873.141102791,873.810418625,874.537089416,1,0.782334874999947
108,8,1,categorization,0,kitchen,SHINEd_sun_aeqdocilnnpuvuhx.tif,83,0.05,0.0666666666666667,1.31666666666667,874.542737166,875.469065416,9,874.587730125,874.648754458,875.484031833,876.794076791,1,0.926328249999983
108,9,1,categorization,0,kitchen,SHINEd_sun_aggjlwcdjsjcaemh.tif,86,0.05,0.0666666666666667,0.8,876.812212041,877.607720041,9,876.862106833,876.92835125,877.633415291,878.426804083,1,0.795508000000041
108,10,1,categorization,0,bathroom,SHINEd_sun_awnqiikzaispgmwo.tif,56,0.05,0.0666666666666667,0.716666666666667,878.443153583,879.220857791,13,878.492927625,878.559211333,879.227870708,879.937874166,1,0.777704207999932
108,11,1,categorization,0,bathroom,SHINEd_sun_aleqenyvunhactkl.tif,32,0.05,0.0666666666666667,0.916666666666667,879.943344208,880.812671625,13,879.988373666,880.0494505,880.818709458,881.7287135,1,0.869327417000022
108,12,1,categorization,0,kitchen,SHINEd_sun_avszsnwsbuqfgzbn.tif,105,0.05,0.0666666666666667,0.95,881.734291333,882.412771875,13,881.7793015,881.840282291,882.425355666,883.368692541,0,0.678480541999988
108,13,1,categorization,0,kitchen,SHINEd_sun_agzzivivdpnawacl.tif,89,0.05,0.0666666666666667,0.833333333333333,883.373537166,884.028800291,13,883.418548708,883.479470916,884.048165708,884.874836833,0,0.655263125000033
108,14,1,categorization,0,bathroom,SHINEd_sun_acgyywnybuveqsro.tif,18,0.05,0.0666666666666667,0.75,884.880546541,885.540969166,9,884.925545,884.986556791,885.555282333,886.298619958,0,0.660422625000024
108,15,1,categorization,0,kitchen,SHINEd_sun_acxkpeoqbwcxfvip.tif,77,0.05,0.0666666666666667,1.53333333333333,886.304255291,887.301532166,9,886.349328791,886.410329291,887.312325375,888.839046875,1,0.997276875000011
108,16,1,categorization,0,bathroom,SHINEd_sun_abapwbhyhkfixyex.tif,14,0.05,0.0666666666666667,1.05,888.858494875,889.626666875,9,888.909066208,888.974758666,889.648568875,890.691935458,0,0.768171999999936
108,17,1,categorization,0,kitchen,SHINEd_sun_auticobqsbwgoppi.tif,104,0.05,0.0666666666666667,0.9,890.703357083,891.537905791,9,890.751599791,890.818488333,891.558864458,892.452245875,1,0.834548707999943
108,18,1,categorization,0,kitchen,SHINEd_sun_azmutvzbxypaceni.tif,110,0.05,0.0666666666666667,1.18333333333333,892.469156708,893.373019958,13,892.519326333,892.585677791,893.387615083,894.564301708,0,0.903863249999972
108,19,1,categorization,0,bathroom,SHINEd_sun_alkosphxlxwjwgjd.tif,34,0.05,0.0666666666666667,0.9,894.5735155,895.534448958,13,894.623687458,894.68956875,895.562898291,896.456279833,1,0.960933458
108,20,1,categorization,0,kitchen,SHINEd_sun_acgtpgfybqjmzeyw.tif,75,0.05,0.0666666666666667,1.66666666666667,896.463965208,897.420593166,9,896.509918583,896.57003725,897.438464458,899.09851725,1,0.956627958000013
108,21,1,categorization,0,kitchen,SHINEd_labelme_kxvouciolcpqplr.tif,62,0.05,0.0666666666666667,1.13333333333333,899.1075995,899.841124,13,899.1558445,899.223675708,899.863441291,900.990162291,0,0.733524500000044
108,22,1,categorization,0,kitchen,SHINEd_sun_ahspylgoovwmwvgk.tif,93,0.05,0.0666666666666667,1.3,901.00062825,901.736562208,9,901.048723458,901.112615375,901.751921458,903.0452915,1,0.735933958000032
108,23,1,categorization,0,kitchen,SHINEd_sun_acwjdupvyjsugpay.tif,76,0.05,0.0666666666666667,1.93333333333333,903.058528208,903.880240208,9,903.107001416,903.1750055,903.897808166,905.824526666,1,0.821712000000048
108,24,1,categorization,0,bathroom,SHINEd_sun_auzqhkafidnkrwmo.tif,54,0.05,0.0666666666666667,1,905.844604916,906.756882,13,905.894076625,905.960873625,906.78412575,907.777464625,1,0.912277084000038
108,25,1,categorization,0,bathroom,SHINEd_sun_ambriybtogmepttm.tif,36,0.05,0.0666666666666667,0.883333333333333,907.783177875,908.501474958,9,907.828715833,907.889109458,908.508100791,909.384772041,0,0.718297083000039
108,26,1,categorization,0,bathroom,SHINEd_sun_ahijqszoswveeyji.tif,28,0.05,0.0666666666666667,1.95,909.389984833,910.036694083,13,909.434939125,909.495961666,910.048256708,911.991644541,1,0.646709250000072
108,27,1,categorization,0,bathroom,SHINEd_labelme_sfxiulhjbhlyiyt.tif,11,0.05,0.0666666666666667,1.25,912.01066175,912.687746583,13,912.060459208,912.126657166,912.701853708,913.945236041,1,0.677084832999981
108,28,1,categorization,0,kitchen,SHINEd_labelme_brsyyvweiuaazfr.tif,61,0.05,0.0666666666666667,1.95,913.966651583,914.470040708,13,914.016904708,914.082550625,914.488736666,916.432107625,0,0.503389125000012
108,29,1,categorization,0,bathroom,SHINEd_sun_apjevzvycyhuqghb.tif,43,0.05,0.0666666666666667,1.91666666666667,916.450361333,916.870352875,9,916.500453041,916.567020833,916.890487458,918.800545166,0,0.419991541999934
108,30,1,categorization,0,bathroom,SHINEd_sun_akiytfaagpdsphgz.tif,31,0.05,0.0666666666666667,1.41666666666667,918.817797416,919.197395875,13,918.867877458,918.933717083,919.224313458,920.634354,1,0.379598459000022
108,31,1,categorization,0,bathroom,SHINEd_sun_apkxzenqapsujocq.tif,45,0.05,0.0666666666666667,0.716666666666667,920.64955,921.266731333,9,920.699720916,920.766068875,921.290048125,922.000102708,0,0.617181333000076
108,32,1,categorization,0,kitchen,SHINEd_sun_aunzlwrbjumxhwdj.tif,103,0.05,0.0666666666666667,1.28333333333333,922.016801041,922.885020833,9,922.067069541,922.133753916,922.902235958,924.178958458,1,0.868219791999991
108,33,1,categorization,0,bathroom,SHINEd_sun_aggnnqpdorgxpvce.tif,21,0.05,0.0666666666666667,0.9,924.197970375,924.861737916,9,924.2481775,924.31421,924.887852166,925.78122975,0,0.663767541000084
108,34,1,categorization,0,kitchen,SHINEd_sun_aehawpgmrlhlvcow.tif,81,0.05,0.0666666666666667,0.8,925.798133458,926.4613295,13,925.848291291,925.91461225,926.466739458,927.260078208,0,0.663196041999981
108,35,1,categorization,0,kitchen,SHINEd_sun_aegoxogugdkwpmpj.tif,80,0.05,0.0666666666666667,1.01666666666667,927.265264541,927.868902083,13,927.310206833,927.371192125,927.873005875,928.883042291,0,0.603637542000001
108,36,1,categorization,0,kitchen,SHINEd_sun_aamedkxepzlwuxes.tif,65,0.05,0.0666666666666667,0.85,928.896437583,929.545386583,13,928.945142708,929.011189291,929.56802075,930.41139675,0,0.648949000000016
108,37,1,categorization,0,kitchen,SHINEd_sun_afuyedyxivkhecmu.tif,85,0.05,0.0666666666666667,1.51666666666667,930.428674416,930.9966455,13,930.478803416,930.544760541,931.014045333,932.524077833,0,0.567971083999964
108,38,1,categorization,0,kitchen,SHINEd_sun_adgqasybjyktddhj.tif,78,0.05,0.0666666666666667,1.83333333333333,932.541293083,933.094198458,13,932.591278125,932.657291041,933.111937541,934.938658875,0,0.552905375000023
108,39,1,categorization,0,kitchen,SHINEd_sun_aadbddgrdsjugojn.tif,64,0.05,0.0666666666666667,0.716666666666667,934.956909541,935.568091291,9,935.005126375,935.072952208,935.59661325,936.306620041,1,0.611181750000014
108,40,1,categorization,0,bathroom,SHINEd_sun_asfwthctfqerjvxr.tif,49,0.05,0.0666666666666667,0.9,936.313237333,937.245261083,9,936.358357541,936.419230208,937.254303833,938.14764275,0,0.932023749999985
108,41,1,categorization,0,bathroom,SHINEd_sun_agguqiubmwhqqunb.tif,22,0.05,0.0666666666666667,0.916666666666667,938.153404208,939.277231083,13,938.198301666,938.259428041,939.2945285,940.204533458,1,1.12382687499996
108,42,1,categorization,0,bathroom,SHINEd_sun_aqrpegblszgcoujh.tif,48,0.05,0.0666666666666667,0.816666666666667,940.209835208,940.861351291,13,940.254815291,940.315840541,940.867836625,941.677842083,1,0.651516083000047
108,43,1,categorization,0,kitchen,SHINEd_sun_aqeaevwwwjoqhzvl.tif,101,0.05,0.0666666666666667,1.88333333333333,941.68359275,942.500652416,13,941.7286575,941.789507041,942.508133291,944.384854875,0,0.817059665999977
108,44,1,categorization,0,kitchen,SHINEd_sun_ahpczsiumwwocjkv.tif,92,0.05,0.0666666666666667,0.9,944.404484875,945.805166541,13,944.454868083,944.520637583,945.823551541,946.7168895,0,1.40068166599997
108,45,1,categorization,0,bathroom,SHINEd_sun_avhrdrntsqrjzccq.tif,55,0.05,0.0666666666666667,1,946.722522791,947.564720666,9,946.767571041,946.828556583,947.580592416,948.5739315,0,0.842197875000011
108,46,1,categorization,0,bathroom,SHINEd_sun_ausgutylgojavyoq.tif,53,0.05,0.0666666666666667,0.733333333333333,948.579647666,949.460987,9,948.624549208,948.685602458,949.470780958,950.197452291,0,0.881339334000018
108,47,1,categorization,0,bathroom,SHINEd_sun_aofnryafpsjimzsb.tif,40,0.05,0.0666666666666667,0.883333333333333,950.203079291,950.956816291,13,950.248029333,950.309115416,950.961254,951.837924833,1,0.753737000000001
108,48,1,categorization,0,kitchen,SHINEd_sun_awcpdzzznmweyyhv.tif,106,0.05,0.0666666666666667,1.73333333333333,951.843257333,952.644919041,13,951.888403791,951.949378875,952.651252875,954.377960458,0,0.801661707999983
108,49,1,categorization,0,bathroom,SHINEd_sun_agrwbmhcpmfuwmsg.tif,24,0.05,0.0666666666666667,1.91666666666667,954.397575083,954.822565583,13,954.447501958,954.513769375,954.8353295,956.745363541,1,0.424990500000035
108,50,1,categorization,0,kitchen,SHINEd_sun_ahywdevtimnqcsln.tif,94,0.05,0.0666666666666667,1.35,956.764107125,957.303557833,13,956.814213458,956.880133916,957.319503541,958.662883875,0,0.539450708000004
108,1,2,categorization,0,kitchen,SHINEd_sun_ajkqhtgcbgpcwrwn.tif,97,0.05,0.0666666666666667,0.95,969.800537583,970.620723416,13,969.846235708,969.906747958,970.625328416,971.568666791,0,0.820185832999982
108,2,2,categorization,0,kitchen,SHINEd_sun_abdenxonkemggwsq.tif,69,0.05,0.0666666666666667,0.75,971.573564875,972.092371208,13,971.61855575,971.67968575,972.09793875,972.841277291,0,0.518806333000043
108,3,2,categorization,0,bathroom,SHINEd_sun_aavhrsfjbserjtht.tif,13,0.05,0.0666666666666667,1.68333333333333,972.846142,973.396631791,13,972.8910945,972.952196291,973.404022375,975.080729291,1,0.550489791000018
108,4,2,categorization,0,bathroom,SHINEd_sun_aclfzgynxzxlbepz.tif,19,0.05,0.0666666666666667,0.816666666666667,975.090936208,975.767992166,9,975.138316416,975.206964208,975.796952666,976.606958708,0,0.677055957999983
108,5,2,categorization,0,kitchen,SHINEd_sun_aenotlpyftoioydp.tif,82,0.05,0.0666666666666667,0.916666666666667,976.6128715,977.141118916,13,976.657929625,976.718942916,977.154326,978.06433075,0,0.528247415999999
108,6,2,categorization,0,bathroom,SHINEd_sun_aunuadmjocsddsrl.tif,52,0.05,0.0666666666666667,1.21666666666667,978.06928775,978.677212666,13,978.114295166,978.17527425,978.69380925,979.90384125,1,0.607924916000002
108,7,2,categorization,0,kitchen,SHINEd_sun_aymvwlarqodbwuoc.tif,108,0.05,0.0666666666666667,0.9,979.92109775,980.56919,9,979.971002583,980.03700225,980.593837166,981.487210083,1,0.648092250000104
108,8,2,categorization,0,bathroom,SHINEd_sun_amzlamotzwfkwjco.tif,37,0.05,0.0666666666666667,1.65,981.503508208,982.220932625,13,981.553656,981.619452541,982.237881166,983.881271708,1,0.717424417000075
108,9,2,categorization,0,kitchen,SHINEd_sun_ahdycvpopffkzzsu.tif,90,0.05,0.0666666666666667,1.15,983.899406875,984.444624,13,983.949744,984.015602666,984.472497958,985.616309125,0,0.545217125000022
108,10,2,categorization,0,bathroom,SHINEd_sun_atstyziqcmkahyxk.tif,51,0.05,0.0666666666666667,1.13333333333333,985.633732916,986.272392208,13,985.685683791,985.751375875,986.291167,987.417886416,1,0.638659292000057
108,11,2,categorization,0,bathroom,SHINEd_sun_ahqjwnzgolcaoidx.tif,29,0.05,0.0666666666666667,1.76666666666667,987.436620041,988.316481666,13,987.487630208,987.54436225,988.32959375,990.089642916,1,0.87986162499999
108,12,2,categorization,0,bathroom,SHINEd_sun_alotolagknyrgtsk.tif,35,0.05,0.0666666666666667,1.8,990.106643291,990.927989666,9,990.156657125,990.2226235,990.945620291,992.739011916,0,0.821346375000076
108,13,2,categorization,0,kitchen,SHINEd_sun_aarfiyshqohlwkmo.tif,67,0.05,0.0666666666666667,0.9,992.757423083,993.40718675,13,992.80762525,992.8739095,993.431154666,994.324492833,0,0.649763667000002
108,14,2,categorization,0,bathroom,SHINEd_sun_anhioqovhscjqqwb.tif,38,0.05,0.0666666666666667,0.716666666666667,994.329496,994.908713291,13,994.374549458,994.435462375,994.92060375,995.630607666,1,0.579217291000077
108,15,2,categorization,0,kitchen,SHINEd_sun_acfmftudsenhrfhy.tif,74,0.05,0.0666666666666667,1.36666666666667,995.635330458,996.26845475,13,995.68038475,995.741390833,996.276471625,997.636506541,0,0.633124292000048
108,16,2,categorization,0,kitchen,SHINEd_sun_aaxxjlsuzvqlgylf.tif,68,0.05,0.0666666666666667,0.916666666666667,997.6554845,998.365974916,13,997.705482791,997.771852791,998.395033375,999.305073875,0,0.710490416000084
108,17,2,categorization,0,bathroom,SHINEd_sun_aljolscmmzydegqp.tif,33,0.05,0.0666666666666667,0.716666666666667,999.32182375,1000.109057708,9,999.368017583,999.427907666,1000.113301291,1000.823306625,0,0.787233958000002
108,18,2,categorization,0,kitchen,SHINEd_sun_agubuxuukhzyzpdp.tif,88,0.05,0.0666666666666667,0.766666666666667,1000.829140958,1001.636762083,13,1000.874213166,1000.935241458,1001.653777791,1002.413783333,0,0.807621124999969
108,19,2,categorization,0,kitchen,SHINEd_sun_abrcnpqqhmjwekyf.tif,73,0.05,0.0666666666666667,1.06666666666667,1002.4186805,1003.188881291,13,1002.463655791,1002.5246445,1003.193167583,1004.253202875,0,0.770200790999979
108,20,2,categorization,0,bathroom,SHINEd_sun_acduarbnmmoglmiv.tif,16,0.05,0.0666666666666667,0.8,1004.264375125,1004.981502041,13,1004.312571666,1004.379007583,1005.002199083,1005.795573333,1,0.717126915999984
108,21,2,categorization,0,bathroom,SHINEd_sun_abjtwfukuwddzted.tif,15,0.05,0.0666666666666667,0.866666666666667,1005.814195166,1007.308581541,9,1005.864173541,1005.930106541,1007.315976291,1008.1759815,0,1.49438637499998
108,22,2,categorization,0,bathroom,SHINEd_sun_ahaulkltgpkeeemi.tif,26,0.05,0.0666666666666667,1.48333333333333,1008.180691291,1009.285013375,9,1008.225769291,1008.286602,1009.288381125,1010.765095916,0,1.10432208399993
108,23,2,categorization,0,kitchen,SHINEd_sun_aixorpehvfykdynp.tif,95,0.05,0.0666666666666667,1.1,1010.785031375,1011.2883765,9,1010.83558425,1010.901562375,1011.307849416,1012.401219708,1,0.50334512500001
108,24,2,categorization,0,bathroom,SHINEd_sun_anryaplzeujmzfkd.tif,39,0.05,0.0666666666666667,0.783333333333333,1012.412532875,1013.133494375,13,1012.462901291,1012.528515791,1013.150314958,1013.927025125,1,0.720961500000044
108,25,2,categorization,0,kitchen,SHINEd_sun_aapllqyqlykszopd.tif,66,0.05,0.0666666666666667,0.866666666666667,1013.943868125,1014.597090291,13,1013.9932875,1014.059742,1014.612000541,1015.472004875,0,0.653222165999978
108,26,2,categorization,0,kitchen,SHINEd_sun_aypmqwcualkenuoe.tif,109,0.05,0.0666666666666667,1.83333333333333,1015.476827375,1016.30894225,13,1015.521743208,1015.582760708,1016.317927041,1018.144631666,0,0.832114875000002
108,27,2,categorization,0,kitchen,SHINEd_sun_abdxkyyxwfskuaqb.tif,70,0.05,0.0666666666666667,0.7,1018.164093416,1018.665218916,9,1018.214030208,1018.280246833,1018.68691325,1019.380267166,1,0.501125499999944
108,28,2,categorization,0,bathroom,SHINEd_sun_axyrejkiiaqiurjk.tif,59,0.05,0.0666666666666667,1.33333333333333,1019.387018083,1020.140886291,9,1019.432815833,1019.493126625,1020.144924541,1021.471642166,0,0.753868207999972
108,29,2,categorization,0,bathroom,SHINEd_sun_ajlawzvmubibwbpy.tif,30,0.05,0.0666666666666667,1.33333333333333,1021.490814291,1022.097627958,9,1021.540618333,1021.606828708,1022.112669291,1023.439377458,0,0.606813666999983
108,30,2,categorization,0,kitchen,SHINEd_sun_akchetnepxlcxhsu.tif,98,0.05,0.0666666666666667,1.38333333333333,1023.457118083,1024.203895833,13,1023.506701541,1023.573523083,1024.230042,1025.606742875,0,0.746777749999978
108,31,2,categorization,0,kitchen,SHINEd_sun_admlmbcdswaszruo.tif,79,0.05,0.0666666666666667,1.25,1025.625514,1026.280657708,9,1025.675120958,1025.741817833,1026.297487375,1027.540864833,1,0.655143707999969
108,32,2,categorization,0,bathroom,SHINEd_sun_axxbkopsgyouuebh.tif,58,0.05,0.0666666666666667,1.55,1027.55933825,1028.136131875,13,1027.6094575,1027.675353958,1028.165709875,1029.70908075,1,0.576793624999937
108,33,2,categorization,0,kitchen,SHINEd_sun_ahljzhgcdpomplvg.tif,91,0.05,0.0666666666666667,1.61666666666667,1029.727877375,1030.073269166,13,1029.778142875,1029.844131041,1030.100737083,1031.710785875,0,0.345391791000111
108,34,2,categorization,0,kitchen,SHINEd_labelme_rykdqxenmhulbdn.tif,63,0.05,0.0666666666666667,1.33333333333333,1031.732144208,1032.268191208,13,1031.78246875,1031.848037125,1032.28652675,1033.613248041,0,0.536047000000053
108,35,2,categorization,0,bathroom,SHINEd_sun_axldvoqbuvuggfmq.tif,57,0.05,0.0666666666666667,0.833333333333333,1033.630629,1034.140082083,13,1033.680566166,1033.738711583,1034.157296041,1034.983967125,1,0.509453082999926
108,36,2,categorization,0,kitchen,SHINEd_sun_ajcbwwvdlsvjyzje.tif,96,0.05,0.0666666666666667,1.45,1034.988690416,1035.612854083,13,1035.033732,1035.094677875,1035.62983825,1037.073215541,0,0.624163666999948
108,37,2,categorization,0,kitchen,SHINEd_sun_axyyrmzcupyhlivc.tif,107,0.05,0.0666666666666667,0.933333333333333,1037.085897625,1037.58074075,13,1037.134708,1037.201926791,1037.608505583,1038.535219916,0,0.494843124999989
108,38,2,categorization,0,kitchen,SHINEd_sun_agorklincwxrdtga.tif,87,0.05,0.0666666666666667,1.65,1038.552043541,1039.132705458,13,1038.602223541,1038.668396875,1039.136994166,1040.780375666,0,0.580661916999816
108,39,2,categorization,0,bathroom,SHINEd_sun_acegryoqftbzowsg.tif,17,0.05,0.0666666666666667,1.23333333333333,1040.79863075,1041.290127208,9,1040.848421708,1040.915065041,1041.304373375,1042.531084916,0,0.491496458000029
108,40,2,categorization,0,bathroom,SHINEd_sun_apynckhmoftszqoq.tif,47,0.05,0.0666666666666667,0.766666666666667,1042.54759325,1043.296871875,9,1042.597505416,1042.663698541,1043.320442,1044.080495416,0,0.749278624999988
108,41,2,categorization,0,bathroom,SHINEd_sun_aghyqhbptboemmoq.tif,23,0.05,0.0666666666666667,1.78333333333333,1044.096475375,1045.156666083,9,1044.146478083,1044.212459458,1045.164411958,1046.941130666,0,1.06019070799994
108,42,2,categorization,0,bathroom,SHINEd_sun_apkruvsevgegsdwp.tif,44,0.05,0.0666666666666667,1.11666666666667,1046.958001041,1047.329403333,9,1047.0100555,1047.074637,1047.347035458,1048.457086125,0,0.371402292000084
108,43,2,categorization,0,bathroom,SHINEd_sun_aspsyogrekjtfozg.tif,50,0.05,0.0666666666666667,1.85,1048.467526166,1049.002373541,13,1048.515958125,1048.582265333,1049.02103025,1050.864412666,1,0.534847375000027
108,44,2,categorization,0,bathroom,SHINEd_sun_apmqjbnwghzuhhzh.tif,46,0.05,0.0666666666666667,0.733333333333333,1050.882765,1051.210426375,13,1050.933151125,1050.999301125,1051.220900875,1051.947620166,1,0.327661374999934
108,45,2,categorization,0,kitchen,SHINEd_sun_abftihopvusyfakt.tif,71,0.05,0.0666666666666667,0.783333333333333,1051.963411625,1053.540289125,13,1052.013289166,1052.080126541,1053.549510458,1054.32618175,0,1.57687750000014
108,46,2,categorization,0,kitchen,SHINEd_sun_auaiucuqpdausiva.tif,102,0.05,0.0666666666666667,1.5,1054.33094375,1055.004345458,9,1054.375989,1054.436945625,1055.022428541,1056.515823708,1,0.673401708000029
108,47,2,categorization,0,kitchen,SHINEd_sun_amjjdeyrggfqgmom.tif,100,0.05,0.0666666666666667,0.733333333333333,1056.533084833,1057.101112208,9,1056.582995666,1056.649727875,1057.121344666,1057.848042458,1,0.568027374999929
108,48,2,categorization,0,kitchen,SHINEd_sun_abpwyqmlzafvklqo.tif,72,0.05,0.0666666666666667,1.1,1057.863977833,1059.676252583,13,1057.914025333,1057.980329708,1059.682651291,1060.776019708,0,1.81227474999992
108,49,2,categorization,0,kitchen,SHINEd_sun_aexklacwqwezaorf.tif,84,0.05,0.0666666666666667,1.6,1060.786211375,1061.577578125,9,1060.834503833,1060.901148125,1061.60757,1063.200938375,1,0.791366749999952
108,50,2,categorization,0,bathroom,SHINEd_sun_ahcvzmoyaycdoftf.tif,27,0.05,0.0666666666666667,1.06666666666667,1063.218250375,1063.821517583,9,1063.268131125,1063.334432083,1063.840470541,1064.900521375,0,0.603267208000034
108,1,3,categorization,0,kitchen,SHINEd_sun_azmutvzbxypaceni.tif,110,0.05,0.0666666666666667,0.85,1082.63269925,1083.476189416,13,1082.678622583,1082.738714666,1083.4907795,1084.334117333,0,0.84349016599981
108,2,3,categorization,0,bathroom,SHINEd_sun_axldvoqbuvuggfmq.tif,57,0.05,0.0666666666666667,1.65,1084.33884275,1085.083746375,13,1084.383937958,1084.444831875,1085.096503041,1086.739877791,1,0.744903625000006
108,3,3,categorization,0,bathroom,SHINEd_sun_ambriybtogmepttm.tif,36,0.05,0.0666666666666667,0.783333333333333,1086.756959,1087.682865125,9,1086.806854958,1086.873089583,1087.71365775,1088.490329166,0,0.925906124999983
108,4,3,categorization,0,kitchen,SHINEd_sun_adgqasybjyktddhj.tif,78,0.05,0.0666666666666667,0.933333333333333,1088.496066958,1089.2837565,13,1088.541122583,1088.602078708,1089.287166583,1090.213837333,0,0.787689541999953
108,5,3,categorization,0,bathroom,SHINEd_sun_aghyqhbptboemmoq.tif,23,0.05,0.0666666666666667,0.866666666666667,1090.219559375,1090.8757145,9,1090.264567833,1090.325537958,1090.894574166,1091.7545795,0,0.656155124999941
108,6,3,categorization,0,bathroom,SHINEd_sun_ajlawzvmubibwbpy.tif,30,0.05,0.0666666666666667,1.11666666666667,1091.759361833,1092.412076541,13,1091.804369875,1091.865800666,1092.417782,1093.527829583,1,0.652714708000076
108,7,3,categorization,0,kitchen,SHINEd_sun_aadbddgrdsjugojn.tif,64,0.05,0.0666666666666667,0.966666666666667,1093.538501833,1094.215984208,13,1093.5867595,1093.654789583,1094.244956,1095.205013125,0,0.677482374999954
108,8,3,categorization,0,kitchen,SHINEd_sun_acgtpgfybqjmzeyw.tif,75,0.05,0.0666666666666667,1.78333333333333,1095.221483041,1095.796564833,9,1095.271619583,1095.337398625,1095.806598416,1097.583320041,1,0.575081791999992
108,9,3,categorization,0,bathroom,SHINEd_sun_azqyogdvyhahyram.tif,60,0.05,0.0666666666666667,1.55,1097.601631458,1098.286192541,13,1097.651714208,1097.717979916,1098.307841333,1099.851223833,1,0.684561083000062
108,10,3,categorization,0,kitchen,SHINEd_sun_ahdycvpopffkzzsu.tif,90,0.05,0.0666666666666667,1.41666666666667,1099.870004791,1100.390424708,9,1099.92018525,1099.986172083,1100.408441583,1101.81848375,1,0.520419917000027
108,11,3,categorization,0,bathroom,SHINEd_sun_acgyywnybuveqsro.tif,18,0.05,0.0666666666666667,0.8,1101.836499125,1102.313451791,13,1101.886513583,1101.9528995,1102.3429175,1103.136305125,1,0.476952665999988
108,12,3,categorization,0,kitchen,SHINEd_sun_abrcnpqqhmjwekyf.tif,73,0.05,0.0666666666666667,1.28333333333333,1103.14681475,1103.828009916,13,1103.196928208,1103.262930875,1103.83191775,1105.108617458,0,0.681195165999952
108,13,3,categorization,0,kitchen,SHINEd_sun_abftihopvusyfakt.tif,71,0.05,0.0666666666666667,1.66666666666667,1105.119606708,1105.738287666,9,1105.169666166,1105.235614541,1105.758748791,1107.418793958,1,0.618680957999914
108,14,3,categorization,0,kitchen,SHINEd_sun_afuyedyxivkhecmu.tif,85,0.05,0.0666666666666667,1.81666666666667,1107.436628,1108.054156666,13,1107.486689333,1107.552489625,1108.075850125,1109.885883833,0,0.617528665999998
108,15,3,categorization,0,bathroom,SHINEd_sun_ahijqszoswveeyji.tif,28,0.05,0.0666666666666667,1.35,1109.903874791,1110.469507041,13,1109.954138166,1110.020480166,1110.493628583,1111.837003291,1,0.565632250000135
108,16,3,categorization,0,kitchen,SHINEd_sun_ahspylgoovwmwvgk.tif,93,0.05,0.0666666666666667,0.916666666666667,1111.854971166,1112.40496,13,1111.905036708,1111.970981166,1112.427274083,1113.337308166,0,0.549988834000033
108,17,3,categorization,0,kitchen,SHINEd_sun_aexklacwqwezaorf.tif,84,0.05,0.0666666666666667,0.916666666666667,1113.353688916,1114.084345291,13,1113.403758375,1113.470066958,1114.089327958,1114.999333333,0,0.730656375000081
108,18,3,categorization,0,bathroom,SHINEd_sun_agrwbmhcpmfuwmsg.tif,24,0.05,0.0666666666666667,1.31666666666667,1115.004244916,1115.499858833,9,1115.049259583,1115.110241291,1115.512302875,1116.8223415,0,0.495613916999901
108,19,3,categorization,0,kitchen,SHINEd_sun_aymvwlarqodbwuoc.tif,108,0.05,0.0666666666666667,1.45,1116.838857541,1117.322827,9,1116.888485041,1116.95518875,1117.345314708,1118.788680458,1,0.483969459000036
108,20,3,categorization,0,bathroom,SHINEd_sun_apeeialkgkuxddgh.tif,42,0.05,0.0666666666666667,0.95,1118.8061575,1119.333519875,13,1118.8561675,1118.922459,1119.362038166,1120.305426625,1,0.527362375000166
108,21,3,categorization,0,bathroom,SHINEd_sun_aspsyogrekjtfozg.tif,50,0.05,0.0666666666666667,1.38333333333333,1120.321341541,1120.9404765,13,1120.369549791,1120.43773725,1120.956567916,1122.333286958,1,0.619134958999894
108,22,3,categorization,0,bathroom,SHINEd_sun_agguqiubmwhqqunb.tif,22,0.05,0.0666666666666667,1.16666666666667,1122.349439958,1123.005839416,9,1122.399393958,1122.465754541,1123.02116175,1124.181196833,0,0.656399458000124
108,23,3,categorization,0,bathroom,SHINEd_sun_auzqhkafidnkrwmo.tif,54,0.05,0.0666666666666667,1.61666666666667,1124.196666166,1124.727541333,13,1124.246545208,1124.312750666,1124.75272,1126.362774125,1,0.530875166999976
108,24,3,categorization,0,kitchen,SHINEd_sun_ajcbwwvdlsvjyzje.tif,96,0.05,0.0666666666666667,1.38333333333333,1126.380339375,1127.008151791,9,1126.43145425,1126.49633325,1127.035967958,1128.412673958,1,0.627812416000097
108,25,3,categorization,0,bathroom,SHINEd_sun_amzlamotzwfkwjco.tif,37,0.05,0.0666666666666667,1.78333333333333,1128.430325041,1128.912275958,13,1128.480308791,1128.54647625,1128.936624916,1130.713345958,1,0.481950916999949
108,26,3,categorization,0,bathroom,SHINEd_sun_aoybiabnpadelefl.tif,41,0.05,0.0666666666666667,0.783333333333333,1130.730158958,1131.175295375,9,1130.779849958,1130.846654208,1131.20245725,1131.979176125,0,0.445136416999958
108,27,3,categorization,0,kitchen,SHINEd_sun_aarfiyshqohlwkmo.tif,67,0.05,0.0666666666666667,1.65,1131.996833708,1133.435371166,9,1132.046710083,1132.1128195,1133.449199083,1135.092553333,1,1.43853745800016
108,28,3,categorization,0,bathroom,SHINEd_sun_anhioqovhscjqqwb.tif,38,0.05,0.0666666666666667,1.86666666666667,1135.10258625,1136.167076916,13,1135.153705291,1135.219169416,1136.192398,1138.052433416,1,1.06449066599998
108,29,3,categorization,0,kitchen,SHINEd_sun_acwjdupvyjsugpay.tif,76,0.05,0.0666666666666667,1.23333333333333,1138.068571125,1139.28707275,9,1138.119911,1138.184716375,1139.30695425,1140.533676375,1,1.21850162500004
108,30,3,categorization,0,bathroom,SHINEd_sun_aqrpegblszgcoujh.tif,48,0.05,0.0666666666666667,0.7,1140.551205833,1141.524865416,13,1140.601575791,1140.667448541,1141.540374333,1142.233749,1,0.973659582999971
108,31,3,categorization,0,bathroom,SHINEd_sun_abjtwfukuwddzted.tif,15,0.05,0.0666666666666667,0.716666666666667,1142.248036208,1143.13250825,13,1142.298769583,1142.35622775,1143.141397,1143.851402166,1,0.88447204199997
108,32,3,categorization,0,bathroom,SHINEd_sun_apkruvsevgegsdwp.tif,44,0.05,0.0666666666666667,1.05,1143.857126125,1144.611608,13,1143.902249416,1143.963093208,1144.614707958,1145.6580825,1,0.75448187500001
108,33,3,categorization,0,bathroom,SHINEd_sun_acduarbnmmoglmiv.tif,16,0.05,0.0666666666666667,1.1,1145.669621583,1146.42479925,13,1145.718446916,1145.784748333,1146.43925225,1147.532626125,1,0.755177666999998
108,34,3,categorization,0,bathroom,SHINEd_sun_apkxzenqapsujocq.tif,45,0.05,0.0666666666666667,1.13333333333333,1147.549021583,1148.299387708,13,1147.599014333,1147.665510958,1148.317899541,1149.444608333,1,0.750366125000028
108,35,3,categorization,0,kitchen,SHINEd_sun_acfmftudsenhrfhy.tif,74,0.05,0.0666666666666667,1.38333333333333,1149.454952541,1150.317529791,9,1149.503072458,1149.571148541,1150.344109416,1151.720822041,1,0.862577249999958
108,36,3,categorization,0,bathroom,SHINEd_sun_aggnnqpdorgxpvce.tif,21,0.05,0.0666666666666667,1.5,1151.73941625,1152.437701041,9,1151.789440666,1151.855436541,1152.462078833,1153.955441083,0,0.698284791000106
108,37,3,categorization,0,bathroom,SHINEd_sun_atstyziqcmkahyxk.tif,51,0.05,0.0666666666666667,1.61666666666667,1153.972972416,1154.619679208,9,1154.022822416,1154.089229458,1154.644856041,1156.254894083,0,0.646706792000032
108,38,3,categorization,0,bathroom,SHINEd_sun_aapitsgbtktqubfy.tif,12,0.05,0.0666666666666667,0.983333333333333,1156.272416291,1156.797965416,13,1156.322323875,1156.388809416,1156.810791625,1157.787514666,1,0.525549124999998
108,39,3,categorization,0,bathroom,SHINEd_sun_awnqiikzaispgmwo.tif,56,0.05,0.0666666666666667,1.3,1157.804015875,1158.411945125,13,1157.849973,1157.909955666,1158.428680666,1159.722049625,1,0.607929250000097
108,40,3,categorization,0,bathroom,SHINEd_sun_axxbkopsgyouuebh.tif,58,0.05,0.0666666666666667,1.03333333333333,1159.739069291,1160.195127208,9,1159.789239916,1159.85502,1160.21107525,1161.237779041,0,0.456057916999953
108,41,3,categorization,0,kitchen,SHINEd_sun_ahpczsiumwwocjkv.tif,92,0.05,0.0666666666666667,1.45,1161.25373975,1162.043763291,9,1161.304301,1161.370001041,1162.055733291,1163.49911025,1,0.790023540999982
108,42,3,categorization,0,kitchen,SHINEd_sun_aegoxogugdkwpmpj.tif,80,0.05,0.0666666666666667,1.23333333333333,1163.515739291,1164.277464125,9,1163.565743083,1163.63222175,1164.305581958,1165.532284166,1,0.761724834000006
108,43,3,categorization,0,kitchen,SHINEd_sun_avszsnwsbuqfgzbn.tif,105,0.05,0.0666666666666667,1.26666666666667,1165.5475915,1166.315108666,13,1165.597492083,1165.6641255,1166.337237666,1167.597278041,0,0.767517166000061
108,44,3,categorization,0,kitchen,SHINEd_sun_axyyrmzcupyhlivc.tif,107,0.05,0.0666666666666667,1.03333333333333,1167.615739416,1168.161292166,13,1167.665953541,1167.732017375,1168.188812333,1169.215510833,0,0.54555275000007
108,45,3,categorization,0,bathroom,SHINEd_sun_axyrejkiiaqiurjk.tif,59,0.05,0.0666666666666667,1.31666666666667,1169.231507583,1169.883456833,13,1169.281753458,1169.347885375,1169.900539166,1171.21058525,1,0.651949250000143
108,46,3,categorization,0,bathroom,SHINEd_labelme_sfxiulhjbhlyiyt.tif,11,0.05,0.0666666666666667,1.7,1171.229954,1171.897843791,13,1171.279968625,1171.34617625,1171.919352625,1173.612718125,1,0.667889791000107
108,47,3,categorization,0,kitchen,SHINEd_sun_auticobqsbwgoppi.tif,104,0.05,0.0666666666666667,1.35,1173.630487666,1174.387677375,9,1173.680684583,1173.746915291,1174.403646916,1175.747036125,1,0.757189709000158
108,48,3,categorization,0,kitchen,SHINEd_sun_aamedkxepzlwuxes.tif,65,0.05,0.0666666666666667,0.8,1175.766342083,1176.420966291,9,1175.817508083,1175.882987458,1176.440241833,1177.233618125,1,0.654624208000087
108,49,3,categorization,0,bathroom,SHINEd_sun_aavhrsfjbserjtht.tif,13,0.05,0.0666666666666667,0.766666666666667,1177.251257,1178.099277416,9,1177.300265458,1177.368434333,1178.103990458,1178.8639965,0,0.848020416000054
108,50,3,categorization,0,kitchen,SHINEd_sun_aypmqwcualkenuoe.tif,109,0.05,0.0666666666666667,1.38333333333333,1178.868954125,1180.100192625,9,1178.913894958,1178.974923041,1180.110686875,1181.48739825,1,1.23123850000002
108,1,4,categorization,0,kitchen,SHINEd_sun_akcjzhbbjlbogpdi.tif,99,0.05,0.0666666666666667,1,1190.208586208,1191.044122916,13,1190.254385666,1190.314966458,1191.050704541,1192.044043458,0,0.835536708000063
108,2,4,categorization,0,kitchen,SHINEd_sun_aggjlwcdjsjcaemh.tif,86,0.05,0.0666666666666667,0.966666666666667,1192.048996166,1192.683846833,9,1192.094070125,1192.1550475,1192.690237541,1193.650242333,1,0.63485066699991
108,3,4,categorization,0,bathroom,SHINEd_sun_apmqjbnwghzuhhzh.tif,46,0.05,0.0666666666666667,1.75,1193.655499,1194.323579416,9,1193.700502916,1193.761465708,1194.330049791,1196.073437791,0,0.668080416000066
108,4,4,categorization,0,kitchen,SHINEd_sun_aehawpgmrlhlvcow.tif,81,0.05,0.0666666666666667,1.68333333333333,1196.088247541,1196.861102333,13,1196.138419583,1196.204350208,1196.876840208,1198.55356275,0,0.772854791999862
108,5,4,categorization,0,bathroom,SHINEd_sun_abapwbhyhkfixyex.tif,14,0.05,0.0666666666666667,1.58333333333333,1198.571820791,1199.400924333,9,1198.621764416,1198.687859833,1199.427563458,1201.004265708,0,0.829103541999984
108,6,4,categorization,0,kitchen,SHINEd_sun_ahljzhgcdpomplvg.tif,91,0.05,0.0666666666666667,1,1201.022253166,1201.773182875,9,1201.072667,1201.137317791,1201.793801958,1202.787140833,1,0.750929709000047
108,7,4,categorization,0,bathroom,SHINEd_sun_avhrdrntsqrjzccq.tif,55,0.05,0.0666666666666667,1.33333333333333,1202.792033333,1203.507253666,9,1202.837081125,1202.898064291,1203.516668291,1204.843379208,0,0.715220332999934
108,8,4,categorization,0,bathroom,SHINEd_sun_ahcvzmoyaycdoftf.tif,27,0.05,0.0666666666666667,1.26666666666667,1204.863013583,1205.539734208,13,1204.913881,1204.979908333,1205.570016125,1206.830065125,1,0.676720624999916
108,9,4,categorization,0,bathroom,SHINEd_sun_asfwthctfqerjvxr.tif,49,0.05,0.0666666666666667,0.883333333333333,1206.847984666,1207.645065125,9,1206.898608083,1206.964319375,1207.671271458,1208.547980458,0,0.797080458999972
108,10,4,categorization,0,kitchen,SHINEd_labelme_rykdqxenmhulbdn.tif,63,0.05,0.0666666666666667,1.26666666666667,1208.565237458,1209.723638416,9,1208.615232583,1208.6817825,1209.733727,1210.993771791,1,1.15840095800013
108,11,4,categorization,0,kitchen,SHINEd_sun_ajkqhtgcbgpcwrwn.tif,97,0.05,0.0666666666666667,2,1211.009475833,1211.848800916,9,1211.059165791,1211.123798333,1211.862817333,1213.856187,1,0.839325083000176
108,12,4,categorization,0,bathroom,SHINEd_sun_alkosphxlxwjwgjd.tif,34,0.05,0.0666666666666667,0.733333333333333,1213.876416958,1214.637158458,13,1213.926668625,1213.992410791,1214.66565775,1215.392329375,1,0.760741499999995
108,13,4,categorization,0,kitchen,SHINEd_sun_agzzivivdpnawacl.tif,89,0.05,0.0666666666666667,0.883333333333333,1215.397309416,1216.331697291,13,1215.442379375,1215.503330041,1216.338957666,1217.215628791,0,0.934387874999857
108,14,4,categorization,0,kitchen,SHINEd_sun_aaxxjlsuzvqlgylf.tif,68,0.05,0.0666666666666667,0.983333333333333,1217.22068725,1217.963108708,9,1217.265667458,1217.326784541,1217.979029166,1218.955700458,1,0.742421457999853
108,15,4,categorization,0,bathroom,SHINEd_sun_aunuadmjocsddsrl.tif,52,0.05,0.0666666666666667,1.56666666666667,1218.961468958,1219.651775791,9,1219.006542625,1219.067439,1219.66926875,1221.229310375,0,0.690306833000022
108,16,4,categorization,0,kitchen,SHINEd_sun_aqeaevwwwjoqhzvl.tif,101,0.05,0.0666666666666667,1.08333333333333,1221.247103583,1221.923159625,9,1221.297009583,1221.363287125,1221.953162375,1223.029865416,1,0.676056042000027
108,17,4,categorization,0,bathroom,SHINEd_sun_alotolagknyrgtsk.tif,35,0.05,0.0666666666666667,0.75,1223.042183333,1223.76728275,9,1223.089896833,1223.15727325,1223.797137416,1224.540515625,0,0.725099417000138
108,18,4,categorization,0,bathroom,SHINEd_sun_agyqfjcfkdcydepw.tif,25,0.05,0.0666666666666667,0.966666666666667,1224.556854291,1225.275884541,9,1224.606532208,1224.672678208,1225.291823833,1226.251828708,0,0.71903025000006
108,19,4,categorization,0,bathroom,SHINEd_sun_apjevzvycyhuqghb.tif,43,0.05,0.0666666666666667,1.63333333333333,1226.256805291,1226.89161175,9,1226.301959166,1226.362814166,1226.898422416,1228.525143791,0,0.634806458999947
108,20,4,categorization,0,kitchen,SHINEd_sun_admlmbcdswaszruo.tif,79,0.05,0.0666666666666667,1.46666666666667,1228.54011375,1229.565513416,9,1228.590096958,1228.652958375,1229.59284375,1231.052897625,1,1.02539966599988
108,21,4,categorization,0,kitchen,SHINEd_sun_aapllqyqlykszopd.tif,66,0.05,0.0666666666666667,0.933333333333333,1231.070381916,1231.680618666,13,1231.119347916,1231.186467333,1231.7099565,1232.636656333,0,0.610236750000013
108,22,4,categorization,0,kitchen,SHINEd_labelme_kxvouciolcpqplr.tif,62,0.05,0.0666666666666667,1.45,1232.64492125,1233.300028791,9,1232.690830333,1232.751017916,1233.319809583,1234.763222041,1,0.655107541000007
108,23,4,categorization,0,kitchen,SHINEd_sun_aeqdocilnnpuvuhx.tif,83,0.05,0.0666666666666667,0.966666666666667,1234.7798525,1235.417531125,9,1234.830126125,1234.895953416,1235.435907583,1236.395958625,1,0.637678625000035
108,24,4,categorization,0,kitchen,SHINEd_sun_abpwyqmlzafvklqo.tif,72,0.05,0.0666666666666667,0.816666666666667,1236.408493208,1236.979543875,9,1236.453702125,1236.515017916,1236.984050333,1237.794055791,1,0.571050667000009
108,25,4,categorization,0,bathroom,SHINEd_sun_apynckhmoftszqoq.tif,47,0.05,0.0666666666666667,1.96666666666667,1237.798897791,1238.403748916,13,1237.843930791,1237.904864,1238.423560708,1240.383598625,1,0.604851125000096
108,26,4,categorization,0,bathroom,SHINEd_sun_akiytfaagpdsphgz.tif,31,0.05,0.0666666666666667,0.916666666666667,1240.401954041,1241.143138,9,1240.452239541,1240.51841775,1241.156347875,1242.066353208,0,0.741183958999954
108,27,4,categorization,0,bathroom,SHINEd_sun_aljolscmmzydegqp.tif,33,0.05,0.0666666666666667,1.28333333333333,1242.071404,1242.907611041,9,1242.116459791,1242.177441958,1242.912842,1244.189541083,0,0.83620704100008
108,28,4,categorization,0,kitchen,SHINEd_sun_aixorpehvfykdynp.tif,95,0.05,0.0666666666666667,1.8,1244.208212333,1244.964720625,13,1244.258313458,1244.324174958,1244.979743791,1246.773120875,0,0.756508292000035
108,29,4,categorization,0,bathroom,SHINEd_sun_aclfzgynxzxlbepz.tif,19,0.05,0.0666666666666667,1.33333333333333,1246.790894125,1247.518914625,13,1246.840795166,1246.906896375,1247.546575125,1248.873292166,1,0.728020499999957
108,30,4,categorization,0,kitchen,SHINEd_sun_acxkpeoqbwcxfvip.tif,77,0.05,0.0666666666666667,1.06666666666667,1248.890625583,1249.476907458,13,1248.939782291,1249.004317416,1249.493419916,1250.553461291,0,0.586281874999941
108,31,4,categorization,0,bathroom,SHINEd_sun_aleqenyvunhactkl.tif,32,0.05,0.0666666666666667,1.03333333333333,1250.567206166,1251.155827916,13,1250.617293708,1250.674711041,1251.159815791,1252.186524041,1,0.588621749999902
108,32,4,categorization,0,kitchen,SHINEd_sun_awcpdzzznmweyyhv.tif,106,0.05,0.0666666666666667,0.733333333333333,1252.197841416,1252.913806291,9,1252.24603225,1252.312995708,1252.936305375,1253.663028208,1,0.715964874999827
108,33,4,categorization,0,kitchen,SHINEd_sun_amjjdeyrggfqgmom.tif,100,0.05,0.0666666666666667,0.766666666666667,1253.679362875,1254.339648541,13,1253.72910725,1253.795472375,1254.34790625,1255.107911875,0,0.660285666000163
108,34,4,categorization,0,kitchen,SHINEd_sun_aenotlpyftoioydp.tif,82,0.05,0.0666666666666667,1.1,1255.112863208,1255.867594708,9,1255.157988041,1255.218849375,1255.8705185,1256.963892416,1,0.754731500000162
108,35,4,categorization,0,kitchen,SHINEd_sun_abdxkyyxwfskuaqb.tif,70,0.05,0.0666666666666667,1.81666666666667,1256.974767541,1257.827765166,9,1257.022689125,1257.085530166,1257.841188416,1259.651238208,1,0.852997625000171
108,36,4,categorization,0,kitchen,SHINEd_sun_agorklincwxrdtga.tif,87,0.05,0.0666666666666667,0.883333333333333,1259.668965083,1260.265347916,9,1259.719134666,1259.784956541,1260.291266708,1261.167939458,1,0.596382833000007
108,37,4,categorization,0,kitchen,SHINEd_labelme_brsyyvweiuaazfr.tif,61,0.05,0.0666666666666667,1.7,1261.172966166,1262.723221166,13,1261.217928,1261.278966125,1262.731221041,1264.4246095,0,1.55025500000011
108,38,4,categorization,0,kitchen,SHINEd_sun_akchetnepxlcxhsu.tif,98,0.05,0.0666666666666667,1.58333333333333,1264.441642666,1265.151124458,9,1264.492353333,1264.557790458,1265.162462166,1266.739163625,1,0.709481791999906
108,39,4,categorization,0,kitchen,SHINEd_sun_ahywdevtimnqcsln.tif,94,0.05,0.0666666666666667,0.833333333333333,1266.757110666,1267.38964325,9,1266.806913875,1266.873050791,1267.413104541,1268.239819291,1,0.632532584000046
108,40,4,categorization,0,bathroom,SHINEd_sun_acegryoqftbzowsg.tif,17,0.05,0.0666666666666667,0.95,1268.255712,1269.139832833,9,1268.301681166,1268.361762291,1269.146797083,1270.090134166,0,0.884120832999997
108,41,4,categorization,0,bathroom,SHINEd_sun_afcoljnjfoxjtgja.tif,20,0.05,0.0666666666666667,1.06666666666667,1270.095029041,1271.059686041,9,1270.139957,1270.201005291,1271.069784625,1272.129818125,0,0.964656999999988
108,42,4,categorization,0,kitchen,SHINEd_sun_auaiucuqpdausiva.tif,102,0.05,0.0666666666666667,1.68333333333333,1272.138589708,1273.007212166,9,1272.18684125,1272.252654333,1273.025364291,1274.702066375,1,0.868622458000118
108,43,4,categorization,0,bathroom,SHINEd_sun_anryaplzeujmzfkd.tif,39,0.05,0.0666666666666667,1.31666666666667,1274.719614458,1275.4492345,9,1274.769598875,1274.835865166,1275.475854708,1276.785903625,0,0.729620042000079
108,44,4,categorization,0,kitchen,SHINEd_sun_aunzlwrbjumxhwdj.tif,103,0.05,0.0666666666666667,1.61666666666667,1276.803919791,1277.574197916,9,1276.853734708,1276.920485833,1277.5933605,1279.203399125,1,0.770278125000004
108,45,4,categorization,0,kitchen,SHINEd_sun_abdenxonkemggwsq.tif,69,0.05,0.0666666666666667,1.15,1279.220866166,1279.928188541,9,1279.27018675,1279.337194166,1279.942528916,1281.085904416,1,0.707322375000103
108,46,4,categorization,0,kitchen,SHINEd_sun_agubuxuukhzyzpdp.tif,88,0.05,0.0666666666666667,1.25,1281.095713666,1281.688096416,9,1281.143902583,1281.212018083,1281.718364208,1282.961735208,1,0.59238275000007
108,47,4,categorization,0,bathroom,SHINEd_sun_aofnryafpsjimzsb.tif,40,0.05,0.0666666666666667,1.1,1282.979287416,1283.626775625,9,1283.025309666,1283.085376041,1283.637395333,1284.730773,0,0.647488208999903
108,48,4,categorization,0,bathroom,SHINEd_sun_ausgutylgojavyoq.tif,53,0.05,0.0666666666666667,0.9,1284.739989541,1285.520599916,9,1284.787629416,1284.853984958,1285.543893791,1286.437271625,0,0.780610374999924
108,49,4,categorization,0,bathroom,SHINEd_sun_ahaulkltgpkeeemi.tif,26,0.05,0.0666666666666667,1.3,1286.45334175,1287.507171541,9,1286.503187666,1286.569332291,1287.521214458,1288.814594208,0,1.053829791
108,50,4,categorization,0,bathroom,SHINEd_sun_ahqjwnzgolcaoidx.tif,29,0.05,0.0666666666666667,1.25,1288.832363833,1289.603882666,13,1288.882053625,1288.948704625,1289.62136375,1290.864741833,1,0.771518832999845
108,1,5,categorization,0,bathroom,SHINEd_sun_ahaulkltgpkeeemi.tif,26,0.05,0.0666666666666667,1.7,1300.61282325,1301.283359041,13,1300.658881958,1300.718920458,1301.287503708,1302.980870708,1,0.67053579100002
108,2,5,categorization,0,kitchen,SHINEd_sun_adgqasybjyktddhj.tif,78,0.05,0.0666666666666667,1.81666666666667,1302.997342916,1303.50964,9,1303.047410541,1303.109139916,1303.532425166,1305.342457708,1,0.512297084000011
108,3,5,categorization,0,kitchen,SHINEd_sun_auticobqsbwgoppi.tif,104,0.05,0.0666666666666667,1.23333333333333,1305.3632735,1305.936692041,13,1305.412854375,1305.479184791,1305.9513555,1307.1780635,0,0.57341854099991
108,4,5,categorization,0,kitchen,SHINEd_sun_afuyedyxivkhecmu.tif,85,0.05,0.0666666666666667,1.4,1307.189298208,1307.835755958,9,1307.239176625,1307.305341958,1307.862156916,1309.255546208,1,0.646457749999854
108,5,5,categorization,0,bathroom,SHINEd_sun_auzqhkafidnkrwmo.tif,54,0.05,0.0666666666666667,1.03333333333333,1309.273679875,1309.823829625,9,1309.3229995,1309.390023916,1309.846502625,1310.873204583,0,0.550149749999946
108,6,5,categorization,0,kitchen,SHINEd_sun_aeqdocilnnpuvuhx.tif,83,0.05,0.0666666666666667,1.38333333333333,1310.887262041,1311.523634166,13,1310.937210166,1310.995410625,1311.530767166,1312.907476958,0,0.63637212499998
108,7,5,categorization,0,kitchen,SHINEd_sun_aymvwlarqodbwuoc.tif,108,0.05,0.0666666666666667,2,1312.924067041,1313.475088833,13,1312.973908416,1313.039998041,1313.4965885,1315.4899575,0,0.551021792000029
108,8,5,categorization,0,kitchen,SHINEd_sun_aaxxjlsuzvqlgylf.tif,68,0.05,0.0666666666666667,1.85,1315.507158541,1316.240797708,9,1315.55697275,1315.623069041,1316.263038291,1318.106412916,1,0.733639166999865
108,9,5,categorization,0,bathroom,SHINEd_sun_agyqfjcfkdcydepw.tif,25,0.05,0.0666666666666667,0.816666666666667,1318.123968708,1318.919278458,13,1318.173863625,1318.239923041,1318.946235458,1319.756241916,1,0.795309750000115
108,10,5,categorization,0,bathroom,SHINEd_sun_aapitsgbtktqubfy.tif,12,0.05,0.0666666666666667,1.85,1319.761835416,1320.331629625,13,1319.806769416,1319.867844666,1320.336290416,1322.179677708,1,0.569794209000065
108,11,5,categorization,0,bathroom,SHINEd_sun_aavhrsfjbserjtht.tif,13,0.05,0.0666666666666667,0.733333333333333,1322.196812291,1322.644837625,9,1322.246843166,1322.313296166,1322.669744708,1323.396444458,0,0.448025334000022
108,12,5,categorization,0,kitchen,SHINEd_sun_ajcbwwvdlsvjyzje.tif,96,0.05,0.0666666666666667,0.716666666666667,1323.411969791,1324.330977416,13,1323.458405833,1323.51876425,1324.33749075,1325.047494791,0,0.919007624999949
108,13,5,categorization,0,kitchen,SHINEd_sun_ahywdevtimnqcsln.tif,94,0.05,0.0666666666666667,0.833333333333333,1325.053035583,1325.64271275,13,1325.098066791,1325.158984083,1325.660845875,1326.487519,0,0.589677166999991
108,14,5,categorization,0,bathroom,SHINEd_sun_aggnnqpdorgxpvce.tif,21,0.05,0.0666666666666667,0.95,1326.493959458,1327.05953975,9,1326.539227625,1326.599957583,1327.068682583,1328.012019166,0,0.56558029200005
108,15,5,categorization,0,bathroom,SHINEd_sun_apynckhmoftszqoq.tif,47,0.05,0.0666666666666667,1.96666666666667,1328.016980416,1328.499346708,9,1328.062056333,1328.123041791,1328.508194291,1330.46823325,0,0.482366292000052
108,16,5,categorization,0,kitchen,SHINEd_sun_agzzivivdpnawacl.tif,89,0.05,0.0666666666666667,1.86666666666667,1330.485300333,1331.101988166,13,1330.5356725,1330.601505791,1331.123219625,1332.983270958,0,0.616687833000015
108,17,5,categorization,0,bathroom,SHINEd_sun_agrwbmhcpmfuwmsg.tif,24,0.05,0.0666666666666667,1.51666666666667,1333.002191041,1333.631199583,9,1333.051911083,1333.117123833,1333.656973166,1335.167023875,0,0.629008541999838
108,18,5,categorization,0,kitchen,SHINEd_sun_aypmqwcualkenuoe.tif,109,0.05,0.0666666666666667,1.3,1335.185248333,1335.680458041,9,1335.23561775,1335.301017833,1335.707458125,1337.000827708,1,0.495209708000175
108,19,5,categorization,0,bathroom,SHINEd_sun_aofnryafpsjimzsb.tif,40,0.05,0.0666666666666667,1.91666666666667,1337.018878041,1337.620697708,9,1337.068948791,1337.134741666,1337.640834791,1339.550877458,0,0.601819666999972
108,20,5,categorization,0,bathroom,SHINEd_sun_apmqjbnwghzuhhzh.tif,46,0.05,0.0666666666666667,1.23333333333333,1339.568637458,1340.01505325,13,1339.618533166,1339.684669708,1340.04099725,1341.267715541,1,0.446415791999925
108,21,5,categorization,0,kitchen,SHINEd_sun_axyyrmzcupyhlivc.tif,107,0.05,0.0666666666666667,0.866666666666667,1341.283287708,1341.834739958,13,1341.333385,1341.399559208,1341.856292333,1342.716341416,0,0.551452250000011
108,22,5,categorization,0,kitchen,SHINEd_sun_aehawpgmrlhlvcow.tif,81,0.05,0.0666666666666667,0.8,1342.732060166,1343.243101541,13,1342.781966,1342.846024166,1343.247925541,1344.041264458,0,0.511041374999877
108,23,5,categorization,0,bathroom,SHINEd_sun_anhioqovhscjqqwb.tif,38,0.05,0.0666666666666667,1.51666666666667,1344.045909375,1344.827594333,13,1344.090922458,1344.152010041,1344.837638708,1346.347689041,1,0.781684957999914
108,24,5,categorization,0,kitchen,SHINEd_sun_acgtpgfybqjmzeyw.tif,75,0.05,0.0666666666666667,1.18333333333333,1346.364368791,1347.310031708,9,1346.414248375,1346.480382708,1347.336898916,1348.513617583,1,0.945662916999936
108,25,5,categorization,0,kitchen,SHINEd_sun_acwjdupvyjsugpay.tif,76,0.05,0.0666666666666667,1.6,1348.525031666,1348.938527041,9,1348.574660875,1348.641879291,1348.964348875,1350.557740333,1,0.413495375000139
108,26,5,categorization,0,bathroom,SHINEd_sun_aoybiabnpadelefl.tif,41,0.05,0.0666666666666667,1.56666666666667,1350.576042791,1351.160085541,9,1350.625910708,1350.691952125,1351.181958375,1352.741999583,0,0.584042749999981
108,27,5,categorization,0,kitchen,SHINEd_sun_akchetnepxlcxhsu.tif,98,0.05,0.0666666666666667,1.36666666666667,1352.759848416,1353.338647541,9,1352.81001225,1352.87602325,1353.36592675,1354.725970125,1,0.578799124999932
108,28,5,categorization,0,bathroom,SHINEd_sun_axxbkopsgyouuebh.tif,58,0.05,0.0666666666666667,1.53333333333333,1354.738479416,1355.336168,9,1354.786646166,1354.852543458,1355.35859325,1356.885295166,0,0.597688584000025
108,29,5,categorization,0,bathroom,SHINEd_sun_amzlamotzwfkwjco.tif,37,0.05,0.0666666666666667,1.4,1356.903318958,1357.619782416,13,1356.952993833,1357.019389583,1357.642620875,1359.035986125,1,0.716463457999907
108,30,5,categorization,0,bathroom,SHINEd_sun_aspsyogrekjtfozg.tif,50,0.05,0.0666666666666667,1.06666666666667,1359.053760666,1359.656828958,13,1359.101052166,1359.169539833,1359.67585025,1360.735902666,1,0.603068291999989
108,31,5,categorization,0,kitchen,SHINEd_sun_aixorpehvfykdynp.tif,95,0.05,0.0666666666666667,1.63333333333333,1360.751627416,1361.442518375,9,1360.801600916,1360.862964291,1361.448131416,1363.074847916,1,0.690890958999944
108,32,5,categorization,0,bathroom,SHINEd_sun_afcoljnjfoxjtgja.tif,20,0.05,0.0666666666666667,1.8,1363.085254875,1363.77192775,13,1363.132890291,1363.201219916,1363.790378166,1365.583754666,1,0.686672875000113
108,33,5,categorization,0,bathroom,SHINEd_sun_avhrdrntsqrjzccq.tif,55,0.05,0.0666666666666667,1.53333333333333,1365.600961083,1366.228697166,9,1365.651169833,1365.716682958,1366.256658583,1367.783371083,0,0.627736083000173
108,34,5,categorization,0,bathroom,SHINEd_sun_azqyogdvyhahyram.tif,60,0.05,0.0666666666666667,0.766666666666667,1367.801430166,1368.283979875,9,1367.851312666,1367.917387041,1368.307235833,1369.067288458,0,0.482549709000068
108,35,5,categorization,0,kitchen,SHINEd_sun_admlmbcdswaszruo.tif,79,0.05,0.0666666666666667,1.86666666666667,1369.081727666,1369.906397291,9,1369.130117333,1369.197627458,1369.916772541,1371.776804083,1,0.82466962500007
108,36,5,categorization,0,kitchen,SHINEd_sun_abftihopvusyfakt.tif,71,0.05,0.0666666666666667,1.13333333333333,1371.795585583,1372.418633208,9,1371.845639333,1371.911502083,1372.433693958,1373.56054925,1,0.623047625000027
108,37,5,categorization,0,kitchen,SHINEd_sun_ahpczsiumwwocjkv.tif,92,0.05,0.0666666666666667,1.73333333333333,1373.571005583,1374.0748045,9,1373.619095541,1373.686975291,1374.092641958,1375.819356041,1,0.50379891700004
108,38,5,categorization,0,bathroom,SHINEd_sun_aljolscmmzydegqp.tif,33,0.05,0.0666666666666667,0.766666666666667,1375.836126083,1376.621650083,9,1375.884716791,1375.951956916,1376.641804833,1377.401845916,0,0.785524000000123
108,39,5,categorization,0,bathroom,SHINEd_sun_ahqjwnzgolcaoidx.tif,29,0.05,0.0666666666666667,1.85,1377.418033333,1378.178496375,9,1377.46783525,1377.533486291,1378.185825833,1380.029212458,0,0.760463041999856
108,40,5,categorization,0,kitchen,SHINEd_sun_aarfiyshqohlwkmo.tif,67,0.05,0.0666666666666667,0.966666666666667,1380.045619166,1380.741134416,9,1380.095511333,1380.16209275,1380.768437916,1381.728443916,1,0.695515249999971
108,41,5,categorization,0,bathroom,SHINEd_sun_acduarbnmmoglmiv.tif,16,0.05,0.0666666666666667,1.06666666666667,1381.734205041,1382.339385875,9,1381.779404458,1381.840272,1382.359006333,1383.419055708,0,0.605180834000066
108,42,5,categorization,0,bathroom,SHINEd_sun_alkosphxlxwjwgjd.tif,34,0.05,0.0666666666666667,1.38333333333333,1383.428635041,1384.138247083,9,1383.477311416,1383.542919291,1384.166107916,1385.542807291,0,0.70961204199989
108,43,5,categorization,0,kitchen,SHINEd_labelme_brsyyvweiuaazfr.tif,61,0.05,0.0666666666666667,0.766666666666667,1385.552639958,1386.306313166,13,1385.601284041,1385.668725791,1386.324575791,1387.084620083,0,0.753673208000009
108,44,5,categorization,0,kitchen,SHINEd_sun_abpwyqmlzafvklqo.tif,72,0.05,0.0666666666666667,0.866666666666667,1387.094194333,1387.787312541,13,1387.142044,1387.210099958,1387.795916708,1388.655920708,0,0.693118207999987
108,45,5,categorization,0,bathroom,SHINEd_sun_aghyqhbptboemmoq.tif,23,0.05,0.0666666666666667,1.25,1388.660935041,1389.354754916,13,1388.705924083,1388.766885541,1389.368834666,1390.612213,1,0.693819875000145
108,46,5,categorization,0,kitchen,SHINEd_sun_aegoxogugdkwpmpj.tif,80,0.05,0.0666666666666667,1.03333333333333,1390.628917583,1391.791302958,9,1390.678773416,1390.744961,1391.818120958,1392.844818208,1,1.16238537499999
108,47,5,categorization,0,kitchen,SHINEd_sun_aenotlpyftoioydp.tif,82,0.05,0.0666666666666667,0.783333333333333,1392.857056208,1393.495316666,9,1392.904900708,1392.972561583,1393.511731541,1394.288447625,1,0.638260458000104
108,48,5,categorization,0,bathroom,SHINEd_sun_axyrejkiiaqiurjk.tif,59,0.05,0.0666666666666667,0.7,1394.304449458,1395.090617625,9,1394.354212333,1394.420869541,1395.10670175,1395.800039291,0,0.786168167000142
108,49,5,categorization,0,kitchen,SHINEd_sun_ahljzhgcdpomplvg.tif,91,0.05,0.0666666666666667,1.75,1395.80511075,1396.698385916,9,1395.850109375,1395.911105083,1396.713684791,1398.457074916,1,0.893275165999967
108,50,5,categorization,0,bathroom,SHINEd_sun_apkxzenqapsujocq.tif,45,0.05,0.0666666666666667,1.36666666666667,1398.474945125,1399.174656333,9,1398.5250185,1398.59122675,1399.198420125,1400.558473166,0,0.699711208000053
108,1,6,categorization,0,kitchen,SHINEd_sun_abdenxonkemggwsq.tif,69,0.05,0.0666666666666667,0.966666666666667,1424.085631,1424.6907425,13,1424.131537541,1424.191925666,1424.71080975,1425.670816833,0,0.605111500000021
108,2,6,categorization,0,kitchen,SHINEd_sun_acfmftudsenhrfhy.tif,74,0.05,0.0666666666666667,1.73333333333333,1425.677146333,1426.194753583,13,1425.722141666,1425.783076125,1426.201739625,1427.928441791,0,0.517607249999855
108,3,6,categorization,0,bathroom,SHINEd_sun_ausgutylgojavyoq.tif,53,0.05,0.0666666666666667,1.91666666666667,1427.94551075,1428.506667583,13,1427.995310208,1428.06190725,1428.535297041,1430.445331,1,0.561156833000041
108,4,6,categorization,0,kitchen,SHINEd_sun_aapllqyqlykszopd.tif,66,0.05,0.0666666666666667,0.766666666666667,1430.462145166,1431.060480708,13,1430.512239708,1430.578375833,1431.083381375,1431.843387166,0,0.598335541999859
108,5,6,categorization,0,bathroom,SHINEd_sun_acegryoqftbzowsg.tif,17,0.05,0.0666666666666667,0.916666666666667,1431.849208583,1432.602188666,9,1431.894222416,1431.955253041,1432.607115458,1433.517120625,0,0.752980083000011
108,6,6,categorization,0,bathroom,SHINEd_sun_abjtwfukuwddzted.tif,15,0.05,0.0666666666666667,1.18333333333333,1433.52284925,1434.322439416,13,1433.567869166,1433.628839041,1434.331065583,1435.507769291,1,0.799590165999916
108,7,6,categorization,0,kitchen,SHINEd_sun_akcjzhbbjlbogpdi.tif,99,0.05,0.0666666666666667,1.8,1435.518338625,1436.2120405,9,1435.568076291,1435.634399,1436.241053791,1438.034421333,1,0.693701874999988
108,8,6,categorization,0,kitchen,SHINEd_sun_ahspylgoovwmwvgk.tif,93,0.05,0.0666666666666667,0.883333333333333,1438.052124416,1439.80248425,9,1438.101952041,1438.168596875,1439.821240458,1440.697911875,1,1.75035983399994
108,9,6,categorization,0,bathroom,SHINEd_sun_asfwthctfqerjvxr.tif,49,0.05,0.0666666666666667,1.83333333333333,1440.703582375,1441.37030975,13,1440.748674333,1440.809605208,1441.378292333,1443.205008125,1,0.666727374999937
108,10,6,categorization,0,kitchen,SHINEd_sun_ahdycvpopffkzzsu.tif,90,0.05,0.0666666666666667,1.76666666666667,1443.222842291,1443.982166375,13,1443.272619666,1443.338897083,1444.012115125,1445.772168625,0,0.7593240839999
108,11,6,categorization,0,kitchen,SHINEd_sun_aexklacwqwezaorf.tif,84,0.05,0.0666666666666667,0.983333333333333,1445.790992583,1446.436048791,13,1445.840716458,1445.906790791,1446.463028291,1447.439701458,0,0.645056208000142
108,12,6,categorization,0,kitchen,SHINEd_sun_aggjlwcdjsjcaemh.tif,86,0.05,0.0666666666666667,0.883333333333333,1447.445449166,1448.162413583,9,1447.490379,1447.551496583,1448.170006833,1449.046678375,1,0.716964417000099
108,13,6,categorization,0,kitchen,SHINEd_sun_awcpdzzznmweyyhv.tif,106,0.05,0.0666666666666667,0.85,1449.052340791,1449.7221735,9,1449.097317375,1449.158342333,1449.727252291,1450.570591708,1,0.669832709000048
108,14,6,categorization,0,kitchen,SHINEd_sun_aamedkxepzlwuxes.tif,65,0.05,0.0666666666666667,0.733333333333333,1450.576958125,1451.186618791,9,1450.621949333,1450.682935875,1451.20152975,1451.928202291,1,0.609660666000082
108,15,6,categorization,0,bathroom,SHINEd_sun_anryaplzeujmzfkd.tif,39,0.05,0.0666666666666667,1.88333333333333,1451.933860458,1452.635079875,9,1451.9788285,1452.040079041,1452.641916458,1454.518619,0,0.701219416999947
108,16,6,categorization,0,bathroom,SHINEd_sun_awnqiikzaispgmwo.tif,56,0.05,0.0666666666666667,0.816666666666667,1454.536267875,1455.540978958,13,1454.586220833,1454.652582458,1455.558727791,1456.36873275,1,1.00471108300007
108,17,6,categorization,0,kitchen,SHINEd_sun_agorklincwxrdtga.tif,87,0.05,0.0666666666666667,1.9,1456.37412975,1456.939057291,9,1456.419122625,1456.480173833,1456.948836,1458.842219833,1,0.564927540999861
108,18,6,categorization,0,bathroom,SHINEd_sun_abapwbhyhkfixyex.tif,14,0.05,0.0666666666666667,0.983333333333333,1458.862000708,1459.308846708,9,1458.912068291,1458.978214,1459.33476975,1460.311441791,0,0.446845999999823
108,19,6,categorization,0,bathroom,SHINEd_sun_acgyywnybuveqsro.tif,18,0.05,0.0666666666666667,0.75,1460.31714875,1460.834877666,9,1460.362269041,1460.423077166,1460.841654041,1461.58499275,0,0.517728916000124
108,20,6,categorization,0,bathroom,SHINEd_sun_alotolagknyrgtsk.tif,35,0.05,0.0666666666666667,1.6,1461.590474333,1462.210688166,9,1461.635376833,1461.696487208,1462.215306333,1463.808677208,0,0.62021383299998
108,21,6,categorization,0,bathroom,SHINEd_sun_aqrpegblszgcoujh.tif,48,0.05,0.0666666666666667,1.58333333333333,1463.82854,1464.437533625,9,1463.878616041,1463.944501458,1464.467585083,1466.044298958,0,0.608993625000039
108,22,6,categorization,0,kitchen,SHINEd_labelme_rykdqxenmhulbdn.tif,63,0.05,0.0666666666666667,1.11666666666667,1466.062029208,1466.60782925,13,1466.111995083,1466.177962916,1466.634648791,1467.744686291,0,0.545800041999883
108,23,6,categorization,0,kitchen,SHINEd_sun_abrcnpqqhmjwekyf.tif,73,0.05,0.0666666666666667,1.53333333333333,1467.756380833,1468.298493208,13,1467.804863875,1467.872420875,1468.328891333,1469.855598583,0,0.542112374999988
108,24,6,categorization,0,bathroom,SHINEd_sun_ambriybtogmepttm.tif,36,0.05,0.0666666666666667,1.48333333333333,1469.867332083,1470.308104541,9,1469.9173565,1469.983486083,1470.321506958,1471.798217208,0,0.440772457999856
108,25,6,categorization,0,kitchen,SHINEd_sun_acxkpeoqbwcxfvip.tif,77,0.05,0.0666666666666667,1.1,1471.815925916,1472.306297833,9,1471.865826208,1471.923397541,1472.325260125,1473.418642208,1,0.490371916999948
108,26,6,categorization,0,bathroom,SHINEd_sun_aclfzgynxzxlbepz.tif,19,0.05,0.0666666666666667,0.933333333333333,1473.428242041,1474.234105166,13,1473.476318333,1473.544551416,1474.250614125,1475.177315125,1,0.805863125000087
108,27,6,categorization,0,bathroom,SHINEd_sun_axldvoqbuvuggfmq.tif,57,0.05,0.0666666666666667,0.816666666666667,1475.194884208,1476.322114875,9,1475.245331666,1475.306113708,1476.341991333,1477.151996,0,1.12723066699982
108,28,6,categorization,0,kitchen,SHINEd_sun_ajkqhtgcbgpcwrwn.tif,97,0.05,0.0666666666666667,1.78333333333333,1477.156761125,1478.386483833,9,1477.201748875,1477.262771291,1478.398337875,1480.175042333,1,1.22972270800005
108,29,6,categorization,0,bathroom,SHINEd_sun_atstyziqcmkahyxk.tif,51,0.05,0.0666666666666667,0.766666666666667,1480.192266458,1480.920129166,13,1480.243736958,1480.308649833,1480.948834,1481.708839958,1,0.727862707999975
108,30,6,categorization,0,kitchen,SHINEd_sun_amjjdeyrggfqgmom.tif,100,0.05,0.0666666666666667,1.45,1481.714614291,1482.553995875,13,1481.759617708,1481.820541208,1482.572594208,1484.015991083,0,0.839381583999966
108,31,6,categorization,0,bathroom,SHINEd_sun_apeeialkgkuxddgh.tif,42,0.05,0.0666666666666667,0.75,1484.033569083,1484.812663333,13,1484.082028291,1484.149685,1484.837982416,1485.581369791,1,0.779094250000071
108,32,6,categorization,0,bathroom,SHINEd_sun_aleqenyvunhactkl.tif,32,0.05,0.0666666666666667,1.36666666666667,1485.599304208,1486.377853,13,1485.64562325,1485.705501416,1486.390713541,1487.750766083,1,0.778548792000038
108,33,6,categorization,0,kitchen,SHINEd_sun_aqeaevwwwjoqhzvl.tif,101,0.05,0.0666666666666667,0.75,1487.76985075,1488.484489166,9,1487.8202195,1487.887196166,1488.510828375,1489.2542015,1,0.714638416000071
108,34,6,categorization,0,kitchen,SHINEd_labelme_kxvouciolcpqplr.tif,62,0.05,0.0666666666666667,0.783333333333333,1489.272057541,1490.33809675,13,1489.322408083,1489.388212416,1490.3585335,1491.13520475,0,1.06603920899988
108,35,6,categorization,0,kitchen,SHINEd_sun_azmutvzbxypaceni.tif,110,0.05,0.0666666666666667,1.11666666666667,1491.139637125,1492.042393333,13,1491.184788333,1491.245628625,1492.047680958,1493.157737833,0,0.902756208000028
108,36,6,categorization,0,bathroom,SHINEd_sun_ahcvzmoyaycdoftf.tif,27,0.05,0.0666666666666667,0.766666666666667,1493.170689,1493.7718385,13,1493.218909208,1493.286159125,1493.792368375,1494.552413583,1,0.60114950000002
108,37,6,categorization,0,kitchen,SHINEd_sun_abdxkyyxwfskuaqb.tif,70,0.05,0.0666666666666667,0.716666666666667,1494.569262,1495.386354708,13,1494.619265708,1494.685052458,1495.403661833,1496.11366625,0,0.817092708000018
108,38,6,categorization,0,bathroom,SHINEd_labelme_sfxiulhjbhlyiyt.tif,11,0.05,0.0666666666666667,1.33333333333333,1496.119197458,1496.698457041,13,1496.164130208,1496.225273541,1496.71040525,1498.03710275,1,0.579259583000066
108,39,6,categorization,0,kitchen,SHINEd_sun_agubuxuukhzyzpdp.tif,88,0.05,0.0666666666666667,1.75,1498.052389166,1498.702373125,13,1498.102303708,1498.168518,1498.724985833,1500.468359583,0,0.649983958999883
108,40,6,categorization,0,bathroom,SHINEd_sun_agguqiubmwhqqunb.tif,22,0.05,0.0666666666666667,1.13333333333333,1500.484213958,1501.014263375,13,1500.533965333,1500.600238458,1501.040140875,1502.166838708,1,0.530049416999873
108,41,6,categorization,0,bathroom,SHINEd_sun_akiytfaagpdsphgz.tif,31,0.05,0.0666666666666667,1.63333333333333,1502.1768565,1502.83944,13,1502.225402208,1502.293113625,1502.866235291,1504.492943083,1,0.662583499999982
108,42,6,categorization,0,bathroom,SHINEd_sun_aunuadmjocsddsrl.tif,52,0.05,0.0666666666666667,1.43333333333333,1504.510863166,1505.067369083,13,1504.560831625,1504.627179916,1505.081029166,1506.507732333,1,0.556505916999868
108,43,6,categorization,0,kitchen,SHINEd_sun_aadbddgrdsjugojn.tif,64,0.05,0.0666666666666667,1.83333333333333,1506.525049583,1507.177933416,13,1506.575190208,1506.641177416,1507.197443666,1509.02416025,0,0.652883833000033
108,44,6,categorization,0,bathroom,SHINEd_sun_ajlawzvmubibwbpy.tif,30,0.05,0.0666666666666667,1.93333333333333,1509.042395041,1509.717797291,9,1509.090651083,1509.157848666,1509.729740416,1511.656462041,0,0.675402249999934
108,45,6,categorization,0,bathroom,SHINEd_sun_apkruvsevgegsdwp.tif,44,0.05,0.0666666666666667,1.26666666666667,1511.674437375,1512.6457295,9,1511.7242445,1511.790608791,1512.663439916,1513.923482,0,0.971292124999991
108,46,6,categorization,0,bathroom,SHINEd_sun_apjevzvycyhuqghb.tif,43,0.05,0.0666666666666667,1.86666666666667,1513.941393541,1514.469517375,9,1513.991061958,1514.057788291,1514.497787125,1516.357822041,0,0.528123833999871
108,47,6,categorization,0,kitchen,SHINEd_sun_aunzlwrbjumxhwdj.tif,103,0.05,0.0666666666666667,1.41666666666667,1516.378344208,1516.9911045,9,1516.428217375,1516.494376333,1517.018082791,1518.42814,1,0.612760291999848
108,48,6,categorization,0,kitchen,SHINEd_sun_avszsnwsbuqfgzbn.tif,105,0.05,0.0666666666666667,1.11666666666667,1518.446291375,1519.1016365,9,1518.496967166,1518.562611458,1519.117172916,1520.227225708,1,0.65534512499994
108,49,6,categorization,0,kitchen,SHINEd_sun_auaiucuqpdausiva.tif,102,0.05,0.0666666666666667,1.8,1520.2449245,1520.84727375,9,1520.294792708,1520.361205166,1520.867819416,1522.6611975,1,0.602349250000088
108,50,6,categorization,0,bathroom,SHINEd_sun_ahijqszoswveeyji.tif,28,0.05,0.0666666666666667,1.25,1522.678739625,1523.356201958,13,1522.728931791,1522.794910583,1523.38375975,1524.627146708,1,0.677462332999994
108,1,7,categorization,0,kitchen,SHINEd_sun_aarfiyshqohlwkmo.tif,67,0.05,0.0666666666666667,0.883333333333333,1531.078022333,1532.329961208,13,1531.123869833,1531.184020541,1532.336362458,1533.213035125,0,1.25193887499995
108,2,7,categorization,0,bathroom,SHINEd_sun_ahcvzmoyaycdoftf.tif,27,0.05,0.0666666666666667,1.03333333333333,1533.217601458,1533.985652625,13,1533.26258875,1533.323535125,1533.992046666,1535.018749791,1,0.768051167000067
108,3,7,categorization,0,kitchen,SHINEd_sun_abdxkyyxwfskuaqb.tif,70,0.05,0.0666666666666667,1.06666666666667,1535.028535208,1535.666875916,9,1535.075892583,1535.142990708,1535.6818775,1536.741915708,1,0.638340707999987
108,4,7,categorization,0,kitchen,SHINEd_sun_agorklincwxrdtga.tif,87,0.05,0.0666666666666667,0.833333333333333,1536.757619875,1537.545912583,9,1536.806941791,1536.873778041,1537.55922525,1538.385896416,1,0.788292707999972
108,5,7,categorization,0,bathroom,SHINEd_sun_abjtwfukuwddzted.tif,15,0.05,0.0666666666666667,0.716666666666667,1538.393197083,1539.122156708,13,1538.438104916,1538.499129375,1539.134169333,1539.844174833,1,0.728959625000016
108,6,7,categorization,0,kitchen,SHINEd_sun_aeqdocilnnpuvuhx.tif,83,0.05,0.0666666666666667,0.733333333333333,1539.849919208,1540.602036041,9,1539.894905208,1539.956217833,1540.608466708,1541.335137583,1,0.752116832999945
108,7,7,categorization,0,bathroom,SHINEd_sun_ambriybtogmepttm.tif,36,0.05,0.0666666666666667,1.38333333333333,1541.339946041,1542.106411541,13,1541.38535425,1541.445956125,1542.114767833,1543.491471833,1,0.766465499999867
108,8,7,categorization,0,kitchen,SHINEd_sun_adgqasybjyktddhj.tif,78,0.05,0.0666666666666667,0.9,1543.511104916,1544.230157958,9,1543.560889375,1543.627111125,1544.250169291,1545.143549666,1,0.719053042000041
108,9,7,categorization,0,bathroom,SHINEd_sun_ahaulkltgpkeeemi.tif,26,0.05,0.0666666666666667,0.816666666666667,1545.156700375,1545.802269625,13,1545.203647416,1545.263822666,1545.81571475,1546.62571875,1,0.645569250000108
108,10,7,categorization,0,bathroom,SHINEd_sun_abapwbhyhkfixyex.tif,14,0.05,0.0666666666666667,0.85,1546.630551875,1547.386437916,9,1546.675487041,1546.7365055,1547.405017375,1548.248355541,0,0.75588604099994
108,11,7,categorization,0,kitchen,SHINEd_sun_acwjdupvyjsugpay.tif,76,0.05,0.0666666666666667,1.6,1548.2532,1549.058414708,9,1548.298284083,1548.359220416,1549.078453291,1550.67181975,1,0.805214707999994
108,12,7,categorization,0,kitchen,SHINEd_sun_aypmqwcualkenuoe.tif,109,0.05,0.0666666666666667,1.75,1550.6869205,1551.310406375,9,1550.734415208,1550.801428208,1551.324091958,1553.067478208,1,0.623485874999915
108,13,7,categorization,0,bathroom,SHINEd_sun_awnqiikzaispgmwo.tif,56,0.05,0.0666666666666667,1.1,1553.082761875,1554.084549875,13,1553.131624083,1553.198530958,1554.105287541,1555.198675041,1,1.00178800000003
108,14,7,categorization,0,kitchen,SHINEd_sun_abpwyqmlzafvklqo.tif,72,0.05,0.0666666666666667,1.46666666666667,1555.208270625,1555.766254416,9,1555.256518333,1555.321929916,1555.795058458,1557.255093166,1,0.55798379099997
108,15,7,categorization,0,kitchen,SHINEd_sun_aenotlpyftoioydp.tif,82,0.05,0.0666666666666667,1.25,1557.265661375,1557.708899416,9,1557.315283833,1557.381658541,1557.73844975,1558.981816083,1,0.443238040999859
108,16,7,categorization,0,kitchen,SHINEd_sun_ahspylgoovwmwvgk.tif,93,0.05,0.0666666666666667,1.13333333333333,1558.994925041,1559.442210041,9,1559.045127958,1559.109848041,1559.462074458,1560.58878825,1,0.447284999999965
108,17,7,categorization,0,kitchen,SHINEd_labelme_brsyyvweiuaazfr.tif,61,0.05,0.0666666666666667,1.33333333333333,1560.600444541,1561.123601291,9,1560.6485405,1560.71649,1561.137489,1562.464207166,1,0.523156750000226
108,18,7,categorization,0,bathroom,SHINEd_sun_apynckhmoftszqoq.tif,47,0.05,0.0666666666666667,1.86666666666667,1562.482137291,1563.113480791,13,1562.531701583,1562.589908916,1563.124929333,1564.98496875,1,0.631343499999957
108,19,7,categorization,0,kitchen,SHINEd_sun_aqeaevwwwjoqhzvl.tif,101,0.05,0.0666666666666667,1.58333333333333,1565.002277791,1565.546302833,9,1565.051905208,1565.117158708,1565.573761333,1567.150478875,1,0.54402504199993
108,20,7,categorization,0,kitchen,SHINEd_sun_ahdycvpopffkzzsu.tif,90,0.05,0.0666666666666667,1.05,1567.16836275,1567.699063541,13,1567.218140583,1567.284523875,1567.72403025,1568.767395958,0,0.530700791000072
108,21,7,categorization,0,kitchen,SHINEd_sun_aadbddgrdsjugojn.tif,64,0.05,0.0666666666666667,0.9,1568.777431125,1569.545368125,9,1568.825455625,1568.89245425,1569.5653695,1570.458746,1,0.767937000000074
108,22,7,categorization,0,bathroom,SHINEd_sun_aghyqhbptboemmoq.tif,23,0.05,0.0666666666666667,0.7,1570.47461325,1571.1542855,13,1570.52462525,1570.590625833,1571.159325333,1571.852663416,1,0.679672250000067
108,23,7,categorization,0,bathroom,SHINEd_sun_apjevzvycyhuqghb.tif,43,0.05,0.0666666666666667,0.933333333333333,1571.859398375,1572.825685208,13,1571.904391416,1571.96531275,1572.834022,1573.760692125,1,0.96628683300014
108,24,7,categorization,0,kitchen,SHINEd_sun_ahywdevtimnqcsln.tif,94,0.05,0.0666666666666667,1.95,1573.765568333,1574.2896145,9,1573.810664916,1573.87153825,1574.306693083,1576.250065291,1,0.524046167000051
108,25,7,categorization,0,kitchen,SHINEd_sun_acxkpeoqbwcxfvip.tif,77,0.05,0.0666666666666667,1.06666666666667,1576.267477541,1576.651909625,9,1576.317481791,1576.383657041,1576.673265916,1577.733308041,1,0.384432083999855
108,26,7,categorization,0,kitchen,SHINEd_sun_aixorpehvfykdynp.tif,95,0.05,0.0666666666666667,1.2,1577.7431035,1578.289818375,9,1577.791199,1577.857978083,1578.314449916,1579.507815,1,0.546714875000134
108,27,7,categorization,0,kitchen,SHINEd_sun_ahljzhgcdpomplvg.tif,91,0.05,0.0666666666666667,0.75,1579.52417075,1580.193520666,9,1579.573491083,1579.640349875,1580.209431375,1580.952768958,1,0.669349916000101
108,28,7,categorization,0,bathroom,SHINEd_sun_aljolscmmzydegqp.tif,33,0.05,0.0666666666666667,0.816666666666667,1580.959365458,1581.601573,9,1581.004478208,1581.065317666,1581.61717575,1582.427181333,0,0.642207541999824
108,29,7,categorization,0,bathroom,SHINEd_sun_agguqiubmwhqqunb.tif,22,0.05,0.0666666666666667,1.96666666666667,1582.431876,1582.8980335,9,1582.47692375,1582.538283833,1582.906827708,1584.866876333,0,0.466157500000008
108,30,7,categorization,0,kitchen,SHINEd_sun_aehawpgmrlhlvcow.tif,81,0.05,0.0666666666666667,1.2,1584.884675541,1585.510304333,9,1584.934448541,1585.000807666,1585.540307416,1586.733686458,1,0.625628792000043
108,31,7,categorization,0,bathroom,SHINEd_sun_auzqhkafidnkrwmo.tif,54,0.05,0.0666666666666667,0.883333333333333,1586.744849083,1587.23906325,9,1586.79425075,1586.860668625,1587.267164916,1588.143891541,0,0.494214167000109
108,32,7,categorization,0,kitchen,SHINEd_sun_agzzivivdpnawacl.tif,89,0.05,0.0666666666666667,1.33333333333333,1588.160642083,1588.889816416,9,1588.210527291,1588.274406125,1588.893358958,1590.22007875,1,0.729174332999946
108,33,7,categorization,0,bathroom,SHINEd_sun_ajlawzvmubibwbpy.tif,30,0.05,0.0666666666666667,1.45,1590.237969666,1591.276276708,9,1590.287829958,1590.353909541,1591.292926166,1592.736299791,0,1.03830704200004
108,34,7,categorization,0,kitchen,SHINEd_sun_akchetnepxlcxhsu.tif,98,0.05,0.0666666666666667,1.15,1592.752122416,1593.457650583,13,1592.803349791,1592.868220291,1593.474231541,1594.617613291,0,0.705528167000011
108,35,7,categorization,0,bathroom,SHINEd_sun_aqrpegblszgcoujh.tif,48,0.05,0.0666666666666667,0.966666666666667,1594.62843875,1595.900110125,9,1594.676541166,1594.744745416,1595.919978166,1596.8799825,0,1.2716713750001
108,36,7,categorization,0,bathroom,SHINEd_sun_azqyogdvyhahyram.tif,60,0.05,0.0666666666666667,1.45,1596.884979125,1597.457707875,13,1596.930089375,1596.990960916,1597.476147208,1598.919522,1,0.572728750000124
108,37,7,categorization,0,bathroom,SHINEd_sun_apkruvsevgegsdwp.tif,44,0.05,0.0666666666666667,0.8,1598.937833083,1599.842756875,13,1598.987382833,1599.053795291,1599.859787125,1600.653128,1,0.904923792000091
108,38,7,categorization,0,bathroom,SHINEd_sun_avhrdrntsqrjzccq.tif,55,0.05,0.0666666666666667,1.45,1600.659605333,1601.257389375,9,1600.704565375,1600.765647208,1601.267777166,1602.711164875,0,0.597784042000058
108,39,7,categorization,0,bathroom,SHINEd_sun_aclfzgynxzxlbepz.tif,19,0.05,0.0666666666666667,1.1,1602.728333375,1603.379748416,13,1602.77763725,1602.844058708,1603.400255458,1604.493641916,1,0.651415041000064
108,40,7,categorization,0,kitchen,SHINEd_sun_abftihopvusyfakt.tif,71,0.05,0.0666666666666667,1.16666666666667,1604.509350125,1605.108797,13,1604.559136208,1604.625305708,1605.130085791,1606.290130416,0,0.599446875000012
108,41,7,categorization,0,bathroom,SHINEd_sun_aofnryafpsjimzsb.tif,40,0.05,0.0666666666666667,1.31666666666667,1606.302469958,1606.905492208,13,1606.352245125,1606.418447416,1606.920958875,1608.231011083,1,0.603022249999867
108,42,7,categorization,0,bathroom,SHINEd_sun_anryaplzeujmzfkd.tif,39,0.05,0.0666666666666667,1.68333333333333,1608.246468416,1608.874233708,13,1608.296349541,1608.362565416,1608.902131708,1610.578845375,1,0.627765292000049
108,43,7,categorization,0,bathroom,SHINEd_sun_axldvoqbuvuggfmq.tif,57,0.05,0.0666666666666667,0.966666666666667,1610.595519375,1611.037397666,9,1610.645552791,1610.711634,1611.050246791,1612.010287375,0,0.441878290999966
108,44,7,categorization,0,kitchen,SHINEd_sun_akcjzhbbjlbogpdi.tif,99,0.05,0.0666666666666667,1.4,1612.027319625,1612.617941375,13,1612.077096,1612.143533708,1612.62892775,1614.022309125,0,0.590621750000082
108,45,7,categorization,0,kitchen,SHINEd_sun_ajcbwwvdlsvjyzje.tif,96,0.05,0.0666666666666667,0.783333333333333,1614.039001375,1614.587692333,13,1614.088584125,1614.15491625,1614.611428833,1615.388141833,0,0.548690957999952
108,46,7,categorization,0,bathroom,SHINEd_sun_aspsyogrekjtfozg.tif,50,0.05,0.0666666666666667,1.08333333333333,1615.404374916,1615.961937333,9,1615.454488541,1615.520312,1615.972786541,1617.04950025,0,0.557562416999872
108,47,7,categorization,0,bathroom,SHINEd_sun_afcoljnjfoxjtgja.tif,20,0.05,0.0666666666666667,1.43333333333333,1617.059763875,1617.7067285,9,1617.107602791,1617.174722333,1617.731372833,1619.158075041,0,0.64696462500001
108,48,7,categorization,0,kitchen,SHINEd_sun_aymvwlarqodbwuoc.tif,108,0.05,0.0666666666666667,1.75,1619.168614958,1619.79430875,9,1619.216262208,1619.283861708,1619.8234475,1621.566824416,1,0.625693791999993
108,49,7,categorization,0,kitchen,SHINEd_labelme_kxvouciolcpqplr.tif,62,0.05,0.0666666666666667,1.21666666666667,1621.584407458,1622.145950083,9,1621.634242833,1621.700753166,1622.173901208,1623.383949958,1,0.561542624999902
108,50,7,categorization,0,bathroom,SHINEd_sun_apmqjbnwghzuhhzh.tif,46,0.05,0.0666666666666667,1.31666666666667,1623.401991875,1623.937682125,9,1623.452306583,1623.5180275,1623.958060416,1625.26811325,0,0.535690250000016
108,1,8,categorization,0,kitchen,SHINEd_sun_acfmftudsenhrfhy.tif,74,0.05,0.0666666666666667,1.18333333333333,1649.71831925,1650.826079958,13,1649.764146541,1649.824325125,1650.843174666,1652.019895875,0,1.10776070800011
108,2,8,categorization,0,bathroom,SHINEd_sun_ahijqszoswveeyji.tif,28,0.05,0.0666666666666667,0.983333333333333,1652.028722333,1652.982393208,13,1652.079673916,1652.144317041,1653.000896291,1653.977568,1,0.953670875000171
108,3,8,categorization,0,kitchen,SHINEd_sun_avszsnwsbuqfgzbn.tif,105,0.05,0.0666666666666667,1.65,1653.983309541,1654.689560083,9,1654.028428625,1654.089397541,1654.707780791,1656.351156916,1,0.706250542000134
108,4,8,categorization,0,kitchen,SHINEd_sun_admlmbcdswaszruo.tif,79,0.05,0.0666666666666667,1.23333333333333,1656.369033375,1657.014930916,9,1656.418843916,1656.484328083,1657.040588791,1658.26731125,1,0.64589754099984
108,5,8,categorization,0,kitchen,SHINEd_sun_aaxxjlsuzvqlgylf.tif,68,0.05,0.0666666666666667,0.916666666666667,1658.285769291,1659.155597375,9,1658.335701833,1658.401042875,1659.173772833,1660.083807125,1,0.869828084000119
108,6,8,categorization,0,kitchen,SHINEd_sun_auaiucuqpdausiva.tif,102,0.05,0.0666666666666667,1.56666666666667,1660.0944525,1660.68934275,9,1660.140247,1660.20093075,1660.702824541,1662.2628605,1,0.594890249999935
108,7,8,categorization,0,bathroom,SHINEd_sun_anhioqovhscjqqwb.tif,38,0.05,0.0666666666666667,1.63333333333333,1662.280070083,1662.90470925,9,1662.329812291,1662.39626775,1662.918458041,1664.545169458,0,0.624639166999941
108,8,8,categorization,0,bathroom,SHINEd_sun_alotolagknyrgtsk.tif,35,0.05,0.0666666666666667,1.1,1664.5622025,1665.032764708,13,1664.611998208,1664.678112833,1665.050844416,1666.144225416,1,0.470562208000047
108,9,8,categorization,0,bathroom,SHINEd_sun_apkxzenqapsujocq.tif,45,0.05,0.0666666666666667,1.38333333333333,1666.155248875,1666.990751333,13,1666.203975666,1666.271263,1667.010723208,1668.3874365,1,0.835502457999837
108,10,8,categorization,0,bathroom,SHINEd_sun_aoybiabnpadelefl.tif,41,0.05,0.0666666666666667,0.766666666666667,1668.405966291,1668.996335833,13,1668.455649041,1668.521741666,1669.010883166,1669.770926458,1,0.59036954200019
108,11,8,categorization,0,bathroom,SHINEd_sun_alkosphxlxwjwgjd.tif,34,0.05,0.0666666666666667,1.45,1669.787150208,1670.641708375,13,1669.836954791,1669.903362958,1670.655752708,1672.099126041,1,0.85455816700005
108,12,8,categorization,0,kitchen,SHINEd_sun_abdenxonkemggwsq.tif,69,0.05,0.0666666666666667,0.983333333333333,1672.117502083,1672.695338541,13,1672.168307875,1672.233731875,1672.723212375,1673.699917791,0,0.577836457999865
108,13,8,categorization,0,kitchen,SHINEd_sun_acgtpgfybqjmzeyw.tif,75,0.05,0.0666666666666667,0.716666666666667,1673.706133083,1674.121645458,13,1673.751123541,1673.812092708,1674.130601958,1674.84060725,0,0.415512375000162
108,14,8,categorization,0,bathroom,SHINEd_sun_agyqfjcfkdcydepw.tif,25,0.05,0.0666666666666667,1.41666666666667,1674.845517916,1675.433726208,9,1674.890452666,1674.9514855,1675.453269958,1676.863310458,0,0.58820829199999
108,15,8,categorization,0,kitchen,SHINEd_sun_auticobqsbwgoppi.tif,104,0.05,0.0666666666666667,1.21666666666667,1676.879699041,1677.269406125,13,1676.929448,1676.996022875,1677.284913333,1678.494967833,0,0.389707083999838
108,16,8,categorization,0,kitchen,SHINEd_sun_aapllqyqlykszopd.tif,66,0.05,0.0666666666666667,1.61666666666667,1678.511150833,1679.069651083,13,1678.558686875,1678.626990791,1679.08185925,1680.691892708,0,0.558500249999952
108,17,8,categorization,0,kitchen,SHINEd_sun_aamedkxepzlwuxes.tif,65,0.05,0.0666666666666667,0.783333333333333,1680.701445416,1681.397260458,9,1680.751176166,1680.817426708,1681.424173708,1682.200885166,1,0.695815041999822
108,18,8,categorization,0,bathroom,SHINEd_sun_ahqjwnzgolcaoidx.tif,29,0.05,0.0666666666666667,1.98333333333333,1682.2167695,1682.945520375,9,1682.266653541,1682.332695375,1682.951384833,1684.928108208,0,0.728750874999832
108,19,8,categorization,0,bathroom,SHINEd_sun_apeeialkgkuxddgh.tif,42,0.05,0.0666666666666667,0.983333333333333,1684.945789166,1685.419569125,9,1684.995771875,1685.062009041,1685.434204,1686.410875041,0,0.473779959000012
108,20,8,categorization,0,kitchen,SHINEd_sun_ahpczsiumwwocjkv.tif,92,0.05,0.0666666666666667,0.8,1686.415846125,1687.0653135,13,1686.461207166,1686.521726083,1687.073744583,1687.867081875,0,0.649467375000086
108,21,8,categorization,0,kitchen,SHINEd_sun_aexklacwqwezaorf.tif,84,0.05,0.0666666666666667,0.733333333333333,1687.872646833,1688.417465208,13,1687.917624875,1687.978670416,1688.430517,1689.157187416,0,0.544818374999977
108,22,8,categorization,0,kitchen,SHINEd_sun_ajkqhtgcbgpcwrwn.tif,97,0.05,0.0666666666666667,0.966666666666667,1689.161786666,1689.593365041,13,1689.206848916,1689.267790166,1689.602919791,1690.562925625,0,0.431578375000072
108,23,8,categorization,0,bathroom,SHINEd_sun_axyrejkiiaqiurjk.tif,59,0.05,0.0666666666666667,0.866666666666667,1690.568467333,1690.985774041,13,1690.613671708,1690.674531916,1690.9933405,1691.853345208,1,0.417306708000069
108,24,8,categorization,0,kitchen,SHINEd_sun_awcpdzzznmweyyhv.tif,106,0.05,0.0666666666666667,1.23333333333333,1691.858906583,1692.28104325,9,1691.903821791,1691.964924833,1692.300100875,1693.526806375,1,0.422136667000132
108,25,8,categorization,0,bathroom,SHINEd_sun_atstyziqcmkahyxk.tif,51,0.05,0.0666666666666667,1.9,1693.543897875,1694.059339583,13,1693.593756625,1693.660026083,1694.082879791,1695.9762465,1,0.515441708000026
108,26,8,categorization,0,bathroom,SHINEd_sun_asfwthctfqerjvxr.tif,49,0.05,0.0666666666666667,0.866666666666667,1695.993995458,1696.380940416,13,1696.044037583,1696.110292375,1696.399878625,1697.259918666,1,0.386944957999958
108,27,8,categorization,0,kitchen,SHINEd_sun_aegoxogugdkwpmpj.tif,80,0.05,0.0666666666666667,0.966666666666667,1697.276816958,1697.784935875,13,1697.326685083,1697.384571708,1697.803264791,1698.763271125,0,0.508118917000047
108,28,8,categorization,0,kitchen,SHINEd_sun_aunzlwrbjumxhwdj.tif,103,0.05,0.0666666666666667,0.916666666666667,1698.7689805,1699.273249791,13,1698.813928125,1698.87500725,1699.276731041,1700.186735,0,0.5042692909999
108,29,8,categorization,0,bathroom,SHINEd_sun_aavhrsfjbserjtht.tif,13,0.05,0.0666666666666667,0.916666666666667,1700.191959458,1702.577227958,9,1700.2369795,1700.297943083,1702.583759125,1703.493764041,0,2.38526850000017
108,30,8,categorization,0,bathroom,SHINEd_sun_acgyywnybuveqsro.tif,18,0.05,0.0666666666666667,1.4,1703.499091875,1704.265324625,13,1703.544118125,1703.60500575,1704.273707458,1705.667093333,1,0.766232749999972
108,31,8,categorization,0,bathroom,SHINEd_sun_agrwbmhcpmfuwmsg.tif,24,0.05,0.0666666666666667,1.75,1705.68532925,1706.366908958,9,1705.735606291,1705.801653583,1706.391187583,1708.134574291,0,0.681579708000072
108,32,8,categorization,0,kitchen,SHINEd_sun_abrcnpqqhmjwekyf.tif,73,0.05,0.0666666666666667,1.25,1708.149932833,1708.904635166,9,1708.200066,1708.266639041,1708.923090416,1710.16647725,1,0.754702332999841
108,33,8,categorization,0,bathroom,SHINEd_sun_aapitsgbtktqubfy.tif,12,0.05,0.0666666666666667,1.05,1710.184160958,1710.84474375,9,1710.234592541,1710.300392375,1710.873832458,1711.917203291,0,0.660582792000014
108,34,8,categorization,0,kitchen,SHINEd_labelme_rykdqxenmhulbdn.tif,63,0.05,0.0666666666666667,1.06666666666667,1711.934951958,1712.545256416,9,1711.981051208,1712.041049041,1712.559446083,1713.619488208,1,0.610304457999973
108,35,8,categorization,0,bathroom,SHINEd_sun_aleqenyvunhactkl.tif,32,0.05,0.0666666666666667,1.21666666666667,1713.628520291,1714.126627583,9,1713.677181666,1713.743161875,1714.149515208,1715.359566208,0,0.498107291999986
108,36,8,categorization,0,kitchen,SHINEd_sun_afuyedyxivkhecmu.tif,85,0.05,0.0666666666666667,0.95,1715.377075791,1716.121746833,9,1715.4270815,1715.493091458,1716.128970166,1717.072309208,1,0.744671042000164
108,37,8,categorization,0,bathroom,SHINEd_sun_ausgutylgojavyoq.tif,53,0.05,0.0666666666666667,0.9,1717.077891083,1717.561561583,13,1717.122885666,1717.183891583,1717.569399,1718.462737666,1,0.483670500000017
108,38,8,categorization,0,bathroom,SHINEd_sun_aunuadmjocsddsrl.tif,52,0.05,0.0666666666666667,1.78333333333333,1718.46754675,1718.913200208,13,1718.512828625,1718.573545833,1718.925493,1720.702204125,1,0.445653457999924
108,39,8,categorization,0,kitchen,SHINEd_sun_amjjdeyrggfqgmom.tif,100,0.05,0.0666666666666667,1.16666666666667,1720.719208291,1721.326895791,13,1720.769383458,1720.835200125,1721.340566833,1722.500614916,0,0.607687499999884
108,40,8,categorization,0,bathroom,SHINEd_sun_axxbkopsgyouuebh.tif,58,0.05,0.0666666666666667,0.783333333333333,1722.510838708,1722.942132916,13,1722.560580916,1722.626838666,1722.966322458,1723.743038291,1,0.431294208000054
108,41,8,categorization,0,kitchen,SHINEd_sun_axyyrmzcupyhlivc.tif,107,0.05,0.0666666666666667,1.23333333333333,1723.753191166,1724.480859375,13,1723.802865458,1723.869204958,1724.488266541,1725.714983291,0,0.72766820899983
108,42,8,categorization,0,kitchen,SHINEd_sun_agubuxuukhzyzpdp.tif,88,0.05,0.0666666666666667,0.9,1725.732398458,1726.236389,13,1725.782370333,1725.848582375,1726.254391916,1727.147770333,0,0.503990541999883
108,43,8,categorization,0,kitchen,SHINEd_sun_azmutvzbxypaceni.tif,110,0.05,0.0666666666666667,0.7,1727.158775708,1727.721893,9,1727.208531041,1727.274711041,1727.727391208,1728.420731083,1,0.563117292000015
108,44,8,categorization,0,kitchen,SHINEd_sun_aggjlwcdjsjcaemh.tif,86,0.05,0.0666666666666667,1.23333333333333,1728.426014958,1728.873447,9,1728.470906041,1728.532003291,1728.884052083,1730.110751041,1,0.447432041999946
108,45,8,categorization,0,bathroom,SHINEd_labelme_sfxiulhjbhlyiyt.tif,11,0.05,0.0666666666666667,1,1730.127128041,1730.596033125,9,1730.176558375,1730.243276208,1730.616459291,1731.609848375,0,0.468905083999971
108,46,8,categorization,0,bathroom,SHINEd_sun_acduarbnmmoglmiv.tif,16,0.05,0.0666666666666667,1.38333333333333,1731.626593208,1732.089803416,9,1731.676373958,1731.742613541,1732.095121416,1733.471830958,0,0.463210207999964
108,47,8,categorization,0,bathroom,SHINEd_sun_akiytfaagpdsphgz.tif,31,0.05,0.0666666666666667,1.3,1733.489425541,1733.866035166,13,1733.538961875,1733.605353458,1733.895050458,1735.188434125,1,0.376609625000128
108,48,8,categorization,0,bathroom,SHINEd_sun_acegryoqftbzowsg.tif,17,0.05,0.0666666666666667,0.833333333333333,1735.201826791,1735.596595958,9,1735.251546333,1735.317972041,1735.624125291,1736.450828541,0,0.394769167000049
108,49,8,categorization,0,bathroom,SHINEd_sun_amzlamotzwfkwjco.tif,37,0.05,0.0666666666666667,0.95,1736.462782583,1736.939335416,9,1736.512860416,1736.578739083,1736.968245875,1737.911583958,0,0.476552832999914
108,50,8,categorization,0,bathroom,SHINEd_sun_aggnnqpdorgxpvce.tif,21,0.05,0.0666666666666667,1.43333333333333,1737.916520875,1738.312722958,9,1737.961585,1738.02246325,1738.324252291,1739.750976375,0,0.396202082999935
108,1,9,categorization,0,bathroom,SHINEd_sun_acduarbnmmoglmiv.tif,16,0.05,0.0666666666666667,1.08333333333333,1750.119261041,1750.601455166,13,1750.165164666,1750.226138333,1750.611325875,1751.68803925,1,0.482194124999978
108,2,9,categorization,0,bathroom,SHINEd_sun_apkruvsevgegsdwp.tif,44,0.05,0.0666666666666667,0.8,1751.703002708,1752.070049625,13,1751.751316291,1751.8177435,1752.0907295,1752.884109083,1,0.367046916999925
108,3,9,categorization,0,bathroom,SHINEd_sun_aggnnqpdorgxpvce.tif,21,0.05,0.0666666666666667,0.833333333333333,1752.899859041,1753.292542791,9,1752.94974775,1753.015644,1753.322604625,1754.14927625,0,0.39268375000006
108,4,9,categorization,0,bathroom,SHINEd_sun_amzlamotzwfkwjco.tif,37,0.05,0.0666666666666667,1.45,1754.154970041,1754.520802375,9,1754.199932625,1754.260961875,1754.529328125,1755.972701625,0,0.365832333999833
108,5,9,categorization,0,kitchen,SHINEd_sun_aunzlwrbjumxhwdj.tif,103,0.05,0.0666666666666667,1.3,1755.99042125,1756.3804725,9,1756.0400785,1756.106650458,1756.395901208,1757.689254166,1,0.390051249999942
108,6,9,categorization,0,bathroom,SHINEd_sun_afcoljnjfoxjtgja.tif,20,0.05,0.0666666666666667,1.21666666666667,1757.699567375,1758.106138916,9,1757.749325375,1757.815783333,1758.12164525,1759.331686916,0,0.406571540999948
108,7,9,categorization,0,bathroom,SHINEd_sun_axyrejkiiaqiurjk.tif,59,0.05,0.0666666666666667,0.733333333333333,1759.349265875,1759.608673291,9,1759.398866875,1759.465618791,1759.6384755,1760.36514675,0,0.259407416000158
108,8,9,categorization,0,kitchen,SHINEd_sun_ajcbwwvdlsvjyzje.tif,96,0.05,0.0666666666666667,1.03333333333333,1760.370385625,1760.905596041,9,1760.415414291,1760.476350166,1760.911339625,1761.9380435,1,0.535210416000155
108,9,9,categorization,0,kitchen,SHINEd_sun_acwjdupvyjsugpay.tif,76,0.05,0.0666666666666667,1.1,1761.946470583,1762.701951708,9,1761.99437225,1762.060869708,1762.715911791,1763.809283208,1,0.75548112499996
108,10,9,categorization,0,kitchen,SHINEd_sun_auticobqsbwgoppi.tif,104,0.05,0.0666666666666667,1.25,1763.827134333,1764.272823666,13,1763.876852958,1763.943050333,1764.278749458,1765.522127583,0,0.445689333000018
108,11,9,categorization,0,kitchen,SHINEd_sun_aapllqyqlykszopd.tif,66,0.05,0.0666666666666667,1.4,1765.538940291,1766.093662125,9,1765.58875775,1765.654797875,1766.110445791,1767.5038285,1,0.55472183400002
108,12,9,categorization,0,bathroom,SHINEd_sun_ambriybtogmepttm.tif,36,0.05,0.0666666666666667,1.43333333333333,1767.521179125,1768.211466916,9,1767.570517458,1767.637150125,1768.226989708,1769.653697375,0,0.690287791000173
108,13,9,categorization,0,kitchen,SHINEd_sun_aypmqwcualkenuoe.tif,109,0.05,0.0666666666666667,1.26666666666667,1769.663987,1770.2303255,9,1769.713883916,1769.779729041,1770.2524335,1771.512487,1,0.566338500000029
108,14,9,categorization,0,bathroom,SHINEd_sun_aljolscmmzydegqp.tif,33,0.05,0.0666666666666667,0.916666666666667,1771.530268833,1771.897657541,13,1771.580006958,1771.646533291,1771.915468833,1772.825472125,1,0.367388707999908
108,15,9,categorization,0,kitchen,SHINEd_sun_aqeaevwwwjoqhzvl.tif,101,0.05,0.0666666666666667,1.05,1772.83025775,1773.289141708,9,1772.875198291,1772.936311875,1773.304874125,1774.348244583,1,0.458883957999888
108,16,9,categorization,0,kitchen,SHINEd_sun_axyyrmzcupyhlivc.tif,107,0.05,0.0666666666666667,1.53333333333333,1774.359540625,1774.858913,9,1774.407719208,1774.474123958,1774.880461708,1776.407185041,1,0.499372375000121
108,17,9,categorization,0,kitchen,SHINEd_sun_akcjzhbbjlbogpdi.tif,99,0.05,0.0666666666666667,1.11666666666667,1776.4187295,1776.848229,13,1776.468414,1776.534895708,1776.874554333,1777.984590416,0,0.42949950000002
108,18,9,categorization,0,bathroom,SHINEd_sun_apeeialkgkuxddgh.tif,42,0.05,0.0666666666666667,1.05,1778.004021166,1778.553191541,13,1778.054004958,1778.120447708,1778.572748791,1779.616131083,1,0.549170374999903
108,19,9,categorization,0,bathroom,SHINEd_sun_ahqjwnzgolcaoidx.tif,29,0.05,0.0666666666666667,1.66666666666667,1779.627653708,1779.972082291,9,1779.675664583,1779.742746958,1779.999153166,1781.659207375,0,0.344428583000081
108,20,9,categorization,0,kitchen,SHINEd_sun_adgqasybjyktddhj.tif,78,0.05,0.0666666666666667,1.98333333333333,1781.671755708,1781.913909708,13,1781.719986166,1781.785999291,1781.942341041,1783.919065458,0,0.2421539999998
108,21,9,categorization,0,kitchen,SHINEd_sun_aymvwlarqodbwuoc.tif,108,0.05,0.0666666666666667,1.06666666666667,1783.937404125,1784.580414541,9,1783.987211166,1784.053589875,1784.610200166,1785.6702345,1,0.643010415999925
108,22,9,categorization,0,bathroom,SHINEd_sun_acgyywnybuveqsro.tif,18,0.05,0.0666666666666667,1.31666666666667,1785.6864285,1786.097007375,9,1785.73640525,1785.802520958,1786.105053166,1787.415089166,0,0.410578875000056
108,23,9,categorization,0,bathroom,SHINEd_sun_ausgutylgojavyoq.tif,53,0.05,0.0666666666666667,1.78333333333333,1787.432498708,1788.084887791,13,1787.482508916,1787.548819125,1788.1052365,1789.881949083,1,0.652389083000116
108,24,9,categorization,0,bathroom,SHINEd_sun_agyqfjcfkdcydepw.tif,25,0.05,0.0666666666666667,0.816666666666667,1789.899524708,1790.423232708,9,1789.9497145,1790.015543791,1790.437849458,1791.247896,0,0.523707999999942
108,25,9,categorization,0,kitchen,SHINEd_sun_aexklacwqwezaorf.tif,84,0.05,0.0666666666666667,0.933333333333333,1791.261006916,1791.760876833,9,1791.310870666,1791.367963791,1791.769817416,1792.696489083,1,0.499869917000069
108,26,9,categorization,0,bathroom,SHINEd_sun_apmqjbnwghzuhhzh.tif,46,0.05,0.0666666666666667,1.33333333333333,1792.701741291,1793.232530208,9,1792.746785208,1792.807783083,1793.243105291,1794.56981925,0,0.530788917000109
108,27,9,categorization,0,kitchen,SHINEd_sun_akchetnepxlcxhsu.tif,98,0.05,0.0666666666666667,0.833333333333333,1794.586900791,1794.989360458,9,1794.636924375,1794.702940791,1795.008954083,1795.835663166,1,0.402459666999903
108,28,9,categorization,0,bathroom,SHINEd_sun_axxbkopsgyouuebh.tif,58,0.05,0.0666666666666667,0.933333333333333,1795.850088666,1796.312348583,9,1795.899911291,1795.965940541,1796.339061625,1797.265732625,0,0.462259916999983
108,29,9,categorization,0,bathroom,SHINEd_sun_agguqiubmwhqqunb.tif,22,0.05,0.0666666666666667,1.85,1797.2708805,1797.896857125,9,1797.315915791,1797.376861291,1797.912159083,1799.755540375,0,0.625976625000021
108,30,9,categorization,0,kitchen,SHINEd_sun_aadbddgrdsjugojn.tif,64,0.05,0.0666666666666667,0.966666666666667,1799.773453166,1800.521192125,13,1799.823992791,1799.88980325,1800.547103541,1801.507109041,0,0.747738958999889
108,31,9,categorization,0,bathroom,SHINEd_sun_ajlawzvmubibwbpy.tif,30,0.05,0.0666666666666667,0.766666666666667,1801.512920125,1802.06522125,13,1801.5579135,1801.619029291,1802.070893916,1802.830899541,1,0.552301124999985
108,32,9,categorization,0,kitchen,SHINEd_sun_afuyedyxivkhecmu.tif,85,0.05,0.0666666666666667,1.15,1802.83573575,1803.441300708,9,1802.880612041,1802.94161925,1803.460262375,1804.603652166,1,0.605564958000059
108,33,9,categorization,0,bathroom,SHINEd_sun_alotolagknyrgtsk.tif,35,0.05,0.0666666666666667,0.75,1804.613283416,1804.970559458,9,1804.660834791,1804.729182,1804.984630375,1805.728001583,0,0.357276041999967
108,34,9,categorization,0,kitchen,SHINEd_sun_ahdycvpopffkzzsu.tif,90,0.05,0.0666666666666667,0.9,1805.742315083,1806.213844,9,1805.792343125,1805.858569791,1806.231095208,1807.124433041,1,0.471528917000114
108,35,9,categorization,0,kitchen,SHINEd_sun_abrcnpqqhmjwekyf.tif,73,0.05,0.0666666666666667,1.88333333333333,1807.129261333,1807.617115458,9,1807.174196208,1807.235216208,1807.620172458,1809.496883125,1,0.487854125000013
108,36,9,categorization,0,bathroom,SHINEd_sun_aleqenyvunhactkl.tif,32,0.05,0.0666666666666667,1.65,1809.514367833,1810.0668755,13,1809.564158083,1809.630492416,1810.086454375,1811.729832541,1,0.552507666999873
108,37,9,categorization,0,bathroom,SHINEd_sun_aapitsgbtktqubfy.tif,12,0.05,0.0666666666666667,0.816666666666667,1811.746440041,1812.171383083,9,1811.796155666,1811.862798583,1812.18491775,1812.994960958,0,0.424943041999995
108,38,9,categorization,0,bathroom,SHINEd_sun_anhioqovhscjqqwb.tif,38,0.05,0.0666666666666667,0.9,1813.0109945,1813.632654083,13,1813.060938291,1813.126404458,1813.64553975,1814.538877666,1,0.62165958300011
108,39,9,categorization,0,kitchen,SHINEd_sun_agubuxuukhzyzpdp.tif,88,0.05,0.0666666666666667,0.733333333333333,1814.544743333,1815.1454065,13,1814.589786125,1814.650733,1815.152431958,1815.879103375,0,0.600663166999993
108,40,9,categorization,0,kitchen,SHINEd_sun_ahywdevtimnqcsln.tif,94,0.05,0.0666666666666667,0.85,1815.883972208,1816.752634666,13,1815.928951875,1815.989932666,1816.758767291,1817.602103916,0,0.868662458000017
108,41,9,categorization,0,kitchen,SHINEd_sun_amjjdeyrggfqgmom.tif,100,0.05,0.0666666666666667,1.58333333333333,1817.608187875,1818.064611375,9,1817.653182583,1817.714126,1818.082504291,1819.6592145,1,0.456423499999801
108,42,9,categorization,0,kitchen,SHINEd_labelme_kxvouciolcpqplr.tif,62,0.05,0.0666666666666667,1.8,1819.676841416,1820.350730708,9,1819.726712125,1819.827542458,1820.366932708,1822.160305541,1,0.673889292000013
