sub_num,trial,block,task,is_practice,category,image,texture,duration,mask_dur,jitter,stim_time,time_of_resp,trial_response,mask_time,fix_time,jit_onset,trial_end,trial_accuracy,RT
108,1,23,categorization,0,bathroom,SHINEd_sun_agguqiubmwhqqunb.tif,22,0.05,0.0666666666666667,0.916666666666667,3331.593715958,3332.258588958,9,3331.639622041,3331.699924541,3332.26846275,3333.178466541,0,0.664873000000171
108,2,23,categorization,0,bathroom,SHINEd_sun_apynckhmoftszqoq.tif,47,0.05,0.0666666666666667,1.61666666666667,3333.183776791,3333.72194325,9,3333.228734166,3333.289793875,3333.724746166,3335.334786666,0,0.538166458999967
108,3,23,categorization,0,bathroom,SHINEd_sun_aapitsgbtktqubfy.tif,12,0.05,0.0666666666666667,1.05,3335.352385041,3335.941405208,9,3335.402133208,3335.468544875,3335.957644875,3337.001011833,0,0.589020166999944
108,4,23,categorization,0,kitchen,SHINEd_sun_aypmqwcualkenuoe.tif,109,0.05,0.0666666666666667,1.76666666666667,3337.011324958,3337.475222208,13,3337.059119208,3337.126120541,3337.499573083,3339.259606458,0,0.463897250000173
108,5,23,categorization,0,bathroom,SHINEd_sun_aunuadmjocsddsrl.tif,52,0.05,0.0666666666666667,0.816666666666667,3339.274477833,3339.69747875,9,3339.324269333,3339.390322833,3339.71303225,3340.5230795,0,0.423000916999626
108,6,23,categorization,0,bathroom,SHINEd_sun_afcoljnjfoxjtgja.tif,20,0.05,0.0666666666666667,1.65,3340.535929375,3341.00671625,9,3340.585748958,3340.651812333,3341.024524,3342.667911083,0,0.470786875000158
108,7,23,categorization,0,kitchen,SHINEd_sun_ahpczsiumwwocjkv.tif,92,0.05,0.0666666666666667,1.65,3342.68509,3343.122893916,13,3342.734967083,3342.801861291,3343.140525125,3344.783893625,0,0.437803916000121
108,8,23,categorization,0,kitchen,SHINEd_sun_awcpdzzznmweyyhv.tif,106,0.05,0.0666666666666667,1.21666666666667,3344.80164325,3345.341415625,13,3344.851663625,3344.917768375,3345.356888083,3346.566923416,0,0.539772375000211
108,9,23,categorization,0,bathroom,SHINEd_sun_ahqjwnzgolcaoidx.tif,29,0.05,0.0666666666666667,0.933333333333333,3346.585239625,3346.931909166,9,3346.635338625,3346.701733375,3346.957592833,3347.884314958,0,0.346669540999756
108,10,23,categorization,0,bathroom,SHINEd_sun_aavhrsfjbserjtht.tif,13,0.05,0.0666666666666667,0.933333333333333,3347.901619458,3348.335682083,9,3347.951529666,3348.017529333,3348.356855291,3349.283526666,0,0.434062625000024
108,11,23,categorization,0,bathroom,SHINEd_sun_aspsyogrekjtfozg.tif,50,0.05,0.0666666666666667,0.983333333333333,3349.289140583,3349.681884375,13,3349.334111375,3349.395245625,3349.696972,3350.6736425,1,0.392743792000147
108,12,23,categorization,0,kitchen,SHINEd_labelme_brsyyvweiuaazfr.tif,61,0.05,0.0666666666666667,1.03333333333333,3350.679365625,3351.034109166,13,3350.724752,3350.785371583,3351.037056416,3352.063770291,0,0.354743540999607
108,13,23,categorization,0,kitchen,SHINEd_sun_auaiucuqpdausiva.tif,102,0.05,0.0666666666666667,1.35,3352.072938666,3352.480333916,13,3352.120824333,3352.187721791,3352.492950083,3353.836339291,0,0.407395249999809
108,14,23,categorization,0,kitchen,SHINEd_sun_aixorpehvfykdynp.tif,95,0.05,0.0666666666666667,0.95,3353.853352625,3354.210403625,9,3353.903081208,3353.969476791,3354.221954875,3355.165293375,1,0.357050999999956
108,15,23,categorization,0,bathroom,SHINEd_sun_akiytfaagpdsphgz.tif,31,0.05,0.0666666666666667,1.58333333333333,3355.170321291,3355.578216833,13,3355.215389833,3355.276534083,3355.595053666,3357.171765416,1,0.407895542000006
108,16,23,categorization,0,bathroom,SHINEd_sun_anhioqovhscjqqwb.tif,38,0.05,0.0666666666666667,0.766666666666667,3357.187914583,3357.485390625,13,3357.237740166,3357.304200625,3357.510799041,3358.270846166,1,0.297476042000199
108,17,23,categorization,0,kitchen,SHINEd_sun_admlmbcdswaszruo.tif,79,0.05,0.0666666666666667,1.8,3358.2847605,3358.770362666,13,3358.334226916,3358.400830625,3358.7867455,3360.580122458,0,0.485602165999808
108,18,23,categorization,0,kitchen,SHINEd_sun_abrcnpqqhmjwekyf.tif,73,0.05,0.0666666666666667,0.95,3360.598027875,3361.215962583,9,3360.647456041,3360.714272291,3361.237522208,3362.180860166,1,0.617934708000121
108,19,23,categorization,0,bathroom,SHINEd_sun_aoybiabnpadelefl.tif,41,0.05,0.0666666666666667,1.45,3362.186586625,3362.826447791,9,3362.231555541,3362.292677666,3362.845020083,3364.288390166,0,0.639861166000173
108,20,23,categorization,0,kitchen,SHINEd_sun_abftihopvusyfakt.tif,71,0.05,0.0666666666666667,1.15,3364.306385083,3364.73013375,13,3364.3561895,3364.422809375,3364.74489025,3365.888266666,0,0.423748666999927
108,21,23,categorization,0,kitchen,SHINEd_sun_aunzlwrbjumxhwdj.tif,103,0.05,0.0666666666666667,0.733333333333333,3365.904576333,3366.442059875,13,3365.952613333,3366.011740625,3366.447036,3367.173705916,0,0.537483541999791
108,22,23,categorization,0,bathroom,SHINEd_sun_aghyqhbptboemmoq.tif,23,0.05,0.0666666666666667,0.933333333333333,3367.178570791,3367.65871725,9,3367.223604041,3367.284541708,3367.670049958,3368.596721916,0,0.480146459000025
108,23,23,categorization,0,bathroom,SHINEd_sun_abjtwfukuwddzted.tif,15,0.05,0.0666666666666667,1.33333333333333,3368.602328875,3368.994661666,9,3368.647309,3368.708323458,3369.010224541,3370.336933,0,0.392332791000172
108,24,23,categorization,0,bathroom,SHINEd_sun_apkruvsevgegsdwp.tif,44,0.05,0.0666666666666667,1.91666666666667,3370.353842791,3370.731301875,9,3370.403636041,3370.470123125,3370.759694208,3372.669752208,0,0.377459084000293
108,25,23,categorization,0,kitchen,SHINEd_sun_aarfiyshqohlwkmo.tif,67,0.05,0.0666666666666667,1.6,3372.687590625,3373.003966541,9,3372.737811583,3372.803593041,3373.027119625,3374.62050375,1,0.316375915999743
108,26,23,categorization,0,bathroom,SHINEd_sun_agyqfjcfkdcydepw.tif,25,0.05,0.0666666666666667,2,3374.634856166,3375.107450666,13,3374.6847085,3374.750703958,3375.12194075,3377.11532975,1,0.472594500000014
108,27,23,categorization,0,kitchen,SHINEd_sun_adgqasybjyktddhj.tif,78,0.05,0.0666666666666667,1.06666666666667,3377.126548458,3377.462120166,9,3377.176385166,3377.242024833,3377.481521625,3378.541552625,1,0.335571708000316
108,28,23,categorization,0,bathroom,SHINEd_sun_aleqenyvunhactkl.tif,32,0.05,0.0666666666666667,1.28333333333333,3378.550297208,3378.930379041,9,3378.595416875,3378.656265375,3378.941319916,3380.218023083,0,0.380081833000077
108,29,23,categorization,0,bathroom,SHINEd_sun_apeeialkgkuxddgh.tif,42,0.05,0.0666666666666667,0.95,3380.235308083,3380.693014583,9,3380.285221125,3380.351515416,3380.707049291,3381.65041875,0,0.457706500000313
108,30,23,categorization,0,kitchen,SHINEd_sun_amjjdeyrggfqgmom.tif,100,0.05,0.0666666666666667,0.9,3381.668156333,3382.083354166,9,3381.7181165,3381.784097875,3382.10329575,3382.996634333,1,0.415197833000093
108,31,23,categorization,0,kitchen,SHINEd_sun_avszsnwsbuqfgzbn.tif,105,0.05,0.0666666666666667,0.716666666666667,3383.00233525,3383.553958291,9,3383.04735,3383.108344291,3383.560051041,3384.270055,1,0.551623040999857
108,32,23,categorization,0,kitchen,SHINEd_sun_akchetnepxlcxhsu.tif,98,0.05,0.0666666666666667,0.866666666666667,3384.275650083,3384.938456375,13,3384.320759208,3384.381620208,3384.950411791,3385.810417291,0,0.662806291999914
108,33,23,categorization,0,kitchen,SHINEd_sun_acgtpgfybqjmzeyw.tif,75,0.05,0.0666666666666667,1.11666666666667,3385.816988333,3386.185667833,9,3385.861945583,3385.922982958,3386.191349083,3387.301392958,1,0.368679499999871
108,34,23,categorization,0,bathroom,SHINEd_sun_axyrejkiiaqiurjk.tif,59,0.05,0.0666666666666667,0.866666666666667,3387.312724625,3387.72205375,9,3387.360733083,3387.428637666,3387.751852041,3388.611889458,0,0.409329125000113
108,35,23,categorization,0,bathroom,SHINEd_sun_atstyziqcmkahyxk.tif,51,0.05,0.0666666666666667,1.83333333333333,3388.626639833,3389.151011125,9,3388.6765955,3388.742471041,3389.16465425,3390.991368833,0,0.524371292000069
108,36,23,categorization,0,bathroom,SHINEd_sun_alkosphxlxwjwgjd.tif,34,0.05,0.0666666666666667,0.85,3391.009138958,3391.490735041,9,3391.058968166,3391.124002208,3391.51341225,3392.3567505,0,0.481596082999658
108,37,23,categorization,0,kitchen,SHINEd_sun_axyyrmzcupyhlivc.tif,107,0.05,0.0666666666666667,1.76666666666667,3392.362459833,3392.72211925,9,3392.407521375,3392.468464291,3392.736866041,3394.496905291,1,0.35965941700033
108,38,23,categorization,0,kitchen,SHINEd_sun_agubuxuukhzyzpdp.tif,88,0.05,0.0666666666666667,1.9,3394.514676333,3394.9059215,13,3394.564434708,3394.630805083,3394.919532875,3396.812920833,0,0.391245167000307
108,39,23,categorization,0,bathroom,SHINEd_sun_axldvoqbuvuggfmq.tif,57,0.05,0.0666666666666667,1.61666666666667,3396.830873041,3398.537962875,13,3396.880695833,3396.946846416,3398.549613333,3400.159658666,1,1.70708983400027
108,40,23,categorization,0,kitchen,SHINEd_sun_ahspylgoovwmwvgk.tif,93,0.05,0.0666666666666667,1.21666666666667,3400.176063958,3400.554760458,13,3400.22711525,3400.292237375,3400.582260583,3401.792297208,0,0.378696499999933
108,41,23,categorization,0,kitchen,SHINEd_sun_agorklincwxrdtga.tif,87,0.05,0.0666666666666667,1.2,3401.809802083,3402.279190583,9,3401.859558416,3401.925978541,3402.298883208,3403.492249875,1,0.46938850000015
108,42,23,categorization,0,bathroom,SHINEd_sun_acgyywnybuveqsro.tif,18,0.05,0.0666666666666667,1.05,3403.510384583,3403.882015541,9,3403.560180375,3403.62653825,3403.895768041,3404.939162208,0,0.371630957999969
108,43,23,categorization,0,kitchen,SHINEd_sun_aaxxjlsuzvqlgylf.tif,68,0.05,0.0666666666666667,1.01666666666667,3404.950563333,3405.453036916,13,3404.998603166,3405.0657015,3405.471557708,3406.481604958,0,0.50247358300021
108,44,23,categorization,0,bathroom,SHINEd_sun_apmqjbnwghzuhhzh.tif,46,0.05,0.0666666666666667,1.43333333333333,3406.497512583,3406.933657083,9,3406.547242166,3406.613299416,3406.952379875,3408.379094291,0,0.436144499999955
108,45,23,categorization,0,kitchen,SHINEd_sun_abdenxonkemggwsq.tif,69,0.05,0.0666666666666667,1.5,3408.396477458,3408.740986333,9,3408.4459745,3408.512494708,3408.768609791,3410.262001833,1,0.344508874999974
108,46,23,categorization,0,kitchen,SHINEd_sun_ahywdevtimnqcsln.tif,94,0.05,0.0666666666666667,1.21666666666667,3410.279618458,3410.828650416,13,3410.329270041,3410.395672833,3410.852029708,3412.062069625,0,0.549031957999887
108,47,23,categorization,0,bathroom,SHINEd_sun_ahijqszoswveeyji.tif,28,0.05,0.0666666666666667,0.916666666666667,3412.080054,3412.481988333,13,3412.12979325,3412.187417541,3412.489206875,3413.399212125,1,0.401934333000099
108,48,23,categorization,0,kitchen,SHINEd_sun_aeqdocilnnpuvuhx.tif,83,0.05,0.0666666666666667,0.716666666666667,3413.404614916,3413.794231625,9,3413.449575666,3413.510730666,3413.812477416,3414.522481083,1,0.389616709000165
108,49,23,categorization,0,bathroom,SHINEd_sun_aggnnqpdorgxpvce.tif,21,0.05,0.0666666666666667,1.18333333333333,3414.527589125,3414.914052291,9,3414.572555458,3414.633545458,3414.918559833,3416.095242791,0,0.38646316600034
108,50,23,categorization,0,bathroom,SHINEd_sun_acegryoqftbzowsg.tif,17,0.05,0.0666666666666667,0.766666666666667,3416.105177958,3416.549887,13,3416.154928833,3416.221338833,3416.577867125,3417.337923875,1,0.444709042000341
