sub_num,trial,block,task,is_practice,category,image,texture,duration,mask_dur,jitter,stim_time,time_of_resp,trial_response,mask_time,fix_time,jit_onset,trial_end,trial_accuracy,RT
108,1,8,categorization,0,kitchen,SHINEd_sun_acfmftudsenhrfhy.tif,74,0.05,0.0666666666666667,1.18333333333333,1649.71831925,1650.826079958,13,1649.764146541,1649.824325125,1650.843174666,1652.019895875,0,1.10776070800011
108,2,8,categorization,0,bathroom,SHINEd_sun_ahijqszoswveeyji.tif,28,0.05,0.0666666666666667,0.983333333333333,1652.028722333,1652.982393208,13,1652.079673916,1652.144317041,1653.000896291,1653.977568,1,0.953670875000171
108,3,8,categorization,0,kitchen,SHINEd_sun_avszsnwsbuqfgzbn.tif,105,0.05,0.0666666666666667,1.65,1653.983309541,1654.689560083,9,1654.028428625,1654.089397541,1654.707780791,1656.351156916,1,0.706250542000134
108,4,8,categorization,0,kitchen,SHINEd_sun_admlmbcdswaszruo.tif,79,0.05,0.0666666666666667,1.23333333333333,1656.369033375,1657.014930916,9,1656.418843916,1656.484328083,1657.040588791,1658.26731125,1,0.64589754099984
108,5,8,categorization,0,kitchen,SHINEd_sun_aaxxjlsuzvqlgylf.tif,68,0.05,0.0666666666666667,0.916666666666667,1658.285769291,1659.155597375,9,1658.335701833,1658.401042875,1659.173772833,1660.083807125,1,0.869828084000119
108,6,8,categorization,0,kitchen,SHINEd_sun_auaiucuqpdausiva.tif,102,0.05,0.0666666666666667,1.56666666666667,1660.0944525,1660.68934275,9,1660.140247,1660.20093075,1660.702824541,1662.2628605,1,0.594890249999935
108,7,8,categorization,0,bathroom,SHINEd_sun_anhioqovhscjqqwb.tif,38,0.05,0.0666666666666667,1.63333333333333,1662.280070083,1662.90470925,9,1662.329812291,1662.39626775,1662.918458041,1664.545169458,0,0.624639166999941
108,8,8,categorization,0,bathroom,SHINEd_sun_alotolagknyrgtsk.tif,35,0.05,0.0666666666666667,1.1,1664.5622025,1665.032764708,13,1664.611998208,1664.678112833,1665.050844416,1666.144225416,1,0.470562208000047
108,9,8,categorization,0,bathroom,SHINEd_sun_apkxzenqapsujocq.tif,45,0.05,0.0666666666666667,1.38333333333333,1666.155248875,1666.990751333,13,1666.203975666,1666.271263,1667.010723208,1668.3874365,1,0.835502457999837
108,10,8,categorization,0,bathroom,SHINEd_sun_aoybiabnpadelefl.tif,41,0.05,0.0666666666666667,0.766666666666667,1668.405966291,1668.996335833,13,1668.455649041,1668.521741666,1669.010883166,1669.770926458,1,0.59036954200019
108,11,8,categorization,0,bathroom,SHINEd_sun_alkosphxlxwjwgjd.tif,34,0.05,0.0666666666666667,1.45,1669.787150208,1670.641708375,13,1669.836954791,1669.903362958,1670.655752708,1672.099126041,1,0.85455816700005
108,12,8,categorization,0,kitchen,SHINEd_sun_abdenxonkemggwsq.tif,69,0.05,0.0666666666666667,0.983333333333333,1672.117502083,1672.695338541,13,1672.168307875,1672.233731875,1672.723212375,1673.699917791,0,0.577836457999865
108,13,8,categorization,0,kitchen,SHINEd_sun_acgtpgfybqjmzeyw.tif,75,0.05,0.0666666666666667,0.716666666666667,1673.706133083,1674.121645458,13,1673.751123541,1673.812092708,1674.130601958,1674.84060725,0,0.415512375000162
108,14,8,categorization,0,bathroom,SHINEd_sun_agyqfjcfkdcydepw.tif,25,0.05,0.0666666666666667,1.41666666666667,1674.845517916,1675.433726208,9,1674.890452666,1674.9514855,1675.453269958,1676.863310458,0,0.58820829199999
108,15,8,categorization,0,kitchen,SHINEd_sun_auticobqsbwgoppi.tif,104,0.05,0.0666666666666667,1.21666666666667,1676.879699041,1677.269406125,13,1676.929448,1676.996022875,1677.284913333,1678.494967833,0,0.389707083999838
108,16,8,categorization,0,kitchen,SHINEd_sun_aapllqyqlykszopd.tif,66,0.05,0.0666666666666667,1.61666666666667,1678.511150833,1679.069651083,13,1678.558686875,1678.626990791,1679.08185925,1680.691892708,0,0.558500249999952
108,17,8,categorization,0,kitchen,SHINEd_sun_aamedkxepzlwuxes.tif,65,0.05,0.0666666666666667,0.783333333333333,1680.701445416,1681.397260458,9,1680.751176166,1680.817426708,1681.424173708,1682.200885166,1,0.695815041999822
108,18,8,categorization,0,bathroom,SHINEd_sun_ahqjwnzgolcaoidx.tif,29,0.05,0.0666666666666667,1.98333333333333,1682.2167695,1682.945520375,9,1682.266653541,1682.332695375,1682.951384833,1684.928108208,0,0.728750874999832
108,19,8,categorization,0,bathroom,SHINEd_sun_apeeialkgkuxddgh.tif,42,0.05,0.0666666666666667,0.983333333333333,1684.945789166,1685.419569125,9,1684.995771875,1685.062009041,1685.434204,1686.410875041,0,0.473779959000012
108,20,8,categorization,0,kitchen,SHINEd_sun_ahpczsiumwwocjkv.tif,92,0.05,0.0666666666666667,0.8,1686.415846125,1687.0653135,13,1686.461207166,1686.521726083,1687.073744583,1687.867081875,0,0.649467375000086
108,21,8,categorization,0,kitchen,SHINEd_sun_aexklacwqwezaorf.tif,84,0.05,0.0666666666666667,0.733333333333333,1687.872646833,1688.417465208,13,1687.917624875,1687.978670416,1688.430517,1689.157187416,0,0.544818374999977
108,22,8,categorization,0,kitchen,SHINEd_sun_ajkqhtgcbgpcwrwn.tif,97,0.05,0.0666666666666667,0.966666666666667,1689.161786666,1689.593365041,13,1689.206848916,1689.267790166,1689.602919791,1690.562925625,0,0.431578375000072
108,23,8,categorization,0,bathroom,SHINEd_sun_axyrejkiiaqiurjk.tif,59,0.05,0.0666666666666667,0.866666666666667,1690.568467333,1690.985774041,13,1690.613671708,1690.674531916,1690.9933405,1691.853345208,1,0.417306708000069
108,24,8,categorization,0,kitchen,SHINEd_sun_awcpdzzznmweyyhv.tif,106,0.05,0.0666666666666667,1.23333333333333,1691.858906583,1692.28104325,9,1691.903821791,1691.964924833,1692.300100875,1693.526806375,1,0.422136667000132
108,25,8,categorization,0,bathroom,SHINEd_sun_atstyziqcmkahyxk.tif,51,0.05,0.0666666666666667,1.9,1693.543897875,1694.059339583,13,1693.593756625,1693.660026083,1694.082879791,1695.9762465,1,0.515441708000026
108,26,8,categorization,0,bathroom,SHINEd_sun_asfwthctfqerjvxr.tif,49,0.05,0.0666666666666667,0.866666666666667,1695.993995458,1696.380940416,13,1696.044037583,1696.110292375,1696.399878625,1697.259918666,1,0.386944957999958
108,27,8,categorization,0,kitchen,SHINEd_sun_aegoxogugdkwpmpj.tif,80,0.05,0.0666666666666667,0.966666666666667,1697.276816958,1697.784935875,13,1697.326685083,1697.384571708,1697.803264791,1698.763271125,0,0.508118917000047
108,28,8,categorization,0,kitchen,SHINEd_sun_aunzlwrbjumxhwdj.tif,103,0.05,0.0666666666666667,0.916666666666667,1698.7689805,1699.273249791,13,1698.813928125,1698.87500725,1699.276731041,1700.186735,0,0.5042692909999
108,29,8,categorization,0,bathroom,SHINEd_sun_aavhrsfjbserjtht.tif,13,0.05,0.0666666666666667,0.916666666666667,1700.191959458,1702.577227958,9,1700.2369795,1700.297943083,1702.583759125,1703.493764041,0,2.38526850000017
108,30,8,categorization,0,bathroom,SHINEd_sun_acgyywnybuveqsro.tif,18,0.05,0.0666666666666667,1.4,1703.499091875,1704.265324625,13,1703.544118125,1703.60500575,1704.273707458,1705.667093333,1,0.766232749999972
108,31,8,categorization,0,bathroom,SHINEd_sun_agrwbmhcpmfuwmsg.tif,24,0.05,0.0666666666666667,1.75,1705.68532925,1706.366908958,9,1705.735606291,1705.801653583,1706.391187583,1708.134574291,0,0.681579708000072
108,32,8,categorization,0,kitchen,SHINEd_sun_abrcnpqqhmjwekyf.tif,73,0.05,0.0666666666666667,1.25,1708.149932833,1708.904635166,9,1708.200066,1708.266639041,1708.923090416,1710.16647725,1,0.754702332999841
108,33,8,categorization,0,bathroom,SHINEd_sun_aapitsgbtktqubfy.tif,12,0.05,0.0666666666666667,1.05,1710.184160958,1710.84474375,9,1710.234592541,1710.300392375,1710.873832458,1711.917203291,0,0.660582792000014
108,34,8,categorization,0,kitchen,SHINEd_labelme_rykdqxenmhulbdn.tif,63,0.05,0.0666666666666667,1.06666666666667,1711.934951958,1712.545256416,9,1711.981051208,1712.041049041,1712.559446083,1713.619488208,1,0.610304457999973
108,35,8,categorization,0,bathroom,SHINEd_sun_aleqenyvunhactkl.tif,32,0.05,0.0666666666666667,1.21666666666667,1713.628520291,1714.126627583,9,1713.677181666,1713.743161875,1714.149515208,1715.359566208,0,0.498107291999986
108,36,8,categorization,0,kitchen,SHINEd_sun_afuyedyxivkhecmu.tif,85,0.05,0.0666666666666667,0.95,1715.377075791,1716.121746833,9,1715.4270815,1715.493091458,1716.128970166,1717.072309208,1,0.744671042000164
108,37,8,categorization,0,bathroom,SHINEd_sun_ausgutylgojavyoq.tif,53,0.05,0.0666666666666667,0.9,1717.077891083,1717.561561583,13,1717.122885666,1717.183891583,1717.569399,1718.462737666,1,0.483670500000017
108,38,8,categorization,0,bathroom,SHINEd_sun_aunuadmjocsddsrl.tif,52,0.05,0.0666666666666667,1.78333333333333,1718.46754675,1718.913200208,13,1718.512828625,1718.573545833,1718.925493,1720.702204125,1,0.445653457999924
108,39,8,categorization,0,kitchen,SHINEd_sun_amjjdeyrggfqgmom.tif,100,0.05,0.0666666666666667,1.16666666666667,1720.719208291,1721.326895791,13,1720.769383458,1720.835200125,1721.340566833,1722.500614916,0,0.607687499999884
108,40,8,categorization,0,bathroom,SHINEd_sun_axxbkopsgyouuebh.tif,58,0.05,0.0666666666666667,0.783333333333333,1722.510838708,1722.942132916,13,1722.560580916,1722.626838666,1722.966322458,1723.743038291,1,0.431294208000054
108,41,8,categorization,0,kitchen,SHINEd_sun_axyyrmzcupyhlivc.tif,107,0.05,0.0666666666666667,1.23333333333333,1723.753191166,1724.480859375,13,1723.802865458,1723.869204958,1724.488266541,1725.714983291,0,0.72766820899983
108,42,8,categorization,0,kitchen,SHINEd_sun_agubuxuukhzyzpdp.tif,88,0.05,0.0666666666666667,0.9,1725.732398458,1726.236389,13,1725.782370333,1725.848582375,1726.254391916,1727.147770333,0,0.503990541999883
108,43,8,categorization,0,kitchen,SHINEd_sun_azmutvzbxypaceni.tif,110,0.05,0.0666666666666667,0.7,1727.158775708,1727.721893,9,1727.208531041,1727.274711041,1727.727391208,1728.420731083,1,0.563117292000015
108,44,8,categorization,0,kitchen,SHINEd_sun_aggjlwcdjsjcaemh.tif,86,0.05,0.0666666666666667,1.23333333333333,1728.426014958,1728.873447,9,1728.470906041,1728.532003291,1728.884052083,1730.110751041,1,0.447432041999946
108,45,8,categorization,0,bathroom,SHINEd_labelme_sfxiulhjbhlyiyt.tif,11,0.05,0.0666666666666667,1,1730.127128041,1730.596033125,9,1730.176558375,1730.243276208,1730.616459291,1731.609848375,0,0.468905083999971
108,46,8,categorization,0,bathroom,SHINEd_sun_acduarbnmmoglmiv.tif,16,0.05,0.0666666666666667,1.38333333333333,1731.626593208,1732.089803416,9,1731.676373958,1731.742613541,1732.095121416,1733.471830958,0,0.463210207999964
108,47,8,categorization,0,bathroom,SHINEd_sun_akiytfaagpdsphgz.tif,31,0.05,0.0666666666666667,1.3,1733.489425541,1733.866035166,13,1733.538961875,1733.605353458,1733.895050458,1735.188434125,1,0.376609625000128
108,48,8,categorization,0,bathroom,SHINEd_sun_acegryoqftbzowsg.tif,17,0.05,0.0666666666666667,0.833333333333333,1735.201826791,1735.596595958,9,1735.251546333,1735.317972041,1735.624125291,1736.450828541,0,0.394769167000049
108,49,8,categorization,0,bathroom,SHINEd_sun_amzlamotzwfkwjco.tif,37,0.05,0.0666666666666667,0.95,1736.462782583,1736.939335416,9,1736.512860416,1736.578739083,1736.968245875,1737.911583958,0,0.476552832999914
108,50,8,categorization,0,bathroom,SHINEd_sun_aggnnqpdorgxpvce.tif,21,0.05,0.0666666666666667,1.43333333333333,1737.916520875,1738.312722958,9,1737.961585,1738.02246325,1738.324252291,1739.750976375,0,0.396202082999935
