sub_num,trial,block,task,is_practice,category,image,texture,duration,mask_dur,jitter,stim_time,time_of_resp,trial_response,mask_time,fix_time,jit_onset,trial_end,trial_accuracy,RT
108,1,19,categorization,0,bathroom,SHINEd_sun_anryaplzeujmzfkd.tif,39,0.05,0.0666666666666667,1.48333333333333,2833.979932583,2834.5247665,13,2834.025856958,2834.085966541,2834.537702125,2836.014419833,1,0.544833917000233
108,2,19,categorization,0,bathroom,SHINEd_sun_apjevzvycyhuqghb.tif,43,0.05,0.0666666666666667,0.783333333333333,2836.0320645,2836.238929166,9,2836.082192333,2836.148346208,2836.254006666,2837.030731333,0,0.206864666000001
108,3,19,categorization,0,kitchen,SHINEd_sun_aegoxogugdkwpmpj.tif,80,0.05,0.0666666666666667,1.7,2837.044743125,2837.406825541,9,2837.093247416,2837.159512541,2837.432780541,2839.126158375,1,0.362082416000248
108,4,19,categorization,0,bathroom,SHINEd_sun_amzlamotzwfkwjco.tif,37,0.05,0.0666666666666667,1.93333333333333,2839.136931583,2839.818625208,9,2839.186896708,2839.253276208,2839.843620833,2841.770324958,0,0.681693624999753
108,5,19,categorization,0,kitchen,SHINEd_sun_aqeaevwwwjoqhzvl.tif,101,0.05,0.0666666666666667,1.73333333333333,2841.787290166,2843.852926416,9,2841.837777791,2841.903696666,2843.873028291,2845.5997305,1,2.06563625000035
108,6,19,categorization,0,kitchen,SHINEd_sun_abftihopvusyfakt.tif,71,0.05,0.0666666666666667,0.866666666666667,2845.617322208,2846.090725583,13,2845.668444708,2845.733437708,2846.105844166,2846.965879916,0,0.473403375000089
108,7,19,categorization,0,bathroom,SHINEd_sun_apmqjbnwghzuhhzh.tif,46,0.05,0.0666666666666667,1.85,2846.977117541,2848.372851291,13,2847.023029916,2847.083230083,2848.385452583,2850.228818875,1,1.39573375000009
108,8,19,categorization,0,kitchen,SHINEd_sun_akcjzhbbjlbogpdi.tif,99,0.05,0.0666666666666667,0.966666666666667,2850.247084333,2850.614032416,9,2850.297315,2850.363507625,2850.637127291,2851.597132666,1,0.366948082999897
108,9,19,categorization,0,bathroom,SHINEd_sun_agyqfjcfkdcydepw.tif,25,0.05,0.0666666666666667,0.733333333333333,2851.603001,2851.996412583,9,2851.647948083,2851.708912833,2852.010692583,2852.737364916,0,0.393411583000216
108,10,19,categorization,0,kitchen,SHINEd_sun_agubuxuukhzyzpdp.tif,88,0.05,0.0666666666666667,0.733333333333333,2852.742394125,2853.172813291,13,2852.787296833,2852.848404291,2853.183614208,2853.910286291,0,0.430419165999865
108,11,19,categorization,0,kitchen,SHINEd_sun_ajcbwwvdlsvjyzje.tif,96,0.05,0.0666666666666667,1.93333333333333,2853.915367666,2854.236900083,9,2853.960260916,2854.0213715,2854.256431083,2856.183129958,1,0.321532417000071
108,12,19,categorization,0,kitchen,SHINEd_sun_aehawpgmrlhlvcow.tif,81,0.05,0.0666666666666667,1.1,2856.201226666,2856.484630208,9,2856.250547041,2856.317610791,2856.507442208,2857.600826666,1,0.283403542000087
108,13,19,categorization,0,kitchen,SHINEd_sun_aaxxjlsuzvqlgylf.tif,68,0.05,0.0666666666666667,1.8,2857.612112083,2857.903883458,9,2857.660349125,2857.724616,2857.930680875,2859.724060291,1,0.29177137500028
108,14,19,categorization,0,bathroom,SHINEd_sun_aleqenyvunhactkl.tif,32,0.05,0.0666666666666667,0.733333333333333,2859.742130916,2859.845943375,9,2859.791884041,2859.859140208,2859.881919083,2860.608639916,0,0.103812458999982
108,15,19,categorization,0,bathroom,SHINEd_sun_afcoljnjfoxjtgja.tif,20,0.05,0.0666666666666667,1.5,2860.622745458,2861.2811655,13,2860.6722065,2860.738657,2861.294197958,2862.787572125,1,0.658420042000216
108,16,19,categorization,0,kitchen,SHINEd_labelme_rykdqxenmhulbdn.tif,63,0.05,0.0666666666666667,0.8,2862.805469083,2863.265082208,9,2862.855368541,2862.921702416,2863.294526541,2864.08789425,1,0.459613125000033
108,17,19,categorization,0,kitchen,SHINEd_sun_azmutvzbxypaceni.tif,110,0.05,0.0666666666666667,0.95,2864.104044916,2864.484159833,9,2864.153752375,2864.220322541,2864.489562583,2865.432899166,1,0.380114916999901
108,18,19,categorization,0,kitchen,SHINEd_sun_acgtpgfybqjmzeyw.tif,75,0.05,0.0666666666666667,1.1,2865.437634041,2865.828113666,9,2865.482652541,2865.543544916,2865.845693833,2866.939068083,1,0.390479624999898
108,19,19,categorization,0,kitchen,SHINEd_sun_aexklacwqwezaorf.tif,84,0.05,0.0666666666666667,1.63333333333333,2866.947958458,2867.360607666,13,2866.995469666,2867.063784666,2867.386832791,2869.01354375,0,0.412649207999948
108,20,19,categorization,0,bathroom,SHINEd_sun_acduarbnmmoglmiv.tif,16,0.05,0.0666666666666667,1.71666666666667,2869.032312458,2870.444757708,9,2869.080618916,2869.148695583,2870.475523125,2872.185560958,0,1.41244525000002
108,21,19,categorization,0,kitchen,SHINEd_sun_acfmftudsenhrfhy.tif,74,0.05,0.0666666666666667,1.43333333333333,2872.205811,2872.8537935,9,2872.255910291,2872.321521375,2872.878300791,2874.3050105,1,0.647982500000126
108,22,19,categorization,0,kitchen,SHINEd_sun_aypmqwcualkenuoe.tif,109,0.05,0.0666666666666667,0.966666666666667,2874.322060666,2874.601396875,9,2874.372147041,2874.438301708,2874.628077,2875.588126291,1,0.279336208999666
108,23,19,categorization,0,bathroom,SHINEd_sun_ahqjwnzgolcaoidx.tif,29,0.05,0.0666666666666667,1.61666666666667,2875.604106291,2875.987987625,13,2875.653779375,2875.720216041,2876.006180416,2877.616221125,1,0.383881334000307
108,24,19,categorization,0,kitchen,SHINEd_sun_aamedkxepzlwuxes.tif,65,0.05,0.0666666666666667,0.866666666666667,2877.633808791,2877.979960583,9,2877.683399708,2877.750243125,2878.006879833,2878.866928833,1,0.346151792000001
108,25,19,categorization,0,bathroom,SHINEd_sun_aspsyogrekjtfozg.tif,50,0.05,0.0666666666666667,1.25,2878.881722625,2879.244545375,13,2878.931263708,2878.997793958,2879.249957333,2880.493341333,1,0.362822750000305
108,26,19,categorization,0,kitchen,SHINEd_sun_abpwyqmlzafvklqo.tif,72,0.05,0.0666666666666667,0.716666666666667,2880.511363458,2880.8700775,9,2880.561485875,2880.627541166,2880.882869125,2881.592914416,1,0.358714042000429
108,27,19,categorization,0,kitchen,SHINEd_sun_abrcnpqqhmjwekyf.tif,73,0.05,0.0666666666666667,1.71666666666667,2881.606945541,2881.959677416,13,2881.656931916,2881.723345583,2881.979477916,2883.689521125,0,0.35273187499979
108,28,19,categorization,0,bathroom,SHINEd_sun_alkosphxlxwjwgjd.tif,34,0.05,0.0666666666666667,1.31666666666667,2883.70660075,2883.810362083,9,2883.756476541,2883.824178583,2883.847038916,2885.157089333,0,0.103761333000421
108,29,19,categorization,0,kitchen,SHINEd_labelme_brsyyvweiuaazfr.tif,61,0.05,0.0666666666666667,0.9,2885.169676041,2885.449681416,13,2885.219703625,2885.286117,2885.476204291,2886.369584125,0,0.280005375000201
108,30,19,categorization,0,bathroom,SHINEd_sun_anhioqovhscjqqwb.tif,38,0.05,0.0666666666666667,1,2886.383959083,2886.836520625,13,2886.433183916,2886.500254166,2886.856570625,2887.849909541,1,0.45256154200024
108,31,19,categorization,0,kitchen,SHINEd_sun_ahywdevtimnqcsln.tif,94,0.05,0.0666666666666667,1.15,2887.854760291,2888.331985666,9,2887.899739875,2887.96068625,2888.345814416,2889.489186625,1,0.477225375000216
108,32,19,categorization,0,bathroom,SHINEd_sun_apkruvsevgegsdwp.tif,44,0.05,0.0666666666666667,1.55,2889.498763666,2889.863218291,9,2889.546649125,2889.6146765,2889.887707125,2891.431078041,0,0.364454625000235
108,33,19,categorization,0,kitchen,SHINEd_sun_acxkpeoqbwcxfvip.tif,77,0.05,0.0666666666666667,1.13333333333333,2891.449118458,2891.887972791,9,2891.498626958,2891.565185125,2891.904314791,2893.031027541,1,0.438854332999654
108,34,19,categorization,0,bathroom,SHINEd_sun_auzqhkafidnkrwmo.tif,54,0.05,0.0666666666666667,1.35,2893.048815666,2893.516597708,9,2893.096645375,2893.163695375,2893.532963375,2894.876330291,0,0.467782042000181
108,35,19,categorization,0,bathroom,SHINEd_sun_ahaulkltgpkeeemi.tif,26,0.05,0.0666666666666667,0.7,2894.893755666,2895.382387,9,2894.943698708,2895.00982175,2895.39884425,2896.092215,0,0.488631334000274
108,36,19,categorization,0,kitchen,SHINEd_sun_ajkqhtgcbgpcwrwn.tif,97,0.05,0.0666666666666667,0.916666666666667,2896.106605291,2896.756059,9,2896.156248291,2896.219914375,2896.772011333,2897.682016375,1,0.649453708999772
108,37,19,categorization,0,kitchen,SHINEd_sun_avszsnwsbuqfgzbn.tif,105,0.05,0.0666666666666667,1.38333333333333,2897.68688475,2898.059932708,9,2897.731862416,2897.793287166,2898.078512916,2899.455233583,1,0.373047957999916
108,38,19,categorization,0,bathroom,SHINEd_sun_agrwbmhcpmfuwmsg.tif,24,0.05,0.0666666666666667,1.98333333333333,2899.473089625,2899.904698,9,2899.52339725,2899.590047791,2899.930090458,2901.906789166,0,0.431608374999996
108,39,19,categorization,0,bathroom,SHINEd_sun_ahijqszoswveeyji.tif,28,0.05,0.0666666666666667,1.21666666666667,2901.926445166,2902.417094208,9,2901.9765475,2902.042733333,2902.432280083,2903.642327166,0,0.490649041999859
108,40,19,categorization,0,kitchen,SHINEd_sun_aadbddgrdsjugojn.tif,64,0.05,0.0666666666666667,0.883333333333333,2903.654787083,2904.006550208,13,2903.704985708,2903.771654958,2904.028769958,2904.90547825,0,0.351763125000161
108,41,19,categorization,0,bathroom,SHINEd_sun_aoybiabnpadelefl.tif,41,0.05,0.0666666666666667,1.36666666666667,2904.920194833,2905.364880041,9,2904.970892916,2905.036632083,2905.393905333,2906.753961833,0,0.44468520800001
108,42,19,categorization,0,bathroom,SHINEd_sun_awnqiikzaispgmwo.tif,56,0.05,0.0666666666666667,1.78333333333333,2906.7723035,2907.176313916,9,2906.822596583,2906.888630916,2907.195161208,2908.971860583,0,0.404010415999892
108,43,19,categorization,0,kitchen,SHINEd_labelme_kxvouciolcpqplr.tif,62,0.05,0.0666666666666667,1.53333333333333,2908.98974125,2909.447559291,9,2909.040148,2909.104128958,2909.478106791,2911.0048105,1,0.457818040999882
108,44,19,categorization,0,kitchen,SHINEd_sun_abdenxonkemggwsq.tif,69,0.05,0.0666666666666667,0.8,2911.024344291,2911.532525291,9,2911.074980833,2911.139674333,2911.562936083,2912.356306166,1,0.50818100000015
108,45,19,categorization,0,bathroom,SHINEd_sun_agguqiubmwhqqunb.tif,22,0.05,0.0666666666666667,1,2912.372772791,2912.915780375,9,2912.422963333,2912.488752166,2912.924572875,2913.91791025,0,0.543007583999952
108,46,19,categorization,0,bathroom,SHINEd_sun_apeeialkgkuxddgh.tif,42,0.05,0.0666666666666667,1.01666666666667,2913.922749,2914.436617208,9,2913.967817416,2914.028798166,2914.447172416,2915.457208333,0,0.513868208000076
108,47,19,categorization,0,bathroom,SHINEd_sun_ajlawzvmubibwbpy.tif,30,0.05,0.0666666666666667,1.83333333333333,2915.46780825,2915.831961291,13,2915.516157541,2915.582297666,2915.85583825,2917.682536416,1,0.364153041000009
108,48,19,categorization,0,bathroom,SHINEd_sun_ahcvzmoyaycdoftf.tif,27,0.05,0.0666666666666667,1.03333333333333,2917.692339291,2918.064823041,13,2917.742075333,2917.808559708,2918.081186708,2919.107885791,1,0.372483750000356
108,49,19,categorization,0,bathroom,SHINEd_sun_aapitsgbtktqubfy.tif,12,0.05,0.0666666666666667,1.16666666666667,2919.11857825,2919.6376035,13,2919.168874583,2919.234607833,2919.657529708,2920.817567208,1,0.519025249999686
108,50,19,categorization,0,kitchen,SHINEd_sun_aixorpehvfykdynp.tif,95,0.05,0.0666666666666667,1,2920.827261958,2921.342968875,13,2920.876490833,2920.943272916,2921.366733708,2922.36010725,0,0.515706917000443
