sub_num,trial,block,task,is_practice,category,image,texture,duration,blank,mask_dur,jitter,stim_time,time_of_resp,trial_response,blank_time,mask_time,fix_time,jit_onset,trial_end,trial_accuracy,RT
108,1,3,categorization,0,kitchen,SHINEd_sun_aggjlwcdjsjcaemh.tif,87,0.0333333333333333,0.0166666666666667,0.0833333333333333,0.983333333333333,875895.5369572,875896.2210794,70,875895.5722235,875895.5901252,875895.673126,875896.2265207,875897.2081926,0,0.68412220000755
108,2,3,categorization,0,bathroom,SHINEd_sun_ahcvzmoyaycdoftf.tif,29,0.0333333333333333,0.0166666666666667,0.0833333333333333,0.716666666666667,875897.2129552,875897.9098578,74,875897.2502712,875897.2671076,875897.3504158,875897.9148807,875898.6298859,0,0.696902600000612
108,3,3,categorization,0,bathroom,SHINEd_sun_akiytfaagpdsphgz.tif,32,0.0333333333333333,0.0166666666666667,0.0833333333333333,1.73333333333333,875898.6348567,875899.4378417,70,875898.6719684,875898.687641,875898.7719485,875899.4431255,875901.1747974,1,0.802985000074841
108,4,3,categorization,0,bathroom,SHINEd_sun_atyjprilyfyzpbjv.tif,52,0.0333333333333333,0.0166666666666667,0.0833333333333333,1.9,875901.1807359,875901.797113,70,875901.2160159,875901.2331603,875901.3162005,875901.8026118,875903.7009498,1,0.616377099999227
108,5,3,categorization,0,kitchen,SHINEd_sun_ayqymgxqhxxiykiw.tif,109,0.0333333333333333,0.0166666666666667,0.0833333333333333,1.88333333333333,875903.7057768,875904.5898907,74,875903.7427845,875903.7593755,875903.8414931,875904.5954774,875906.4771497,1,0.884113899897784
108,6,3,categorization,0,bathroom,SHINEd_sun_anhioqovhscjqqwb.tif,40,0.0333333333333333,0.0166666666666667,0.0833333333333333,1.75,875906.48192,875907.1900047,70,875906.5176247,875906.5347667,875906.6176732,875907.1953883,875908.9437265,1,0.708084699930623
108,7,3,categorization,0,bathroom,SHINEd_sun_acgyywnybuveqsro.tif,19,0.0333333333333333,0.0166666666666667,0.0833333333333333,1.1,875908.9490342,875909.597183,70,875908.9862851,875909.00294,875909.0850969,875909.6030149,875910.7013535,1,0.648148799897172
108,8,3,categorization,0,bathroom,SHINEd_sun_amzlamotzwfkwjco.tif,39,0.0333333333333333,0.0166666666666667,0.0833333333333333,1.05,875910.7061839,875911.4291743,74,875910.7430291,875910.7601955,875910.8424786,875911.4352893,875912.4836279,0,0.722990400041454
108,9,3,categorization,0,kitchen,SHINEd_sun_admlmbcdswaszruo.tif,80,0.0333333333333333,0.0166666666666667,0.0833333333333333,1.18333333333333,875912.4883421,875913.1901015,70,875912.5241373,875912.5410081,875912.6243346,875913.1955739,875914.3772463,0,0.701759399962611
108,10,3,categorization,0,kitchen,SHINEd_sun_aqeaevwwwjoqhzvl.tif,99,0.0333333333333333,0.0166666666666667,0.0833333333333333,0.95,875914.3820425,875915.1571474,70,875914.4177614,875914.4356243,875914.5176725,875915.1624619,875916.1107987,0,0.775104900007136
108,11,3,categorization,0,bathroom,SHINEd_sun_aoybiabnpadelefl.tif,42,0.0333333333333333,0.0166666666666667,0.0833333333333333,1.18333333333333,875916.1172717,875916.9580509,70,875916.1546363,875916.1713931,875916.2530279,875916.9631367,875918.1448081,1,0.840779200079851
108,12,3,categorization,0,kitchen,SHINEd_sun_aqeaevwwwjoqhzvl.tif,99,0.0333333333333333,0.0166666666666667,0.0833333333333333,0.866666666666667,875918.1495525,875918.7891582,74,875918.1853977,875918.2030281,875918.2854592,875918.7943012,875919.6593047,1,0.639605700038373
108,13,3,categorization,0,bathroom,SHINEd_sun_aqrpegblszgcoujh.tif,47,0.0333333333333333,0.0166666666666667,0.0833333333333333,0.7,875919.6637074,875920.4691652,70,875919.6993994,875919.7176641,875919.8003513,875920.475172,875921.1735106,1,0.805457800044678
108,14,3,categorization,0,kitchen,SHINEd_sun_ataniphupyuxeowc.tif,100,0.0333333333333333,0.0166666666666667,0.0833333333333333,0.766666666666667,875921.1785241,875921.9331763,74,875921.2142198,875921.2315162,875921.3143822,875921.9388994,875922.7039056,1,0.754652200033888
108,15,3,categorization,0,bathroom,SHINEd_sun_apynckhmoftszqoq.tif,46,0.0333333333333333,0.0166666666666667,0.0833333333333333,0.8,875922.7088075,875923.3738644,70,875922.7463296,875922.7613701,875922.8447175,875923.3787106,875924.177059,1,0.665056900004856
108,16,3,categorization,0,kitchen,SHINEd_sun_aexklacwqwezaorf.tif,85,0.0333333333333333,0.0166666666666667,0.0833333333333333,0.95,875924.181643,875924.9251254,70,875924.2190892,875924.2350118,875924.3172106,875924.9311871,875925.8795258,0,0.743482399964705
108,17,3,categorization,0,kitchen,SHINEd_sun_aadbddgrdsjugojn.tif,64,0.0333333333333333,0.0166666666666667,0.0833333333333333,1.06666666666667,875925.8853156,875926.7650958,74,875925.9224284,875925.9393952,875926.0205102,875926.7709348,875927.8359401,1,0.879780200077221
108,18,3,categorization,0,bathroom,SHINEd_sun_aclfzgynxzxlbepz.tif,20,0.0333333333333333,0.0166666666666667,0.0833333333333333,0.95,875927.8406955,875928.5096894,70,875927.8762092,875927.8932949,875927.9772345,875928.5142686,875929.4626054,1,0.668993899947964
108,19,3,categorization,0,bathroom,SHINEd_sun_aspsyogrekjtfozg.tif,50,0.0333333333333333,0.0166666666666667,0.0833333333333333,1,875929.4682389,875930.6770959,74,875929.5037915,875929.5218477,875929.603767,875930.6823914,875931.68073,0,1.20885700010695
108,20,3,categorization,0,bathroom,SHINEd_sun_asfwthctfqerjvxr.tif,49,0.0333333333333333,0.0166666666666667,0.0833333333333333,0.95,875931.6853788,875932.5651607,74,875931.7214937,875931.7381923,875931.8209098,875932.5711738,875933.5195124,0,0.87978189997375
108,21,3,categorization,0,bathroom,SHINEd_sun_aljolscmmzydegqp.tif,34,0.0333333333333333,0.0166666666666667,0.0833333333333333,1.08333333333333,875933.5258911,875934.3091766,74,875933.5631753,875933.5801883,875933.66155,875934.3156484,875935.3973211,0,0.783285499899648
108,22,3,categorization,0,kitchen,SHINEd_sun_aegoxogugdkwpmpj.tif,81,0.0333333333333333,0.0166666666666667,0.0833333333333333,1.48333333333333,875935.4028682,875935.9899623,74,875935.4395395,875935.456794,875935.5386515,875935.9954897,875937.4771612,1,0.587094100075774
108,23,3,categorization,0,kitchen,SHINEd_sun_aexklacwqwezaorf.tif,85,0.0333333333333333,0.0166666666666667,0.0833333333333333,0.783333333333333,875937.4822984,875938.2211702,74,875937.5179571,875937.535011,875937.6178428,875938.2271975,875939.0088677,1,0.738871800014749
108,24,3,categorization,0,bathroom,SHINEd_sun_aljolscmmzydegqp.tif,34,0.0333333333333333,0.0166666666666667,0.0833333333333333,1.53333333333333,875939.0134531,875939.7499955,70,875939.0492935,875939.0662264,875939.1490954,875939.7549108,875941.2865829,1,0.736542399972677
108,25,3,categorization,0,kitchen,SHINEd_sun_ajcbwwvdlsvjyzje.tif,95,0.0333333333333333,0.0166666666666667,0.0833333333333333,1.65,875941.2912179,875942.3411076,74,875941.3267628,875941.3452606,875941.4267864,875942.3469434,875943.9952814,1,1.04988970002159
108,26,3,categorization,0,bathroom,SHINEd_sun_axxbkopsgyouuebh.tif,58,0.0333333333333333,0.0166666666666667,0.0833333333333333,0.916666666666667,875944.0011399,875944.6051488,70,875944.0368601,875944.054977,875944.1369757,875944.6105219,875945.5255394,1,0.604008900001645
108,27,3,categorization,0,kitchen,SHINEd_sun_abdxkyyxwfskuaqb.tif,70,0.0333333333333333,0.0166666666666667,0.0833333333333333,0.933333333333333,875945.5304533,875946.1571711,74,875945.5673524,875945.5844273,875945.666312,875946.1632419,875947.0949141,1,0.626717800041661
108,28,3,categorization,0,kitchen,SHINEd_labelme_rykdqxenmhulbdn.tif,63,0.0333333333333333,0.0166666666666667,0.0833333333333333,1.13333333333333,875947.1002177,875947.9491951,70,875947.1359942,875947.1529631,875947.2360354,875947.9552003,875949.0868701,0,0.848977399989963
108,29,3,categorization,0,kitchen,SHINEd_sun_aaxxjlsuzvqlgylf.tif,68,0.0333333333333333,0.0166666666666667,0.0833333333333333,0.95,875949.09147,875949.7181526,74,875949.1271609,875949.1442668,875949.2271559,875949.7233924,875950.6717303,1,0.626682600006461
108,30,3,categorization,0,bathroom,SHINEd_sun_ausgutylgojavyoq.tif,54,0.0333333333333333,0.0166666666666667,0.0833333333333333,1.68333333333333,875950.6766234,875951.3091731,70,875950.7134898,875950.7306215,875950.8119053,875951.315177,875952.9968487,1,0.632549700094387
108,31,3,categorization,0,kitchen,SHINEd_sun_aegoxogugdkwpmpj.tif,81,0.0333333333333333,0.0166666666666667,0.0833333333333333,1.43333333333333,875953.0017464,875953.853173,74,875953.0373981,875953.0547999,875953.1384436,875953.8588195,875955.2904928,1,0.851426600012928
108,32,3,categorization,0,bathroom,SHINEd_sun_acgyywnybuveqsro.tif,19,0.0333333333333333,0.0166666666666667,0.0833333333333333,1.21666666666667,875955.2954441,875956.0377545,70,875955.3310742,875955.3478716,875955.4326566,875956.0429,875957.2579045,1,0.742310400004499
108,33,3,categorization,0,bathroom,SHINEd_sun_aleqenyvunhactkl.tif,33,0.0333333333333333,0.0166666666666667,0.0833333333333333,1.73333333333333,875957.2632837,875957.9891253,70,875957.2986876,875957.3164934,875957.399252,875957.9946164,875959.7262877,1,0.725841599982232
108,34,3,categorization,0,kitchen,SHINEd_sun_acfluyeqiftljamq.tif,74,0.0333333333333333,0.0166666666666667,0.0833333333333333,0.983333333333333,875959.7313209,875960.3891614,74,875959.7683562,875959.785696,875959.8667727,875960.3954818,875961.3771535,1,0.657840500003658
108,35,3,categorization,0,kitchen,SHINEd_sun_alpduwskzkgbcfui.tif,97,0.0333333333333333,0.0166666666666667,0.0833333333333333,1.31666666666667,875961.3834516,875962.301827,74,875961.4192847,875961.4373385,875961.5205667,875962.3064923,875963.6214972,1,0.918375400011428
108,36,3,categorization,0,kitchen,SHINEd_sun_agorklincwxrdtga.tif,88,0.0333333333333333,0.0166666666666667,0.0833333333333333,1.31666666666667,875963.626387,875964.3739854,74,875963.6618504,875963.6790538,875963.7620693,875964.3792907,875965.6942941,1,0.747598399990238
108,37,3,categorization,0,kitchen,SHINEd_sun_aamedkxepzlwuxes.tif,65,0.0333333333333333,0.0166666666666667,0.0833333333333333,0.966666666666667,875965.7001857,875966.333055,74,875965.7374864,875965.7543918,875965.8370711,875966.3381262,875967.3031307,1,0.632869300083257
108,38,3,categorization,0,kitchen,SHINEd_sun_acfluyeqiftljamq.tif,74,0.0333333333333333,0.0166666666666667,0.0833333333333333,1.16666666666667,875967.3078968,875968.0851494,74,875967.3451483,875967.3609884,875967.4435634,875968.0912806,875969.2562855,1,0.777252600062639
108,39,3,categorization,0,kitchen,SHINEd_sun_abpwyqmlzafvklqo.tif,72,0.0333333333333333,0.0166666666666667,0.0833333333333333,1.9,875969.2613237,875969.8140736,74,875969.298523,875969.315582,875969.3968268,875969.8191705,875971.7175082,1,0.552749900030904
108,40,3,categorization,0,bathroom,SHINEd_sun_aunuadmjocsddsrl.tif,53,0.0333333333333333,0.0166666666666667,0.0833333333333333,1.13333333333333,875971.7223668,875972.357179,70,875971.7585261,875971.7755195,875971.8577744,875972.3638279,875973.4954995,1,0.634812200092711
108,41,3,categorization,0,kitchen,SHINEd_sun_ahljzhgcdpomplvg.tif,92,0.0333333333333333,0.0166666666666667,0.0833333333333333,1.05,875973.5000291,875974.0130915,73,875973.5357352,875973.5541147,875973.6358419,875975.7474116,875976.7957503,NaN,0.513062400044873
108,42,3,categorization,0,bathroom,SHINEd_sun_axyrejkiiaqiurjk.tif,59,0.0333333333333333,0.0166666666666667,0.0833333333333333,1.33333333333333,875976.8003684,875977.4063031,70,875976.8361307,875976.853861,875976.9361369,875977.4115702,875978.7432422,1,0.605934699997306
108,43,3,categorization,0,bathroom,SHINEd_sun_anhioqovhscjqqwb.tif,40,0.0333333333333333,0.0166666666666667,0.0833333333333333,1.13333333333333,875978.7478066,875979.1011227,82,875978.7835072,875978.8016932,875978.8848342,875980.1713354,875981.3030055,NaN,0.353316100081429
108,44,3,categorization,0,kitchen,SHINEd_labelme_brsyyvweiuaazfr.tif,61,0.0333333333333333,0.0166666666666667,0.0833333333333333,0.716666666666667,875981.3075273,875981.9971087,74,875981.3435197,875981.3602487,875981.4441473,875982.00266,875982.7176645,1,0.689581400016323
108,45,3,categorization,0,kitchen,SHINEd_sun_aypmqwcualkenuoe.tif,108,0.0333333333333333,0.0166666666666667,0.0833333333333333,0.716666666666667,875982.7239858,875983.3650766,74,875982.7598179,875982.7768086,875982.8597552,875983.3709513,875984.0859551,1,0.641090799937956
108,46,3,categorization,0,kitchen,SHINEd_labelme_kxvouciolcpqplr.tif,62,0.0333333333333333,0.0166666666666667,0.0833333333333333,1.98333333333333,875984.0905991,875984.7091368,74,875984.1263337,875984.1433104,875984.2263157,875984.7148252,875986.6964969,1,0.618537700036541
108,47,3,categorization,0,bathroom,SHINEd_sun_aavhrsfjbserjtht.tif,15,0.0333333333333333,0.0166666666666667,0.0833333333333333,0.733333333333333,875986.7013958,875987.2851423,74,875986.7371697,875986.7543855,875986.8372839,875987.290585,875988.0222565,0,0.583746499964036
108,48,3,categorization,0,kitchen,SHINEd_sun_auticobqsbwgoppi.tif,103,0.0333333333333333,0.0166666666666667,0.0833333333333333,0.783333333333333,875988.0265643,875988.6139069,70,875988.0622476,875988.0792301,875988.1622173,875988.6194337,875989.4011051,0,0.58734260010533
108,49,3,categorization,0,bathroom,SHINEd_sun_atstyziqcmkahyxk.tif,51,0.0333333333333333,0.0166666666666667,0.0833333333333333,1.78333333333333,875989.4056703,875989.9578409,70,875989.4414304,875989.459434,875989.5413505,875989.9629737,875991.7446448,1,0.55217060004361
108,50,3,categorization,0,kitchen,SHINEd_sun_auaiucuqpdausiva.tif,101,0.0333333333333333,0.0166666666666667,0.0833333333333333,1.46666666666667,875991.7494957,875992.4616811,74,875991.7867763,875991.8020883,875991.887116,875992.4669187,875993.9319235,1,0.71218539995607
