sub_num,trial,block,task,is_practice,category,image,texture,duration,mask_dur,jitter,stim_time,time_of_resp,trial_response,mask_time,fix_time,jit_onset,trial_end,trial_accuracy,RT
102,6,0,usability,1,kitchen,kitchen_practice2.tif,227,1.5,0,1.13333333333333,21067.517091416,21070.759386916,6,NaN,21070.765934708,21070.784272666,21071.911007625,NaN,NaN
102,7,0,usability,1,kitchen,kitchen_practice3.tif,228,1.5,0,0.933333333333333,21071.921096083,21077.175683458,4,NaN,21077.181379708,21077.19966475,21078.126344958,NaN,NaN
102,8,0,usability,1,kitchen,kitchen_practice1.tif,226,1.5,0,1.48333333333333,21078.130972875,21083.351841666,5,NaN,21083.357752916,21083.376141833,21084.852906916,NaN,NaN
102,9,0,usability,1,kitchen,kitchen_practice4.tif,229,1.5,0,1.33333333333333,21084.871907416,21087.912060416,7,NaN,21087.917475416,21087.935914791,21089.262657916,NaN,NaN
102,10,0,usability,1,kitchen,kitchen_practice5.tif,230,1.5,0,1.3,21089.277131958,21092.535613708,2,NaN,21092.541394875,21092.55977675,21093.85316725,NaN,NaN
102,1,1,usability,0,kitchen,sun_amjjdeyrggfqgmom.tif,210,1.5,0,1.91666666666667,21098.30419825,21101.895164458,4,NaN,21101.901338791,21101.919571958,21103.829669208,NaN,NaN
102,2,1,usability,0,kitchen,sun_aymvwlarqodbwuoc.tif,218,1.5,0,0.85,21103.846993541,21106.93119075,7,NaN,21106.961610333,21106.985046083,21107.828386875,NaN,NaN
102,3,1,usability,0,kitchen,labelme_rykdqxenmhulbdn.tif,173,1.5,0,0.7,21107.83328925,21111.063375083,5,NaN,21111.069381166,21111.087867125,21111.7812075,NaN,NaN
102,4,1,usability,0,kitchen,sun_adgqasybjyktddhj.tif,188,1.5,0,1.6,21111.797279416,21116.2953295,7,NaN,21116.301212583,21116.31956275,21117.913001375,NaN,NaN
102,5,1,usability,0,kitchen,sun_aehawpgmrlhlvcow.tif,191,1.5,0,1.13333333333333,21117.930894791,21123.255935416,5,NaN,21123.261683833,21123.280037625,21124.406784666,NaN,NaN
102,6,1,usability,0,kitchen,sun_aadbddgrdsjugojn.tif,174,1.5,0,0.716666666666667,21124.416909166,21127.791224208,3,NaN,21127.797395375,21127.815837333,21128.525846541,NaN,NaN
102,7,1,usability,0,kitchen,sun_acwjdupvyjsugpay.tif,186,1.5,0,1.6,21128.530256083,21131.831046125,2,NaN,21131.837731833,21131.856091458,21133.449486208,NaN,NaN
102,8,1,usability,0,kitchen,sun_aixorpehvfykdynp.tif,205,1.5,0,1.68333333333333,21133.467889125,21137.174958083,6,NaN,21137.181968333,21137.200237625,21138.876971208,NaN,NaN
102,9,1,usability,0,kitchen,sun_auaiucuqpdausiva.tif,212,1.5,0,1.41666666666667,21138.898772083,21141.620024708,7,NaN,21141.650454625,21141.674216208,21143.084288833,NaN,NaN
102,10,1,usability,0,kitchen,sun_aamedkxepzlwuxes.tif,175,1.5,0,1,21143.103116041,21147.495673083,5,NaN,21147.50117575,21147.519555583,21148.512899083,NaN,NaN
102,11,1,usability,0,kitchen,sun_ahpczsiumwwocjkv.tif,202,1.5,0,1.33333333333333,21148.517377458,21152.255870375,5,NaN,21152.2614395,21152.279970083,21153.606699541,NaN,NaN
102,12,1,usability,0,kitchen,sun_aenotlpyftoioydp.tif,192,1.5,0,1.15,21153.624339791,21157.311853375,3,NaN,21157.317557583,21157.335927916,21158.479344,NaN,NaN
102,13,1,usability,0,kitchen,sun_aexklacwqwezaorf.tif,194,1.5,0,1.86666666666667,21158.490710333,21161.686948875,7,NaN,21161.6929185,21161.711402625,21163.571512375,NaN,NaN
102,14,1,usability,0,kitchen,sun_aapllqyqlykszopd.tif,176,1.5,0,1.18333333333333,21163.59126625,21167.135293541,7,NaN,21167.141440208,21167.159748083,21168.336454625,NaN,NaN
102,15,1,usability,0,kitchen,sun_ahywdevtimnqcsln.tif,204,1.5,0,1.71666666666667,21168.347470125,21171.38339075,7,NaN,21171.388913083,21171.407363708,21173.117446375,NaN,NaN
102,16,1,usability,0,kitchen,sun_aggjlwcdjsjcaemh.tif,196,1.5,0,1.1,21173.137060916,21176.523267625,5,NaN,21176.553066,21176.576542041,21177.669948916,NaN,NaN
102,17,1,usability,0,kitchen,sun_acxkpeoqbwcxfvip.tif,187,1.5,0,0.983333333333333,21177.678489708,21180.686786125,6,NaN,21180.692788875,21180.711043541,21181.6877195,NaN,NaN
102,18,1,usability,0,kitchen,sun_aeqdocilnnpuvuhx.tif,193,1.5,0,0.916666666666667,21181.697013166,21184.588617041,2,NaN,21184.618289833,21184.641996041,21185.552005625,NaN,NaN
102,19,1,usability,0,kitchen,sun_akcjzhbbjlbogpdi.tif,209,1.5,0,0.716666666666667,21185.556773291,21189.759257583,3,NaN,21189.764891291,21189.783307,21190.493315916,NaN,NaN
102,20,1,usability,0,kitchen,sun_ajcbwwvdlsvjyzje.tif,206,1.5,0,0.883333333333333,21190.4984015,21193.935667958,5,NaN,21193.941306958,21193.959634833,21194.836312375,NaN,NaN
102,21,1,usability,0,kitchen,sun_azmutvzbxypaceni.tif,220,1.5,0,1.93333333333333,21194.840933041,21199.550911916,5,NaN,21199.556848958,21199.575249583,21201.502018458,NaN,NaN
102,22,1,usability,0,kitchen,sun_awcpdzzznmweyyhv.tif,216,1.5,0,0.9,21201.521090208,21209.431540708,4,NaN,21209.437490708,21209.455962875,21210.349303166,NaN,NaN
102,23,1,usability,0,kitchen,sun_aunzlwrbjumxhwdj.tif,213,1.5,0,1.13333333333333,21210.353985875,21214.527087833,2,NaN,21214.532792875,21214.55110425,21215.677833916,NaN,NaN
102,24,1,usability,0,kitchen,labelme_kxvouciolcpqplr.tif,172,1.5,0,0.766666666666667,21215.685815791,21219.087665833,2,NaN,21219.093280833,21219.111600291,21219.871609125,NaN,NaN
102,25,1,usability,0,kitchen,sun_agubuxuukhzyzpdp.tif,198,1.5,0,0.966666666666667,21219.875821541,21223.07149375,7,NaN,21223.078521375,21223.097195125,21224.05720325,NaN,NaN
102,1,2,usability,0,kitchen,sun_ajkqhtgcbgpcwrwn.tif,207,1.5,0,1.56666666666667,21228.2279305,21231.399793375,2,NaN,21231.406899625,21231.425430208,21232.985502333,NaN,NaN
102,2,2,usability,0,kitchen,sun_avszsnwsbuqfgzbn.tif,215,1.5,0,1.2,21232.999362083,21237.191176291,5,NaN,21237.196865958,21237.21531375,21238.408684666,NaN,NaN
102,3,2,usability,0,kitchen,sun_admlmbcdswaszruo.tif,189,1.5,0,1.73333333333333,21238.421510666,21244.158994375,5,NaN,21244.164650625,21244.183037291,21245.909812041,NaN,NaN
102,4,2,usability,0,kitchen,sun_abdxkyyxwfskuaqb.tif,180,1.5,0,1.61666666666667,21245.925716125,21249.344325166,3,NaN,21249.374298625,21249.397920125,21251.007998833,NaN,NaN
102,5,2,usability,0,kitchen,sun_aypmqwcualkenuoe.tif,219,1.5,0,1.38333333333333,21251.028165375,21254.096095416,6,NaN,21254.115712833,21254.137010125,21255.513743083,NaN,NaN
102,6,2,usability,0,kitchen,sun_agzzivivdpnawacl.tif,199,1.5,0,1.73333333333333,21255.535188583,21260.303099958,5,NaN,21260.308821,21260.327211166,21262.053962333,NaN,NaN
102,7,2,usability,0,kitchen,sun_aaxxjlsuzvqlgylf.tif,178,1.5,0,1.96666666666667,21262.06828625,21265.307828291,6,NaN,21265.337880166,21265.361279666,21267.32137125,NaN,NaN
102,8,2,usability,0,kitchen,sun_abftihopvusyfakt.tif,181,1.5,0,0.883333333333333,21267.33726675,21271.047173,6,NaN,21271.05320725,21271.071529125,21271.948204125,NaN,NaN
102,9,2,usability,0,kitchen,sun_agorklincwxrdtga.tif,197,1.5,0,1.06666666666667,21271.963238,21275.08081275,7,NaN,21275.09077325,21275.10989325,21276.169969416,NaN,NaN
102,10,2,usability,0,kitchen,labelme_brsyyvweiuaazfr.tif,171,1.5,0,1.06666666666667,21276.1805655,21280.775102875,6,NaN,21280.780793083,21280.79904925,21281.859121541,NaN,NaN
102,11,2,usability,0,kitchen,sun_afuyedyxivkhecmu.tif,195,1.5,0,0.966666666666667,21281.86913575,21285.478769708,5,NaN,21285.484598166,21285.50295,21286.462957375,NaN,NaN
102,12,2,usability,0,kitchen,sun_aegoxogugdkwpmpj.tif,190,1.5,0,1.78333333333333,21286.467559041,21289.182147291,6,NaN,21289.211494041,21289.234794666,21291.011530125,NaN,NaN
102,13,2,usability,0,kitchen,sun_axyyrmzcupyhlivc.tif,217,1.5,0,1.68333333333333,21291.030085291,21295.687195,7,NaN,21295.692825958,21295.711118291,21297.387855541,NaN,NaN
102,14,2,usability,0,kitchen,sun_abpwyqmlzafvklqo.tif,182,1.5,0,0.983333333333333,21297.408771666,21301.534301666,2,NaN,21301.540340416,21301.558676833,21302.535354708,NaN,NaN
102,15,2,usability,0,kitchen,sun_abdenxonkemggwsq.tif,179,1.5,0,1.33333333333333,21302.546436541,21306.126270416,3,NaN,21306.132242166,21306.150581875,21307.477310833,NaN,NaN
102,16,2,usability,0,kitchen,sun_acgtpgfybqjmzeyw.tif,185,1.5,0,1.56666666666667,21307.49643775,21310.862695041,7,NaN,21310.868423916,21310.886725,21312.44678475,NaN,NaN
102,17,2,usability,0,kitchen,sun_ahspylgoovwmwvgk.tif,203,1.5,0,1.66666666666667,21312.4687785,21315.399024416,6,NaN,21315.40479725,21315.423032708,21317.083135125,NaN,NaN
102,18,2,usability,0,kitchen,sun_auticobqsbwgoppi.tif,214,1.5,0,1.86666666666667,21317.101430666,21320.4455275,4,NaN,21320.47581975,21320.499842375,21322.359915041,NaN,NaN
102,19,2,usability,0,kitchen,sun_aqeaevwwwjoqhzvl.tif,211,1.5,0,1.95,21322.380295041,21325.373746583,2,NaN,21325.404921708,21325.42875925,21327.372177916,NaN,NaN
102,20,2,usability,0,kitchen,sun_acfmftudsenhrfhy.tif,184,1.5,0,0.966666666666667,21327.393150458,21330.974931625,2,NaN,21330.980573083,21330.998839875,21331.958847,NaN,NaN
102,21,2,usability,0,kitchen,sun_abrcnpqqhmjwekyf.tif,183,1.5,0,1.43333333333333,21331.96505175,21334.950077083,5,NaN,21334.980534083,21335.00196875,21336.428726833,NaN,NaN
102,22,2,usability,0,kitchen,sun_ahdycvpopffkzzsu.tif,200,1.5,0,0.85,21336.44359575,21339.958559708,2,NaN,21339.964309208,21339.9826825,21340.826026416,NaN,NaN
102,23,2,usability,0,kitchen,sun_ahljzhgcdpomplvg.tif,201,1.5,0,1.53333333333333,21340.831145375,21343.67169225,4,NaN,21343.701034083,21343.724955208,21345.251700458,NaN,NaN
102,24,2,usability,0,kitchen,sun_akchetnepxlcxhsu.tif,208,1.5,0,1.18333333333333,21345.269867833,21348.031329333,5,NaN,21348.03728,21348.055559625,21349.232322041,NaN,NaN
102,25,2,usability,0,kitchen,sun_aarfiyshqohlwkmo.tif,177,1.5,0,1.86666666666667,21349.241663875,21353.558467708,4,NaN,21353.564165458,21353.582496958,21355.442567625,NaN,NaN
