sub_num,trial,block,task,is_practice,category,image,texture,duration,mask_dur,jitter,stim_time,time_of_resp,trial_response,mask_time,fix_time,jit_onset,trial_end,trial_accuracy,RT
132,1,0,complexity,1,bathroom,bathroom_practice3.tif,223,1.5,0,1.56666666666667,8302.730341291,8320.92306175,2,NaN,8320.929715291,8320.948399791,8322.508458,NaN,NaN
132,2,0,complexity,1,bathroom,bathroom_practice5.tif,225,1.5,0,1.1,8322.527261583,8325.544636125,4,NaN,8325.574291125,8325.597735875,8326.691120375,NaN,NaN
132,3,0,complexity,1,bathroom,bathroom_practice2.tif,222,1.5,0,1.51666666666667,8326.700232,8329.315648541,7,NaN,8329.321220833,8329.3395315,8330.849567708,NaN,NaN
132,4,0,complexity,1,bathroom,bathroom_practice4.tif,224,1.5,0,1.15,8330.866257583,8334.259963958,1,NaN,8334.265374,8334.2838245,8335.427205083,NaN,NaN
132,5,0,complexity,1,bathroom,bathroom_practice1.tif,221,1.5,0,1.26666666666667,8335.437312625,8338.15545625,1,NaN,8338.161044958,8338.179384083,8339.439436458,NaN,NaN
132,1,1,complexity,0,bathroom,sun_abapwbhyhkfixyex.tif,124,1.5,0,0.75,8345.091753083,8351.03594,3,NaN,8351.042315833,8351.060661541,8351.803998125,NaN,NaN
132,2,1,complexity,0,bathroom,sun_akiytfaagpdsphgz.tif,141,1.5,0,1.28333333333333,8351.820897791,8356.14719475,4,NaN,8356.152924875,8356.1715045,8357.448203708,NaN,NaN
132,3,1,complexity,0,bathroom,sun_axxbkopsgyouuebh.tif,168,1.5,0,1.76666666666667,8357.467107166,8360.291442708,2,NaN,8360.299433166,8360.317842416,8362.077878875,NaN,NaN
132,4,1,complexity,0,bathroom,sun_abjtwfukuwddzted.tif,125,1.5,0,1.28333333333333,8362.097069958,8365.452827708,3,NaN,8365.47875925,8365.502048458,8366.778749041,NaN,NaN
132,5,1,complexity,0,bathroom,sun_amzlamotzwfkwjco.tif,147,1.5,0,1.8,8366.79765575,8371.506874083,4,NaN,8371.512787125,8371.531130333,8373.324517083,NaN,NaN
132,6,1,complexity,0,bathroom,sun_aofnryafpsjimzsb.tif,150,1.5,0,0.716666666666667,8373.337308583,8379.33090275,5,NaN,8379.336976916,8379.355900875,8380.065904375,NaN,NaN
132,7,1,complexity,0,bathroom,sun_asfwthctfqerjvxr.tif,159,1.5,0,1,8380.070455375,8384.851344958,1,NaN,8384.856951083,8384.875235958,8385.868574125,NaN,NaN
132,8,1,complexity,0,bathroom,sun_apjevzvycyhuqghb.tif,153,1.5,0,1.21666666666667,8385.873167083,8388.963696333,6,NaN,8388.971718208,8388.990604666,8390.2006555,NaN,NaN
132,9,1,complexity,0,bathroom,sun_aapitsgbtktqubfy.tif,122,1.5,0,1.55,8390.218730166,8394.195803666,2,NaN,8394.201256708,8394.219730083,8395.763094166,NaN,NaN
132,10,1,complexity,0,bathroom,sun_aclfzgynxzxlbepz.tif,129,1.5,0,2,8395.781132375,8400.099790666,2,NaN,8400.10565725,8400.124181541,8402.117557,NaN,NaN
132,11,1,complexity,0,bathroom,sun_aqrpegblszgcoujh.tif,158,1.5,0,0.716666666666667,8402.134597541,8405.787696625,3,NaN,8405.793312375,8405.811769,8406.521774041,NaN,NaN
132,12,1,complexity,0,bathroom,sun_awnqiikzaispgmwo.tif,166,1.5,0,0.933333333333333,8406.52639975,8411.427000333,2,NaN,8411.432800083,8411.451161458,8412.377833541,NaN,NaN
132,13,1,complexity,0,bathroom,sun_axyrejkiiaqiurjk.tif,169,1.5,0,1.58333333333333,8412.382433166,8415.306866458,4,NaN,8415.328073708,8415.350878208,8416.927595041,NaN,NaN
132,14,1,complexity,0,bathroom,sun_aspsyogrekjtfozg.tif,160,1.5,0,0.9,8416.945273416,8420.611438708,5,NaN,8420.616936583,8420.635350083,8421.528688791,NaN,NaN
132,15,1,complexity,0,bathroom,sun_anryaplzeujmzfkd.tif,149,1.5,0,1.16666666666667,8421.533197166,8427.195143333,5,NaN,8427.200919083,8427.219102875,8428.37914175,NaN,NaN
132,16,1,complexity,0,bathroom,sun_ausgutylgojavyoq.tif,163,1.5,0,0.733333333333333,8428.390236875,8431.339125083,7,NaN,8431.344851625,8431.363108875,8432.089779,NaN,NaN
132,17,1,complexity,0,bathroom,sun_ahijqszoswveeyji.tif,138,1.5,0,1.15,8432.094080916,8434.732487625,6,NaN,8434.761378041,8434.784859041,8435.928238166,NaN,NaN
132,18,1,complexity,0,bathroom,sun_acgyywnybuveqsro.tif,128,1.5,0,1.01666666666667,8435.942211458,8439.923656333,4,NaN,8439.929582,8439.948036625,8440.958069083,NaN,NaN
132,19,1,complexity,0,bathroom,sun_aggnnqpdorgxpvce.tif,131,1.5,0,0.883333333333333,8440.969718416,8445.5072075,5,NaN,8445.512604875,8445.5309525,8446.407622916,NaN,NaN
132,20,1,complexity,0,bathroom,sun_avhrdrntsqrjzccq.tif,165,1.5,0,1.65,8446.412131583,8450.650613208,7,NaN,8450.65637625,8450.6746805,8452.318042083,NaN,NaN
132,21,1,complexity,0,bathroom,sun_aghyqhbptboemmoq.tif,133,1.5,0,0.75,8452.338267416,8455.678431458,3,NaN,8455.707305916,8455.730297041,8456.473635458,NaN,NaN
132,22,1,complexity,0,bathroom,sun_acegryoqftbzowsg.tif,127,1.5,0,1.28333333333333,8456.47825675,8459.570837333,2,NaN,8459.579736208,8459.598644083,8460.875358666,NaN,NaN
132,23,1,complexity,0,bathroom,sun_ambriybtogmepttm.tif,146,1.5,0,1.25,8460.892996416,8464.155043875,4,NaN,8464.160551083,8464.178925916,8465.422309125,NaN,NaN
132,24,1,complexity,0,bathroom,sun_agrwbmhcpmfuwmsg.tif,134,1.5,0,0.833333333333333,8465.436475041,8469.13952725,2,NaN,8469.145069041,8469.163472541,8469.990144625,NaN,NaN
132,25,1,complexity,0,bathroom,sun_acduarbnmmoglmiv.tif,126,1.5,0,1.05,8469.994634916,8473.546887333,7,NaN,8473.552531791,8473.57088675,8474.614251166,NaN,NaN
132,1,2,complexity,0,bathroom,sun_apkxzenqapsujocq.tif,155,1.5,0,0.95,8479.311963458,8484.035476791,2,NaN,8484.040912583,8484.059060166,8485.002396708,NaN,NaN
132,2,2,complexity,0,bathroom,sun_afcoljnjfoxjtgja.tif,130,1.5,0,1.55,8485.006690625,8487.927271208,4,NaN,8487.948561625,8487.972549416,8489.515925583,NaN,NaN
132,3,2,complexity,0,bathroom,sun_agyqfjcfkdcydepw.tif,135,1.5,0,1.2,8489.535605833,8492.798422083,6,NaN,8492.827636166,8492.851121791,8494.044491458,NaN,NaN
132,4,2,complexity,0,bathroom,sun_apkruvsevgegsdwp.tif,154,1.5,0,1.86666666666667,8494.055953125,8497.970508958,5,NaN,8497.976196541,8497.994588,8499.854620041,NaN,NaN
132,5,2,complexity,0,bathroom,sun_alotolagknyrgtsk.tif,145,1.5,0,1.66666666666667,8499.87401075,8502.769901208,6,NaN,8502.8000385,8502.821742125,8504.481779083,NaN,NaN
132,6,2,complexity,0,bathroom,sun_axldvoqbuvuggfmq.tif,167,1.5,0,1.35,8504.500237708,8508.579314291,3,NaN,8508.585159125,8508.603804,8509.9471665,NaN,NaN
132,7,2,complexity,0,bathroom,sun_aoybiabnpadelefl.tif,151,1.5,0,1.11666666666667,8509.965446916,8512.802342,2,NaN,8512.808375833,8512.826661208,8513.936706375,NaN,NaN
132,8,2,complexity,0,bathroom,sun_apmqjbnwghzuhhzh.tif,156,1.5,0,0.95,8513.945692583,8516.962345333,3,NaN,8516.967795041,8516.986050333,8517.9293885,NaN,NaN
132,9,2,complexity,0,bathroom,sun_aleqenyvunhactkl.tif,142,1.5,0,1.03333333333333,8517.933881791,8521.978956833,2,NaN,8521.984536541,8522.002855291,8523.029551375,NaN,NaN
132,10,2,complexity,0,bathroom,sun_aunuadmjocsddsrl.tif,162,1.5,0,1.01666666666667,8523.038936291,8528.034785125,5,NaN,8528.0402325,8528.058488916,8529.068524583,NaN,NaN
132,11,2,complexity,0,bathroom,sun_agguqiubmwhqqunb.tif,132,1.5,0,1.81666666666667,8529.076519833,8531.810463875,4,NaN,8531.815908666,8531.834219208,8533.6442615,NaN,NaN
132,12,2,complexity,0,bathroom,sun_alkosphxlxwjwgjd.tif,144,1.5,0,1.8,8533.66067675,8536.673761375,5,NaN,8536.702902291,8536.724847208,8538.518220625,NaN,NaN
132,13,2,complexity,0,bathroom,sun_atstyziqcmkahyxk.tif,161,1.5,0,1.26666666666667,8538.533029583,8543.146819875,3,NaN,8543.15231675,8543.170790625,8544.430835458,NaN,NaN
132,14,2,complexity,0,bathroom,sun_azqyogdvyhahyram.tif,170,1.5,0,1.66666666666667,8544.449819166,8548.906277333,1,NaN,8548.913009916,8548.931332958,8550.591377708,NaN,NaN
132,15,2,complexity,0,bathroom,sun_aljolscmmzydegqp.tif,143,1.5,0,1.93333333333333,8550.609568791,8554.006819,4,NaN,8554.035693375,8554.058224083,8555.984923583,NaN,NaN
132,16,2,complexity,0,bathroom,sun_ahcvzmoyaycdoftf.tif,137,1.5,0,1.75,8556.0050445,8560.65811975,2,NaN,8560.664046791,8560.68230375,8562.425682166,NaN,NaN
132,17,2,complexity,0,bathroom,sun_aavhrsfjbserjtht.tif,123,1.5,0,0.766666666666667,8562.444135458,8568.106983416,5,NaN,8568.112489375,8568.131003041,8568.891006375,NaN,NaN
132,18,2,complexity,0,bathroom,sun_ajlawzvmubibwbpy.tif,140,1.5,0,1.43333333333333,8568.895497291,8572.194978083,6,NaN,8572.200779875,8572.219241416,8573.6459625,NaN,NaN
132,19,2,complexity,0,bathroom,sun_ahqjwnzgolcaoidx.tif,139,1.5,0,0.916666666666667,8573.66037725,8576.610238583,4,NaN,8576.6160455,8576.63441,8577.544414958,NaN,NaN
132,20,2,complexity,0,bathroom,labelme_sfxiulhjbhlyiyt.tif,121,1.5,0,0.766666666666667,8577.549048875,8580.898338333,5,NaN,8580.90403875,8580.922355291,8581.682359916,NaN,NaN
132,21,2,complexity,0,bathroom,sun_apynckhmoftszqoq.tif,157,1.5,0,0.783333333333333,8581.688286875,8584.578752166,2,NaN,8584.607517458,8584.630250125,8585.406921958,NaN,NaN
132,22,2,complexity,0,bathroom,sun_anhioqovhscjqqwb.tif,148,1.5,0,1.31666666666667,8585.411547583,8588.423607416,1,NaN,8588.451763625,8588.474991458,8589.785032833,NaN,NaN
132,23,2,complexity,0,bathroom,sun_auzqhkafidnkrwmo.tif,164,1.5,0,1.1,8589.802769208,8594.074944583,6,NaN,8594.080520375,8594.098875583,8595.192251291,NaN,NaN
132,24,2,complexity,0,bathroom,sun_ahaulkltgpkeeemi.tif,136,1.5,0,1.26666666666667,8595.199959916,8598.241980041,1,NaN,8598.247493958,8598.265803291,8599.525854541,NaN,NaN
132,25,2,complexity,0,bathroom,sun_apeeialkgkuxddgh.tif,152,1.5,0,0.933333333333333,8599.543838791,8602.626389041,1,NaN,8602.631963291,8602.650291291,8603.5769625,NaN,NaN
