sub_num,trial,block,task,is_practice,category,image,texture,duration,mask_dur,jitter,stim_time,time_of_resp,trial_response,mask_time,fix_time,jit_onset,trial_end,trial_accuracy,RT
103,1,0,categorization,1,kitchen,SHINEd_kitchen_practice5.tif,120,0.0666666666666667,0.0666666666666667,1.21666666666667,23280.968386458,23282.402796708,13,23281.034571458,23281.094153958,23282.431886083,23283.642085,0,1.43441024999993
103,2,0,categorization,1,bathroom,SHINEd_bathroom_practice1.tif,111,0.0666666666666667,0.0666666666666667,1.36666666666667,23283.696695708,23286.0664045,13,23283.770388,23283.831440958,23286.084423625,23287.44460175,1,2.36970879200089
103,3,0,categorization,1,bathroom,SHINEd_bathroom_practice4.tif,114,0.0666666666666667,0.0666666666666667,1.85,23287.494038458,23289.826571458,13,23287.569282583,23287.628948917,23289.848632167,23291.692193083,1,2.33253300000069
103,4,0,categorization,1,bathroom,SHINEd_bathroom_practice2.tif,112,0.0666666666666667,0.0666666666666667,1.55,23291.720525667,23293.553950875,13,23291.790474292,23291.854618083,23293.574414,23295.117918,1,1.83342520800215
103,5,0,categorization,1,kitchen,SHINEd_kitchen_practice2.tif,117,0.0666666666666667,0.0666666666666667,1.48333333333333,23295.147904667,23297.57038275,13,23295.221830125,23295.282649792,23297.586240167,23299.063671542,0,2.4224780830009
103,6,0,categorization,1,kitchen,SHINEd_kitchen_practice1.tif,116,0.0666666666666667,0.0666666666666667,1.15,23299.089586917,23302.37900075,13,23299.158464625,23299.224866583,23302.410484375,23303.553980958,0,3.28941383299752
103,7,0,categorization,1,bathroom,SHINEd_bathroom_practice3.tif,113,0.0666666666666667,0.0666666666666667,0.733333333333333,23303.565641833,23306.892768292,13,23303.632980292,23303.700396875,23306.909036333,23307.635709042,1,3.32712645900028
103,8,0,categorization,1,kitchen,SHINEd_kitchen_practice3.tif,118,0.0666666666666667,0.0666666666666667,1.6,23307.640092875,23310.026311792,13,23307.7020335,23307.762918708,23310.032746333,23311.626126958,0,2.3862189169995
103,9,0,categorization,1,kitchen,SHINEd_kitchen_practice4.tif,119,0.0666666666666667,0.0666666666666667,0.716666666666667,23311.646347625,23314.010064125,13,23311.713306833,23311.780484458,23314.016870833,23314.726875083,0,2.36371650000001
103,10,0,categorization,1,bathroom,SHINEd_bathroom_practice5.tif,115,0.0666666666666667,0.0666666666666667,1.21666666666667,23314.731833792,23316.249718,13,23314.793674208,23314.854737708,23316.257140583,23317.467189417,1,1.51788420799858
103,1,0,categorization,1,kitchen,SHINEd_kitchen_practice5.tif,120,0.0666666666666667,0.0666666666666667,1.21666666666667,23331.870354958,23333.289745292,9,23331.932615458,23331.993298625,23333.295493208,23334.505709333,1,1.41939033400195
103,2,0,categorization,1,bathroom,SHINEd_bathroom_practice1.tif,111,0.0666666666666667,0.0666666666666667,1.36666666666667,23334.51724725,23335.42086675,13,23334.583877167,23334.65053925,23335.440580333,23336.800636417,1,0.903619499997149
103,3,0,categorization,1,bathroom,SHINEd_bathroom_practice4.tif,114,0.0666666666666667,0.0666666666666667,1.85,23336.818813375,23337.652068208,13,23336.885896375,23336.947542542,23337.670374708,23339.513755417,1,0.833254832999955
103,4,0,categorization,1,bathroom,SHINEd_bathroom_practice2.tif,112,0.0666666666666667,0.0666666666666667,1.55,23339.531919,23340.906457167,9,23339.598854333,23339.664952,23340.917446083,23342.460833292,0,1.37453816699781
103,5,0,categorization,1,kitchen,SHINEd_kitchen_practice2.tif,117,0.0666666666666667,0.0666666666666667,1.48333333333333,23342.474604042,23343.97507725,9,23342.54096225,23342.608578708,23343.99545225,23345.472164583,1,1.50047320800149
103,6,0,categorization,1,kitchen,SHINEd_kitchen_practice1.tif,116,0.0666666666666667,0.0666666666666667,1.15,23345.489981,23346.716463167,9,23345.556797625,23345.6229905,23346.749004167,23347.892369625,1,1.22648216699963
103,7,0,categorization,1,bathroom,SHINEd_bathroom_practice3.tif,113,0.0666666666666667,0.0666666666666667,0.733333333333333,23347.902635542,23348.692711625,13,23347.969712667,23348.035292875,23348.7078145,23349.434534208,1,0.790076083001622
103,8,0,categorization,1,kitchen,SHINEd_kitchen_practice3.tif,118,0.0666666666666667,0.0666666666666667,1.6,23349.446766125,23350.522017625,13,23349.51380225,23349.579489458,23350.531472625,23352.124845208,0,1.0752515000022
103,9,0,categorization,1,kitchen,SHINEd_kitchen_practice4.tif,119,0.0666666666666667,0.0666666666666667,0.716666666666667,23352.141674167,23353.247592,13,23352.208209417,23352.275770333,23353.26567575,23353.975680542,0,1.10591783299969
103,10,0,categorization,1,bathroom,SHINEd_bathroom_practice5.tif,115,0.0666666666666667,0.0666666666666667,1.21666666666667,23353.98030575,23354.921489,13,23354.042223208,23354.103150208,23354.938448375,23356.148502375,1,0.941183250000904
103,1,1,categorization,0,bathroom,SHINEd_sun_ahaulkltgpkeeemi.tif,26,0.0666666666666667,0.0666666666666667,1.23333333333333,23372.799765,23373.689931042,13,23372.861946542,23372.922761375,23373.708242958,23374.93498,1,0.890166042001511
103,2,1,categorization,0,kitchen,SHINEd_sun_akchetnepxlcxhsu.tif,98,0.0666666666666667,0.0666666666666667,0.783333333333333,23374.946705917,23376.833614458,13,23375.014068792,23375.079828,23376.849199167,23377.625870458,0,1.88690854100059
103,3,1,categorization,0,bathroom,SHINEd_sun_aspsyogrekjtfozg.tif,50,0.0666666666666667,0.0666666666666667,0.75,23377.630948625,23378.281360958,13,23377.692773667,23377.75365575,23378.288673917,23379.032012458,1,0.650412333001441
103,4,1,categorization,0,kitchen,SHINEd_sun_admlmbcdswaszruo.tif,79,0.0666666666666667,0.0666666666666667,1.23333333333333,23379.036914583,23379.745893708,13,23379.098684708,23379.159589542,23379.761266125,23380.987981958,0,0.708979125000042
103,5,1,categorization,0,kitchen,SHINEd_sun_aegoxogugdkwpmpj.tif,80,0.0666666666666667,0.0666666666666667,1.13333333333333,23380.997718042,23381.794875875,9,23381.062693583,23381.130995792,23381.820729875,23382.94745475,1,0.797157832999801
103,6,1,categorization,0,kitchen,SHINEd_sun_acfmftudsenhrfhy.tif,74,0.0666666666666667,0.0666666666666667,0.95,23382.957241083,23383.71542075,9,23383.02283925,23383.090155292,23383.72875725,23384.67213725,1,0.758179666998331
103,7,1,categorization,0,kitchen,SHINEd_sun_afuyedyxivkhecmu.tif,85,0.0666666666666667,0.0666666666666667,0.733333333333333,23384.689385208,23385.417485167,9,23384.756502667,23384.822180917,23385.424110167,23386.150782042,1,0.728099959000247
103,8,1,categorization,0,bathroom,SHINEd_sun_apeeialkgkuxddgh.tif,42,0.0666666666666667,0.0666666666666667,1.31666666666667,23386.155660917,23386.881242167,13,23386.217404708,23386.278380292,23386.896765542,23388.206807625,1,0.725581250000687
103,9,1,categorization,0,bathroom,SHINEd_sun_axxbkopsgyouuebh.tif,58,0.0666666666666667,0.0666666666666667,0.8,23388.225869417,23388.867181042,13,23388.292655833,23388.358795792,23388.881000458,23389.674386875,1,0.641311624996888
103,10,1,categorization,0,kitchen,SHINEd_sun_auticobqsbwgoppi.tif,104,0.0666666666666667,0.0666666666666667,0.716666666666667,23389.691308292,23390.729319042,13,23389.757682292,23389.8240235,23390.742626417,23391.452632083,0,1.03801074999865
103,11,1,categorization,0,bathroom,SHINEd_sun_amzlamotzwfkwjco.tif,37,0.0666666666666667,0.0666666666666667,0.916666666666667,23391.458068667,23392.097601125,13,23391.520048917,23391.580673875,23392.115782958,23393.025787792,1,0.63953245799712
103,12,1,categorization,0,bathroom,SHINEd_sun_aunuadmjocsddsrl.tif,52,0.0666666666666667,0.0666666666666667,0.95,23393.030751208,23393.72967425,13,23393.092486167,23393.153457042,23393.738696833,23394.682034542,1,0.698923042000388
103,13,1,categorization,0,bathroom,SHINEd_sun_aofnryafpsjimzsb.tif,40,0.0666666666666667,0.0666666666666667,0.833333333333333,23394.687136917,23395.161578333,13,23394.748910625,23394.80985375,23395.178443292,23396.00511525,1,0.474441416001355
103,14,1,categorization,0,kitchen,SHINEd_sun_abpwyqmlzafvklqo.tif,72,0.0666666666666667,0.0666666666666667,0.75,23396.011058708,23396.465344667,13,23396.072804833,23396.133634292,23396.468572542,23397.211911375,0,0.454285959000117
103,15,1,categorization,0,kitchen,SHINEd_sun_aaxxjlsuzvqlgylf.tif,68,0.0666666666666667,0.0666666666666667,1.53333333333333,23397.216760542,23397.87360125,9,23397.278322625,23397.339437042,23397.891712083,23399.418429458,1,0.656840708001255
103,16,1,categorization,0,kitchen,SHINEd_sun_ajkqhtgcbgpcwrwn.tif,97,0.0666666666666667,0.0666666666666667,1.05,23399.437629375,23400.369204958,13,23399.50447075,23399.570944708,23400.394367583,23401.437754583,0,0.931575582999358
103,17,1,categorization,0,bathroom,SHINEd_sun_apkruvsevgegsdwp.tif,44,0.0666666666666667,0.0666666666666667,0.9,23401.45024125,23401.915472458,13,23401.514341542,23401.582054917,23401.938609208,23402.831993958,1,0.46523120799975
103,18,1,categorization,0,bathroom,SHINEd_sun_aavhrsfjbserjtht.tif,13,0.0666666666666667,0.0666666666666667,1.18333333333333,23402.84846275,23403.349173333,13,23402.915489542,23402.979420083,23403.36900925,23404.545699708,1,0.50071058300091
103,19,1,categorization,0,kitchen,SHINEd_sun_azmutvzbxypaceni.tif,110,0.0666666666666667,0.0666666666666667,0.9,23404.555632417,23405.16994875,9,23404.62251325,23404.688437042,23405.194820583,23406.088210667,1,0.614316333001625
103,20,1,categorization,0,bathroom,SHINEd_sun_aapitsgbtktqubfy.tif,12,0.0666666666666667,0.0666666666666667,1.66666666666667,23406.104272958,23406.793316542,13,23406.171089833,23406.237115917,23406.805902417,23408.465958333,1,0.689043583999592
103,21,1,categorization,0,kitchen,SHINEd_sun_aadbddgrdsjugojn.tif,64,0.0666666666666667,0.0666666666666667,1.13333333333333,23408.480530125,23408.995957125,13,23408.54785825,23408.613770458,23409.020796042,23410.147508833,0,0.515426999998454
103,22,1,categorization,0,kitchen,SHINEd_sun_abdxkyyxwfskuaqb.tif,70,0.0666666666666667,0.0666666666666667,1.3,23410.156787,23410.613119292,13,23410.2223325,23410.28995975,23410.629213333,23411.922586208,0,0.456332292000297
103,23,1,categorization,0,bathroom,SHINEd_sun_afcoljnjfoxjtgja.tif,20,0.0666666666666667,0.0666666666666667,1.93333333333333,23411.942075875,23412.538180417,13,23412.008621583,23412.074972708,23412.543588958,23414.470300667,1,0.59610454200083
103,24,1,categorization,0,kitchen,SHINEd_sun_aixorpehvfykdynp.tif,95,0.0666666666666667,0.0666666666666667,1,23414.488135083,23415.341059917,9,23414.555338083,23414.621124042,23415.361183833,23416.354521958,1,0.852924833998259
103,25,1,categorization,0,kitchen,SHINEd_sun_adgqasybjyktddhj.tif,78,0.0666666666666667,0.0666666666666667,0.883333333333333,23416.361101875,23417.001196958,13,23416.422979,23416.483819542,23417.01895025,23417.895620375,0,0.640095082999323
103,26,1,categorization,0,kitchen,SHINEd_labelme_rykdqxenmhulbdn.tif,63,0.0666666666666667,0.0666666666666667,1.95,23417.900508333,23418.482097625,13,23417.962090792,23418.023247917,23418.49173575,23420.435111292,0,0.58158929199999
103,27,1,categorization,0,bathroom,SHINEd_sun_apynckhmoftszqoq.tif,47,0.0666666666666667,0.0666666666666667,1.25,23420.454897958,23421.027430708,13,23420.522021542,23420.587554125,23421.044351125,23422.287728875,1,0.572532750000391
103,28,1,categorization,0,kitchen,SHINEd_sun_aqeaevwwwjoqhzvl.tif,101,0.0666666666666667,0.0666666666666667,1.95,23422.307411792,23423.066397125,13,23422.375055458,23422.440209208,23423.0957995,23425.039184208,0,0.758985332999146
103,29,1,categorization,0,kitchen,SHINEd_sun_awcpdzzznmweyyhv.tif,106,0.0666666666666667,0.0666666666666667,1.91666666666667,23425.058256042,23425.692492375,13,23425.125521917,23425.191219333,23425.713988292,23427.624018625,0,0.634236333000445
103,30,1,categorization,0,kitchen,SHINEd_sun_aeqdocilnnpuvuhx.tif,83,0.0666666666666667,0.0666666666666667,1.41666666666667,23427.646901792,23428.09152425,13,23427.713830458,23427.779024958,23428.119557375,23429.529598833,0,0.444622458002414
103,31,1,categorization,0,kitchen,SHINEd_sun_acxkpeoqbwcxfvip.tif,77,0.0666666666666667,0.0666666666666667,0.716666666666667,23429.545181625,23430.317514417,9,23429.61176475,23429.678079417,23430.334188417,23431.044223667,1,0.772332792002999
103,32,1,categorization,0,kitchen,SHINEd_sun_aggjlwcdjsjcaemh.tif,86,0.0666666666666667,0.0666666666666667,1.28333333333333,23431.062525917,23431.849577042,13,23431.129775958,23431.186960125,23431.855319958,23433.132032708,0,0.787051125000289
103,33,1,categorization,0,kitchen,SHINEd_sun_acgtpgfybqjmzeyw.tif,75,0.0666666666666667,0.0666666666666667,0.9,23433.148218875,23433.703556667,13,23433.215022208,23433.28114025,23433.720779708,23434.614170833,0,0.555337791996863
103,34,1,categorization,0,bathroom,SHINEd_sun_aclfzgynxzxlbepz.tif,19,0.0666666666666667,0.0666666666666667,0.8,23434.627888542,23435.449502042,9,23434.6950015,23434.760676625,23435.46257675,23436.255916,0,0.82161350000024
103,35,1,categorization,0,kitchen,SHINEd_sun_aunzlwrbjumxhwdj.tif,103,0.0666666666666667,0.0666666666666667,1.01666666666667,23436.260827,23438.017313083,9,23436.322648958,23436.383522583,23438.036109167,23439.046158125,1,1.75648608300253
103,36,1,categorization,0,bathroom,SHINEd_sun_ahcvzmoyaycdoftf.tif,27,0.0666666666666667,0.0666666666666667,0.85,23439.055490292,23440.237953667,13,23439.120268792,23439.186803292,23440.259741125,23441.103107458,1,1.18246337500022
103,37,1,categorization,0,kitchen,SHINEd_labelme_brsyyvweiuaazfr.tif,61,0.0666666666666667,0.0666666666666667,1.51666666666667,23441.110881542,23442.273995542,13,23441.172544625,23441.233526542,23442.285703125,23443.795737083,0,1.16311399999904
103,38,1,categorization,0,bathroom,SHINEd_sun_apkxzenqapsujocq.tif,45,0.0666666666666667,0.0666666666666667,1.83333333333333,23443.812286792,23444.538078958,13,23443.879596333,23443.945237833,23444.550509958,23446.377219333,1,0.725792166002066
103,39,1,categorization,0,bathroom,SHINEd_sun_ahijqszoswveeyji.tif,28,0.0666666666666667,0.0666666666666667,0.716666666666667,23446.394776792,23447.237216375,9,23446.46165925,23446.527665833,23447.267936333,23447.97794175,0,0.842439583000669
103,40,1,categorization,0,kitchen,SHINEd_sun_aapllqyqlykszopd.tif,66,0.0666666666666667,0.0666666666666667,0.9,23447.982926625,23448.753119333,13,23448.044692,23448.105624125,23448.757474417,23449.650812083,0,0.770192707997921
103,41,1,categorization,0,bathroom,SHINEd_sun_aljolscmmzydegqp.tif,33,0.0666666666666667,0.0666666666666667,0.916666666666667,23449.656109958,23450.314030625,13,23449.717695,23449.778807583,23450.330590167,23451.24059425,1,0.657920666999416
103,42,1,categorization,0,bathroom,SHINEd_sun_aoybiabnpadelefl.tif,41,0.0666666666666667,0.0666666666666667,0.816666666666667,23451.245521333,23452.257993292,9,23451.307166333,23451.368345208,23452.270100875,23453.0801045,0,1.01247195900214
103,43,1,categorization,0,bathroom,SHINEd_sun_anhioqovhscjqqwb.tif,38,0.0666666666666667,0.0666666666666667,1.88333333333333,23453.08499825,23453.785191583,13,23453.1468245,23453.207750542,23453.792818083,23455.669521333,1,0.700193332999334
103,44,1,categorization,0,bathroom,SHINEd_sun_aggnnqpdorgxpvce.tif,21,0.0666666666666667,0.0666666666666667,0.9,23455.6884425,23456.36163425,13,23455.755853208,23455.821140875,23456.375795958,23457.269134292,1,0.673191750000115
103,45,1,categorization,0,bathroom,SHINEd_sun_apmqjbnwghzuhhzh.tif,46,0.0666666666666667,0.0666666666666667,1,23457.2742275,23458.289785125,13,23457.335969458,23457.396880333,23458.298718625,23459.292056083,1,1.01555762500357
103,46,1,categorization,0,bathroom,SHINEd_labelme_sfxiulhjbhlyiyt.tif,11,0.0666666666666667,0.0666666666666667,0.733333333333333,23459.296876542,23460.073939833,13,23459.358671,23459.4195495,23460.087970875,23460.814641458,1,0.777063290999649
103,47,1,categorization,0,bathroom,SHINEd_sun_acduarbnmmoglmiv.tif,16,0.0666666666666667,0.0666666666666667,0.883333333333333,23460.819323333,23461.83388025,9,23460.88092275,23460.942611458,23461.844673833,23462.721344833,0,1.01455691700176
103,48,1,categorization,0,kitchen,SHINEd_sun_ahywdevtimnqcsln.tif,94,0.0666666666666667,0.0666666666666667,1.73333333333333,23462.727563417,23463.345678917,13,23462.789315958,23462.850224875,23463.352015042,23465.078728167,0,0.618115500001295
103,49,1,categorization,0,kitchen,SHINEd_labelme_kxvouciolcpqplr.tif,62,0.0666666666666667,0.0666666666666667,1.91666666666667,23465.097544417,23465.852675125,13,23465.164531792,23465.230596417,23465.8699855,23467.780037708,0,0.755130707999342
103,50,1,categorization,0,kitchen,SHINEd_sun_aamedkxepzlwuxes.tif,65,0.0666666666666667,0.0666666666666667,1.35,23467.797868833,23468.558740083,9,23467.865104875,23467.931182125,23468.588077667,23469.9314575,1,0.760871250000491
103,1,2,categorization,0,bathroom,SHINEd_sun_ahqjwnzgolcaoidx.tif,29,0.0666666666666667,0.0666666666666667,0.95,23478.013562792,23479.065428042,13,23478.075659875,23478.136325167,23479.071618042,23480.014957458,1,1.05186524999954
103,2,2,categorization,0,kitchen,SHINEd_sun_amjjdeyrggfqgmom.tif,100,0.0666666666666667,0.0666666666666667,0.75,23480.01981425,23481.033742833,9,23480.081565958,23480.142342292,23481.044165833,23481.787503917,1,1.01392858299732
103,3,2,categorization,0,kitchen,SHINEd_sun_ahpczsiumwwocjkv.tif,92,0.0666666666666667,0.0666666666666667,1.68333333333333,23481.793974042,23482.72138675,9,23481.8557995,23481.91672525,23482.735267417,23484.411990875,1,0.927412707998883
103,4,2,categorization,0,bathroom,SHINEd_sun_azqyogdvyhahyram.tif,60,0.0666666666666667,0.0666666666666667,0.816666666666667,23484.4311855,23485.3525865,13,23484.49949675,23484.564068833,23485.370365583,23486.180369542,1,0.921400999999605
103,5,2,categorization,0,bathroom,SHINEd_sun_axldvoqbuvuggfmq.tif,57,0.0666666666666667,0.0666666666666667,0.916666666666667,23486.185397458,23487.088916333,13,23486.247008417,23486.308164208,23487.093430708,23488.00343625,1,0.903518874998554
103,6,2,categorization,0,bathroom,SHINEd_sun_asfwthctfqerjvxr.tif,49,0.0666666666666667,0.0666666666666667,1.21666666666667,23488.008236042,23488.633203417,9,23488.070070583,23488.131005208,23488.649388167,23489.859440208,0,0.624967375002598
103,7,2,categorization,0,kitchen,SHINEd_sun_abftihopvusyfakt.tif,71,0.0666666666666667,0.0666666666666667,0.9,23489.878930042,23490.850174167,9,23489.946077375,23490.011532042,23490.867296875,23491.76068775,1,0.971244125001249
103,8,2,categorization,0,kitchen,SHINEd_sun_ahdycvpopffkzzsu.tif,90,0.0666666666666667,0.0666666666666667,1.65,23491.778862792,23492.801330833,9,23491.840628667,23491.901701167,23492.820763208,23494.4641515,1,1.02246804099923
103,9,2,categorization,0,bathroom,SHINEd_sun_auzqhkafidnkrwmo.tif,54,0.0666666666666667,0.0666666666666667,1.15,23494.482269833,23495.234785458,9,23494.548743875,23494.615105708,23495.254951917,23496.398317792,0,0.752515625001251
103,10,2,categorization,0,bathroom,SHINEd_sun_apjevzvycyhuqghb.tif,43,0.0666666666666667,0.0666666666666667,1.13333333333333,23496.408128833,23497.309346625,13,23496.473960458,23496.541154542,23497.331754625,23498.458473833,1,0.901217791997624
103,11,2,categorization,0,bathroom,SHINEd_sun_abjtwfukuwddzted.tif,15,0.0666666666666667,0.0666666666666667,1.76666666666667,23498.475352458,23499.25765075,13,23498.542312792,23498.608613583,23499.282484292,23501.042522917,1,0.782298292000633
103,12,2,categorization,0,bathroom,SHINEd_sun_anryaplzeujmzfkd.tif,39,0.0666666666666667,0.0666666666666667,1.8,23501.062305625,23501.914080333,9,23501.129455458,23501.19542425,23501.935921917,23503.729295125,0,0.851774708000448
103,13,2,categorization,0,bathroom,SHINEd_sun_alkosphxlxwjwgjd.tif,34,0.0666666666666667,0.0666666666666667,0.9,23503.74794875,23504.547956625,13,23503.8148065,23503.880992208,23504.570965042,23505.464304083,1,0.800007875001029
103,14,2,categorization,0,bathroom,SHINEd_sun_ambriybtogmepttm.tif,36,0.0666666666666667,0.0666666666666667,0.716666666666667,23505.469359167,23506.321631,9,23505.530980375,23505.592194667,23506.327277167,23507.037281667,0,0.852271832998667
103,15,2,categorization,0,bathroom,SHINEd_sun_avhrdrntsqrjzccq.tif,55,0.0666666666666667,0.0666666666666667,1.36666666666667,23507.043927333,23507.769661125,13,23507.105701042,23507.16654375,23507.7850025,23509.145052083,1,0.725733791998209
103,16,2,categorization,0,bathroom,SHINEd_sun_agrwbmhcpmfuwmsg.tif,24,0.0666666666666667,0.0666666666666667,0.916666666666667,23509.163160542,23509.959015208,13,23509.229853333,23509.295952792,23509.986073417,23510.896110708,1,0.795854666001105
103,17,2,categorization,0,kitchen,SHINEd_sun_agubuxuukhzyzpdp.tif,88,0.0666666666666667,0.0666666666666667,0.716666666666667,23510.9114345,23511.60886375,9,23510.973378583,23511.034012292,23511.619126,23512.329129917,1,0.697429249998095
103,18,2,categorization,0,kitchen,SHINEd_sun_auaiucuqpdausiva.tif,102,0.0666666666666667,0.0666666666666667,0.766666666666667,23512.333990833,23513.265514083,13,23512.395652208,23512.456688375,23513.275249958,23514.035254083,0,0.931523249997554
103,19,2,categorization,0,bathroom,SHINEd_sun_aleqenyvunhactkl.tif,32,0.0666666666666667,0.0666666666666667,1.06666666666667,23514.04017625,23514.753128417,13,23514.101882375,23514.162871417,23514.764884792,23515.824923625,1,0.712952166999457
103,20,2,categorization,0,bathroom,SHINEd_sun_agyqfjcfkdcydepw.tif,25,0.0666666666666667,0.0666666666666667,0.8,23515.835444125,23516.424509042,13,23515.899807417,23515.965971917,23516.43737375,23517.230758708,1,0.589064916999632
103,21,2,categorization,0,bathroom,SHINEd_sun_aghyqhbptboemmoq.tif,23,0.0666666666666667,0.0666666666666667,0.866666666666667,23517.24788775,23518.168772542,13,23517.314783833,23517.380627833,23518.182656,23519.04265975,1,0.920884792001743
103,22,2,categorization,0,kitchen,SHINEd_sun_agorklincwxrdtga.tif,87,0.0666666666666667,0.0666666666666667,1.48333333333333,23519.047463375,23519.673741708,9,23519.109230333,23519.170183083,23519.68858425,23521.165284458,1,0.626278333002119
103,23,2,categorization,0,kitchen,SHINEd_sun_abrcnpqqhmjwekyf.tif,73,0.0666666666666667,0.0666666666666667,1.1,23521.182675,23522.054089542,9,23521.249722667,23521.316008917,23522.07207025,23523.165447792,1,0.87141454200173
103,24,2,categorization,0,bathroom,SHINEd_sun_ausgutylgojavyoq.tif,53,0.0666666666666667,0.0666666666666667,0.783333333333333,23523.175035167,23523.906633875,9,23523.239809125,23523.307854,23523.930831542,23524.707556875,0,0.731598708000092
103,25,2,categorization,0,kitchen,SHINEd_sun_akcjzhbbjlbogpdi.tif,99,0.0666666666666667,0.0666666666666667,0.866666666666667,23524.724418375,23525.48940575,9,23524.790911792,23524.857196958,23525.509447667,23526.369452208,1,0.764987374997872
103,26,2,categorization,0,kitchen,SHINEd_sun_agzzivivdpnawacl.tif,89,0.0666666666666667,0.0666666666666667,1.83333333333333,23526.374300875,23527.897034208,9,23526.436015708,23526.496958292,23527.915926083,23529.742632833,1,1.52273333300036
103,27,2,categorization,0,bathroom,SHINEd_sun_axyrejkiiaqiurjk.tif,59,0.0666666666666667,0.0666666666666667,0.7,23529.762969708,23530.77968875,9,23529.827643792,23529.89594175,23530.802676458,23531.496013417,0,1.01671904199975
103,28,2,categorization,0,bathroom,SHINEd_sun_alotolagknyrgtsk.tif,35,0.0666666666666667,0.0666666666666667,1.33333333333333,23531.501031375,23532.585034833,9,23531.562850583,23531.623791708,23532.592585125,23533.91930475,0,1.08400345799964
103,29,2,categorization,0,bathroom,SHINEd_sun_akiytfaagpdsphgz.tif,31,0.0666666666666667,0.0666666666666667,1.33333333333333,23533.938668292,23534.717372417,9,23534.006042792,23534.071456417,23534.744786833,23536.071497708,0,0.778704124997603
103,30,2,categorization,0,bathroom,SHINEd_sun_aqrpegblszgcoujh.tif,48,0.0666666666666667,0.0666666666666667,1.38333333333333,23536.090655833,23536.883136667,9,23536.157549,23536.223391292,23536.894132708,23538.270854333,0,0.792480833999434
103,31,2,categorization,0,bathroom,SHINEd_sun_atstyziqcmkahyxk.tif,51,0.0666666666666667,0.0666666666666667,1.25,23538.290050833,23539.069012333,13,23538.356575667,23538.422989208,23539.096441375,23540.339811125,1,0.77896150000015
103,32,2,categorization,0,kitchen,SHINEd_sun_aypmqwcualkenuoe.tif,109,0.0666666666666667,0.0666666666666667,1.55,23540.356332875,23541.101348167,9,23540.4235635,23540.488939,23541.129177708,23542.672551458,1,0.74501529200279
103,33,2,categorization,0,kitchen,SHINEd_sun_abdenxonkemggwsq.tif,69,0.0666666666666667,0.0666666666666667,1.61666666666667,23542.692122833,23543.502113208,9,23542.759563458,23542.825033917,23543.513553792,23545.12360275,1,0.80999037500078
103,34,2,categorization,0,bathroom,SHINEd_sun_acgyywnybuveqsro.tif,18,0.0666666666666667,0.0666666666666667,1.33333333333333,23545.148621833,23545.632364333,13,23545.215695042,23545.281775667,23545.653697125,23546.980400208,1,0.483742500000517
103,35,2,categorization,0,bathroom,SHINEd_sun_acegryoqftbzowsg.tif,17,0.0666666666666667,0.0666666666666667,0.833333333333333,23546.990728208,23547.659796167,9,23547.057680333,23547.123786417,23547.679285625,23548.505988375,0,0.669067959002859
103,36,2,categorization,0,kitchen,SHINEd_sun_aarfiyshqohlwkmo.tif,67,0.0666666666666667,0.0666666666666667,1.45,23548.523488875,23549.193325875,9,23548.590172333,23548.656102958,23549.208145958,23550.651517042,1,0.66983700000128
103,37,2,categorization,0,bathroom,SHINEd_sun_abapwbhyhkfixyex.tif,14,0.0666666666666667,0.0666666666666667,0.933333333333333,23550.667707417,23551.960340875,13,23550.734480708,23550.800820375,23551.974529583,23552.901200958,1,1.29263345800064
103,38,2,categorization,0,kitchen,SHINEd_sun_ajcbwwvdlsvjyzje.tif,96,0.0666666666666667,0.0666666666666667,1.65,23552.906161,23553.992864458,13,23552.967951,23553.028871,23553.997191125,23555.640579167,0,1.08670345800056
103,39,2,categorization,0,bathroom,SHINEd_sun_awnqiikzaispgmwo.tif,56,0.0666666666666667,0.0666666666666667,1.23333333333333,23555.662552917,23556.361824667,13,23555.729612417,23555.795413667,23556.384141208,23557.610855417,1,0.699271749999753
103,40,2,categorization,0,kitchen,SHINEd_sun_aehawpgmrlhlvcow.tif,81,0.0666666666666667,0.0666666666666667,0.766666666666667,23557.63018975,23558.218926417,13,23557.69701225,23557.763256,23558.235993333,23558.996041042,0,0.588736666999466
103,41,2,categorization,0,bathroom,SHINEd_sun_ajlawzvmubibwbpy.tif,30,0.0666666666666667,0.0666666666666667,1.78333333333333,23559.006403375,23559.44086075,13,23559.073892208,23559.139180292,23559.458469667,23561.235173958,1,0.434457375002239
103,42,2,categorization,0,kitchen,SHINEd_sun_ahspylgoovwmwvgk.tif,93,0.0666666666666667,0.0666666666666667,1.11666666666667,23561.255243958,23561.72347975,13,23561.322708458,23561.388113,23561.745014542,23562.855051833,0,0.468235791999177
103,43,2,categorization,0,kitchen,SHINEd_sun_acwjdupvyjsugpay.tif,76,0.0666666666666667,0.0666666666666667,1.85,23562.864708333,23563.204322708,13,23562.929731333,23562.996513208,23563.21947175,23565.062851333,0,0.339614374999655
103,44,2,categorization,0,kitchen,SHINEd_sun_axyyrmzcupyhlivc.tif,107,0.0666666666666667,0.0666666666666667,0.733333333333333,23565.080812875,23565.948478292,9,23565.147982417,23565.214025542,23565.971268042,23566.697974,1,0.867665417001263
103,45,2,categorization,0,kitchen,SHINEd_sun_ahljzhgcdpomplvg.tif,91,0.0666666666666667,0.0666666666666667,0.783333333333333,23566.715214083,23567.928981667,9,23566.781767708,23566.848506,23567.934145208,23568.710816208,1,1.21376758399856
103,46,2,categorization,0,kitchen,SHINEd_sun_aexklacwqwezaorf.tif,84,0.0666666666666667,0.0666666666666667,1.5,23568.715393583,23569.769352375,9,23568.777257833,23568.838042167,23569.773143125,23571.266510667,1,1.05395879199932
103,47,2,categorization,0,bathroom,SHINEd_sun_agguqiubmwhqqunb.tif,22,0.0666666666666667,0.0666666666666667,0.733333333333333,23571.285212167,23572.196439458,13,23571.352293875,23571.418193333,23572.224855667,23572.951528375,1,0.911227290998795
103,48,2,categorization,0,kitchen,SHINEd_sun_aymvwlarqodbwuoc.tif,108,0.0666666666666667,0.0666666666666667,1.1,23572.956324667,23573.736948083,13,23573.018098375,23573.079030042,23573.747596417,23574.84096325,0,0.780623415997979
103,49,2,categorization,0,kitchen,SHINEd_sun_avszsnwsbuqfgzbn.tif,105,0.0666666666666667,0.0666666666666667,1.6,23574.851396083,23575.736952042,9,23574.916353042,23574.978048708,23575.7503215,23577.343689125,1,0.885555959001067
103,50,2,categorization,0,kitchen,SHINEd_sun_aenotlpyftoioydp.tif,82,0.0666666666666667,0.0666666666666667,1.06666666666667,23577.362056125,23578.192458708,9,23577.428767208,23577.495303708,23578.218501292,23579.278556375,1,0.83040258300025
103,1,3,categorization,0,kitchen,SHINEd_sun_ahdycvpopffkzzsu.tif,90,0.0666666666666667,0.0666666666666667,0.85,23613.621778125,23614.592934917,13,23613.683985917,23613.744538042,23614.596687542,23615.440026542,0,0.97115679199851
103,2,3,categorization,0,bathroom,SHINEd_sun_awnqiikzaispgmwo.tif,56,0.0666666666666667,0.0666666666666667,1.65,23615.445325292,23616.401202208,9,23615.507116625,23615.5680495,23616.420419417,23618.063793375,0,0.955876915999397
103,3,3,categorization,0,bathroom,SHINEd_sun_ahaulkltgpkeeemi.tif,26,0.0666666666666667,0.0666666666666667,0.783333333333333,23618.077403667,23618.956325292,13,23618.144425542,23618.210221375,23618.981857583,23619.758527917,1,0.878921625000658
103,4,3,categorization,0,bathroom,SHINEd_sun_acduarbnmmoglmiv.tif,16,0.0666666666666667,0.0666666666666667,0.933333333333333,23619.763561833,23620.961171792,9,23619.825279625,23619.886182333,23620.971150042,23621.897821667,0,1.19760995900288
103,5,3,categorization,0,kitchen,SHINEd_labelme_brsyyvweiuaazfr.tif,61,0.0666666666666667,0.0666666666666667,0.866666666666667,23621.902566917,23622.6807225,9,23621.964322792,23622.025230125,23622.693816042,23623.55382,1,0.778155583000625
103,6,3,categorization,0,kitchen,SHINEd_sun_aarfiyshqohlwkmo.tif,67,0.0666666666666667,0.0666666666666667,1.11666666666667,23623.560131958,23624.328958917,9,23623.621900917,23623.682836458,23624.334529083,23625.444560125,1,0.768826959003491
103,7,3,categorization,0,kitchen,SHINEd_sun_admlmbcdswaszruo.tif,79,0.0666666666666667,0.0666666666666667,0.966666666666667,23625.453854375,23626.029902417,9,23625.518260667,23625.586360583,23626.059536708,23627.019559958,1,0.576048042003094
103,8,3,categorization,0,bathroom,SHINEd_sun_auzqhkafidnkrwmo.tif,54,0.0666666666666667,0.0666666666666667,1.78333333333333,23627.029330292,23627.736510833,13,23627.096556417,23627.162327042,23627.747966,23629.524680125,1,0.707180541001435
103,9,3,categorization,0,bathroom,SHINEd_sun_abjtwfukuwddzted.tif,15,0.0666666666666667,0.0666666666666667,1.55,23629.542645917,23630.371059458,9,23629.6098435,23629.675399542,23630.398628125,23631.941994042,0,0.828413540999463
103,10,3,categorization,0,kitchen,SHINEd_sun_aymvwlarqodbwuoc.tif,108,0.0666666666666667,0.0666666666666667,1.41666666666667,23631.961963917,23632.624517333,13,23632.028677833,23632.09472225,23632.65142325,23634.061461583,0,0.662553415997536
103,11,3,categorization,0,bathroom,SHINEd_sun_axldvoqbuvuggfmq.tif,57,0.0666666666666667,0.0666666666666667,0.8,23634.079661417,23634.639948333,13,23634.146356708,23634.212693875,23634.66940775,23635.462775083,1,0.560286915999313
103,12,3,categorization,0,bathroom,SHINEd_sun_afcoljnjfoxjtgja.tif,20,0.0666666666666667,0.0666666666666667,1.28333333333333,23635.479390417,23635.969087833,13,23635.546092833,23635.612278125,23635.9813835,23637.258086417,1,0.489697416000126
103,13,3,categorization,0,kitchen,SHINEd_sun_akcjzhbbjlbogpdi.tif,99,0.0666666666666667,0.0666666666666667,1.66666666666667,23637.271102167,23637.818484875,9,23637.3383235,23637.403911708,23637.843999042,23639.504042917,1,0.547382707998622
103,14,3,categorization,0,kitchen,SHINEd_sun_acxkpeoqbwcxfvip.tif,77,0.0666666666666667,0.0666666666666667,1.81666666666667,23639.522410875,23640.492395542,9,23639.589137125,23639.655399667,23640.51189125,23642.321926833,1,0.969984667000972
103,15,3,categorization,0,bathroom,SHINEd_sun_ausgutylgojavyoq.tif,53,0.0666666666666667,0.0666666666666667,1.35,23642.340476542,23643.136994958,13,23642.407218792,23642.4735975,23643.163437208,23644.506826667,1,0.796518416002073
103,16,3,categorization,0,kitchen,SHINEd_sun_agubuxuukhzyzpdp.tif,88,0.0666666666666667,0.0666666666666667,0.916666666666667,23644.52550675,23645.910214042,13,23644.592484458,23644.658858292,23645.9346765,23646.844682458,0,1.3847072919998
103,17,3,categorization,0,kitchen,SHINEd_sun_auticobqsbwgoppi.tif,104,0.0666666666666667,0.0666666666666667,0.916666666666667,23646.849434583,23648.841082542,13,23646.911202792,23646.972319625,23648.857893667,23649.767898167,0,1.99164795899924
103,18,3,categorization,0,bathroom,SHINEd_sun_aclfzgynxzxlbepz.tif,19,0.0666666666666667,0.0666666666666667,1.31666666666667,23649.7728115,23650.416984833,13,23649.834506542,23649.895575125,23650.430569292,23651.740604292,1,0.644173332999344
103,19,3,categorization,0,kitchen,SHINEd_sun_axyyrmzcupyhlivc.tif,107,0.0666666666666667,0.0666666666666667,1.45,23651.759316583,23652.306619458,13,23651.826574333,23651.892132542,23652.332338167,23653.775708875,0,0.547302874998422
103,20,3,categorization,0,bathroom,SHINEd_sun_agrwbmhcpmfuwmsg.tif,24,0.0666666666666667,0.0666666666666667,0.95,23653.795326542,23654.230753875,13,23653.861731583,23653.928237375,23654.251015,23655.19439025,1,0.435427332999097
103,21,3,categorization,0,kitchen,SHINEd_sun_aypmqwcualkenuoe.tif,109,0.0666666666666667,0.0666666666666667,1.38333333333333,23655.211566125,23656.000748042,9,23655.278469042,23655.344584375,23656.013774042,23657.390489917,1,0.789181916999951
103,22,3,categorization,0,bathroom,SHINEd_sun_axyrejkiiaqiurjk.tif,59,0.0666666666666667,0.0666666666666667,1.16666666666667,23657.408558167,23657.847900417,13,23657.475575625,23657.5414885,23657.86396775,23659.024010708,1,0.439342249999754
103,23,3,categorization,0,kitchen,SHINEd_sun_ajcbwwvdlsvjyzje.tif,96,0.0666666666666667,0.0666666666666667,1.61666666666667,23659.037189958,23659.592348458,9,23659.099553625,23659.159945542,23659.612106125,23661.22214525,1,0.555158500003017
103,24,3,categorization,0,bathroom,SHINEd_sun_apeeialkgkuxddgh.tif,42,0.0666666666666667,0.0666666666666667,1.38333333333333,23661.242178583,23661.747602208,13,23661.309236083,23661.375327375,23661.76496325,23663.141687292,1,0.505423624999821
103,25,3,categorization,0,bathroom,SHINEd_sun_amzlamotzwfkwjco.tif,37,0.0666666666666667,0.0666666666666667,1.78333333333333,23663.161851833,23664.162215042,9,23663.228775375,23663.294884417,23664.184991542,23665.961701542,0,1.00036320900108
103,26,3,categorization,0,kitchen,SHINEd_sun_aggjlwcdjsjcaemh.tif,86,0.0666666666666667,0.0666666666666667,0.783333333333333,23665.979763667,23667.036818,9,23666.046698167,23666.112702333,23667.052038,23667.828710292,1,1.05705433299954
103,27,3,categorization,0,bathroom,SHINEd_sun_anryaplzeujmzfkd.tif,39,0.0666666666666667,0.0666666666666667,1.65,23667.833768208,23668.6730055,9,23667.895628583,23667.956511375,23668.69194625,23670.335312167,0,0.839237292002508
103,28,3,categorization,0,bathroom,SHINEd_sun_aljolscmmzydegqp.tif,33,0.0666666666666667,0.0666666666666667,1.86666666666667,23670.353413042,23671.202581875,13,23670.420076833,23670.486270083,23671.225777375,23673.085826583,1,0.849168832999567
103,29,3,categorization,0,kitchen,SHINEd_sun_azmutvzbxypaceni.tif,110,0.0666666666666667,0.0666666666666667,1.23333333333333,23673.103770083,23674.132870458,13,23673.170540833,23673.236603667,23674.158477083,23675.385188208,0,1.0291003750026
103,30,3,categorization,0,kitchen,SHINEd_sun_aexklacwqwezaorf.tif,84,0.0666666666666667,0.0666666666666667,0.7,23675.397370167,23676.456903042,13,23675.464581667,23675.530432458,23676.487177125,23677.180545125,0,1.05953287499869
103,31,3,categorization,0,kitchen,SHINEd_sun_ajkqhtgcbgpcwrwn.tif,97,0.0666666666666667,0.0666666666666667,0.716666666666667,23677.187772708,23677.992350208,13,23677.249674458,23677.31052925,23677.995518,23678.705522417,0,0.804577499999141
103,32,3,categorization,0,kitchen,SHINEd_sun_abdenxonkemggwsq.tif,69,0.0666666666666667,0.0666666666666667,1.05,23678.710458708,23679.472495292,13,23678.772181167,23678.833216125,23679.485054083,23680.528434625,0,0.76203658400118
103,33,3,categorization,0,bathroom,SHINEd_sun_apjevzvycyhuqghb.tif,43,0.0666666666666667,0.0666666666666667,1.1,23680.537519458,23681.293511375,9,23680.602063083,23680.668888458,23681.307906417,23682.401284625,0,0.755991916998028
103,34,3,categorization,0,bathroom,SHINEd_sun_asfwthctfqerjvxr.tif,49,0.0666666666666667,0.0666666666666667,1.13333333333333,23682.418183083,23683.272196583,9,23682.485249292,23682.551297458,23683.286632708,23684.413349458,0,0.854013500000292
103,35,3,categorization,0,bathroom,SHINEd_sun_ahqjwnzgolcaoidx.tif,29,0.0666666666666667,0.0666666666666667,1.38333333333333,23684.422238625,23685.20243175,9,23684.487374458,23684.555077167,23685.228605375,23686.605323917,0,0.780193124999641
103,36,3,categorization,0,bathroom,SHINEd_sun_aghyqhbptboemmoq.tif,23,0.0666666666666667,0.0666666666666667,1.5,23686.623531625,23687.717301625,9,23686.690148917,23686.756057375,23687.747590083,23689.240961167,0,1.09377000000313
103,37,3,categorization,0,bathroom,SHINEd_sun_ajlawzvmubibwbpy.tif,30,0.0666666666666667,0.0666666666666667,1.61666666666667,23689.258503042,23690.204419792,9,23689.325434625,23689.39117175,23690.231049958,23691.841101958,0,0.945916749999014
103,38,3,categorization,0,kitchen,SHINEd_sun_avszsnwsbuqfgzbn.tif,105,0.0666666666666667,0.0666666666666667,0.983333333333333,23691.861880167,23692.740980208,9,23691.928503333,23691.995242667,23692.768457292,23693.745129917,1,0.87910004099831
103,39,3,categorization,0,bathroom,SHINEd_sun_ahijqszoswveeyji.tif,28,0.0666666666666667,0.0666666666666667,1.3,23693.750189875,23694.497026417,9,23693.812329,23693.872805625,23694.50797825,23695.801342667,0,0.746836541999073
103,40,3,categorization,0,kitchen,SHINEd_sun_ahywdevtimnqcsln.tif,94,0.0666666666666667,0.0666666666666667,1.03333333333333,23695.819109083,23696.604085708,9,23695.885905042,23695.951840917,23696.625620333,23697.652293708,1,0.784976625000127
103,41,3,categorization,0,bathroom,SHINEd_sun_agyqfjcfkdcydepw.tif,25,0.0666666666666667,0.0666666666666667,1.45,23697.659038417,23698.296699917,9,23697.720888375,23697.7818475,23698.3002405,23699.743612417,0,0.637661499997193
103,42,3,categorization,0,bathroom,SHINEd_sun_acgyywnybuveqsro.tif,18,0.0666666666666667,0.0666666666666667,1.23333333333333,23699.75419475,23700.448363792,9,23699.819555583,23699.883151,23700.471126583,23701.697832958,0,0.694169041998975
103,43,3,categorization,0,bathroom,SHINEd_sun_atstyziqcmkahyxk.tif,51,0.0666666666666667,0.0666666666666667,1.26666666666667,23701.718398625,23702.249108875,9,23701.785915958,23701.85161025,23702.275262125,23703.535307667,0,0.530710250000993
103,44,3,categorization,0,bathroom,SHINEd_sun_axxbkopsgyouuebh.tif,58,0.0666666666666667,0.0666666666666667,1.03333333333333,23703.554234083,23704.021101042,9,23703.62257975,23703.687416083,23704.044451917,23705.071161292,0,0.466866958999162
103,45,3,categorization,0,bathroom,SHINEd_sun_aoybiabnpadelefl.tif,41,0.0666666666666667,0.0666666666666667,1.31666666666667,23705.08923525,23705.590585375,9,23705.156509125,23705.221768958,23705.611870167,23706.921911958,0,0.50135012499959
103,46,3,categorization,0,kitchen,SHINEd_sun_agzzivivdpnawacl.tif,89,0.0666666666666667,0.0666666666666667,1.7,23706.943312167,23707.667712292,9,23707.009033333,23707.076836042,23707.68345175,23709.376824375,1,0.724400125000102
103,47,3,categorization,0,kitchen,SHINEd_sun_ahpczsiumwwocjkv.tif,92,0.0666666666666667,0.0666666666666667,1.35,23709.393755792,23710.112205042,13,23709.461428208,23709.527044417,23710.132725167,23711.476106917,0,0.718449250001868
103,48,3,categorization,0,bathroom,SHINEd_sun_aspsyogrekjtfozg.tif,50,0.0666666666666667,0.0666666666666667,0.8,23711.49662825,23711.964904542,9,23711.564161958,23711.630277625,23711.987870583,23712.781250417,0,0.468276292001974
103,49,3,categorization,0,bathroom,SHINEd_sun_apmqjbnwghzuhhzh.tif,46,0.0666666666666667,0.0666666666666667,0.766666666666667,23712.798368958,23713.44030975,13,23712.866287625,23712.931226333,23713.450022458,23714.210028333,1,0.641940792000241
103,50,3,categorization,0,kitchen,SHINEd_sun_acfmftudsenhrfhy.tif,74,0.0666666666666667,0.0666666666666667,1.38333333333333,23714.21520375,23714.688752917,13,23714.276985375,23714.337976375,23714.706602833,23716.083320708,0,0.473549167003512
103,1,4,categorization,0,bathroom,SHINEd_sun_apynckhmoftszqoq.tif,47,0.0666666666666667,0.0666666666666667,1,23773.06959425,23773.952057708,13,23773.131748292,23773.192337,23773.960876208,23774.954213333,1,0.882463458001439
103,2,4,categorization,0,bathroom,SHINEd_labelme_sfxiulhjbhlyiyt.tif,11,0.0666666666666667,0.0666666666666667,0.966666666666667,23774.958696167,23776.031974917,13,23775.020396542,23775.0814165,23776.049913458,23777.009917792,1,1.07327875000192
103,3,4,categorization,0,bathroom,SHINEd_sun_akiytfaagpdsphgz.tif,31,0.0666666666666667,0.0666666666666667,1.75,23777.01491975,23778.088639292,9,23777.076830958,23777.137792958,23778.10621375,23779.849590917,0,1.07371954200062
103,4,4,categorization,0,bathroom,SHINEd_sun_aapitsgbtktqubfy.tif,12,0.0666666666666667,0.0666666666666667,1.68333333333333,23779.867833458,23780.734057458,13,23779.934859625,23779.9993315,23780.756122917,23782.432820042,1,0.866224000001239
103,5,4,categorization,0,bathroom,SHINEd_sun_anhioqovhscjqqwb.tif,38,0.0666666666666667,0.0666666666666667,1.58333333333333,23782.451097,23783.394048917,13,23782.51809825,23782.582502583,23783.422984042,23784.999684833,1,0.942951917000755
103,6,4,categorization,0,bathroom,SHINEd_sun_aqrpegblszgcoujh.tif,48,0.0666666666666667,0.0666666666666667,1,23785.011168292,23785.96288775,13,23785.077574917,23785.14341375,23785.98289675,23786.976236083,1,0.951719458000298
103,7,4,categorization,0,kitchen,SHINEd_sun_aehawpgmrlhlvcow.tif,81,0.0666666666666667,0.0666666666666667,1.33333333333333,23786.981240958,23787.736673917,9,23787.043030708,23787.1038415,23787.7556765,23789.082384417,1,0.755432958998426
103,8,4,categorization,0,kitchen,SHINEd_sun_awcpdzzznmweyyhv.tif,106,0.0666666666666667,0.0666666666666667,1.26666666666667,23789.100924208,23790.065639208,13,23789.167868125,23789.233660208,23790.090404708,23791.350448417,0,0.964715000001888
103,9,4,categorization,0,kitchen,SHINEd_sun_aeqdocilnnpuvuhx.tif,83,0.0666666666666667,0.0666666666666667,0.883333333333333,23791.369225708,23792.189102083,13,23791.436118958,23791.502224542,23792.208513,23793.085212,0,0.819876375000604
103,10,4,categorization,0,bathroom,SHINEd_sun_apkruvsevgegsdwp.tif,44,0.0666666666666667,0.0666666666666667,1.26666666666667,23793.098914208,23793.919976583,9,23793.161305792,23793.221663958,23793.923416417,23795.18344925,0,0.821062375001929
103,11,4,categorization,0,kitchen,SHINEd_sun_aaxxjlsuzvqlgylf.tif,68,0.0666666666666667,0.0666666666666667,2,23795.202053,23796.017869583,13,23795.269112875,23795.334983875,23796.041640167,23798.03500925,0,0.815816582999105
103,12,4,categorization,0,kitchen,SHINEd_sun_agorklincwxrdtga.tif,87,0.0666666666666667,0.0666666666666667,0.733333333333333,23798.054061792,23799.08252825,9,23798.1210265,23798.186887125,23799.110284667,23799.836954792,1,1.02846645799946
103,13,4,categorization,0,bathroom,SHINEd_sun_abapwbhyhkfixyex.tif,14,0.0666666666666667,0.0666666666666667,0.883333333333333,23799.842737458,23800.599921917,9,23799.904464542,23799.965446625,23800.617361042,23801.494032917,0,0.757184459002019
103,14,4,categorization,0,bathroom,SHINEd_sun_acegryoqftbzowsg.tif,17,0.0666666666666667,0.0666666666666667,0.983333333333333,23801.498904667,23802.648620042,9,23801.560648833,23801.621563625,23802.656783917,23803.633453792,0,1.14971537499878
103,15,4,categorization,0,bathroom,SHINEd_sun_aleqenyvunhactkl.tif,32,0.0666666666666667,0.0666666666666667,1.56666666666667,23803.638006083,23805.159710875,13,23803.699796042,23803.760889625,23805.162743833,23806.72280025,1,1.52170479199776
103,16,4,categorization,0,kitchen,SHINEd_sun_auaiucuqpdausiva.tif,102,0.0666666666666667,0.0666666666666667,1.08333333333333,23806.739596875,23807.452737708,9,23806.80625,23806.872416542,23807.478484958,23808.555207792,1,0.713140833002399
103,17,4,categorization,0,bathroom,SHINEd_sun_ambriybtogmepttm.tif,36,0.0666666666666667,0.0666666666666667,0.75,23808.566043333,23809.234250083,13,23808.630702625,23808.697610542,23809.253878333,23809.9972605,1,0.668206749996898
103,18,4,categorization,0,bathroom,SHINEd_sun_agguqiubmwhqqunb.tif,22,0.0666666666666667,0.0666666666666667,0.966666666666667,23810.013153958,23810.623884667,13,23810.079958792,23810.146148208,23810.63188,23811.591884208,1,0.610730708998744
103,19,4,categorization,0,kitchen,SHINEd_sun_aenotlpyftoioydp.tif,82,0.0666666666666667,0.0666666666666667,1.63333333333333,23811.59682375,23812.375654125,9,23811.658630292,23811.719560583,23812.388109083,23814.014817125,1,0.778830375002144
103,20,4,categorization,0,kitchen,SHINEd_sun_ahspylgoovwmwvgk.tif,93,0.0666666666666667,0.0666666666666667,1.46666666666667,23814.032975083,23814.899706208,9,23814.099869542,23814.1659825,23814.923082708,23816.383120792,1,0.866731125002843
103,21,4,categorization,0,kitchen,SHINEd_sun_aapllqyqlykszopd.tif,66,0.0666666666666667,0.0666666666666667,0.933333333333333,23816.402000292,23817.089949542,9,23816.469112542,23816.535328125,23817.108249667,23818.0349495,1,0.687949250001111
103,22,4,categorization,0,bathroom,SHINEd_sun_avhrdrntsqrjzccq.tif,55,0.0666666666666667,0.0666666666666667,1.45,23818.046174708,23818.696224083,9,23818.108703375,23818.168988167,23818.704100292,23820.147487083,0,0.650049374999071
103,23,4,categorization,0,kitchen,SHINEd_sun_acwjdupvyjsugpay.tif,76,0.0666666666666667,0.0666666666666667,0.966666666666667,23820.165911042,23821.074023417,9,23820.232792917,23820.298846292,23821.088043,23822.04804775,1,0.908112375000201
103,24,4,categorization,0,kitchen,SHINEd_sun_abrcnpqqhmjwekyf.tif,73,0.0666666666666667,0.0666666666666667,0.816666666666667,23822.053055667,23823.152258667,9,23822.114738625,23822.175755667,23823.160855792,23823.970860917,1,1.09920300000158
103,25,4,categorization,0,kitchen,SHINEd_sun_aixorpehvfykdynp.tif,95,0.0666666666666667,0.0666666666666667,1.96666666666667,23823.975814458,23824.664498792,9,23824.037616792,23824.098425542,23824.683534083,23826.643574375,1,0.688684333999845
103,26,4,categorization,0,kitchen,SHINEd_sun_aqeaevwwwjoqhzvl.tif,101,0.0666666666666667,0.0666666666666667,0.916666666666667,23826.659490167,23827.508933708,9,23826.726220292,23826.792419208,23827.532636375,23828.442641125,1,0.849443540999346
103,27,4,categorization,0,bathroom,SHINEd_sun_alkosphxlxwjwgjd.tif,34,0.0666666666666667,0.0666666666666667,1.28333333333333,23828.447733292,23829.199831,9,23828.509439625,23828.570894167,23829.206095958,23830.4828065,0,0.752097708002111
103,28,4,categorization,0,kitchen,SHINEd_labelme_rykdqxenmhulbdn.tif,63,0.0666666666666667,0.0666666666666667,1.8,23830.500863042,23831.365810542,9,23830.567947708,23830.633789125,23831.390428625,23833.1837935,1,0.864947499998379
103,29,4,categorization,0,kitchen,SHINEd_sun_acgtpgfybqjmzeyw.tif,75,0.0666666666666667,0.0666666666666667,1.33333333333333,23833.199800125,23833.913046333,9,23833.266569667,23833.332671167,23833.93924825,23835.265953542,1,0.713246208000783
103,30,4,categorization,0,bathroom,SHINEd_sun_aggnnqpdorgxpvce.tif,21,0.0666666666666667,0.0666666666666667,1.06666666666667,23835.284077667,23836.067943625,9,23835.349769417,23835.414388542,23836.087488792,23837.147543417,0,0.783865958001115
103,31,4,categorization,0,kitchen,SHINEd_sun_abftihopvusyfakt.tif,71,0.0666666666666667,0.0666666666666667,1.03333333333333,23837.158990458,23837.802203458,9,23837.223730917,23837.291955708,23837.831539125,23838.858247125,1,0.643212999999378
103,32,4,categorization,0,kitchen,SHINEd_sun_abpwyqmlzafvklqo.tif,72,0.0666666666666667,0.0666666666666667,0.733333333333333,23838.8775955,23839.616311083,9,23838.942920042,23839.010503042,23839.629087083,23840.355758167,1,0.738715583000157
103,33,4,categorization,0,kitchen,SHINEd_sun_akchetnepxlcxhsu.tif,98,0.0666666666666667,0.0666666666666667,0.766666666666667,23840.360853417,23840.976578625,13,23840.422669417,23840.483521083,23840.985526625,23841.745531458,0,0.615725207997457
103,34,4,categorization,0,bathroom,SHINEd_sun_alotolagknyrgtsk.tif,35,0.0666666666666667,0.0666666666666667,1.1,23841.75054375,23842.583462333,9,23841.812169292,23841.873259375,23842.591844792,23843.68523175,0,0.832918583000719
103,35,4,categorization,0,kitchen,SHINEd_sun_aunzlwrbjumxhwdj.tif,103,0.0666666666666667,0.0666666666666667,1.81666666666667,23843.695908417,23844.313552875,9,23843.760761875,23843.829026875,23844.335642625,23846.1456745,1,0.617644457997812
103,36,4,categorization,0,bathroom,SHINEd_sun_ahcvzmoyaycdoftf.tif,27,0.0666666666666667,0.0666666666666667,0.883333333333333,23846.163019625,23846.901197833,13,23846.230258083,23846.295784125,23846.918367875,23847.795042625,1,0.738178208001045
103,37,4,categorization,0,kitchen,SHINEd_sun_aegoxogugdkwpmpj.tif,80,0.0666666666666667,0.0666666666666667,1.7,23847.800867083,23848.456348208,9,23847.862499917,23847.9236155,23848.475437083,23850.168817917,1,0.655481125002552
103,38,4,categorization,0,bathroom,SHINEd_sun_azqyogdvyhahyram.tif,60,0.0666666666666667,0.0666666666666667,1.58333333333333,23850.186226958,23850.944817167,13,23850.253219042,23850.319050792,23850.956617292,23852.53332825,1,0.758590208999522
103,39,4,categorization,0,kitchen,SHINEd_labelme_kxvouciolcpqplr.tif,62,0.0666666666666667,0.0666666666666667,0.833333333333333,23852.552170542,23853.213634458,9,23852.619350292,23852.68458725,23853.240733667,23854.067410292,1,0.661463915999775
103,40,4,categorization,0,kitchen,SHINEd_sun_ahljzhgcdpomplvg.tif,91,0.0666666666666667,0.0666666666666667,0.95,23854.072982458,23854.967653292,13,23854.134786875,23854.195835583,23854.980972167,23855.924310708,0,0.894670833997225
103,41,4,categorization,0,kitchen,SHINEd_sun_aamedkxepzlwuxes.tif,65,0.0666666666666667,0.0666666666666667,1.06666666666667,23855.929141708,23856.391588917,9,23855.990792333,23856.051870833,23856.403708667,23857.463761375,1,0.462447208999947
103,42,4,categorization,0,bathroom,SHINEd_sun_aofnryafpsjimzsb.tif,40,0.0666666666666667,0.0666666666666667,1.68333333333333,23857.473417292,23858.747860375,9,23857.538134542,23857.60467925,23858.762133,23860.438837125,0,1.27444308299891
103,43,4,categorization,0,kitchen,SHINEd_sun_aadbddgrdsjugojn.tif,64,0.0666666666666667,0.0666666666666667,1.31666666666667,23860.458252292,23861.440889458,13,23860.524979167,23860.591071958,23861.465150125,23862.775207333,0,0.98263716600195
103,44,4,categorization,0,bathroom,SHINEd_sun_aunuadmjocsddsrl.tif,52,0.0666666666666667,0.0666666666666667,1.61666666666667,23862.793986417,23863.324660167,9,23862.860224208,23862.926904625,23863.349609542,23864.959622583,0,0.530673749999551
103,45,4,categorization,0,bathroom,SHINEd_sun_apkxzenqapsujocq.tif,45,0.0666666666666667,0.0666666666666667,1.15,23864.969251167,23865.660304167,13,23865.0362415,23865.102119208,23865.674280792,23866.817668583,1,0.691052999998647
103,46,4,categorization,0,kitchen,SHINEd_sun_afuyedyxivkhecmu.tif,85,0.0666666666666667,0.0666666666666667,1.25,23866.835847458,23867.315349708,9,23866.902495208,23866.967039833,23867.340654333,23868.584019125,1,0.479502249996585
103,47,4,categorization,0,kitchen,SHINEd_sun_adgqasybjyktddhj.tif,78,0.0666666666666667,0.0666666666666667,1.1,23868.601520542,23869.487897833,9,23868.668306958,23868.734188167,23869.50286025,23870.596234292,1,0.886377291000827
103,48,4,categorization,0,kitchen,SHINEd_sun_abdxkyyxwfskuaqb.tif,70,0.0666666666666667,0.0666666666666667,0.9,23870.604655083,23871.383455833,13,23870.669400375,23870.737227917,23871.41058325,23872.303966542,0,0.778800750002119
103,49,4,categorization,0,kitchen,SHINEd_sun_amjjdeyrggfqgmom.tif,100,0.0666666666666667,0.0666666666666667,1.3,23872.320638083,23872.975309125,9,23872.387394208,23872.453055167,23872.98857325,23874.281952708,1,0.654671041997062
103,50,4,categorization,0,bathroom,SHINEd_sun_aavhrsfjbserjtht.tif,13,0.0666666666666667,0.0666666666666667,1.25,23874.300101875,23874.921528917,9,23874.3668645,23874.433236542,23874.939783958,23876.183163542,0,0.621427041998686
103,1,5,categorization,0,bathroom,SHINEd_sun_agrwbmhcpmfuwmsg.tif,24,0.0666666666666667,0.0666666666666667,1.7,23881.109764875,23881.719447458,13,23881.171639292,23881.232500917,23881.734311167,23883.427695083,1,0.609682582999085
103,2,5,categorization,0,bathroom,SHINEd_sun_aghyqhbptboemmoq.tif,23,0.0666666666666667,0.0666666666666667,1.81666666666667,23883.446216917,23884.019167208,9,23883.513215417,23883.579842542,23884.036272417,23885.846314208,0,0.57295029099987
103,3,5,categorization,0,bathroom,SHINEd_sun_apjevzvycyhuqghb.tif,43,0.0666666666666667,0.0666666666666667,1.23333333333333,23885.864282917,23886.323504,13,23885.931288,23885.997437792,23886.336082625,23887.562785667,1,0.459221083001466
103,4,5,categorization,0,kitchen,SHINEd_sun_ajkqhtgcbgpcwrwn.tif,97,0.0666666666666667,0.0666666666666667,1.4,23887.582246292,23888.116720375,9,23887.649603625,23887.715540167,23888.13905175,23889.532422167,1,0.534474083000532
103,5,5,categorization,0,kitchen,SHINEd_sun_acwjdupvyjsugpay.tif,76,0.0666666666666667,0.0666666666666667,1.03333333333333,23889.55052075,23890.083985542,13,23889.617884292,23889.683695292,23890.107242833,23891.133961417,0,0.533464792002633
103,6,5,categorization,0,kitchen,SHINEd_sun_ahpczsiumwwocjkv.tif,92,0.0666666666666667,0.0666666666666667,1.38333333333333,23891.153780042,23892.159963917,9,23891.221110333,23891.286603833,23892.172159,23893.548863333,1,1.00618387500072
103,7,5,categorization,0,bathroom,SHINEd_sun_avhrdrntsqrjzccq.tif,55,0.0666666666666667,0.0666666666666667,2,23893.566571542,23894.332581417,9,23893.633482208,23893.699251458,23894.355846792,23896.349220208,0,0.766009874998417
103,8,5,categorization,0,bathroom,SHINEd_sun_akiytfaagpdsphgz.tif,31,0.0666666666666667,0.0666666666666667,1.85,23896.368890875,23897.020148583,9,23896.436008583,23896.502025875,23897.042182667,23898.885573208,0,0.651257707999321
103,9,5,categorization,0,kitchen,SHINEd_labelme_kxvouciolcpqplr.tif,62,0.0666666666666667,0.0666666666666667,0.816666666666667,23898.903263833,23899.683671292,9,23898.96867425,23899.036260417,23899.709656,23900.519660167,1,0.780407459002163
103,10,5,categorization,0,kitchen,SHINEd_sun_abrcnpqqhmjwekyf.tif,73,0.0666666666666667,0.0666666666666667,1.85,23900.524993,23901.35222475,9,23900.586796292,23900.647679042,23901.366259958,23903.209636667,1,0.827231750001374
103,11,5,categorization,0,bathroom,SHINEd_sun_aggnnqpdorgxpvce.tif,21,0.0666666666666667,0.0666666666666667,0.733333333333333,23903.22798275,23903.9675695,9,23903.294662917,23903.360741583,23903.983425958,23904.710098125,0,0.739586750001763
103,12,5,categorization,0,bathroom,SHINEd_sun_ahaulkltgpkeeemi.tif,26,0.0666666666666667,0.0666666666666667,0.716666666666667,23904.715016375,23905.359642542,9,23904.776752375,23904.837687333,23905.372772125,23906.082775708,0,0.644626166998933
103,13,5,categorization,0,kitchen,SHINEd_sun_agzzivivdpnawacl.tif,89,0.0666666666666667,0.0666666666666667,0.833333333333333,23906.087698667,23906.823982708,9,23906.149375167,23906.210421,23906.828883667,23907.655554417,1,0.736284040998726
103,14,5,categorization,0,kitchen,SHINEd_sun_auaiucuqpdausiva.tif,102,0.0666666666666667,0.0666666666666667,0.95,23907.660433875,23908.447907042,9,23907.722067792,23907.78307675,23908.451517833,23909.394856792,1,0.787473166998097
103,15,5,categorization,0,bathroom,SHINEd_sun_aqrpegblszgcoujh.tif,48,0.0666666666666667,0.0666666666666667,1.96666666666667,23909.399768292,23910.103396833,9,23909.461342458,23909.522531708,23910.107580083,23912.06762275,0,0.703628540999489
103,16,5,categorization,0,kitchen,SHINEd_sun_aarfiyshqohlwkmo.tif,67,0.0666666666666667,0.0666666666666667,1.86666666666667,23912.085909042,23912.859608333,9,23912.152567708,23912.218947083,23912.874671875,23914.734713,1,0.773699290999502
103,17,5,categorization,0,kitchen,SHINEd_sun_aenotlpyftoioydp.tif,82,0.0666666666666667,0.0666666666666667,1.51666666666667,23914.752599583,23915.436215583,9,23914.819199708,23914.88555225,23915.458548083,23916.968570625,1,0.683615999998437
103,18,5,categorization,0,bathroom,SHINEd_sun_abjtwfukuwddzted.tif,15,0.0666666666666667,0.0666666666666667,1.3,23916.977576083,23917.601910208,13,23917.043751542,23917.110184083,23917.615821458,23918.909190667,1,0.624334124997404
103,19,5,categorization,0,bathroom,SHINEd_sun_atstyziqcmkahyxk.tif,51,0.0666666666666667,0.0666666666666667,1.91666666666667,23918.92703775,23919.7016725,13,23918.991979917,23919.059888375,23919.715641083,23921.625685042,1,0.774634749999677
103,20,5,categorization,0,kitchen,SHINEd_sun_acxkpeoqbwcxfvip.tif,77,0.0666666666666667,0.0666666666666667,1.23333333333333,23921.642939,23922.280672208,9,23921.709652708,23921.775907875,23922.298849208,23923.525562792,1,0.637733207997371
103,21,5,categorization,0,bathroom,SHINEd_sun_acegryoqftbzowsg.tif,17,0.0666666666666667,0.0666666666666667,0.866666666666667,23923.5401695,23924.465792,9,23923.606997,23923.673065375,23924.496034125,23925.356088333,0,0.925622499999008
103,22,5,categorization,0,kitchen,SHINEd_sun_aapllqyqlykszopd.tif,66,0.0666666666666667,0.0666666666666667,0.8,23925.373064917,23926.167968417,9,23925.435672625,23925.495811542,23926.180925833,23926.974263292,1,0.794903500001965
103,23,5,categorization,0,kitchen,SHINEd_sun_afuyedyxivkhecmu.tif,85,0.0666666666666667,0.0666666666666667,1.51666666666667,23926.979037833,23927.647345292,9,23927.040838167,23927.101715542,23927.653484417,23929.163521417,1,0.668307459000061
103,24,5,categorization,0,kitchen,SHINEd_sun_abftihopvusyfakt.tif,71,0.0666666666666667,0.0666666666666667,1.18333333333333,23929.182666292,23929.926884,9,23929.248819208,23929.315568333,23929.955467667,23931.13218725,1,0.744217708001088
103,25,5,categorization,0,kitchen,SHINEd_sun_aehawpgmrlhlvcow.tif,81,0.0666666666666667,0.0666666666666667,1.6,23931.141897417,23931.808661542,9,23931.208751208,23931.274937458,23931.831585542,23933.424964958,1,0.666764124998735
103,26,5,categorization,0,bathroom,SHINEd_sun_awnqiikzaispgmwo.tif,56,0.0666666666666667,0.0666666666666667,1.56666666666667,23933.443672,23934.057034208,9,23933.510287375,23933.576848958,23934.083447708,23935.643486083,0,0.613362207997852
103,27,5,categorization,0,bathroom,SHINEd_sun_aofnryafpsjimzsb.tif,40,0.0666666666666667,0.0666666666666667,1.36666666666667,23935.659800958,23936.280169625,9,23935.726214583,23935.792537042,23936.297733458,23937.657786792,0,0.62036866699782
103,28,5,categorization,0,kitchen,SHINEd_labelme_brsyyvweiuaazfr.tif,61,0.0666666666666667,0.0666666666666667,1.53333333333333,23937.676842833,23938.472025208,9,23937.743445208,23937.809559708,23938.499646125,23940.026351875,1,0.795182375000877
103,29,5,categorization,0,kitchen,SHINEd_sun_acfmftudsenhrfhy.tif,74,0.0666666666666667,0.0666666666666667,1.4,23940.039299125,23940.816238042,9,23940.105659583,23940.172012333,23940.845225208,23942.238613917,1,0.776938916998915
103,30,5,categorization,0,bathroom,SHINEd_sun_apeeialkgkuxddgh.tif,42,0.0666666666666667,0.0666666666666667,1.06666666666667,23942.25685825,23942.935276375,13,23942.3234015,23942.390063667,23942.961625917,23944.021676208,1,0.678418125000462
103,31,5,categorization,0,bathroom,SHINEd_sun_afcoljnjfoxjtgja.tif,20,0.0666666666666667,0.0666666666666667,1.63333333333333,23944.03202425,23944.689000375,9,23944.096534667,23944.163330042,23944.702308042,23946.3290145,0,0.656976125002984
103,32,5,categorization,0,kitchen,SHINEd_sun_adgqasybjyktddhj.tif,78,0.0666666666666667,0.0666666666666667,1.8,23946.344900333,23947.095937208,9,23946.4116835,23946.478180667,23947.117993583,23948.911361333,1,0.751036875000864
103,33,5,categorization,0,kitchen,SHINEd_labelme_rykdqxenmhulbdn.tif,63,0.0666666666666667,0.0666666666666667,1.53333333333333,23948.929076833,23949.561774958,13,23948.994320708,23949.061695208,23949.584933667,23951.111638792,0,0.632698125002207
103,34,5,categorization,0,bathroom,SHINEd_sun_ahijqszoswveeyji.tif,28,0.0666666666666667,0.0666666666666667,0.766666666666667,23951.129355417,23951.762021625,9,23951.195893208,23951.262071583,23951.785269875,23952.545325083,0,0.632666207999137
103,35,5,categorization,0,bathroom,SHINEd_sun_agyqfjcfkdcydepw.tif,25,0.0666666666666667,0.0666666666666667,1.86666666666667,23952.561621958,23953.27919025,9,23952.628479417,23952.689661833,23953.291569667,23955.151608167,0,0.717568291998759
103,36,5,categorization,0,kitchen,SHINEd_sun_agubuxuukhzyzpdp.tif,88,0.0666666666666667,0.0666666666666667,1.13333333333333,23955.169142667,23955.769937583,9,23955.235971042,23955.302038833,23955.791954208,23956.918671208,1,0.600794916001178
103,37,5,categorization,0,bathroom,SHINEd_sun_asfwthctfqerjvxr.tif,49,0.0666666666666667,0.0666666666666667,1.73333333333333,23956.930938208,23957.503395542,9,23956.995909167,23957.063606083,23957.519379583,23959.246094417,0,0.572457334001228
103,38,5,categorization,0,kitchen,SHINEd_sun_aaxxjlsuzvqlgylf.tif,68,0.0666666666666667,0.0666666666666667,0.766666666666667,23959.264378458,23959.666407,9,23959.331101625,23959.397276208,23959.687053042,23960.447094167,1,0.402028542001062
103,39,5,categorization,0,bathroom,SHINEd_sun_aunuadmjocsddsrl.tif,52,0.0666666666666667,0.0666666666666667,1.85,23960.461474625,23960.896684917,9,23960.52833375,23960.594415292,23960.917014708,23962.760403708,0,0.435210291998374
103,40,5,categorization,0,bathroom,SHINEd_sun_azqyogdvyhahyram.tif,60,0.0666666666666667,0.0666666666666667,0.966666666666667,23962.778864625,23963.195064833,9,23962.845707292,23962.911964625,23963.218603833,23964.178608875,0,0.416200207997463
103,41,5,categorization,0,kitchen,SHINEd_sun_akcjzhbbjlbogpdi.tif,99,0.0666666666666667,0.0666666666666667,1.06666666666667,23964.183672625,23964.543221583,9,23964.245406417,23964.3066265,23964.558317458,23965.618356125,1,0.359548958000232
103,42,5,categorization,0,kitchen,SHINEd_sun_axyyrmzcupyhlivc.tif,107,0.0666666666666667,0.0666666666666667,1.38333333333333,23965.628094458,23965.9861905,9,23965.692665125,23965.759252208,23966.016002625,23967.392716667,1,0.358096042000398
103,43,5,categorization,0,bathroom,SHINEd_labelme_sfxiulhjbhlyiyt.tif,11,0.0666666666666667,0.0666666666666667,0.766666666666667,23967.406019917,23967.775455583,9,23967.472921458,23967.538898208,23967.791046208,23968.551049708,0,0.369435665998026
103,44,5,categorization,0,kitchen,SHINEd_sun_ahywdevtimnqcsln.tif,94,0.0666666666666667,0.0666666666666667,0.866666666666667,23968.555432333,23969.015511125,9,23968.617193542,23968.678160042,23969.030053417,23969.890056458,1,0.460078791998967
103,45,5,categorization,0,bathroom,SHINEd_sun_aspsyogrekjtfozg.tif,50,0.0666666666666667,0.0666666666666667,1.25,23969.894702375,23970.343934125,9,23969.956414875,23970.017481208,23970.352561333,23971.595944917,0,0.449231750000763
103,46,5,categorization,0,bathroom,SHINEd_sun_aapitsgbtktqubfy.tif,12,0.0666666666666667,0.0666666666666667,1.03333333333333,23971.611018625,23972.185430958,13,23971.677952583,23971.74438725,23972.200173375,23973.226881167,1,0.57441233300051
103,47,5,categorization,0,kitchen,SHINEd_sun_azmutvzbxypaceni.tif,110,0.0666666666666667,0.0666666666666667,0.783333333333333,23973.243607917,23973.982985708,9,23973.310798125,23973.376508042,23973.995338333,23974.77200975,1,0.739377791000152
103,48,5,categorization,0,bathroom,SHINEd_sun_axldvoqbuvuggfmq.tif,57,0.0666666666666667,0.0666666666666667,0.7,23974.776894167,23975.271203333,13,23974.838558583,23974.899627458,23975.284680583,23975.978018875,1,0.494309165998857
103,49,5,categorization,0,kitchen,SHINEd_sun_aexklacwqwezaorf.tif,84,0.0666666666666667,0.0666666666666667,1.75,23975.982755917,23976.527031375,13,23976.044378167,23976.105432083,23976.540476042,23978.283842417,0,0.544275457999902
103,50,5,categorization,0,kitchen,SHINEd_sun_ahspylgoovwmwvgk.tif,93,0.0666666666666667,0.0666666666666667,1.36666666666667,23978.301948708,23978.934777208,9,23978.368390167,23978.434945208,23978.956385958,23980.3164225,1,0.632828500001779
103,1,6,categorization,0,bathroom,SHINEd_sun_abapwbhyhkfixyex.tif,14,0.0666666666666667,0.0666666666666667,0.966666666666667,24012.388059833,24013.535216042,13,24012.450148,24012.510998,24013.54617875,24014.506184,1,1.14715620900097
103,2,6,categorization,0,bathroom,SHINEd_sun_apkxzenqapsujocq.tif,45,0.0666666666666667,0.0666666666666667,1.73333333333333,24014.510741042,24015.191688167,13,24014.572695375,24014.633342917,24015.201769625,24016.928470167,1,0.680947125001694
103,3,6,categorization,0,kitchen,SHINEd_sun_aegoxogugdkwpmpj.tif,80,0.0666666666666667,0.0666666666666667,1.91666666666667,24016.944223458,24017.628921167,13,24017.011126917,24017.076924208,24017.649994875,24019.5600275,0,0.684697709002648
103,4,6,categorization,0,kitchen,SHINEd_sun_avszsnwsbuqfgzbn.tif,105,0.0666666666666667,0.0666666666666667,0.766666666666667,24019.572493208,24020.416380958,9,24019.638851208,24019.705224458,24020.445070042,24021.205075958,1,0.843887749997521
103,5,6,categorization,0,kitchen,SHINEd_sun_aeqdocilnnpuvuhx.tif,83,0.0666666666666667,0.0666666666666667,0.916666666666667,24021.209859542,24021.991692708,9,24021.271572125,24021.332630083,24022.000973875,24022.910979542,1,0.781833166001888
103,6,6,categorization,0,kitchen,SHINEd_sun_aggjlwcdjsjcaemh.tif,86,0.0666666666666667,0.0666666666666667,1.18333333333333,24022.915980667,24023.479727458,9,24022.977698167,24023.038719833,24023.490486042,24024.667190542,1,0.563746791001904
103,7,6,categorization,0,bathroom,SHINEd_sun_ahcvzmoyaycdoftf.tif,27,0.0666666666666667,0.0666666666666667,1.8,24024.679766333,24025.315522875,9,24024.746554625,24024.812412,24025.335332792,24027.128698583,0,0.635756542000308
103,8,6,categorization,0,bathroom,SHINEd_sun_ajlawzvmubibwbpy.tif,30,0.0666666666666667,0.0666666666666667,0.883333333333333,24027.144801292,24027.92163875,13,24027.213063625,24027.277553,24027.9509845,24028.827655917,1,0.776837457997317
103,9,6,categorization,0,kitchen,SHINEd_sun_ajcbwwvdlsvjyzje.tif,96,0.0666666666666667,0.0666666666666667,1.83333333333333,24028.832793292,24029.463266125,13,24028.894400417,24028.955407917,24029.473771708,24031.30048925,0,0.630472832999658
103,10,6,categorization,0,bathroom,SHINEd_sun_ahqjwnzgolcaoidx.tif,29,0.0666666666666667,0.0666666666666667,1.76666666666667,24031.313961083,24031.87857925,9,24031.380760708,24031.446770083,24031.903124875,24033.663155583,0,0.564618166998116
103,11,6,categorization,0,kitchen,SHINEd_sun_aamedkxepzlwuxes.tif,65,0.0666666666666667,0.0666666666666667,0.983333333333333,24033.676927083,24034.167551417,13,24033.743019125,24033.809473083,24034.182133208,24035.158804583,0,0.490624333997403
103,12,6,categorization,0,bathroom,SHINEd_sun_aclfzgynxzxlbepz.tif,19,0.0666666666666667,0.0666666666666667,0.883333333333333,24035.163827083,24035.703713875,9,24035.225584667,24035.28670325,24035.721804583,24036.5984765,0,0.53988679199756
103,13,6,categorization,0,bathroom,SHINEd_sun_amzlamotzwfkwjco.tif,37,0.0666666666666667,0.0666666666666667,0.85,24036.603319083,24037.071330292,13,24036.665076333,24036.72597975,24037.077832917,24037.921169833,1,0.468011209002725
103,14,6,categorization,0,bathroom,SHINEd_sun_aoybiabnpadelefl.tif,41,0.0666666666666667,0.0666666666666667,0.733333333333333,24037.925835458,24038.431185958,13,24037.987436083,24038.048607792,24038.4502725,24039.176944917,1,0.505350499999622
103,15,6,categorization,0,kitchen,SHINEd_sun_aqeaevwwwjoqhzvl.tif,101,0.0666666666666667,0.0666666666666667,1.88333333333333,24039.181371958,24039.607348583,9,24039.243011375,24039.304057625,24039.622560542,24041.499279958,1,0.425976624999748
103,16,6,categorization,0,kitchen,SHINEd_sun_akchetnepxlcxhsu.tif,98,0.0666666666666667,0.0666666666666667,0.816666666666667,24041.516335083,24041.959786083,13,24041.582985958,24041.649000333,24041.988820875,24042.798826333,0,0.443450999999186
103,17,6,categorization,0,bathroom,SHINEd_sun_apynckhmoftszqoq.tif,47,0.0666666666666667,0.0666666666666667,1.9,24042.8039575,24043.342971833,13,24042.865632542,24042.926593167,24043.361725708,24045.255105083,1,0.539014333000523
103,18,6,categorization,0,kitchen,SHINEd_sun_admlmbcdswaszruo.tif,79,0.0666666666666667,0.0666666666666667,0.983333333333333,24045.274013625,24045.835364208,9,24045.34071975,24045.406981792,24045.863724167,24046.840395917,1,0.561350583000603
103,19,6,categorization,0,kitchen,SHINEd_sun_auticobqsbwgoppi.tif,104,0.0666666666666667,0.0666666666666667,0.75,24046.845452958,24047.343119583,13,24046.907103375,24046.968206333,24047.353259,24048.096597708,0,0.49766662500042
103,20,6,categorization,0,bathroom,SHINEd_sun_agguqiubmwhqqunb.tif,22,0.0666666666666667,0.0666666666666667,1.6,24048.101566458,24048.695682125,13,24048.163179833,24048.224242667,24048.709356542,24050.302745583,1,0.594115666997823
103,21,6,categorization,0,bathroom,SHINEd_sun_axyrejkiiaqiurjk.tif,59,0.0666666666666667,0.0666666666666667,1.58333333333333,24050.319143958,24050.817484625,9,24050.386081,24050.451870458,24050.8417335,24052.418459167,0,0.498340666999866
103,22,6,categorization,0,kitchen,SHINEd_sun_agorklincwxrdtga.tif,87,0.0666666666666667,0.0666666666666667,1.11666666666667,24052.436898875,24053.319483458,9,24052.5031065,24052.56973125,24053.343036875,24054.453078458,1,0.882584582999698
103,23,6,categorization,0,bathroom,SHINEd_sun_acduarbnmmoglmiv.tif,16,0.0666666666666667,0.0666666666666667,1.53333333333333,24054.463604042,24056.063349042,9,24054.528128917,24054.596457375,24056.0887065,24057.615416083,0,1.59974499999953
103,24,6,categorization,0,kitchen,SHINEd_sun_ahljzhgcdpomplvg.tif,91,0.0666666666666667,0.0666666666666667,1.48333333333333,24057.633317292,24058.452659583,13,24057.7002375,24057.76611275,24058.473181708,24059.949906958,0,0.819342291000794
103,25,6,categorization,0,bathroom,SHINEd_sun_alotolagknyrgtsk.tif,35,0.0666666666666667,0.0666666666666667,1.1,24059.968183417,24061.242362667,9,24060.034865083,24060.101030917,24061.259318542,24062.352694083,0,1.27417924999827
103,26,6,categorization,0,kitchen,SHINEd_sun_aunzlwrbjumxhwdj.tif,103,0.0666666666666667,0.0666666666666667,0.933333333333333,24062.362091667,24063.268353333,9,24062.427406208,24062.494982,24063.284771375,24064.211476583,1,0.90626166599759
103,27,6,categorization,0,bathroom,SHINEd_sun_anryaplzeujmzfkd.tif,39,0.0666666666666667,0.0666666666666667,0.816666666666667,24064.222162458,24065.094987875,13,24064.288891417,24064.355323917,24065.107255083,24065.917258708,1,0.872825416998239
103,28,6,categorization,0,bathroom,SHINEd_sun_aljolscmmzydegqp.tif,33,0.0666666666666667,0.0666666666666667,1.78333333333333,24065.92227425,24066.703590792,13,24065.984083042,24066.045000042,24066.713508417,24068.49022225,1,0.78131654200115
103,29,6,categorization,0,bathroom,SHINEd_sun_ausgutylgojavyoq.tif,53,0.0666666666666667,0.0666666666666667,0.766666666666667,24068.50963575,24069.344246625,13,24068.57658375,24068.642357083,24069.365652042,24070.125655667,1,0.83461087500109
103,30,6,categorization,0,kitchen,SHINEd_sun_aadbddgrdsjugojn.tif,64,0.0666666666666667,0.0666666666666667,1.45,24070.130686542,24070.815541417,9,24070.192499583,24070.253491708,24070.822032875,24072.265400125,1,0.684854874998564
103,31,6,categorization,0,kitchen,SHINEd_sun_aypmqwcualkenuoe.tif,109,0.0666666666666667,0.0666666666666667,0.75,24072.283422167,24073.440711042,9,24072.350247417,24072.416536625,24073.455879333,24074.199218583,1,1.15728887500154
103,32,6,categorization,0,bathroom,SHINEd_sun_alkosphxlxwjwgjd.tif,34,0.0666666666666667,0.0666666666666667,1.36666666666667,24074.204023,24075.046569625,9,24074.265784708,24074.3266865,24075.061873667,24076.421925833,0,0.842546625000978
103,33,6,categorization,0,kitchen,SHINEd_sun_ahdycvpopffkzzsu.tif,90,0.0666666666666667,0.0666666666666667,0.75,24076.440244958,24077.401613375,9,24076.5070105,24076.573280417,24077.429520583,24078.17285975,1,0.961368416999903
103,34,6,categorization,0,kitchen,SHINEd_sun_aixorpehvfykdynp.tif,95,0.0666666666666667,0.0666666666666667,0.783333333333333,24078.177946833,24079.087507042,9,24078.23961375,24078.30062775,24079.102289542,24079.878960958,1,0.909560209001938
103,35,6,categorization,0,bathroom,SHINEd_sun_aleqenyvunhactkl.tif,32,0.0666666666666667,0.0666666666666667,1.11666666666667,24079.884135625,24080.838748042,9,24079.945936917,24080.006833583,24080.841752208,24081.951807917,0,0.954612416997406
103,36,6,categorization,0,kitchen,SHINEd_sun_awcpdzzznmweyyhv.tif,106,0.0666666666666667,0.0666666666666667,0.766666666666667,24081.96134925,24082.858112375,9,24082.02617425,24082.094762458,24082.884188708,24083.644236458,1,0.896763125001598
103,37,6,categorization,0,kitchen,SHINEd_sun_acgtpgfybqjmzeyw.tif,75,0.0666666666666667,0.0666666666666667,0.716666666666667,24083.660217458,24084.53525825,9,24083.727024667,24083.7934165,24084.545362417,24085.255366042,1,0.875040792001528
103,38,6,categorization,0,kitchen,SHINEd_sun_amjjdeyrggfqgmom.tif,100,0.0666666666666667,0.0666666666666667,1.33333333333333,24085.260353625,24085.99911575,9,24085.322040375,24085.38305725,24086.018241167,24087.34494775,1,0.738762125001813
103,39,6,categorization,0,bathroom,SHINEd_sun_acgyywnybuveqsro.tif,18,0.0666666666666667,0.0666666666666667,1.75,24087.358012375,24087.936305583,9,24087.424756625,24087.490901,24087.963929833,24089.70730775,0,0.578293208000105
103,40,6,categorization,0,bathroom,SHINEd_sun_apmqjbnwghzuhhzh.tif,46,0.0666666666666667,0.0666666666666667,1.13333333333333,24089.726059208,24090.439492708,13,24089.793033042,24089.859273333,24090.465532792,24091.592254583,1,0.713433500000974
103,41,6,categorization,0,kitchen,SHINEd_sun_aymvwlarqodbwuoc.tif,108,0.0666666666666667,0.0666666666666667,1.63333333333333,24091.601986667,24092.30053,9,24091.667134833,24091.73557625,24092.3259235,24093.952640042,1,0.698543333000998
103,42,6,categorization,0,kitchen,SHINEd_sun_abpwyqmlzafvklqo.tif,72,0.0666666666666667,0.0666666666666667,1.43333333333333,24093.971141833,24094.694896417,9,24094.038224,24094.103823792,24094.708274333,24096.134994875,1,0.723754583999835
103,43,6,categorization,0,kitchen,SHINEd_sun_abdenxonkemggwsq.tif,69,0.0666666666666667,0.0666666666666667,1.83333333333333,24096.153611875,24096.785290875,9,24096.221614958,24096.286228125,24096.808938833,24098.635640542,1,0.631678999998257
103,44,6,categorization,0,bathroom,SHINEd_sun_axxbkopsgyouuebh.tif,58,0.0666666666666667,0.0666666666666667,1.93333333333333,24098.656760167,24099.504331042,9,24098.724107458,24098.790387833,24099.531420833,24101.45812575,0,0.847570875001111
103,45,6,categorization,0,bathroom,SHINEd_sun_ambriybtogmepttm.tif,36,0.0666666666666667,0.0666666666666667,1.26666666666667,24101.478119583,24102.099200125,9,24101.545707583,24101.61171025,24102.119724875,24103.379770583,0,0.621080542001437
103,46,6,categorization,0,bathroom,SHINEd_sun_aavhrsfjbserjtht.tif,13,0.0666666666666667,0.0666666666666667,1.86666666666667,24103.400178958,24104.023414708,9,24103.468060833,24103.533415792,24104.039756417,24105.899810583,0,0.623235750001186
103,47,6,categorization,0,bathroom,SHINEd_sun_apkruvsevgegsdwp.tif,44,0.0666666666666667,0.0666666666666667,1.41666666666667,24105.91932,24106.558765792,9,24105.986805333,24106.052408292,24106.57554125,24107.985577167,0,0.639445791999606
103,48,6,categorization,0,bathroom,SHINEd_sun_anhioqovhscjqqwb.tif,38,0.0666666666666667,0.0666666666666667,1.11666666666667,24108.005976708,24108.699026542,13,24108.073091583,24108.139321083,24108.730102292,24109.84015075,1,0.693049834000703
103,49,6,categorization,0,bathroom,SHINEd_sun_auzqhkafidnkrwmo.tif,54,0.0666666666666667,0.0666666666666667,1.8,24109.851617917,24110.595873458,13,24109.917990208,24109.984908167,24110.625313042,24112.418679667,1,0.744255541001621
103,50,6,categorization,0,kitchen,SHINEd_sun_abdxkyyxwfskuaqb.tif,70,0.0666666666666667,0.0666666666666667,1.25,24112.439669167,24112.884409333,9,24112.50677725,24112.573075167,24112.914147417,24114.157516875,1,0.444740165999974
103,1,7,categorization,0,kitchen,SHINEd_sun_agorklincwxrdtga.tif,87,0.0666666666666667,0.0666666666666667,0.883333333333333,24120.925666667,24121.718981708,9,24120.987715417,24121.048400458,24121.733486833,24122.610158875,1,0.793315040999005
103,2,7,categorization,0,kitchen,SHINEd_sun_aggjlwcdjsjcaemh.tif,86,0.0666666666666667,0.0666666666666667,1.03333333333333,24122.615056083,24123.3103825,9,24122.676764833,24122.737921083,24123.323239542,24124.349934333,1,0.695326417000615
103,3,7,categorization,0,bathroom,SHINEd_sun_aoybiabnpadelefl.tif,41,0.0666666666666667,0.0666666666666667,1.06666666666667,24124.359992417,24124.737316125,9,24124.424880875,24124.491459,24124.764735458,24125.824783583,0,0.377323707998585
103,4,7,categorization,0,kitchen,SHINEd_sun_aixorpehvfykdynp.tif,95,0.0666666666666667,0.0666666666666667,0.833333333333333,24125.842583208,24126.283298708,9,24125.909464375,24125.97534175,24126.297772583,24127.124444542,1,0.440715500000806
103,5,7,categorization,0,kitchen,SHINEd_sun_aunzlwrbjumxhwdj.tif,103,0.0666666666666667,0.0666666666666667,0.716666666666667,24127.129313708,24127.615385375,9,24127.191105292,24127.252059458,24127.62064975,24128.330654083,1,0.486071667000942
103,6,7,categorization,0,bathroom,SHINEd_sun_ahijqszoswveeyji.tif,28,0.0666666666666667,0.0666666666666667,0.733333333333333,24128.335201583,24128.854463958,9,24128.396828375,24128.457848167,24128.859740292,24129.58641225,0,0.519262375000835
103,7,7,categorization,0,bathroom,SHINEd_sun_acgyywnybuveqsro.tif,18,0.0666666666666667,0.0666666666666667,1.38333333333333,24129.590953542,24130.007085667,9,24129.652586958,24129.713547125,24130.015473333,24131.392182583,0,0.416132124999422
103,8,7,categorization,0,kitchen,SHINEd_labelme_brsyyvweiuaazfr.tif,61,0.0666666666666667,0.0666666666666667,0.9,24131.409739417,24132.080343542,9,24131.476480375,24131.542771875,24132.099008333,24132.992388583,1,0.670604124999954
103,9,7,categorization,0,kitchen,SHINEd_sun_aehawpgmrlhlvcow.tif,81,0.0666666666666667,0.0666666666666667,0.816666666666667,24133.004488083,24133.486740792,9,24133.068054625,24133.127603417,24133.496105542,24134.306110083,1,0.482252709000022
103,10,7,categorization,0,kitchen,SHINEd_sun_awcpdzzznmweyyhv.tif,106,0.0666666666666667,0.0666666666666667,0.85,24134.311102667,24135.030341292,9,24134.37278,24134.433968,24135.035895125,24135.879231833,1,0.71923862499898
103,11,7,categorization,0,kitchen,SHINEd_sun_aarfiyshqohlwkmo.tif,67,0.0666666666666667,0.0666666666666667,1.6,24135.884130583,24136.502634292,9,24135.94585025,24136.006853917,24136.50885675,24138.102220625,1,0.618503708999924
103,12,7,categorization,0,bathroom,SHINEd_sun_aqrpegblszgcoujh.tif,48,0.0666666666666667,0.0666666666666667,1.75,24138.116897042,24138.931250417,9,24138.180957042,24138.248261417,24138.953678542,24140.697059125,0,0.814353375000792
103,13,7,categorization,0,bathroom,SHINEd_sun_akiytfaagpdsphgz.tif,31,0.0666666666666667,0.0666666666666667,1.1,24140.716812292,24141.515683083,13,24140.783977167,24140.849730292,24141.539953708,24142.633324208,1,0.798870790997171
103,14,7,categorization,0,kitchen,SHINEd_sun_abdenxonkemggwsq.tif,69,0.0666666666666667,0.0666666666666667,1.46666666666667,24142.643962042,24143.234352333,9,24142.709082833,24142.777012958,24143.249721583,24144.709778417,1,0.590390290999494
103,15,7,categorization,0,kitchen,SHINEd_sun_abrcnpqqhmjwekyf.tif,73,0.0666666666666667,0.0666666666666667,1.25,24144.727173042,24145.378505333,13,24144.792344625,24144.86003475,24145.400376042,24146.643763042,0,0.651332290999562
103,16,7,categorization,0,bathroom,SHINEd_sun_atstyziqcmkahyxk.tif,51,0.0666666666666667,0.0666666666666667,1.13333333333333,24146.660540167,24147.151056167,9,24146.728208417,24146.7907485,24147.159225208,24148.285927875,0,0.490516000001662
103,17,7,categorization,0,kitchen,SHINEd_sun_aadbddgrdsjugojn.tif,64,0.0666666666666667,0.0666666666666667,1.33333333333333,24148.295961875,24148.788597625,13,24148.361068167,24148.42844175,24148.817971125,24150.144673625,0,0.492635750000773
103,18,7,categorization,0,bathroom,SHINEd_sun_alkosphxlxwjwgjd.tif,34,0.0666666666666667,0.0666666666666667,1.86666666666667,24150.16069575,24150.686791375,9,24150.223067667,24150.283319458,24150.70174825,24152.561785917,0,0.526095624998561
103,19,7,categorization,0,bathroom,SHINEd_sun_aljolscmmzydegqp.tif,33,0.0666666666666667,0.0666666666666667,1.58333333333333,24152.574790375,24153.2896685,9,24152.641762,24152.707584875,24153.314049167,24154.890765083,0,0.714878124999814
103,20,7,categorization,0,bathroom,SHINEd_sun_azqyogdvyhahyram.tif,60,0.0666666666666667,0.0666666666666667,1.05,24154.909813917,24155.457848292,9,24154.974186292,24155.042927833,24155.483304833,24156.526684333,0,0.548034375002317
103,21,7,categorization,0,kitchen,SHINEd_sun_acgtpgfybqjmzeyw.tif,75,0.0666666666666667,0.0666666666666667,0.9,24156.538600208,24157.137367375,9,24156.603802125,24156.669803583,24157.161113,24158.054485792,1,0.598767166997277
103,22,7,categorization,0,bathroom,SHINEd_labelme_sfxiulhjbhlyiyt.tif,11,0.0666666666666667,0.0666666666666667,0.7,24158.073379083,24158.536067875,13,24158.141149875,24158.206973833,24158.543053125,24159.236391875,1,0.462688791998517
103,23,7,categorization,0,bathroom,SHINEd_sun_axyrejkiiaqiurjk.tif,59,0.0666666666666667,0.0666666666666667,0.933333333333333,24159.241285708,24159.863210917,9,24159.302955917,24159.364002208,24159.882517083,24160.809188708,0,0.621925208997709
103,24,7,categorization,0,kitchen,SHINEd_sun_amjjdeyrggfqgmom.tif,100,0.0666666666666667,0.0666666666666667,1.95,24160.814251583,24161.319240375,9,24160.875949333,24160.936900125,24161.338645208,24163.282023292,1,0.504988791999494
103,25,7,categorization,0,kitchen,SHINEd_sun_axyyrmzcupyhlivc.tif,107,0.0666666666666667,0.0666666666666667,1.06666666666667,24163.295615542,24163.976412625,9,24163.362091958,24163.428346375,24164.001706875,24165.06173825,1,0.68079708300138
103,26,7,categorization,0,bathroom,SHINEd_sun_auzqhkafidnkrwmo.tif,54,0.0666666666666667,0.0666666666666667,1.2,24165.071942708,24165.529441917,9,24165.136302875,24165.202707375,24165.559133292,24166.752503792,0,0.457499208998343
103,27,7,categorization,0,bathroom,SHINEd_sun_amzlamotzwfkwjco.tif,37,0.0666666666666667,0.0666666666666667,0.75,24166.768856958,24167.446543125,9,24166.835947458,24166.902245,24167.454318167,24168.197654958,0,0.677686167000502
103,28,7,categorization,0,bathroom,SHINEd_sun_alotolagknyrgtsk.tif,35,0.0666666666666667,0.0666666666666667,0.816666666666667,24168.202591833,24168.702933917,9,24168.264206917,24168.325374875,24168.710553375,24169.520557958,0,0.500342084000295
103,29,7,categorization,0,bathroom,SHINEd_sun_abjtwfukuwddzted.tif,15,0.0666666666666667,0.0666666666666667,1.96666666666667,24169.525258542,24169.990524125,9,24169.586912667,24169.648009875,24169.999912708,24171.959965625,0,0.465265583003202
103,30,7,categorization,0,bathroom,SHINEd_sun_ahcvzmoyaycdoftf.tif,27,0.0666666666666667,0.0666666666666667,1.2,24171.978385375,24172.417781375,9,24172.044954375,24172.111460042,24172.433979792,24173.627361708,0,0.439395999997942
103,31,7,categorization,0,kitchen,SHINEd_sun_aegoxogugdkwpmpj.tif,80,0.0666666666666667,0.0666666666666667,0.883333333333333,24173.63884925,24174.332563625,9,24173.705966667,24173.771785,24174.361574917,24175.238285417,1,0.693714375000127
103,32,7,categorization,0,bathroom,SHINEd_sun_aghyqhbptboemmoq.tif,23,0.0666666666666667,0.0666666666666667,1.33333333333333,24175.254813125,24175.774178542,9,24175.32163725,24175.387901042,24175.78989,24177.116593208,0,0.51936541699979
103,33,7,categorization,0,kitchen,SHINEd_labelme_rykdqxenmhulbdn.tif,63,0.0666666666666667,0.0666666666666667,1.45,24177.134506708,24177.528831458,9,24177.201407708,24177.267061583,24177.55661675,24179.000005375,1,0.394324749999214
103,34,7,categorization,0,kitchen,SHINEd_sun_aaxxjlsuzvqlgylf.tif,68,0.0666666666666667,0.0666666666666667,1.15,24179.010267042,24179.457013,9,24179.076954083,24179.143161083,24179.4832035,24180.626591625,1,0.446745958000974
103,35,7,categorization,0,bathroom,SHINEd_sun_apmqjbnwghzuhhzh.tif,46,0.0666666666666667,0.0666666666666667,0.966666666666667,24180.6443705,24181.31118275,9,24180.710880542,24180.777209542,24181.329076667,24182.289081542,0,0.666812250001385
103,36,7,categorization,0,kitchen,SHINEd_labelme_kxvouciolcpqplr.tif,62,0.0666666666666667,0.0666666666666667,1.45,24182.293940125,24182.854322083,9,24182.355594958,24182.416608208,24182.868682583,24184.312059167,1,0.560381957999198
103,37,7,categorization,0,kitchen,SHINEd_sun_ahspylgoovwmwvgk.tif,93,0.0666666666666667,0.0666666666666667,0.8,24184.327344167,24185.002038083,9,24184.393882167,24184.460100083,24185.0139775,24185.807357458,1,0.674693916000251
103,38,7,categorization,0,bathroom,SHINEd_sun_asfwthctfqerjvxr.tif,49,0.0666666666666667,0.0666666666666667,1.45,24185.825856625,24186.343147417,9,24185.892942833,24185.955911667,24186.357856208,24187.801231958,0,0.517290791998676
103,39,7,categorization,0,bathroom,SHINEd_sun_axldvoqbuvuggfmq.tif,57,0.0666666666666667,0.0666666666666667,1.1,24187.811994208,24188.484602,9,24187.879370875,24187.944911333,24188.501278292,24189.594647417,0,0.672607791999326
103,40,7,categorization,0,kitchen,SHINEd_sun_acxkpeoqbwcxfvip.tif,77,0.0666666666666667,0.0666666666666667,1.16666666666667,24189.606956542,24190.21697525,9,24189.672318542,24189.739705417,24190.246563833,24191.406618333,1,0.610018708001007
103,41,7,categorization,0,kitchen,SHINEd_sun_ahljzhgcdpomplvg.tif,91,0.0666666666666667,0.0666666666666667,1.31666666666667,24191.425802125,24191.902241583,9,24191.492504917,24191.558617,24191.910575917,24193.220613667,1,0.476439458001551
103,42,7,categorization,0,bathroom,SHINEd_sun_aggnnqpdorgxpvce.tif,21,0.0666666666666667,0.0666666666666667,1.68333333333333,24193.238621708,24194.022221583,9,24193.305120042,24193.371839,24194.044307958,24195.721019333,0,0.783599875001528
103,43,7,categorization,0,bathroom,SHINEd_sun_ausgutylgojavyoq.tif,53,0.0666666666666667,0.0666666666666667,0.966666666666667,24195.739257625,24196.601461333,13,24195.806682833,24195.872656833,24196.629820542,24197.589824208,1,0.862203708002198
103,44,7,categorization,0,bathroom,SHINEd_sun_apkxzenqapsujocq.tif,45,0.0666666666666667,0.0666666666666667,1.4,24197.59498875,24198.430843167,13,24197.6567135,24197.717833542,24198.436291542,24199.829662583,1,0.835854417000519
103,45,7,categorization,0,bathroom,SHINEd_sun_ajlawzvmubibwbpy.tif,30,0.0666666666666667,0.0666666666666667,0.783333333333333,24199.847907583,24200.591881208,9,24199.914518708,24199.980780833,24200.620784167,24201.397489333,0,0.743973625001672
103,46,7,categorization,0,bathroom,SHINEd_sun_abapwbhyhkfixyex.tif,14,0.0666666666666667,0.0666666666666667,1.08333333333333,24201.413847875,24202.038167,9,24201.4808625,24201.546642417,24202.049099333,24203.125818625,0,0.624319124999602
103,47,7,categorization,0,kitchen,SHINEd_sun_ajcbwwvdlsvjyzje.tif,96,0.0666666666666667,0.0666666666666667,1.43333333333333,24203.136830375,24203.769041583,9,24203.201322667,24203.268599208,24203.792772792,24205.21949475,1,0.632211208001536
103,48,7,categorization,0,bathroom,SHINEd_sun_aunuadmjocsddsrl.tif,52,0.0666666666666667,0.0666666666666667,1.75,24205.234617708,24205.953807292,9,24205.301896708,24205.367545458,24205.97377875,24207.717163292,0,0.71918958400056
103,49,7,categorization,0,bathroom,SHINEd_sun_ahaulkltgpkeeemi.tif,26,0.0666666666666667,0.0666666666666667,1.21666666666667,24207.734958208,24208.202795792,9,24207.80152725,24207.86832,24208.224906167,24209.434968,0,0.467837584001245
103,50,7,categorization,0,bathroom,SHINEd_sun_aleqenyvunhactkl.tif,32,0.0666666666666667,0.0666666666666667,1.31666666666667,24209.445147292,24210.251726792,9,24209.512146,24209.578145875,24210.266940542,24211.576979208,0,0.806579500000225
103,1,8,categorization,0,bathroom,SHINEd_sun_axxbkopsgyouuebh.tif,58,0.0666666666666667,0.0666666666666667,1.18333333333333,24216.975501542,24217.774452167,13,24217.038198667,24217.098044333,24217.783245333,24218.959946583,1,0.798950624997815
103,2,8,categorization,0,kitchen,SHINEd_sun_aexklacwqwezaorf.tif,84,0.0666666666666667,0.0666666666666667,0.983333333333333,24218.96930575,24219.561152167,9,24219.034239458,24219.101819625,24219.573685792,24220.550391667,1,0.591846416999033
103,3,8,categorization,0,kitchen,SHINEd_sun_aenotlpyftoioydp.tif,82,0.0666666666666667,0.0666666666666667,1.65,24220.566818,24221.134071333,13,24220.633489125,24220.699603083,24221.151508958,24222.794874875,0,0.567253332999826
103,4,8,categorization,0,bathroom,SHINEd_sun_acduarbnmmoglmiv.tif,16,0.0666666666666667,0.0666666666666667,1.23333333333333,24222.811466917,24223.279771042,9,24222.878171792,24222.942693542,24223.298997958,24224.525717542,0,0.46830412500276
103,5,8,categorization,0,bathroom,SHINEd_sun_avhrdrntsqrjzccq.tif,55,0.0666666666666667,0.0666666666666667,0.916666666666667,24224.544238,24225.363577958,9,24224.610639792,24224.675698042,24225.381907042,24226.291954042,0,0.819339958001365
103,6,8,categorization,0,kitchen,SHINEd_sun_agubuxuukhzyzpdp.tif,88,0.0666666666666667,0.0666666666666667,1.56666666666667,24226.308388125,24227.134700542,9,24226.375280917,24226.433378875,24227.15196475,24228.712010208,1,0.826312417000736
103,7,8,categorization,0,bathroom,SHINEd_sun_aapitsgbtktqubfy.tif,12,0.0666666666666667,0.0666666666666667,1.63333333333333,24228.730947708,24229.452147292,13,24228.798000375,24228.863750375,24229.469568292,24231.096282375,1,0.721199583997077
103,8,8,categorization,0,bathroom,SHINEd_sun_anhioqovhscjqqwb.tif,38,0.0666666666666667,0.0666666666666667,1.1,24231.114528333,24231.814389958,9,24231.18074875,24231.247331125,24231.837388042,24232.930761042,0,0.699861624998448
103,9,8,categorization,0,kitchen,SHINEd_sun_avszsnwsbuqfgzbn.tif,105,0.0666666666666667,0.0666666666666667,1.38333333333333,24232.940570292,24233.818330917,9,24233.005784625,24233.072024875,24233.845349542,24235.222072292,1,0.877760625000519
103,10,8,categorization,0,kitchen,SHINEd_sun_akcjzhbbjlbogpdi.tif,99,0.0666666666666667,0.0666666666666667,0.766666666666667,24235.242289042,24236.053851583,9,24235.309016583,24235.375191208,24236.082276958,24236.842330417,1,0.811562541002786
103,11,8,categorization,0,kitchen,SHINEd_sun_aapllqyqlykszopd.tif,66,0.0666666666666667,0.0666666666666667,1.45,24236.857394583,24237.614124125,13,24236.923985667,24236.983367167,24237.618473375,24239.061842333,0,0.756729542001267
103,12,8,categorization,0,kitchen,SHINEd_sun_auaiucuqpdausiva.tif,102,0.0666666666666667,0.0666666666666667,0.983333333333333,24239.077697708,24239.617863875,9,24239.144420375,24239.210651167,24239.632765292,24240.609477167,1,0.54016616700028
103,13,8,categorization,0,kitchen,SHINEd_sun_aqeaevwwwjoqhzvl.tif,101,0.0666666666666667,0.0666666666666667,0.716666666666667,24240.626284208,24241.230223542,9,24240.693033542,24240.757183042,24241.242080875,24241.952084708,1,0.603939333999733
103,14,8,categorization,0,kitchen,SHINEd_sun_agzzivivdpnawacl.tif,89,0.0666666666666667,0.0666666666666667,1.41666666666667,24241.957092292,24242.646749,9,24242.018907167,24242.079752958,24242.664865083,24244.074906625,1,0.689656708000257
103,15,8,categorization,0,kitchen,SHINEd_sun_ajkqhtgcbgpcwrwn.tif,97,0.0666666666666667,0.0666666666666667,1.21666666666667,24244.092728792,24244.670699792,9,24244.159524458,24244.225452333,24244.698830208,24245.908882208,1,0.577971000002435
103,16,8,categorization,0,kitchen,SHINEd_sun_admlmbcdswaszruo.tif,79,0.0666666666666667,0.0666666666666667,1.61666666666667,24245.925235667,24246.472498833,9,24245.992232042,24246.058080333,24246.498301875,24248.1083335,1,0.547263166001358
103,17,8,categorization,0,bathroom,SHINEd_sun_awnqiikzaispgmwo.tif,56,0.0666666666666667,0.0666666666666667,0.783333333333333,24248.125885333,24248.709677167,9,24248.192355125,24248.25843325,24248.731602833,24249.508300958,0,0.583791834000294
103,18,8,categorization,0,kitchen,SHINEd_sun_adgqasybjyktddhj.tif,78,0.0666666666666667,0.0666666666666667,1.98333333333333,24249.525498417,24250.047316333,9,24249.592508333,24249.658329792,24250.06434725,24252.041059417,1,0.521817916000145
103,19,8,categorization,0,bathroom,SHINEd_sun_agrwbmhcpmfuwmsg.tif,24,0.0666666666666667,0.0666666666666667,0.983333333333333,24252.059689833,24252.560245458,9,24252.126715875,24252.1927425,24252.583503833,24253.560174875,0,0.500555624999834
103,20,8,categorization,0,bathroom,SHINEd_sun_aavhrsfjbserjtht.tif,13,0.0666666666666667,0.0666666666666667,0.8,24253.565254333,24255.046663375,9,24253.627044667,24253.688063583,24255.056972792,24255.850310667,0,1.48140904200045
103,21,8,categorization,0,kitchen,SHINEd_sun_abpwyqmlzafvklqo.tif,72,0.0666666666666667,0.0666666666666667,0.733333333333333,24255.857093958,24256.438337417,9,24255.91889225,24255.979857667,24256.448327917,24257.175000292,1,0.581243459000689
103,22,8,categorization,0,kitchen,SHINEd_sun_aypmqwcualkenuoe.tif,109,0.0666666666666667,0.0666666666666667,0.966666666666667,24257.179992083,24257.830434833,9,24257.241811,24257.302666667,24257.837813,24258.797816458,1,0.650442749996728
103,23,8,categorization,0,bathroom,SHINEd_sun_afcoljnjfoxjtgja.tif,20,0.0666666666666667,0.0666666666666667,0.866666666666667,24258.802629583,24259.222244292,9,24258.864335708,24258.925203333,24259.226836917,24260.086842,0,0.419614709000598
103,24,8,categorization,0,kitchen,SHINEd_sun_aamedkxepzlwuxes.tif,65,0.0666666666666667,0.0666666666666667,1.23333333333333,24260.092061875,24260.42987975,9,24260.15371,24260.214662625,24260.432988625,24261.659697083,1,0.337817875002656
103,25,8,categorization,0,kitchen,SHINEd_sun_abftihopvusyfakt.tif,71,0.0666666666666667,0.0666666666666667,1.9,24261.676478333,24262.07143025,9,24261.743380625,24261.809305667,24262.098935083,24263.992304875,1,0.394951916998252
103,26,8,categorization,0,kitchen,SHINEd_sun_aymvwlarqodbwuoc.tif,108,0.0666666666666667,0.0666666666666667,0.866666666666667,24264.011220417,24264.422042125,9,24264.077944375,24264.143781792,24264.450316542,24265.310371125,1,0.410821707999276
103,27,8,categorization,0,bathroom,SHINEd_sun_anryaplzeujmzfkd.tif,39,0.0666666666666667,0.0666666666666667,0.966666666666667,24265.326236917,24265.774314833,9,24265.393101417,24265.459128167,24265.778081583,24266.738085792,0,0.448077916000329
103,28,8,categorization,0,kitchen,SHINEd_sun_ahywdevtimnqcsln.tif,94,0.0666666666666667,0.0666666666666667,0.916666666666667,24266.74302275,24267.286821458,9,24266.804776792,24266.865676417,24267.300818833,24268.210822792,1,0.543798708000395
103,29,8,categorization,0,bathroom,SHINEd_sun_acegryoqftbzowsg.tif,17,0.0666666666666667,0.0666666666666667,0.916666666666667,24268.215661708,24268.598324083,9,24268.277378625,24268.338290917,24268.606738125,24269.516743417,0,0.3826623749992
103,30,8,categorization,0,kitchen,SHINEd_sun_akchetnepxlcxhsu.tif,98,0.0666666666666667,0.0666666666666667,1.4,24269.521335583,24270.294533292,13,24269.583090042,24269.643950917,24270.312520542,24271.70589925,0,0.773197709000669
103,31,8,categorization,0,kitchen,SHINEd_sun_acwjdupvyjsugpay.tif,76,0.0666666666666667,0.0666666666666667,1.75,24271.720872333,24273.02676175,9,24271.788625417,24271.853648458,24273.042169,24274.78555175,1,1.30588941699898
103,32,8,categorization,0,bathroom,SHINEd_sun_apeeialkgkuxddgh.tif,42,0.0666666666666667,0.0666666666666667,1.25,24274.803988167,24275.541820833,13,24274.870650333,24274.935509375,24275.558090083,24276.80147825,1,0.737832666000031
103,33,8,categorization,0,kitchen,SHINEd_sun_acfmftudsenhrfhy.tif,74,0.0666666666666667,0.0666666666666667,1.05,24276.819702125,24277.523852792,9,24276.886330833,24276.949058542,24277.538586792,24278.581976583,1,0.70415066699934
103,34,8,categorization,0,kitchen,SHINEd_sun_abdxkyyxwfskuaqb.tif,70,0.0666666666666667,0.0666666666666667,1.06666666666667,24278.600653292,24279.254083333,9,24278.66325825,24278.723463083,24279.258575292,24280.318630542,1,0.653430040998501
103,35,8,categorization,0,bathroom,SHINEd_sun_apkruvsevgegsdwp.tif,44,0.0666666666666667,0.0666666666666667,1.21666666666667,24280.328312542,24280.9921585,9,24280.392687625,24280.456695292,24281.011720583,24282.221757417,0,0.663845958002639
103,36,8,categorization,0,bathroom,SHINEd_sun_apjevzvycyhuqghb.tif,43,0.0666666666666667,0.0666666666666667,0.95,24282.2421995,24283.38242075,9,24282.304871,24282.364953917,24283.400491167,24284.343828458,0,1.14022124999974
103,37,8,categorization,0,bathroom,SHINEd_sun_agyqfjcfkdcydepw.tif,25,0.0666666666666667,0.0666666666666667,0.9,24284.348365458,24285.134336333,9,24284.410073292,24284.471167958,24285.139601542,24286.032938667,0,0.785970875000203
103,38,8,categorization,0,kitchen,SHINEd_sun_afuyedyxivkhecmu.tif,85,0.0666666666666667,0.0666666666666667,1.78333333333333,24286.037760542,24286.582036958,9,24286.099394458,24286.160392,24286.595612792,24288.372318875,1,0.544276415999775
103,39,8,categorization,0,bathroom,SHINEd_sun_aofnryafpsjimzsb.tif,40,0.0666666666666667,0.0666666666666667,1.16666666666667,24288.392008417,24289.000609125,9,24288.458920458,24288.524846708,24289.012742,24290.172777667,0,0.608600708001177
103,40,8,categorization,0,bathroom,SHINEd_sun_aspsyogrekjtfozg.tif,50,0.0666666666666667,0.0666666666666667,0.783333333333333,24290.183303458,24291.162085875,13,24290.250141667,24290.316205,24291.189564292,24291.966269417,1,0.978782416998001
103,41,8,categorization,0,bathroom,SHINEd_sun_aclfzgynxzxlbepz.tif,19,0.0666666666666667,0.0666666666666667,1.23333333333333,24291.980080042,24292.589965583,9,24292.047079458,24292.10904175,24292.594266167,24293.820974417,0,0.609885540998221
103,42,8,categorization,0,bathroom,SHINEd_sun_ambriybtogmepttm.tif,36,0.0666666666666667,0.0666666666666667,0.9,24293.839351292,24294.39012825,9,24293.905862167,24293.972386208,24294.412400875,24295.305781583,0,0.550776957999915
103,43,8,categorization,0,kitchen,SHINEd_sun_aeqdocilnnpuvuhx.tif,83,0.0666666666666667,0.0666666666666667,0.7,24295.322895167,24295.933917833,9,24295.390080042,24295.455506167,24295.941509667,24296.634848917,1,0.6110226660021
103,44,8,categorization,0,bathroom,SHINEd_sun_agguqiubmwhqqunb.tif,22,0.0666666666666667,0.0666666666666667,1.23333333333333,24296.640009333,24297.238534792,9,24296.701689458,24296.7627045,24297.24781775,24298.474539625,0,0.598525458997756
103,45,8,categorization,0,bathroom,SHINEd_sun_apynckhmoftszqoq.tif,47,0.0666666666666667,0.0666666666666667,1,24298.492272292,24298.973732417,9,24298.55941325,24298.625361208,24298.997464833,24299.990831167,0,0.481460125000012
103,46,8,categorization,0,bathroom,SHINEd_sun_ahqjwnzgolcaoidx.tif,29,0.0666666666666667,0.0666666666666667,1.38333333333333,24300.008464958,24300.534454792,13,24300.074697417,24300.140830833,24300.543045875,24301.919762917,1,0.525989834000939
103,47,8,categorization,0,kitchen,SHINEd_sun_azmutvzbxypaceni.tif,110,0.0666666666666667,0.0666666666666667,1.3,24301.938237,24302.425947125,9,24302.004609625,24302.07122375,24302.444054667,24303.737436792,1,0.487710125002195
103,48,8,categorization,0,kitchen,SHINEd_sun_ahdycvpopffkzzsu.tif,90,0.0666666666666667,0.0666666666666667,0.833333333333333,24303.755754417,24304.191144583,9,24303.822847125,24303.888814458,24304.211950625,24305.038657125,1,0.435390165999706
103,49,8,categorization,0,kitchen,SHINEd_sun_ahpczsiumwwocjkv.tif,92,0.0666666666666667,0.0666666666666667,0.95,24305.055237875,24305.806575792,9,24305.122021667,24305.187892792,24305.823656167,24306.766993375,1,0.751337917001365
103,50,8,categorization,0,kitchen,SHINEd_sun_auticobqsbwgoppi.tif,104,0.0666666666666667,0.0666666666666667,1.43333333333333,24306.772918625,24307.65400775,9,24306.834641917,24306.895639667,24307.664205083,24309.090921917,1,0.881089124999562
103,1,9,categorization,0,bathroom,SHINEd_sun_alkosphxlxwjwgjd.tif,34,0.0666666666666667,0.0666666666666667,1.08333333333333,24314.214418417,24314.910424042,13,24314.276291125,24314.337139792,24314.922654833,24315.9993705,1,0.696005624999088
