sub_num,trial,block,task,is_practice,category,image,texture,duration,mask_dur,jitter,stim_time,time_of_resp,trial_response,mask_time,fix_time,jit_onset,trial_end,trial_accuracy,RT
103,1,6,categorization,0,bathroom,SHINEd_sun_abapwbhyhkfixyex.tif,14,0.0666666666666667,0.0666666666666667,0.966666666666667,24012.388059833,24013.535216042,13,24012.450148,24012.510998,24013.54617875,24014.506184,1,1.14715620900097
103,2,6,categorization,0,bathroom,SHINEd_sun_apkxzenqapsujocq.tif,45,0.0666666666666667,0.0666666666666667,1.73333333333333,24014.510741042,24015.191688167,13,24014.572695375,24014.633342917,24015.201769625,24016.928470167,1,0.680947125001694
103,3,6,categorization,0,kitchen,SHINEd_sun_aegoxogugdkwpmpj.tif,80,0.0666666666666667,0.0666666666666667,1.91666666666667,24016.944223458,24017.628921167,13,24017.011126917,24017.076924208,24017.649994875,24019.5600275,0,0.684697709002648
103,4,6,categorization,0,kitchen,SHINEd_sun_avszsnwsbuqfgzbn.tif,105,0.0666666666666667,0.0666666666666667,0.766666666666667,24019.572493208,24020.416380958,9,24019.638851208,24019.705224458,24020.445070042,24021.205075958,1,0.843887749997521
103,5,6,categorization,0,kitchen,SHINEd_sun_aeqdocilnnpuvuhx.tif,83,0.0666666666666667,0.0666666666666667,0.916666666666667,24021.209859542,24021.991692708,9,24021.271572125,24021.332630083,24022.000973875,24022.910979542,1,0.781833166001888
103,6,6,categorization,0,kitchen,SHINEd_sun_aggjlwcdjsjcaemh.tif,86,0.0666666666666667,0.0666666666666667,1.18333333333333,24022.915980667,24023.479727458,9,24022.977698167,24023.038719833,24023.490486042,24024.667190542,1,0.563746791001904
103,7,6,categorization,0,bathroom,SHINEd_sun_ahcvzmoyaycdoftf.tif,27,0.0666666666666667,0.0666666666666667,1.8,24024.679766333,24025.315522875,9,24024.746554625,24024.812412,24025.335332792,24027.128698583,0,0.635756542000308
103,8,6,categorization,0,bathroom,SHINEd_sun_ajlawzvmubibwbpy.tif,30,0.0666666666666667,0.0666666666666667,0.883333333333333,24027.144801292,24027.92163875,13,24027.213063625,24027.277553,24027.9509845,24028.827655917,1,0.776837457997317
103,9,6,categorization,0,kitchen,SHINEd_sun_ajcbwwvdlsvjyzje.tif,96,0.0666666666666667,0.0666666666666667,1.83333333333333,24028.832793292,24029.463266125,13,24028.894400417,24028.955407917,24029.473771708,24031.30048925,0,0.630472832999658
103,10,6,categorization,0,bathroom,SHINEd_sun_ahqjwnzgolcaoidx.tif,29,0.0666666666666667,0.0666666666666667,1.76666666666667,24031.313961083,24031.87857925,9,24031.380760708,24031.446770083,24031.903124875,24033.663155583,0,0.564618166998116
103,11,6,categorization,0,kitchen,SHINEd_sun_aamedkxepzlwuxes.tif,65,0.0666666666666667,0.0666666666666667,0.983333333333333,24033.676927083,24034.167551417,13,24033.743019125,24033.809473083,24034.182133208,24035.158804583,0,0.490624333997403
103,12,6,categorization,0,bathroom,SHINEd_sun_aclfzgynxzxlbepz.tif,19,0.0666666666666667,0.0666666666666667,0.883333333333333,24035.163827083,24035.703713875,9,24035.225584667,24035.28670325,24035.721804583,24036.5984765,0,0.53988679199756
103,13,6,categorization,0,bathroom,SHINEd_sun_amzlamotzwfkwjco.tif,37,0.0666666666666667,0.0666666666666667,0.85,24036.603319083,24037.071330292,13,24036.665076333,24036.72597975,24037.077832917,24037.921169833,1,0.468011209002725
103,14,6,categorization,0,bathroom,SHINEd_sun_aoybiabnpadelefl.tif,41,0.0666666666666667,0.0666666666666667,0.733333333333333,24037.925835458,24038.431185958,13,24037.987436083,24038.048607792,24038.4502725,24039.176944917,1,0.505350499999622
103,15,6,categorization,0,kitchen,SHINEd_sun_aqeaevwwwjoqhzvl.tif,101,0.0666666666666667,0.0666666666666667,1.88333333333333,24039.181371958,24039.607348583,9,24039.243011375,24039.304057625,24039.622560542,24041.499279958,1,0.425976624999748
103,16,6,categorization,0,kitchen,SHINEd_sun_akchetnepxlcxhsu.tif,98,0.0666666666666667,0.0666666666666667,0.816666666666667,24041.516335083,24041.959786083,13,24041.582985958,24041.649000333,24041.988820875,24042.798826333,0,0.443450999999186
103,17,6,categorization,0,bathroom,SHINEd_sun_apynckhmoftszqoq.tif,47,0.0666666666666667,0.0666666666666667,1.9,24042.8039575,24043.342971833,13,24042.865632542,24042.926593167,24043.361725708,24045.255105083,1,0.539014333000523
103,18,6,categorization,0,kitchen,SHINEd_sun_admlmbcdswaszruo.tif,79,0.0666666666666667,0.0666666666666667,0.983333333333333,24045.274013625,24045.835364208,9,24045.34071975,24045.406981792,24045.863724167,24046.840395917,1,0.561350583000603
103,19,6,categorization,0,kitchen,SHINEd_sun_auticobqsbwgoppi.tif,104,0.0666666666666667,0.0666666666666667,0.75,24046.845452958,24047.343119583,13,24046.907103375,24046.968206333,24047.353259,24048.096597708,0,0.49766662500042
103,20,6,categorization,0,bathroom,SHINEd_sun_agguqiubmwhqqunb.tif,22,0.0666666666666667,0.0666666666666667,1.6,24048.101566458,24048.695682125,13,24048.163179833,24048.224242667,24048.709356542,24050.302745583,1,0.594115666997823
103,21,6,categorization,0,bathroom,SHINEd_sun_axyrejkiiaqiurjk.tif,59,0.0666666666666667,0.0666666666666667,1.58333333333333,24050.319143958,24050.817484625,9,24050.386081,24050.451870458,24050.8417335,24052.418459167,0,0.498340666999866
103,22,6,categorization,0,kitchen,SHINEd_sun_agorklincwxrdtga.tif,87,0.0666666666666667,0.0666666666666667,1.11666666666667,24052.436898875,24053.319483458,9,24052.5031065,24052.56973125,24053.343036875,24054.453078458,1,0.882584582999698
103,23,6,categorization,0,bathroom,SHINEd_sun_acduarbnmmoglmiv.tif,16,0.0666666666666667,0.0666666666666667,1.53333333333333,24054.463604042,24056.063349042,9,24054.528128917,24054.596457375,24056.0887065,24057.615416083,0,1.59974499999953
103,24,6,categorization,0,kitchen,SHINEd_sun_ahljzhgcdpomplvg.tif,91,0.0666666666666667,0.0666666666666667,1.48333333333333,24057.633317292,24058.452659583,13,24057.7002375,24057.76611275,24058.473181708,24059.949906958,0,0.819342291000794
103,25,6,categorization,0,bathroom,SHINEd_sun_alotolagknyrgtsk.tif,35,0.0666666666666667,0.0666666666666667,1.1,24059.968183417,24061.242362667,9,24060.034865083,24060.101030917,24061.259318542,24062.352694083,0,1.27417924999827
103,26,6,categorization,0,kitchen,SHINEd_sun_aunzlwrbjumxhwdj.tif,103,0.0666666666666667,0.0666666666666667,0.933333333333333,24062.362091667,24063.268353333,9,24062.427406208,24062.494982,24063.284771375,24064.211476583,1,0.90626166599759
103,27,6,categorization,0,bathroom,SHINEd_sun_anryaplzeujmzfkd.tif,39,0.0666666666666667,0.0666666666666667,0.816666666666667,24064.222162458,24065.094987875,13,24064.288891417,24064.355323917,24065.107255083,24065.917258708,1,0.872825416998239
103,28,6,categorization,0,bathroom,SHINEd_sun_aljolscmmzydegqp.tif,33,0.0666666666666667,0.0666666666666667,1.78333333333333,24065.92227425,24066.703590792,13,24065.984083042,24066.045000042,24066.713508417,24068.49022225,1,0.78131654200115
103,29,6,categorization,0,bathroom,SHINEd_sun_ausgutylgojavyoq.tif,53,0.0666666666666667,0.0666666666666667,0.766666666666667,24068.50963575,24069.344246625,13,24068.57658375,24068.642357083,24069.365652042,24070.125655667,1,0.83461087500109
103,30,6,categorization,0,kitchen,SHINEd_sun_aadbddgrdsjugojn.tif,64,0.0666666666666667,0.0666666666666667,1.45,24070.130686542,24070.815541417,9,24070.192499583,24070.253491708,24070.822032875,24072.265400125,1,0.684854874998564
103,31,6,categorization,0,kitchen,SHINEd_sun_aypmqwcualkenuoe.tif,109,0.0666666666666667,0.0666666666666667,0.75,24072.283422167,24073.440711042,9,24072.350247417,24072.416536625,24073.455879333,24074.199218583,1,1.15728887500154
103,32,6,categorization,0,bathroom,SHINEd_sun_alkosphxlxwjwgjd.tif,34,0.0666666666666667,0.0666666666666667,1.36666666666667,24074.204023,24075.046569625,9,24074.265784708,24074.3266865,24075.061873667,24076.421925833,0,0.842546625000978
103,33,6,categorization,0,kitchen,SHINEd_sun_ahdycvpopffkzzsu.tif,90,0.0666666666666667,0.0666666666666667,0.75,24076.440244958,24077.401613375,9,24076.5070105,24076.573280417,24077.429520583,24078.17285975,1,0.961368416999903
103,34,6,categorization,0,kitchen,SHINEd_sun_aixorpehvfykdynp.tif,95,0.0666666666666667,0.0666666666666667,0.783333333333333,24078.177946833,24079.087507042,9,24078.23961375,24078.30062775,24079.102289542,24079.878960958,1,0.909560209001938
103,35,6,categorization,0,bathroom,SHINEd_sun_aleqenyvunhactkl.tif,32,0.0666666666666667,0.0666666666666667,1.11666666666667,24079.884135625,24080.838748042,9,24079.945936917,24080.006833583,24080.841752208,24081.951807917,0,0.954612416997406
103,36,6,categorization,0,kitchen,SHINEd_sun_awcpdzzznmweyyhv.tif,106,0.0666666666666667,0.0666666666666667,0.766666666666667,24081.96134925,24082.858112375,9,24082.02617425,24082.094762458,24082.884188708,24083.644236458,1,0.896763125001598
103,37,6,categorization,0,kitchen,SHINEd_sun_acgtpgfybqjmzeyw.tif,75,0.0666666666666667,0.0666666666666667,0.716666666666667,24083.660217458,24084.53525825,9,24083.727024667,24083.7934165,24084.545362417,24085.255366042,1,0.875040792001528
103,38,6,categorization,0,kitchen,SHINEd_sun_amjjdeyrggfqgmom.tif,100,0.0666666666666667,0.0666666666666667,1.33333333333333,24085.260353625,24085.99911575,9,24085.322040375,24085.38305725,24086.018241167,24087.34494775,1,0.738762125001813
103,39,6,categorization,0,bathroom,SHINEd_sun_acgyywnybuveqsro.tif,18,0.0666666666666667,0.0666666666666667,1.75,24087.358012375,24087.936305583,9,24087.424756625,24087.490901,24087.963929833,24089.70730775,0,0.578293208000105
103,40,6,categorization,0,bathroom,SHINEd_sun_apmqjbnwghzuhhzh.tif,46,0.0666666666666667,0.0666666666666667,1.13333333333333,24089.726059208,24090.439492708,13,24089.793033042,24089.859273333,24090.465532792,24091.592254583,1,0.713433500000974
103,41,6,categorization,0,kitchen,SHINEd_sun_aymvwlarqodbwuoc.tif,108,0.0666666666666667,0.0666666666666667,1.63333333333333,24091.601986667,24092.30053,9,24091.667134833,24091.73557625,24092.3259235,24093.952640042,1,0.698543333000998
103,42,6,categorization,0,kitchen,SHINEd_sun_abpwyqmlzafvklqo.tif,72,0.0666666666666667,0.0666666666666667,1.43333333333333,24093.971141833,24094.694896417,9,24094.038224,24094.103823792,24094.708274333,24096.134994875,1,0.723754583999835
103,43,6,categorization,0,kitchen,SHINEd_sun_abdenxonkemggwsq.tif,69,0.0666666666666667,0.0666666666666667,1.83333333333333,24096.153611875,24096.785290875,9,24096.221614958,24096.286228125,24096.808938833,24098.635640542,1,0.631678999998257
103,44,6,categorization,0,bathroom,SHINEd_sun_axxbkopsgyouuebh.tif,58,0.0666666666666667,0.0666666666666667,1.93333333333333,24098.656760167,24099.504331042,9,24098.724107458,24098.790387833,24099.531420833,24101.45812575,0,0.847570875001111
103,45,6,categorization,0,bathroom,SHINEd_sun_ambriybtogmepttm.tif,36,0.0666666666666667,0.0666666666666667,1.26666666666667,24101.478119583,24102.099200125,9,24101.545707583,24101.61171025,24102.119724875,24103.379770583,0,0.621080542001437
103,46,6,categorization,0,bathroom,SHINEd_sun_aavhrsfjbserjtht.tif,13,0.0666666666666667,0.0666666666666667,1.86666666666667,24103.400178958,24104.023414708,9,24103.468060833,24103.533415792,24104.039756417,24105.899810583,0,0.623235750001186
103,47,6,categorization,0,bathroom,SHINEd_sun_apkruvsevgegsdwp.tif,44,0.0666666666666667,0.0666666666666667,1.41666666666667,24105.91932,24106.558765792,9,24105.986805333,24106.052408292,24106.57554125,24107.985577167,0,0.639445791999606
103,48,6,categorization,0,bathroom,SHINEd_sun_anhioqovhscjqqwb.tif,38,0.0666666666666667,0.0666666666666667,1.11666666666667,24108.005976708,24108.699026542,13,24108.073091583,24108.139321083,24108.730102292,24109.84015075,1,0.693049834000703
103,49,6,categorization,0,bathroom,SHINEd_sun_auzqhkafidnkrwmo.tif,54,0.0666666666666667,0.0666666666666667,1.8,24109.851617917,24110.595873458,13,24109.917990208,24109.984908167,24110.625313042,24112.418679667,1,0.744255541001621
103,50,6,categorization,0,kitchen,SHINEd_sun_abdxkyyxwfskuaqb.tif,70,0.0666666666666667,0.0666666666666667,1.25,24112.439669167,24112.884409333,9,24112.50677725,24112.573075167,24112.914147417,24114.157516875,1,0.444740165999974
