sub_num,trial,block,task,is_practice,category,image,texture,duration,mask_dur,jitter,stim_time,time_of_resp,trial_response,mask_time,fix_time,jit_onset,trial_end,trial_accuracy,RT
103,1,8,categorization,0,bathroom,SHINEd_sun_axxbkopsgyouuebh.tif,58,0.0666666666666667,0.0666666666666667,1.18333333333333,24216.975501542,24217.774452167,13,24217.038198667,24217.098044333,24217.783245333,24218.959946583,1,0.798950624997815
103,2,8,categorization,0,kitchen,SHINEd_sun_aexklacwqwezaorf.tif,84,0.0666666666666667,0.0666666666666667,0.983333333333333,24218.96930575,24219.561152167,9,24219.034239458,24219.101819625,24219.573685792,24220.550391667,1,0.591846416999033
103,3,8,categorization,0,kitchen,SHINEd_sun_aenotlpyftoioydp.tif,82,0.0666666666666667,0.0666666666666667,1.65,24220.566818,24221.134071333,13,24220.633489125,24220.699603083,24221.151508958,24222.794874875,0,0.567253332999826
103,4,8,categorization,0,bathroom,SHINEd_sun_acduarbnmmoglmiv.tif,16,0.0666666666666667,0.0666666666666667,1.23333333333333,24222.811466917,24223.279771042,9,24222.878171792,24222.942693542,24223.298997958,24224.525717542,0,0.46830412500276
103,5,8,categorization,0,bathroom,SHINEd_sun_avhrdrntsqrjzccq.tif,55,0.0666666666666667,0.0666666666666667,0.916666666666667,24224.544238,24225.363577958,9,24224.610639792,24224.675698042,24225.381907042,24226.291954042,0,0.819339958001365
103,6,8,categorization,0,kitchen,SHINEd_sun_agubuxuukhzyzpdp.tif,88,0.0666666666666667,0.0666666666666667,1.56666666666667,24226.308388125,24227.134700542,9,24226.375280917,24226.433378875,24227.15196475,24228.712010208,1,0.826312417000736
103,7,8,categorization,0,bathroom,SHINEd_sun_aapitsgbtktqubfy.tif,12,0.0666666666666667,0.0666666666666667,1.63333333333333,24228.730947708,24229.452147292,13,24228.798000375,24228.863750375,24229.469568292,24231.096282375,1,0.721199583997077
103,8,8,categorization,0,bathroom,SHINEd_sun_anhioqovhscjqqwb.tif,38,0.0666666666666667,0.0666666666666667,1.1,24231.114528333,24231.814389958,9,24231.18074875,24231.247331125,24231.837388042,24232.930761042,0,0.699861624998448
103,9,8,categorization,0,kitchen,SHINEd_sun_avszsnwsbuqfgzbn.tif,105,0.0666666666666667,0.0666666666666667,1.38333333333333,24232.940570292,24233.818330917,9,24233.005784625,24233.072024875,24233.845349542,24235.222072292,1,0.877760625000519
103,10,8,categorization,0,kitchen,SHINEd_sun_akcjzhbbjlbogpdi.tif,99,0.0666666666666667,0.0666666666666667,0.766666666666667,24235.242289042,24236.053851583,9,24235.309016583,24235.375191208,24236.082276958,24236.842330417,1,0.811562541002786
103,11,8,categorization,0,kitchen,SHINEd_sun_aapllqyqlykszopd.tif,66,0.0666666666666667,0.0666666666666667,1.45,24236.857394583,24237.614124125,13,24236.923985667,24236.983367167,24237.618473375,24239.061842333,0,0.756729542001267
103,12,8,categorization,0,kitchen,SHINEd_sun_auaiucuqpdausiva.tif,102,0.0666666666666667,0.0666666666666667,0.983333333333333,24239.077697708,24239.617863875,9,24239.144420375,24239.210651167,24239.632765292,24240.609477167,1,0.54016616700028
103,13,8,categorization,0,kitchen,SHINEd_sun_aqeaevwwwjoqhzvl.tif,101,0.0666666666666667,0.0666666666666667,0.716666666666667,24240.626284208,24241.230223542,9,24240.693033542,24240.757183042,24241.242080875,24241.952084708,1,0.603939333999733
103,14,8,categorization,0,kitchen,SHINEd_sun_agzzivivdpnawacl.tif,89,0.0666666666666667,0.0666666666666667,1.41666666666667,24241.957092292,24242.646749,9,24242.018907167,24242.079752958,24242.664865083,24244.074906625,1,0.689656708000257
103,15,8,categorization,0,kitchen,SHINEd_sun_ajkqhtgcbgpcwrwn.tif,97,0.0666666666666667,0.0666666666666667,1.21666666666667,24244.092728792,24244.670699792,9,24244.159524458,24244.225452333,24244.698830208,24245.908882208,1,0.577971000002435
103,16,8,categorization,0,kitchen,SHINEd_sun_admlmbcdswaszruo.tif,79,0.0666666666666667,0.0666666666666667,1.61666666666667,24245.925235667,24246.472498833,9,24245.992232042,24246.058080333,24246.498301875,24248.1083335,1,0.547263166001358
103,17,8,categorization,0,bathroom,SHINEd_sun_awnqiikzaispgmwo.tif,56,0.0666666666666667,0.0666666666666667,0.783333333333333,24248.125885333,24248.709677167,9,24248.192355125,24248.25843325,24248.731602833,24249.508300958,0,0.583791834000294
103,18,8,categorization,0,kitchen,SHINEd_sun_adgqasybjyktddhj.tif,78,0.0666666666666667,0.0666666666666667,1.98333333333333,24249.525498417,24250.047316333,9,24249.592508333,24249.658329792,24250.06434725,24252.041059417,1,0.521817916000145
103,19,8,categorization,0,bathroom,SHINEd_sun_agrwbmhcpmfuwmsg.tif,24,0.0666666666666667,0.0666666666666667,0.983333333333333,24252.059689833,24252.560245458,9,24252.126715875,24252.1927425,24252.583503833,24253.560174875,0,0.500555624999834
103,20,8,categorization,0,bathroom,SHINEd_sun_aavhrsfjbserjtht.tif,13,0.0666666666666667,0.0666666666666667,0.8,24253.565254333,24255.046663375,9,24253.627044667,24253.688063583,24255.056972792,24255.850310667,0,1.48140904200045
103,21,8,categorization,0,kitchen,SHINEd_sun_abpwyqmlzafvklqo.tif,72,0.0666666666666667,0.0666666666666667,0.733333333333333,24255.857093958,24256.438337417,9,24255.91889225,24255.979857667,24256.448327917,24257.175000292,1,0.581243459000689
103,22,8,categorization,0,kitchen,SHINEd_sun_aypmqwcualkenuoe.tif,109,0.0666666666666667,0.0666666666666667,0.966666666666667,24257.179992083,24257.830434833,9,24257.241811,24257.302666667,24257.837813,24258.797816458,1,0.650442749996728
103,23,8,categorization,0,bathroom,SHINEd_sun_afcoljnjfoxjtgja.tif,20,0.0666666666666667,0.0666666666666667,0.866666666666667,24258.802629583,24259.222244292,9,24258.864335708,24258.925203333,24259.226836917,24260.086842,0,0.419614709000598
103,24,8,categorization,0,kitchen,SHINEd_sun_aamedkxepzlwuxes.tif,65,0.0666666666666667,0.0666666666666667,1.23333333333333,24260.092061875,24260.42987975,9,24260.15371,24260.214662625,24260.432988625,24261.659697083,1,0.337817875002656
103,25,8,categorization,0,kitchen,SHINEd_sun_abftihopvusyfakt.tif,71,0.0666666666666667,0.0666666666666667,1.9,24261.676478333,24262.07143025,9,24261.743380625,24261.809305667,24262.098935083,24263.992304875,1,0.394951916998252
103,26,8,categorization,0,kitchen,SHINEd_sun_aymvwlarqodbwuoc.tif,108,0.0666666666666667,0.0666666666666667,0.866666666666667,24264.011220417,24264.422042125,9,24264.077944375,24264.143781792,24264.450316542,24265.310371125,1,0.410821707999276
103,27,8,categorization,0,bathroom,SHINEd_sun_anryaplzeujmzfkd.tif,39,0.0666666666666667,0.0666666666666667,0.966666666666667,24265.326236917,24265.774314833,9,24265.393101417,24265.459128167,24265.778081583,24266.738085792,0,0.448077916000329
103,28,8,categorization,0,kitchen,SHINEd_sun_ahywdevtimnqcsln.tif,94,0.0666666666666667,0.0666666666666667,0.916666666666667,24266.74302275,24267.286821458,9,24266.804776792,24266.865676417,24267.300818833,24268.210822792,1,0.543798708000395
103,29,8,categorization,0,bathroom,SHINEd_sun_acegryoqftbzowsg.tif,17,0.0666666666666667,0.0666666666666667,0.916666666666667,24268.215661708,24268.598324083,9,24268.277378625,24268.338290917,24268.606738125,24269.516743417,0,0.3826623749992
103,30,8,categorization,0,kitchen,SHINEd_sun_akchetnepxlcxhsu.tif,98,0.0666666666666667,0.0666666666666667,1.4,24269.521335583,24270.294533292,13,24269.583090042,24269.643950917,24270.312520542,24271.70589925,0,0.773197709000669
103,31,8,categorization,0,kitchen,SHINEd_sun_acwjdupvyjsugpay.tif,76,0.0666666666666667,0.0666666666666667,1.75,24271.720872333,24273.02676175,9,24271.788625417,24271.853648458,24273.042169,24274.78555175,1,1.30588941699898
103,32,8,categorization,0,bathroom,SHINEd_sun_apeeialkgkuxddgh.tif,42,0.0666666666666667,0.0666666666666667,1.25,24274.803988167,24275.541820833,13,24274.870650333,24274.935509375,24275.558090083,24276.80147825,1,0.737832666000031
103,33,8,categorization,0,kitchen,SHINEd_sun_acfmftudsenhrfhy.tif,74,0.0666666666666667,0.0666666666666667,1.05,24276.819702125,24277.523852792,9,24276.886330833,24276.949058542,24277.538586792,24278.581976583,1,0.70415066699934
103,34,8,categorization,0,kitchen,SHINEd_sun_abdxkyyxwfskuaqb.tif,70,0.0666666666666667,0.0666666666666667,1.06666666666667,24278.600653292,24279.254083333,9,24278.66325825,24278.723463083,24279.258575292,24280.318630542,1,0.653430040998501
103,35,8,categorization,0,bathroom,SHINEd_sun_apkruvsevgegsdwp.tif,44,0.0666666666666667,0.0666666666666667,1.21666666666667,24280.328312542,24280.9921585,9,24280.392687625,24280.456695292,24281.011720583,24282.221757417,0,0.663845958002639
103,36,8,categorization,0,bathroom,SHINEd_sun_apjevzvycyhuqghb.tif,43,0.0666666666666667,0.0666666666666667,0.95,24282.2421995,24283.38242075,9,24282.304871,24282.364953917,24283.400491167,24284.343828458,0,1.14022124999974
103,37,8,categorization,0,bathroom,SHINEd_sun_agyqfjcfkdcydepw.tif,25,0.0666666666666667,0.0666666666666667,0.9,24284.348365458,24285.134336333,9,24284.410073292,24284.471167958,24285.139601542,24286.032938667,0,0.785970875000203
103,38,8,categorization,0,kitchen,SHINEd_sun_afuyedyxivkhecmu.tif,85,0.0666666666666667,0.0666666666666667,1.78333333333333,24286.037760542,24286.582036958,9,24286.099394458,24286.160392,24286.595612792,24288.372318875,1,0.544276415999775
103,39,8,categorization,0,bathroom,SHINEd_sun_aofnryafpsjimzsb.tif,40,0.0666666666666667,0.0666666666666667,1.16666666666667,24288.392008417,24289.000609125,9,24288.458920458,24288.524846708,24289.012742,24290.172777667,0,0.608600708001177
103,40,8,categorization,0,bathroom,SHINEd_sun_aspsyogrekjtfozg.tif,50,0.0666666666666667,0.0666666666666667,0.783333333333333,24290.183303458,24291.162085875,13,24290.250141667,24290.316205,24291.189564292,24291.966269417,1,0.978782416998001
103,41,8,categorization,0,bathroom,SHINEd_sun_aclfzgynxzxlbepz.tif,19,0.0666666666666667,0.0666666666666667,1.23333333333333,24291.980080042,24292.589965583,9,24292.047079458,24292.10904175,24292.594266167,24293.820974417,0,0.609885540998221
103,42,8,categorization,0,bathroom,SHINEd_sun_ambriybtogmepttm.tif,36,0.0666666666666667,0.0666666666666667,0.9,24293.839351292,24294.39012825,9,24293.905862167,24293.972386208,24294.412400875,24295.305781583,0,0.550776957999915
103,43,8,categorization,0,kitchen,SHINEd_sun_aeqdocilnnpuvuhx.tif,83,0.0666666666666667,0.0666666666666667,0.7,24295.322895167,24295.933917833,9,24295.390080042,24295.455506167,24295.941509667,24296.634848917,1,0.6110226660021
103,44,8,categorization,0,bathroom,SHINEd_sun_agguqiubmwhqqunb.tif,22,0.0666666666666667,0.0666666666666667,1.23333333333333,24296.640009333,24297.238534792,9,24296.701689458,24296.7627045,24297.24781775,24298.474539625,0,0.598525458997756
103,45,8,categorization,0,bathroom,SHINEd_sun_apynckhmoftszqoq.tif,47,0.0666666666666667,0.0666666666666667,1,24298.492272292,24298.973732417,9,24298.55941325,24298.625361208,24298.997464833,24299.990831167,0,0.481460125000012
103,46,8,categorization,0,bathroom,SHINEd_sun_ahqjwnzgolcaoidx.tif,29,0.0666666666666667,0.0666666666666667,1.38333333333333,24300.008464958,24300.534454792,13,24300.074697417,24300.140830833,24300.543045875,24301.919762917,1,0.525989834000939
103,47,8,categorization,0,kitchen,SHINEd_sun_azmutvzbxypaceni.tif,110,0.0666666666666667,0.0666666666666667,1.3,24301.938237,24302.425947125,9,24302.004609625,24302.07122375,24302.444054667,24303.737436792,1,0.487710125002195
103,48,8,categorization,0,kitchen,SHINEd_sun_ahdycvpopffkzzsu.tif,90,0.0666666666666667,0.0666666666666667,0.833333333333333,24303.755754417,24304.191144583,9,24303.822847125,24303.888814458,24304.211950625,24305.038657125,1,0.435390165999706
103,49,8,categorization,0,kitchen,SHINEd_sun_ahpczsiumwwocjkv.tif,92,0.0666666666666667,0.0666666666666667,0.95,24305.055237875,24305.806575792,9,24305.122021667,24305.187892792,24305.823656167,24306.766993375,1,0.751337917001365
103,50,8,categorization,0,kitchen,SHINEd_sun_auticobqsbwgoppi.tif,104,0.0666666666666667,0.0666666666666667,1.43333333333333,24306.772918625,24307.65400775,9,24306.834641917,24306.895639667,24307.664205083,24309.090921917,1,0.881089124999562
