sub_num,trial,block,task,is_practice,category,image,texture,duration,mask_dur,jitter,stim_time,time_of_resp,trial_response,mask_time,fix_time,jit_onset,trial_end,trial_accuracy,RT
103,1,7,categorization,0,kitchen,SHINEd_sun_agorklincwxrdtga.tif,87,0.0666666666666667,0.0666666666666667,0.883333333333333,24120.925666667,24121.718981708,9,24120.987715417,24121.048400458,24121.733486833,24122.610158875,1,0.793315040999005
103,2,7,categorization,0,kitchen,SHINEd_sun_aggjlwcdjsjcaemh.tif,86,0.0666666666666667,0.0666666666666667,1.03333333333333,24122.615056083,24123.3103825,9,24122.676764833,24122.737921083,24123.323239542,24124.349934333,1,0.695326417000615
103,3,7,categorization,0,bathroom,SHINEd_sun_aoybiabnpadelefl.tif,41,0.0666666666666667,0.0666666666666667,1.06666666666667,24124.359992417,24124.737316125,9,24124.424880875,24124.491459,24124.764735458,24125.824783583,0,0.377323707998585
103,4,7,categorization,0,kitchen,SHINEd_sun_aixorpehvfykdynp.tif,95,0.0666666666666667,0.0666666666666667,0.833333333333333,24125.842583208,24126.283298708,9,24125.909464375,24125.97534175,24126.297772583,24127.124444542,1,0.440715500000806
103,5,7,categorization,0,kitchen,SHINEd_sun_aunzlwrbjumxhwdj.tif,103,0.0666666666666667,0.0666666666666667,0.716666666666667,24127.129313708,24127.615385375,9,24127.191105292,24127.252059458,24127.62064975,24128.330654083,1,0.486071667000942
103,6,7,categorization,0,bathroom,SHINEd_sun_ahijqszoswveeyji.tif,28,0.0666666666666667,0.0666666666666667,0.733333333333333,24128.335201583,24128.854463958,9,24128.396828375,24128.457848167,24128.859740292,24129.58641225,0,0.519262375000835
103,7,7,categorization,0,bathroom,SHINEd_sun_acgyywnybuveqsro.tif,18,0.0666666666666667,0.0666666666666667,1.38333333333333,24129.590953542,24130.007085667,9,24129.652586958,24129.713547125,24130.015473333,24131.392182583,0,0.416132124999422
103,8,7,categorization,0,kitchen,SHINEd_labelme_brsyyvweiuaazfr.tif,61,0.0666666666666667,0.0666666666666667,0.9,24131.409739417,24132.080343542,9,24131.476480375,24131.542771875,24132.099008333,24132.992388583,1,0.670604124999954
103,9,7,categorization,0,kitchen,SHINEd_sun_aehawpgmrlhlvcow.tif,81,0.0666666666666667,0.0666666666666667,0.816666666666667,24133.004488083,24133.486740792,9,24133.068054625,24133.127603417,24133.496105542,24134.306110083,1,0.482252709000022
103,10,7,categorization,0,kitchen,SHINEd_sun_awcpdzzznmweyyhv.tif,106,0.0666666666666667,0.0666666666666667,0.85,24134.311102667,24135.030341292,9,24134.37278,24134.433968,24135.035895125,24135.879231833,1,0.71923862499898
103,11,7,categorization,0,kitchen,SHINEd_sun_aarfiyshqohlwkmo.tif,67,0.0666666666666667,0.0666666666666667,1.6,24135.884130583,24136.502634292,9,24135.94585025,24136.006853917,24136.50885675,24138.102220625,1,0.618503708999924
103,12,7,categorization,0,bathroom,SHINEd_sun_aqrpegblszgcoujh.tif,48,0.0666666666666667,0.0666666666666667,1.75,24138.116897042,24138.931250417,9,24138.180957042,24138.248261417,24138.953678542,24140.697059125,0,0.814353375000792
103,13,7,categorization,0,bathroom,SHINEd_sun_akiytfaagpdsphgz.tif,31,0.0666666666666667,0.0666666666666667,1.1,24140.716812292,24141.515683083,13,24140.783977167,24140.849730292,24141.539953708,24142.633324208,1,0.798870790997171
103,14,7,categorization,0,kitchen,SHINEd_sun_abdenxonkemggwsq.tif,69,0.0666666666666667,0.0666666666666667,1.46666666666667,24142.643962042,24143.234352333,9,24142.709082833,24142.777012958,24143.249721583,24144.709778417,1,0.590390290999494
103,15,7,categorization,0,kitchen,SHINEd_sun_abrcnpqqhmjwekyf.tif,73,0.0666666666666667,0.0666666666666667,1.25,24144.727173042,24145.378505333,13,24144.792344625,24144.86003475,24145.400376042,24146.643763042,0,0.651332290999562
103,16,7,categorization,0,bathroom,SHINEd_sun_atstyziqcmkahyxk.tif,51,0.0666666666666667,0.0666666666666667,1.13333333333333,24146.660540167,24147.151056167,9,24146.728208417,24146.7907485,24147.159225208,24148.285927875,0,0.490516000001662
103,17,7,categorization,0,kitchen,SHINEd_sun_aadbddgrdsjugojn.tif,64,0.0666666666666667,0.0666666666666667,1.33333333333333,24148.295961875,24148.788597625,13,24148.361068167,24148.42844175,24148.817971125,24150.144673625,0,0.492635750000773
103,18,7,categorization,0,bathroom,SHINEd_sun_alkosphxlxwjwgjd.tif,34,0.0666666666666667,0.0666666666666667,1.86666666666667,24150.16069575,24150.686791375,9,24150.223067667,24150.283319458,24150.70174825,24152.561785917,0,0.526095624998561
103,19,7,categorization,0,bathroom,SHINEd_sun_aljolscmmzydegqp.tif,33,0.0666666666666667,0.0666666666666667,1.58333333333333,24152.574790375,24153.2896685,9,24152.641762,24152.707584875,24153.314049167,24154.890765083,0,0.714878124999814
103,20,7,categorization,0,bathroom,SHINEd_sun_azqyogdvyhahyram.tif,60,0.0666666666666667,0.0666666666666667,1.05,24154.909813917,24155.457848292,9,24154.974186292,24155.042927833,24155.483304833,24156.526684333,0,0.548034375002317
103,21,7,categorization,0,kitchen,SHINEd_sun_acgtpgfybqjmzeyw.tif,75,0.0666666666666667,0.0666666666666667,0.9,24156.538600208,24157.137367375,9,24156.603802125,24156.669803583,24157.161113,24158.054485792,1,0.598767166997277
103,22,7,categorization,0,bathroom,SHINEd_labelme_sfxiulhjbhlyiyt.tif,11,0.0666666666666667,0.0666666666666667,0.7,24158.073379083,24158.536067875,13,24158.141149875,24158.206973833,24158.543053125,24159.236391875,1,0.462688791998517
103,23,7,categorization,0,bathroom,SHINEd_sun_axyrejkiiaqiurjk.tif,59,0.0666666666666667,0.0666666666666667,0.933333333333333,24159.241285708,24159.863210917,9,24159.302955917,24159.364002208,24159.882517083,24160.809188708,0,0.621925208997709
103,24,7,categorization,0,kitchen,SHINEd_sun_amjjdeyrggfqgmom.tif,100,0.0666666666666667,0.0666666666666667,1.95,24160.814251583,24161.319240375,9,24160.875949333,24160.936900125,24161.338645208,24163.282023292,1,0.504988791999494
103,25,7,categorization,0,kitchen,SHINEd_sun_axyyrmzcupyhlivc.tif,107,0.0666666666666667,0.0666666666666667,1.06666666666667,24163.295615542,24163.976412625,9,24163.362091958,24163.428346375,24164.001706875,24165.06173825,1,0.68079708300138
103,26,7,categorization,0,bathroom,SHINEd_sun_auzqhkafidnkrwmo.tif,54,0.0666666666666667,0.0666666666666667,1.2,24165.071942708,24165.529441917,9,24165.136302875,24165.202707375,24165.559133292,24166.752503792,0,0.457499208998343
103,27,7,categorization,0,bathroom,SHINEd_sun_amzlamotzwfkwjco.tif,37,0.0666666666666667,0.0666666666666667,0.75,24166.768856958,24167.446543125,9,24166.835947458,24166.902245,24167.454318167,24168.197654958,0,0.677686167000502
103,28,7,categorization,0,bathroom,SHINEd_sun_alotolagknyrgtsk.tif,35,0.0666666666666667,0.0666666666666667,0.816666666666667,24168.202591833,24168.702933917,9,24168.264206917,24168.325374875,24168.710553375,24169.520557958,0,0.500342084000295
103,29,7,categorization,0,bathroom,SHINEd_sun_abjtwfukuwddzted.tif,15,0.0666666666666667,0.0666666666666667,1.96666666666667,24169.525258542,24169.990524125,9,24169.586912667,24169.648009875,24169.999912708,24171.959965625,0,0.465265583003202
103,30,7,categorization,0,bathroom,SHINEd_sun_ahcvzmoyaycdoftf.tif,27,0.0666666666666667,0.0666666666666667,1.2,24171.978385375,24172.417781375,9,24172.044954375,24172.111460042,24172.433979792,24173.627361708,0,0.439395999997942
103,31,7,categorization,0,kitchen,SHINEd_sun_aegoxogugdkwpmpj.tif,80,0.0666666666666667,0.0666666666666667,0.883333333333333,24173.63884925,24174.332563625,9,24173.705966667,24173.771785,24174.361574917,24175.238285417,1,0.693714375000127
103,32,7,categorization,0,bathroom,SHINEd_sun_aghyqhbptboemmoq.tif,23,0.0666666666666667,0.0666666666666667,1.33333333333333,24175.254813125,24175.774178542,9,24175.32163725,24175.387901042,24175.78989,24177.116593208,0,0.51936541699979
103,33,7,categorization,0,kitchen,SHINEd_labelme_rykdqxenmhulbdn.tif,63,0.0666666666666667,0.0666666666666667,1.45,24177.134506708,24177.528831458,9,24177.201407708,24177.267061583,24177.55661675,24179.000005375,1,0.394324749999214
103,34,7,categorization,0,kitchen,SHINEd_sun_aaxxjlsuzvqlgylf.tif,68,0.0666666666666667,0.0666666666666667,1.15,24179.010267042,24179.457013,9,24179.076954083,24179.143161083,24179.4832035,24180.626591625,1,0.446745958000974
103,35,7,categorization,0,bathroom,SHINEd_sun_apmqjbnwghzuhhzh.tif,46,0.0666666666666667,0.0666666666666667,0.966666666666667,24180.6443705,24181.31118275,9,24180.710880542,24180.777209542,24181.329076667,24182.289081542,0,0.666812250001385
103,36,7,categorization,0,kitchen,SHINEd_labelme_kxvouciolcpqplr.tif,62,0.0666666666666667,0.0666666666666667,1.45,24182.293940125,24182.854322083,9,24182.355594958,24182.416608208,24182.868682583,24184.312059167,1,0.560381957999198
103,37,7,categorization,0,kitchen,SHINEd_sun_ahspylgoovwmwvgk.tif,93,0.0666666666666667,0.0666666666666667,0.8,24184.327344167,24185.002038083,9,24184.393882167,24184.460100083,24185.0139775,24185.807357458,1,0.674693916000251
103,38,7,categorization,0,bathroom,SHINEd_sun_asfwthctfqerjvxr.tif,49,0.0666666666666667,0.0666666666666667,1.45,24185.825856625,24186.343147417,9,24185.892942833,24185.955911667,24186.357856208,24187.801231958,0,0.517290791998676
103,39,7,categorization,0,bathroom,SHINEd_sun_axldvoqbuvuggfmq.tif,57,0.0666666666666667,0.0666666666666667,1.1,24187.811994208,24188.484602,9,24187.879370875,24187.944911333,24188.501278292,24189.594647417,0,0.672607791999326
103,40,7,categorization,0,kitchen,SHINEd_sun_acxkpeoqbwcxfvip.tif,77,0.0666666666666667,0.0666666666666667,1.16666666666667,24189.606956542,24190.21697525,9,24189.672318542,24189.739705417,24190.246563833,24191.406618333,1,0.610018708001007
103,41,7,categorization,0,kitchen,SHINEd_sun_ahljzhgcdpomplvg.tif,91,0.0666666666666667,0.0666666666666667,1.31666666666667,24191.425802125,24191.902241583,9,24191.492504917,24191.558617,24191.910575917,24193.220613667,1,0.476439458001551
103,42,7,categorization,0,bathroom,SHINEd_sun_aggnnqpdorgxpvce.tif,21,0.0666666666666667,0.0666666666666667,1.68333333333333,24193.238621708,24194.022221583,9,24193.305120042,24193.371839,24194.044307958,24195.721019333,0,0.783599875001528
103,43,7,categorization,0,bathroom,SHINEd_sun_ausgutylgojavyoq.tif,53,0.0666666666666667,0.0666666666666667,0.966666666666667,24195.739257625,24196.601461333,13,24195.806682833,24195.872656833,24196.629820542,24197.589824208,1,0.862203708002198
103,44,7,categorization,0,bathroom,SHINEd_sun_apkxzenqapsujocq.tif,45,0.0666666666666667,0.0666666666666667,1.4,24197.59498875,24198.430843167,13,24197.6567135,24197.717833542,24198.436291542,24199.829662583,1,0.835854417000519
103,45,7,categorization,0,bathroom,SHINEd_sun_ajlawzvmubibwbpy.tif,30,0.0666666666666667,0.0666666666666667,0.783333333333333,24199.847907583,24200.591881208,9,24199.914518708,24199.980780833,24200.620784167,24201.397489333,0,0.743973625001672
103,46,7,categorization,0,bathroom,SHINEd_sun_abapwbhyhkfixyex.tif,14,0.0666666666666667,0.0666666666666667,1.08333333333333,24201.413847875,24202.038167,9,24201.4808625,24201.546642417,24202.049099333,24203.125818625,0,0.624319124999602
103,47,7,categorization,0,kitchen,SHINEd_sun_ajcbwwvdlsvjyzje.tif,96,0.0666666666666667,0.0666666666666667,1.43333333333333,24203.136830375,24203.769041583,9,24203.201322667,24203.268599208,24203.792772792,24205.21949475,1,0.632211208001536
103,48,7,categorization,0,bathroom,SHINEd_sun_aunuadmjocsddsrl.tif,52,0.0666666666666667,0.0666666666666667,1.75,24205.234617708,24205.953807292,9,24205.301896708,24205.367545458,24205.97377875,24207.717163292,0,0.71918958400056
103,49,7,categorization,0,bathroom,SHINEd_sun_ahaulkltgpkeeemi.tif,26,0.0666666666666667,0.0666666666666667,1.21666666666667,24207.734958208,24208.202795792,9,24207.80152725,24207.86832,24208.224906167,24209.434968,0,0.467837584001245
103,50,7,categorization,0,bathroom,SHINEd_sun_aleqenyvunhactkl.tif,32,0.0666666666666667,0.0666666666666667,1.31666666666667,24209.445147292,24210.251726792,9,24209.512146,24209.578145875,24210.266940542,24211.576979208,0,0.806579500000225
