sub_num,trial,block,task,is_practice,category,image,texture,duration,mask_dur,jitter,stim_time,time_of_resp,trial_response,mask_time,fix_time,jit_onset,trial_end,trial_accuracy,RT
105,1,0,typicality,1,bathroom,bathroom_practice2.tif,222,1.5,0,1.48333333333333,15662.546348208,15669.348479375,5,NaN,15669.370918292,15669.392455375,15670.8701405,NaN,NaN
105,2,0,typicality,1,bathroom,bathroom_practice4.tif,224,1.5,0,0.75,15670.926292792,15675.356586333,3,NaN,15675.366801208,15675.386025625,15676.129379375,NaN,NaN
105,3,0,typicality,1,bathroom,bathroom_practice1.tif,221,1.5,0,1.93333333333333,15676.134860833,15683.1080855,2,NaN,15683.115217583,15683.134279542,15685.06102,NaN,NaN
105,4,0,typicality,1,bathroom,bathroom_practice5.tif,225,1.5,0,0.983333333333333,15685.092777,15690.148568083,4,NaN,15690.155580292,15690.1741275,15691.150800708,NaN,NaN
105,5,0,typicality,1,bathroom,bathroom_practice3.tif,223,1.5,0,0.883333333333333,15691.157092042,15698.540272667,4,NaN,15698.549825458,15698.56850075,15699.445177167,NaN,NaN
105,1,1,typicality,0,bathroom,sun_aapitsgbtktqubfy.tif,122,1.5,0,0.866666666666667,15708.31664325,15714.4607025,4,NaN,15714.467722875,15714.486180417,15715.346188833,NaN,NaN
105,2,1,typicality,0,bathroom,sun_aleqenyvunhactkl.tif,142,1.5,0,1.03333333333333,15715.350916875,15720.956439875,2,NaN,15720.962608917,15720.981109125,15722.007839875,NaN,NaN
105,3,1,typicality,0,bathroom,sun_ajlawzvmubibwbpy.tif,140,1.5,0,0.866666666666667,15722.018306875,15725.932017208,3,NaN,15725.938288042,15725.956843708,15726.816853708,NaN,NaN
105,4,1,typicality,0,bathroom,sun_alkosphxlxwjwgjd.tif,144,1.5,0,1.61666666666667,15726.821139583,15731.116044125,5,NaN,15731.122525542,15731.140946375,15732.751012958,NaN,NaN
105,5,1,typicality,0,bathroom,sun_anhioqovhscjqqwb.tif,148,1.5,0,0.883333333333333,15732.766739708,15736.359137,4,NaN,15736.374650792,15736.394539875,15737.271215042,NaN,NaN
105,6,1,typicality,0,bathroom,sun_alotolagknyrgtsk.tif,145,1.5,0,0.933333333333333,15737.275893333,15741.428776,7,NaN,15741.4349495,15741.453414583,15742.380088458,NaN,NaN
105,7,1,typicality,0,bathroom,sun_aghyqhbptboemmoq.tif,133,1.5,0,1.5,15742.384712,15747.044117292,3,NaN,15747.05031375,15747.068689333,15748.562094,NaN,NaN
105,8,1,typicality,0,bathroom,sun_asfwthctfqerjvxr.tif,159,1.5,0,1.36666666666667,15748.573398417,15752.995975375,6,NaN,15753.0022105,15753.020529042,15754.380591958,NaN,NaN
105,9,1,typicality,0,bathroom,sun_agyqfjcfkdcydepw.tif,135,1.5,0,0.85,15754.401832458,15758.540634,7,NaN,15758.54665675,15758.565228625,15759.408570542,NaN,NaN
105,10,1,typicality,0,bathroom,sun_apeeialkgkuxddgh.tif,152,1.5,0,1.81666666666667,15759.413134125,15763.675806708,4,NaN,15763.682124708,15763.70046925,15765.510562167,NaN,NaN
105,11,1,typicality,0,bathroom,sun_acegryoqftbzowsg.tif,127,1.5,0,1.28333333333333,15765.529233833,15769.763908958,4,NaN,15769.770078792,15769.788467167,15771.065233833,NaN,NaN
105,12,1,typicality,0,bathroom,sun_anryaplzeujmzfkd.tif,149,1.5,0,1.23333333333333,15771.083326167,15774.532369583,3,NaN,15774.538254125,15774.556646708,15775.783404875,NaN,NaN
105,13,1,typicality,0,bathroom,sun_amzlamotzwfkwjco.tif,147,1.5,0,0.883333333333333,15775.802160958,15780.396324917,4,NaN,15780.402305667,15780.420591333,15781.297268917,NaN,NaN
105,14,1,typicality,0,bathroom,sun_afcoljnjfoxjtgja.tif,130,1.5,0,0.866666666666667,15781.301835625,15785.468012125,6,NaN,15785.474027083,15785.492392167,15786.352398083,NaN,NaN
105,15,1,typicality,0,bathroom,sun_aclfzgynxzxlbepz.tif,129,1.5,0,1.36666666666667,15786.356942417,15789.851951167,3,NaN,15789.857827542,15789.876255833,15791.236336125,NaN,NaN
105,16,1,typicality,0,bathroom,sun_acduarbnmmoglmiv.tif,126,1.5,0,1.05,15791.254981667,15796.075827833,4,NaN,15796.081955208,15796.100310667,15797.143723333,NaN,NaN
105,17,1,typicality,0,bathroom,sun_auzqhkafidnkrwmo.tif,164,1.5,0,1.21666666666667,15797.154758667,15800.636692833,3,NaN,15800.643018458,15800.661261833,15801.871331875,NaN,NaN
105,18,1,typicality,0,bathroom,sun_aofnryafpsjimzsb.tif,150,1.5,0,0.816666666666667,15801.892908375,15806.196662625,6,NaN,15806.202519833,15806.220954542,15807.030964917,NaN,NaN
105,19,1,typicality,0,bathroom,sun_apmqjbnwghzuhhzh.tif,156,1.5,0,1,15807.03540125,15811.139990167,4,NaN,15811.146082958,15811.164449,15812.157790417,NaN,NaN
105,20,1,typicality,0,bathroom,sun_abjtwfukuwddzted.tif,125,1.5,0,1.21666666666667,15812.162563292,15815.739785625,3,NaN,15815.745857042,15815.764448667,15816.974550708,NaN,NaN
105,21,1,typicality,0,bathroom,sun_awnqiikzaispgmwo.tif,166,1.5,0,1.46666666666667,15816.993012,15820.323694792,5,NaN,15820.329834167,15820.34814625,15821.808202708,NaN,NaN
105,22,1,typicality,0,bathroom,sun_aljolscmmzydegqp.tif,143,1.5,0,1.4,15821.826241792,15825.667821667,3,NaN,15825.673796958,15825.692123417,15827.0855135,NaN,NaN
105,23,1,typicality,0,bathroom,sun_abapwbhyhkfixyex.tif,124,1.5,0,0.783333333333333,15827.103787417,15830.963853917,3,NaN,15830.969897875,15830.988233,15831.764908208,NaN,NaN
105,24,1,typicality,0,bathroom,labelme_sfxiulhjbhlyiyt.tif,121,1.5,0,1.21666666666667,15831.769347,15835.243662708,4,NaN,15835.249757875,15835.267993958,15836.478085,NaN,NaN
105,25,1,typicality,0,bathroom,sun_axldvoqbuvuggfmq.tif,167,1.5,0,1.35,15836.497605958,15839.764041208,4,NaN,15839.769918542,15839.788218167,15841.131639375,NaN,NaN
105,1,2,typicality,0,bathroom,sun_aoybiabnpadelefl.tif,151,1.5,0,1.65,15848.724969792,15852.084204042,5,NaN,15852.089992083,15852.108273208,15853.751698042,NaN,NaN
105,2,2,typicality,0,bathroom,sun_apkruvsevgegsdwp.tif,154,1.5,0,1.01666666666667,15853.768401333,15857.261240458,3,NaN,15857.29174525,15857.315124625,15858.325131458,NaN,NaN
105,3,2,typicality,0,bathroom,sun_ahijqszoswveeyji.tif,138,1.5,0,1.58333333333333,15858.332992583,15862.108284042,4,NaN,15862.11416625,15862.132351167,15863.709091458,NaN,NaN
105,4,2,typicality,0,bathroom,sun_aunuadmjocsddsrl.tif,162,1.5,0,0.7,15863.725086917,15867.899865792,1,NaN,15867.905777,15867.924141792,15868.617482292,NaN,NaN
105,5,2,typicality,0,bathroom,sun_apkxzenqapsujocq.tif,155,1.5,0,1.23333333333333,15868.62176125,15873.339388042,1,NaN,15873.345761417,15873.364204042,15874.590966792,NaN,NaN
105,6,2,typicality,0,bathroom,sun_akiytfaagpdsphgz.tif,141,1.5,0,0.816666666666667,15874.60638725,15877.859375833,2,NaN,15877.865761958,15877.883983917,15878.693993333,NaN,NaN
105,7,2,typicality,0,bathroom,sun_agrwbmhcpmfuwmsg.tif,134,1.5,0,0.733333333333333,15878.698245458,15881.852335125,4,NaN,15881.858575583,15881.876831,15882.603507625,NaN,NaN
105,8,2,typicality,0,bathroom,sun_agguqiubmwhqqunb.tif,132,1.5,0,1.15,15882.608183083,15885.683438958,4,NaN,15885.691569125,15885.709973167,15886.85339475,NaN,NaN
105,9,2,typicality,0,bathroom,sun_axyrejkiiaqiurjk.tif,169,1.5,0,0.933333333333333,15886.8626695,15890.195798958,5,NaN,15890.201630333,15890.220013792,15891.146686958,NaN,NaN
105,10,2,typicality,0,bathroom,sun_aavhrsfjbserjtht.tif,123,1.5,0,0.916666666666667,15891.151252083,15894.827705417,5,NaN,15894.833561708,15894.851888375,15895.76189475,NaN,NaN
105,11,2,typicality,0,bathroom,sun_avhrdrntsqrjzccq.tif,165,1.5,0,1.26666666666667,15895.766223583,15898.883262333,7,NaN,15898.891822375,15898.910155958,15900.170222417,NaN,NaN
105,12,2,typicality,0,bathroom,sun_aqrpegblszgcoujh.tif,158,1.5,0,0.933333333333333,15900.187665625,15904.268332083,6,NaN,15904.274312458,15904.292646417,15905.219323042,NaN,NaN
105,13,2,typicality,0,bathroom,sun_ambriybtogmepttm.tif,146,1.5,0,1,15905.223954417,15909.091988292,5,NaN,15909.097700458,15909.115960833,15910.10930225,NaN,NaN
105,14,2,typicality,0,bathroom,sun_acgyywnybuveqsro.tif,128,1.5,0,1,15910.113864208,15913.771865542,7,NaN,15913.777652792,15913.796417833,15914.7897595,NaN,NaN
105,15,2,typicality,0,bathroom,sun_aggnnqpdorgxpvce.tif,131,1.5,0,1.21666666666667,15914.794420833,15917.98804475,6,NaN,15917.994222917,15918.013022042,15919.223084667,NaN,NaN
105,16,2,typicality,0,bathroom,sun_apjevzvycyhuqghb.tif,153,1.5,0,1.85,15919.241141958,15922.731249375,4,NaN,15922.737586417,15922.755954,15924.59937125,NaN,NaN
105,17,2,typicality,0,bathroom,sun_aspsyogrekjtfozg.tif,160,1.5,0,0.766666666666667,15924.6170345,15927.7198755,4,NaN,15927.7500965,15927.773275917,15928.533289708,NaN,NaN
105,18,2,typicality,0,bathroom,sun_axxbkopsgyouuebh.tif,168,1.5,0,0.966666666666667,15928.538090208,15931.828038917,2,NaN,15931.834101875,15931.852469583,15932.81247575,NaN,NaN
105,19,2,typicality,0,bathroom,sun_ahaulkltgpkeeemi.tif,136,1.5,0,1.4,15932.817240083,15936.395524958,1,NaN,15936.401478917,15936.419980083,15937.813407667,NaN,NaN
105,20,2,typicality,0,bathroom,sun_apynckhmoftszqoq.tif,157,1.5,0,0.933333333333333,15937.835178167,15941.771296083,2,NaN,15941.777393042,15941.796203083,15942.722879375,NaN,NaN
105,21,2,typicality,0,bathroom,sun_ahqjwnzgolcaoidx.tif,139,1.5,0,1.7,15942.727211833,15945.963322708,2,NaN,15945.970360167,15945.988695875,15947.682089083,NaN,NaN
105,22,2,typicality,0,bathroom,sun_ahcvzmoyaycdoftf.tif,137,1.5,0,0.916666666666667,15947.7008265,15950.915915958,4,NaN,15950.94626125,15950.969389,15951.879400167,NaN,NaN
105,23,2,typicality,0,bathroom,sun_ausgutylgojavyoq.tif,163,1.5,0,0.833333333333333,15951.884197167,15955.883082292,5,NaN,15955.889322792,15955.907805792,15956.73448175,NaN,NaN
105,24,2,typicality,0,bathroom,sun_azqyogdvyhahyram.tif,170,1.5,0,0.783333333333333,15956.739010917,15960.620150458,2,NaN,15960.626391583,15960.644590167,15961.421263125,NaN,NaN
105,25,2,typicality,0,bathroom,sun_atstyziqcmkahyxk.tif,161,1.5,0,1.4,15961.425671792,15964.279025958,1,NaN,15964.307606,15964.330923875,15965.724324625,NaN,NaN
