sub_num,trial,block,task,is_practice,category,image,texture,duration,mask_dur,jitter,stim_time,time_of_resp,trial_response,mask_time,fix_time,jit_onset,trial_end,trial_accuracy,RT
131,1,0,categorization,1,kitchen,SHINEd_kitchen_practice4.tif,119,0.0666666666666667,0.0666666666666667,1.21666666666667,6208.226627083,6210.244690208,9,6208.292888958,6208.352594875,6210.273422208,6211.483492333,1,2.01806312500048
131,2,0,categorization,1,bathroom,SHINEd_bathroom_practice3.tif,113,0.0666666666666667,0.0666666666666667,1.36666666666667,6211.496456916,6213.053634291,13,6211.55897975,6211.619598541,6213.072513875,6214.432696041,1,1.55717737499981
131,3,0,categorization,1,kitchen,SHINEd_kitchen_practice3.tif,118,0.0666666666666667,0.0666666666666667,1.85,6214.486615708,6215.343401291,13,6214.561535041,6214.621192541,6215.362876541,6217.206370458,0,0.856785583000601
131,4,0,categorization,1,bathroom,SHINEd_bathroom_practice5.tif,115,0.0666666666666667,0.0666666666666667,1.55,6217.224115416,6218.469145,9,6217.291838,6217.35279475,6218.498214041,6220.041732833,0,1.24502958399989
131,5,0,categorization,1,kitchen,SHINEd_kitchen_practice5.tif,120,0.0666666666666667,0.0666666666666667,1.48333333333333,6220.075852791,6221.222401583,13,6220.149429625,6220.210287125,6221.253720375,6222.731424583,0,1.14654879199952
131,6,0,categorization,1,kitchen,SHINEd_kitchen_practice2.tif,117,0.0666666666666667,0.0666666666666667,1.15,6222.758637416,6223.865018291,13,6222.827356166,6222.89271975,6223.883888,6225.0274265,0,1.10638087499956
131,7,0,categorization,1,bathroom,SHINEd_bathroom_practice1.tif,111,0.0666666666666667,0.0666666666666667,0.733333333333333,6225.039089666,6226.425505125,13,6225.106405333,6225.171944041,6226.447368708,6227.174039416,1,1.38641545900009
131,8,0,categorization,1,bathroom,SHINEd_bathroom_practice4.tif,114,0.0666666666666667,0.0666666666666667,1.6,6227.178976083,6228.781072416,13,6227.240861958,6227.301902125,6228.787415833,6230.380784291,1,1.60209633300019
131,9,0,categorization,1,bathroom,SHINEd_bathroom_practice2.tif,112,0.0666666666666667,0.0666666666666667,0.716666666666667,6230.401674583,6232.197649083,9,6230.468702333,6230.535497375,6232.204619708,6232.914624166,0,1.79597449999983
131,10,0,categorization,1,kitchen,SHINEd_kitchen_practice1.tif,116,0.0666666666666667,0.0666666666666667,1.21666666666667,6232.920477791,6233.852660958,9,6232.982275875,6233.043334291,6233.861923125,6235.071982833,1,0.932183167000403
131,1,0,categorization,1,kitchen,SHINEd_kitchen_practice4.tif,119,0.0666666666666667,0.0666666666666667,1.21666666666667,6248.606916833,6249.773501958,9,6248.669660625,6248.729747875,6249.781635791,6250.991677833,1,1.16658512500089
131,2,0,categorization,1,bathroom,SHINEd_bathroom_practice3.tif,113,0.0666666666666667,0.0666666666666667,1.36666666666667,6251.007298833,6251.85269925,13,6251.074186125,6251.140551416,6251.880729958,6253.240766333,1,0.845400416999837
131,3,0,categorization,1,kitchen,SHINEd_kitchen_practice3.tif,118,0.0666666666666667,0.0666666666666667,1.85,6253.251508208,6254.558586333,9,6253.317677375,6253.381110541,6254.5887045,6256.432094041,1,1.30707812499986
131,4,0,categorization,1,bathroom,SHINEd_bathroom_practice5.tif,115,0.0666666666666667,0.0666666666666667,1.55,6256.44954575,6257.415174583,13,6256.517553208,6256.582032,6257.436821208,6258.980197916,1,0.965628833000665
131,5,0,categorization,1,kitchen,SHINEd_kitchen_practice5.tif,120,0.0666666666666667,0.0666666666666667,1.48333333333333,6258.999260958,6260.217908041,9,6259.0665445,6259.132237875,6260.239820375,6261.716542291,1,1.21864708299927
131,6,0,categorization,1,kitchen,SHINEd_kitchen_practice2.tif,117,0.0666666666666667,0.0666666666666667,1.15,6261.732451791,6262.81572675,9,6261.800375458,6261.865224541,6262.839715416,6263.98309925,1,1.08327495899994
131,7,0,categorization,1,bathroom,SHINEd_bathroom_practice1.tif,111,0.0666666666666667,0.0666666666666667,0.733333333333333,6263.993738125,6264.801297875,13,6264.061725791,6264.127120291,6264.8170015,6265.543710208,1,0.807559750000109
131,8,0,categorization,1,bathroom,SHINEd_bathroom_practice4.tif,114,0.0666666666666667,0.0666666666666667,1.6,6265.56115075,6266.33323075,13,6265.628629833,6265.694402125,6266.346802791,6267.940197541,1,0.772080000000642
131,9,0,categorization,1,bathroom,SHINEd_bathroom_practice2.tif,112,0.0666666666666667,0.0666666666666667,0.716666666666667,6267.957539833,6268.872586041,9,6268.022717416,6268.090541083,6268.897434458,6269.607439416,0,0.915046208000604
131,10,0,categorization,1,kitchen,SHINEd_kitchen_practice1.tif,116,0.0666666666666667,0.0666666666666667,1.21666666666667,6269.613303916,6270.61284925,9,6269.675033416,6269.736004875,6270.621247958,6271.831283583,1,0.999545333999777
131,1,1,categorization,0,kitchen,SHINEd_sun_acwjdupvyjsugpay.tif,76,0.0666666666666667,0.0666666666666667,1.23333333333333,6322.393929,6323.324502125,9,6322.456378833,6322.517065,6323.335534,6324.562257083,1,0.930573125000592
131,2,1,categorization,0,kitchen,SHINEd_sun_awcpdzzznmweyyhv.tif,106,0.0666666666666667,0.0666666666666667,0.783333333333333,6324.580478458,6325.55281475,9,6324.647406458,6324.713554875,6325.569936333,6326.346643125,1,0.972336292000364
131,3,1,categorization,0,kitchen,SHINEd_sun_axyyrmzcupyhlivc.tif,107,0.0666666666666667,0.0666666666666667,0.75,6326.356894375,6327.364239083,13,6326.41959275,6326.479647,6327.381463666,6328.124801208,0,1.00734470800035
131,4,1,categorization,0,bathroom,SHINEd_sun_agrwbmhcpmfuwmsg.tif,24,0.0666666666666667,0.0666666666666667,1.23333333333333,6328.130462041,6329.028454416,13,6328.192131791,6328.253182,6329.038722666,6330.265448208,1,0.897992375000285
131,5,1,categorization,0,bathroom,SHINEd_sun_ahijqszoswveeyji.tif,28,0.0666666666666667,0.0666666666666667,1.13333333333333,6330.284495,6331.180021708,9,6330.351182125,6330.417065166,6331.20568575,6332.33239075,0,0.895526708000034
131,6,1,categorization,0,kitchen,SHINEd_sun_acgtpgfybqjmzeyw.tif,75,0.0666666666666667,0.0666666666666667,0.95,6332.343541625,6333.248381375,13,6332.409605,6332.476620416,6333.26535975,6334.208750291,0,0.904839749999155
131,7,1,categorization,0,bathroom,SHINEd_sun_ambriybtogmepttm.tif,36,0.0666666666666667,0.0666666666666667,0.733333333333333,6334.224575583,6335.388218,13,6334.287547416,6334.347459291,6335.399388333,6336.12606075,1,1.16364241700012
131,8,1,categorization,0,bathroom,SHINEd_sun_acduarbnmmoglmiv.tif,16,0.0666666666666667,0.0666666666666667,1.31666666666667,6336.131419416,6337.076175583,9,6336.193154875,6336.254188625,6337.090004791,6338.400052875,0,0.944756166999468
131,9,1,categorization,0,bathroom,SHINEd_sun_aqrpegblszgcoujh.tif,48,0.0666666666666667,0.0666666666666667,0.8,6338.41958525,6339.36461125,13,6338.48773425,6338.552948916,6339.391313291,6340.184698833,1,0.945026000000325
131,10,1,categorization,0,bathroom,SHINEd_sun_aunuadmjocsddsrl.tif,52,0.0666666666666667,0.0666666666666667,0.716666666666667,6340.195031875,6341.245087708,13,6340.257605708,6340.317803083,6341.253011166,6341.963017916,1,1.05005583300044
131,11,1,categorization,0,kitchen,SHINEd_sun_agorklincwxrdtga.tif,87,0.0666666666666667,0.0666666666666667,0.916666666666667,6341.970561458,6343.1571105,13,6342.032402375,6342.093277666,6343.161539333,6344.071544291,0,1.18654904200048
131,12,1,categorization,0,bathroom,SHINEd_sun_apeeialkgkuxddgh.tif,42,0.0666666666666667,0.0666666666666667,0.95,6344.076845916,6345.212124958,9,6344.138653791,6344.199620916,6345.218026416,6346.161363541,0,1.13527904199964
131,13,1,categorization,0,kitchen,SHINEd_sun_abrcnpqqhmjwekyf.tif,73,0.0666666666666667,0.0666666666666667,0.833333333333333,6346.166547416,6347.2929935,9,6346.228323375,6346.289210583,6347.307884291,6348.13455775,1,1.12644608400024
131,14,1,categorization,0,kitchen,SHINEd_sun_akchetnepxlcxhsu.tif,98,0.0666666666666667,0.0666666666666667,0.75,6348.139949208,6349.068872,13,6348.201656791,6348.26273175,6349.08150875,6349.824846125,0,0.928922791999867
131,15,1,categorization,0,kitchen,SHINEd_sun_aeqdocilnnpuvuhx.tif,83,0.0666666666666667,0.0666666666666667,1.53333333333333,6349.830544166,6350.876624583,13,6349.892323583,6349.953470208,6350.889121666,6352.415833291,0,1.04608041699976
131,16,1,categorization,0,bathroom,SHINEd_sun_ahaulkltgpkeeemi.tif,26,0.0666666666666667,0.0666666666666667,1.05,6352.434824208,6353.425557541,9,6352.501164166,6352.56791575,6353.440343916,6354.483736166,0,0.990733333000207
131,17,1,categorization,0,bathroom,SHINEd_sun_aleqenyvunhactkl.tif,32,0.0666666666666667,0.0666666666666667,0.9,6354.496362166,6355.375827708,9,6354.560964333,6354.627959583,6355.399838416,6356.293214125,0,0.879465541999707
131,18,1,categorization,0,bathroom,SHINEd_sun_ahqjwnzgolcaoidx.tif,29,0.0666666666666667,0.0666666666666667,1.18333333333333,6356.309852083,6357.716942208,9,6356.376291666,6356.443400708,6357.729128583,6358.905855791,0,1.40709012499974
131,19,1,categorization,0,kitchen,SHINEd_sun_aehawpgmrlhlvcow.tif,81,0.0666666666666667,0.0666666666666667,0.9,6358.915747583,6361.764295041,13,6358.984212041,6359.048714916,6361.784743333,6362.678080916,0,2.84854745800021
131,20,1,categorization,0,bathroom,SHINEd_sun_aofnryafpsjimzsb.tif,40,0.0666666666666667,0.0666666666666667,1.66666666666667,6362.683705625,6363.732788,13,6362.745366,6362.806593958,6363.741976,6365.402027875,1,1.04908237500058
131,21,1,categorization,0,kitchen,SHINEd_sun_aapllqyqlykszopd.tif,66,0.0666666666666667,0.0666666666666667,1.13333333333333,6365.42148175,6366.617961833,13,6365.48836475,6365.554716875,6366.64473875,6367.771448666,0,1.1964800830001
131,22,1,categorization,0,bathroom,SHINEd_sun_acegryoqftbzowsg.tif,17,0.0666666666666667,0.0666666666666667,1.3,6367.780856125,6368.628391666,9,6367.846268416,6367.9158725,6368.656103375,6369.949491833,0,0.84753554100007
131,23,1,categorization,0,kitchen,SHINEd_sun_ahpczsiumwwocjkv.tif,92,0.0666666666666667,0.0666666666666667,1.93333333333333,6369.970496416,6371.143416791,9,6370.037285541,6370.10393875,6371.159057708,6373.085781291,1,1.1729203750001
131,24,1,categorization,0,kitchen,SHINEd_sun_acfmftudsenhrfhy.tif,74,0.0666666666666667,0.0666666666666667,1,6373.105825458,6373.895326416,9,6373.170107541,6373.237240333,6373.909691541,6374.903031375,1,0.789500957999735
131,25,1,categorization,0,bathroom,SHINEd_sun_acgyywnybuveqsro.tif,18,0.0666666666666667,0.0666666666666667,0.883333333333333,6374.9090765,6375.732505583,13,6374.970714916,6375.031817375,6375.750311791,6376.626984833,1,0.82342908299961
131,26,1,categorization,0,bathroom,SHINEd_sun_aghyqhbptboemmoq.tif,23,0.0666666666666667,0.0666666666666667,1.95,6376.632568458,6377.372078041,13,6376.694206291,6376.755368291,6377.390441333,6379.333827958,1,0.739509583000654
131,27,1,categorization,0,bathroom,SHINEd_sun_apmqjbnwghzuhhzh.tif,46,0.0666666666666667,0.0666666666666667,1.25,6379.346943125,6380.433505666,13,6379.413862208,6379.475475,6380.447938416,6381.691314958,1,1.0865625410006
131,28,1,categorization,0,kitchen,SHINEd_sun_aixorpehvfykdynp.tif,95,0.0666666666666667,0.0666666666666667,1.95,6381.710070041,6382.52123525,9,6381.777269458,6381.842930083,6382.549802916,6384.493177416,1,0.811165209000137
131,29,1,categorization,0,bathroom,SHINEd_sun_alotolagknyrgtsk.tif,35,0.0666666666666667,0.0666666666666667,1.91666666666667,6384.512824541,6385.337095625,9,6384.580001666,6384.643782208,6385.3659115,6387.2759385,0,0.824271084000429
131,30,1,categorization,0,kitchen,SHINEd_sun_abftihopvusyfakt.tif,71,0.0666666666666667,0.0666666666666667,1.41666666666667,6387.288737208,6388.013304375,9,6387.353829375,6387.420610291,6388.025108291,6389.435165583,1,0.724567166999805
131,31,1,categorization,0,bathroom,SHINEd_sun_azqyogdvyhahyram.tif,60,0.0666666666666667,0.0666666666666667,0.716666666666667,6389.454750541,6390.617521541,13,6389.521883166,6389.587425583,6390.644677291,6391.354682875,1,1.16277100000025
131,32,1,categorization,0,kitchen,SHINEd_sun_ajkqhtgcbgpcwrwn.tif,97,0.0666666666666667,0.0666666666666667,1.28333333333333,6391.359536166,6392.163772,13,6391.421468208,6391.482302625,6392.167713875,6393.44442775,0,0.804235833999883
131,33,1,categorization,0,kitchen,SHINEd_sun_amjjdeyrggfqgmom.tif,100,0.0666666666666667,0.0666666666666667,0.9,6393.462711291,6394.240522916,13,6393.529105083,6393.595794875,6394.26898575,6395.162357916,0,0.77781162500014
131,34,1,categorization,0,bathroom,SHINEd_sun_agguqiubmwhqqunb.tif,22,0.0666666666666667,0.0666666666666667,0.8,6395.17116925,6396.18802725,13,6395.233814208,6395.294109208,6396.19575,6396.98909,1,1.01685799999996
131,35,1,categorization,0,kitchen,SHINEd_sun_agzzivivdpnawacl.tif,89,0.0666666666666667,0.0666666666666667,1.01666666666667,6396.994797541,6397.804791041,9,6397.056631416,6397.11759075,6397.8194805,6398.829518458,1,0.809993500000019
131,36,1,categorization,0,bathroom,SHINEd_sun_aavhrsfjbserjtht.tif,13,0.0666666666666667,0.0666666666666667,0.85,6398.840145666,6399.478097166,9,6398.905637166,6398.971724458,6399.494462416,6400.3378385,0,0.637951499999872
131,37,1,categorization,0,kitchen,SHINEd_sun_aunzlwrbjumxhwdj.tif,103,0.0666666666666667,0.0666666666666667,1.51666666666667,6400.354851208,6401.15666725,13,6400.421794666,6400.487839916,6401.172872333,6402.682909916,0,0.80181604200061
131,38,1,categorization,0,bathroom,SHINEd_sun_asfwthctfqerjvxr.tif,49,0.0666666666666667,0.0666666666666667,1.83333333333333,6402.700473916,6403.525212083,13,6402.767030958,6402.833079375,6403.537945666,6405.364667875,1,0.82473816699985
131,39,1,categorization,0,kitchen,SHINEd_sun_auaiucuqpdausiva.tif,102,0.0666666666666667,0.0666666666666667,0.716666666666667,6405.375921875,6406.088092666,13,6405.443015625,6405.508488291,6406.11375125,6406.823755666,0,0.712170791000062
131,40,1,categorization,0,bathroom,SHINEd_sun_atstyziqcmkahyxk.tif,51,0.0666666666666667,0.0666666666666667,0.9,6406.829719416,6407.516472041,13,6406.8915605,6406.9524805,6407.520919791,6408.414259458,1,0.686752624999826
131,41,1,categorization,0,kitchen,SHINEd_sun_ahywdevtimnqcsln.tif,94,0.0666666666666667,0.0666666666666667,0.916666666666667,6408.420077791,6409.772191291,13,6408.481708375,6408.542819583,6409.778693833,6410.688698708,0,1.35211350000009
131,42,1,categorization,0,bathroom,SHINEd_sun_aclfzgynxzxlbepz.tif,19,0.0666666666666667,0.0666666666666667,0.816666666666667,6410.69441925,6411.47617275,9,6410.756227291,6410.817099666,6411.485595375,6412.295600208,0,0.781753500000377
131,43,1,categorization,0,kitchen,SHINEd_sun_aadbddgrdsjugojn.tif,64,0.0666666666666667,0.0666666666666667,1.88333333333333,6412.300693083,6413.044051,9,6412.362405208,6412.423385708,6413.059265416,6414.935989291,1,0.743357917000139
131,44,1,categorization,0,bathroom,SHINEd_sun_agyqfjcfkdcydepw.tif,25,0.0666666666666667,0.0666666666666667,0.9,6414.954797041,6415.77526925,9,6415.021668833,6415.087924041,6415.794708333,6416.68804825,0,0.82047220899949
131,45,1,categorization,0,kitchen,SHINEd_sun_aarfiyshqohlwkmo.tif,67,0.0666666666666667,0.0666666666666667,1,6416.693686208,6417.588556333,13,6416.755432291,6416.816436708,6417.601628,6418.594966541,0,0.894870125000125
131,46,1,categorization,0,kitchen,SHINEd_sun_aexklacwqwezaorf.tif,84,0.0666666666666667,0.0666666666666667,0.733333333333333,6418.600596708,6419.404583333,13,6418.662310125,6418.723341333,6419.408407375,6420.135078416,0,0.803986625000107
131,47,1,categorization,0,kitchen,SHINEd_sun_ahspylgoovwmwvgk.tif,93,0.0666666666666667,0.0666666666666667,0.883333333333333,6420.14073775,6420.996170125,9,6420.202376541,6420.263467583,6421.015354083,6421.892025875,1,0.855432375000419
131,48,1,categorization,0,kitchen,SHINEd_sun_admlmbcdswaszruo.tif,79,0.0666666666666667,0.0666666666666667,1.73333333333333,6421.897343625,6422.748440083,9,6421.959012958,6422.02009975,6422.755217416,6424.481941166,1,0.851096458000029
131,49,1,categorization,0,bathroom,SHINEd_sun_alkosphxlxwjwgjd.tif,34,0.0666666666666667,0.0666666666666667,1.91666666666667,6424.500143125,6425.153045333,13,6424.5668255,6424.632665791,6425.170757916,6427.080802125,1,0.652902207999432
131,50,1,categorization,0,kitchen,SHINEd_sun_auticobqsbwgoppi.tif,104,0.0666666666666667,0.0666666666666667,1.35,6427.095906583,6427.741755625,13,6427.160155333,6427.2270785,6427.76657725,6429.109948166,0,0.645849042000009
131,1,2,categorization,0,bathroom,SHINEd_sun_ausgutylgojavyoq.tif,53,0.0666666666666667,0.0666666666666667,0.95,6436.784138791,6437.748304333,13,6436.846663541,6436.907589083,6437.759471916,6438.702811041,1,0.964165542000046
131,2,2,categorization,0,kitchen,SHINEd_sun_adgqasybjyktddhj.tif,78,0.0666666666666667,0.0666666666666667,0.75,6438.708465208,6439.468197625,9,6438.770274333,6438.831195375,6439.48329575,6440.226634041,1,0.759732417000123
131,3,2,categorization,0,bathroom,SHINEd_sun_anryaplzeujmzfkd.tif,39,0.0666666666666667,0.0666666666666667,1.68333333333333,6440.232139666,6440.844703208,9,6440.293896208,6440.354821166,6440.856954541,6442.533666041,0,0.612563542000316
131,4,2,categorization,0,kitchen,SHINEd_labelme_rykdqxenmhulbdn.tif,63,0.0666666666666667,0.0666666666666667,0.816666666666667,6442.552687125,6443.35155525,13,6442.61976675,6442.686259041,6443.375682208,6444.185688541,0,0.798868124999899
131,5,2,categorization,0,bathroom,SHINEd_sun_avhrdrntsqrjzccq.tif,55,0.0666666666666667,0.0666666666666667,0.916666666666667,6444.191280083,6444.924390208,9,6444.252921166,6444.313963875,6444.933100416,6445.843107083,0,0.733110125000167
131,6,2,categorization,0,bathroom,SHINEd_sun_ajlawzvmubibwbpy.tif,30,0.0666666666666667,0.0666666666666667,1.21666666666667,6445.848801666,6446.836674083,9,6445.9104075,6445.971534541,6446.840271583,6448.050327666,0,0.98787241699938
131,7,2,categorization,0,bathroom,SHINEd_sun_apkruvsevgegsdwp.tif,44,0.0666666666666667,0.0666666666666667,0.9,6448.067432041,6448.724362625,13,6448.135469916,6448.200604333,6448.739927875,6449.633296791,1,0.656930584000293
131,8,2,categorization,0,bathroom,SHINEd_sun_ahcvzmoyaycdoftf.tif,27,0.0666666666666667,0.0666666666666667,1.65,6449.650876375,6450.468447375,13,6449.717774166,6449.784347958,6450.486822041,6452.130208041,1,0.817571000000498
131,9,2,categorization,0,bathroom,SHINEd_sun_aoybiabnpadelefl.tif,41,0.0666666666666667,0.0666666666666667,1.15,6452.148133,6453.068957208,9,6452.215157458,6452.281358166,6453.087458958,6454.230844791,0,0.92082420800034
131,10,2,categorization,0,bathroom,SHINEd_sun_auzqhkafidnkrwmo.tif,54,0.0666666666666667,0.0666666666666667,1.13333333333333,6454.241310625,6455.079390375,13,6454.308212916,6454.374533583,6455.097619666,6456.224336666,1,0.838079750000361
131,11,2,categorization,0,kitchen,SHINEd_sun_aenotlpyftoioydp.tif,82,0.0666666666666667,0.0666666666666667,1.76666666666667,6456.236429125,6457.189578625,9,6456.301855291,6456.369110458,6457.208076333,6458.968131166,1,0.953149500000109
131,12,2,categorization,0,kitchen,SHINEd_sun_abpwyqmlzafvklqo.tif,72,0.0666666666666667,0.0666666666666667,1.8,6458.987737708,6459.631956583,9,6459.054895041,6459.12069075,6459.661117583,6461.454488125,1,0.644218874999751
131,13,2,categorization,0,bathroom,SHINEd_sun_aspsyogrekjtfozg.tif,50,0.0666666666666667,0.0666666666666667,0.9,6461.472569875,6462.293909333,13,6461.539818125,6461.60599525,6462.312523125,6463.205861916,1,0.821339457999784
131,14,2,categorization,0,bathroom,SHINEd_sun_abapwbhyhkfixyex.tif,14,0.0666666666666667,0.0666666666666667,0.716666666666667,6463.211170458,6464.612254708,13,6463.272999958,6463.33407075,6464.620054666,6465.330060625,1,1.40108425000017
131,15,2,categorization,0,bathroom,SHINEd_labelme_sfxiulhjbhlyiyt.tif,11,0.0666666666666667,0.0666666666666667,1.36666666666667,6465.336043791,6466.3321555,9,6465.397878708,6465.458791541,6466.343925416,6467.703979583,0,0.996111709000616
131,16,2,categorization,0,kitchen,SHINEd_sun_ahdycvpopffkzzsu.tif,90,0.0666666666666667,0.0666666666666667,0.916666666666667,6467.72027525,6468.571570125,9,6467.787044375,6467.853405833,6468.594109041,6469.504113958,1,0.851294875000349
131,17,2,categorization,0,kitchen,SHINEd_sun_aegoxogugdkwpmpj.tif,80,0.0666666666666667,0.0666666666666667,0.716666666666667,6469.509979083,6470.284478791,13,6469.571527708,6469.632677458,6470.301557333,6471.011562041,0,0.774499707999894
131,18,2,categorization,0,bathroom,SHINEd_sun_aljolscmmzydegqp.tif,33,0.0666666666666667,0.0666666666666667,0.766666666666667,6471.017099291,6471.811806333,13,6471.078989041,6471.140239625,6471.825698041,6472.585701875,1,0.794707042000482
131,19,2,categorization,0,kitchen,SHINEd_sun_aamedkxepzlwuxes.tif,65,0.0666666666666667,0.0666666666666667,1.06666666666667,6472.590977666,6473.428107541,9,6472.652537291,6472.713893625,6473.432373375,6474.492422708,1,0.837129874999846
131,20,2,categorization,0,bathroom,SHINEd_sun_abjtwfukuwddzted.tif,15,0.0666666666666667,0.0666666666666667,0.8,6474.503704041,6475.291279333,13,6474.56885925,6474.635217458,6475.306452583,6476.099828958,1,0.787575291999929
131,21,2,categorization,0,kitchen,SHINEd_sun_aqeaevwwwjoqhzvl.tif,101,0.0666666666666667,0.0666666666666667,0.866666666666667,6476.116193,6477.37223475,13,6476.18253125,6476.248841208,6477.384445125,6478.244450458,0,1.25604174999989
131,22,2,categorization,0,bathroom,SHINEd_sun_apkxzenqapsujocq.tif,45,0.0666666666666667,0.0666666666666667,1.48333333333333,6478.249815125,6478.996524208,9,6478.311521333,6478.37251175,6479.008114833,6480.4848375,0,0.746709082999587
131,23,2,categorization,0,kitchen,SHINEd_sun_agubuxuukhzyzpdp.tif,88,0.0666666666666667,0.0666666666666667,1.1,6480.504462958,6481.604949958,13,6480.571440791,6480.63746475,6481.627905291,6482.721291833,0,1.10048700000061
131,24,2,categorization,0,kitchen,SHINEd_sun_ahljzhgcdpomplvg.tif,91,0.0666666666666667,0.0666666666666667,0.783333333333333,6482.730431041,6483.846274958,13,6482.795949375,6482.863569833,6483.870402,6484.647103958,0,1.11584391700035
131,25,2,categorization,0,kitchen,SHINEd_labelme_kxvouciolcpqplr.tif,62,0.0666666666666667,0.0666666666666667,0.866666666666667,6484.654290625,6485.940452583,9,6484.716248916,6484.777050666,6485.946380083,6486.806386083,1,1.28616195799987
131,26,2,categorization,0,bathroom,SHINEd_sun_aggnnqpdorgxpvce.tif,21,0.0666666666666667,0.0666666666666667,1.83333333333333,6486.812045458,6487.69223025,9,6486.87384425,6486.934931083,6487.703522041,6489.530250625,0,0.880184791999454
131,27,2,categorization,0,kitchen,SHINEd_sun_aypmqwcualkenuoe.tif,109,0.0666666666666667,0.0666666666666667,0.7,6489.547647708,6490.411148791,9,6489.61445225,6489.680694541,6490.437106166,6491.130446083,1,0.863501083000301
131,28,2,categorization,0,kitchen,SHINEd_sun_abdxkyyxwfskuaqb.tif,70,0.0666666666666667,0.0666666666666667,1.33333333333333,6491.136112291,6491.795387,13,6491.197794375,6491.258874333,6491.810858208,6493.137563208,0,0.659274708999874
131,29,2,categorization,0,kitchen,SHINEd_labelme_brsyyvweiuaazfr.tif,61,0.0666666666666667,0.0666666666666667,1.33333333333333,6493.151127416,6494.389889,13,6493.215500458,6493.283965458,6494.408017833,6495.734722083,0,1.2387615839998
131,30,2,categorization,0,bathroom,SHINEd_sun_apynckhmoftszqoq.tif,47,0.0666666666666667,0.0666666666666667,1.38333333333333,6495.755091625,6496.501110208,9,6495.822225125,6495.888182458,6496.528934541,6497.905656,0,0.746018582999568
131,31,2,categorization,0,kitchen,SHINEd_sun_avszsnwsbuqfgzbn.tif,105,0.0666666666666667,0.0666666666666667,1.25,6497.923356041,6498.535311791,13,6497.990645791,6498.057304916,6498.564632458,6499.808016541,0,0.611955749999652
131,32,2,categorization,0,bathroom,SHINEd_sun_amzlamotzwfkwjco.tif,37,0.0666666666666667,0.0666666666666667,1.55,6499.827117291,6500.64618325,9,6499.894703458,6499.960233625,6500.667214916,6502.210601375,0,0.819065959
131,33,2,categorization,0,bathroom,SHINEd_sun_awnqiikzaispgmwo.tif,56,0.0666666666666667,0.0666666666666667,1.61666666666667,6502.229155541,6502.8000245,9,6502.296297625,6502.362359166,6502.8196165,6504.429667666,0,0.570868959000109
131,34,2,categorization,0,kitchen,SHINEd_sun_akcjzhbbjlbogpdi.tif,99,0.0666666666666667,0.0666666666666667,1.33333333333333,6504.446720833,6505.1524355,13,6504.513614416,6504.580307833,6505.168466583,6506.495191333,0,0.705714667000393
131,35,2,categorization,0,bathroom,SHINEd_sun_afcoljnjfoxjtgja.tif,20,0.0666666666666667,0.0666666666666667,0.833333333333333,6506.51468025,6507.214221416,13,6506.581798541,6506.647463083,6507.236243625,6508.062966875,1,0.699541166000017
131,36,2,categorization,0,kitchen,SHINEd_sun_acxkpeoqbwcxfvip.tif,77,0.0666666666666667,0.0666666666666667,1.45,6508.079300583,6508.81946825,9,6508.146127708,6508.204927083,6508.823927833,6510.267307583,1,0.740167666999696
131,37,2,categorization,0,kitchen,SHINEd_sun_azmutvzbxypaceni.tif,110,0.0666666666666667,0.0666666666666667,0.933333333333333,6510.284313333,6511.071619,13,6510.352280875,6510.417769333,6511.08972975,6512.016401041,0,0.78730566700051
131,38,2,categorization,0,bathroom,SHINEd_sun_apjevzvycyhuqghb.tif,43,0.0666666666666667,0.0666666666666667,1.65,6512.0222945,6512.980349916,9,6512.0840945,6512.145086041,6512.996991875,6514.640387,0,0.958055416000207
131,39,2,categorization,0,kitchen,SHINEd_sun_aymvwlarqodbwuoc.tif,108,0.0666666666666667,0.0666666666666667,1.23333333333333,6514.657601291,6515.576533291,13,6514.724551041,6514.791123958,6515.59702025,6516.823741041,0,0.918931999999586
131,40,2,categorization,0,bathroom,SHINEd_sun_axyrejkiiaqiurjk.tif,59,0.0666666666666667,0.0666666666666667,0.766666666666667,6516.843455083,6517.726163416,13,6516.9108785,6516.978008666,6517.750094166,6518.510150833,1,0.882708333000664
131,41,2,categorization,0,kitchen,SHINEd_sun_aaxxjlsuzvqlgylf.tif,68,0.0666666666666667,0.0666666666666667,1.78333333333333,6518.526550458,6519.476353708,13,6518.594233375,6518.653698833,6519.488867041,6521.265570375,0,0.949803249999604
131,42,2,categorization,0,bathroom,SHINEd_sun_axxbkopsgyouuebh.tif,58,0.0666666666666667,0.0666666666666667,1.11666666666667,6521.276062833,6522.043151541,9,6521.341716791,6521.409271375,6522.066203125,6523.176244125,0,0.767088708000301
131,43,2,categorization,0,bathroom,SHINEd_sun_aapitsgbtktqubfy.tif,12,0.0666666666666667,0.0666666666666667,1.85,6523.186355458,6524.228161791,13,6523.251629125,6523.317966583,6524.258228708,6526.101609958,1,1.04180633299984
131,44,2,categorization,0,kitchen,SHINEd_sun_afuyedyxivkhecmu.tif,85,0.0666666666666667,0.0666666666666667,0.733333333333333,6526.120916458,6527.004479416,9,6526.188100916,6526.254239291,6527.028317958,6527.754990666,1,0.883562958000766
131,45,2,categorization,0,bathroom,SHINEd_sun_akiytfaagpdsphgz.tif,31,0.0666666666666667,0.0666666666666667,0.783333333333333,6527.76100775,6528.739442041,9,6527.822700666,6527.883829625,6528.752568291,6529.529240541,0,0.978434290999758
131,46,2,categorization,0,kitchen,SHINEd_sun_abdenxonkemggwsq.tif,69,0.0666666666666667,0.0666666666666667,1.5,6529.535877708,6530.564105166,9,6529.597868666,6529.658687583,6530.5774895,6532.070882166,1,1.0282274580004
131,47,2,categorization,0,kitchen,SHINEd_sun_aggjlwcdjsjcaemh.tif,86,0.0666666666666667,0.0666666666666667,0.733333333333333,6532.088934208,6532.872808375,13,6532.156147125,6532.221994833,6532.895505791,6533.6222285,0,0.783874167000249
131,48,2,categorization,0,bathroom,SHINEd_sun_axldvoqbuvuggfmq.tif,57,0.0666666666666667,0.0666666666666667,1.1,6533.6304145,6535.179951,13,6533.69269375,6533.753191791,6535.188563041,6536.281956166,1,1.5495364999997
131,49,2,categorization,0,kitchen,SHINEd_sun_ajcbwwvdlsvjyzje.tif,96,0.0666666666666667,0.0666666666666667,1.6,6536.291656375,6537.316914083,9,6536.357366625,6536.424872,6537.329614458,6538.922985,1,1.02525770800003
131,50,2,categorization,0,bathroom,SHINEd_sun_anhioqovhscjqqwb.tif,38,0.0666666666666667,0.0666666666666667,1.06666666666667,6538.941422041,6540.015146041,13,6539.008579041,6539.074546291,6540.031020875,6541.09106925,1,1.07372399999986
131,1,3,categorization,0,bathroom,SHINEd_sun_ahaulkltgpkeeemi.tif,26,0.0666666666666667,0.0666666666666667,0.85,6548.359742583,6549.212005958,13,6548.422216291,6548.482502708,6549.217687458,6550.061025708,1,0.852263374999893
131,2,3,categorization,0,bathroom,SHINEd_sun_akiytfaagpdsphgz.tif,31,0.0666666666666667,0.0666666666666667,1.65,6550.066758583,6551.1637195,9,6550.128502291,6550.189759666,6551.174788041,6552.818165041,0,1.09696091700062
131,3,3,categorization,0,kitchen,SHINEd_sun_aadbddgrdsjugojn.tif,64,0.0666666666666667,0.0666666666666667,0.783333333333333,6552.834502291,6553.729526,9,6552.901482416,6552.967710458,6553.75794325,6554.534613583,1,0.89502370900027
131,4,3,categorization,0,kitchen,SHINEd_sun_acgtpgfybqjmzeyw.tif,75,0.0666666666666667,0.0666666666666667,0.933333333333333,6554.539571083,6555.323425125,9,6554.601280958,6554.662348875,6555.330903208,6556.257573791,1,0.783854041999803
131,5,3,categorization,0,kitchen,SHINEd_sun_acxkpeoqbwcxfvip.tif,77,0.0666666666666667,0.0666666666666667,0.866666666666667,6556.263349041,6556.979437583,9,6556.324983375,6556.38601025,6556.988048333,6557.848054166,1,0.716088541999852
131,6,3,categorization,0,kitchen,SHINEd_sun_aggjlwcdjsjcaemh.tif,86,0.0666666666666667,0.0666666666666667,1.11666666666667,6557.853751041,6558.619421875,13,6557.915407083,6557.976466583,6558.628657375,6559.738718958,0,0.765670834000048
131,7,3,categorization,0,kitchen,SHINEd_sun_aexklacwqwezaorf.tif,84,0.0666666666666667,0.0666666666666667,0.966666666666667,6559.748557708,6560.54304225,13,6559.813472458,6559.881598625,6560.571595,6561.531648583,0,0.794484542000646
131,8,3,categorization,0,bathroom,SHINEd_sun_ajlawzvmubibwbpy.tif,30,0.0666666666666667,0.0666666666666667,1.78333333333333,6561.548076708,6563.083837833,13,6561.614897291,6561.673251541,6563.092239,6564.868944458,1,1.53576112500014
131,9,3,categorization,0,bathroom,SHINEd_sun_axldvoqbuvuggfmq.tif,57,0.0666666666666667,0.0666666666666667,1.55,6564.889080208,6566.131472916,13,6564.956131125,6565.021952916,6566.166001416,6567.709374583,1,1.2423927079999
131,10,3,categorization,0,bathroom,SHINEd_sun_apynckhmoftszqoq.tif,47,0.0666666666666667,0.0666666666666667,1.41666666666667,6567.727595375,6568.722748125,13,6567.794919833,6567.860525333,6568.750830625,6570.160880083,1,0.995152749999761
131,11,3,categorization,0,bathroom,SHINEd_sun_axxbkopsgyouuebh.tif,58,0.0666666666666667,0.0666666666666667,0.8,6570.178708583,6570.96301675,13,6570.24718475,6570.311237416,6570.984627541,6571.777999291,1,0.784308166999836
131,12,3,categorization,0,kitchen,SHINEd_sun_abpwyqmlzafvklqo.tif,72,0.0666666666666667,0.0666666666666667,1.28333333333333,6571.794481791,6572.963583291,13,6571.860813375,6571.918783125,6572.971367666,6574.248094041,0,1.16910149999967
131,13,3,categorization,0,bathroom,SHINEd_sun_aggnnqpdorgxpvce.tif,21,0.0666666666666667,0.0666666666666667,1.66666666666667,6574.265280625,6574.839736375,9,6574.333567875,6574.398291625,6574.853859375,6576.513915375,0,0.574455750000197
131,14,3,categorization,0,bathroom,SHINEd_sun_ausgutylgojavyoq.tif,53,0.0666666666666667,0.0666666666666667,1.81666666666667,6576.532575416,6577.268066708,9,6576.59986425,6576.66526275,6577.287857458,6579.097897375,0,0.735491292000006
131,15,3,categorization,0,bathroom,SHINEd_sun_avhrdrntsqrjzccq.tif,55,0.0666666666666667,0.0666666666666667,1.35,6579.11626625,6579.900323833,9,6579.181365458,6579.247555291,6579.921156708,6581.264538583,0,0.784057582999594
131,16,3,categorization,0,bathroom,SHINEd_sun_alkosphxlxwjwgjd.tif,34,0.0666666666666667,0.0666666666666667,0.916666666666667,6581.283040958,6582.16939375,9,6581.347760208,6581.416274875,6582.189706916,6583.099712416,0,0.886352792000253
131,17,3,categorization,0,kitchen,SHINEd_sun_aypmqwcualkenuoe.tif,109,0.0666666666666667,0.0666666666666667,0.916666666666667,6583.10576225,6584.107490291,9,6583.167424291,6583.2285155,6584.114137958,6585.024143416,1,1.00172804100021
131,18,3,categorization,0,bathroom,SHINEd_sun_ahijqszoswveeyji.tif,28,0.0666666666666667,0.0666666666666667,1.31666666666667,6585.02984125,6585.63591475,13,6585.09169125,6585.152609375,6585.654762541,6586.964811458,1,0.606073500000093
131,19,3,categorization,0,bathroom,SHINEd_sun_aapitsgbtktqubfy.tif,12,0.0666666666666667,0.0666666666666667,1.45,6586.98303925,6587.75198825,13,6587.049292958,6587.115630416,6587.771918666,6589.2152735,1,0.768949000000248
131,20,3,categorization,0,kitchen,SHINEd_labelme_brsyyvweiuaazfr.tif,61,0.0666666666666667,0.0666666666666667,0.95,6589.224745875,6590.075984916,13,6589.2920065,6589.352942083,6590.092167416,6591.035507208,0,0.851239041000554
131,21,3,categorization,0,bathroom,SHINEd_sun_aghyqhbptboemmoq.tif,23,0.0666666666666667,0.0666666666666667,1.38333333333333,6591.041336208,6591.747144,9,6591.102999875,6591.164136708,6591.7662465,6593.142968583,0,0.705807792000087
131,22,3,categorization,0,bathroom,SHINEd_sun_aljolscmmzydegqp.tif,33,0.0666666666666667,0.0666666666666667,1.16666666666667,6593.157763375,6593.795306583,9,6593.222975708,6593.290254541,6593.812582958,6594.97264,0,0.637543207999443
131,23,3,categorization,0,kitchen,SHINEd_sun_aqeaevwwwjoqhzvl.tif,101,0.0666666666666667,0.0666666666666667,1.61666666666667,6594.9837835,6595.840205333,9,6595.052018333,6595.117356833,6595.858302416,6597.468341,1,0.85642183300024
131,24,3,categorization,0,bathroom,SHINEd_sun_apjevzvycyhuqghb.tif,43,0.0666666666666667,0.0666666666666667,1.38333333333333,6597.487384083,6598.165650875,13,6597.554735791,6597.621042833,6598.194826,6599.571550541,1,0.678266792000613
131,25,3,categorization,0,kitchen,SHINEd_sun_abdenxonkemggwsq.tif,69,0.0666666666666667,0.0666666666666667,1.78333333333333,6599.590084333,6600.325552333,13,6599.657433,6599.723354625,6600.347865541,6602.124585791,0,0.735467999999855
131,26,3,categorization,0,kitchen,SHINEd_sun_ahywdevtimnqcsln.tif,94,0.0666666666666667,0.0666666666666667,0.783333333333333,6602.143818291,6603.044967375,13,6602.211409041,6602.277372083,6603.068009041,6603.844681875,0,0.901149084000281
131,27,3,categorization,0,bathroom,SHINEd_sun_alotolagknyrgtsk.tif,35,0.0666666666666667,0.0666666666666667,1.65,6603.852259791,6604.579511875,9,6603.914073625,6603.975088666,6604.593697291,6606.237078291,0,0.727252084000611
131,28,3,categorization,0,kitchen,SHINEd_sun_abrcnpqqhmjwekyf.tif,73,0.0666666666666667,0.0666666666666667,1.86666666666667,6606.254735291,6607.035883666,9,6606.321554291,6606.387579791,6607.060926666,6608.920971,1,0.781148375000157
131,29,3,categorization,0,bathroom,SHINEd_sun_apeeialkgkuxddgh.tif,42,0.0666666666666667,0.0666666666666667,1.23333333333333,6608.940089583,6609.621863208,9,6609.006905541,6609.073046833,6609.647267041,6610.873969666,0,0.681773624999551
131,30,3,categorization,0,kitchen,SHINEd_sun_auticobqsbwgoppi.tif,104,0.0666666666666667,0.0666666666666667,0.7,6610.892228208,6611.612265916,13,6610.959363166,6611.025772083,6611.630549833,6612.323930875,0,0.720037707999836
131,31,3,categorization,0,bathroom,SHINEd_sun_aunuadmjocsddsrl.tif,52,0.0666666666666667,0.0666666666666667,0.716666666666667,6612.337885625,6613.115877791,13,6612.404767333,6612.470509,6613.123072333,6613.833078,1,0.777992165999422
131,32,3,categorization,0,bathroom,SHINEd_sun_auzqhkafidnkrwmo.tif,54,0.0666666666666667,0.0666666666666667,1.05,6613.838667333,6615.003185,9,6613.90043625,6613.961430541,6615.013998625,6616.057368333,0,1.16451766699993
131,33,3,categorization,0,kitchen,SHINEd_sun_acfmftudsenhrfhy.tif,74,0.0666666666666667,0.0666666666666667,1.1,6616.070569458,6616.933920833,9,6616.135424125,6616.201800083,6616.959623041,6618.053002625,1,0.863351375000093
131,34,3,categorization,0,kitchen,SHINEd_sun_avszsnwsbuqfgzbn.tif,105,0.0666666666666667,0.0666666666666667,1.13333333333333,6618.072369416,6618.963539083,9,6618.134496583,6618.195220916,6618.980534875,6620.1072385,1,0.891169667000213
131,35,3,categorization,0,bathroom,SHINEd_sun_acgyywnybuveqsro.tif,18,0.0666666666666667,0.0666666666666667,1.38333333333333,6620.117094583,6620.8440375,13,6620.182514125,6620.249839958,6620.873106833,6622.249830583,1,0.726942917000088
131,36,3,categorization,0,kitchen,SHINEd_sun_ajkqhtgcbgpcwrwn.tif,97,0.0666666666666667,0.0666666666666667,1.5,6622.268243416,6623.149882333,9,6622.335491208,6622.401145833,6623.172733791,6624.666116375,1,0.8816389170006
131,37,3,categorization,0,kitchen,SHINEd_sun_aehawpgmrlhlvcow.tif,81,0.0666666666666667,0.0666666666666667,1.61666666666667,6624.684597208,6625.526750333,9,6624.751060125,6624.817875375,6625.540360375,6627.150403166,1,0.842153124999641
131,38,3,categorization,0,bathroom,SHINEd_sun_aofnryafpsjimzsb.tif,40,0.0666666666666667,0.0666666666666667,0.983333333333333,6627.161307958,6627.969256,9,6627.226312458,6627.29435225,6627.983709958,6628.960383333,0,0.807948042000135
131,39,3,categorization,0,kitchen,SHINEd_sun_admlmbcdswaszruo.tif,79,0.0666666666666667,0.0666666666666667,1.3,6628.966257,6629.690972875,13,6629.028030916,6629.089074333,6629.707609375,6631.001004458,0,0.724715874999674
131,40,3,categorization,0,bathroom,SHINEd_sun_azqyogdvyhahyram.tif,60,0.0666666666666667,0.0666666666666667,1.03333333333333,6631.020316041,6631.727922833,13,6631.087255208,6631.152736166,6631.741886416,6632.768602041,1,0.707606791999751
131,41,3,categorization,0,kitchen,SHINEd_sun_aarfiyshqohlwkmo.tif,67,0.0666666666666667,0.0666666666666667,1.45,6632.787352291,6633.499708125,9,6632.849903916,6632.910122541,6633.511976208,6634.955372375,1,0.712355833999936
131,42,3,categorization,0,kitchen,SHINEd_sun_ahljzhgcdpomplvg.tif,91,0.0666666666666667,0.0666666666666667,1.23333333333333,6634.972228916,6635.738721791,9,6635.038910083,6635.104722166,6635.761193708,6636.987898875,1,0.76649287500004
131,43,3,categorization,0,bathroom,SHINEd_sun_agrwbmhcpmfuwmsg.tif,24,0.0666666666666667,0.0666666666666667,1.26666666666667,6637.005050333,6637.559490791,9,6637.071851708,6637.137988708,6637.577525958,6638.837568458,0,0.55444045799959
131,44,3,categorization,0,bathroom,SHINEd_sun_abapwbhyhkfixyex.tif,14,0.0666666666666667,0.0666666666666667,1.03333333333333,6638.845933125,6639.762859833,9,6638.908347958,6638.968821791,6639.770961083,6640.797666125,0,0.916926708000574
131,45,3,categorization,0,kitchen,SHINEd_labelme_rykdqxenmhulbdn.tif,63,0.0666666666666667,0.0666666666666667,1.31666666666667,6640.811477083,6641.847001291,9,6640.876854,6640.943150291,6641.866077,6643.176135458,1,1.03552420800042
131,46,3,categorization,0,bathroom,SHINEd_sun_apkruvsevgegsdwp.tif,44,0.0666666666666667,0.0666666666666667,1.7,6643.186637666,6643.987540041,13,6643.25092225,6643.319217041,6644.009115583,6645.702504875,1,0.800902375000078
131,47,3,categorization,0,kitchen,SHINEd_sun_azmutvzbxypaceni.tif,110,0.0666666666666667,0.0666666666666667,1.35,6645.720477375,6646.536955916,13,6645.787240458,6645.853220625,6646.559286708,6647.902681291,0,0.816478540999924
131,48,3,categorization,0,kitchen,SHINEd_sun_aamedkxepzlwuxes.tif,65,0.0666666666666667,0.0666666666666667,0.8,6647.920536458,6648.682567125,13,6647.987491541,6648.053619958,6648.710360833,6649.503736375,0,0.762030666999635
131,49,3,categorization,0,kitchen,SHINEd_sun_aapllqyqlykszopd.tif,66,0.0666666666666667,0.0666666666666667,0.766666666666667,6649.520360416,6650.363472541,13,6649.586916875,6649.653422083,6650.372643958,6651.132649041,0,0.843112125000516
131,50,3,categorization,0,kitchen,SHINEd_sun_aaxxjlsuzvqlgylf.tif,68,0.0666666666666667,0.0666666666666667,1.38333333333333,6651.138524625,6651.851527458,13,6651.200178375,6651.261298416,6651.863608916,6653.240332416,0,0.713002833000246
131,1,4,categorization,0,kitchen,SHINEd_sun_abftihopvusyfakt.tif,71,0.0666666666666667,0.0666666666666667,1,6660.1831255,6661.099135541,13,6660.245615791,6660.306393666,6661.108794833,6662.102132666,0,0.916010040999936
131,2,4,categorization,0,bathroom,SHINEd_sun_anhioqovhscjqqwb.tif,38,0.0666666666666667,0.0666666666666667,0.966666666666667,6662.107925416,6662.891774958,13,6662.169666708,6662.230691375,6662.899559375,6663.859564291,1,0.783849541999189
131,3,4,categorization,0,bathroom,SHINEd_sun_apkxzenqapsujocq.tif,45,0.0666666666666667,0.0666666666666667,1.75,6663.865236208,6664.682876,9,6663.926856,6663.987977666,6664.689771458,6666.433143208,0,0.817639791999682
131,4,4,categorization,0,kitchen,SHINEd_sun_ahspylgoovwmwvgk.tif,93,0.0666666666666667,0.0666666666666667,1.68333333333333,6666.4549345,6667.27134675,9,6666.521558208,6666.5878835,6667.29511525,6668.971829458,1,0.816412250000212
131,5,4,categorization,0,bathroom,SHINEd_sun_agguqiubmwhqqunb.tif,22,0.0666666666666667,0.0666666666666667,1.58333333333333,6668.987935,6669.89665875,9,6669.055020541,6669.12096675,6669.910575541,6671.487284208,0,0.908723749999808
131,6,4,categorization,0,kitchen,SHINEd_labelme_kxvouciolcpqplr.tif,62,0.0666666666666667,0.0666666666666667,1,6671.505163958,6672.131065208,13,6671.572427166,6671.638110208,6672.161519541,6673.154859166,0,0.625901250000425
131,7,4,categorization,0,kitchen,SHINEd_sun_ajcbwwvdlsvjyzje.tif,96,0.0666666666666667,0.0666666666666667,1.33333333333333,6673.160608041,6674.538807833,13,6673.2223525,6673.283347291,6674.552300791,6675.879018458,0,1.37819979199958
131,8,4,categorization,0,kitchen,SHINEd_sun_awcpdzzznmweyyhv.tif,106,0.0666666666666667,0.0666666666666667,1.26666666666667,6675.895266625,6676.71805825,9,6675.963570291,6676.028239958,6676.734232875,6677.99428825,1,0.822791624999809
131,9,4,categorization,0,bathroom,SHINEd_sun_ambriybtogmepttm.tif,36,0.0666666666666667,0.0666666666666667,0.883333333333333,6678.012271166,6678.634495875,9,6678.079342375,6678.145096291,6678.651313666,6679.528040541,0,0.622224708999966
131,10,4,categorization,0,kitchen,SHINEd_sun_abdxkyyxwfskuaqb.tif,70,0.0666666666666667,0.0666666666666667,1.26666666666667,6679.544451291,6680.923591666,13,6679.611410625,6679.677411125,6680.930434875,6682.19049425,0,1.37914037500013
131,11,4,categorization,0,bathroom,SHINEd_sun_ahcvzmoyaycdoftf.tif,27,0.0666666666666667,0.0666666666666667,2,6682.208749208,6683.106529666,13,6682.275659875,6682.342101916,6683.132666916,6685.126060916,1,0.897780457999943
131,12,4,categorization,0,bathroom,SHINEd_labelme_sfxiulhjbhlyiyt.tif,11,0.0666666666666667,0.0666666666666667,0.733333333333333,6685.143615708,6685.822069625,13,6685.209263666,6685.276784958,6685.850086875,6686.576759583,1,0.678453917000297
131,13,4,categorization,0,bathroom,SHINEd_sun_awnqiikzaispgmwo.tif,56,0.0666666666666667,0.0666666666666667,0.883333333333333,6686.582632083,6687.3552235,9,6686.644429291,6686.705393583,6687.373868208,6688.25054,0,0.772591416999603
131,14,4,categorization,0,bathroom,SHINEd_sun_atstyziqcmkahyxk.tif,51,0.0666666666666667,0.0666666666666667,0.983333333333333,6688.256261875,6689.146577125,13,6688.317827625,6688.3790995,6689.164616375,6690.141289958,1,0.89031524999973
131,15,4,categorization,0,bathroom,SHINEd_sun_apmqjbnwghzuhhzh.tif,46,0.0666666666666667,0.0666666666666667,1.56666666666667,6690.147113708,6690.923106625,13,6690.208919416,6690.269828208,6690.93838575,6692.498434416,1,0.775992917000622
131,16,4,categorization,0,bathroom,SHINEd_sun_ahqjwnzgolcaoidx.tif,29,0.0666666666666667,0.0666666666666667,1.08333333333333,6692.517134791,6693.236547833,13,6692.584065666,6692.64979075,6693.25487675,6694.331596375,1,0.719413042000269
131,17,4,categorization,0,kitchen,SHINEd_sun_adgqasybjyktddhj.tif,78,0.0666666666666667,0.0666666666666667,0.75,6694.342769208,6695.607894708,9,6694.4077035,6694.47479625,6695.633821833,6696.377160916,1,1.26512549999916
131,18,4,categorization,0,bathroom,SHINEd_sun_aoybiabnpadelefl.tif,41,0.0666666666666667,0.0666666666666667,0.966666666666667,6696.38279575,6697.21157,13,6696.444640583,6696.50555425,6697.22393475,6698.183941083,1,0.828774250000606
131,19,4,categorization,0,kitchen,SHINEd_sun_ahpczsiumwwocjkv.tif,92,0.0666666666666667,0.0666666666666667,1.63333333333333,6698.189660541,6699.179605833,9,6698.251399083,6698.312404083,6699.197571958,6700.824299666,1,0.989945291999902
131,20,4,categorization,0,bathroom,SHINEd_sun_amzlamotzwfkwjco.tif,37,0.0666666666666667,0.0666666666666667,1.46666666666667,6700.842755125,6701.644780958,9,6700.909499916,6700.975590291,6701.665380291,6703.125427291,0,0.802025833000698
131,21,4,categorization,0,bathroom,SHINEd_sun_anryaplzeujmzfkd.tif,39,0.0666666666666667,0.0666666666666667,0.933333333333333,6703.143751875,6703.894503166,13,6703.209001083,6703.27659975,6703.916656791,6704.843328375,1,0.750751290999688
131,22,4,categorization,0,bathroom,SHINEd_sun_agyqfjcfkdcydepw.tif,25,0.0666666666666667,0.0666666666666667,1.45,6704.849226291,6705.578719416,9,6704.911040458,6704.971989041,6705.590514541,6707.033894666,0,0.729493124999863
131,23,4,categorization,0,bathroom,SHINEd_sun_aspsyogrekjtfozg.tif,50,0.0666666666666667,0.0666666666666667,0.966666666666667,6707.053248791,6708.116573833,9,6707.119700333,6707.184525208,6708.141138833,6709.10114475,0,1.06332504199963
131,24,4,categorization,0,kitchen,SHINEd_sun_afuyedyxivkhecmu.tif,85,0.0666666666666667,0.0666666666666667,0.816666666666667,6709.1069695,6709.8427475,13,6709.168677416,6709.229812958,6709.848442916,6710.658447875,0,0.735778000000209
131,25,4,categorization,0,kitchen,SHINEd_sun_auaiucuqpdausiva.tif,102,0.0666666666666667,0.0666666666666667,1.96666666666667,6710.664143041,6711.458760458,13,6710.725912,6710.786855,6711.472007458,6713.432052166,0,0.794617417000154
131,26,4,categorization,0,kitchen,SHINEd_sun_akchetnepxlcxhsu.tif,98,0.0666666666666667,0.0666666666666667,0.916666666666667,6713.450577625,6714.216668,13,6713.517368125,6713.583432083,6714.23979825,6715.149804,0,0.766090375000203
131,27,4,categorization,0,bathroom,SHINEd_sun_acduarbnmmoglmiv.tif,16,0.0666666666666667,0.0666666666666667,1.28333333333333,6715.155363875,6716.042842875,13,6715.217017833,6715.278135166,6716.046778375,6717.323469458,1,0.887478999999985
131,28,4,categorization,0,bathroom,SHINEd_sun_aavhrsfjbserjtht.tif,13,0.0666666666666667,0.0666666666666667,1.8,6717.335036791,6718.127273708,9,6717.401543458,6717.467643,6718.157478458,6719.950849333,0,0.792236917000082
131,29,4,categorization,0,kitchen,SHINEd_sun_akcjzhbbjlbogpdi.tif,99,0.0666666666666667,0.0666666666666667,1.33333333333333,6719.969817875,6720.860937458,9,6720.036596583,6720.1026765,6720.875450291,6722.202162041,1,0.891119582999636
131,30,4,categorization,0,kitchen,SHINEd_sun_aixorpehvfykdynp.tif,95,0.0666666666666667,0.0666666666666667,1.06666666666667,6722.221600166,6722.988363,9,6722.287401208,6722.35194,6723.008388041,6724.068433833,1,0.766762834000474
131,31,4,categorization,0,bathroom,SHINEd_sun_axyrejkiiaqiurjk.tif,59,0.0666666666666667,0.0666666666666667,1.03333333333333,6724.080272625,6724.893006166,13,6724.145076916,6724.210292041,6724.917004416,6725.9437165,1,0.812733540999943
131,32,4,categorization,0,bathroom,SHINEd_sun_aqrpegblszgcoujh.tif,48,0.0666666666666667,0.0666666666666667,0.733333333333333,6725.960545791,6726.634667208,13,6726.027469041,6726.08538275,6726.653915958,6727.380586375,1,0.674121416999697
131,33,4,categorization,0,kitchen,SHINEd_sun_aenotlpyftoioydp.tif,82,0.0666666666666667,0.0666666666666667,0.766666666666667,6727.385538541,6728.314594458,13,6727.44726775,6727.508182125,6728.327380875,6729.087385833,0,0.929055917000369
131,34,4,categorization,0,bathroom,SHINEd_sun_asfwthctfqerjvxr.tif,49,0.0666666666666667,0.0666666666666667,1.1,6729.0929415,6730.186849958,9,6729.154773,6729.215759708,6730.201416333,6731.294808166,0,1.09390845799953
131,35,4,categorization,0,kitchen,SHINEd_sun_aunzlwrbjumxhwdj.tif,103,0.0666666666666667,0.0666666666666667,1.81666666666667,6731.305111416,6731.99468425,9,6731.369977208,6731.436680125,6732.008604166,6733.818661958,1,0.689572834000501
131,36,4,categorization,0,kitchen,SHINEd_sun_amjjdeyrggfqgmom.tif,100,0.0666666666666667,0.0666666666666667,0.883333333333333,6733.837400541,6734.637688375,9,6733.904032666,6733.969834708,6734.659554583,6735.5362265,1,0.800287834000301
131,37,4,categorization,0,kitchen,SHINEd_sun_agubuxuukhzyzpdp.tif,88,0.0666666666666667,0.0666666666666667,1.7,6735.542100916,6736.691152,9,6735.603828875,6735.664916375,6736.700728041,6738.39410875,1,1.14905108400035
131,38,4,categorization,0,kitchen,SHINEd_sun_ahdycvpopffkzzsu.tif,90,0.0666666666666667,0.0666666666666667,1.58333333333333,6738.411469041,6739.374113916,13,6738.479954083,6738.545299833,6739.400737708,6740.97746675,0,0.962644875000478
131,39,4,categorization,0,bathroom,SHINEd_sun_aclfzgynxzxlbepz.tif,19,0.0666666666666667,0.0666666666666667,0.833333333333333,6740.995593083,6741.823035166,13,6741.062279125,6741.128943,6741.852618666,6742.679291916,1,0.827442083000278
131,40,4,categorization,0,bathroom,SHINEd_sun_afcoljnjfoxjtgja.tif,20,0.0666666666666667,0.0666666666666667,0.95,6742.685273958,6743.746646791,9,6742.747039291,6742.808109125,6743.760157166,6744.703494541,0,1.06137283299995
131,41,4,categorization,0,kitchen,SHINEd_sun_agorklincwxrdtga.tif,87,0.0666666666666667,0.0666666666666667,1.06666666666667,6744.708697833,6745.410360375,9,6744.770428541,6744.831386625,6745.416578,6746.4766345,1,0.701662542000122
131,42,4,categorization,0,bathroom,SHINEd_sun_acegryoqftbzowsg.tif,17,0.0666666666666667,0.0666666666666667,1.68333333333333,6746.488199083,6747.242779833,9,6746.55303575,6746.617722958,6747.255391791,6748.932094125,0,0.754580750000059
131,43,4,categorization,0,bathroom,SHINEd_sun_aleqenyvunhactkl.tif,32,0.0666666666666667,0.0666666666666667,1.31666666666667,6748.950340375,6749.6841635,13,6749.017068041,6749.083237958,6749.706624291,6751.016675166,1,0.733823124999617
131,44,4,categorization,0,kitchen,SHINEd_sun_axyyrmzcupyhlivc.tif,107,0.0666666666666667,0.0666666666666667,1.61666666666667,6751.037008625,6751.970383958,13,6751.103934416,6751.168385083,6751.991927833,6753.601963125,0,0.933375332999276
131,45,4,categorization,0,kitchen,SHINEd_sun_aegoxogugdkwpmpj.tif,80,0.0666666666666667,0.0666666666666667,1.15,6753.620936333,6754.407269,13,6753.687911166,6753.754091041,6754.42795075,6755.571322208,0,0.786332667000352
131,46,4,categorization,0,bathroom,SHINEd_sun_abjtwfukuwddzted.tif,15,0.0666666666666667,0.0666666666666667,1.25,6755.585128666,6756.588797833,9,6755.652222791,6755.71818875,6756.608040166,6757.851421,0,1.00366916700023
131,47,4,categorization,0,kitchen,SHINEd_sun_agzzivivdpnawacl.tif,89,0.0666666666666667,0.0666666666666667,1.1,6757.869384791,6758.508411291,13,6757.936515125,6758.002137958,6758.526011375,6759.6194065,0,0.6390265
131,48,4,categorization,0,kitchen,SHINEd_sun_aymvwlarqodbwuoc.tif,108,0.0666666666666667,0.0666666666666667,0.9,6759.636565333,6760.427222125,13,6759.699580458,6759.759352125,6760.444689583,6761.338028125,0,0.790656791999936
131,49,4,categorization,0,kitchen,SHINEd_sun_aeqdocilnnpuvuhx.tif,83,0.0666666666666667,0.0666666666666667,1.3,6761.342782,6762.443003333,13,6761.40446875,6761.4654895,6762.450646541,6763.744035125,0,1.10022133300026
131,50,4,categorization,0,kitchen,SHINEd_sun_acwjdupvyjsugpay.tif,76,0.0666666666666667,0.0666666666666667,1.25,6763.759610791,6765.682186166,13,6763.827558666,6763.89247125,6765.69573725,6766.939130125,0,1.92257537499972
131,1,5,categorization,0,kitchen,SHINEd_sun_aymvwlarqodbwuoc.tif,108,0.0666666666666667,0.0666666666666667,1.7,6834.651681291,6835.785972958,9,6834.714294541,6834.774412666,6835.793399041,6837.486793208,1,1.13429166699916
131,2,5,categorization,0,kitchen,SHINEd_labelme_kxvouciolcpqplr.tif,62,0.0666666666666667,0.0666666666666667,1.81666666666667,6837.504214125,6838.439095083,13,6837.57014825,6837.635932291,6838.45904325,6840.269101541,0,0.934880958000576
131,3,5,categorization,0,bathroom,SHINEd_sun_amzlamotzwfkwjco.tif,37,0.0666666666666667,0.0666666666666667,1.23333333333333,6840.287876125,6841.0003225,13,6840.354146333,6840.419931333,6841.026691,6842.253401416,1,0.712446374999672
131,4,5,categorization,0,kitchen,SHINEd_sun_axyyrmzcupyhlivc.tif,107,0.0666666666666667,0.0666666666666667,1.4,6842.271436041,6842.887577541,13,6842.338138333,6842.403850708,6842.910877458,6844.304268958,0,0.616141499999685
131,5,5,categorization,0,kitchen,SHINEd_sun_acxkpeoqbwcxfvip.tif,77,0.0666666666666667,0.0666666666666667,1.03333333333333,6844.321957375,6844.985680875,13,6844.388871666,6844.454531625,6845.010145583,6846.036874541,0,0.663723499999833
131,6,5,categorization,0,kitchen,SHINEd_sun_aqeaevwwwjoqhzvl.tif,101,0.0666666666666667,0.0666666666666667,1.38333333333333,6846.054052625,6846.78687125,13,6846.120742375,6846.187168625,6846.805960583,6848.182682166,0,0.732818625000618
131,7,5,categorization,0,kitchen,SHINEd_sun_auticobqsbwgoppi.tif,104,0.0666666666666667,0.0666666666666667,2,6848.20271025,6849.042812958,13,6848.269719541,6848.335634083,6849.058171541,6851.051544583,0,0.840102707999904
131,8,5,categorization,0,bathroom,SHINEd_sun_ambriybtogmepttm.tif,36,0.0666666666666667,0.0666666666666667,1.85,6851.071003166,6851.757981333,9,6851.138132375,6851.202728541,6851.775791791,6853.619171041,0,0.686978167000234
131,9,5,categorization,0,bathroom,SHINEd_sun_agguqiubmwhqqunb.tif,22,0.0666666666666667,0.0666666666666667,0.816666666666667,6853.637327541,6854.323735708,9,6853.704274375,6853.770327791,6854.342565,6855.152571958,0,0.686408167000081
131,10,5,categorization,0,bathroom,SHINEd_sun_aleqenyvunhactkl.tif,32,0.0666666666666667,0.0666666666666667,1.85,6855.158476041,6855.842787625,13,6855.220158625,6855.281209291,6855.850027375,6857.693415583,1,0.68431158400017
131,11,5,categorization,0,kitchen,SHINEd_sun_aunzlwrbjumxhwdj.tif,103,0.0666666666666667,0.0666666666666667,0.733333333333333,6857.711753375,6858.477542875,9,6857.778271875,6857.844699541,6858.501450041,6859.228122458,1,0.76578950000021
131,12,5,categorization,0,kitchen,SHINEd_sun_aadbddgrdsjugojn.tif,64,0.0666666666666667,0.0666666666666667,0.716666666666667,6859.234351916,6859.818227208,9,6859.2961245,6859.357142333,6859.8257965,6860.53580025,1,0.583875291999902
131,13,5,categorization,0,kitchen,SHINEd_sun_aexklacwqwezaorf.tif,84,0.0666666666666667,0.0666666666666667,0.833333333333333,6860.541373958,6861.289913625,13,6860.603115875,6860.664042708,6861.29909,6862.125760125,0,0.748539666999932
131,14,5,categorization,0,kitchen,SHINEd_sun_awcpdzzznmweyyhv.tif,106,0.0666666666666667,0.0666666666666667,0.95,6862.130595875,6862.834638333,9,6862.192297375,6862.253375041,6862.838992208,6863.782331166,1,0.704042458000004
131,15,5,categorization,0,bathroom,SHINEd_sun_anryaplzeujmzfkd.tif,39,0.0666666666666667,0.0666666666666667,1.96666666666667,6863.787538208,6864.4740535,13,6863.849182708,6863.910288,6864.478848875,6866.438912541,1,0.686515291999967
131,16,5,categorization,0,kitchen,SHINEd_sun_ajcbwwvdlsvjyzje.tif,96,0.0666666666666667,0.0666666666666667,1.86666666666667,6866.457008125,6867.5942945,9,6866.523943166,6866.589533916,6867.608776708,6869.468836041,1,1.13728637499935
131,17,5,categorization,0,bathroom,SHINEd_sun_aunuadmjocsddsrl.tif,52,0.0666666666666667,0.0666666666666667,1.51666666666667,6869.488030916,6870.235500583,13,6869.5551335,6869.621051708,6870.261512916,6871.771551,1,0.747469667000587
131,18,5,categorization,0,bathroom,SHINEd_sun_apjevzvycyhuqghb.tif,43,0.0666666666666667,0.0666666666666667,1.3,6871.789606458,6872.653498708,13,6871.856658083,6871.922912666,6872.679914916,6873.973296166,1,0.86389225000039
131,19,5,categorization,0,kitchen,SHINEd_sun_adgqasybjyktddhj.tif,78,0.0666666666666667,0.0666666666666667,1.91666666666667,6873.99145925,6875.172846125,9,6874.058391666,6874.125761833,6875.197775541,6877.107828291,1,1.1813868750005
131,20,5,categorization,0,bathroom,SHINEd_sun_abjtwfukuwddzted.tif,15,0.0666666666666667,0.0666666666666667,1.23333333333333,6877.125591333,6877.892551666,9,6877.191216041,6877.25756025,6877.913544291,6879.140255541,0,0.766960333000497
131,21,5,categorization,0,kitchen,SHINEd_sun_admlmbcdswaszruo.tif,79,0.0666666666666667,0.0666666666666667,0.866666666666667,6879.15670775,6879.870517833,13,6879.222014333,6879.289616625,6879.896665833,6880.756713333,0,0.713810082999771
131,22,5,categorization,0,kitchen,SHINEd_sun_afuyedyxivkhecmu.tif,85,0.0666666666666667,0.0666666666666667,0.8,6880.774185083,6881.922242708,13,6880.840979,6880.907322333,6881.926804375,6882.72014225,0,1.14805762500055
131,23,5,categorization,0,kitchen,SHINEd_sun_abdxkyyxwfskuaqb.tif,70,0.0666666666666667,0.0666666666666667,1.51666666666667,6882.725614541,6883.545729041,9,6882.787383833,6882.848380375,6883.550300291,6885.060360666,1,0.820114500000273
131,24,5,categorization,0,bathroom,SHINEd_labelme_sfxiulhjbhlyiyt.tif,11,0.0666666666666667,0.0666666666666667,1.18333333333333,6885.078189708,6885.796402291,13,6885.144893291,6885.208382458,6885.81449325,6886.991206541,1,0.718212583000422
131,25,5,categorization,0,bathroom,SHINEd_sun_anhioqovhscjqqwb.tif,38,0.0666666666666667,0.0666666666666667,1.6,6887.001350666,6887.826540458,13,6887.067833791,6887.134115125,6887.839919333,6889.433316833,1,0.825189791999946
131,26,5,categorization,0,bathroom,SHINEd_sun_apmqjbnwghzuhhzh.tif,46,0.0666666666666667,0.0666666666666667,1.56666666666667,6889.449257541,6890.139313708,13,6889.51600625,6889.58219975,6890.154609875,6891.714654875,1,0.690056166999966
131,27,5,categorization,0,kitchen,SHINEd_sun_akcjzhbbjlbogpdi.tif,99,0.0666666666666667,0.0666666666666667,1.36666666666667,6891.733083083,6892.367564875,9,6891.800383375,6891.865790166,6892.389040875,6893.749076583,1,0.63448179200077
131,28,5,categorization,0,bathroom,SHINEd_sun_apeeialkgkuxddgh.tif,42,0.0666666666666667,0.0666666666666667,1.53333333333333,6893.769059958,6894.5541685,13,6893.835970208,6893.902009041,6894.574744875,6896.101469625,1,0.785108541999762
131,29,5,categorization,0,kitchen,SHINEd_sun_ahspylgoovwmwvgk.tif,93,0.0666666666666667,0.0666666666666667,1.4,6896.120613083,6896.974880458,9,6896.187757625,6896.254258041,6896.994784666,6898.388165166,1,0.854267375000745
131,30,5,categorization,0,kitchen,SHINEd_sun_azmutvzbxypaceni.tif,110,0.0666666666666667,0.0666666666666667,1.06666666666667,6898.407330083,6899.429641208,9,6898.474845333,6898.541537125,6899.448581625,6900.508638541,1,1.02231112500067
131,31,5,categorization,0,bathroom,SHINEd_sun_aapitsgbtktqubfy.tif,12,0.0666666666666667,0.0666666666666667,1.63333333333333,6900.523158916,6901.259958708,13,6900.588447666,6900.652514041,6901.275334125,6902.902035958,1,0.736799792000056
131,32,5,categorization,0,kitchen,SHINEd_sun_acfmftudsenhrfhy.tif,74,0.0666666666666667,0.0666666666666667,1.8,6902.918196458,6903.623478166,13,6902.98558175,6903.051057416,6903.641168125,6905.434562541,0,0.705281707999347
131,33,5,categorization,0,bathroom,SHINEd_sun_avhrdrntsqrjzccq.tif,55,0.0666666666666667,0.0666666666666667,1.53333333333333,6905.453503916,6906.350921458,13,6905.521061083,6905.587142166,6906.3777405,6907.904442208,1,0.897417541999857
131,34,5,categorization,0,kitchen,SHINEd_sun_acgtpgfybqjmzeyw.tif,75,0.0666666666666667,0.0666666666666667,0.766666666666667,6907.923606916,6908.798006458,9,6907.991002166,6908.057293416,6908.814489166,6909.574495166,1,0.874399541999992
131,35,5,categorization,0,bathroom,SHINEd_sun_apkruvsevgegsdwp.tif,44,0.0666666666666667,0.0666666666666667,1.86666666666667,6909.580406708,6910.569849,9,6909.642187375,6909.703215875,6910.588557083,6912.448603541,0,0.989442292000604
131,36,5,categorization,0,kitchen,SHINEd_labelme_rykdqxenmhulbdn.tif,63,0.0666666666666667,0.0666666666666667,1.13333333333333,6912.4691375,6913.250065541,9,6912.536063666,6912.602166708,6913.274377291,6914.401097791,1,0.780928041000152
131,37,5,categorization,0,bathroom,SHINEd_sun_aclfzgynxzxlbepz.tif,19,0.0666666666666667,0.0666666666666667,1.73333333333333,6914.411262375,6915.269157375,13,6914.476450083,6914.544220458,6915.282702,6917.009419625,1,0.857895000000099
131,38,5,categorization,0,bathroom,SHINEd_sun_ahqjwnzgolcaoidx.tif,29,0.0666666666666667,0.0666666666666667,0.766666666666667,6917.027830166,6917.707533375,13,6917.0949625,6917.158450458,6917.732202375,6918.492207916,1,0.679703208999854
131,39,5,categorization,0,bathroom,SHINEd_sun_atstyziqcmkahyxk.tif,51,0.0666666666666667,0.0666666666666667,1.85,6918.498303416,6919.257939875,13,6918.560001416,6918.621074583,6919.272973625,6921.116347958,1,0.759636458999921
131,40,5,categorization,0,kitchen,SHINEd_sun_acwjdupvyjsugpay.tif,76,0.0666666666666667,0.0666666666666667,0.966666666666667,6921.135297,6922.046110333,9,6921.200059083,6921.266703458,6922.073213708,6923.03321875,1,0.910813333000078
131,41,5,categorization,0,kitchen,SHINEd_sun_abftihopvusyfakt.tif,71,0.0666666666666667,0.0666666666666667,1.06666666666667,6923.038976041,6923.721777041,9,6923.10077,6923.161685291,6923.730210375,6924.790252625,1,0.682800999999927
131,42,5,categorization,0,bathroom,SHINEd_sun_aghyqhbptboemmoq.tif,23,0.0666666666666667,0.0666666666666667,1.38333333333333,6924.801706,6925.770922416,9,6924.866400083,6924.931445583,6925.78730775,6927.164009375,0,0.969216415999654
131,43,5,categorization,0,kitchen,SHINEd_sun_aapllqyqlykszopd.tif,66,0.0666666666666667,0.0666666666666667,0.766666666666667,6927.173441833,6927.987806333,13,6927.23849625,6927.303741958,6928.009981458,6928.770039291,0,0.814364500000011
131,44,5,categorization,0,bathroom,SHINEd_sun_akiytfaagpdsphgz.tif,31,0.0666666666666667,0.0666666666666667,0.866666666666667,6928.785828791,6929.450574416,13,6928.852550791,6928.91048725,6929.462440916,6930.322444958,1,0.664745624999341
131,45,5,categorization,0,bathroom,SHINEd_sun_abapwbhyhkfixyex.tif,14,0.0666666666666667,0.0666666666666667,1.25,6930.327181083,6931.025744708,9,6930.388909791,6930.44993525,6931.035324375,6932.278697958,0,0.698563625000133
131,46,5,categorization,0,kitchen,SHINEd_sun_ajkqhtgcbgpcwrwn.tif,97,0.0666666666666667,0.0666666666666667,1.03333333333333,6932.294354125,6933.02867325,9,6932.361534291,6932.4277565,6933.051662833,6934.07839075,1,0.734319125000184
131,47,5,categorization,0,kitchen,SHINEd_sun_ahywdevtimnqcsln.tif,94,0.0666666666666667,0.0666666666666667,0.783333333333333,6934.089301833,6934.998601541,9,6934.15459525,6934.220830833,6935.027870958,6935.804588166,1,0.909299708000617
131,48,5,categorization,0,bathroom,SHINEd_sun_agrwbmhcpmfuwmsg.tif,24,0.0666666666666667,0.0666666666666667,0.7,6935.821671416,6936.993703875,13,6935.889161833,6935.954775625,6937.007903041,6937.701240208,1,1.17203245900055
131,49,5,categorization,0,kitchen,SHINEd_sun_aaxxjlsuzvqlgylf.tif,68,0.0666666666666667,0.0666666666666667,1.75,6937.706057916,6938.370361583,13,6937.767850708,6937.829023791,6938.380930625,6940.124312875,0,0.66430366700024
131,50,5,categorization,0,kitchen,SHINEd_sun_abpwyqmlzafvklqo.tif,72,0.0666666666666667,0.0666666666666667,1.36666666666667,6940.143638833,6941.172245083,9,6940.210385875,6940.276624541,6941.198532625,6942.55856925,1,1.02860624999994
131,1,6,categorization,0,kitchen,SHINEd_sun_ahljzhgcdpomplvg.tif,91,0.0666666666666667,0.0666666666666667,0.966666666666667,6952.406848916,6953.426404083,9,6952.46936525,6952.529606625,6953.431550333,6954.391556541,1,1.01955516700036
131,2,6,categorization,0,kitchen,SHINEd_sun_amjjdeyrggfqgmom.tif,100,0.0666666666666667,0.0666666666666667,1.73333333333333,6954.397260291,6955.145764416,9,6954.458959291,6954.51995475,6955.155075,6956.881794416,1,0.748504125000181
131,3,6,categorization,0,kitchen,SHINEd_sun_avszsnwsbuqfgzbn.tif,105,0.0666666666666667,0.0666666666666667,1.91666666666667,6956.902335083,6957.580715125,9,6956.96894825,6957.035338125,6957.608715458,6959.518752458,1,0.678380041999844
131,4,6,categorization,0,bathroom,SHINEd_sun_aggnnqpdorgxpvce.tif,21,0.0666666666666667,0.0666666666666667,0.766666666666667,6959.536018625,6960.389726458,13,6959.602872333,6959.668598125,6960.407963708,6961.167968125,1,0.853707833000044
131,5,6,categorization,0,bathroom,SHINEd_sun_afcoljnjfoxjtgja.tif,20,0.0666666666666667,0.0666666666666667,0.916666666666667,6961.173865833,6961.92217225,9,6961.235596916,6961.296618583,6961.932117,6962.842121833,0,0.748306417000094
131,6,6,categorization,0,bathroom,SHINEd_sun_acegryoqftbzowsg.tif,17,0.0666666666666667,0.0666666666666667,1.18333333333333,6962.847846791,6963.665335208,13,6962.909585125,6962.970505625,6963.672478333,6964.84918825,1,0.817488417000277
131,7,6,categorization,0,bathroom,SHINEd_sun_aavhrsfjbserjtht.tif,13,0.0666666666666667,0.0666666666666667,1.8,6964.859682166,6965.549818875,9,6964.92636275,6964.992498583,6965.564463291,6967.357834166,0,0.690136708999489
131,8,6,categorization,0,bathroom,SHINEd_sun_apynckhmoftszqoq.tif,47,0.0666666666666667,0.0666666666666667,0.883333333333333,6967.369014208,6968.246027208,13,6967.435873708,6967.501622791,6968.27458025,6969.151251875,1,0.877012999999351
131,9,6,categorization,0,bathroom,SHINEd_sun_auzqhkafidnkrwmo.tif,54,0.0666666666666667,0.0666666666666667,1.83333333333333,6969.156786333,6969.833779625,13,6969.218406666,6969.279536666,6969.848102166,6971.67482825,1,0.676993291999679
131,10,6,categorization,0,bathroom,SHINEd_sun_apkxzenqapsujocq.tif,45,0.0666666666666667,0.0666666666666667,1.76666666666667,6971.693606583,6972.381424791,9,6971.760473625,6971.826406958,6972.399144541,6974.159204666,0,0.687818208000863
131,11,6,categorization,0,kitchen,SHINEd_sun_aegoxogugdkwpmpj.tif,80,0.0666666666666667,0.0666666666666667,0.983333333333333,6974.178311,6974.964756125,9,6974.245021583,6974.3109345,6974.983906375,6975.960579291,1,0.786445125000682
131,12,6,categorization,0,bathroom,SHINEd_sun_axldvoqbuvuggfmq.tif,57,0.0666666666666667,0.0666666666666667,0.883333333333333,6975.967161333,6976.570239958,13,6976.029023916,6976.090017375,6976.57539075,6977.452062041,1,0.603078624999398
131,13,6,categorization,0,bathroom,SHINEd_sun_aspsyogrekjtfozg.tif,50,0.0666666666666667,0.0666666666666667,0.85,6977.457092291,6978.049924458,13,6977.518837208,6977.579967,6978.065572625,6978.908911583,1,0.59283216699987
131,14,6,categorization,0,bathroom,SHINEd_sun_ahcvzmoyaycdoftf.tif,27,0.0666666666666667,0.0666666666666667,0.733333333333333,6978.914480875,6979.498081083,13,6978.976207375,6979.037258875,6979.505824208,6980.232496708,1,0.583600208000462
131,15,6,categorization,0,bathroom,SHINEd_sun_azqyogdvyhahyram.tif,60,0.0666666666666667,0.0666666666666667,1.88333333333333,6980.238024708,6981.025332416,13,6980.299678125,6980.360776791,6981.029678125,6982.906400666,1,0.787307708000299
131,16,6,categorization,0,kitchen,SHINEd_sun_aeqdocilnnpuvuhx.tif,83,0.0666666666666667,0.0666666666666667,0.816666666666667,6982.924961,6983.70318325,9,6982.991965208,6983.058189541,6983.731474166,6984.541480958,1,0.778222249999999
131,17,6,categorization,0,bathroom,SHINEd_sun_agyqfjcfkdcydepw.tif,25,0.0666666666666667,0.0666666666666667,1.9,6984.547215791,6985.385714291,9,6984.608907583,6984.670114041,6985.405232916,6987.298607708,0,0.838498500000242
131,18,6,categorization,0,kitchen,SHINEd_sun_abdenxonkemggwsq.tif,69,0.0666666666666667,0.0666666666666667,0.983333333333333,6987.314299458,6988.006856958,9,6987.378917458,6987.44728375,6988.036920875,6989.013592541,1,0.692557499999566
131,19,6,categorization,0,kitchen,SHINEd_sun_ahpczsiumwwocjkv.tif,92,0.0666666666666667,0.0666666666666667,0.75,6989.019271958,6989.866006791,9,6989.080848583,6989.141922083,6989.877545458,6990.620886291,1,0.846734832999573
131,20,6,categorization,0,kitchen,SHINEd_sun_aenotlpyftoioydp.tif,82,0.0666666666666667,0.0666666666666667,1.6,6990.6266,6991.706396375,9,6990.688266916,6990.749295791,6991.718039791,6993.311394958,1,1.07979637500011
131,21,6,categorization,0,kitchen,SHINEd_sun_abrcnpqqhmjwekyf.tif,73,0.0666666666666667,0.0666666666666667,1.58333333333333,6993.321582791,6994.060101333,13,6993.388635875,6993.454321541,6994.076670333,6995.6534015,0,0.738518541999838
131,22,6,categorization,0,bathroom,SHINEd_sun_axyrejkiiaqiurjk.tif,59,0.0666666666666667,0.0666666666666667,1.11666666666667,6995.670768291,6996.318540583,13,6995.737294625,6995.803935041,6996.343867791,6997.453915583,1,0.6477722919999
131,23,6,categorization,0,kitchen,SHINEd_sun_agzzivivdpnawacl.tif,89,0.0666666666666667,0.0666666666666667,1.53333333333333,6997.464452458,6998.325139375,9,6997.5290055,6997.597748916,6998.354040875,6999.880754875,1,0.860686916999839
131,24,6,categorization,0,kitchen,SHINEd_sun_aehawpgmrlhlvcow.tif,81,0.0666666666666667,0.0666666666666667,1.48333333333333,6999.899195916,7000.492757208,9,6999.966001416,7000.03231475,7000.522336916,7001.999046583,1,0.593561291999322
131,25,6,categorization,0,kitchen,SHINEd_sun_auaiucuqpdausiva.tif,102,0.0666666666666667,0.0666666666666667,1.1,7002.015197958,7002.735266708,9,7002.082306208,7002.147983583,7002.754294125,7003.84768325,1,0.720068750000792
131,26,6,categorization,0,kitchen,SHINEd_sun_aixorpehvfykdynp.tif,95,0.0666666666666667,0.0666666666666667,0.933333333333333,7003.857746,7004.812430041,9,7003.92250825,7003.990574458,7004.829981958,7005.756694583,1,0.954684041000291
131,27,6,categorization,0,bathroom,SHINEd_sun_asfwthctfqerjvxr.tif,49,0.0666666666666667,0.0666666666666667,0.816666666666667,7005.7707025,7006.401300958,13,7005.834613125,7005.893937125,7006.412190541,7007.222196,1,0.63059845800035
131,28,6,categorization,0,bathroom,SHINEd_sun_aofnryafpsjimzsb.tif,40,0.0666666666666667,0.0666666666666667,1.78333333333333,7007.227005791,7007.929686458,13,7007.288672375,7007.349684833,7007.934849,7009.711576041,1,0.702680667000095
131,29,6,categorization,0,kitchen,SHINEd_sun_aarfiyshqohlwkmo.tif,67,0.0666666666666667,0.0666666666666667,0.766666666666667,7009.730280041,7010.4770385,9,7009.796862666,7009.862869666,7010.502636541,7011.262641333,1,0.746758459000375
131,30,6,categorization,0,kitchen,SHINEd_sun_aamedkxepzlwuxes.tif,65,0.0666666666666667,0.0666666666666667,1.45,7011.268003208,7012.0340745,9,7011.329804541,7011.390776958,7012.042808333,7013.486195833,1,0.766071292000561
131,31,6,categorization,0,bathroom,SHINEd_sun_ahaulkltgpkeeemi.tif,26,0.0666666666666667,0.0666666666666667,0.75,7013.503630458,7014.387122333,13,7013.570701041,7013.636202625,7014.409604666,7015.1529915,1,0.883491874999891
131,32,6,categorization,0,kitchen,SHINEd_sun_agubuxuukhzyzpdp.tif,88,0.0666666666666667,0.0666666666666667,1.36666666666667,7015.159853583,7015.994019541,13,7015.221544708,7015.282636916,7016.001388541,7017.361435375,0,0.834165958000085
131,33,6,categorization,0,kitchen,SHINEd_labelme_brsyyvweiuaazfr.tif,61,0.0666666666666667,0.0666666666666667,0.75,7017.371662375,7018.150537125,13,7017.438346208,7017.504407375,7018.177152125,7018.920539166,0,0.778874749999886
131,34,6,categorization,0,kitchen,SHINEd_sun_aggjlwcdjsjcaemh.tif,86,0.0666666666666667,0.0666666666666667,0.783333333333333,7018.936900708,7019.85008875,13,7019.003526333,7019.06756525,7019.869457583,7020.646131166,0,0.913188042000002
131,35,6,categorization,0,bathroom,SHINEd_sun_alkosphxlxwjwgjd.tif,34,0.0666666666666667,0.0666666666666667,1.11666666666667,7020.651915833,7021.449623791,13,7020.71360375,7020.774749916,7021.459994583,7022.570044541,1,0.797707957999592
131,36,6,categorization,0,bathroom,SHINEd_sun_axxbkopsgyouuebh.tif,58,0.0666666666666667,0.0666666666666667,0.766666666666667,7022.580568916,7023.277265333,9,7022.64522175,7022.713480416,7023.303460708,7024.063502458,0,0.696696417000567
131,37,6,categorization,0,bathroom,SHINEd_sun_ausgutylgojavyoq.tif,53,0.0666666666666667,0.0666666666666667,0.716666666666667,7024.079480875,7025.057505666,13,7024.145997625,7024.212034583,7025.064447375,7025.774454708,1,0.97802479100028
131,38,6,categorization,0,bathroom,SHINEd_sun_ahijqszoswveeyji.tif,28,0.0666666666666667,0.0666666666666667,1.33333333333333,7025.780229083,7026.506119958,13,7025.842310666,7025.9030615,7026.521764625,7027.848478666,1,0.725890875000005
131,39,6,categorization,0,bathroom,SHINEd_sun_aqrpegblszgcoujh.tif,48,0.0666666666666667,0.0666666666666667,1.75,7027.869392125,7029.346804958,13,7027.936262083,7028.001964208,7029.357248125,7031.100631375,1,1.47741283300002
131,40,6,categorization,0,kitchen,SHINEd_sun_agorklincwxrdtga.tif,87,0.0666666666666667,0.0666666666666667,1.13333333333333,7031.115104458,7032.041634166,9,7031.180291333,7031.246653791,7032.069982166,7033.196697833,1,0.926529708000089
131,41,6,categorization,0,bathroom,SHINEd_sun_acduarbnmmoglmiv.tif,16,0.0666666666666667,0.0666666666666667,1.63333333333333,7033.207229916,7033.854225625,13,7033.272186708,7033.338489,7033.878583041,7035.50529,1,0.646995709000294
131,42,6,categorization,0,bathroom,SHINEd_sun_awnqiikzaispgmwo.tif,56,0.0666666666666667,0.0666666666666667,1.43333333333333,7035.523833875,7036.443435125,13,7035.590949166,7035.657065083,7036.463058333,7037.889762,1,0.919601250000596
131,43,6,categorization,0,kitchen,SHINEd_sun_ahdycvpopffkzzsu.tif,90,0.0666666666666667,0.0666666666666667,1.83333333333333,7037.908022958,7039.02185325,13,7037.974951833,7038.04078675,7039.0476665,7040.874398125,0,1.11383029199988
131,44,6,categorization,0,bathroom,SHINEd_sun_aljolscmmzydegqp.tif,33,0.0666666666666667,0.0666666666666667,1.93333333333333,7040.893196458,7041.513003125,9,7040.960405666,7041.026102,7041.531305375,7043.458034625,0,0.619806667000375
131,45,6,categorization,0,kitchen,SHINEd_sun_akchetnepxlcxhsu.tif,98,0.0666666666666667,0.0666666666666667,1.26666666666667,7043.4768565,7044.425761625,9,7043.543963,7043.609618541,7044.450116416,7045.710152375,1,0.948905124999328
131,46,6,categorization,0,bathroom,SHINEd_sun_aoybiabnpadelefl.tif,41,0.0666666666666667,0.0666666666666667,1.86666666666667,7045.7293155,7046.8167965,13,7045.797996083,7045.862486083,7046.835613708,7048.69565075,1,1.08748100000048
131,47,6,categorization,0,bathroom,SHINEd_sun_acgyywnybuveqsro.tif,18,0.0666666666666667,0.0666666666666667,1.41666666666667,7048.714816125,7049.723445291,9,7048.782881333,7048.848071416,7049.755270625,7051.165314875,0,1.00862916599999
131,48,6,categorization,0,bathroom,SHINEd_sun_alotolagknyrgtsk.tif,35,0.0666666666666667,0.0666666666666667,1.11666666666667,7051.174825416,7051.996355041,9,7051.240326791,7051.30763975,7052.014332291,7053.124390458,0,0.821529625000039
131,49,6,categorization,0,bathroom,SHINEd_sun_ajlawzvmubibwbpy.tif,30,0.0666666666666667,0.0666666666666667,1.8,7053.134078208,7053.974286916,13,7053.199407291,7053.265575166,7053.9888755,7055.782258416,1,0.840208708000318
131,50,6,categorization,0,kitchen,SHINEd_sun_aypmqwcualkenuoe.tif,109,0.0666666666666667,0.0666666666666667,1.25,7055.797138041,7056.634099708,13,7055.863770041,7055.929864166,7056.652249291,7057.895642875,0,0.836961666999741
131,1,7,categorization,0,kitchen,SHINEd_sun_aegoxogugdkwpmpj.tif,80,0.0666666666666667,0.0666666666666667,0.883333333333333,7079.601374333,7080.569975125,13,7079.664048166,7079.724094125,7080.57619325,7081.452864416,0,0.968600791999961
131,2,7,categorization,0,bathroom,SHINEd_sun_apmqjbnwghzuhhzh.tif,46,0.0666666666666667,0.0666666666666667,1.03333333333333,7081.457966125,7082.073833166,13,7081.519697875,7081.580841666,7082.08296775,7083.109688458,1,0.615867041000456
131,3,7,categorization,0,kitchen,SHINEd_sun_auaiucuqpdausiva.tif,102,0.0666666666666667,0.0666666666666667,1.06666666666667,7083.121704041,7083.892499916,13,7083.186839375,7083.252595125,7083.908431541,7084.96848475,0,0.770795874999749
131,4,7,categorization,0,kitchen,SHINEd_sun_awcpdzzznmweyyhv.tif,106,0.0666666666666667,0.0666666666666667,0.833333333333333,7084.984454458,7085.777048208,13,7085.050627708,7085.116193458,7085.785110416,7086.611783083,0,0.792593750000378
131,5,7,categorization,0,kitchen,SHINEd_labelme_brsyyvweiuaazfr.tif,61,0.0666666666666667,0.0666666666666667,0.716666666666667,7086.617493791,7087.281912125,13,7086.679228333,7086.740255666,7087.292020208,7088.002024,0,0.664418334000402
131,6,7,categorization,0,kitchen,SHINEd_sun_acgtpgfybqjmzeyw.tif,75,0.0666666666666667,0.0666666666666667,0.733333333333333,7088.007773833,7088.56912675,13,7088.069388416,7088.130540083,7088.582632583,7089.309304666,0,0.561352916999567
131,7,7,categorization,0,bathroom,SHINEd_sun_apeeialkgkuxddgh.tif,42,0.0666666666666667,0.0666666666666667,1.38333333333333,7089.314021666,7090.224972208,13,7089.375817958,7089.4367405,7090.238580708,7091.615304125,1,0.910950541999227
131,8,7,categorization,0,kitchen,SHINEd_labelme_rykdqxenmhulbdn.tif,63,0.0666666666666667,0.0666666666666667,0.9,7091.634685875,7092.353991375,9,7091.701581,7091.767600791,7092.373953,7093.267343916,1,0.719305499999791
131,9,7,categorization,0,kitchen,SHINEd_sun_aapllqyqlykszopd.tif,66,0.0666666666666667,0.0666666666666667,0.816666666666667,7093.277915416,7095.465264458,9,7093.340754625,7093.4008605,7095.469829375,7096.279834291,1,2.18734904200028
131,10,7,categorization,0,kitchen,SHINEd_sun_aexklacwqwezaorf.tif,84,0.0666666666666667,0.0666666666666667,0.85,7096.285338458,7097.169503583,13,7096.347080708,7096.408031291,7097.176547,7098.019885208,0,0.884165124999527
131,11,7,categorization,0,kitchen,SHINEd_sun_akcjzhbbjlbogpdi.tif,99,0.0666666666666667,0.0666666666666667,1.6,7098.025601541,7098.79307325,9,7098.087329541,7098.148326666,7098.800445291,7100.393832208,1,0.767471709000347
131,12,7,categorization,0,bathroom,SHINEd_sun_auzqhkafidnkrwmo.tif,54,0.0666666666666667,0.0666666666666667,1.75,7100.407107208,7101.235274083,9,7100.4712015,7100.538647666,7101.260713666,7103.004107958,0,0.828166875000534
131,13,7,categorization,0,bathroom,SHINEd_sun_apynckhmoftszqoq.tif,47,0.0666666666666667,0.0666666666666667,1.1,7103.021895083,7103.811810166,9,7103.08878475,7103.154863958,7103.828126625,7104.921512541,0,0.789915082999869
131,14,7,categorization,0,bathroom,SHINEd_sun_agrwbmhcpmfuwmsg.tif,24,0.0666666666666667,0.0666666666666667,1.46666666666667,7104.934844666,7105.838337125,9,7105.000079708,7105.067781375,7105.85813975,7107.318169583,0,0.903492459000518
131,15,7,categorization,0,bathroom,SHINEd_sun_acgyywnybuveqsro.tif,18,0.0666666666666667,0.0666666666666667,1.25,7107.333780583,7108.092573291,13,7107.401024916,7107.46660525,7108.123372666,7109.366763125,1,0.758792708000328
131,16,7,categorization,0,bathroom,SHINEd_sun_acduarbnmmoglmiv.tif,16,0.0666666666666667,0.0666666666666667,1.13333333333333,7109.379009708,7110.174598708,13,7109.445882375,7109.511555,7110.201563916,7111.328274833,1,0.795589000000291
131,17,7,categorization,0,bathroom,SHINEd_sun_ahijqszoswveeyji.tif,28,0.0666666666666667,0.0666666666666667,1.33333333333333,7111.343315708,7112.028965541,13,7111.410452166,7111.476366166,7112.050106208,7113.37681625,1,0.685649832999843
131,18,7,categorization,0,bathroom,SHINEd_sun_akiytfaagpdsphgz.tif,31,0.0666666666666667,0.0666666666666667,1.86666666666667,7113.388857083,7114.285362,13,7113.455410708,7113.521716416,7114.311830416,7116.171871625,1,0.89650491699922
131,19,7,categorization,0,kitchen,SHINEd_sun_axyyrmzcupyhlivc.tif,107,0.0666666666666667,0.0666666666666667,1.58333333333333,7116.187338791,7116.865208708,13,7116.25444975,7116.3203835,7116.893839875,7118.470540666,0,0.677869916999953
131,20,7,categorization,0,bathroom,SHINEd_sun_aleqenyvunhactkl.tif,32,0.0666666666666667,0.0666666666666667,1.05,7118.489734083,7119.153726666,13,7118.557432333,7118.6226285,7119.178356583,7120.221745708,1,0.663992582999526
131,21,7,categorization,0,kitchen,SHINEd_sun_agubuxuukhzyzpdp.tif,88,0.0666666666666667,0.0666666666666667,0.9,7120.234019541,7121.189208,9,7120.299203166,7120.365398875,7121.203307541,7122.096701541,1,0.955188459000055
131,22,7,categorization,0,kitchen,SHINEd_sun_ajkqhtgcbgpcwrwn.tif,97,0.0666666666666667,0.0666666666666667,0.7,7122.113735916,7122.753278166,9,7122.180349166,7122.247010958,7122.76601775,7123.459355125,1,0.639542249999977
131,23,7,categorization,0,kitchen,SHINEd_sun_amjjdeyrggfqgmom.tif,100,0.0666666666666667,0.0666666666666667,0.933333333333333,7123.465992166,7124.096836541,9,7123.527821958,7123.588717458,7124.10746525,7125.034136833,1,0.630844374999469
131,24,7,categorization,0,bathroom,SHINEd_sun_asfwthctfqerjvxr.tif,49,0.0666666666666667,0.0666666666666667,1.95,7125.03969575,7125.801183666,9,7125.101363041,7125.162405125,7125.814439833,7127.757820083,0,0.761487916000078
131,25,7,categorization,0,kitchen,SHINEd_sun_aaxxjlsuzvqlgylf.tif,68,0.0666666666666667,0.0666666666666667,1.06666666666667,7127.776153333,7128.436069416,13,7127.842974375,7127.909105916,7128.465636458,7129.525675958,0,0.659916082999189
131,26,7,categorization,0,kitchen,SHINEd_sun_azmutvzbxypaceni.tif,110,0.0666666666666667,0.0666666666666667,1.2,7129.540118125,7130.107571458,13,7129.605192,7129.670473375,7130.126785125,7131.320177458,0,0.56745333300023
131,27,7,categorization,0,kitchen,SHINEd_sun_aadbddgrdsjugojn.tif,64,0.0666666666666667,0.0666666666666667,0.75,7131.337117291,7132.24095675,9,7131.403184,7131.469725833,7132.255685291,7132.999023166,1,0.903839458999755
131,28,7,categorization,0,kitchen,SHINEd_sun_acxkpeoqbwcxfvip.tif,77,0.0666666666666667,0.0666666666666667,0.816666666666667,7133.004611208,7133.713847333,9,7133.066245291,7133.127338125,7133.729361458,7134.539367833,1,0.709236124999734
131,29,7,categorization,0,bathroom,SHINEd_sun_acegryoqftbzowsg.tif,17,0.0666666666666667,0.0666666666666667,1.96666666666667,7134.545013166,7135.265768125,9,7134.606709541,7134.667748666,7135.269522083,7137.229559541,0,0.72075495900026
131,30,7,categorization,0,bathroom,SHINEd_sun_ausgutylgojavyoq.tif,53,0.0666666666666667,0.0666666666666667,1.2,7137.239480166,7137.973559166,9,7137.306338875,7137.371189125,7137.99439975,7139.1877845,0,0.734078999999838
131,31,7,categorization,0,bathroom,SHINEd_sun_anryaplzeujmzfkd.tif,39,0.0666666666666667,0.0666666666666667,0.883333333333333,7139.196730625,7140.165649625,13,7139.261554583,7139.325495666,7140.181592958,7141.058266791,1,0.968918999999914
131,32,7,categorization,0,bathroom,SHINEd_sun_aspsyogrekjtfozg.tif,50,0.0666666666666667,0.0666666666666667,1.33333333333333,7141.067256125,7141.953566291,13,7141.129411958,7141.190370583,7141.959202041,7143.285923916,1,0.88631016599993
131,33,7,categorization,0,bathroom,SHINEd_sun_aggnnqpdorgxpvce.tif,21,0.0666666666666667,0.0666666666666667,1.45,7143.303747791,7144.045708166,9,7143.36877625,7143.4366445,7144.058621708,7145.502014208,0,0.741960374999508
131,34,7,categorization,0,bathroom,SHINEd_sun_axldvoqbuvuggfmq.tif,57,0.0666666666666667,0.0666666666666667,1.15,7145.519468791,7146.259109583,9,7145.586158541,7145.65211875,7146.274440708,7147.417818833,0,0.7396407920005
131,35,7,categorization,0,bathroom,SHINEd_sun_atstyziqcmkahyxk.tif,51,0.0666666666666667,0.0666666666666667,0.966666666666667,7147.428362833,7148.108817458,13,7147.493340333,7147.560877833,7148.133885083,7149.09394025,1,0.680454624999584
131,36,7,categorization,0,kitchen,SHINEd_sun_aunzlwrbjumxhwdj.tif,103,0.0666666666666667,0.0666666666666667,1.45,7149.110199875,7149.769345583,13,7149.174950916,7149.241881625,7149.777609916,7151.220980583,0,0.659145708000324
131,37,7,categorization,0,kitchen,SHINEd_sun_aenotlpyftoioydp.tif,82,0.0666666666666667,0.0666666666666667,0.8,7151.234596041,7151.86847,9,7151.299012791,7151.361408375,7151.883656125,7152.677039625,1,0.633873959000084
131,38,7,categorization,0,bathroom,SHINEd_sun_aclfzgynxzxlbepz.tif,19,0.0666666666666667,0.0666666666666667,1.45,7152.692472541,7153.448972958,13,7152.758851041,7152.824757666,7153.460082916,7154.903456416,1,0.756500417000098
131,39,7,categorization,0,kitchen,SHINEd_sun_akchetnepxlcxhsu.tif,98,0.0666666666666667,0.0666666666666667,1.1,7154.919945083,7155.567088083,13,7154.98689575,7155.053286958,7155.593062833,7156.686450791,0,0.647143000000142
131,40,7,categorization,0,bathroom,SHINEd_labelme_sfxiulhjbhlyiyt.tif,11,0.0666666666666667,0.0666666666666667,1.16666666666667,7156.696652333,7157.557560291,13,7156.761423,7156.826261666,7157.582587708,7158.7426395,1,0.860907958000098
131,41,7,categorization,0,kitchen,SHINEd_sun_agorklincwxrdtga.tif,87,0.0666666666666667,0.0666666666666667,1.31666666666667,7158.752208375,7159.812813,13,7158.819089958,7158.885034583,7159.842021333,7161.152069708,0,1.06060462499954
131,42,7,categorization,0,bathroom,SHINEd_sun_ambriybtogmepttm.tif,36,0.0666666666666667,0.0666666666666667,1.68333333333333,7161.161398708,7161.906220291,9,7161.22641025,7161.292407791,7161.932447583,7163.609158333,0,0.744821582999975
131,43,7,categorization,0,bathroom,SHINEd_sun_afcoljnjfoxjtgja.tif,20,0.0666666666666667,0.0666666666666667,0.966666666666667,7163.624093125,7164.296337708,9,7163.690851625,7163.756764166,7164.312851333,7165.27285525,0,0.672244582999156
131,44,7,categorization,0,kitchen,SHINEd_sun_admlmbcdswaszruo.tif,79,0.0666666666666667,0.0666666666666667,1.4,7165.27824275,7166.105249541,13,7165.340012083,7165.401048541,7166.1201495,7167.513532916,0,0.827006791000713
131,45,7,categorization,0,kitchen,SHINEd_sun_aypmqwcualkenuoe.tif,109,0.0666666666666667,0.0666666666666667,0.783333333333333,7167.531901541,7168.341323833,9,7167.59862475,7167.664425666,7168.353183208,7169.129894416,1,0.809422292000818
131,46,7,categorization,0,bathroom,SHINEd_sun_azqyogdvyhahyram.tif,60,0.0666666666666667,0.0666666666666667,1.08333333333333,7169.144108875,7169.776978166,9,7169.209740041,7169.269198,7169.787649375,7170.864355666,0,0.632869291000134
131,47,7,categorization,0,kitchen,SHINEd_sun_aggjlwcdjsjcaemh.tif,86,0.0666666666666667,0.0666666666666667,1.43333333333333,7170.874495291,7171.52106825,9,7170.939481208,7171.007369125,7171.547553791,7172.974273541,1,0.646572958999968
131,48,7,categorization,0,kitchen,SHINEd_sun_abdxkyyxwfskuaqb.tif,70,0.0666666666666667,0.0666666666666667,1.75,7172.989621208,7174.444988916,13,7173.056328208,7173.1221355,7174.463078666,7176.206452041,0,1.45536770799936
131,49,7,categorization,0,kitchen,SHINEd_sun_acfmftudsenhrfhy.tif,74,0.0666666666666667,0.0666666666666667,1.21666666666667,7176.223527083,7176.967131875,9,7176.290680416,7176.356561083,7176.996432875,7178.206474708,1,0.743604792000042
131,50,7,categorization,0,kitchen,SHINEd_sun_ahywdevtimnqcsln.tif,94,0.0666666666666667,0.0666666666666667,1.31666666666667,7178.223447875,7178.916891208,9,7178.290383625,7178.356226125,7178.946316291,7180.256353875,1,0.693443333000687
131,1,8,categorization,0,kitchen,SHINEd_sun_abdenxonkemggwsq.tif,69,0.0666666666666667,0.0666666666666667,1.18333333333333,7187.772855458,7188.760735083,9,7187.83537725,7187.89558375,7188.764440583,7189.941147708,1,0.98787962500046
131,2,8,categorization,0,kitchen,SHINEd_labelme_kxvouciolcpqplr.tif,62,0.0666666666666667,0.0666666666666667,0.983333333333333,7189.952696458,7190.554665666,9,7190.019413208,7190.08561175,7190.575406625,7191.552116208,1,0.6019692079999
131,3,8,categorization,0,kitchen,SHINEd_sun_auticobqsbwgoppi.tif,104,0.0666666666666667,0.0666666666666667,1.65,7191.56886975,7192.305331958,13,7191.635729916,7191.701971833,7192.321001416,7193.96438425,0,0.736462208000376
131,4,8,categorization,0,bathroom,SHINEd_sun_avhrdrntsqrjzccq.tif,55,0.0666666666666667,0.0666666666666667,1.23333333333333,7193.985114333,7194.86855925,13,7194.052026083,7194.117769958,7194.890575791,7196.11728425,1,0.883444916999906
131,5,8,categorization,0,bathroom,SHINEd_sun_aqrpegblszgcoujh.tif,48,0.0666666666666667,0.0666666666666667,0.916666666666667,7196.13590375,7196.78890225,9,7196.203524541,7196.269133208,7196.809793291,7197.719847333,0,0.652998500000649
131,6,8,categorization,0,kitchen,SHINEd_sun_adgqasybjyktddhj.tif,78,0.0666666666666667,0.0666666666666667,1.56666666666667,7197.736815041,7198.392939208,9,7197.803885166,7197.870592875,7198.406225166,7199.96628075,1,0.656124166999689
131,7,8,categorization,0,kitchen,SHINEd_sun_ajcbwwvdlsvjyzje.tif,96,0.0666666666666667,0.0666666666666667,1.63333333333333,7199.984497958,7200.844252125,13,7200.051020583,7200.117536541,7200.873234375,7202.499944166,0,0.859754166999664
131,8,8,categorization,0,bathroom,SHINEd_sun_aghyqhbptboemmoq.tif,23,0.0666666666666667,0.0666666666666667,1.1,7202.517817958,7202.638277791,13,7202.584852791,7202.652051583,7202.6746195,7203.767991291,1,0.120459833000496
131,9,8,categorization,0,bathroom,SHINEd_sun_axyrejkiiaqiurjk.tif,59,0.0666666666666667,0.0666666666666667,1.38333333333333,7203.78621,7204.697225291,9,7203.8530415,7203.916035583,7204.701621958,7206.078334083,0,0.911015290999785
131,10,8,categorization,0,bathroom,SHINEd_sun_awnqiikzaispgmwo.tif,56,0.0666666666666667,0.0666666666666667,0.766666666666667,7206.096235958,7206.836448083,13,7206.163101125,7206.228805916,7206.851250833,7207.611302375,1,0.740212124999744
131,11,8,categorization,0,kitchen,SHINEd_sun_abftihopvusyfakt.tif,71,0.0666666666666667,0.0666666666666667,1.45,7207.62836175,7208.289068041,9,7207.695105958,7207.761125041,7208.2970705,7209.740456791,1,0.660706290999769
131,12,8,categorization,0,kitchen,SHINEd_sun_ahspylgoovwmwvgk.tif,93,0.0666666666666667,0.0666666666666667,0.983333333333333,7209.758516166,7210.227998083,9,7209.825244083,7209.891892291,7210.248709708,7211.225435916,1,0.469481916999939
131,13,8,categorization,0,kitchen,SHINEd_sun_aqeaevwwwjoqhzvl.tif,101,0.0666666666666667,0.0666666666666667,0.716666666666667,7211.235272208,7211.872890833,9,7211.302065166,7211.359987333,7211.878532791,7212.588538083,1,0.637618624999959
131,14,8,categorization,0,bathroom,SHINEd_sun_amzlamotzwfkwjco.tif,37,0.0666666666666667,0.0666666666666667,1.41666666666667,7212.59419075,7213.328763333,9,7212.655942416,7212.716935625,7213.335437416,7214.745497125,0,0.734572583000045
131,15,8,categorization,0,kitchen,SHINEd_sun_aarfiyshqohlwkmo.tif,67,0.0666666666666667,0.0666666666666667,1.21666666666667,7214.764189875,7215.464432875,9,7214.830910333,7214.895659708,7215.485806833,7216.695859166,1,0.700243000000228
131,16,8,categorization,0,bathroom,SHINEd_sun_apkruvsevgegsdwp.tif,44,0.0666666666666667,0.0666666666666667,1.61666666666667,7216.71412925,7217.396715416,9,7216.780991541,7216.847051958,7217.420842291,7219.030882291,0,0.682586165999965
131,17,8,categorization,0,kitchen,SHINEd_sun_acwjdupvyjsugpay.tif,76,0.0666666666666667,0.0666666666666667,0.783333333333333,7219.05579625,7219.858731166,9,7219.123431541,7219.187461166,7219.877808458,7220.65452,1,0.802934916000595
131,18,8,categorization,0,kitchen,SHINEd_sun_aehawpgmrlhlvcow.tif,81,0.0666666666666667,0.0666666666666667,1.98333333333333,7220.662147583,7221.264892,13,7220.723928,7220.7847845,7221.270109083,7223.246799291,0,0.602744417000395
131,19,8,categorization,0,bathroom,SHINEd_sun_abjtwfukuwddzted.tif,15,0.0666666666666667,0.0666666666666667,0.983333333333333,7223.258202833,7224.166224125,13,7223.322992166,7223.388785333,7224.195441,7225.172111666,1,0.90802129199983
131,20,8,categorization,0,bathroom,SHINEd_sun_axxbkopsgyouuebh.tif,58,0.0666666666666667,0.0666666666666667,0.8,7225.177212083,7225.833214416,13,7225.238841958,7225.299979083,7225.8520665,7226.645404791,1,0.656002333000288
131,21,8,categorization,0,bathroom,SHINEd_sun_agguqiubmwhqqunb.tif,22,0.0666666666666667,0.0666666666666667,0.733333333333333,7226.651042791,7227.456831,9,7226.712794625,7226.773777916,7227.475507333,7228.202178458,0,0.805788209000639
131,22,8,categorization,0,bathroom,SHINEd_sun_ahqjwnzgolcaoidx.tif,29,0.0666666666666667,0.0666666666666667,0.966666666666667,7228.207835541,7229.304914958,9,7228.269426958,7228.330676208,7229.31569225,7230.275696208,0,1.0970794169998
131,23,8,categorization,0,kitchen,SHINEd_sun_abrcnpqqhmjwekyf.tif,73,0.0666666666666667,0.0666666666666667,0.866666666666667,7230.282455,7231.056298041,13,7230.344204916,7230.40509675,7231.074203333,7231.93420775,0,0.773843041000873
131,24,8,categorization,0,kitchen,SHINEd_sun_abpwyqmlzafvklqo.tif,72,0.0666666666666667,0.0666666666666667,1.23333333333333,7231.939996458,7232.744995,9,7232.001760916,7232.062847208,7232.7649075,7233.991623583,1,0.804998542000249
131,25,8,categorization,0,bathroom,SHINEd_sun_aavhrsfjbserjtht.tif,13,0.0666666666666667,0.0666666666666667,1.9,7234.008496875,7234.845572083,9,7234.07564925,7234.141129875,7234.863974625,7236.757344,0,0.837075207999987
131,26,8,categorization,0,bathroom,SHINEd_sun_ahaulkltgpkeeemi.tif,26,0.0666666666666667,0.0666666666666667,0.866666666666667,7236.775292958,7237.531860416,13,7236.841987541,7236.90806425,7237.547384666,7238.407390625,1,0.756567458000063
131,27,8,categorization,0,kitchen,SHINEd_sun_aeqdocilnnpuvuhx.tif,83,0.0666666666666667,0.0666666666666667,0.966666666666667,7238.413036708,7239.04053425,13,7238.474745083,7238.535796041,7239.054544875,7240.014551583,0,0.627497542000128
131,28,8,categorization,0,kitchen,SHINEd_sun_aamedkxepzlwuxes.tif,65,0.0666666666666667,0.0666666666666667,0.916666666666667,7240.020200541,7240.737299083,13,7240.081914625,7240.142947333,7240.744888958,7241.654894458,0,0.717098541999803
131,29,8,categorization,0,bathroom,SHINEd_sun_aunuadmjocsddsrl.tif,52,0.0666666666666667,0.0666666666666667,0.916666666666667,7241.660098125,7242.34485525,13,7241.721762,7241.782818458,7242.351549333,7243.261553833,1,0.684757125000033
131,30,8,categorization,0,bathroom,SHINEd_sun_aapitsgbtktqubfy.tif,12,0.0666666666666667,0.0666666666666667,1.4,7243.266388333,7244.176697416,9,7243.327936458,7243.389232958,7244.19124,7245.584613125,0,0.910309083000357
131,31,8,categorization,0,bathroom,SHINEd_sun_aljolscmmzydegqp.tif,33,0.0666666666666667,0.0666666666666667,1.75,7245.60323625,7246.298123291,13,7245.670515875,7245.736577375,7246.327281541,7248.070678291,1,0.694887040999674
131,32,8,categorization,0,kitchen,SHINEd_sun_agzzivivdpnawacl.tif,89,0.0666666666666667,0.0666666666666667,1.25,7248.090116208,7248.975059875,9,7248.157423291,7248.223456208,7248.997176041,7250.240557916,1,0.884943666999789
131,33,8,categorization,0,kitchen,SHINEd_sun_afuyedyxivkhecmu.tif,85,0.0666666666666667,0.0666666666666667,1.05,7250.259480166,7251.066512166,9,7250.326965291,7250.392518375,7251.081436833,7252.124778541,1,0.807032000000618
131,34,8,categorization,0,bathroom,SHINEd_sun_apjevzvycyhuqghb.tif,43,0.0666666666666667,0.0666666666666667,1.06666666666667,7252.13237675,7253.041047916,9,7252.194203833,7252.255134208,7253.057762583,7254.117805666,0,0.908671166000204
131,35,8,categorization,0,bathroom,SHINEd_sun_alkosphxlxwjwgjd.tif,34,0.0666666666666667,0.0666666666666667,1.21666666666667,7254.127705375,7255.108554208,13,7254.192500875,7254.259204291,7255.132736625,7256.342785916,1,0.980848832999982
131,36,8,categorization,0,bathroom,SHINEd_sun_abapwbhyhkfixyex.tif,14,0.0666666666666667,0.0666666666666667,0.95,7256.358321458,7257.178913208,13,7256.425921291,7256.491453958,7257.1964925,7258.139875083,1,0.820591749999949
131,37,8,categorization,0,bathroom,SHINEd_sun_ahcvzmoyaycdoftf.tif,27,0.0666666666666667,0.0666666666666667,0.9,7258.156400041,7258.984721208,13,7258.223350708,7258.284133583,7259.003324958,7259.896664541,1,0.828321167000468
131,38,8,categorization,0,kitchen,SHINEd_sun_ahpczsiumwwocjkv.tif,92,0.0666666666666667,0.0666666666666667,1.78333333333333,7259.902218,7260.712761083,9,7259.96400025,7260.025001916,7260.726961791,7262.5036445,1,0.810543083000084
131,39,8,categorization,0,bathroom,SHINEd_sun_aoybiabnpadelefl.tif,41,0.0666666666666667,0.0666666666666667,1.16666666666667,7262.515429,7263.345479708,9,7262.5826695,7262.64828325,7263.370597208,7264.530643541,0,0.830050708000272
131,40,8,categorization,0,kitchen,SHINEd_sun_ahdycvpopffkzzsu.tif,90,0.0666666666666667,0.0666666666666667,0.783333333333333,7264.541597583,7265.448584041,13,7264.60865825,7264.67443025,7265.464280291,7266.240992666,0,0.906986457999665
131,41,8,categorization,0,kitchen,SHINEd_sun_avszsnwsbuqfgzbn.tif,105,0.0666666666666667,0.0666666666666667,1.23333333333333,7266.258274166,7267.000706083,13,7266.325913208,7266.391390083,7267.010820333,7268.237524666,0,0.742431917000431
131,42,8,categorization,0,bathroom,SHINEd_sun_apkxzenqapsujocq.tif,45,0.0666666666666667,0.0666666666666667,0.9,7268.252649875,7269.0080355,13,7268.319310916,7268.385396333,7269.024956083,7269.918339958,1,0.75538562499969
131,43,8,categorization,0,bathroom,SHINEd_sun_alotolagknyrgtsk.tif,35,0.0666666666666667,0.0666666666666667,0.7,7269.934279833,7270.872364416,13,7270.00120775,7270.067475416,7270.886611083,7271.579949708,1,0.938084583000091
131,44,8,categorization,0,bathroom,SHINEd_sun_anhioqovhscjqqwb.tif,38,0.0666666666666667,0.0666666666666667,1.23333333333333,7271.585803333,7272.328561208,9,7271.647687208,7271.70867975,7272.344351875,7273.571053125,0,0.742757875000279
131,45,8,categorization,0,kitchen,SHINEd_sun_ahljzhgcdpomplvg.tif,91,0.0666666666666667,0.0666666666666667,1,7273.588358416,7274.532948833,9,7273.655111083,7273.721718458,7274.543157791,7275.536496458,1,0.944590416999745
131,46,8,categorization,0,kitchen,SHINEd_sun_aymvwlarqodbwuoc.tif,108,0.0666666666666667,0.0666666666666667,1.38333333333333,7275.542211833,7276.352806041,13,7275.603930625,7275.664943708,7276.367183333,7277.74390575,0,0.810594208000111
131,47,8,categorization,0,bathroom,SHINEd_sun_agyqfjcfkdcydepw.tif,25,0.0666666666666667,0.0666666666666667,1.3,7277.761544333,7278.593848916,13,7277.828148125,7277.8943365,7278.617864875,7279.911260875,1,0.832304583000223
131,48,8,categorization,0,bathroom,SHINEd_sun_ajlawzvmubibwbpy.tif,30,0.0666666666666667,0.0666666666666667,0.833333333333333,7279.929174458,7280.627893458,13,7279.995760625,7280.061690958,7280.651839,7281.478542333,1,0.698718999999983
131,49,8,categorization,0,kitchen,SHINEd_sun_aixorpehvfykdynp.tif,95,0.0666666666666667,0.0666666666666667,0.95,7281.490127875,7282.24839525,9,7281.557039,7281.622817583,7282.258614625,7283.201952333,1,0.758267374999377
131,50,8,categorization,0,bathroom,SHINEd_sun_aofnryafpsjimzsb.tif,40,0.0666666666666667,0.0666666666666667,1.43333333333333,7283.206808125,7283.848063541,9,7283.268452583,7283.329590708,7283.864771208,7285.29150075,0,0.641255415999694
131,1,9,categorization,0,bathroom,SHINEd_sun_ausgutylgojavyoq.tif,53,0.0666666666666667,0.0666666666666667,1.08333333333333,7292.450379125,7293.480892125,13,7292.513139875,7292.573097,7293.491870416,7294.56857875,1,1.0305129999997
131,2,9,categorization,0,bathroom,SHINEd_sun_ahcvzmoyaycdoftf.tif,27,0.0666666666666667,0.0666666666666667,0.8,7294.582572458,7295.201057916,13,7294.647422083,7294.714782041,7295.219210458,7296.012598833,1,0.618485457999668
131,3,9,categorization,0,kitchen,SHINEd_sun_acxkpeoqbwcxfvip.tif,77,0.0666666666666667,0.0666666666666667,0.833333333333333,7296.028282041,7297.096799166,13,7296.094837041,7296.160662583,7297.113272083,7297.939944833,0,1.06851712499974
131,4,9,categorization,0,kitchen,SHINEd_sun_ahpczsiumwwocjkv.tif,92,0.0666666666666667,0.0666666666666667,1.45,7297.945834958,7298.63293575,9,7298.00757075,7298.068570333,7298.636931875,7300.080323208,1,0.68710079199991
131,5,9,categorization,0,kitchen,SHINEd_sun_akcjzhbbjlbogpdi.tif,99,0.0666666666666667,0.0666666666666667,1.3,7300.10145325,7300.701535875,9,7300.168248125,7300.234639875,7300.72461125,7302.018005708,1,0.600082625000141
131,6,9,categorization,0,kitchen,SHINEd_sun_aadbddgrdsjugojn.tif,64,0.0666666666666667,0.0666666666666667,1.21666666666667,7302.035533166,7303.03343175,9,7302.102359833,7302.168425625,7303.058817208,7304.26885825,1,0.997898583999813
131,7,9,categorization,0,bathroom,SHINEd_sun_awnqiikzaispgmwo.tif,56,0.0666666666666667,0.0666666666666667,0.733333333333333,7304.2861365,7305.133772041,13,7304.352988375,7304.419053708,7305.157446833,7305.884149375,1,0.847635541000272
131,8,9,categorization,0,bathroom,SHINEd_sun_abjtwfukuwddzted.tif,15,0.0666666666666667,0.0666666666666667,1.03333333333333,7305.896101333,7306.616355833,13,7305.962435625,7306.02905,7306.631630833,7307.658341416,1,0.72025450000001
131,9,9,categorization,0,kitchen,SHINEd_sun_agzzivivdpnawacl.tif,89,0.0666666666666667,0.0666666666666667,1.1,7307.671563,7308.483578833,13,7307.736714708,7307.803051458,7308.510376166,7309.603758833,0,0.81201583300026
131,10,9,categorization,0,bathroom,SHINEd_sun_avhrdrntsqrjzccq.tif,55,0.0666666666666667,0.0666666666666667,1.25,7309.620912666,7310.295963458,9,7309.687902958,7309.745148416,7310.313589833,7311.556981833,0,0.675050792000548
131,11,9,categorization,0,kitchen,SHINEd_sun_ahdycvpopffkzzsu.tif,90,0.0666666666666667,0.0666666666666667,1.4,7311.574904958,7312.330378625,9,7311.641657458,7311.707366541,7312.34603825,7313.739418625,1,0.755473666999933
131,12,9,categorization,0,bathroom,SHINEd_sun_apkruvsevgegsdwp.tif,44,0.0666666666666667,0.0666666666666667,1.43333333333333,7313.7548545,7314.428123458,9,7313.821629583,7313.887604791,7314.443469291,7315.87017225,0,0.673268958000335
