sub_num,trial,block,task,is_practice,category,image,texture,duration,mask_dur,jitter,stim_time,time_of_resp,trial_response,mask_time,fix_time,jit_onset,trial_end,trial_accuracy,RT
131,1,8,categorization,0,kitchen,SHINEd_sun_abdenxonkemggwsq.tif,69,0.0666666666666667,0.0666666666666667,1.18333333333333,7187.772855458,7188.760735083,9,7187.83537725,7187.89558375,7188.764440583,7189.941147708,1,0.98787962500046
131,2,8,categorization,0,kitchen,SHINEd_labelme_kxvouciolcpqplr.tif,62,0.0666666666666667,0.0666666666666667,0.983333333333333,7189.952696458,7190.554665666,9,7190.019413208,7190.08561175,7190.575406625,7191.552116208,1,0.6019692079999
131,3,8,categorization,0,kitchen,SHINEd_sun_auticobqsbwgoppi.tif,104,0.0666666666666667,0.0666666666666667,1.65,7191.56886975,7192.305331958,13,7191.635729916,7191.701971833,7192.321001416,7193.96438425,0,0.736462208000376
131,4,8,categorization,0,bathroom,SHINEd_sun_avhrdrntsqrjzccq.tif,55,0.0666666666666667,0.0666666666666667,1.23333333333333,7193.985114333,7194.86855925,13,7194.052026083,7194.117769958,7194.890575791,7196.11728425,1,0.883444916999906
131,5,8,categorization,0,bathroom,SHINEd_sun_aqrpegblszgcoujh.tif,48,0.0666666666666667,0.0666666666666667,0.916666666666667,7196.13590375,7196.78890225,9,7196.203524541,7196.269133208,7196.809793291,7197.719847333,0,0.652998500000649
131,6,8,categorization,0,kitchen,SHINEd_sun_adgqasybjyktddhj.tif,78,0.0666666666666667,0.0666666666666667,1.56666666666667,7197.736815041,7198.392939208,9,7197.803885166,7197.870592875,7198.406225166,7199.96628075,1,0.656124166999689
131,7,8,categorization,0,kitchen,SHINEd_sun_ajcbwwvdlsvjyzje.tif,96,0.0666666666666667,0.0666666666666667,1.63333333333333,7199.984497958,7200.844252125,13,7200.051020583,7200.117536541,7200.873234375,7202.499944166,0,0.859754166999664
131,8,8,categorization,0,bathroom,SHINEd_sun_aghyqhbptboemmoq.tif,23,0.0666666666666667,0.0666666666666667,1.1,7202.517817958,7202.638277791,13,7202.584852791,7202.652051583,7202.6746195,7203.767991291,1,0.120459833000496
131,9,8,categorization,0,bathroom,SHINEd_sun_axyrejkiiaqiurjk.tif,59,0.0666666666666667,0.0666666666666667,1.38333333333333,7203.78621,7204.697225291,9,7203.8530415,7203.916035583,7204.701621958,7206.078334083,0,0.911015290999785
131,10,8,categorization,0,bathroom,SHINEd_sun_awnqiikzaispgmwo.tif,56,0.0666666666666667,0.0666666666666667,0.766666666666667,7206.096235958,7206.836448083,13,7206.163101125,7206.228805916,7206.851250833,7207.611302375,1,0.740212124999744
131,11,8,categorization,0,kitchen,SHINEd_sun_abftihopvusyfakt.tif,71,0.0666666666666667,0.0666666666666667,1.45,7207.62836175,7208.289068041,9,7207.695105958,7207.761125041,7208.2970705,7209.740456791,1,0.660706290999769
131,12,8,categorization,0,kitchen,SHINEd_sun_ahspylgoovwmwvgk.tif,93,0.0666666666666667,0.0666666666666667,0.983333333333333,7209.758516166,7210.227998083,9,7209.825244083,7209.891892291,7210.248709708,7211.225435916,1,0.469481916999939
131,13,8,categorization,0,kitchen,SHINEd_sun_aqeaevwwwjoqhzvl.tif,101,0.0666666666666667,0.0666666666666667,0.716666666666667,7211.235272208,7211.872890833,9,7211.302065166,7211.359987333,7211.878532791,7212.588538083,1,0.637618624999959
131,14,8,categorization,0,bathroom,SHINEd_sun_amzlamotzwfkwjco.tif,37,0.0666666666666667,0.0666666666666667,1.41666666666667,7212.59419075,7213.328763333,9,7212.655942416,7212.716935625,7213.335437416,7214.745497125,0,0.734572583000045
131,15,8,categorization,0,kitchen,SHINEd_sun_aarfiyshqohlwkmo.tif,67,0.0666666666666667,0.0666666666666667,1.21666666666667,7214.764189875,7215.464432875,9,7214.830910333,7214.895659708,7215.485806833,7216.695859166,1,0.700243000000228
131,16,8,categorization,0,bathroom,SHINEd_sun_apkruvsevgegsdwp.tif,44,0.0666666666666667,0.0666666666666667,1.61666666666667,7216.71412925,7217.396715416,9,7216.780991541,7216.847051958,7217.420842291,7219.030882291,0,0.682586165999965
131,17,8,categorization,0,kitchen,SHINEd_sun_acwjdupvyjsugpay.tif,76,0.0666666666666667,0.0666666666666667,0.783333333333333,7219.05579625,7219.858731166,9,7219.123431541,7219.187461166,7219.877808458,7220.65452,1,0.802934916000595
131,18,8,categorization,0,kitchen,SHINEd_sun_aehawpgmrlhlvcow.tif,81,0.0666666666666667,0.0666666666666667,1.98333333333333,7220.662147583,7221.264892,13,7220.723928,7220.7847845,7221.270109083,7223.246799291,0,0.602744417000395
131,19,8,categorization,0,bathroom,SHINEd_sun_abjtwfukuwddzted.tif,15,0.0666666666666667,0.0666666666666667,0.983333333333333,7223.258202833,7224.166224125,13,7223.322992166,7223.388785333,7224.195441,7225.172111666,1,0.90802129199983
131,20,8,categorization,0,bathroom,SHINEd_sun_axxbkopsgyouuebh.tif,58,0.0666666666666667,0.0666666666666667,0.8,7225.177212083,7225.833214416,13,7225.238841958,7225.299979083,7225.8520665,7226.645404791,1,0.656002333000288
131,21,8,categorization,0,bathroom,SHINEd_sun_agguqiubmwhqqunb.tif,22,0.0666666666666667,0.0666666666666667,0.733333333333333,7226.651042791,7227.456831,9,7226.712794625,7226.773777916,7227.475507333,7228.202178458,0,0.805788209000639
131,22,8,categorization,0,bathroom,SHINEd_sun_ahqjwnzgolcaoidx.tif,29,0.0666666666666667,0.0666666666666667,0.966666666666667,7228.207835541,7229.304914958,9,7228.269426958,7228.330676208,7229.31569225,7230.275696208,0,1.0970794169998
131,23,8,categorization,0,kitchen,SHINEd_sun_abrcnpqqhmjwekyf.tif,73,0.0666666666666667,0.0666666666666667,0.866666666666667,7230.282455,7231.056298041,13,7230.344204916,7230.40509675,7231.074203333,7231.93420775,0,0.773843041000873
131,24,8,categorization,0,kitchen,SHINEd_sun_abpwyqmlzafvklqo.tif,72,0.0666666666666667,0.0666666666666667,1.23333333333333,7231.939996458,7232.744995,9,7232.001760916,7232.062847208,7232.7649075,7233.991623583,1,0.804998542000249
131,25,8,categorization,0,bathroom,SHINEd_sun_aavhrsfjbserjtht.tif,13,0.0666666666666667,0.0666666666666667,1.9,7234.008496875,7234.845572083,9,7234.07564925,7234.141129875,7234.863974625,7236.757344,0,0.837075207999987
131,26,8,categorization,0,bathroom,SHINEd_sun_ahaulkltgpkeeemi.tif,26,0.0666666666666667,0.0666666666666667,0.866666666666667,7236.775292958,7237.531860416,13,7236.841987541,7236.90806425,7237.547384666,7238.407390625,1,0.756567458000063
131,27,8,categorization,0,kitchen,SHINEd_sun_aeqdocilnnpuvuhx.tif,83,0.0666666666666667,0.0666666666666667,0.966666666666667,7238.413036708,7239.04053425,13,7238.474745083,7238.535796041,7239.054544875,7240.014551583,0,0.627497542000128
131,28,8,categorization,0,kitchen,SHINEd_sun_aamedkxepzlwuxes.tif,65,0.0666666666666667,0.0666666666666667,0.916666666666667,7240.020200541,7240.737299083,13,7240.081914625,7240.142947333,7240.744888958,7241.654894458,0,0.717098541999803
131,29,8,categorization,0,bathroom,SHINEd_sun_aunuadmjocsddsrl.tif,52,0.0666666666666667,0.0666666666666667,0.916666666666667,7241.660098125,7242.34485525,13,7241.721762,7241.782818458,7242.351549333,7243.261553833,1,0.684757125000033
131,30,8,categorization,0,bathroom,SHINEd_sun_aapitsgbtktqubfy.tif,12,0.0666666666666667,0.0666666666666667,1.4,7243.266388333,7244.176697416,9,7243.327936458,7243.389232958,7244.19124,7245.584613125,0,0.910309083000357
131,31,8,categorization,0,bathroom,SHINEd_sun_aljolscmmzydegqp.tif,33,0.0666666666666667,0.0666666666666667,1.75,7245.60323625,7246.298123291,13,7245.670515875,7245.736577375,7246.327281541,7248.070678291,1,0.694887040999674
131,32,8,categorization,0,kitchen,SHINEd_sun_agzzivivdpnawacl.tif,89,0.0666666666666667,0.0666666666666667,1.25,7248.090116208,7248.975059875,9,7248.157423291,7248.223456208,7248.997176041,7250.240557916,1,0.884943666999789
131,33,8,categorization,0,kitchen,SHINEd_sun_afuyedyxivkhecmu.tif,85,0.0666666666666667,0.0666666666666667,1.05,7250.259480166,7251.066512166,9,7250.326965291,7250.392518375,7251.081436833,7252.124778541,1,0.807032000000618
131,34,8,categorization,0,bathroom,SHINEd_sun_apjevzvycyhuqghb.tif,43,0.0666666666666667,0.0666666666666667,1.06666666666667,7252.13237675,7253.041047916,9,7252.194203833,7252.255134208,7253.057762583,7254.117805666,0,0.908671166000204
131,35,8,categorization,0,bathroom,SHINEd_sun_alkosphxlxwjwgjd.tif,34,0.0666666666666667,0.0666666666666667,1.21666666666667,7254.127705375,7255.108554208,13,7254.192500875,7254.259204291,7255.132736625,7256.342785916,1,0.980848832999982
131,36,8,categorization,0,bathroom,SHINEd_sun_abapwbhyhkfixyex.tif,14,0.0666666666666667,0.0666666666666667,0.95,7256.358321458,7257.178913208,13,7256.425921291,7256.491453958,7257.1964925,7258.139875083,1,0.820591749999949
131,37,8,categorization,0,bathroom,SHINEd_sun_ahcvzmoyaycdoftf.tif,27,0.0666666666666667,0.0666666666666667,0.9,7258.156400041,7258.984721208,13,7258.223350708,7258.284133583,7259.003324958,7259.896664541,1,0.828321167000468
131,38,8,categorization,0,kitchen,SHINEd_sun_ahpczsiumwwocjkv.tif,92,0.0666666666666667,0.0666666666666667,1.78333333333333,7259.902218,7260.712761083,9,7259.96400025,7260.025001916,7260.726961791,7262.5036445,1,0.810543083000084
131,39,8,categorization,0,bathroom,SHINEd_sun_aoybiabnpadelefl.tif,41,0.0666666666666667,0.0666666666666667,1.16666666666667,7262.515429,7263.345479708,9,7262.5826695,7262.64828325,7263.370597208,7264.530643541,0,0.830050708000272
131,40,8,categorization,0,kitchen,SHINEd_sun_ahdycvpopffkzzsu.tif,90,0.0666666666666667,0.0666666666666667,0.783333333333333,7264.541597583,7265.448584041,13,7264.60865825,7264.67443025,7265.464280291,7266.240992666,0,0.906986457999665
131,41,8,categorization,0,kitchen,SHINEd_sun_avszsnwsbuqfgzbn.tif,105,0.0666666666666667,0.0666666666666667,1.23333333333333,7266.258274166,7267.000706083,13,7266.325913208,7266.391390083,7267.010820333,7268.237524666,0,0.742431917000431
131,42,8,categorization,0,bathroom,SHINEd_sun_apkxzenqapsujocq.tif,45,0.0666666666666667,0.0666666666666667,0.9,7268.252649875,7269.0080355,13,7268.319310916,7268.385396333,7269.024956083,7269.918339958,1,0.75538562499969
131,43,8,categorization,0,bathroom,SHINEd_sun_alotolagknyrgtsk.tif,35,0.0666666666666667,0.0666666666666667,0.7,7269.934279833,7270.872364416,13,7270.00120775,7270.067475416,7270.886611083,7271.579949708,1,0.938084583000091
131,44,8,categorization,0,bathroom,SHINEd_sun_anhioqovhscjqqwb.tif,38,0.0666666666666667,0.0666666666666667,1.23333333333333,7271.585803333,7272.328561208,9,7271.647687208,7271.70867975,7272.344351875,7273.571053125,0,0.742757875000279
131,45,8,categorization,0,kitchen,SHINEd_sun_ahljzhgcdpomplvg.tif,91,0.0666666666666667,0.0666666666666667,1,7273.588358416,7274.532948833,9,7273.655111083,7273.721718458,7274.543157791,7275.536496458,1,0.944590416999745
131,46,8,categorization,0,kitchen,SHINEd_sun_aymvwlarqodbwuoc.tif,108,0.0666666666666667,0.0666666666666667,1.38333333333333,7275.542211833,7276.352806041,13,7275.603930625,7275.664943708,7276.367183333,7277.74390575,0,0.810594208000111
131,47,8,categorization,0,bathroom,SHINEd_sun_agyqfjcfkdcydepw.tif,25,0.0666666666666667,0.0666666666666667,1.3,7277.761544333,7278.593848916,13,7277.828148125,7277.8943365,7278.617864875,7279.911260875,1,0.832304583000223
131,48,8,categorization,0,bathroom,SHINEd_sun_ajlawzvmubibwbpy.tif,30,0.0666666666666667,0.0666666666666667,0.833333333333333,7279.929174458,7280.627893458,13,7279.995760625,7280.061690958,7280.651839,7281.478542333,1,0.698718999999983
131,49,8,categorization,0,kitchen,SHINEd_sun_aixorpehvfykdynp.tif,95,0.0666666666666667,0.0666666666666667,0.95,7281.490127875,7282.24839525,9,7281.557039,7281.622817583,7282.258614625,7283.201952333,1,0.758267374999377
131,50,8,categorization,0,bathroom,SHINEd_sun_aofnryafpsjimzsb.tif,40,0.0666666666666667,0.0666666666666667,1.43333333333333,7283.206808125,7283.848063541,9,7283.268452583,7283.329590708,7283.864771208,7285.29150075,0,0.641255415999694
