sub_num,trial,block,task,is_practice,category,image,texture,duration,mask_dur,jitter,stim_time,time_of_resp,trial_response,mask_time,fix_time,jit_onset,trial_end,trial_accuracy,RT
131,1,3,categorization,0,bathroom,SHINEd_sun_ahaulkltgpkeeemi.tif,26,0.0666666666666667,0.0666666666666667,0.85,6548.359742583,6549.212005958,13,6548.422216291,6548.482502708,6549.217687458,6550.061025708,1,0.852263374999893
131,2,3,categorization,0,bathroom,SHINEd_sun_akiytfaagpdsphgz.tif,31,0.0666666666666667,0.0666666666666667,1.65,6550.066758583,6551.1637195,9,6550.128502291,6550.189759666,6551.174788041,6552.818165041,0,1.09696091700062
131,3,3,categorization,0,kitchen,SHINEd_sun_aadbddgrdsjugojn.tif,64,0.0666666666666667,0.0666666666666667,0.783333333333333,6552.834502291,6553.729526,9,6552.901482416,6552.967710458,6553.75794325,6554.534613583,1,0.89502370900027
131,4,3,categorization,0,kitchen,SHINEd_sun_acgtpgfybqjmzeyw.tif,75,0.0666666666666667,0.0666666666666667,0.933333333333333,6554.539571083,6555.323425125,9,6554.601280958,6554.662348875,6555.330903208,6556.257573791,1,0.783854041999803
131,5,3,categorization,0,kitchen,SHINEd_sun_acxkpeoqbwcxfvip.tif,77,0.0666666666666667,0.0666666666666667,0.866666666666667,6556.263349041,6556.979437583,9,6556.324983375,6556.38601025,6556.988048333,6557.848054166,1,0.716088541999852
131,6,3,categorization,0,kitchen,SHINEd_sun_aggjlwcdjsjcaemh.tif,86,0.0666666666666667,0.0666666666666667,1.11666666666667,6557.853751041,6558.619421875,13,6557.915407083,6557.976466583,6558.628657375,6559.738718958,0,0.765670834000048
131,7,3,categorization,0,kitchen,SHINEd_sun_aexklacwqwezaorf.tif,84,0.0666666666666667,0.0666666666666667,0.966666666666667,6559.748557708,6560.54304225,13,6559.813472458,6559.881598625,6560.571595,6561.531648583,0,0.794484542000646
131,8,3,categorization,0,bathroom,SHINEd_sun_ajlawzvmubibwbpy.tif,30,0.0666666666666667,0.0666666666666667,1.78333333333333,6561.548076708,6563.083837833,13,6561.614897291,6561.673251541,6563.092239,6564.868944458,1,1.53576112500014
131,9,3,categorization,0,bathroom,SHINEd_sun_axldvoqbuvuggfmq.tif,57,0.0666666666666667,0.0666666666666667,1.55,6564.889080208,6566.131472916,13,6564.956131125,6565.021952916,6566.166001416,6567.709374583,1,1.2423927079999
131,10,3,categorization,0,bathroom,SHINEd_sun_apynckhmoftszqoq.tif,47,0.0666666666666667,0.0666666666666667,1.41666666666667,6567.727595375,6568.722748125,13,6567.794919833,6567.860525333,6568.750830625,6570.160880083,1,0.995152749999761
131,11,3,categorization,0,bathroom,SHINEd_sun_axxbkopsgyouuebh.tif,58,0.0666666666666667,0.0666666666666667,0.8,6570.178708583,6570.96301675,13,6570.24718475,6570.311237416,6570.984627541,6571.777999291,1,0.784308166999836
131,12,3,categorization,0,kitchen,SHINEd_sun_abpwyqmlzafvklqo.tif,72,0.0666666666666667,0.0666666666666667,1.28333333333333,6571.794481791,6572.963583291,13,6571.860813375,6571.918783125,6572.971367666,6574.248094041,0,1.16910149999967
131,13,3,categorization,0,bathroom,SHINEd_sun_aggnnqpdorgxpvce.tif,21,0.0666666666666667,0.0666666666666667,1.66666666666667,6574.265280625,6574.839736375,9,6574.333567875,6574.398291625,6574.853859375,6576.513915375,0,0.574455750000197
131,14,3,categorization,0,bathroom,SHINEd_sun_ausgutylgojavyoq.tif,53,0.0666666666666667,0.0666666666666667,1.81666666666667,6576.532575416,6577.268066708,9,6576.59986425,6576.66526275,6577.287857458,6579.097897375,0,0.735491292000006
131,15,3,categorization,0,bathroom,SHINEd_sun_avhrdrntsqrjzccq.tif,55,0.0666666666666667,0.0666666666666667,1.35,6579.11626625,6579.900323833,9,6579.181365458,6579.247555291,6579.921156708,6581.264538583,0,0.784057582999594
131,16,3,categorization,0,bathroom,SHINEd_sun_alkosphxlxwjwgjd.tif,34,0.0666666666666667,0.0666666666666667,0.916666666666667,6581.283040958,6582.16939375,9,6581.347760208,6581.416274875,6582.189706916,6583.099712416,0,0.886352792000253
131,17,3,categorization,0,kitchen,SHINEd_sun_aypmqwcualkenuoe.tif,109,0.0666666666666667,0.0666666666666667,0.916666666666667,6583.10576225,6584.107490291,9,6583.167424291,6583.2285155,6584.114137958,6585.024143416,1,1.00172804100021
131,18,3,categorization,0,bathroom,SHINEd_sun_ahijqszoswveeyji.tif,28,0.0666666666666667,0.0666666666666667,1.31666666666667,6585.02984125,6585.63591475,13,6585.09169125,6585.152609375,6585.654762541,6586.964811458,1,0.606073500000093
131,19,3,categorization,0,bathroom,SHINEd_sun_aapitsgbtktqubfy.tif,12,0.0666666666666667,0.0666666666666667,1.45,6586.98303925,6587.75198825,13,6587.049292958,6587.115630416,6587.771918666,6589.2152735,1,0.768949000000248
131,20,3,categorization,0,kitchen,SHINEd_labelme_brsyyvweiuaazfr.tif,61,0.0666666666666667,0.0666666666666667,0.95,6589.224745875,6590.075984916,13,6589.2920065,6589.352942083,6590.092167416,6591.035507208,0,0.851239041000554
131,21,3,categorization,0,bathroom,SHINEd_sun_aghyqhbptboemmoq.tif,23,0.0666666666666667,0.0666666666666667,1.38333333333333,6591.041336208,6591.747144,9,6591.102999875,6591.164136708,6591.7662465,6593.142968583,0,0.705807792000087
131,22,3,categorization,0,bathroom,SHINEd_sun_aljolscmmzydegqp.tif,33,0.0666666666666667,0.0666666666666667,1.16666666666667,6593.157763375,6593.795306583,9,6593.222975708,6593.290254541,6593.812582958,6594.97264,0,0.637543207999443
131,23,3,categorization,0,kitchen,SHINEd_sun_aqeaevwwwjoqhzvl.tif,101,0.0666666666666667,0.0666666666666667,1.61666666666667,6594.9837835,6595.840205333,9,6595.052018333,6595.117356833,6595.858302416,6597.468341,1,0.85642183300024
131,24,3,categorization,0,bathroom,SHINEd_sun_apjevzvycyhuqghb.tif,43,0.0666666666666667,0.0666666666666667,1.38333333333333,6597.487384083,6598.165650875,13,6597.554735791,6597.621042833,6598.194826,6599.571550541,1,0.678266792000613
131,25,3,categorization,0,kitchen,SHINEd_sun_abdenxonkemggwsq.tif,69,0.0666666666666667,0.0666666666666667,1.78333333333333,6599.590084333,6600.325552333,13,6599.657433,6599.723354625,6600.347865541,6602.124585791,0,0.735467999999855
131,26,3,categorization,0,kitchen,SHINEd_sun_ahywdevtimnqcsln.tif,94,0.0666666666666667,0.0666666666666667,0.783333333333333,6602.143818291,6603.044967375,13,6602.211409041,6602.277372083,6603.068009041,6603.844681875,0,0.901149084000281
131,27,3,categorization,0,bathroom,SHINEd_sun_alotolagknyrgtsk.tif,35,0.0666666666666667,0.0666666666666667,1.65,6603.852259791,6604.579511875,9,6603.914073625,6603.975088666,6604.593697291,6606.237078291,0,0.727252084000611
131,28,3,categorization,0,kitchen,SHINEd_sun_abrcnpqqhmjwekyf.tif,73,0.0666666666666667,0.0666666666666667,1.86666666666667,6606.254735291,6607.035883666,9,6606.321554291,6606.387579791,6607.060926666,6608.920971,1,0.781148375000157
131,29,3,categorization,0,bathroom,SHINEd_sun_apeeialkgkuxddgh.tif,42,0.0666666666666667,0.0666666666666667,1.23333333333333,6608.940089583,6609.621863208,9,6609.006905541,6609.073046833,6609.647267041,6610.873969666,0,0.681773624999551
131,30,3,categorization,0,kitchen,SHINEd_sun_auticobqsbwgoppi.tif,104,0.0666666666666667,0.0666666666666667,0.7,6610.892228208,6611.612265916,13,6610.959363166,6611.025772083,6611.630549833,6612.323930875,0,0.720037707999836
131,31,3,categorization,0,bathroom,SHINEd_sun_aunuadmjocsddsrl.tif,52,0.0666666666666667,0.0666666666666667,0.716666666666667,6612.337885625,6613.115877791,13,6612.404767333,6612.470509,6613.123072333,6613.833078,1,0.777992165999422
131,32,3,categorization,0,bathroom,SHINEd_sun_auzqhkafidnkrwmo.tif,54,0.0666666666666667,0.0666666666666667,1.05,6613.838667333,6615.003185,9,6613.90043625,6613.961430541,6615.013998625,6616.057368333,0,1.16451766699993
131,33,3,categorization,0,kitchen,SHINEd_sun_acfmftudsenhrfhy.tif,74,0.0666666666666667,0.0666666666666667,1.1,6616.070569458,6616.933920833,9,6616.135424125,6616.201800083,6616.959623041,6618.053002625,1,0.863351375000093
131,34,3,categorization,0,kitchen,SHINEd_sun_avszsnwsbuqfgzbn.tif,105,0.0666666666666667,0.0666666666666667,1.13333333333333,6618.072369416,6618.963539083,9,6618.134496583,6618.195220916,6618.980534875,6620.1072385,1,0.891169667000213
131,35,3,categorization,0,bathroom,SHINEd_sun_acgyywnybuveqsro.tif,18,0.0666666666666667,0.0666666666666667,1.38333333333333,6620.117094583,6620.8440375,13,6620.182514125,6620.249839958,6620.873106833,6622.249830583,1,0.726942917000088
131,36,3,categorization,0,kitchen,SHINEd_sun_ajkqhtgcbgpcwrwn.tif,97,0.0666666666666667,0.0666666666666667,1.5,6622.268243416,6623.149882333,9,6622.335491208,6622.401145833,6623.172733791,6624.666116375,1,0.8816389170006
131,37,3,categorization,0,kitchen,SHINEd_sun_aehawpgmrlhlvcow.tif,81,0.0666666666666667,0.0666666666666667,1.61666666666667,6624.684597208,6625.526750333,9,6624.751060125,6624.817875375,6625.540360375,6627.150403166,1,0.842153124999641
131,38,3,categorization,0,bathroom,SHINEd_sun_aofnryafpsjimzsb.tif,40,0.0666666666666667,0.0666666666666667,0.983333333333333,6627.161307958,6627.969256,9,6627.226312458,6627.29435225,6627.983709958,6628.960383333,0,0.807948042000135
131,39,3,categorization,0,kitchen,SHINEd_sun_admlmbcdswaszruo.tif,79,0.0666666666666667,0.0666666666666667,1.3,6628.966257,6629.690972875,13,6629.028030916,6629.089074333,6629.707609375,6631.001004458,0,0.724715874999674
131,40,3,categorization,0,bathroom,SHINEd_sun_azqyogdvyhahyram.tif,60,0.0666666666666667,0.0666666666666667,1.03333333333333,6631.020316041,6631.727922833,13,6631.087255208,6631.152736166,6631.741886416,6632.768602041,1,0.707606791999751
131,41,3,categorization,0,kitchen,SHINEd_sun_aarfiyshqohlwkmo.tif,67,0.0666666666666667,0.0666666666666667,1.45,6632.787352291,6633.499708125,9,6632.849903916,6632.910122541,6633.511976208,6634.955372375,1,0.712355833999936
131,42,3,categorization,0,kitchen,SHINEd_sun_ahljzhgcdpomplvg.tif,91,0.0666666666666667,0.0666666666666667,1.23333333333333,6634.972228916,6635.738721791,9,6635.038910083,6635.104722166,6635.761193708,6636.987898875,1,0.76649287500004
131,43,3,categorization,0,bathroom,SHINEd_sun_agrwbmhcpmfuwmsg.tif,24,0.0666666666666667,0.0666666666666667,1.26666666666667,6637.005050333,6637.559490791,9,6637.071851708,6637.137988708,6637.577525958,6638.837568458,0,0.55444045799959
131,44,3,categorization,0,bathroom,SHINEd_sun_abapwbhyhkfixyex.tif,14,0.0666666666666667,0.0666666666666667,1.03333333333333,6638.845933125,6639.762859833,9,6638.908347958,6638.968821791,6639.770961083,6640.797666125,0,0.916926708000574
131,45,3,categorization,0,kitchen,SHINEd_labelme_rykdqxenmhulbdn.tif,63,0.0666666666666667,0.0666666666666667,1.31666666666667,6640.811477083,6641.847001291,9,6640.876854,6640.943150291,6641.866077,6643.176135458,1,1.03552420800042
131,46,3,categorization,0,bathroom,SHINEd_sun_apkruvsevgegsdwp.tif,44,0.0666666666666667,0.0666666666666667,1.7,6643.186637666,6643.987540041,13,6643.25092225,6643.319217041,6644.009115583,6645.702504875,1,0.800902375000078
131,47,3,categorization,0,kitchen,SHINEd_sun_azmutvzbxypaceni.tif,110,0.0666666666666667,0.0666666666666667,1.35,6645.720477375,6646.536955916,13,6645.787240458,6645.853220625,6646.559286708,6647.902681291,0,0.816478540999924
131,48,3,categorization,0,kitchen,SHINEd_sun_aamedkxepzlwuxes.tif,65,0.0666666666666667,0.0666666666666667,0.8,6647.920536458,6648.682567125,13,6647.987491541,6648.053619958,6648.710360833,6649.503736375,0,0.762030666999635
131,49,3,categorization,0,kitchen,SHINEd_sun_aapllqyqlykszopd.tif,66,0.0666666666666667,0.0666666666666667,0.766666666666667,6649.520360416,6650.363472541,13,6649.586916875,6649.653422083,6650.372643958,6651.132649041,0,0.843112125000516
131,50,3,categorization,0,kitchen,SHINEd_sun_aaxxjlsuzvqlgylf.tif,68,0.0666666666666667,0.0666666666666667,1.38333333333333,6651.138524625,6651.851527458,13,6651.200178375,6651.261298416,6651.863608916,6653.240332416,0,0.713002833000246
