sub_num,trial,block,task,is_practice,category,image,texture,duration,mask_dur,jitter,stim_time,time_of_resp,trial_response,mask_time,fix_time,jit_onset,trial_end,trial_accuracy,RT
121,6,0,complexity,1,kitchen,kitchen_practice5.tif,230,1.5,0,1.46666666666667,9466.737619125,9471.82779275,2,NaN,9471.833593166,9471.851871541,9473.311941375,NaN,NaN
121,7,0,complexity,1,kitchen,kitchen_practice2.tif,227,1.5,0,1.31666666666667,9473.331935541,9476.403623458,7,NaN,9476.409595958,9476.427960916,9477.738044666,NaN,NaN
121,8,0,complexity,1,kitchen,kitchen_practice4.tif,229,1.5,0,1.76666666666667,9477.754473375,9480.692244125,7,NaN,9480.697711375,9480.716061875,9482.476168708,NaN,NaN
121,9,0,complexity,1,kitchen,kitchen_practice1.tif,226,1.5,0,0.816666666666667,9482.494997333,9485.611503375,6,NaN,9485.63962575,9485.663077291,9486.473088291,NaN,NaN
121,10,0,complexity,1,kitchen,kitchen_practice3.tif,228,1.5,0,0.9,9486.477937583,9489.391928458,1,NaN,9489.418218041,9489.441205625,9490.334547375,NaN,NaN
121,1,1,complexity,0,kitchen,sun_avszsnwsbuqfgzbn.tif,215,1.5,0,1.15,9494.202936083,9497.24419075,7,NaN,9497.26840125,9497.288937416,9498.43234175,NaN,NaN
121,2,1,complexity,0,kitchen,sun_ahpczsiumwwocjkv.tif,202,1.5,0,1.33333333333333,9498.440527541,9502.283599666,1,NaN,9502.289378208,9502.307704333,9503.634467583,NaN,NaN
121,3,1,complexity,0,kitchen,sun_aeqdocilnnpuvuhx.tif,193,1.5,0,1.75,9503.652815458,9506.587736291,5,NaN,9506.593479791,9506.611822541,9508.3552495,NaN,NaN
121,4,1,complexity,0,kitchen,sun_ahywdevtimnqcsln.tif,204,1.5,0,1.2,9508.37433125,9511.147636833,4,NaN,9511.171411625,9511.193159208,9512.386573208,NaN,NaN
121,5,1,complexity,0,kitchen,sun_aqeaevwwwjoqhzvl.tif,211,1.5,0,1.46666666666667,9512.402293333,9515.884221291,6,NaN,9515.889710583,9515.90805225,9517.368108708,NaN,NaN
121,6,1,complexity,0,kitchen,sun_aehawpgmrlhlvcow.tif,191,1.5,0,1.01666666666667,9517.3868105,9520.9317925,2,NaN,9520.937495666,9520.955817333,9521.965924625,NaN,NaN
121,7,1,complexity,0,kitchen,sun_agorklincwxrdtga.tif,197,1.5,0,1.18333333333333,9521.973617083,9524.5552765,4,NaN,9524.561226125,9524.579605875,9525.756345166,NaN,NaN
121,8,1,complexity,0,kitchen,sun_agzzivivdpnawacl.tif,199,1.5,0,1.03333333333333,9525.7686915,9529.667842291,1,NaN,9529.673501,9529.691861208,9530.7186165,NaN,NaN
121,9,1,complexity,0,kitchen,sun_acfmftudsenhrfhy.tif,184,1.5,0,1.25,9530.72662425,9533.89160425,4,NaN,9533.897430833,9533.915795791,9535.159158708,NaN,NaN
121,10,1,complexity,0,kitchen,sun_aarfiyshqohlwkmo.tif,177,1.5,0,0.733333333333333,9535.169901208,9537.900121291,4,NaN,9537.905677416,9537.924087458,9538.650761416,NaN,NaN
121,11,1,complexity,0,kitchen,labelme_rykdqxenmhulbdn.tif,173,1.5,0,1.01666666666667,9538.655065,9541.923820833,3,NaN,9541.929380166,9541.947907875,9542.957974666,NaN,NaN
121,12,1,complexity,0,kitchen,sun_aexklacwqwezaorf.tif,194,1.5,0,1.53333333333333,9542.965816,9546.499423375,4,NaN,9546.50519075,9546.523445416,9548.050197416,NaN,NaN
121,13,1,complexity,0,kitchen,sun_aunzlwrbjumxhwdj.tif,213,1.5,0,1.33333333333333,9548.069304083,9551.020148625,4,NaN,9551.025610875,9551.043883625,9552.370632458,NaN,NaN
121,14,1,complexity,0,kitchen,sun_ahljzhgcdpomplvg.tif,201,1.5,0,1.53333333333333,9552.38885275,9555.427593375,2,NaN,9555.433343625,9555.451729166,9556.978467375,NaN,NaN
121,15,1,complexity,0,kitchen,labelme_kxvouciolcpqplr.tif,172,1.5,0,1.01666666666667,9556.997251958,9560.755629,4,NaN,9560.761168541,9560.779714791,9561.789768375,NaN,NaN
121,16,1,complexity,0,kitchen,sun_awcpdzzznmweyyhv.tif,216,1.5,0,1.23333333333333,9561.79771975,9564.763841125,1,NaN,9564.7695235,9564.787863625,9566.014610541,NaN,NaN
121,17,1,complexity,0,kitchen,sun_aaxxjlsuzvqlgylf.tif,178,1.5,0,1.18333333333333,9566.033505166,9569.331376958,2,NaN,9569.337293416,9569.35562725,9570.532376666,NaN,NaN
121,18,1,complexity,0,kitchen,sun_aamedkxepzlwuxes.tif,175,1.5,0,0.783333333333333,9570.543391625,9573.66719725,2,NaN,9573.673177208,9573.691591541,9574.468265666,NaN,NaN
121,19,1,complexity,0,kitchen,sun_ajcbwwvdlsvjyzje.tif,206,1.5,0,1.73333333333333,9574.47274575,9579.867957333,3,NaN,9579.873583375,9579.891952208,9581.618671916,NaN,NaN
121,20,1,complexity,0,kitchen,sun_azmutvzbxypaceni.tif,220,1.5,0,1.21666666666667,9581.637095708,9584.450409333,2,NaN,9584.479430875,9584.502915833,9585.713003333,NaN,NaN
121,21,1,complexity,0,kitchen,sun_acxkpeoqbwcxfvip.tif,187,1.5,0,1.26666666666667,9585.733162208,9590.339532083,4,NaN,9590.345137708,9590.363549375,9591.623648291,NaN,NaN
121,22,1,complexity,0,kitchen,sun_aggjlwcdjsjcaemh.tif,196,1.5,0,0.783333333333333,9591.639388083,9595.707170291,3,NaN,9595.713465333,9595.731842458,9596.508518708,NaN,NaN
121,23,1,complexity,0,kitchen,sun_aadbddgrdsjugojn.tif,174,1.5,0,1.48333333333333,9596.5127445,9600.347461583,5,NaN,9600.35326075,9600.371535166,9601.848260125,NaN,NaN
121,24,1,complexity,0,kitchen,sun_acwjdupvyjsugpay.tif,186,1.5,0,1.36666666666667,9601.865399708,9605.523842375,2,NaN,9605.529525458,9605.547954041,9606.908052791,NaN,NaN
121,25,1,complexity,0,kitchen,sun_auticobqsbwgoppi.tif,214,1.5,0,0.983333333333333,9606.927058541,9610.955562916,2,NaN,9610.961213583,9610.97946375,9611.95614,NaN,NaN
121,1,2,complexity,0,kitchen,sun_aixorpehvfykdynp.tif,205,1.5,0,1.26666666666667,9615.462500166,9618.20731725,5,NaN,9618.236959458,9618.260096208,9619.520199083,NaN,NaN
121,2,2,complexity,0,kitchen,sun_aypmqwcualkenuoe.tif,219,1.5,0,1.11666666666667,9619.537388333,9622.027307666,4,NaN,9622.033041083,9622.051320958,9623.161402166,NaN,NaN
121,3,2,complexity,0,kitchen,sun_aymvwlarqodbwuoc.tif,218,1.5,0,1.43333333333333,9623.169464875,9626.179156708,3,NaN,9626.1851025,9626.203520875,9627.630256416,NaN,NaN
121,4,2,complexity,0,kitchen,sun_amjjdeyrggfqgmom.tif,210,1.5,0,0.8,9627.644548833,9630.130988666,3,NaN,9630.136748583,9630.1550975,9630.94844125,NaN,NaN
121,5,2,complexity,0,kitchen,sun_akcjzhbbjlbogpdi.tif,209,1.5,0,0.733333333333333,9630.952968458,9635.259346958,3,NaN,9635.265277166,9635.283511958,9636.010186208,NaN,NaN
121,6,2,complexity,0,kitchen,sun_abdxkyyxwfskuaqb.tif,180,1.5,0,1.03333333333333,9636.014384,9638.727334291,3,NaN,9638.754471625,9638.778032458,9639.804797,NaN,NaN
121,7,2,complexity,0,kitchen,sun_acgtpgfybqjmzeyw.tif,185,1.5,0,1.56666666666667,9639.8135035,9642.69126675,4,NaN,9642.696859833,9642.715384541,9644.275473833,NaN,NaN
121,8,2,complexity,0,kitchen,sun_ahdycvpopffkzzsu.tif,200,1.5,0,0.866666666666667,9644.294560875,9647.08272875,5,NaN,9647.088705166,9647.10697175,9647.966979166,NaN,NaN
121,9,2,complexity,0,kitchen,sun_ajkqhtgcbgpcwrwn.tif,207,1.5,0,0.716666666666667,9647.971209666,9650.717425666,4,NaN,9650.738427708,9650.761682,9651.471691666,NaN,NaN
121,10,2,complexity,0,kitchen,sun_agubuxuukhzyzpdp.tif,198,1.5,0,1.33333333333333,9651.481268458,9654.611102958,4,NaN,9654.61767525,9654.635980375,9655.962743083,NaN,NaN
121,11,2,complexity,0,kitchen,sun_aegoxogugdkwpmpj.tif,190,1.5,0,1.01666666666667,9655.981715166,9659.146718458,3,NaN,9659.15284775,9659.171277041,9660.181360041,NaN,NaN
121,12,2,complexity,0,kitchen,sun_aenotlpyftoioydp.tif,192,1.5,0,0.733333333333333,9660.189512,9663.883503458,3,NaN,9663.889115666,9663.90729725,9664.633975625,NaN,NaN
121,13,2,complexity,0,kitchen,sun_auaiucuqpdausiva.tif,212,1.5,0,1.38333333333333,9664.638379333,9668.1151635,3,NaN,9668.1208535,9668.139164166,9669.515932958,NaN,NaN
121,14,2,complexity,0,kitchen,sun_aapllqyqlykszopd.tif,176,1.5,0,1.06666666666667,9669.535157958,9673.251365333,5,NaN,9673.257066333,9673.275403333,9674.33549825,NaN,NaN
121,15,2,complexity,0,kitchen,sun_adgqasybjyktddhj.tif,188,1.5,0,0.85,9674.345338833,9679.155456291,1,NaN,9679.161236833,9679.179595333,9680.022938333,NaN,NaN
121,16,2,complexity,0,kitchen,labelme_brsyyvweiuaazfr.tif,171,1.5,0,0.9,9680.027643333,9683.226613666,3,NaN,9683.232756125,9683.251035416,9684.144376333,NaN,NaN
121,17,2,complexity,0,kitchen,sun_admlmbcdswaszruo.tif,189,1.5,0,1.55,9684.149530666,9688.130942583,1,NaN,9688.136691041,9688.154903291,9689.698308833,NaN,NaN
121,18,2,complexity,0,kitchen,sun_abrcnpqqhmjwekyf.tif,183,1.5,0,0.7,9689.718380166,9692.642783083,1,NaN,9692.648573416,9692.66683025,9693.360171166,NaN,NaN
121,19,2,complexity,0,kitchen,sun_abdenxonkemggwsq.tif,179,1.5,0,0.716666666666667,9693.38132675,9699.171290541,2,NaN,9699.177101333,9699.195524416,9699.905531791,NaN,NaN
121,20,2,complexity,0,kitchen,sun_akchetnepxlcxhsu.tif,208,1.5,0,0.85,9699.910160291,9704.02749875,6,NaN,9704.033244333,9704.051584875,9704.894924875,NaN,NaN
121,21,2,complexity,0,kitchen,sun_axyyrmzcupyhlivc.tif,217,1.5,0,1.35,9704.899388375,9707.580247916,4,NaN,9707.609539833,9707.633093125,9708.976482458,NaN,NaN
121,22,2,complexity,0,kitchen,sun_abftihopvusyfakt.tif,181,1.5,0,1.96666666666667,9708.993943833,9712.594958041,2,NaN,9712.600696875,9712.619156791,9714.579224875,NaN,NaN
121,23,2,complexity,0,kitchen,sun_afuyedyxivkhecmu.tif,195,1.5,0,0.933333333333333,9714.594688833,9718.026455583,6,NaN,9718.032661833,9718.051007208,9718.977684708,NaN,NaN
121,24,2,complexity,0,kitchen,sun_ahspylgoovwmwvgk.tif,203,1.5,0,1.33333333333333,9718.982814416,9721.99572225,2,NaN,9722.024805833,9722.048615166,9723.375365833,NaN,NaN
121,25,2,complexity,0,kitchen,sun_abpwyqmlzafvklqo.tif,182,1.5,0,1.16666666666667,9723.39149125,9725.978982125,1,NaN,9725.984581458,9726.002953,9727.163015291,NaN,NaN
