sub_num,trial,block,task,is_practice,category,image,texture,duration,mask_dur,jitter,stim_time,time_of_resp,trial_response,mask_time,fix_time,jit_onset,trial_end,trial_accuracy,RT
107,1,19,categorization,0,bathroom,SHINEd_sun_ahijqszoswveeyji.tif,28,0.05,0.0666666666666667,1.48333333333333,11099.975368,11101.487673166,13,11100.021703125,11100.081498458,11101.50049375,11102.977198708,1,1.51230516600117
107,2,19,categorization,0,bathroom,SHINEd_sun_aapitsgbtktqubfy.tif,12,0.05,0.0666666666666667,0.783333333333333,11102.995225833,11103.857798916,9,11103.044594291,11103.111237541,11103.884330166,11104.661003708,0,0.862573083000825
107,3,19,categorization,0,bathroom,SHINEd_sun_ahcvzmoyaycdoftf.tif,27,0.05,0.0666666666666667,1.7,11104.666647166,11106.224349166,9,11104.711696708,11104.772599,11106.241811125,11107.935178625,0,1.55770200000006
107,4,19,categorization,0,kitchen,SHINEd_sun_aapllqyqlykszopd.tif,66,0.05,0.0666666666666667,1.93333333333333,11107.954419333,11108.858123833,9,11108.003892916,11108.070406541,11108.875268125,11110.801990916,1,0.903704500000458
107,5,19,categorization,0,kitchen,SHINEd_sun_aymvwlarqodbwuoc.tif,108,0.05,0.0666666666666667,1.73333333333333,11110.820648375,11112.808524291,9,11110.868190541,11110.937491666,11112.82312525,11114.549835,1,1.98787591600012
107,6,19,categorization,0,bathroom,SHINEd_sun_ambriybtogmepttm.tif,36,0.05,0.0666666666666667,0.866666666666667,11114.567307833,11115.574043208,9,11114.617137666,11114.683054625,11115.588825541,11116.448830625,0,1.00673537500006
107,7,19,categorization,0,kitchen,SHINEd_sun_axyyrmzcupyhlivc.tif,107,0.05,0.0666666666666667,1.85,11116.456850583,11117.368469541,9,11116.501876375,11116.563144833,11117.381910041,11119.22529425,1,0.911618957999963
107,8,19,categorization,0,kitchen,SHINEd_sun_avszsnwsbuqfgzbn.tif,105,0.05,0.0666666666666667,0.966666666666667,11119.243637083,11120.088309208,9,11119.293508833,11119.359693375,11120.116364583,11121.076369458,1,0.844672125000216
107,9,19,categorization,0,bathroom,SHINEd_sun_apmqjbnwghzuhhzh.tif,46,0.05,0.0666666666666667,0.733333333333333,11121.082053333,11122.176280833,9,11121.127208666,11121.188181041,11122.189965875,11122.91663725,0,1.09422749999976
107,10,19,categorization,0,kitchen,SHINEd_sun_aenotlpyftoioydp.tif,82,0.05,0.0666666666666667,0.733333333333333,11122.921152083,11123.752517625,13,11122.966129958,11123.027380083,11123.762604916,11124.489277166,0,0.83136554200064
107,11,19,categorization,0,bathroom,SHINEd_sun_apjevzvycyhuqghb.tif,43,0.05,0.0666666666666667,1.93333333333333,11124.49519725,11125.768504666,9,11124.540198916,11124.601242625,11125.787187,11127.713894791,0,1.27330741600053
107,12,19,categorization,0,bathroom,SHINEd_sun_amzlamotzwfkwjco.tif,37,0.05,0.0666666666666667,1.1,11127.731588375,11128.451934166,13,11127.782785333,11127.844983,11128.467438708,11129.560808083,1,0.720345791
107,13,19,categorization,0,kitchen,SHINEd_sun_aehawpgmrlhlvcow.tif,81,0.05,0.0666666666666667,1.8,11129.574275333,11130.631171166,9,11129.622199291,11129.689605208,11130.645220583,11132.438600333,1,1.05689583300045
107,14,19,categorization,0,bathroom,SHINEd_sun_agyqfjcfkdcydepw.tif,25,0.05,0.0666666666666667,0.733333333333333,11132.458454375,11134.375310875,9,11132.508401833,11132.574441125,11134.393746291,11135.120417875,0,1.91685649999999
107,15,19,categorization,0,bathroom,SHINEd_sun_ajlawzvmubibwbpy.tif,30,0.05,0.0666666666666667,1.5,11135.126065916,11135.919801666,9,11135.17116375,11135.232105666,11135.934302416,11137.427682291,0,0.793735749999541
107,16,19,categorization,0,kitchen,SHINEd_sun_aegoxogugdkwpmpj.tif,80,0.05,0.0666666666666667,0.8,11137.444816041,11138.215710291,9,11137.494658625,11137.561194666,11138.2340215,11139.027361791,1,0.77089425000122
107,17,19,categorization,0,bathroom,SHINEd_sun_akiytfaagpdsphgz.tif,31,0.05,0.0666666666666667,0.95,11139.032902083,11139.719957916,9,11139.077985625,11139.138854875,11139.724060416,11140.667399666,0,0.687055833001068
107,18,19,categorization,0,bathroom,SHINEd_sun_aoybiabnpadelefl.tif,41,0.05,0.0666666666666667,1.1,11140.6731385,11141.711680458,9,11140.718107125,11140.779181666,11141.731648416,11142.825035041,0,1.03854195799977
107,19,19,categorization,0,bathroom,SHINEd_sun_acduarbnmmoglmiv.tif,16,0.05,0.0666666666666667,1.63333333333333,11142.835143458,11143.498929416,9,11142.882887416,11142.949598458,11143.52262875,11145.1493515,0,0.663785958000517
107,20,19,categorization,0,kitchen,SHINEd_sun_aqeaevwwwjoqhzvl.tif,101,0.05,0.0666666666666667,1.71666666666667,11145.165989916,11145.933695541,9,11145.2159815,11145.282523041,11145.955597666,11147.66564225,1,0.767705624999508
107,21,19,categorization,0,kitchen,SHINEd_sun_aunzlwrbjumxhwdj.tif,103,0.05,0.0666666666666667,1.43333333333333,11147.683060208,11149.607914958,9,11147.732679958,11147.799039083,11149.618078625,11151.044800375,1,1.92485474999921
107,22,19,categorization,0,bathroom,SHINEd_sun_anryaplzeujmzfkd.tif,39,0.05,0.0666666666666667,0.966666666666667,11151.063409625,11152.60385775,13,11151.1131865,11151.179823916,11152.621776875,11153.5817825,1,1.54044812500069
107,23,19,categorization,0,kitchen,SHINEd_sun_acxkpeoqbwcxfvip.tif,77,0.05,0.0666666666666667,1.61666666666667,11153.587411375,11154.359538291,9,11153.632538083,11153.693429541,11154.379035333,11155.989071416,1,0.772126916001071
107,24,19,categorization,0,kitchen,SHINEd_sun_akcjzhbbjlbogpdi.tif,99,0.05,0.0666666666666667,0.866666666666667,11156.008667166,11156.824884375,9,11156.058573583,11156.124903916,11156.847996916,11157.708003875,1,0.816217209001479
107,25,19,categorization,0,bathroom,SHINEd_sun_acgyywnybuveqsro.tif,18,0.05,0.0666666666666667,1.25,11157.713785583,11158.544257125,13,11157.758868083,11157.819889583,11158.5555505,11159.798935916,1,0.830471541999941
107,26,19,categorization,0,bathroom,SHINEd_sun_aggnnqpdorgxpvce.tif,21,0.05,0.0666666666666667,0.716666666666667,11159.81785925,11160.881314083,13,11159.867690083,11159.934265166,11160.906772375,11161.616831958,1,1.06345483299992
107,27,19,categorization,0,bathroom,SHINEd_sun_axldvoqbuvuggfmq.tif,57,0.05,0.0666666666666667,1.71666666666667,11161.623637041,11162.575857458,13,11161.668856833,11161.729873791,11162.581995166,11164.292050708,1,0.952220416998898
107,28,19,categorization,0,bathroom,SHINEd_sun_apeeialkgkuxddgh.tif,42,0.05,0.0666666666666667,1.31666666666667,11164.309819208,11165.101962875,9,11164.359529875,11164.425933,11165.132225333,11166.442279375,0,0.792143667000346
107,29,19,categorization,0,bathroom,SHINEd_sun_acegryoqftbzowsg.tif,17,0.05,0.0666666666666667,0.9,11166.459170958,11167.530538208,13,11166.509114041,11166.575186416,11167.547945458,11168.441285291,1,1.07136725000055
107,30,19,categorization,0,bathroom,SHINEd_sun_azqyogdvyhahyram.tif,60,0.05,0.0666666666666667,1,11168.447227958,11169.703875166,13,11168.49220225,11168.553421958,11169.72235075,11170.715691583,1,1.25664720799978
107,31,19,categorization,0,bathroom,SHINEd_sun_agrwbmhcpmfuwmsg.tif,24,0.05,0.0666666666666667,1.15,11170.723304208,11171.544158291,9,11170.768316416,11170.829331541,11171.547977833,11172.69136,0,0.820854083000086
107,32,19,categorization,0,kitchen,SHINEd_sun_acwjdupvyjsugpay.tif,76,0.05,0.0666666666666667,1.55,11172.699741166,11173.4116195,9,11172.748042208,11172.815786041,11173.43871725,11174.982095541,1,0.711878334001085
107,33,19,categorization,0,kitchen,SHINEd_sun_aaxxjlsuzvqlgylf.tif,68,0.05,0.0666666666666667,1.13333333333333,11174.997423958,11176.56042525,13,11175.047526083,11175.113563333,11176.589507875,11177.716226541,0,1.56300129199917
107,34,19,categorization,0,kitchen,SHINEd_sun_aexklacwqwezaorf.tif,84,0.05,0.0666666666666667,1.35,11177.725297291,11178.608445583,9,11177.773261291,11177.841609625,11178.631575,11179.974966583,1,0.883148292001351
107,35,19,categorization,0,kitchen,SHINEd_sun_acfmftudsenhrfhy.tif,74,0.05,0.0666666666666667,0.7,11179.99148375,11180.818501458,13,11180.041620791,11180.107906125,11180.847873833,11181.541243083,0,0.827017707999403
107,36,19,categorization,0,kitchen,SHINEd_sun_akchetnepxlcxhsu.tif,98,0.05,0.0666666666666667,0.916666666666667,11181.557765625,11182.496242958,13,11181.607484125,11181.674067666,11182.509553375,11183.419559875,0,0.938477332998445
107,37,19,categorization,0,kitchen,SHINEd_sun_abftihopvusyfakt.tif,71,0.05,0.0666666666666667,1.38333333333333,11183.425366666,11184.343983125,9,11183.470465291,11183.531477958,11184.350462833,11185.727166875,1,0.918616458999168
107,38,19,categorization,0,bathroom,SHINEd_sun_aqrpegblszgcoujh.tif,48,0.05,0.0666666666666667,1.98333333333333,11185.741777375,11186.372790875,9,11185.791370333,11185.857624541,11186.397860291,11188.374569083,0,0.631013500000336
107,39,19,categorization,0,bathroom,SHINEd_sun_abjtwfukuwddzted.tif,15,0.05,0.0666666666666667,1.21666666666667,11188.390311666,11189.227521916,13,11188.440439708,11188.506513916,11189.244666291,11190.454705708,1,0.837210249999771
107,40,19,categorization,0,kitchen,SHINEd_sun_afuyedyxivkhecmu.tif,85,0.05,0.0666666666666667,0.883333333333333,11190.472571125,11191.375373166,9,11190.522790833,11190.58846025,11191.394822291,11192.271520666,1,0.902802041000541
107,41,19,categorization,0,bathroom,SHINEd_sun_aspsyogrekjtfozg.tif,50,0.05,0.0666666666666667,1.36666666666667,11192.2882745,11193.000224333,9,11192.335234125,11192.395405875,11193.013872333,11194.373918333,0,0.71194983299938
107,42,19,categorization,0,kitchen,SHINEd_sun_ahpczsiumwwocjkv.tif,92,0.05,0.0666666666666667,1.78333333333333,11194.391096083,11195.018322041,9,11194.44112525,11194.507364416,11195.046647208,11196.823356916,1,0.627225958000054
107,43,19,categorization,0,kitchen,SHINEd_sun_ahspylgoovwmwvgk.tif,93,0.05,0.0666666666666667,1.53333333333333,11196.841137208,11197.719819125,13,11196.889504125,11196.957252625,11197.747126125,11199.273850625,0,0.878681916999994
107,44,19,categorization,0,bathroom,SHINEd_sun_abapwbhyhkfixyex.tif,14,0.05,0.0666666666666667,0.8,11199.29105775,11200.170136416,13,11199.340885416,11199.407164791,11200.196856916,11200.9901945,1,0.879078665999259
107,45,19,categorization,0,kitchen,SHINEd_sun_ahdycvpopffkzzsu.tif,90,0.05,0.0666666666666667,1,11200.996039666,11201.776157666,13,11201.041034541,11201.102221166,11201.787358041,11202.780697083,0,0.780117999998765
107,46,19,categorization,0,bathroom,SHINEd_sun_asfwthctfqerjvxr.tif,49,0.05,0.0666666666666667,1.01666666666667,11202.786386041,11203.663731583,9,11202.831269791,11202.892426041,11203.677746541,11204.68779625,0,0.877345541999603
107,47,19,categorization,0,kitchen,SHINEd_sun_aypmqwcualkenuoe.tif,109,0.05,0.0666666666666667,1.83333333333333,11204.699081666,11205.569129708,9,11204.7468135,11204.814938791,11205.587158083,11207.41386675,1,0.870048041999326
107,48,19,categorization,0,bathroom,SHINEd_sun_awnqiikzaispgmwo.tif,56,0.05,0.0666666666666667,1.03333333333333,11207.430783,11208.420247041,13,11207.480719041,11207.546904041,11208.436171583,11209.462892,1,0.989464041000247
107,49,19,categorization,0,kitchen,SHINEd_sun_acgtpgfybqjmzeyw.tif,75,0.05,0.0666666666666667,1.16666666666667,11209.475688875,11210.633653666,9,11209.523797666,11209.590633208,11210.663746,11211.823786208,1,1.15796479100027
107,50,19,categorization,0,kitchen,SHINEd_sun_aggjlwcdjsjcaemh.tif,86,0.05,0.0666666666666667,1,11211.833612,11212.533158,13,11211.88202975,11211.948510458,11212.555353291,11213.548723125,0,0.699545999999827
