sub_num,trial,block,task,is_practice,category,image,texture,duration,mask_dur,jitter,stim_time,time_of_resp,trial_response,mask_time,fix_time,jit_onset,trial_end,trial_accuracy,RT
107,1,0,categorization,1,bathroom,SHINEd_bathroom_practice2.tif,112,0.05,0.0666666666666667,1.21666666666667,8557.33840475,8560.17077875,13,8557.388201041,8557.447562708,8560.201821583,8561.412016375,1,2.83237399999962
107,2,0,categorization,1,bathroom,SHINEd_bathroom_practice4.tif,114,0.05,0.0666666666666667,1.36666666666667,8561.453962708,8564.933997541,13,8561.510305416,8561.571060333,8564.957275,8566.317439791,1,3.4800348330009
107,3,0,categorization,1,kitchen,SHINEd_kitchen_practice1.tif,116,0.05,0.0666666666666667,1.85,8566.381530583,8569.098528375,9,8566.438656375,8566.499551916,8569.118965,8570.962444416,1,2.71699779200026
107,4,0,categorization,1,bathroom,SHINEd_bathroom_practice1.tif,111,0.05,0.0666666666666667,1.55,8570.987909125,8574.484134666,13,8571.041123041,8571.10435375,8574.508021958,8576.051515625,1,3.49622554099915
107,5,0,categorization,1,kitchen,SHINEd_kitchen_practice5.tif,120,0.05,0.0666666666666667,1.48333333333333,8576.080994625,8578.746489083,13,8576.136846,8576.198548583,8578.768720583,8580.246227875,0,2.66549445800047
107,6,0,categorization,1,kitchen,SHINEd_kitchen_practice4.tif,119,0.05,0.0666666666666667,1.15,8580.274815458,8582.530263708,9,8580.326363166,8580.391230708,8582.544036208,8583.687556125,1,2.25544824999997
107,7,0,categorization,1,bathroom,SHINEd_bathroom_practice3.tif,113,0.05,0.0666666666666667,0.733333333333333,8583.698292166,8585.48420325,13,8583.747230958,8583.816728416,8585.510504791,8586.237195166,1,1.78591108399996
107,8,0,categorization,1,kitchen,SHINEd_kitchen_practice2.tif,117,0.05,0.0666666666666667,1.6,8586.243024083,8589.138972458,13,8586.288145666,8586.349425791,8589.152052041,8590.745431416,0,2.89594837500044
107,9,0,categorization,1,kitchen,SHINEd_kitchen_practice3.tif,118,0.05,0.0666666666666667,0.716666666666667,8590.764011208,8593.9505345,9,8590.814982083,8590.878075208,8593.966855833,8594.676860083,1,3.18652329199904
107,10,0,categorization,1,bathroom,SHINEd_bathroom_practice5.tif,115,0.05,0.0666666666666667,1.21666666666667,8594.681819333,8596.274734125,13,8594.726874,8594.787891125,8596.290445541,8597.500490208,1,1.59291479199965
107,1,1,categorization,0,kitchen,SHINEd_sun_agorklincwxrdtga.tif,87,0.05,0.0666666666666667,1.23333333333333,8632.619195041,8635.146007625,9,8632.665037416,8632.725294791,8635.161073791,8636.387776958,1,2.52681258400116
107,2,1,categorization,0,kitchen,SHINEd_sun_afuyedyxivkhecmu.tif,85,0.05,0.0666666666666667,0.783333333333333,8636.404969375,8638.666083958,13,8636.455029625,8636.52121925,8638.6741625,8639.45083475,0,2.26111458299965
107,3,1,categorization,0,bathroom,SHINEd_sun_acgyywnybuveqsro.tif,18,0.05,0.0666666666666667,0.75,8639.456490375,8641.538786875,13,8639.501585,8639.562533916,8641.548322333,8642.291660833,1,2.08229650000067
107,4,1,categorization,0,bathroom,SHINEd_sun_auzqhkafidnkrwmo.tif,54,0.05,0.0666666666666667,1.23333333333333,8642.297228458,8644.394267916,9,8642.342245833,8642.403293125,8644.40580675,8645.632522375,0,2.09703945800175
107,5,1,categorization,0,kitchen,SHINEd_sun_acgtpgfybqjmzeyw.tif,75,0.05,0.0666666666666667,1.13333333333333,8645.649853541,8647.240466125,9,8645.701265416,8645.766539833,8647.259885791,8648.386583541,1,1.59061258400106
107,6,1,categorization,0,kitchen,SHINEd_sun_aegoxogugdkwpmpj.tif,80,0.05,0.0666666666666667,0.95,8648.397820375,8650.401712083,13,8648.446472791,8648.514115916,8650.417224583,8651.360564833,0,2.00389170800008
107,7,1,categorization,0,bathroom,SHINEd_sun_aljolscmmzydegqp.tif,33,0.05,0.0666666666666667,0.733333333333333,8651.366200791,8654.042254291,13,8651.411232791,8651.472215,8654.058188166,8654.784861333,1,2.6760534999994
107,8,1,categorization,0,kitchen,SHINEd_sun_ahywdevtimnqcsln.tif,94,0.05,0.0666666666666667,1.31666666666667,8654.790631458,8656.578838208,13,8654.835644541,8654.896885416,8656.58283675,8657.892877541,0,1.78820675000134
107,9,1,categorization,0,kitchen,SHINEd_labelme_rykdqxenmhulbdn.tif,63,0.05,0.0666666666666667,0.8,8657.911721416,8659.946385541,9,8657.962134916,8658.028194791,8659.964350583,8660.757690375,1,2.03466412499984
107,10,1,categorization,0,bathroom,SHINEd_sun_akiytfaagpdsphgz.tif,31,0.05,0.0666666666666667,0.716666666666667,8660.7631455,8663.298014833,13,8660.808246833,8660.869426458,8663.304965708,8664.014971125,1,2.53486933300155
107,11,1,categorization,0,kitchen,SHINEd_sun_aapllqyqlykszopd.tif,66,0.05,0.0666666666666667,0.916666666666667,8664.020646791,8665.145925041,9,8664.065546166,8664.126920166,8665.162223791,8666.072228041,1,1.12527825000143
107,12,1,categorization,0,bathroom,SHINEd_sun_ahqjwnzgolcaoidx.tif,29,0.05,0.0666666666666667,0.95,8666.077539916,8668.442293458,9,8666.1227185,8666.183635666,8668.452590666,8669.395929291,0,2.36475354200047
107,13,1,categorization,0,kitchen,SHINEd_sun_aunzlwrbjumxhwdj.tif,103,0.05,0.0666666666666667,0.833333333333333,8669.402076416,8671.106129583,9,8669.447131833,8669.508127166,8671.110460708,8671.93713275,1,1.70405316700089
107,14,1,categorization,0,bathroom,SHINEd_sun_acduarbnmmoglmiv.tif,16,0.05,0.0666666666666667,0.75,8671.942804833,8673.442626458,13,8671.987840791,8672.048983166,8673.451228833,8674.194568,1,1.49982162500055
107,15,1,categorization,0,kitchen,SHINEd_sun_abrcnpqqhmjwekyf.tif,73,0.05,0.0666666666666667,1.53333333333333,8674.199244083,8675.922680083,9,8674.244433291,8674.305423208,8675.941089083,8677.467790375,1,1.72343600000022
107,16,1,categorization,0,bathroom,SHINEd_labelme_sfxiulhjbhlyiyt.tif,11,0.05,0.0666666666666667,1.05,8677.489129166,8679.098454708,13,8677.539266708,8677.605758208,8679.108578,8680.151962458,1,1.60932554200008
107,17,1,categorization,0,kitchen,SHINEd_sun_adgqasybjyktddhj.tif,78,0.05,0.0666666666666667,0.9,8680.163473458,8681.557811833,9,8680.21214175,8680.278722625,8681.58815525,8682.481494333,1,1.39433837499928
107,18,1,categorization,0,kitchen,SHINEd_sun_ahspylgoovwmwvgk.tif,93,0.05,0.0666666666666667,1.18333333333333,8682.48739475,8684.674708083,13,8682.532411541,8682.59349975,8684.679285208,8685.85599875,0,2.18731333299911
107,19,1,categorization,0,bathroom,SHINEd_sun_agrwbmhcpmfuwmsg.tif,24,0.05,0.0666666666666667,0.9,8685.866295541,8687.6069475,13,8685.916482125,8685.983155833,8687.625399958,8688.518739625,1,1.74065195900039
107,20,1,categorization,0,bathroom,SHINEd_sun_ahaulkltgpkeeemi.tif,26,0.05,0.0666666666666667,1.66666666666667,8688.524533208,8690.457996333,13,8688.569627041,8688.630692208,8690.466278083,8692.126318666,1,1.93346312500034
107,21,1,categorization,0,bathroom,SHINEd_sun_abapwbhyhkfixyex.tif,14,0.05,0.0666666666666667,1.13333333333333,8692.144950666,8693.365886916,9,8692.196291166,8692.26096475,8693.383615916,8694.510329166,0,1.22093625000161
107,22,1,categorization,0,kitchen,SHINEd_sun_abdxkyyxwfskuaqb.tif,70,0.05,0.0666666666666667,1.3,8694.520645208,8696.969661875,9,8694.569414666,8694.637233041,8696.989813375,8698.283184333,1,2.44901666700025
107,23,1,categorization,0,bathroom,SHINEd_sun_aclfzgynxzxlbepz.tif,19,0.05,0.0666666666666667,1.93333333333333,8698.301271791,8700.4823015,13,8698.351750916,8698.417679875,8700.486832208,8702.413536666,1,2.18102970899963
107,24,1,categorization,0,bathroom,SHINEd_sun_anhioqovhscjqqwb.tif,38,0.05,0.0666666666666667,1,8702.431831875,8704.674304166,13,8702.48245525,8702.54841,8704.684262416,8705.677602083,1,2.24247229100001
107,25,1,categorization,0,kitchen,SHINEd_sun_aqeaevwwwjoqhzvl.tif,101,0.05,0.0666666666666667,0.883333333333333,8705.685688875,8707.369867,13,8705.730709958,8705.791744375,8707.377696791,8708.254370208,0,1.68417812499865
107,26,1,categorization,0,kitchen,SHINEd_sun_aeqdocilnnpuvuhx.tif,83,0.05,0.0666666666666667,1.95,8708.260076791,8709.689700375,9,8708.305517541,8708.366250583,8709.701831291,8711.645211833,1,1.42962358399927
107,27,1,categorization,0,bathroom,SHINEd_sun_axldvoqbuvuggfmq.tif,57,0.05,0.0666666666666667,1.25,8711.663366666,8712.720112875,9,8711.714597958,8711.779539666,8712.733255958,8713.976628291,0,1.05674620900027
107,28,1,categorization,0,kitchen,SHINEd_sun_agzzivivdpnawacl.tif,89,0.05,0.0666666666666667,1.95,8713.997646416,8715.41466175,9,8714.049270166,8714.114680791,8715.442435458,8717.38581475,1,1.41701533399828
107,29,1,categorization,0,kitchen,SHINEd_sun_auaiucuqpdausiva.tif,102,0.05,0.0666666666666667,1.91666666666667,8717.405636416,8718.634168125,13,8717.45677975,8717.522432541,8718.641478708,8720.551525166,0,1.22853170899907
107,30,1,categorization,0,kitchen,SHINEd_sun_agubuxuukhzyzpdp.tif,88,0.05,0.0666666666666667,1.41666666666667,8720.57138625,8722.930192625,13,8720.621409916,8720.687941625,8722.940101,8724.350135875,0,2.3588063749994
107,31,1,categorization,0,bathroom,SHINEd_sun_atstyziqcmkahyxk.tif,51,0.05,0.0666666666666667,0.716666666666667,8724.371025208,8725.613958125,9,8724.420867166,8724.487322125,8725.647380083,8726.357386208,0,1.24293291700087
107,32,1,categorization,0,kitchen,SHINEd_sun_axyyrmzcupyhlivc.tif,107,0.05,0.0666666666666667,1.28333333333333,8726.362968958,8727.337866875,13,8726.408057833,8726.469210041,8727.35438,8728.631097041,0,0.974897916999907
107,33,1,categorization,0,bathroom,SHINEd_sun_abjtwfukuwddzted.tif,15,0.05,0.0666666666666667,0.9,8728.645786041,8729.957590083,13,8728.695504166,8728.762886416,8729.989002208,8730.882339833,1,1.31180404200131
107,34,1,categorization,0,bathroom,SHINEd_sun_acegryoqftbzowsg.tif,17,0.05,0.0666666666666667,0.8,8730.887085375,8732.017459166,9,8730.932090041,8730.99320875,8732.028387041,8732.821727291,0,1.13037379100024
107,35,1,categorization,0,kitchen,SHINEd_sun_aymvwlarqodbwuoc.tif,108,0.05,0.0666666666666667,1.01666666666667,8732.827172583,8734.282451083,13,8732.872123625,8732.933198791,8734.302341666,8735.312389416,0,1.45527849999962
107,36,1,categorization,0,kitchen,SHINEd_sun_acfmftudsenhrfhy.tif,74,0.05,0.0666666666666667,0.85,8735.325106833,8737.089975166,13,8735.373646541,8735.439755083,8737.116250541,8737.959588916,0,1.76486833300078
107,37,1,categorization,0,kitchen,SHINEd_sun_aamedkxepzlwuxes.tif,65,0.05,0.0666666666666667,1.51666666666667,8737.965597958,8738.889925708,9,8738.010936208,8738.071653708,8738.906837875,8740.4168705,1,0.924327749999065
107,38,1,categorization,0,kitchen,SHINEd_sun_aixorpehvfykdynp.tif,95,0.05,0.0666666666666667,1.83333333333333,8740.437047666,8742.697769083,9,8740.48702125,8740.553209791,8742.706033333,8744.532746833,1,2.26072141700024
107,39,1,categorization,0,bathroom,SHINEd_sun_axyrejkiiaqiurjk.tif,59,0.05,0.0666666666666667,0.716666666666667,8744.549759625,8745.553227791,9,8744.599550125,8744.667588208,8745.573904041,8746.283911583,0,1.00346816599995
107,40,1,categorization,0,kitchen,SHINEd_sun_ajkqhtgcbgpcwrwn.tif,97,0.05,0.0666666666666667,0.9,8746.289787833,8747.937371833,13,8746.335009083,8746.395927708,8747.948426,8748.841764791,0,1.64758400000028
107,41,1,categorization,0,kitchen,SHINEd_sun_abftihopvusyfakt.tif,71,0.05,0.0666666666666667,0.916666666666667,8748.847620416,8749.906145291,9,8748.892663333,8748.953708458,8749.92291875,8750.832924708,1,1.05852487499942
107,42,1,categorization,0,kitchen,SHINEd_sun_admlmbcdswaszruo.tif,79,0.05,0.0666666666666667,0.816666666666667,8750.838618666,8752.321987,9,8750.883858333,8750.944625583,8752.330484,8753.140490958,1,1.48336833400026
107,43,1,categorization,0,bathroom,SHINEd_sun_aofnryafpsjimzsb.tif,40,0.05,0.0666666666666667,1.88333333333333,8753.146187125,8754.522120541,9,8753.191168666,8753.252208375,8754.537909125,8756.4146125,0,1.37593341600041
107,44,1,categorization,0,bathroom,SHINEd_sun_alotolagknyrgtsk.tif,35,0.05,0.0666666666666667,0.9,8756.432702041,8757.673528208,13,8756.482434958,8756.549237583,8757.685067375,8758.578406833,1,1.24082616700071
107,45,1,categorization,0,kitchen,SHINEd_sun_abpwyqmlzafvklqo.tif,72,0.05,0.0666666666666667,1,8758.584534875,8759.58531225,9,8758.629681541,8758.690756666,8759.592773875,8760.586113166,1,1.00077737499851
107,46,1,categorization,0,bathroom,SHINEd_sun_aoybiabnpadelefl.tif,41,0.05,0.0666666666666667,0.733333333333333,8760.59094375,8761.897568291,9,8760.63597425,8760.697065125,8761.915729708,8762.642403958,0,1.30662454100093
107,47,1,categorization,0,kitchen,SHINEd_sun_aarfiyshqohlwkmo.tif,67,0.05,0.0666666666666667,0.883333333333333,8762.64785675,8764.122086541,13,8762.692883916,8762.753961333,8764.13999925,8765.016672083,0,1.47422979099974
107,48,1,categorization,0,kitchen,SHINEd_sun_aypmqwcualkenuoe.tif,109,0.05,0.0666666666666667,1.73333333333333,8765.021874041,8766.234138625,9,8765.067304291,8765.127884583,8766.24695,8767.973672083,1,1.21226458399906
107,49,1,categorization,0,bathroom,SHINEd_sun_alkosphxlxwjwgjd.tif,34,0.05,0.0666666666666667,1.91666666666667,8767.992574541,8770.578018791,9,8768.042620291,8768.109116083,8770.594876416,8772.504925708,0,2.58544425000036
107,50,1,categorization,0,kitchen,SHINEd_sun_acwjdupvyjsugpay.tif,76,0.05,0.0666666666666667,1.35,8772.52348575,8773.842295375,9,8772.573523125,8772.639431416,8773.858863541,8775.202229416,1,1.31880962499963
107,1,2,categorization,0,bathroom,SHINEd_sun_amzlamotzwfkwjco.tif,37,0.05,0.0666666666666667,0.95,8784.045060458,8785.554278583,9,8784.090438583,8784.151136291,8785.5701405,8786.513479375,0,1.50921812500019
107,2,2,categorization,0,bathroom,SHINEd_sun_ambriybtogmepttm.tif,36,0.05,0.0666666666666667,0.75,8786.519027458,8788.265600833,13,8786.564070583,8786.62509575,8788.277687625,8789.021024708,1,1.74657337499957
107,3,2,categorization,0,bathroom,SHINEd_sun_agyqfjcfkdcydepw.tif,25,0.05,0.0666666666666667,1.68333333333333,8789.025578458,8790.058107291,13,8789.070658333,8789.131730333,8790.06695475,8791.743661875,1,1.03252883300047
107,4,2,categorization,0,kitchen,SHINEd_sun_aehawpgmrlhlvcow.tif,81,0.05,0.0666666666666667,0.816666666666667,8791.761583333,8793.249377041,9,8791.812907791,8791.877743333,8793.263845166,8794.073850208,1,1.48779370800003
107,5,2,categorization,0,bathroom,SHINEd_sun_apkxzenqapsujocq.tif,45,0.05,0.0666666666666667,0.916666666666667,8794.079451666,8795.353116791,13,8794.124507333,8794.18555375,8795.371277166,8796.281281375,1,1.27366512499975
107,6,2,categorization,0,kitchen,SHINEd_sun_akchetnepxlcxhsu.tif,98,0.05,0.0666666666666667,1.21666666666667,8796.286701625,8798.833641541,9,8796.331760291,8796.392763625,8798.84563075,8800.055667875,1,2.54693991599925
107,7,2,categorization,0,bathroom,SHINEd_sun_apynckhmoftszqoq.tif,47,0.05,0.0666666666666667,0.9,8800.073278916,8801.962703791,13,8800.123312708,8800.1899325,8801.976548458,8802.869887083,1,1.88942487500026
107,8,2,categorization,0,kitchen,SHINEd_sun_abdenxonkemggwsq.tif,69,0.05,0.0666666666666667,1.65,8802.874721958,8804.553818458,13,8802.919823666,8802.980835416,8804.56662175,8806.209990708,0,1.67909650000001
107,9,2,categorization,0,bathroom,SHINEd_sun_avhrdrntsqrjzccq.tif,55,0.05,0.0666666666666667,1.15,8806.227839791,8807.537469625,9,8806.278198458,8806.344057208,8807.569799416,8808.713189208,0,1.30962983400059
107,10,2,categorization,0,bathroom,SHINEd_sun_aleqenyvunhactkl.tif,32,0.05,0.0666666666666667,1.13333333333333,8808.722778833,8810.263489125,13,8808.771966083,8808.838995,8810.280906958,8811.407610666,1,1.54071029199986
107,11,2,categorization,0,bathroom,SHINEd_sun_aavhrsfjbserjtht.tif,13,0.05,0.0666666666666667,1.76666666666667,8811.418862833,8813.921182125,13,8811.467174416,8811.535023291,8813.937742583,8815.697788541,1,2.50231929199981
107,12,2,categorization,0,kitchen,SHINEd_sun_awcpdzzznmweyyhv.tif,106,0.05,0.0666666666666667,1.8,8815.715289875,8816.770959791,9,8815.765273416,8815.832550666,8816.787455541,8818.580828666,1,1.05566991600062
107,13,2,categorization,0,bathroom,SHINEd_sun_afcoljnjfoxjtgja.tif,20,0.05,0.0666666666666667,0.9,8818.599003125,8819.786991916,9,8818.649594458,8818.715659666,8819.805621083,8820.698959291,0,1.18798879099995
107,14,2,categorization,0,bathroom,SHINEd_sun_aqrpegblszgcoujh.tif,48,0.05,0.0666666666666667,0.716666666666667,8820.7044265,8821.920993875,9,8820.749512333,8820.810496125,8821.92945825,8822.639465958,0,1.2165673749987
107,15,2,categorization,0,kitchen,SHINEd_labelme_brsyyvweiuaazfr.tif,61,0.05,0.0666666666666667,1.36666666666667,8822.644681875,8823.63336425,9,8822.6896875,8822.750710125,8823.652604708,8825.012638041,1,0.98868237500028
107,16,2,categorization,0,kitchen,SHINEd_sun_acxkpeoqbwcxfvip.tif,77,0.05,0.0666666666666667,0.916666666666667,8825.03125125,8827.905673916,9,8825.082318958,8825.147089041,8827.916467666,8828.826474458,1,2.8744226660001
107,17,2,categorization,0,kitchen,SHINEd_sun_auticobqsbwgoppi.tif,104,0.05,0.0666666666666667,0.716666666666667,8828.832299666,8830.465976708,13,8828.877461916,8828.938258041,8830.474138583,8831.184143458,0,1.63367704199845
107,18,2,categorization,0,kitchen,SHINEd_labelme_kxvouciolcpqplr.tif,62,0.05,0.0666666666666667,0.766666666666667,8831.189273083,8832.673913208,9,8831.234380791,8831.295356875,8832.680959416,8833.440963208,1,1.48464012499971
107,19,2,categorization,0,bathroom,SHINEd_sun_aunuadmjocsddsrl.tif,52,0.05,0.0666666666666667,1.06666666666667,8833.445750666,8834.617406208,13,8833.490867666,8833.5518505,8834.63712725,8835.697186916,1,1.17165554200074
107,20,2,categorization,0,kitchen,SHINEd_sun_aggjlwcdjsjcaemh.tif,86,0.05,0.0666666666666667,0.8,8835.708529333,8836.691689958,13,8835.75706275,8835.821449916,8836.711226041,8837.504592041,0,0.983160624999073
107,21,2,categorization,0,bathroom,SHINEd_sun_awnqiikzaispgmwo.tif,56,0.05,0.0666666666666667,0.866666666666667,8837.520438583,8838.705178333,13,8837.57061825,8837.636534875,8838.722274291,8839.582281125,1,1.18473975000052
107,22,2,categorization,0,bathroom,SHINEd_sun_agguqiubmwhqqunb.tif,22,0.05,0.0666666666666667,1.48333333333333,8839.587793291,8842.201957833,9,8839.632852791,8839.693826083,8842.21282975,8843.689538333,0,2.61416454199934
107,23,2,categorization,0,bathroom,SHINEd_sun_asfwthctfqerjvxr.tif,49,0.05,0.0666666666666667,1.1,8843.704187458,8845.270777916,13,8843.753941583,8843.820122,8845.292043541,8846.385416416,1,1.56659045799825
107,24,2,categorization,0,kitchen,SHINEd_sun_aadbddgrdsjugojn.tif,64,0.05,0.0666666666666667,0.783333333333333,8846.394813416,8848.849103791,13,8846.44287325,8846.508286083,8848.861066958,8849.637738375,0,2.45429037500071
107,25,2,categorization,0,bathroom,SHINEd_sun_aghyqhbptboemmoq.tif,23,0.05,0.0666666666666667,0.866666666666667,8849.643395583,8851.249059125,9,8849.688560875,8849.749515541,8851.268745916,8852.128752625,0,1.60566354200091
107,26,2,categorization,0,kitchen,SHINEd_sun_azmutvzbxypaceni.tif,110,0.05,0.0666666666666667,1.83333333333333,8852.134602208,8854.049416208,13,8852.179589666,8852.240658625,8854.05969325,8855.886414291,0,1.91481399999975
107,27,2,categorization,0,kitchen,SHINEd_sun_ahljzhgcdpomplvg.tif,91,0.05,0.0666666666666667,0.7,8855.902584166,8859.232311875,9,8855.952748791,8856.018734125,8859.254131166,8859.94747125,1,3.32972770899869
107,28,2,categorization,0,kitchen,SHINEd_sun_ajcbwwvdlsvjyzje.tif,96,0.05,0.0666666666666667,1.33333333333333,8859.952613041,8861.473483791,9,8859.997588833,8860.058559291,8861.477434041,8862.804143,1,1.52087075000054
107,29,2,categorization,0,bathroom,SHINEd_sun_aapitsgbtktqubfy.tif,12,0.05,0.0666666666666667,1.33333333333333,8862.821976958,8864.4449455,9,8862.869829416,8862.935561833,8864.478967708,8865.80567475,0,1.62296854200031
107,30,2,categorization,0,kitchen,SHINEd_sun_avszsnwsbuqfgzbn.tif,105,0.05,0.0666666666666667,1.38333333333333,8865.822378666,8867.8490255,9,8865.872358041,8865.93873525,8867.858039125,8869.234750208,1,2.02664683399962
107,31,2,categorization,0,bathroom,SHINEd_sun_ahcvzmoyaycdoftf.tif,27,0.05,0.0666666666666667,1.25,8869.254242083,8870.924987625,9,8869.304295375,8869.3705675,8870.945919875,8872.18929775,0,1.67074554200008
107,32,2,categorization,0,kitchen,SHINEd_sun_aaxxjlsuzvqlgylf.tif,68,0.05,0.0666666666666667,1.55,8872.206788125,8873.116845083,13,8872.256898,8872.323281833,8873.146402083,8874.689768708,0,0.910056957998677
107,33,2,categorization,0,kitchen,SHINEd_sun_aenotlpyftoioydp.tif,82,0.05,0.0666666666666667,1.61666666666667,8874.710005208,8876.728977833,9,8874.76057025,8874.828361166,8876.747827,8878.357866833,1,2.01897262499915
107,34,2,categorization,0,kitchen,SHINEd_sun_ahdycvpopffkzzsu.tif,90,0.05,0.0666666666666667,1.33333333333333,8878.375923166,8879.467511875,13,8878.427440291,8878.492254708,8879.480986916,8880.807672541,0,1.09158870899955
107,35,2,categorization,0,bathroom,SHINEd_sun_ahijqszoswveeyji.tif,28,0.05,0.0666666666666667,0.833333333333333,8880.821337041,8882.456734958,13,8880.869887166,8880.934956541,8882.477724916,8883.304400083,1,1.63539791699986
107,36,2,categorization,0,bathroom,SHINEd_sun_apmqjbnwghzuhhzh.tif,46,0.05,0.0666666666666667,1.45,8883.31051925,8885.033173875,9,8883.355845208,8883.417005125,8885.053311875,8886.496696875,0,1.72265462499854
107,37,2,categorization,0,bathroom,SHINEd_sun_axxbkopsgyouuebh.tif,58,0.05,0.0666666666666667,0.933333333333333,8886.514324083,8888.928726,13,8886.567001041,8886.630884666,8888.933831833,8889.860503041,1,2.41440191699985
107,38,2,categorization,0,kitchen,SHINEd_sun_ahpczsiumwwocjkv.tif,92,0.05,0.0666666666666667,1.65,8889.8680345,8891.304921,13,8889.913274875,8889.974134958,8891.310106666,8892.953492333,0,1.43688650000149
107,39,2,categorization,0,bathroom,SHINEd_sun_apeeialkgkuxddgh.tif,42,0.05,0.0666666666666667,1.23333333333333,8892.972020166,8893.910549666,13,8893.022020333,8893.088300208,8893.927794291,8895.1545175,1,0.938529499999277
107,40,2,categorization,0,bathroom,SHINEd_sun_ajlawzvmubibwbpy.tif,30,0.05,0.0666666666666667,0.766666666666667,8895.173170625,8896.405032375,13,8895.22335,8895.289819541,8896.430181958,8897.190187708,1,1.23186175000046
107,41,2,categorization,0,kitchen,SHINEd_sun_amjjdeyrggfqgmom.tif,100,0.05,0.0666666666666667,1.78333333333333,8897.195791,8898.345789041,13,8897.240798,8897.301894541,8898.35413575,8900.130852833,0,1.1499980410008
107,42,2,categorization,0,bathroom,SHINEd_sun_apjevzvycyhuqghb.tif,43,0.05,0.0666666666666667,1.11666666666667,8900.149943541,8901.291109458,9,8900.20042175,8900.266488375,8901.30603625,8902.41609075,0,1.14116591699894
107,43,2,categorization,0,bathroom,SHINEd_sun_ausgutylgojavyoq.tif,53,0.05,0.0666666666666667,1.85,8902.427079166,8903.653093375,13,8902.475556833,8902.543252541,8903.68599325,8905.52938,1,1.22601420899991
107,44,2,categorization,0,bathroom,SHINEd_sun_azqyogdvyhahyram.tif,60,0.05,0.0666666666666667,0.733333333333333,8905.54808275,8909.353407208,9,8905.597904041,8905.664202166,8909.383579,8910.110252708,0,3.80532445800054
107,45,2,categorization,0,bathroom,SHINEd_sun_apkruvsevgegsdwp.tif,44,0.05,0.0666666666666667,0.783333333333333,8910.117474291,8917.499137416,13,8910.162484291,8910.22354,8917.51582325,8918.292493958,1,7.38166312499925
107,46,2,categorization,0,kitchen,SHINEd_sun_aexklacwqwezaorf.tif,84,0.05,0.0666666666666667,1.5,8918.296887625,8920.785266125,13,8918.341923583,8918.4029665,8920.806220125,8922.299607,0,2.48837850000018
107,47,2,categorization,0,bathroom,SHINEd_sun_aggnnqpdorgxpvce.tif,21,0.05,0.0666666666666667,0.733333333333333,8922.316825583,8924.121317041,9,8922.368052666,8922.43298725,8924.135527375,8924.862198666,0,1.80449145799867
107,48,2,categorization,0,kitchen,SHINEd_sun_akcjzhbbjlbogpdi.tif,99,0.05,0.0666666666666667,1.1,8924.867699833,8926.849088791,13,8924.9126545,8924.973807833,8926.859332583,8927.952772458,0,1.98138895800003
107,49,2,categorization,0,bathroom,SHINEd_sun_aspsyogrekjtfozg.tif,50,0.05,0.0666666666666667,1.6,8927.963108458,8930.68106575,13,8928.0116035,8928.07820125,8930.697565916,8932.290945958,1,2.71795729199948
107,50,2,categorization,0,bathroom,SHINEd_sun_anryaplzeujmzfkd.tif,39,0.05,0.0666666666666667,1.06666666666667,8932.309711958,8934.056679791,13,8932.359890666,8932.42651825,8934.062477208,8935.122515625,1,1.74696783299987
107,1,3,categorization,0,bathroom,SHINEd_sun_apmqjbnwghzuhhzh.tif,46,0.05,0.0666666666666667,0.85,8945.870117125,8947.2332825,13,8945.915974625,8945.976480541,8947.24549975,8948.088839541,1,1.36316537499988
107,2,3,categorization,0,bathroom,SHINEd_sun_acgyywnybuveqsro.tif,18,0.05,0.0666666666666667,1.65,8948.093719833,8949.801256583,13,8948.138812375,8948.199732958,8949.81858875,8951.461969791,1,1.70753675000014
107,3,3,categorization,0,bathroom,SHINEd_sun_ambriybtogmepttm.tif,36,0.05,0.0666666666666667,0.783333333333333,8951.48071125,8952.456791416,9,8951.530698208,8951.59679075,8952.486683916,8953.263357083,0,0.97608016599952
107,4,3,categorization,0,bathroom,SHINEd_sun_azqyogdvyhahyram.tif,60,0.05,0.0666666666666667,0.933333333333333,8953.269226291,8954.360855291,9,8953.314272375,8953.375369916,8954.377356666,8955.30403,0,1.09162899999865
107,5,3,categorization,0,kitchen,SHINEd_sun_aymvwlarqodbwuoc.tif,108,0.05,0.0666666666666667,0.866666666666667,8955.309769541,8956.520545625,13,8955.354865333,8955.41567575,8956.534744291,8957.394750333,0,1.21077608400083
107,6,3,categorization,0,bathroom,SHINEd_sun_acegryoqftbzowsg.tif,17,0.05,0.0666666666666667,1.11666666666667,8957.40036825,8958.96877175,13,8957.445408041,8957.50646575,8958.975395333,8960.085440833,1,1.56840349999948
107,7,3,categorization,0,kitchen,SHINEd_sun_agorklincwxrdtga.tif,87,0.05,0.0666666666666667,0.966666666666667,8960.096389208,8961.2456085,9,8960.144842083,8960.213975041,8961.270638833,8962.230644666,1,1.14921929199954
107,8,3,categorization,0,kitchen,SHINEd_sun_admlmbcdswaszruo.tif,79,0.05,0.0666666666666667,1.78333333333333,8962.236443791,8963.545458,9,8962.281754541,8962.342481875,8963.561793541,8965.338503791,1,1.30901420900045
107,9,3,categorization,0,bathroom,SHINEd_sun_ahaulkltgpkeeemi.tif,26,0.05,0.0666666666666667,1.55,8965.354817416,8967.18465775,13,8965.405113458,8965.471544208,8967.190575791,8968.733953125,1,1.82984033399953
107,10,3,categorization,0,bathroom,SHINEd_sun_ahcvzmoyaycdoftf.tif,27,0.05,0.0666666666666667,1.41666666666667,8968.752969083,8969.8192955,13,8968.802618708,8968.865520791,8969.838369291,8971.248427875,1,1.0663264169998
107,11,3,categorization,0,kitchen,SHINEd_sun_aaxxjlsuzvqlgylf.tif,68,0.05,0.0666666666666667,0.8,8971.265575958,8973.529093666,9,8971.316589666,8971.381651416,8973.535002541,8974.328341166,1,2.26351770800102
107,12,3,categorization,0,bathroom,SHINEd_sun_ajlawzvmubibwbpy.tif,30,0.05,0.0666666666666667,1.28333333333333,8974.333860708,8975.728939708,13,8974.37882,8974.439825666,8975.742652166,8977.019365166,1,1.3950789999999
107,13,3,categorization,0,kitchen,SHINEd_sun_ahpczsiumwwocjkv.tif,92,0.05,0.0666666666666667,1.66666666666667,8977.036828291,8978.750378541,13,8977.086576375,8977.153267583,8978.780279458,8980.440322291,0,1.71355025000048
107,14,3,categorization,0,kitchen,SHINEd_sun_aegoxogugdkwpmpj.tif,80,0.05,0.0666666666666667,1.81666666666667,8980.45789575,8982.073473333,9,8980.507600166,8980.574295291,8982.093377541,8983.903422,1,1.61557758299932
107,15,3,categorization,0,kitchen,SHINEd_sun_ahywdevtimnqcsln.tif,94,0.05,0.0666666666666667,1.35,8983.922075291,8985.1588065,13,8983.972155875,8984.038471458,8985.18027775,8986.523666541,0,1.23673120899912
107,16,3,categorization,0,bathroom,SHINEd_sun_alotolagknyrgtsk.tif,35,0.05,0.0666666666666667,0.916666666666667,8986.541587083,8987.675937666,13,8986.592090625,8986.658073291,8987.697712958,8988.6077185,1,1.1343505829991
107,17,3,categorization,0,kitchen,SHINEd_sun_agubuxuukhzyzpdp.tif,88,0.05,0.0666666666666667,0.916666666666667,8988.612812166,8990.912875916,9,8988.657898,8988.718945041,8990.921247916,8991.831251958,1,2.30006374999903
107,18,3,categorization,0,bathroom,SHINEd_sun_apynckhmoftszqoq.tif,47,0.05,0.0666666666666667,1.31666666666667,8991.836617375,8993.209172708,13,8991.881705666,8991.942645125,8993.228232708,8994.538286208,1,1.37255533300049
107,19,3,categorization,0,bathroom,SHINEd_sun_apkxzenqapsujocq.tif,45,0.05,0.0666666666666667,1.45,8994.555593875,8995.688088791,13,8994.605633041,8994.672078958,8995.711926833,8997.15529675,1,1.1324949159989
107,20,3,categorization,0,kitchen,SHINEd_labelme_kxvouciolcpqplr.tif,62,0.05,0.0666666666666667,0.95,8997.172437916,8998.467619041,9,8997.222375416,8997.288922166,8998.495760666,8999.439100833,1,1.29518112499863
107,21,3,categorization,0,bathroom,SHINEd_sun_alkosphxlxwjwgjd.tif,34,0.05,0.0666666666666667,1.38333333333333,8999.444841958,9000.704540125,9,8999.489911416,8999.550877291,9000.719883916,9002.096597375,0,1.25969816699944
107,22,3,categorization,0,kitchen,SHINEd_sun_abpwyqmlzafvklqo.tif,72,0.05,0.0666666666666667,1.16666666666667,9002.113610583,9004.088294833,9,9002.164992333,9002.229730291,9004.099168208,9005.25920825,1,1.97468425000079
107,23,3,categorization,0,bathroom,SHINEd_sun_apeeialkgkuxddgh.tif,42,0.05,0.0666666666666667,1.61666666666667,9005.268524416,9006.252049416,13,9005.318669416,9005.384640333,9006.274768791,9007.884808791,1,0.983524999999645
107,24,3,categorization,0,bathroom,SHINEd_sun_aspsyogrekjtfozg.tif,50,0.05,0.0666666666666667,1.38333333333333,9007.902756583,9008.830800666,13,9007.95258175,9008.018678208,9008.858631083,9010.235332,1,0.928044083000714
107,25,3,categorization,0,kitchen,SHINEd_sun_akcjzhbbjlbogpdi.tif,99,0.05,0.0666666666666667,1.78333333333333,9010.253006916,9011.37791075,9,9010.303475875,9010.369428625,9011.391113708,9013.167824208,1,1.12490383399927
107,26,3,categorization,0,bathroom,SHINEd_sun_aoybiabnpadelefl.tif,41,0.05,0.0666666666666667,0.783333333333333,9013.187462208,9014.577166541,9,9013.237615208,9013.3040665,9014.59011025,9015.366784416,0,1.38970433299983
107,27,3,categorization,0,kitchen,SHINEd_sun_awcpdzzznmweyyhv.tif,106,0.05,0.0666666666666667,1.65,9015.372296625,9016.33662775,9,9015.41742775,9015.478566,9016.347136375,9017.990523083,1,0.964331125000172
107,28,3,categorization,0,kitchen,SHINEd_sun_aadbddgrdsjugojn.tif,64,0.05,0.0666666666666667,1.86666666666667,9018.0086765,9019.688929833,9,9018.059032333,9018.124998833,9019.694474666,9021.554520708,1,1.68025333300102
107,29,3,categorization,0,kitchen,SHINEd_sun_aenotlpyftoioydp.tif,82,0.05,0.0666666666666667,1.23333333333333,9021.56946825,9022.52894175,13,9021.619352708,9021.685971416,9022.559153291,9023.785868666,0,0.959473500000968
107,30,3,categorization,0,bathroom,SHINEd_labelme_sfxiulhjbhlyiyt.tif,11,0.05,0.0666666666666667,0.7,9023.803492708,9024.702699833,13,9023.853608125,9023.919541125,9024.726206541,9025.419594291,1,0.899207124999521
107,31,3,categorization,0,kitchen,SHINEd_sun_adgqasybjyktddhj.tif,78,0.05,0.0666666666666667,0.716666666666667,9025.431184041,9026.440652958,13,9025.480709416,9025.547204666,9026.449657125,9027.159663416,0,1.00946891700005
107,32,3,categorization,0,bathroom,SHINEd_sun_amzlamotzwfkwjco.tif,37,0.05,0.0666666666666667,1.05,9027.164745,9028.041298291,9,9027.209984333,9027.270870666,9028.056177125,9029.099561791,0,0.876553291000164
107,33,3,categorization,0,kitchen,SHINEd_sun_aqeaevwwwjoqhzvl.tif,101,0.05,0.0666666666666667,1.1,9029.109198833,9032.024209125,9,9029.157319458,9029.224359916,9032.044019333,9033.137390625,1,2.91501029199935
107,34,3,categorization,0,kitchen,SHINEd_sun_aapllqyqlykszopd.tif,66,0.05,0.0666666666666667,1.13333333333333,9033.1521355,9036.0486105,9,9033.200537125,9033.268101166,9036.054392958,9037.181091416,1,2.89647499999955
107,35,3,categorization,0,bathroom,SHINEd_sun_apjevzvycyhuqghb.tif,43,0.05,0.0666666666666667,1.38333333333333,9037.190238708,9038.588215666,9,9037.2385265,9037.306448208,9038.613516041,9039.990227,0,1.39797695800007
107,36,3,categorization,0,bathroom,SHINEd_sun_aofnryafpsjimzsb.tif,40,0.05,0.0666666666666667,1.5,9040.008609083,9041.018548666,13,9040.060145125,9040.124577916,9041.04784775,9042.5412195,1,1.00993958300023
107,37,3,categorization,0,kitchen,SHINEd_sun_acxkpeoqbwcxfvip.tif,77,0.05,0.0666666666666667,1.61666666666667,9042.560382125,9044.624843916,9,9042.610541291,9042.676624166,9044.629184708,9046.23923375,1,2.06446179100021
107,38,3,categorization,0,kitchen,SHINEd_sun_auticobqsbwgoppi.tif,104,0.05,0.0666666666666667,0.983333333333333,9046.257859625,9047.582819583,13,9046.308387958,9046.374573916,9047.598768333,9048.57544,0,1.32495995799945
107,39,3,categorization,0,bathroom,SHINEd_sun_apkruvsevgegsdwp.tif,44,0.05,0.0666666666666667,1.3,9048.580934125,9049.984302416,13,9048.625975541,9048.6869725,9049.989134333,9051.282525666,1,1.40336829099942
107,40,3,categorization,0,kitchen,SHINEd_sun_ajkqhtgcbgpcwrwn.tif,97,0.05,0.0666666666666667,1.03333333333333,9051.302566916,9053.216861625,9,9051.352101458,9051.419097333,9053.221854166,9054.248556333,1,1.91429470900039
107,41,3,categorization,0,bathroom,SHINEd_sun_aljolscmmzydegqp.tif,33,0.05,0.0666666666666667,1.45,9054.262334875,9055.490305875,9,9054.310289166,9054.377106291,9055.520122833,9056.963509291,0,1.22797100000025
107,42,3,categorization,0,bathroom,SHINEd_sun_avhrdrntsqrjzccq.tif,55,0.05,0.0666666666666667,1.23333333333333,9056.981120541,9057.801059791,13,9057.030901125,9057.096385333,9057.819129333,9059.045841625,1,0.819939249999152
107,43,3,categorization,0,kitchen,SHINEd_sun_ajcbwwvdlsvjyzje.tif,96,0.05,0.0666666666666667,1.26666666666667,9059.06372525,9059.973338875,13,9059.113445958,9059.179629041,9060.002795875,9061.262852291,0,0.90961362499911
107,44,3,categorization,0,bathroom,SHINEd_sun_agyqfjcfkdcydepw.tif,25,0.05,0.0666666666666667,1.03333333333333,9061.280890791,9062.37396475,9,9061.330642958,9061.396944625,9062.401841416,9063.428561833,0,1.09307395900032
107,45,3,categorization,0,kitchen,SHINEd_sun_aarfiyshqohlwkmo.tif,67,0.05,0.0666666666666667,1.31666666666667,9063.441892958,9065.912954791,13,9063.490335833,9063.557025583,9065.92667575,9067.236726541,0,2.47106183299911
107,46,3,categorization,0,kitchen,SHINEd_sun_afuyedyxivkhecmu.tif,85,0.05,0.0666666666666667,1.7,9067.2552305,9069.040588,9,9067.305174125,9067.371497875,9069.057838708,9070.751205833,1,1.78535749999901
107,47,3,categorization,0,bathroom,SHINEd_sun_ausgutylgojavyoq.tif,53,0.05,0.0666666666666667,1.35,9070.770474875,9071.832644541,13,9070.820518708,9070.880467291,9071.853526125,9073.196898291,1,1.06216966600005
107,48,3,categorization,0,bathroom,SHINEd_sun_akiytfaagpdsphgz.tif,31,0.05,0.0666666666666667,0.8,9073.214361875,9074.873051125,13,9073.265231583,9073.330794875,9074.884265,9075.677604416,1,1.65868924999995
107,49,3,categorization,0,kitchen,SHINEd_sun_amjjdeyrggfqgmom.tif,100,0.05,0.0666666666666667,0.766666666666667,9075.683569833,9077.392676125,9,9075.728527916,9075.789666208,9077.408535458,9078.168540125,1,1.7091062920008
107,50,3,categorization,0,bathroom,SHINEd_sun_ahijqszoswveeyji.tif,28,0.05,0.0666666666666667,1.38333333333333,9078.174070833,9079.3608185,13,9078.219227458,9078.28012375,9079.365414541,9080.742121375,1,1.18674766699951
107,1,4,categorization,0,bathroom,SHINEd_sun_aqrpegblszgcoujh.tif,48,0.05,0.0666666666666667,1,9093.4518055,9094.928816041,13,9093.497331125,9093.55816725,9094.943974958,9095.93731525,1,1.47701054099889
107,2,4,categorization,0,bathroom,SHINEd_sun_aavhrsfjbserjtht.tif,13,0.05,0.0666666666666667,0.966666666666667,9095.943100083,9097.608015791,13,9095.9884065,9096.049187541,9097.618289208,9098.578294958,1,1.66491570799917
107,3,4,categorization,0,bathroom,SHINEd_sun_agguqiubmwhqqunb.tif,22,0.05,0.0666666666666667,1.75,9098.583877,9100.143988291,9,9098.628934,9098.6899495,9100.158991,9101.902359833,0,1.56011129100079
107,4,4,categorization,0,kitchen,SHINEd_sun_avszsnwsbuqfgzbn.tif,105,0.05,0.0666666666666667,1.68333333333333,9101.920363666,9103.119969958,9,9101.970272041,9102.036180333,9103.142869,9104.819578125,1,1.19960629199886
107,5,4,categorization,0,kitchen,SHINEd_sun_agzzivivdpnawacl.tif,89,0.05,0.0666666666666667,1.58333333333333,9104.834348125,9106.012523625,13,9104.882769583,9104.950076333,9106.04000075,9107.616699083,0,1.17817550000109
107,6,4,categorization,0,kitchen,SHINEd_labelme_brsyyvweiuaazfr.tif,61,0.05,0.0666666666666667,1,9107.633517458,9108.709011833,13,9107.683855666,9107.749671083,9108.740311916,9109.733650833,0,1.07549437499983
107,7,4,categorization,0,kitchen,SHINEd_labelme_rykdqxenmhulbdn.tif,63,0.05,0.0666666666666667,1.33333333333333,9109.739129375,9111.511971916,9,9109.784046708,9109.845196583,9111.530843,9112.857557333,1,1.77284254099868
107,8,4,categorization,0,bathroom,SHINEd_sun_aleqenyvunhactkl.tif,32,0.05,0.0666666666666667,1.26666666666667,9112.8687575,9114.186743583,13,9112.916692875,9112.984793875,9114.209897291,9115.46995725,1,1.31798608300051
107,9,4,categorization,0,bathroom,SHINEd_sun_anhioqovhscjqqwb.tif,38,0.05,0.0666666666666667,0.883333333333333,9115.486877708,9118.128291,13,9115.536936583,9115.602998416,9118.139008708,9119.01568025,1,2.64141329200174
107,10,4,categorization,0,kitchen,SHINEd_sun_abrcnpqqhmjwekyf.tif,73,0.05,0.0666666666666667,1.26666666666667,9119.021008375,9119.872620625,9,9119.065972916,9119.127084958,9119.879044833,9121.139083083,1,0.851612249998652
107,11,4,categorization,0,kitchen,SHINEd_sun_aehawpgmrlhlvcow.tif,81,0.05,0.0666666666666667,2,9121.157200541,9122.444224541,9,9121.207208208,9121.273555875,9122.465795333,9124.459179625,1,1.28702399999929
107,12,4,categorization,0,bathroom,SHINEd_sun_axxbkopsgyouuebh.tif,58,0.05,0.0666666666666667,0.733333333333333,9124.476657583,9125.552500666,13,9124.52670225,9124.592930791,9125.562280958,9126.288954583,1,1.0758430829992
107,13,4,categorization,0,bathroom,SHINEd_sun_asfwthctfqerjvxr.tif,49,0.05,0.0666666666666667,0.883333333333333,9126.294702166,9127.304351916,9,9126.339879666,9126.40074725,9127.319195541,9128.19586725,0,1.00964974999988
107,14,4,categorization,0,kitchen,SHINEd_sun_ahdycvpopffkzzsu.tif,90,0.05,0.0666666666666667,0.983333333333333,9128.201539875,9129.639728583,9,9128.246586291,9128.307583666,9129.660152041,9130.63682425,1,1.43818870799987
107,15,4,categorization,0,bathroom,SHINEd_sun_aggnnqpdorgxpvce.tif,21,0.05,0.0666666666666667,1.56666666666667,9130.642328291,9131.504689958,9,9130.687435125,9130.748389458,9131.517256208,9133.077289875,0,0.862361666999277
107,16,4,categorization,0,bathroom,SHINEd_sun_aghyqhbptboemmoq.tif,23,0.05,0.0666666666666667,1.08333333333333,9133.095449041,9133.9849545,13,9133.144901541,9133.211705333,9134.00082575,9135.077524125,1,0.889505458999338
107,17,4,categorization,0,kitchen,SHINEd_sun_auaiucuqpdausiva.tif,102,0.05,0.0666666666666667,0.75,9135.090537958,9136.891805583,9,9135.138526,9135.205464791,9136.911495666,9137.65483575,1,1.80126762500004
107,18,4,categorization,0,kitchen,SHINEd_sun_aggjlwcdjsjcaemh.tif,86,0.05,0.0666666666666667,0.966666666666667,9137.66074825,9138.848434333,9,9137.705746208,9137.766854208,9138.852156208,9139.812161041,1,1.18768608299979
107,19,4,categorization,0,kitchen,SHINEd_sun_abdxkyyxwfskuaqb.tif,70,0.05,0.0666666666666667,1.63333333333333,9139.8175325,9140.880293166,13,9139.862569083,9139.923588583,9140.891942125,9142.518649916,0,1.06276066600003
107,20,4,categorization,0,bathroom,SHINEd_sun_axyrejkiiaqiurjk.tif,59,0.05,0.0666666666666667,1.46666666666667,9142.535939791,9143.470731416,9,9142.585738791,9142.65212225,9143.491882375,9144.951917166,0,0.934791625000798
107,21,4,categorization,0,bathroom,SHINEd_sun_ahqjwnzgolcaoidx.tif,29,0.05,0.0666666666666667,0.933333333333333,9144.969704958,9145.834978375,13,9145.01961025,9145.085864041,9145.858306625,9146.78497975,1,0.865273416999116
107,22,4,categorization,0,kitchen,SHINEd_sun_aeqdocilnnpuvuhx.tif,83,0.05,0.0666666666666667,1.45,9146.790769708,9147.888440125,13,9146.835824916,9146.896927208,9147.898744583,9149.342129416,0,1.09767041699888
107,23,4,categorization,0,bathroom,SHINEd_sun_afcoljnjfoxjtgja.tif,20,0.05,0.0666666666666667,0.966666666666667,9149.3595025,9150.438095916,9,9149.409544416,9149.475413291,9150.465422583,9151.425427208,0,1.07859341600124
107,24,4,categorization,0,bathroom,SHINEd_sun_aclfzgynxzxlbepz.tif,19,0.05,0.0666666666666667,0.816666666666667,9151.43101775,9152.656070958,9,9151.476004708,9151.536933541,9152.6727475,9153.482753458,0,1.22505320800155
107,25,4,categorization,0,kitchen,SHINEd_sun_abftihopvusyfakt.tif,71,0.05,0.0666666666666667,1.96666666666667,9153.487351875,9155.175758833,9,9153.532497791,9153.593376708,9155.195785708,9157.155821833,1,1.688406958001
107,26,4,categorization,0,bathroom,SHINEd_sun_awnqiikzaispgmwo.tif,56,0.05,0.0666666666666667,0.916666666666667,9157.17342975,9158.295746333,9,9157.223546,9157.289707916,9158.308885916,9159.2188915,0,1.1223165829997
107,27,4,categorization,0,bathroom,SHINEd_sun_axldvoqbuvuggfmq.tif,57,0.05,0.0666666666666667,1.28333333333333,9159.223514375,9161.432026291,9,9159.268483583,9159.329534833,9161.448485958,9162.725206458,0,2.20851191600013
107,28,4,categorization,0,bathroom,SHINEd_sun_atstyziqcmkahyxk.tif,51,0.05,0.0666666666666667,1.8,9162.742749041,9166.697880458,9,9162.792639,9162.858628833,9166.714519416,9168.507909208,0,3.9551314170003
107,29,4,categorization,0,bathroom,SHINEd_sun_aapitsgbtktqubfy.tif,12,0.05,0.0666666666666667,1.33333333333333,9168.522071041,9169.7278115,9,9168.572148416,9168.638383083,9169.744664083,9171.071376416,0,1.20574045900139
107,30,4,categorization,0,bathroom,SHINEd_sun_auzqhkafidnkrwmo.tif,54,0.05,0.0666666666666667,1.06666666666667,9171.088714666,9173.591593541,9,9171.138677125,9171.204835625,9173.607687416,9174.667740083,0,2.50287887499871
107,31,4,categorization,0,bathroom,SHINEd_sun_agrwbmhcpmfuwmsg.tif,24,0.05,0.0666666666666667,1.03333333333333,9174.679600375,9175.376037291,13,9174.727791791,9174.794356333,9175.401188541,9176.42791125,1,0.696436915999584
107,32,4,categorization,0,kitchen,SHINEd_sun_acfmftudsenhrfhy.tif,74,0.05,0.0666666666666667,0.733333333333333,9176.444154916,9177.7041965,13,9176.494162541,9176.560381041,9177.713297833,9178.439970375,0,1.26004158400065
107,33,4,categorization,0,kitchen,SHINEd_sun_acgtpgfybqjmzeyw.tif,75,0.05,0.0666666666666667,0.766666666666667,9178.4453035,9179.360425583,9,9178.490387916,9178.551303125,9179.369945416,9180.129950375,1,0.915122082999005
107,34,4,categorization,0,kitchen,SHINEd_sun_aunzlwrbjumxhwdj.tif,103,0.05,0.0666666666666667,1.1,9180.135558666,9180.86397225,9,9180.180649791,9180.241646041,9180.876693458,9181.970070583,1,0.728413584000009
107,35,4,categorization,0,kitchen,SHINEd_sun_aexklacwqwezaorf.tif,84,0.05,0.0666666666666667,1.81666666666667,9181.983154416,9183.480991125,13,9182.031160083,9182.097974458,9183.507707041,9185.317757208,0,1.49783670899888
107,36,4,categorization,0,kitchen,SHINEd_sun_aixorpehvfykdynp.tif,95,0.05,0.0666666666666667,0.883333333333333,9185.335750916,9187.127631583,9,9185.3855985,9185.452089875,9187.137497458,9188.014168625,1,1.79188066700044
107,37,4,categorization,0,kitchen,SHINEd_sun_axyyrmzcupyhlivc.tif,107,0.05,0.0666666666666667,1.7,9188.01904775,9188.928154458,13,9188.064189958,9188.125133833,9188.943330125,9190.636716166,0,0.909106708000763
107,38,4,categorization,0,bathroom,SHINEd_sun_anryaplzeujmzfkd.tif,39,0.05,0.0666666666666667,1.58333333333333,9190.654059333,9191.834275,13,9190.704400833,9190.7706445,9191.860659666,9193.437383,1,1.18021566700008
107,39,4,categorization,0,kitchen,SHINEd_sun_ahljzhgcdpomplvg.tif,91,0.05,0.0666666666666667,0.833333333333333,9193.4530795,9195.183764583,13,9193.5030675,9193.569292666,9195.188380583,9196.015053708,0,1.73068508300094
107,40,4,categorization,0,kitchen,SHINEd_sun_acwjdupvyjsugpay.tif,76,0.05,0.0666666666666667,0.95,9196.020745833,9196.7680075,9,9196.065794833,9196.127152291,9196.77892475,9197.722265125,1,0.747261667000203
107,41,4,categorization,0,bathroom,SHINEd_sun_acduarbnmmoglmiv.tif,16,0.05,0.0666666666666667,1.06666666666667,9197.727980583,9199.007749958,13,9197.773089833,9197.833948625,9199.019601125,9200.0796375,1,1.27976937499989
107,42,4,categorization,0,bathroom,SHINEd_sun_abjtwfukuwddzted.tif,15,0.05,0.0666666666666667,1.68333333333333,9200.09228875,9201.208561875,9,9200.140181958,9200.206679875,9201.232866458,9202.909584208,0,1.11627312500059
107,43,4,categorization,0,bathroom,SHINEd_sun_aunuadmjocsddsrl.tif,52,0.05,0.0666666666666667,1.31666666666667,9202.919525625,9204.277118458,9,9202.969412,9203.035649083,9204.293665833,9205.603718416,0,1.35759283299922
107,44,4,categorization,0,kitchen,SHINEd_sun_ahspylgoovwmwvgk.tif,93,0.05,0.0666666666666667,1.61666666666667,9205.620315666,9207.496077541,9,9205.670259208,9205.736618541,9207.506262541,9209.116310791,1,1.87576187500053
107,45,4,categorization,0,kitchen,SHINEd_sun_aamedkxepzlwuxes.tif,65,0.05,0.0666666666666667,1.15,9209.135913,9210.23399725,13,9209.185841083,9209.251888125,9210.2585925,9211.401978583,0,1.09808424999937
107,46,4,categorization,0,bathroom,SHINEd_sun_abapwbhyhkfixyex.tif,14,0.05,0.0666666666666667,1.25,9211.411450708,9212.631807791,13,9211.459981833,9211.527555708,9212.650421125,9213.89378925,1,1.22035708300064
107,47,4,categorization,0,kitchen,SHINEd_sun_aypmqwcualkenuoe.tif,109,0.05,0.0666666666666667,1.1,9213.912283583,9215.474342916,13,9213.963563416,9214.02829675,9215.504012166,9216.597381625,0,1.56205933300043
107,48,4,categorization,0,kitchen,SHINEd_sun_abdenxonkemggwsq.tif,69,0.05,0.0666666666666667,0.9,9216.607322875,9217.472175958,9,9216.655675375,9216.721728041,9217.495013458,9218.38837925,1,0.864853083001435
107,49,4,categorization,0,kitchen,SHINEd_sun_azmutvzbxypaceni.tif,110,0.05,0.0666666666666667,1.3,9218.40387675,9219.431557541,13,9218.453734916,9218.519861583,9219.438526333,9220.731894833,0,1.02768079099951
107,50,4,categorization,0,kitchen,SHINEd_sun_akchetnepxlcxhsu.tif,98,0.05,0.0666666666666667,1.25,9220.752829541,9221.499825833,9,9220.8028105,9220.867002916,9221.52303575,9222.76641975,1,0.746996292000404
107,1,5,categorization,0,bathroom,SHINEd_sun_asfwthctfqerjvxr.tif,49,0.05,0.0666666666666667,1.7,9230.340756541,9231.727909875,13,9230.386630083,9230.446891666,9231.733162791,9233.426528083,1,1.38715333400069
107,2,5,categorization,0,kitchen,SHINEd_sun_aadbddgrdsjugojn.tif,64,0.05,0.0666666666666667,1.81666666666667,9233.443785458,9234.338828291,9,9233.493852791,9233.560095625,9234.366295833,9236.17633925,1,0.895042833000844
107,3,5,categorization,0,kitchen,SHINEd_sun_aapllqyqlykszopd.tif,66,0.05,0.0666666666666667,1.23333333333333,9236.193019375,9238.560203708,9,9236.242360375,9236.308911708,9238.578371541,9239.805095291,1,2.36718433300121
107,4,5,categorization,0,kitchen,SHINEd_sun_afuyedyxivkhecmu.tif,85,0.05,0.0666666666666667,1.4,9239.821013208,9241.620372291,9,9239.871140791,9239.937023458,9241.641241333,9243.034614958,1,1.79935908299922
107,5,5,categorization,0,bathroom,SHINEd_sun_apmqjbnwghzuhhzh.tif,46,0.05,0.0666666666666667,1.03333333333333,9243.05235775,9244.396700791,13,9243.102243458,9243.168647791,9244.427869625,9245.45458975,1,1.34434304099887
107,6,5,categorization,0,bathroom,SHINEd_sun_anhioqovhscjqqwb.tif,38,0.05,0.0666666666666667,1.38333333333333,9245.467165708,9246.953919458,13,9245.515676041,9245.581739041,9246.973921666,9248.350625458,1,1.48675374999948
107,7,5,categorization,0,bathroom,SHINEd_sun_afcoljnjfoxjtgja.tif,20,0.05,0.0666666666666667,2,9248.368618833,9249.474648375,9,9248.418979291,9248.484702833,9249.490672416,9251.484044125,0,1.10602954200112
107,8,5,categorization,0,kitchen,SHINEd_sun_akchetnepxlcxhsu.tif,98,0.05,0.0666666666666667,1.85,9251.502329,9253.471729333,13,9251.55231075,9251.618450916,9253.48730525,9255.330689416,0,1.9694003329987
107,9,5,categorization,0,bathroom,SHINEd_sun_aofnryafpsjimzsb.tif,40,0.05,0.0666666666666667,0.816666666666667,9255.352600125,9256.695549666,13,9255.40323425,9255.468702666,9256.705046583,9257.515053833,1,1.34294954100005
107,10,5,categorization,0,bathroom,SHINEd_sun_anryaplzeujmzfkd.tif,39,0.05,0.0666666666666667,1.85,9257.520499041,9260.359459583,13,9257.565563333,9257.626543958,9260.379176375,9262.222558291,1,2.83896054199977
107,11,5,categorization,0,kitchen,SHINEd_sun_aarfiyshqohlwkmo.tif,67,0.05,0.0666666666666667,0.733333333333333,9262.239724291,9263.269245666,9,9262.291330541,9262.355977333,9263.296190375,9264.022861791,1,1.02952137500142
107,12,5,categorization,0,bathroom,SHINEd_sun_awnqiikzaispgmwo.tif,56,0.05,0.0666666666666667,0.716666666666667,9264.028668916,9265.263782416,13,9264.073759541,9264.134671208,9265.270165416,9265.980170541,1,1.23511349999899
107,13,5,categorization,0,kitchen,SHINEd_sun_aeqdocilnnpuvuhx.tif,83,0.05,0.0666666666666667,0.833333333333333,9265.9858145,9267.095601166,13,9266.03081325,9266.091974166,9267.110423958,9267.93709525,0,1.10978666600022
107,14,5,categorization,0,bathroom,SHINEd_sun_apjevzvycyhuqghb.tif,43,0.05,0.0666666666666667,0.95,9267.942585916,9270.055694916,13,9267.987680041,9268.048629166,9270.0677935,9271.011132083,1,2.11310899999989
107,15,5,categorization,0,bathroom,SHINEd_sun_axldvoqbuvuggfmq.tif,57,0.05,0.0666666666666667,1.96666666666667,9271.016397416,9273.063513583,9,9271.061445875,9271.12239525,9273.074672125,9275.034716833,0,2.04711616699933
107,16,5,categorization,0,bathroom,SHINEd_sun_aggnnqpdorgxpvce.tif,21,0.05,0.0666666666666667,1.86666666666667,9275.053728125,9276.099221625,9,9275.104058875,9275.170479625,9276.1241815,9277.984237083,0,1.04549349999979
107,17,5,categorization,0,kitchen,SHINEd_sun_aypmqwcualkenuoe.tif,109,0.05,0.0666666666666667,1.51666666666667,9278.003066541,9279.383753666,9,9278.053379,9278.119339208,9279.38859875,9280.898633041,1,1.38068712499989
107,18,5,categorization,0,bathroom,SHINEd_sun_aunuadmjocsddsrl.tif,52,0.05,0.0666666666666667,1.3,9280.908881916,9282.294919875,9,9280.959326375,9281.025369083,9282.317394166,9283.610759583,0,1.38603795899871
107,19,5,categorization,0,bathroom,SHINEd_sun_axxbkopsgyouuebh.tif,58,0.05,0.0666666666666667,1.91666666666667,9283.628189708,9284.581246541,13,9283.678335416,9283.744488958,9284.601243041,9286.511282083,1,0.953056832999209
107,20,5,categorization,0,bathroom,SHINEd_sun_ambriybtogmepttm.tif,36,0.05,0.0666666666666667,1.23333333333333,9286.529640416,9287.324464416,9,9286.579665083,9286.645699791,9287.352475625,9288.579181083,0,0.794824000000517
107,21,5,categorization,0,bathroom,SHINEd_sun_aljolscmmzydegqp.tif,33,0.05,0.0666666666666667,0.866666666666667,9288.5980095,9290.439437625,9,9288.648125583,9288.714311791,9290.451775583,9291.311781,0,1.84142812500068
107,22,5,categorization,0,kitchen,SHINEd_sun_aaxxjlsuzvqlgylf.tif,68,0.05,0.0666666666666667,0.8,9291.31745975,9292.183306,13,9291.362433833,9291.423601958,9292.192221666,9292.985559416,0,0.865846250000686
107,23,5,categorization,0,kitchen,SHINEd_sun_amjjdeyrggfqgmom.tif,100,0.05,0.0666666666666667,1.51666666666667,9292.990678375,9294.031590541,9,9293.035661958,9293.096903416,9294.048539125,9295.558576791,1,1.04091216600136
107,24,5,categorization,0,kitchen,SHINEd_sun_ahywdevtimnqcsln.tif,94,0.05,0.0666666666666667,1.18333333333333,9295.5767555,9296.315976,13,9295.62734375,9295.693934708,9296.334201416,9297.510918166,0,0.739220499999647
107,25,5,categorization,0,kitchen,SHINEd_labelme_rykdqxenmhulbdn.tif,63,0.05,0.0666666666666667,1.6,9297.522468083,9299.559281958,9,9297.573119875,9297.639006916,9299.574972583,9301.168341916,1,2.03681387500001
107,26,5,categorization,0,bathroom,SHINEd_sun_atstyziqcmkahyxk.tif,51,0.05,0.0666666666666667,1.56666666666667,9301.186343,9302.20304925,13,9301.236434166,9301.302681833,9302.226221916,9303.7862565,1,1.01670625000042
107,27,5,categorization,0,kitchen,SHINEd_sun_acgtpgfybqjmzeyw.tif,75,0.05,0.0666666666666667,1.36666666666667,9303.804258916,9304.903589791,9,9303.8547135,9303.920925166,9304.926506833,9306.28655875,1,1.09933087500031
107,28,5,categorization,0,bathroom,SHINEd_sun_auzqhkafidnkrwmo.tif,54,0.05,0.0666666666666667,1.53333333333333,9306.304238333,9308.167520041,9,9306.354393291,9306.420549291,9308.17337775,9309.700100916,0,1.86328170800152
107,29,5,categorization,0,kitchen,SHINEd_sun_aunzlwrbjumxhwdj.tif,103,0.05,0.0666666666666667,1.4,9309.719316333,9311.156742,9,9309.770089583,9309.83560925,9311.179092,9312.572475791,1,1.43742566699984
107,30,5,categorization,0,bathroom,SHINEd_sun_aleqenyvunhactkl.tif,32,0.05,0.0666666666666667,1.06666666666667,9312.589991416,9313.8443195,13,9312.640293666,9312.70627125,9313.865038125,9314.925065833,1,1.25432808400001
107,31,5,categorization,0,bathroom,SHINEd_sun_azqyogdvyhahyram.tif,60,0.05,0.0666666666666667,1.63333333333333,9314.936708166,9316.270790833,13,9314.984903916,9315.051281375,9316.294595708,9317.921316208,1,1.33408266699917
107,32,5,categorization,0,kitchen,SHINEd_sun_avszsnwsbuqfgzbn.tif,105,0.05,0.0666666666666667,1.8,9317.9408925,9319.058388333,9,9317.991824291,9318.057142041,9319.080828375,9320.874217208,1,1.11749583299934
107,33,5,categorization,0,kitchen,SHINEd_sun_aegoxogugdkwpmpj.tif,80,0.05,0.0666666666666667,1.53333333333333,9320.885780333,9321.9150155,9,9320.935286833,9321.003034916,9321.943472375,9323.470188833,1,1.02923516700139
107,34,5,categorization,0,kitchen,SHINEd_sun_agubuxuukhzyzpdp.tif,88,0.05,0.0666666666666667,0.766666666666667,9323.489487333,9325.034259916,9,9323.540506208,9323.606015375,9325.063185833,9325.823191875,1,1.54477258299994
107,35,5,categorization,0,kitchen,SHINEd_sun_aehawpgmrlhlvcow.tif,81,0.05,0.0666666666666667,1.86666666666667,9325.829317875,9326.783585208,13,9325.874452833,9325.935491666,9326.787964875,9328.64801475,0,0.954267333001553
107,36,5,categorization,0,kitchen,SHINEd_sun_admlmbcdswaszruo.tif,79,0.05,0.0666666666666667,1.13333333333333,9328.6670605,9329.71133075,9,9328.717074791,9328.783138416,9329.739812291,9330.866532958,1,1.04427025000041
107,37,5,categorization,0,bathroom,SHINEd_sun_apynckhmoftszqoq.tif,47,0.05,0.0666666666666667,1.73333333333333,9330.875297875,9331.877456875,13,9330.923601791,9330.993038208,9331.899552208,9333.626272208,1,1.00215899999966
107,38,5,categorization,0,kitchen,SHINEd_labelme_kxvouciolcpqplr.tif,62,0.05,0.0666666666666667,0.766666666666667,9333.64304825,9335.183920666,13,9333.692821041,9333.759464208,9335.195361666,9335.955367583,0,1.54087241600064
107,39,5,categorization,0,kitchen,SHINEd_sun_acfmftudsenhrfhy.tif,74,0.05,0.0666666666666667,1.85,9335.960985416,9336.823551666,9,9336.00618425,9336.067033083,9336.835647041,9338.679033708,1,0.862566249999873
107,40,5,categorization,0,kitchen,SHINEd_sun_ajkqhtgcbgpcwrwn.tif,97,0.05,0.0666666666666667,0.966666666666667,9338.697824291,9340.159199,9,9338.748108875,9338.814341083,9340.16703725,9341.127042666,1,1.46137470899885
107,41,5,categorization,0,kitchen,SHINEd_sun_aamedkxepzlwuxes.tif,65,0.05,0.0666666666666667,1.06666666666667,9341.13269825,9342.031754708,13,9341.177786958,9341.238788416,9342.040703041,9343.100744166,0,0.899056457999905
107,42,5,categorization,0,kitchen,SHINEd_sun_aymvwlarqodbwuoc.tif,108,0.05,0.0666666666666667,1.38333333333333,9343.109806208,9344.2932035,13,9343.157029083,9343.224429875,9344.315976916,9345.692691208,0,1.18339729199943
107,43,5,categorization,0,kitchen,SHINEd_sun_akcjzhbbjlbogpdi.tif,99,0.05,0.0666666666666667,0.766666666666667,9345.707815083,9346.922430083,13,9345.758272708,9345.824554125,9346.948033208,9347.708039208,0,1.21461499999896
107,44,5,categorization,0,kitchen,SHINEd_sun_adgqasybjyktddhj.tif,78,0.05,0.0666666666666667,0.866666666666667,9347.715502541,9349.047326541,13,9347.760592416,9347.821633833,9349.057036666,9349.917042416,0,1.33182400000078
107,45,5,categorization,0,kitchen,SHINEd_sun_acwjdupvyjsugpay.tif,76,0.05,0.0666666666666667,1.25,9349.92237675,9350.751495875,9,9349.967376666,9350.028419875,9350.763574291,9352.006952666,1,0.829119124999124
107,46,5,categorization,0,kitchen,SHINEd_sun_abrcnpqqhmjwekyf.tif,73,0.05,0.0666666666666667,1.03333333333333,9352.02442675,9352.953710458,9,9352.074633583,9352.139156708,9352.978614291,9354.005315541,1,0.929283707999275
107,47,5,categorization,0,bathroom,SHINEd_sun_aqrpegblszgcoujh.tif,48,0.05,0.0666666666666667,0.783333333333333,9354.016595333,9354.896920083,9,9354.065439666,9354.131280333,9354.919775666,9355.696494333,0,0.88032475
107,48,5,categorization,0,kitchen,SHINEd_sun_awcpdzzznmweyyhv.tif,106,0.05,0.0666666666666667,0.7,9355.712603583,9356.911624833,9,9355.762200083,9355.8286965,9356.930498625,9357.623838583,1,1.19902124999862
107,49,5,categorization,0,kitchen,SHINEd_sun_abdxkyyxwfskuaqb.tif,70,0.05,0.0666666666666667,1.75,9357.629292541,9359.087496041,9,9357.674309875,9357.735394958,9359.10412375,9360.847498208,1,1.45820350000031
107,50,5,categorization,0,bathroom,SHINEd_sun_apkxzenqapsujocq.tif,45,0.05,0.0666666666666667,1.36666666666667,9360.863065833,9361.594218166,13,9360.911029791,9360.979095458,9361.618994166,9362.979034875,1,0.731152332999045
107,1,6,categorization,0,bathroom,SHINEd_sun_agrwbmhcpmfuwmsg.tif,24,0.05,0.0666666666666667,0.966666666666667,9378.413248166,9379.471630375,13,9378.459274875,9378.519770625,9379.488455708,9380.448461708,1,1.05838220899932
107,2,6,categorization,0,kitchen,SHINEd_sun_ahljzhgcdpomplvg.tif,91,0.05,0.0666666666666667,1.73333333333333,9380.45420275,9382.079029208,9,9380.49943275,9380.560177,9382.096307416,9383.823023583,1,1.62482645800083
107,3,6,categorization,0,kitchen,SHINEd_sun_aqeaevwwwjoqhzvl.tif,101,0.05,0.0666666666666667,1.91666666666667,9383.83787625,9384.7276685,13,9383.888139666,9383.954021166,9384.743241541,9386.653276708,0,0.889792250000028
107,4,6,categorization,0,bathroom,SHINEd_sun_alkosphxlxwjwgjd.tif,34,0.05,0.0666666666666667,0.766666666666667,9386.6700285,9388.631728916,13,9386.720049666,9386.786769333,9388.639506625,9389.399511333,1,1.96170041599908
107,5,6,categorization,0,kitchen,SHINEd_sun_axyyrmzcupyhlivc.tif,107,0.05,0.0666666666666667,0.916666666666667,9389.405147708,9390.327152416,9,9389.450137333,9389.511192291,9390.346572083,9391.2565765,1,0.922004708001623
107,6,6,categorization,0,bathroom,SHINEd_sun_acduarbnmmoglmiv.tif,16,0.05,0.0666666666666667,1.18333333333333,9391.261768916,9392.423124458,13,9391.306844916,9391.367958666,9392.436926333,9393.6136445,1,1.16135554200082
107,7,6,categorization,0,bathroom,SHINEd_sun_agyqfjcfkdcydepw.tif,25,0.05,0.0666666666666667,1.8,9393.624008541,9394.657149583,9,9393.675317291,9393.740177458,9394.680545041,9396.473915458,0,1.03314104199853
107,8,6,categorization,0,bathroom,SHINEd_sun_abjtwfukuwddzted.tif,15,0.05,0.0666666666666667,0.883333333333333,9396.488177291,9397.487188916,13,9396.538144083,9396.604350208,9397.510408833,9398.387080416,1,0.999011625001003
107,9,6,categorization,0,bathroom,SHINEd_sun_aavhrsfjbserjtht.tif,13,0.05,0.0666666666666667,1.83333333333333,9398.392978083,9399.175577416,9,9398.437963208,9398.499084541,9399.184240291,9401.010948875,0,0.782599332998871
107,10,6,categorization,0,bathroom,SHINEd_sun_avhrdrntsqrjzccq.tif,55,0.05,0.0666666666666667,1.76666666666667,9401.028351625,9402.038619041,13,9401.078069041,9401.144252916,9402.067480916,9403.827527833,1,1.01026741600072
107,11,6,categorization,0,bathroom,SHINEd_sun_aspsyogrekjtfozg.tif,50,0.05,0.0666666666666667,0.983333333333333,9403.844878958,9405.478551333,13,9403.894833666,9403.960953708,9405.496715375,9406.473389083,1,1.63367237500097
107,12,6,categorization,0,kitchen,SHINEd_sun_agorklincwxrdtga.tif,87,0.05,0.0666666666666667,0.883333333333333,9406.479054375,9407.15139325,9,9406.524183208,9406.585076291,9407.170166875,9408.046838333,1,0.672338874999696
107,13,6,categorization,0,bathroom,SHINEd_sun_abapwbhyhkfixyex.tif,14,0.05,0.0666666666666667,0.85,9408.052534208,9409.23949825,9,9408.0975485,9408.159098833,9409.244644083,9410.087983333,0,1.18696404200091
107,14,6,categorization,0,bathroom,SHINEd_sun_acgyywnybuveqsro.tif,18,0.05,0.0666666666666667,0.733333333333333,9410.093378458,9411.406882166,13,9410.138328416,9410.199411916,9411.418333875,9412.14500725,1,1.31350370800101
107,15,6,categorization,0,bathroom,SHINEd_sun_aoybiabnpadelefl.tif,41,0.05,0.0666666666666667,1.88333333333333,9412.150324041,9413.535622625,13,9412.19531125,9412.256401,9413.542207125,9415.418914875,1,1.38529858400034
107,16,6,categorization,0,kitchen,SHINEd_sun_aixorpehvfykdynp.tif,95,0.05,0.0666666666666667,0.816666666666667,9415.437808833,9417.070934208,13,9415.4876315,9415.553939583,9417.089588791,9417.899595125,0,1.63312537500133
107,17,6,categorization,0,bathroom,SHINEd_sun_ausgutylgojavyoq.tif,53,0.05,0.0666666666666667,1.9,9417.90525825,9419.918502541,13,9417.950233125,9418.01133075,9419.93054825,9421.823931208,1,2.01324429099986
107,18,6,categorization,0,kitchen,SHINEd_sun_ahspylgoovwmwvgk.tif,93,0.05,0.0666666666666667,0.983333333333333,9421.842402791,9422.808468458,9,9421.892710375,9421.958417416,9422.831345916,9423.808018958,1,0.966065667000294
107,19,6,categorization,0,bathroom,SHINEd_sun_agguqiubmwhqqunb.tif,22,0.05,0.0666666666666667,0.75,9423.815027,9424.743424625,9,9423.860014791,9423.921137791,9424.756350833,9425.49969,0,0.928397624998979
107,20,6,categorization,0,bathroom,SHINEd_sun_ahcvzmoyaycdoftf.tif,27,0.05,0.0666666666666667,1.6,9425.50544875,9426.319132666,13,9425.550481583,9425.611618416,9426.330160916,9427.923531875,1,0.813683915999718
107,21,6,categorization,0,kitchen,SHINEd_sun_abdenxonkemggwsq.tif,69,0.05,0.0666666666666667,1.58333333333333,9427.94289525,9428.921541291,9,9427.992728291,9428.059224708,9428.949177458,9430.525898666,1,0.978646040999593
107,22,6,categorization,0,kitchen,SHINEd_sun_abpwyqmlzafvklqo.tif,72,0.05,0.0666666666666667,1.11666666666667,9430.5426615,9431.648928958,9,9430.592453791,9430.658697708,9431.664448791,9432.77448625,1,1.10626745800073
107,23,6,categorization,0,bathroom,SHINEd_sun_akiytfaagpdsphgz.tif,31,0.05,0.0666666666666667,1.53333333333333,9432.783377833,9433.959393458,13,9432.832551916,9432.897838666,9433.987795375,9435.514521,1,1.17601562500022
107,24,6,categorization,0,bathroom,SHINEd_sun_aclfzgynxzxlbepz.tif,19,0.05,0.0666666666666667,1.48333333333333,9435.531393625,9436.515934291,13,9435.582867416,9435.647544166,9436.537326333,9438.014026291,1,0.984540665998793
107,25,6,categorization,0,kitchen,SHINEd_labelme_brsyyvweiuaazfr.tif,61,0.05,0.0666666666666667,1.1,9438.034340333,9438.889506625,9,9438.084320041,9438.150117625,9438.904928875,9439.998319791,1,0.855166291999922
107,26,6,categorization,0,bathroom,SHINEd_sun_amzlamotzwfkwjco.tif,37,0.05,0.0666666666666667,0.933333333333333,9440.008630125,9441.467980916,13,9440.056627208,9440.122893208,9441.498562291,9442.42523575,1,1.45935079100127
107,27,6,categorization,0,kitchen,SHINEd_sun_abftihopvusyfakt.tif,71,0.05,0.0666666666666667,0.816666666666667,9442.431159208,9443.902985,13,9442.476193833,9442.537362625,9443.9232525,9444.733257958,0,1.47182579200125
107,28,6,categorization,0,kitchen,SHINEd_sun_agzzivivdpnawacl.tif,89,0.05,0.0666666666666667,1.78333333333333,9444.738895541,9446.374653625,13,9444.783875333,9444.844948833,9446.380697666,9448.15741725,0,1.63575808399946
107,29,6,categorization,0,bathroom,SHINEd_sun_apeeialkgkuxddgh.tif,42,0.05,0.0666666666666667,0.766666666666667,9448.175796125,9449.198093958,13,9448.225459791,9448.291953791,9449.2143295,9449.974334875,1,1.02229783300027
107,30,6,categorization,0,kitchen,SHINEd_sun_aexklacwqwezaorf.tif,84,0.05,0.0666666666666667,1.45,9449.981162833,9451.239008041,13,9450.026212416,9450.087241708,9451.256190166,9452.699567208,0,1.25784520799971
107,31,6,categorization,0,kitchen,SHINEd_sun_aenotlpyftoioydp.tif,82,0.05,0.0666666666666667,0.75,9452.717731666,9453.53025475,9,9452.767754083,9452.833687708,9453.556852083,9454.300234708,1,0.812523083999622
107,32,6,categorization,0,bathroom,SHINEd_sun_aghyqhbptboemmoq.tif,23,0.05,0.0666666666666667,1.36666666666667,9454.315091916,9455.398490458,13,9454.360482791,9454.421163625,9455.406307625,9456.76634225,1,1.08339854199949
107,33,6,categorization,0,bathroom,SHINEd_sun_ahijqszoswveeyji.tif,28,0.05,0.0666666666666667,0.75,9456.778912791,9457.497004333,9,9456.828840375,9456.893715541,9457.516665708,9458.260044666,0,0.718091541999456
107,34,6,categorization,0,bathroom,SHINEd_labelme_sfxiulhjbhlyiyt.tif,11,0.05,0.0666666666666667,0.783333333333333,9458.276671125,9459.999319833,13,9458.326600791,9458.392542958,9460.011843333,9460.788516791,1,1.72264870799881
107,35,6,categorization,0,bathroom,SHINEd_sun_apkruvsevgegsdwp.tif,44,0.05,0.0666666666666667,1.11666666666667,9460.793989166,9462.294717375,13,9460.839243625,9460.900153916,9462.302555166,9463.412599791,1,1.50072820899913
107,36,6,categorization,0,kitchen,SHINEd_sun_ajcbwwvdlsvjyzje.tif,96,0.05,0.0666666666666667,0.766666666666667,9463.422285375,9464.42592675,13,9463.470592208,9463.53841525,9464.444618666,9465.204665083,0,1.00364137500037
107,37,6,categorization,0,bathroom,SHINEd_sun_ahqjwnzgolcaoidx.tif,29,0.05,0.0666666666666667,0.716666666666667,9465.220408333,9466.1508175,13,9465.270396416,9465.336314666,9466.155013,9466.865019208,1,0.930409167000107
107,38,6,categorization,0,kitchen,SHINEd_sun_aggjlwcdjsjcaemh.tif,86,0.05,0.0666666666666667,1.33333333333333,9466.870307708,9467.719036333,13,9466.915384333,9466.976579458,9467.728422416,9469.055150208,0,0.84872862499833
107,39,6,categorization,0,bathroom,SHINEd_sun_ajlawzvmubibwbpy.tif,30,0.05,0.0666666666666667,1.75,9469.072693833,9470.494120458,13,9469.12385975,9469.188543125,9470.513494875,9472.256866833,1,1.42142662500009
107,40,6,categorization,0,kitchen,SHINEd_sun_ahdycvpopffkzzsu.tif,90,0.05,0.0666666666666667,1.13333333333333,9472.274578958,9473.296108791,13,9472.324681708,9472.391000125,9473.314206708,9474.440928,0,1.02152983300039
107,41,6,categorization,0,bathroom,SHINEd_sun_ahaulkltgpkeeemi.tif,26,0.05,0.0666666666666667,1.63333333333333,9474.449912375,9475.315566375,13,9474.49779075,9474.566222041,9475.338968333,9476.96568975,1,0.865654000001086
107,42,6,categorization,0,bathroom,SHINEd_sun_acegryoqftbzowsg.tif,17,0.05,0.0666666666666667,1.43333333333333,9476.983425416,9478.862947166,13,9477.033534416,9477.099410708,9478.868389708,9480.295099875,1,1.879521750001
107,43,6,categorization,0,bathroom,SHINEd_sun_aapitsgbtktqubfy.tif,12,0.05,0.0666666666666667,1.83333333333333,9480.312604041,9481.273107541,13,9480.362355416,9480.428353916,9481.301383708,9483.1280915,1,0.960503499998595
107,44,6,categorization,0,kitchen,SHINEd_sun_auaiucuqpdausiva.tif,102,0.05,0.0666666666666667,1.93333333333333,9483.146502833,9484.543198666,13,9483.195854458,9483.26278675,9484.54849925,9486.475200875,0,1.39669583300019
107,45,6,categorization,0,bathroom,SHINEd_sun_axyrejkiiaqiurjk.tif,59,0.05,0.0666666666666667,1.26666666666667,9486.492039916,9489.014836583,13,9486.54206225,9486.60807075,9489.026873333,9490.28691325,1,2.52279666699906
107,46,6,categorization,0,kitchen,SHINEd_sun_ahpczsiumwwocjkv.tif,92,0.05,0.0666666666666667,1.86666666666667,9490.305202166,9491.39574475,9,9490.355232583,9490.421508375,9491.410595958,9493.2706485,1,1.09054258399919
107,47,6,categorization,0,kitchen,SHINEd_sun_auticobqsbwgoppi.tif,104,0.05,0.0666666666666667,1.41666666666667,9493.287775166,9494.308931166,13,9493.338336916,9493.404189375,9494.327308583,9495.737357166,0,1.0211560000007
107,48,6,categorization,0,bathroom,SHINEd_sun_alotolagknyrgtsk.tif,35,0.05,0.0666666666666667,1.11666666666667,9495.755360541,9496.753376208,9,9495.8054115,9495.871285208,9496.777882875,9497.88793775,0,0.9980156670008
107,49,6,categorization,0,kitchen,SHINEd_sun_acxkpeoqbwcxfvip.tif,77,0.05,0.0666666666666667,1.8,9497.898495458,9499.200555291,9,9497.947001125,9498.014121583,9499.221731208,9501.015117666,1,1.30205983300038
107,50,6,categorization,0,kitchen,SHINEd_sun_azmutvzbxypaceni.tif,110,0.05,0.0666666666666667,1.25,9501.035294791,9503.454483375,9,9501.085459375,9501.151332208,9503.470618625,9504.7140025,1,2.41918858400095
107,1,7,categorization,0,bathroom,SHINEd_sun_agrwbmhcpmfuwmsg.tif,24,0.05,0.0666666666666667,0.883333333333333,9523.817392125,9525.390462541,13,9523.863304125,9523.923741583,9525.409665208,9526.286337625,1,1.57307041599961
107,2,7,categorization,0,bathroom,SHINEd_sun_aapitsgbtktqubfy.tif,12,0.05,0.0666666666666667,1.03333333333333,9526.292041333,9527.318023541,13,9526.337124541,9526.39807175,9527.333240583,9528.359954833,1,1.02598220800064
107,3,7,categorization,0,kitchen,SHINEd_sun_aeqdocilnnpuvuhx.tif,83,0.05,0.0666666666666667,1.06666666666667,9528.372013583,9529.77028725,13,9528.420865333,9528.486530791,9529.795673,9530.855717291,0,1.39827366699865
107,4,7,categorization,0,bathroom,SHINEd_sun_asfwthctfqerjvxr.tif,49,0.05,0.0666666666666667,0.833333333333333,9530.865824125,9531.850599541,13,9530.914245,9530.980049375,9531.86949375,9532.69621425,1,0.984775416000048
107,5,7,categorization,0,kitchen,SHINEd_sun_aaxxjlsuzvqlgylf.tif,68,0.05,0.0666666666666667,0.716666666666667,9532.713460375,9533.446687291,9,9532.763444666,9532.829659916,9533.465014375,9534.175019791,1,0.733226915999694
107,6,7,categorization,0,kitchen,SHINEd_sun_ahywdevtimnqcsln.tif,94,0.05,0.0666666666666667,0.733333333333333,9534.181380875,9534.966877291,9,9534.22641475,9534.287393958,9534.972525208,9535.699196166,1,0.785496416001479
107,7,7,categorization,0,kitchen,SHINEd_sun_abftihopvusyfakt.tif,71,0.05,0.0666666666666667,1.38333333333333,9535.704778541,9536.431135875,9,9535.749825666,9535.810731875,9536.445906833,9537.822614541,1,0.726357334000568
107,8,7,categorization,0,kitchen,SHINEd_sun_agorklincwxrdtga.tif,87,0.05,0.0666666666666667,0.9,9537.841109583,9538.696001708,9,9537.891041333,9537.957011791,9538.712579041,9539.605917666,1,0.854892125000333
107,9,7,categorization,0,kitchen,SHINEd_sun_auticobqsbwgoppi.tif,104,0.05,0.0666666666666667,0.816666666666667,9539.611775416,9540.918898791,9,9539.656722041,9539.71795275,9540.936777125,9541.74678125,1,1.30712337499972
107,10,7,categorization,0,bathroom,SHINEd_sun_abapwbhyhkfixyex.tif,14,0.05,0.0666666666666667,0.85,9541.752084541,9543.046055416,9,9541.797115208,9541.858124291,9543.06019275,9543.903532416,0,1.29397087500001
107,11,7,categorization,0,bathroom,SHINEd_sun_atstyziqcmkahyxk.tif,51,0.05,0.0666666666666667,1.6,9543.909054166,9544.910732666,9,9543.954126625,9544.015084583,9544.91687825,9546.51024775,0,1.00167849999889
107,12,7,categorization,0,kitchen,SHINEd_sun_awcpdzzznmweyyhv.tif,106,0.05,0.0666666666666667,1.75,9546.5276915,9547.599333416,9,9546.577249208,9546.643886833,9547.616538625,9549.359910625,1,1.07164191599986
107,13,7,categorization,0,kitchen,SHINEd_sun_auaiucuqpdausiva.tif,102,0.05,0.0666666666666667,1.1,9549.378153791,9550.854730375,9,9549.428171333,9549.493740583,9550.862648125,9551.956026541,1,1.47657658400021
107,14,7,categorization,0,kitchen,SHINEd_sun_ajcbwwvdlsvjyzje.tif,96,0.05,0.0666666666666667,1.46666666666667,9551.966624333,9553.792835833,9,9552.014907166,9552.080199833,9553.821847958,9555.2818905,1,1.82621149999977
107,15,7,categorization,0,kitchen,SHINEd_sun_acfmftudsenhrfhy.tif,74,0.05,0.0666666666666667,1.25,9555.300935416,9556.414521291,9,9555.350783666,9555.417246958,9556.439772041,9557.683148833,1,1.11358587500035
107,16,7,categorization,0,kitchen,SHINEd_sun_amjjdeyrggfqgmom.tif,100,0.05,0.0666666666666667,1.13333333333333,9557.7011295,9558.430337833,13,9557.751090875,9557.817502125,9558.457075041,9559.583785041,0,0.729208333001225
107,17,7,categorization,0,bathroom,SHINEd_sun_aspsyogrekjtfozg.tif,50,0.05,0.0666666666666667,1.33333333333333,9559.599905291,9560.672431541,13,9559.649813875,9559.715741541,9560.688133125,9562.014838541,1,1.07252625000001
107,18,7,categorization,0,kitchen,SHINEd_sun_axyyrmzcupyhlivc.tif,107,0.05,0.0666666666666667,1.86666666666667,9562.033038875,9563.159670041,13,9562.0829715,9562.149017375,9563.188941333,9565.048991916,0,1.12663116599833
107,19,7,categorization,0,bathroom,SHINEd_sun_agguqiubmwhqqunb.tif,22,0.05,0.0666666666666667,1.58333333333333,9565.068482041,9566.50255975,13,9565.1185045,9565.184891083,9566.520651625,9568.097375166,1,1.43407770900012
107,20,7,categorization,0,kitchen,SHINEd_sun_afuyedyxivkhecmu.tif,85,0.05,0.0666666666666667,1.05,9568.116943,9569.52061825,13,9568.166923041,9568.233484333,9569.542800458,9570.5861855,0,1.40367524999965
107,21,7,categorization,0,bathroom,SHINEd_sun_afcoljnjfoxjtgja.tif,20,0.05,0.0666666666666667,0.9,9570.599165458,9572.257577333,9,9570.64730975,9570.714088291,9572.290291125,9573.183631875,0,1.65841187500155
107,22,7,categorization,0,kitchen,SHINEd_sun_azmutvzbxypaceni.tif,110,0.05,0.0666666666666667,0.7,9573.189742125,9574.0538805,13,9573.234838208,9573.29584975,9574.06467575,9574.758014166,0,0.864138375000039
107,23,7,categorization,0,kitchen,SHINEd_sun_abdxkyyxwfskuaqb.tif,70,0.05,0.0666666666666667,0.933333333333333,9574.763890125,9575.581982125,9,9574.809123708,9574.86986325,9575.588743791,9576.515416958,1,0.818092000001343
107,24,7,categorization,0,kitchen,SHINEd_sun_agzzivivdpnawacl.tif,89,0.05,0.0666666666666667,1.95,9576.520985416,9577.510850833,9,9576.566030916,9576.626999958,9577.528842166,9579.472226958,1,0.989865416999237
107,25,7,categorization,0,bathroom,SHINEd_sun_axxbkopsgyouuebh.tif,58,0.05,0.0666666666666667,1.06666666666667,9579.490567625,9580.686067875,13,9579.540671,9579.606901416,9580.692590041,9581.752643375,1,1.1955002499999
107,26,7,categorization,0,kitchen,SHINEd_labelme_brsyyvweiuaazfr.tif,61,0.05,0.0666666666666667,1.2,9581.765462208,9583.192435333,13,9581.814020041,9581.880087541,9583.222367875,9584.415722375,0,1.42697312499877
107,27,7,categorization,0,bathroom,SHINEd_sun_aclfzgynxzxlbepz.tif,19,0.05,0.0666666666666667,0.75,9584.426284666,9585.160463541,9,9584.476477625,9584.542300458,9585.182073791,9585.92546475,0,0.734178874999998
107,28,7,categorization,0,bathroom,SHINEd_sun_apynckhmoftszqoq.tif,47,0.05,0.0666666666666667,0.816666666666667,9585.941485916,9586.902508833,9,9585.99169475,9586.057643875,9586.909703583,9587.719710166,0,0.961022916999354
107,29,7,categorization,0,kitchen,SHINEd_sun_admlmbcdswaszruo.tif,79,0.05,0.0666666666666667,1.96666666666667,9587.725578625,9589.454847958,9,9587.770657166,9587.831633125,9589.467321541,9591.42738,1,1.72926933300005
107,30,7,categorization,0,bathroom,SHINEd_sun_avhrdrntsqrjzccq.tif,55,0.05,0.0666666666666667,1.2,9591.445395375,9592.830703791,9,9591.495865416,9591.561397166,9592.846938875,9594.040312625,0,1.38530841600004
107,31,7,categorization,0,bathroom,SHINEd_sun_apmqjbnwghzuhhzh.tif,46,0.05,0.0666666666666667,0.883333333333333,9594.051504583,9595.338959916,9,9594.101739875,9594.1676375,9595.3596435,9596.236316125,0,1.28745533300025
107,32,7,categorization,0,kitchen,SHINEd_labelme_kxvouciolcpqplr.tif,62,0.05,0.0666666666666667,1.33333333333333,9596.24173925,9597.413924166,9,9596.28678225,9596.34779775,9597.433417,9598.7601225,1,1.17218491600033
107,33,7,categorization,0,bathroom,SHINEd_labelme_sfxiulhjbhlyiyt.tif,11,0.05,0.0666666666666667,1.45,9598.774697916,9599.56206275,13,9598.826004041,9598.889185958,9599.578395166,9601.021786625,1,0.787364833999163
107,34,7,categorization,0,kitchen,SHINEd_sun_adgqasybjyktddhj.tif,78,0.05,0.0666666666666667,1.15,9601.0398655,9602.096209458,13,9601.091005708,9601.15620025,9602.112080041,9603.255451041,0,1.05634395800007
107,35,7,categorization,0,kitchen,SHINEd_sun_aegoxogugdkwpmpj.tif,80,0.05,0.0666666666666667,0.966666666666667,9603.265272,9604.090743083,13,9603.313236666,9603.381396833,9604.120728291,9605.08076725,0,0.825471082998774
107,36,7,categorization,0,bathroom,SHINEd_sun_ahcvzmoyaycdoftf.tif,27,0.05,0.0666666666666667,1.45,9605.099095458,9606.013962625,13,9605.14902775,9605.215145166,9606.034327666,9607.477707541,1,0.914867167000921
107,37,7,categorization,0,bathroom,SHINEd_sun_ahijqszoswveeyji.tif,28,0.05,0.0666666666666667,0.8,9607.496302541,9609.29431125,13,9607.545997625,9607.612451416,9609.298504083,9610.09184225,1,1.79800870899999
107,38,7,categorization,0,bathroom,SHINEd_sun_aleqenyvunhactkl.tif,32,0.05,0.0666666666666667,1.45,9610.097366708,9611.934136625,9,9610.142668708,9610.203438083,9611.939336208,9613.382710708,0,1.8367699169994
107,39,7,categorization,0,kitchen,SHINEd_sun_avszsnwsbuqfgzbn.tif,105,0.05,0.0666666666666667,1.1,9613.400962666,9614.272695708,9,9613.451066041,9613.516819416,9614.289647708,9615.38301675,1,0.871733041998596
107,40,7,categorization,0,kitchen,SHINEd_sun_aypmqwcualkenuoe.tif,109,0.05,0.0666666666666667,1.16666666666667,9615.395298666,9616.70266275,9,9615.443343458,9615.51036625,9616.71698825,9617.877035,1,1.30736408399935
107,41,7,categorization,0,bathroom,SHINEd_sun_axyrejkiiaqiurjk.tif,59,0.05,0.0666666666666667,1.31666666666667,9617.887746291,9618.776316416,13,9617.938412458,9618.004823416,9618.795090166,9620.105124958,1,0.888570125000115
107,42,7,categorization,0,kitchen,SHINEd_sun_aamedkxepzlwuxes.tif,65,0.05,0.0666666666666667,1.68333333333333,9620.125023166,9620.954106458,9,9620.177226083,9620.240736416,9620.981481375,9622.658193208,1,0.829083292001087
107,43,7,categorization,0,bathroom,SHINEd_sun_ahqjwnzgolcaoidx.tif,29,0.05,0.0666666666666667,0.966666666666667,9622.679294583,9623.500073666,13,9622.729605,9622.796378208,9623.520257958,9624.48026375,1,0.820779083000161
107,44,7,categorization,0,bathroom,SHINEd_sun_ajlawzvmubibwbpy.tif,30,0.05,0.0666666666666667,1.4,9624.4867905,9625.406301333,13,9624.531881625,9624.592923958,9625.411560583,9626.804926333,1,0.919510833000459
107,45,7,categorization,0,kitchen,SHINEd_sun_aymvwlarqodbwuoc.tif,108,0.05,0.0666666666666667,0.783333333333333,9626.824076375,9627.637794416,9,9626.871427166,9626.939903291,9627.663292958,9628.439998375,1,0.813718040999447
107,46,7,categorization,0,kitchen,SHINEd_sun_abrcnpqqhmjwekyf.tif,73,0.05,0.0666666666666667,1.08333333333333,9628.454314291,9629.245805125,9,9628.504040416,9628.562055625,9629.26395675,9630.340660333,1,0.791490833998978
107,47,7,categorization,0,bathroom,SHINEd_sun_azqyogdvyhahyram.tif,60,0.05,0.0666666666666667,1.43333333333333,9630.352470791,9631.073966458,9,9630.400872541,9630.46713975,9631.089641,9632.516349916,0,0.721495666999544
107,48,7,categorization,0,bathroom,SHINEd_sun_anhioqovhscjqqwb.tif,38,0.05,0.0666666666666667,1.75,9632.533981958,9633.535252166,9,9632.583867541,9632.650090666,9633.55649275,9635.29987925,0,1.00127020800028
107,49,7,categorization,0,bathroom,SHINEd_sun_alotolagknyrgtsk.tif,35,0.05,0.0666666666666667,1.21666666666667,9635.316381416,9636.256712958,9,9635.366459041,9635.432201041,9636.270900708,9637.480961125,0,0.940331542000422
107,50,7,categorization,0,kitchen,SHINEd_sun_aixorpehvfykdynp.tif,95,0.05,0.0666666666666667,1.31666666666667,9637.498733166,9638.574579041,9,9637.547677208,9637.614952416,9638.604795333,9639.91483025,1,1.0758458750006
107,1,8,categorization,0,bathroom,SHINEd_sun_ausgutylgojavyoq.tif,53,0.05,0.0666666666666667,1.18333333333333,9652.851849708,9654.078312541,13,9652.897038791,9652.957946166,9654.093643833,9655.270332,1,1.22646283299946
107,2,8,categorization,0,bathroom,SHINEd_sun_awnqiikzaispgmwo.tif,56,0.05,0.0666666666666667,0.983333333333333,9655.281308791,9656.497479708,13,9655.331146291,9655.396957916,9656.5200815,9657.496752875,1,1.21617091699954
107,3,8,categorization,0,bathroom,SHINEd_sun_apjevzvycyhuqghb.tif,43,0.05,0.0666666666666667,1.65,9657.502200833,9658.293995416,9,9657.547268958,9657.608175625,9658.310442791,9659.953825875,0,0.791794582999501
107,4,8,categorization,0,bathroom,SHINEd_sun_aghyqhbptboemmoq.tif,23,0.05,0.0666666666666667,1.23333333333333,9659.971312166,9661.043639125,9,9660.021239041,9660.087370875,9661.05995625,9662.2866675,0,1.07232695899984
107,5,8,categorization,0,kitchen,SHINEd_sun_aenotlpyftoioydp.tif,82,0.05,0.0666666666666667,0.916666666666667,9662.303824791,9663.50619375,9,9662.35385425,9662.419972958,9663.526300833,9664.436306416,1,1.2023689589987
107,6,8,categorization,0,kitchen,SHINEd_sun_aqeaevwwwjoqhzvl.tif,101,0.05,0.0666666666666667,1.56666666666667,9664.441596875,9665.446467625,9,9664.48662825,9664.54767075,9665.466561875,9667.0266025,1,1.00487075000092
107,7,8,categorization,0,bathroom,SHINEd_sun_ambriybtogmepttm.tif,36,0.05,0.0666666666666667,1.63333333333333,9667.044369791,9667.861475291,13,9667.094048333,9667.160667791,9667.883928666,9669.510629166,1,0.817105500000253
107,8,8,categorization,0,bathroom,SHINEd_sun_ahaulkltgpkeeemi.tif,26,0.05,0.0666666666666667,1.1,9669.528921833,9670.376730083,13,9669.578504041,9669.644987958,9670.401295416,9671.494668958,1,0.847808250000526
107,9,8,categorization,0,kitchen,SHINEd_sun_ahdycvpopffkzzsu.tif,90,0.05,0.0666666666666667,1.38333333333333,9671.504906791,9672.745270458,13,9671.552966625,9671.619723041,9672.758546291,9674.135262041,0,1.24036366699875
107,10,8,categorization,0,kitchen,SHINEd_sun_acxkpeoqbwcxfvip.tif,77,0.05,0.0666666666666667,0.766666666666667,9674.152432458,9676.390018625,13,9674.202288291,9674.269015958,9676.404845541,9677.164849583,0,2.23758616699888
107,11,8,categorization,0,bathroom,SHINEd_sun_aavhrsfjbserjtht.tif,13,0.05,0.0666666666666667,1.45,9677.16972475,9678.989794125,13,9677.21478,9677.275777625,9678.994886333,9680.4382655,1,1.82006937500046
107,12,8,categorization,0,kitchen,SHINEd_sun_aexklacwqwezaorf.tif,84,0.05,0.0666666666666667,0.983333333333333,9680.455767083,9681.353849083,9,9680.507197291,9680.572065541,9681.378521208,9682.355194375,1,0.898081999999704
107,13,8,categorization,0,bathroom,SHINEd_sun_agyqfjcfkdcydepw.tif,25,0.05,0.0666666666666667,0.716666666666667,9682.36108275,9683.174097208,9,9682.406044041,9682.467008666,9683.185612166,9683.895617083,0,0.813014458000907
107,14,8,categorization,0,kitchen,SHINEd_sun_aapllqyqlykszopd.tif,66,0.05,0.0666666666666667,1.41666666666667,9683.901382375,9684.654473,9,9683.946273916,9684.007521333,9684.659526916,9686.069576625,1,0.753090625001278
107,15,8,categorization,0,kitchen,SHINEd_sun_acgtpgfybqjmzeyw.tif,75,0.05,0.0666666666666667,1.21666666666667,9686.088265666,9687.89438775,9,9686.138142916,9686.204419791,9687.906935708,9689.116976166,1,1.80612208400089
107,16,8,categorization,0,bathroom,SHINEd_sun_abjtwfukuwddzted.tif,15,0.05,0.0666666666666667,1.61666666666667,9689.133847125,9690.097086416,13,9689.1838675,9689.249927208,9690.123063125,9691.733110458,1,0.963239291000718
107,17,8,categorization,0,bathroom,SHINEd_sun_aoybiabnpadelefl.tif,41,0.05,0.0666666666666667,0.783333333333333,9691.749957583,9692.951441583,13,9691.799722041,9691.86605275,9692.9726135,9693.749285416,1,1.20148399999925
107,18,8,categorization,0,bathroom,SHINEd_sun_axldvoqbuvuggfmq.tif,57,0.05,0.0666666666666667,1.98333333333333,9693.754712791,9695.237787958,13,9693.799832708,9693.860826416,9695.246423416,9697.223147166,1,1.4830751669997
107,19,8,categorization,0,bathroom,SHINEd_sun_auzqhkafidnkrwmo.tif,54,0.05,0.0666666666666667,0.983333333333333,9697.2411705,9698.749854875,13,9697.291119583,9697.357956375,9698.760398125,9699.737071375,1,1.50868437500139
107,20,8,categorization,0,bathroom,SHINEd_sun_acduarbnmmoglmiv.tif,16,0.05,0.0666666666666667,0.8,9699.742800166,9700.749490375,9,9699.787830791,9699.848878125,9700.767333666,9701.560672083,0,1.00669020900023
107,21,8,categorization,0,kitchen,SHINEd_sun_agubuxuukhzyzpdp.tif,88,0.05,0.0666666666666667,0.733333333333333,9701.566421666,9702.390317458,9,9701.611572708,9701.672566,9702.408107791,9703.134779666,1,0.823895791998439
107,22,8,categorization,0,kitchen,SHINEd_sun_abpwyqmlzafvklqo.tif,72,0.05,0.0666666666666667,0.966666666666667,9703.140311375,9703.990332083,9,9703.185361583,9703.24643625,9703.998178,9704.958181375,1,0.850020707999647
107,23,8,categorization,0,kitchen,SHINEd_sun_akchetnepxlcxhsu.tif,98,0.05,0.0666666666666667,0.866666666666667,9704.963819833,9706.669470625,9,9705.008814333,9705.069843041,9706.688970375,9707.548975625,1,1.7056507920006
107,24,8,categorization,0,kitchen,SHINEd_sun_aadbddgrdsjugojn.tif,64,0.05,0.0666666666666667,1.23333333333333,9707.554691291,9708.861586541,9,9707.599782416,9707.660781083,9708.879878583,9710.10659975,1,1.3068952499998
107,25,8,categorization,0,kitchen,SHINEd_sun_akcjzhbbjlbogpdi.tif,99,0.05,0.0666666666666667,1.9,9710.124699375,9711.088029416,9,9710.17478675,9710.240837458,9711.114218416,9713.007600416,1,0.963330041000518
107,26,8,categorization,0,bathroom,SHINEd_sun_aqrpegblszgcoujh.tif,48,0.05,0.0666666666666667,0.866666666666667,9713.024534041,9713.686594625,9,9713.073930041,9713.140446625,9713.713539541,9714.573546625,0,0.662060583999846
107,27,8,categorization,0,kitchen,SHINEd_sun_aunzlwrbjumxhwdj.tif,103,0.05,0.0666666666666667,0.966666666666667,9714.58051325,9715.549904,9,9714.625529,9714.686595541,9715.555327541,9716.515332958,1,0.969390749998638
107,28,8,categorization,0,bathroom,SHINEd_sun_akiytfaagpdsphgz.tif,31,0.05,0.0666666666666667,0.916666666666667,9716.520900583,9717.462270875,9,9716.565913083,9716.626951041,9717.4791515,9718.389155625,0,0.941370291999192
107,29,8,categorization,0,bathroom,SHINEd_sun_apkxzenqapsujocq.tif,45,0.05,0.0666666666666667,0.916666666666667,9718.394779416,9719.797743208,13,9718.439675041,9718.50127325,9719.803399208,9720.713405041,1,1.40296379200117
107,30,8,categorization,0,bathroom,SHINEd_sun_aljolscmmzydegqp.tif,33,0.05,0.0666666666666667,1.4,9720.71919425,9721.702276625,9,9720.764285125,9720.82528225,9721.71056375,9723.103957291,0,0.983082374999867
107,31,8,categorization,0,bathroom,SHINEd_sun_apkruvsevgegsdwp.tif,44,0.05,0.0666666666666667,1.75,9723.123005541,9723.906093291,13,9723.1727435,9723.239211833,9723.928932541,9725.672323333,1,0.78308775000005
107,32,8,categorization,0,kitchen,SHINEd_sun_aehawpgmrlhlvcow.tif,81,0.05,0.0666666666666667,1.25,9725.688020208,9726.622935833,9,9725.737714,9725.804203208,9726.643877916,9727.887257958,1,0.93491562500094
107,33,8,categorization,0,kitchen,SHINEd_sun_aarfiyshqohlwkmo.tif,67,0.05,0.0666666666666667,1.05,9727.906195333,9728.838097416,13,9727.957431375,9728.022302208,9728.861992666,9729.905377041,0,0.93190208300075
107,34,8,categorization,0,kitchen,SHINEd_sun_ahspylgoovwmwvgk.tif,93,0.05,0.0666666666666667,1.06666666666667,9729.916659625,9730.745985166,9,9729.964903125,9730.031610875,9730.771404916,9731.8314575,1,0.829325541000799
107,35,8,categorization,0,bathroom,SHINEd_sun_apeeialkgkuxddgh.tif,42,0.05,0.0666666666666667,1.21666666666667,9731.848284041,9732.878080041,13,9731.898427791,9731.962924583,9732.88145625,9734.091514083,1,1.02979600000072
107,36,8,categorization,0,bathroom,SHINEd_sun_anryaplzeujmzfkd.tif,39,0.05,0.0666666666666667,0.95,9734.10952225,9735.8252055,13,9734.15897,9734.226812,9735.852575416,9736.795914333,1,1.71568324999862
107,37,8,categorization,0,kitchen,SHINEd_sun_ajkqhtgcbgpcwrwn.tif,97,0.05,0.0666666666666667,0.9,9736.801722125,9737.933442666,9,9736.846811958,9736.907716458,9737.942923541,9738.836262208,1,1.13172054100141
107,38,8,categorization,0,kitchen,SHINEd_sun_abdenxonkemggwsq.tif,69,0.05,0.0666666666666667,1.78333333333333,9738.841642583,9739.765613791,13,9738.886727875,9738.94765625,9739.782710875,9741.559412875,0,0.923971207999784
107,39,8,categorization,0,bathroom,SHINEd_sun_aunuadmjocsddsrl.tif,52,0.05,0.0666666666666667,1.16666666666667,9741.577696125,9742.475220083,13,9741.627623041,9741.693929541,9742.500038333,9743.6601065,1,0.897523958001329
107,40,8,categorization,0,bathroom,SHINEd_sun_acegryoqftbzowsg.tif,17,0.05,0.0666666666666667,0.783333333333333,9743.670498708,9745.093439416,13,9743.720696625,9743.786394666,9745.112028416,9745.888702,1,1.42294070800017
107,41,8,categorization,0,bathroom,SHINEd_sun_aofnryafpsjimzsb.tif,40,0.05,0.0666666666666667,1.23333333333333,9745.894540625,9747.14116725,13,9745.939644875,9746.000602791,9747.152675041,9748.379385291,1,1.24662662499941
107,42,8,categorization,0,bathroom,SHINEd_sun_acgyywnybuveqsro.tif,18,0.05,0.0666666666666667,0.9,9748.399317041,9749.522786375,13,9748.449571291,9748.515765208,9749.538568708,9750.431908708,1,1.12346933400113
107,43,8,categorization,0,kitchen,SHINEd_sun_aggjlwcdjsjcaemh.tif,86,0.05,0.0666666666666667,0.7,9750.437510916,9751.349317625,9,9750.482579541,9750.543604,9751.36218625,9752.055526583,1,0.911806709000302
107,44,8,categorization,0,kitchen,SHINEd_sun_ahpczsiumwwocjkv.tif,92,0.05,0.0666666666666667,1.23333333333333,9752.061237166,9752.949514,9,9752.106344416,9752.167338291,9752.969144458,9754.195857666,1,0.888276833999043
107,45,8,categorization,0,bathroom,SHINEd_sun_alkosphxlxwjwgjd.tif,34,0.05,0.0666666666666667,1,9754.215978958,9755.126148916,9,9754.265789458,9754.332207041,9755.155284916,9756.148623958,0,0.910169958000552
107,46,8,categorization,0,bathroom,SHINEd_sun_amzlamotzwfkwjco.tif,37,0.05,0.0666666666666667,1.38333333333333,9756.154426708,9756.797683041,9,9756.199372875,9756.26048175,9756.812481958,9758.189197416,0,0.643256332999954
107,47,8,categorization,0,kitchen,SHINEd_sun_ahljzhgcdpomplvg.tif,91,0.05,0.0666666666666667,1.3,9758.2061415,9758.841454291,13,9758.255929083,9758.322325916,9758.862503,9760.15586875,0,0.635312790998796
107,48,8,categorization,0,kitchen,SHINEd_labelme_rykdqxenmhulbdn.tif,63,0.05,0.0666666666666667,0.833333333333333,9760.174012625,9761.514347041,9,9760.224178291,9760.289904375,9761.531055708,9762.357726875,1,1.34033441599968
107,49,8,categorization,0,bathroom,SHINEd_sun_aggnnqpdorgxpvce.tif,21,0.05,0.0666666666666667,0.95,9762.363364083,9763.142097666,9,9762.408493833,9762.469462416,9763.154811375,9764.098150833,0,0.778733582999848
107,50,8,categorization,0,kitchen,SHINEd_sun_acwjdupvyjsugpay.tif,76,0.05,0.0666666666666667,1.43333333333333,9764.103181958,9765.637878958,9,9764.14824475,9764.209264916,9765.645089458,9767.071787333,1,1.53469699999914
107,1,9,categorization,0,kitchen,SHINEd_sun_aaxxjlsuzvqlgylf.tif,68,0.05,0.0666666666666667,1.08333333333333,9793.802684666,9796.277969,9,9793.848558125,9793.908692916,9796.294589083,9797.371303166,1,2.47528433400112
107,2,9,categorization,0,kitchen,SHINEd_sun_awcpdzzznmweyyhv.tif,106,0.05,0.0666666666666667,0.8,9797.384250541,9798.734734958,9,9797.432873958,9797.498453708,9798.757705583,9799.551044041,1,1.35048441700019
107,3,9,categorization,0,bathroom,SHINEd_sun_afcoljnjfoxjtgja.tif,20,0.05,0.0666666666666667,0.833333333333333,9799.556727916,9800.34126875,13,9799.601775583,9799.662820125,9800.347977958,9801.174651208,1,0.784540833999927
107,4,9,categorization,0,bathroom,SHINEd_sun_apeeialkgkuxddgh.tif,42,0.05,0.0666666666666667,1.45,9801.180444958,9802.125358083,13,9801.225352958,9801.286452958,9802.138173458,9803.581565,1,0.944913125000312
107,5,9,categorization,0,bathroom,SHINEd_sun_auzqhkafidnkrwmo.tif,54,0.05,0.0666666666666667,1.3,9803.599329208,9804.439900083,13,9803.649323458,9803.715724083,9804.454807875,9805.7481785,1,0.840570874999685
107,6,9,categorization,0,bathroom,SHINEd_sun_amzlamotzwfkwjco.tif,37,0.05,0.0666666666666667,1.21666666666667,9805.765331541,9807.24006,13,9805.813830541,9805.881490708,9807.25659725,9808.466644041,1,1.47472845899938
107,7,9,categorization,0,kitchen,SHINEd_sun_acfmftudsenhrfhy.tif,74,0.05,0.0666666666666667,0.733333333333333,9808.483947916,9809.280193916,9,9808.5338145,9808.600662708,9809.30684125,9810.033551458,1,0.796245999999883
107,8,9,categorization,0,kitchen,SHINEd_sun_ajkqhtgcbgpcwrwn.tif,97,0.05,0.0666666666666667,1.03333333333333,9810.049179291,9811.01308775,9,9810.099168791,9810.165413583,9811.017341583,9812.044058291,1,0.963908458999867
107,9,9,categorization,0,bathroom,SHINEd_sun_apynckhmoftszqoq.tif,47,0.05,0.0666666666666667,1.1,9812.0553575,9813.254422041,13,9812.103316291,9812.169774083,9813.279390166,9814.37276825,1,1.19906454100055
107,10,9,categorization,0,kitchen,SHINEd_labelme_kxvouciolcpqplr.tif,62,0.05,0.0666666666666667,1.25,9814.382349333,9816.072964916,13,9814.430659833,9814.498572875,9816.090820541,9817.334202125,0,1.69061558300018
107,11,9,categorization,0,bathroom,SHINEd_sun_aleqenyvunhactkl.tif,32,0.05,0.0666666666666667,1.4,9817.351328916,9818.196637458,9,9817.401323125,9817.467366083,9818.223635416,9819.61700675,0,0.845308542000566
107,12,9,categorization,0,bathroom,SHINEd_sun_asfwthctfqerjvxr.tif,49,0.05,0.0666666666666667,1.43333333333333,9819.633714333,9820.482872291,13,9819.6835995,9819.749916625,9820.50675125,9821.933464541,1,0.849157958000433
107,13,9,categorization,0,bathroom,SHINEd_sun_axxbkopsgyouuebh.tif,58,0.05,0.0666666666666667,1.26666666666667,9821.950088041,9822.830181708,9,9822.000122625,9822.066150625,9822.856148083,9824.116190791,0,0.880093666999528
107,14,9,categorization,0,kitchen,SHINEd_sun_abpwyqmlzafvklqo.tif,72,0.05,0.0666666666666667,0.916666666666667,9824.133409208,9825.057454958,9,9824.183224,9824.250117458,9825.07264325,9825.982699875,1,0.924045750000005
107,15,9,categorization,0,bathroom,SHINEd_sun_apkxzenqapsujocq.tif,45,0.05,0.0666666666666667,1.05,9825.991144,9826.7651345,13,9826.036474291,9826.097294708,9826.782515666,9827.825897,1,0.773990499999854
107,16,9,categorization,0,kitchen,SHINEd_sun_acwjdupvyjsugpay.tif,76,0.05,0.0666666666666667,1.53333333333333,9827.838176166,9828.618493875,9,9827.886492916,9827.953014208,9828.642999791,9830.169701375,1,0.780317708999064
107,17,9,categorization,0,bathroom,SHINEd_sun_anhioqovhscjqqwb.tif,38,0.05,0.0666666666666667,1.11666666666667,9830.187451291,9830.978855458,13,9830.237374583,9830.303601916,9830.992463,9832.102514708,1,0.791404167001019
107,18,9,categorization,0,bathroom,SHINEd_sun_acgyywnybuveqsro.tif,18,0.05,0.0666666666666667,1.05,9832.113127208,9833.153261916,13,9832.16117875,9832.229862708,9833.169228083,9834.212609166,1,1.04013470800055
107,19,9,categorization,0,kitchen,SHINEd_sun_aexklacwqwezaorf.tif,84,0.05,0.0666666666666667,1.66666666666667,9834.224277041,9835.364604916,9,9834.27209975,9834.337757666,9835.394107166,9837.054151541,1,1.14032787500037
107,20,9,categorization,0,bathroom,SHINEd_sun_aofnryafpsjimzsb.tif,40,0.05,0.0666666666666667,1.98333333333333,9837.070883875,9839.076961625,13,9837.1228475,9837.186849208,9839.089519958,9841.06622175,1,2.00607775000026
107,21,9,categorization,0,bathroom,SHINEd_sun_avhrdrntsqrjzccq.tif,55,0.05,0.0666666666666667,1.06666666666667,9841.085214083,9841.917106541,9,9841.135270208,9841.201095166,9841.940922916,9843.000955625,0,0.831892457999857
107,22,9,categorization,0,bathroom,SHINEd_sun_aunuadmjocsddsrl.tif,52,0.05,0.0666666666666667,1.31666666666667,9843.013770541,9844.401570833,9,9843.061444458,9843.128044916,9844.420906083,9845.730963291,0,1.38780029200097
107,23,9,categorization,0,bathroom,SHINEd_sun_aghyqhbptboemmoq.tif,23,0.05,0.0666666666666667,1.78333333333333,9845.748659458,9846.8046855,13,9845.79882725,9845.8649695,9846.820952833,9848.597662083,1,1.05602604199885
107,24,9,categorization,0,bathroom,SHINEd_sun_anryaplzeujmzfkd.tif,39,0.05,0.0666666666666667,0.816666666666667,9848.615735291,9849.61423975,13,9848.665772791,9848.731956458,9849.638779208,9850.448786041,1,0.998504459001197
107,25,9,categorization,0,kitchen,SHINEd_sun_auticobqsbwgoppi.tif,104,0.05,0.0666666666666667,0.933333333333333,9850.454583625,9851.237204291,9,9850.499656416,9850.560692708,9851.24579225,9852.172464541,1,0.782620665999275
107,26,9,categorization,0,bathroom,SHINEd_labelme_sfxiulhjbhlyiyt.tif,11,0.05,0.0666666666666667,1.33333333333333,9852.180016166,9853.205688583,13,9852.22504025,9852.285992041,9853.221230625,9854.547933458,1,1.02567241700126
107,27,9,categorization,0,bathroom,SHINEd_sun_aoybiabnpadelefl.tif,41,0.05,0.0666666666666667,0.833333333333333,9854.5674975,9855.819343291,9,9854.617423375,9854.683592833,9855.842797458,9856.6694705,0,1.25184579099914
107,28,9,categorization,0,kitchen,SHINEd_sun_acxkpeoqbwcxfvip.tif,77,0.05,0.0666666666666667,0.933333333333333,9856.675038041,9857.549386666,9,9856.720128583,9856.781106625,9857.566275083,9858.492947666,1,0.874348625000493
107,29,9,categorization,0,kitchen,SHINEd_sun_afuyedyxivkhecmu.tif,85,0.05,0.0666666666666667,1.85,9858.498643208,9859.253230833,9,9858.543779958,9858.604783458,9859.256702375,9861.100070291,1,0.754587624998749
107,30,9,categorization,0,bathroom,SHINEd_sun_acduarbnmmoglmiv.tif,16,0.05,0.0666666666666667,0.966666666666667,9861.117705,9862.917388666,13,9861.167286416,9861.23339725,9862.935738958,9863.895744083,1,1.7996836659986
107,31,9,categorization,0,kitchen,SHINEd_sun_agubuxuukhzyzpdp.tif,88,0.05,0.0666666666666667,0.766666666666667,9863.901402,9864.773632416,9,9863.9464895,9864.007401416,9864.793157208,9865.55316475,1,0.872230416000093
107,32,9,categorization,0,kitchen,SHINEd_sun_ahljzhgcdpomplvg.tif,91,0.05,0.0666666666666667,1.15,9865.558786875,9866.460638125,9,9865.603623291,9865.66480775,9866.46722,9867.610597708,1,0.901851249998799
107,33,9,categorization,0,kitchen,SHINEd_sun_aggjlwcdjsjcaemh.tif,86,0.05,0.0666666666666667,0.75,9867.619356666,9869.065001083,9,9867.667554416,9867.735329125,9869.094995083,9869.8383325,1,1.44564441699913
107,34,9,categorization,0,kitchen,SHINEd_sun_aehawpgmrlhlvcow.tif,81,0.05,0.0666666666666667,0.9,9869.843912958,9870.604961125,9,9869.889004333,9869.950013625,9870.618483291,9871.511822041,1,0.761048166999899
107,35,9,categorization,0,bathroom,SHINEd_sun_aavhrsfjbserjtht.tif,13,0.05,0.0666666666666667,1.88333333333333,9871.516731208,9872.245579375,9,9871.561830333,9871.6227095,9872.257703375,9874.13440575,0,0.728848167000251
107,36,9,categorization,0,kitchen,SHINEd_sun_adgqasybjyktddhj.tif,78,0.05,0.0666666666666667,1.65,9874.148719291,9874.885907625,13,9874.19862275,9874.264859083,9874.903017541,9876.546391958,0,0.737188333998347
107,37,9,categorization,0,kitchen,SHINEd_sun_abrcnpqqhmjwekyf.tif,73,0.05,0.0666666666666667,0.816666666666667,9876.564396125,9877.413764625,9,9876.614432791,9876.68047475,9877.43655475,9878.246558708,1,0.8493684999994
107,38,9,categorization,0,bathroom,SHINEd_sun_ahaulkltgpkeeemi.tif,26,0.05,0.0666666666666667,0.9,9878.252286083,9879.092871916,13,9878.297630208,9878.358367666,9879.110164166,9880.003501916,1,0.840585833000659
107,39,9,categorization,0,bathroom,SHINEd_sun_alotolagknyrgtsk.tif,35,0.05,0.0666666666666667,0.733333333333333,9880.008395041,9880.629323,9,9880.053395333,9880.1145355,9880.633089625,9881.359763291,0,0.620927958998436
107,40,9,categorization,0,kitchen,SHINEd_sun_avszsnwsbuqfgzbn.tif,105,0.05,0.0666666666666667,0.85,9881.365456166,9882.09369425,9,9881.410527875,9881.471504458,9882.106627208,9882.949964958,1,0.728238083998804
107,41,9,categorization,0,kitchen,SHINEd_sun_aapllqyqlykszopd.tif,66,0.05,0.0666666666666667,1.58333333333333,9882.954827916,9883.701475625,9,9882.999861083,9883.060845125,9883.712722666,9885.289444041,1,0.746647708998353
107,42,9,categorization,0,bathroom,SHINEd_sun_akiytfaagpdsphgz.tif,31,0.05,0.0666666666666667,1.8,9885.307159916,9886.072773833,13,9885.356589666,9885.423156666,9886.09624075,9887.889609208,1,0.765613917001247
107,43,9,categorization,0,kitchen,SHINEd_sun_azmutvzbxypaceni.tif,110,0.05,0.0666666666666667,1.3,9887.906518041,9890.148892833,13,9887.956116333,9888.022920583,9890.158665833,9891.452034583,0,2.24237479200019
107,44,9,categorization,0,kitchen,SHINEd_sun_aunzlwrbjumxhwdj.tif,103,0.05,0.0666666666666667,0.766666666666667,9891.469558541,9892.225527625,9,9891.521382666,9891.585637125,9892.241644083,9893.001689375,1,0.755969083998934
107,45,9,categorization,0,bathroom,SHINEd_sun_axldvoqbuvuggfmq.tif,57,0.05,0.0666666666666667,1.15,9893.014864333,9893.733242041,9,9893.064342875,9893.130923375,9893.7501375,9894.893510958,0,0.718377708000844
107,46,9,categorization,0,kitchen,SHINEd_sun_abdenxonkemggwsq.tif,69,0.05,0.0666666666666667,1.36666666666667,9894.902439208,9895.686797833,9,9894.950389083,9895.018435625,9895.70817225,9897.068206291,1,0.784358625000095
107,47,9,categorization,0,kitchen,SHINEd_sun_aqeaevwwwjoqhzvl.tif,101,0.05,0.0666666666666667,0.783333333333333,9897.086476958,9897.842378416,9,9897.136539666,9897.20261175,9897.858335666,9898.635050583,1,0.755901458000153
107,48,9,categorization,0,bathroom,SHINEd_sun_aqrpegblszgcoujh.tif,48,0.05,0.0666666666666667,1.25,9898.651002291,9899.285393125,9,9898.700960916,9898.767249708,9899.303103791,9900.546485958,0,0.634390833998623
107,49,9,categorization,0,bathroom,SHINEd_sun_abjtwfukuwddzted.tif,15,0.05,0.0666666666666667,1.5,9900.564035083,9901.401996625,9,9900.614019,9900.680221458,9901.419500375,9902.912861166,0,0.837961541999903
107,50,9,categorization,0,kitchen,SHINEd_sun_amjjdeyrggfqgmom.tif,100,0.05,0.0666666666666667,1.03333333333333,9902.924390208,9903.7848525,9,9902.974601791,9903.04018675,9903.813360125,9904.840058458,1,0.860462292001102
107,1,10,categorization,0,bathroom,SHINEd_sun_aapitsgbtktqubfy.tif,12,0.05,0.0666666666666667,1.61666666666667,9930.052511375,9930.820712041,9,9930.098426291,9930.15864975,9930.827221,9932.43726525,0,0.768200665999757
