sub_num,trial,block,task,is_practice,category,image,texture,duration,mask_dur,jitter,stim_time,time_of_resp,trial_response,mask_time,fix_time,jit_onset,trial_end,trial_accuracy,RT
107,1,17,categorization,0,kitchen,SHINEd_sun_abdenxonkemggwsq.tif,69,0.05,0.0666666666666667,0.9,10858.181230166,10859.705318333,13,10858.227123125,10858.287648791,10859.723889166,10860.617226958,0,1.52408816700154
107,2,17,categorization,0,kitchen,SHINEd_sun_aaxxjlsuzvqlgylf.tif,68,0.05,0.0666666666666667,1.65,10860.622402208,10861.79277625,9,10860.667404416,10860.728428166,10861.797294666,10863.440673125,1,1.17037404199982
107,3,17,categorization,0,kitchen,SHINEd_sun_aamedkxepzlwuxes.tif,65,0.05,0.0666666666666667,1.18333333333333,10863.461803625,10864.38459125,13,10863.513591875,10863.578001416,10864.400807083,10865.577505291,0,0.922787625000637
107,4,17,categorization,0,kitchen,SHINEd_sun_ahdycvpopffkzzsu.tif,90,0.05,0.0666666666666667,1.18333333333333,10865.588153333,10866.573111833,13,10865.637701375,10865.703920041,10866.593708,10867.770392875,0,0.984958500001085
107,5,17,categorization,0,kitchen,SHINEd_sun_acwjdupvyjsugpay.tif,76,0.05,0.0666666666666667,0.766666666666667,10867.780781208,10868.611389875,9,10867.830790916,10867.89702,10868.637047583,10869.397084708,1,0.830608667001798
107,6,17,categorization,0,bathroom,SHINEd_sun_apkruvsevgegsdwp.tif,44,0.05,0.0666666666666667,1.1,10869.4118485,10870.240865125,9,10869.461745375,10869.528532333,10870.246996541,10871.340375875,0,0.829016625000804
107,7,17,categorization,0,kitchen,SHINEd_sun_aixorpehvfykdynp.tif,95,0.05,0.0666666666666667,1.98333333333333,10871.348750416,10872.20566525,13,10871.396444833,10871.463939541,10872.219504875,10874.196216375,0,0.856914833999326
107,8,17,categorization,0,bathroom,SHINEd_sun_axyrejkiiaqiurjk.tif,59,0.05,0.0666666666666667,0.8,10874.214713541,10876.089498625,9,10874.264852208,10874.330859708,10876.100106666,10876.893444208,0,1.87478508400091
107,9,17,categorization,0,bathroom,SHINEd_sun_ahcvzmoyaycdoftf.tif,27,0.05,0.0666666666666667,1.68333333333333,10876.89844375,10877.848994083,13,10876.943530291,10877.004477708,10877.8564475,10879.533166208,1,0.950550333000137
107,10,17,categorization,0,kitchen,SHINEd_sun_ajcbwwvdlsvjyzje.tif,96,0.05,0.0666666666666667,1.73333333333333,10879.551378416,10880.534255666,13,10879.6011655,10879.667778958,10880.557733,10882.284433208,0,0.982877250000456
107,11,17,categorization,0,bathroom,SHINEd_sun_avhrdrntsqrjzccq.tif,55,0.05,0.0666666666666667,0.766666666666667,10882.299504291,10883.069028916,13,10882.349521083,10882.416022625,10883.089159458,10883.849165625,1,0.769524624998667
107,12,17,categorization,0,bathroom,SHINEd_sun_agguqiubmwhqqunb.tif,22,0.05,0.0666666666666667,1.43333333333333,10883.85510575,10884.704874458,13,10883.900077458,10883.961243916,10884.713017458,10886.139739833,1,0.849768707999829
107,13,17,categorization,0,bathroom,SHINEd_sun_apmqjbnwghzuhhzh.tif,46,0.05,0.0666666666666667,0.7,10886.159605458,10887.2908175,13,10886.209563291,10886.275758916,10887.315987041,10888.009326,1,1.13121204199888
107,14,17,categorization,0,bathroom,SHINEd_sun_apynckhmoftszqoq.tif,47,0.05,0.0666666666666667,1.01666666666667,10888.014772333,10888.865309458,13,10888.059766458,10888.120825208,10888.872603833,10889.882643041,1,0.85053712500121
107,15,17,categorization,0,kitchen,SHINEd_sun_aadbddgrdsjugojn.tif,64,0.05,0.0666666666666667,1.71666666666667,10889.893197208,10890.515561416,9,10889.941308958,10890.007766333,10890.530066416,10892.240103125,1,0.622364207998544
107,16,17,categorization,0,bathroom,SHINEd_sun_aoybiabnpadelefl.tif,41,0.05,0.0666666666666667,1.73333333333333,10892.260721791,10893.331744875,9,10892.310819666,10892.376839083,10893.34915375,10895.075856583,0,1.07102308399953
107,17,17,categorization,0,kitchen,SHINEd_sun_aymvwlarqodbwuoc.tif,108,0.05,0.0666666666666667,1.93333333333333,10895.093888333,10895.828382458,9,10895.143728458,10895.210081458,10895.850017,10897.7767185,1,0.734494124999401
107,18,17,categorization,0,bathroom,SHINEd_sun_ahqjwnzgolcaoidx.tif,29,0.05,0.0666666666666667,1.1,10897.794584708,10898.531659208,9,10897.844422708,10897.910778416,10898.550228833,10899.643602208,0,0.737074500000745
107,19,17,categorization,0,bathroom,SHINEd_sun_aspsyogrekjtfozg.tif,50,0.05,0.0666666666666667,0.933333333333333,10899.654285041,10900.5802925,13,10899.702402125,10899.769688333,10900.609687666,10901.536412666,1,0.926007459000175
107,20,17,categorization,0,kitchen,SHINEd_sun_aexklacwqwezaorf.tif,84,0.05,0.0666666666666667,1.16666666666667,10901.552672166,10902.496447291,9,10901.600021625,10901.659413708,10902.511318875,10903.67136725,1,0.943775124998865
107,21,17,categorization,0,bathroom,SHINEd_sun_axldvoqbuvuggfmq.tif,57,0.05,0.0666666666666667,1.08333333333333,10903.6815565,10905.309485125,13,10903.731325791,10903.797727333,10905.342074625,10906.418787833,1,1.627928625001
107,22,17,categorization,0,bathroom,SHINEd_sun_agyqfjcfkdcydepw.tif,25,0.05,0.0666666666666667,1.36666666666667,10906.429984333,10907.216218083,9,10906.478071291,10906.545334041,10907.234896833,10908.594946583,0,0.786233749999155
107,23,17,categorization,0,kitchen,SHINEd_sun_azmutvzbxypaceni.tif,110,0.05,0.0666666666666667,1.85,10908.614592541,10910.616730916,13,10908.664661,10908.73132975,10910.633985041,10912.477361041,0,2.00213837499905
107,24,17,categorization,0,bathroom,SHINEd_sun_aclfzgynxzxlbepz.tif,19,0.05,0.0666666666666667,1.1,10912.494201083,10913.49256875,13,10912.544154125,10912.610488208,10913.516813041,10914.6101925,1,0.998367666999911
107,25,17,categorization,0,kitchen,SHINEd_sun_adgqasybjyktddhj.tif,78,0.05,0.0666666666666667,1.71666666666667,10914.621110958,10916.218232416,13,10914.669266416,10914.737429416,10916.246359083,10917.956415208,0,1.5971214580004
107,26,17,categorization,0,kitchen,SHINEd_sun_afuyedyxivkhecmu.tif,85,0.05,0.0666666666666667,1.6,10917.971222208,10918.916277875,13,10918.021119083,10918.087557166,10918.943653375,10920.537024333,0,0.945055666999906
107,27,17,categorization,0,kitchen,SHINEd_sun_awcpdzzznmweyyhv.tif,106,0.05,0.0666666666666667,0.85,10920.555201,10921.51360925,13,10920.604841125,10920.671234333,10921.5266065,10922.369944625,0,0.958408250000502
107,28,17,categorization,0,kitchen,SHINEd_sun_aenotlpyftoioydp.tif,82,0.05,0.0666666666666667,1.35,10922.37570075,10923.200344875,9,10922.42075825,10922.481834875,10923.217191083,10924.560570708,1,0.824644124999395
107,29,17,categorization,0,bathroom,SHINEd_sun_alotolagknyrgtsk.tif,35,0.05,0.0666666666666667,1.65,10924.577942416,10925.648306291,9,10924.627613166,10924.694074208,10925.666848541,10927.310214583,0,1.07036387500011
107,30,17,categorization,0,kitchen,SHINEd_sun_aehawpgmrlhlvcow.tif,81,0.05,0.0666666666666667,1.35,10927.328346666,10928.229689625,13,10927.378302791,10927.444448041,10928.251073291,10929.594461791,0,0.90134295900134
107,31,17,categorization,0,bathroom,SHINEd_sun_aavhrsfjbserjtht.tif,13,0.05,0.0666666666666667,1.63333333333333,10929.611404541,10930.438492875,9,10929.661348875,10929.727988125,10930.467869,10932.094588208,0,0.827088334001019
107,32,17,categorization,0,bathroom,SHINEd_sun_auzqhkafidnkrwmo.tif,54,0.05,0.0666666666666667,1.1,10932.111767,10933.148708666,13,10932.161841541,10932.227616875,10933.16710975,10934.260499666,1,1.03694166599962
107,33,17,categorization,0,bathroom,SHINEd_sun_acegryoqftbzowsg.tif,17,0.05,0.0666666666666667,1.11666666666667,10934.270843583,10935.33707525,13,10934.319132583,10934.385767125,10935.359073333,10936.469112458,1,1.06623166699865
107,34,17,categorization,0,bathroom,SHINEd_sun_amzlamotzwfkwjco.tif,37,0.05,0.0666666666666667,1.5,10936.47944175,10938.068828083,13,10936.527746083,10936.595533,10938.088518791,10939.581888583,1,1.58938633300022
107,35,17,categorization,0,kitchen,SHINEd_sun_aypmqwcualkenuoe.tif,109,0.05,0.0666666666666667,1.28333333333333,10939.599869333,10940.501149833,9,10939.650264125,10939.716012791,10940.521258041,10941.79796525,1,0.901280500000212
107,36,17,categorization,0,bathroom,SHINEd_sun_axxbkopsgyouuebh.tif,58,0.05,0.0666666666666667,1.7,10941.815775416,10942.654181416,13,10941.867024208,10941.931605,10942.670440083,10944.363811041,1,0.83840599999894
107,37,17,categorization,0,kitchen,SHINEd_labelme_kxvouciolcpqplr.tif,62,0.05,0.0666666666666667,1.08333333333333,10944.381941208,10945.308789583,9,10944.432174041,10944.4980545,10945.338165125,10946.414866958,1,0.926848375000191
107,38,17,categorization,0,bathroom,SHINEd_sun_azqyogdvyhahyram.tif,60,0.05,0.0666666666666667,1.65,10946.425651791,10947.136226708,9,10946.473536291,10946.537836583,10947.16112025,10948.804505041,0,0.710574917000486
107,39,17,categorization,0,bathroom,SHINEd_sun_aleqenyvunhactkl.tif,32,0.05,0.0666666666666667,1.31666666666667,10948.82252975,10949.629259041,9,10948.869561041,10948.938334666,10949.643963625,10950.954006541,0,0.806729291000011
107,40,17,categorization,0,kitchen,SHINEd_sun_abrcnpqqhmjwekyf.tif,73,0.05,0.0666666666666667,0.95,10950.972612708,10951.938096291,9,10951.022255625,10951.088904083,10951.962294791,10952.90563475,1,0.965483583000605
107,41,17,categorization,0,bathroom,SHINEd_sun_aghyqhbptboemmoq.tif,23,0.05,0.0666666666666667,1.43333333333333,10952.911531166,10953.776497375,13,10952.956645333,10953.017585333,10953.786297208,10955.212997708,1,0.864966208999249
107,42,17,categorization,0,kitchen,SHINEd_sun_acxkpeoqbwcxfvip.tif,77,0.05,0.0666666666666667,1.66666666666667,10955.231059125,10956.662672916,13,10955.281172125,10955.347444791,10956.690174458,10958.35021975,0,1.43161379099911
107,43,17,categorization,0,kitchen,SHINEd_sun_aegoxogugdkwpmpj.tif,80,0.05,0.0666666666666667,0.933333333333333,10958.368668416,10959.531114875,13,10958.418215458,10958.484742458,10959.556857541,10960.483529875,0,1.16244645900042
107,44,17,categorization,0,bathroom,SHINEd_labelme_sfxiulhjbhlyiyt.tif,11,0.05,0.0666666666666667,0.833333333333333,10960.491039458,10961.416563083,13,10960.536104166,10960.597114708,10961.432258416,10962.258929416,1,0.925523624999187
107,45,17,categorization,0,bathroom,SHINEd_sun_acduarbnmmoglmiv.tif,16,0.05,0.0666666666666667,1.26666666666667,10962.264594958,10963.120646541,13,10962.309504666,10962.370594041,10963.139091083,10964.399133791,1,0.856051582999498
107,46,17,categorization,0,kitchen,SHINEd_sun_agzzivivdpnawacl.tif,89,0.05,0.0666666666666667,1.93333333333333,10964.416862708,10965.683385916,9,10964.466819291,10964.533192458,10965.708754583,10967.63545325,1,1.26652320799985
107,47,17,categorization,0,kitchen,SHINEd_sun_ahljzhgcdpomplvg.tif,91,0.05,0.0666666666666667,1.06666666666667,10967.6530015,10968.553466625,9,10967.703025041,10967.768885708,10968.575620083,10969.635671083,1,0.900465124999755
107,48,17,categorization,0,bathroom,SHINEd_sun_ajlawzvmubibwbpy.tif,30,0.05,0.0666666666666667,0.766666666666667,10969.644952541,10970.86270175,9,10969.693139125,10969.759815833,10970.882428666,10971.64243825,0,1.21774920899952
107,49,17,categorization,0,bathroom,SHINEd_sun_aljolscmmzydegqp.tif,33,0.05,0.0666666666666667,0.833333333333333,10971.648146583,10972.384601333,9,10971.693219541,10971.754246791,10972.389460375,10973.216132416,0,0.736454750000121
107,50,17,categorization,0,bathroom,SHINEd_sun_ahaulkltgpkeeemi.tif,26,0.05,0.0666666666666667,1.46666666666667,10973.2216215,10974.424212208,13,10973.266770541,10973.327655666,10974.429815666,10975.889851958,1,1.20259070799875
