sub_num,trial,block,task,is_practice,category,image,texture,duration,blank,mask_dur,jitter,stim_time,time_of_resp,trial_response,blank_time,mask_time,fix_time,jit_onset,trial_end,trial_accuracy,RT
107,1,24,categorization,0,kitchen,SHINEd_sun_akcjzhbbjlbogpdi.tif,95,0.0166666666666667,0.0166666666666667,0.1,1.16666666666667,614775.7969163,614776.9493071,70,614775.8169969,614775.8332039,614775.9333775,614776.9541122,614778.1191178,1,1.15239080006722
107,2,24,categorization,0,bathroom,SHINEd_sun_ausgutylgojavyoq.tif,53,0.0166666666666667,0.0166666666666667,0.1,1.26666666666667,614778.1241088,614778.9005479,74,614778.1430715,614778.1604565,614778.2593958,614778.905867,614780.1708704,1,0.77643910003826
107,3,24,categorization,0,kitchen,SHINEd_sun_adgqasybjyktddhj.tif,75,0.0166666666666667,0.0166666666666667,0.1,0.7,614780.1770884,614781.1494852,74,614780.1964815,614780.2131225,614780.3127827,614781.1546832,614781.8530206,0,0.972396799945273
107,4,24,categorization,0,bathroom,SHINEd_sun_aiskgiwswewisvph.tif,30,0.0166666666666667,0.0166666666666667,0.1,1.41666666666667,614781.8572061,614783.5489451,70,614781.8760105,614781.8930121,614781.9927688,614783.5550952,614784.9700988,0,1.69173900003079
107,5,24,categorization,0,kitchen,SHINEd_sun_aadbddgrdsjugojn.tif,62,0.0166666666666667,0.0166666666666667,0.1,0.783333333333333,614784.9747369,614785.9251966,70,614784.9932875,614785.0108144,614785.1105501,614785.9303536,614786.7120257,1,0.950459700077772
107,6,24,categorization,0,bathroom,SHINEd_sun_apkxzenqapsujocq.tif,45,0.0166666666666667,0.0166666666666667,0.1,0.85,614786.7182726,614787.3568651,74,614786.7381448,614786.7550623,614786.853995,614787.3619307,614788.2102688,1,0.63859250000678
107,7,24,categorization,0,bathroom,SHINEd_sun_aoybiabnpadelefl.tif,43,0.0166666666666667,0.0166666666666667,0.1,1.1,614788.2151587,614789.069448,70,614788.234795,614788.2513689,614788.3506281,614789.0740977,614790.172435,0,0.854289300041273
107,8,24,categorization,0,bathroom,SHINEd_labelme_xbsnnlvmskdknsb.tif,12,0.0166666666666667,0.0166666666666667,0.1,1.13333333333333,614790.1770855,614791.045253,74,614790.1961048,614790.2131297,614790.3127411,614791.05019,614792.1818597,1,0.868167500011623
107,9,24,categorization,0,kitchen,SHINEd_sun_aexklacwqwezaorf.tif,81,0.0166666666666667,0.0166666666666667,0.1,0.716666666666667,614792.1882166,614794.1975623,74,614792.2071276,614792.2244385,614792.3239081,614794.2026916,614794.9176948,0,2.00934570003301
107,10,24,categorization,0,bathroom,SHINEd_sun_auzqhkafidnkrwmo.tif,54,0.0166666666666667,0.0166666666666667,0.1,0.75,614794.9221782,614795.565009,74,614794.9409569,614794.9596843,614795.0576974,614795.569823,614796.3181701,1,0.642830800032243
107,11,24,categorization,0,bathroom,SHINEd_sun_avhrdrntsqrjzccq.tif,55,0.0166666666666667,0.0166666666666667,0.1,0.783333333333333,614796.3233229,614797.0605334,70,614796.3422288,614796.3593176,614796.4591223,614797.0661955,614797.8478664,0,0.737210500054061
107,12,24,categorization,0,bathroom,SHINEd_sun_amzlamotzwfkwjco.tif,38,0.0166666666666667,0.0166666666666667,0.1,1.43333333333333,614797.8531812,614798.5410378,74,614797.8721227,614797.8903755,614797.9890231,614798.5457847,614799.9774571,1,0.687856600037776
107,13,24,categorization,0,kitchen,SHINEd_sun_awcpdzzznmweyyhv.tif,107,0.0166666666666667,0.0166666666666667,0.1,0.95,614799.9823056,614800.6861627,74,614800.0019724,614800.0183414,614800.1182246,614800.6909719,614801.6393107,0,0.703857099986635
107,14,24,categorization,0,kitchen,SHINEd_sun_axyyrmzcupyhlivc.tif,109,0.0166666666666667,0.0166666666666667,0.1,0.8,614801.6440028,614802.3486367,74,614801.6644739,614801.6801022,614801.7793215,614802.354864,614803.1532022,0,0.704633899964392
107,15,24,categorization,0,kitchen,SHINEd_sun_ahywdevtimnqcsln.tif,92,0.0166666666666667,0.0166666666666667,0.1,1.26666666666667,614803.157897,614804.1175582,70,614803.1781726,614803.1941793,614803.2936778,614804.1226581,614805.3876623,1,0.959661200060509
107,16,24,categorization,0,bathroom,SHINEd_sun_adbqksnwuqqwdpxc.tif,22,0.0166666666666667,0.0166666666666667,0.1,1.88333333333333,614805.3929404,614806.0844641,74,614805.4119237,614805.4300807,614805.5285139,614806.0894668,614807.971139,1,0.691523699904792
107,17,24,categorization,0,kitchen,SHINEd_sun_aypmqwcualkenuoe.tif,110,0.0166666666666667,0.0166666666666667,0.1,0.883333333333333,614807.9755171,614808.6685938,70,614807.9944394,614808.0117045,614808.1113325,614808.6749114,614809.5565928,1,0.693076700088568
107,18,24,categorization,0,bathroom,SHINEd_sun_axxbkopsgyouuebh.tif,58,0.0166666666666667,0.0166666666666667,0.1,1.63333333333333,614809.5615124,614810.2370964,74,614809.5805086,614809.5976716,614809.6973449,614810.2419605,614811.8736322,1,0.675583999953233
107,19,24,categorization,0,kitchen,SHINEd_sun_amjjdeyrggfqgmom.tif,99,0.0166666666666667,0.0166666666666667,0.1,1.65,614811.878924,614812.5570568,70,614811.8979477,614811.9162693,614812.0145739,614812.5620798,614814.2104169,1,0.67813280003611
107,20,24,categorization,0,kitchen,SHINEd_sun_ahdycvpopffkzzsu.tif,88,0.0166666666666667,0.0166666666666667,0.1,0.75,614814.2149897,614814.9891822,70,614814.2343056,614814.2524592,614814.3508236,614814.9939726,614815.7423103,1,0.774192500044592
107,21,24,categorization,0,kitchen,SHINEd_sun_aadbddgrdsjugojn.tif,62,0.0166666666666667,0.0166666666666667,0.1,0.9,614815.748207,614816.4045985,70,614815.7670265,614815.7842991,614815.8835707,614816.4098389,614817.3081767,1,0.656391500029713
107,22,24,categorization,0,kitchen,SHINEd_sun_aggjlwcdjsjcaemh.tif,83,0.0166666666666667,0.0166666666666667,0.1,2,614817.3127754,614817.9724852,70,614817.3330494,614817.3487288,614817.4488711,614817.9781732,614819.9765112,1,0.659709800034761
107,23,24,categorization,0,bathroom,SHINEd_sun_aclfzgynxzxlbepz.tif,20,0.0166666666666667,0.0166666666666667,0.1,1.71666666666667,614819.9811484,614820.7245023,70,614820.0014235,614820.0175014,614820.1167769,614820.7297578,614822.4447616,0,0.743353900033981
107,24,24,categorization,0,bathroom,SHINEd_sun_aamrfepkhweyewue.tif,13,0.0166666666666667,0.0166666666666667,0.1,1.61666666666667,614822.4496674,614823.213401,74,614822.4686193,614822.4867306,614822.5856039,614823.2181182,614824.8331218,1,0.763733600033447
107,25,24,categorization,0,bathroom,SHINEd_sun_aljolscmmzydegqp.tif,34,0.0166666666666667,0.0166666666666667,0.1,0.966666666666667,614824.83837,614825.5084909,70,614824.8579774,614824.8748317,614824.9740333,614825.5131082,614826.4781131,0,0.670120900031179
107,26,24,categorization,0,bathroom,SHINEd_sun_axxbkopsgyouuebh.tif,58,0.0166666666666667,0.0166666666666667,0.1,1.31666666666667,614826.4831312,614827.3165939,70,614826.5016392,614826.5191146,614826.6184935,614827.3222974,614828.6373014,0,0.833462700014934
107,27,24,categorization,0,bathroom,SHINEd_sun_awnqiikzaispgmwo.tif,56,0.0166666666666667,0.0166666666666667,0.1,1.45,614828.6424088,614830.5732559,70,614828.6610973,614828.6787229,614828.7780028,614830.5782242,614832.0265624,0,1.9308470999822
107,28,24,categorization,0,bathroom,SHINEd_sun_ammzpemadwrjdfzl.tif,37,0.0166666666666667,0.0166666666666667,0.1,0.883333333333333,614832.0310636,614833.100845,70,614832.0503415,614832.0685283,614832.1666256,614833.1056509,614833.987321,0,1.06978140003048
107,29,24,categorization,0,bathroom,SHINEd_sun_ambriybtogmepttm.tif,36,0.0166666666666667,0.0166666666666667,0.1,1.55,614833.9924794,614834.6211629,74,614834.0123548,614834.0288632,614834.1282426,614834.6259994,614836.1743372,1,0.628683499991894
107,30,24,categorization,0,bathroom,SHINEd_sun_apynckhmoftszqoq.tif,46,0.0166666666666667,0.0166666666666667,0.1,0.783333333333333,614836.1791068,614836.9164939,70,614836.1978292,614836.2148332,614836.3146816,614836.9220655,614837.7037368,0,0.737387100001797
107,31,24,categorization,0,kitchen,SHINEd_sun_alpduwskzkgbcfui.tif,98,0.0166666666666667,0.0166666666666667,0.1,0.916666666666667,614837.7085284,614838.3325401,70,614837.7278967,614837.7456884,614837.8439157,614838.3379137,614839.2529175,1,0.624011699925177
107,32,24,categorization,0,kitchen,SHINEd_sun_agzzivivdpnawacl.tif,87,0.0166666666666667,0.0166666666666667,0.1,1.01666666666667,614839.2592859,614839.8445078,70,614839.2787375,614839.2954104,614839.3950197,614839.849773,614840.8647779,1,0.585221899906173
107,33,24,categorization,0,bathroom,SHINEd_sun_apkxzenqapsujocq.tif,45,0.0166666666666667,0.0166666666666667,0.1,1.61666666666667,614840.8694891,614841.5331834,74,614840.8880281,614840.9054153,614841.0056089,614841.5381294,614843.1531332,1,0.663694300106727
107,34,24,categorization,0,bathroom,SHINEd_sun_ahcvzmoyaycdoftf.tif,28,0.0166666666666667,0.0166666666666667,0.1,1.03333333333333,614843.1579652,614843.732463,74,614843.1771553,614843.1952707,614843.2938927,614843.7377035,614844.7693748,1,0.574497799971141
107,35,24,categorization,0,bathroom,SHINEd_sun_ausgutylgojavyoq.tif,53,0.0166666666666667,0.0166666666666667,0.1,1.51666666666667,614844.7739155,614845.3565348,74,614844.7941202,614844.810355,614844.9107083,614845.3621596,614846.8771654,1,0.582619299995713
107,36,24,categorization,0,bathroom,SHINEd_sun_arzkwskvsrwimlwo.tif,48,0.0166666666666667,0.0166666666666667,0.1,1.21666666666667,614846.8821655,614847.5805699,70,614846.9010265,614846.9183186,614847.0198859,614847.5859725,614848.8009779,0,0.698404400027357
107,37,24,categorization,0,bathroom,SHINEd_sun_alkosphxlxwjwgjd.tif,35,0.0166666666666667,0.0166666666666667,0.1,1.05,614848.8068631,614849.4925431,74,614848.8258011,614848.8428262,614848.9422538,614849.4977829,614850.5461192,1,0.685679999995045
107,38,24,categorization,0,bathroom,SHINEd_sun_afcoljnjfoxjtgja.tif,24,0.0166666666666667,0.0166666666666667,0.1,1.35,614850.5510907,614851.27647,74,614850.5704354,614850.5875461,614850.686628,614851.2815262,614852.6298635,1,0.725379300070927
107,39,24,categorization,0,bathroom,SHINEd_sun_apkxzenqapsujocq.tif,45,0.0166666666666667,0.0166666666666667,0.1,0.883333333333333,614852.6359875,614853.2045706,74,614852.6551604,614852.6720827,614852.7715705,614853.2099651,614854.0916366,1,0.568583099986427
107,40,24,categorization,0,kitchen,SHINEd_sun_amjjdeyrggfqgmom.tif,99,0.0166666666666667,0.0166666666666667,0.1,1.61666666666667,614854.0963505,614854.7890244,74,614854.1152884,614854.1324083,614854.2320794,614854.7939091,614856.4089136,0,0.692673899931833
107,41,24,categorization,0,bathroom,SHINEd_sun_acsgbuurtwghzjel.tif,21,0.0166666666666667,0.0166666666666667,0.1,0.833333333333333,614856.4132449,614857.2284571,74,614856.4328497,614856.4499327,614856.5488093,614857.2343981,614858.0660683,1,0.815212200046517
107,42,24,categorization,0,kitchen,SHINEd_sun_amjjdeyrggfqgmom.tif,99,0.0166666666666667,0.0166666666666667,0.1,0.9,614858.0709951,614858.7805508,74,614858.0897731,614858.1074262,614858.2074334,614858.7855579,614859.6838964,0,0.709555700072087
107,43,24,categorization,0,kitchen,SHINEd_sun_awcpdzzznmweyyhv.tif,107,0.0166666666666667,0.0166666666666667,0.1,1.7,614859.6885166,614867.1809433,70,614859.7073443,614859.7247302,614859.8242629,614867.1860809,614868.8844194,1,7.49242669995874
107,44,24,categorization,0,bathroom,SHINEd_sun_arzkwskvsrwimlwo.tif,48,0.0166666666666667,0.0166666666666667,0.1,1.06666666666667,614868.8886885,614871.5245273,74,614868.9074304,614868.9246228,614869.024253,614871.5296181,614872.5946231,1,2.63583879999351
107,45,24,categorization,0,bathroom,SHINEd_sun_aunuadmjocsddsrl.tif,52,0.0166666666666667,0.0166666666666667,0.1,1.58333333333333,614872.5996988,614873.333513,70,614872.6186094,614872.6358445,614872.7353035,614873.3384615,614874.9201323,0,0.733814200037159
107,46,24,categorization,0,kitchen,SHINEd_sun_aehawpgmrlhlvcow.tif,78,0.0166666666666667,0.0166666666666667,0.1,0.716666666666667,614874.9249885,614875.3564507,74,614874.9437838,614874.9622942,614875.0610882,614875.3613517,614876.0763559,0,0.431462200009264
107,47,24,categorization,0,kitchen,SHINEd_sun_ahpczsiumwwocjkv.tif,90,0.0166666666666667,0.0166666666666667,0.1,0.95,614876.0807126,614878.4932332,70,614876.0996822,614876.1174888,614876.2166504,614878.4982574,614879.4465936,1,2.41252060001716
107,48,24,categorization,0,kitchen,SHINEd_sun_ajcbwwvdlsvjyzje.tif,94,0.0166666666666667,0.0166666666666667,0.1,0.933333333333333,614879.453165,614881.3014235,70,614879.4721949,614879.4892918,614879.5886452,614881.30655,614882.2382213,1,1.84825849998742
107,49,24,categorization,0,kitchen,SHINEd_sun_aexklacwqwezaorf.tif,81,0.0166666666666667,0.0166666666666667,0.1,1.41666666666667,614882.2446067,614925.5803226,70,614882.2635993,614882.2820475,614882.3805947,614925.5871506,614927.0021546,1,43.3357158999424
107,50,24,categorization,0,bathroom,SHINEd_sun_ausgutylgojavyoq.tif,53,0.0166666666666667,0.0166666666666667,0.1,1.08333333333333,614927.006973,614927.692539,74,614927.0256817,614927.0442635,614927.1426692,614927.6980901,614928.779761,1,0.6855659999419
