sub_num,trial,block,task,is_practice,category,image,texture,duration,mask_dur,jitter,stim_time,time_of_resp,trial_response,mask_time,fix_time,jit_onset,trial_end,trial_accuracy,RT
116,1,20,categorization,0,bathroom,SHINEd_sun_awnqiikzaispgmwo.tif,56,0.0666666666666667,0.0666666666666667,1.95,9893.821449125,9894.769066458,13,9893.883890791,9893.944553083,9894.779972125,9896.723341458,1,0.94761733300038
116,2,20,categorization,0,bathroom,SHINEd_sun_aleqenyvunhactkl.tif,32,0.0666666666666667,0.0666666666666667,0.85,9896.740837208,9898.529170291,9,9896.807292958,9896.873638083,9898.543446541,9899.386785,0,1.78833308299909
116,3,20,categorization,0,bathroom,SHINEd_sun_aghyqhbptboemmoq.tif,23,0.0666666666666667,0.0666666666666667,0.816666666666667,9899.39157875,9900.169498333,13,9899.453319666,9899.514281291,9900.182704333,9900.992708583,1,0.777919583000767
116,4,20,categorization,0,kitchen,SHINEd_labelme_rykdqxenmhulbdn.tif,63,0.0666666666666667,0.0666666666666667,0.983333333333333,9900.997707125,9902.042001375,9,9901.059442333,9901.120399041,9902.056319583,9903.032991666,1,1.04429425000126
116,5,20,categorization,0,bathroom,SHINEd_sun_agguqiubmwhqqunb.tif,22,0.0666666666666667,0.0666666666666667,0.75,9903.037930583,9903.793433041,13,9903.099693041,9903.160659583,9903.813070375,9904.556406958,1,0.755502458001502
116,6,20,categorization,0,kitchen,SHINEd_sun_aenotlpyftoioydp.tif,82,0.0666666666666667,0.0666666666666667,1.48333333333333,9904.56318575,9905.505721166,9,9904.625115625,9904.685874083,9905.521118958,9906.997826916,1,0.942535416001192
116,7,20,categorization,0,kitchen,SHINEd_sun_ajkqhtgcbgpcwrwn.tif,97,0.0666666666666667,0.0666666666666667,0.75,9907.015920375,9907.898710583,13,9907.082359166,9907.148751958,9907.922130708,9908.665468875,0,0.882790207999278
116,8,20,categorization,0,bathroom,SHINEd_sun_aapitsgbtktqubfy.tif,12,0.0666666666666667,0.0666666666666667,1.58333333333333,9908.670482333,9909.881081416,9,9908.732182416,9908.79325525,9909.895500041,9911.472220375,0,1.21059908300049
116,9,20,categorization,0,kitchen,SHINEd_sun_aadbddgrdsjugojn.tif,64,0.0666666666666667,0.0666666666666667,1.88333333333333,9911.4879065,9912.612346708,9,9911.555807875,9911.620639333,9912.625982208,9914.502694375,1,1.12444020799921
116,10,20,categorization,0,bathroom,SHINEd_sun_agyqfjcfkdcydepw.tif,25,0.0666666666666667,0.0666666666666667,1.18333333333333,9914.519852416,9915.676180291,9,9914.586549333,9914.652731416,9915.691724375,9916.868430458,0,1.15632787499999
116,11,20,categorization,0,bathroom,SHINEd_sun_axldvoqbuvuggfmq.tif,57,0.0666666666666667,0.0666666666666667,1.65,9916.881004833,9917.809106791,9,9916.94755225,9917.013935375,9917.837265791,9919.480658583,0,0.928101958001207
116,12,20,categorization,0,bathroom,SHINEd_sun_ajlawzvmubibwbpy.tif,30,0.0666666666666667,0.0666666666666667,1.33333333333333,9919.502370125,9920.653512708,13,9919.569361916,9919.635079833,9920.67503875,9922.001736625,1,1.15114258300127
116,13,20,categorization,0,bathroom,SHINEd_sun_anryaplzeujmzfkd.tif,39,0.0666666666666667,0.0666666666666667,0.95,9922.014253833,9923.623276875,13,9922.081086666,9922.147172458,9923.656343875,9924.599680708,1,1.60902304199954
116,14,20,categorization,0,kitchen,SHINEd_sun_auticobqsbwgoppi.tif,104,0.0666666666666667,0.0666666666666667,1.56666666666667,9924.604700375,9925.865246791,9,9924.666719875,9924.727409916,9925.879754125,9927.439790958,1,1.26054641599876
116,15,20,categorization,0,bathroom,SHINEd_sun_ausgutylgojavyoq.tif,53,0.0666666666666667,0.0666666666666667,1.91666666666667,9927.455721833,9928.276116708,13,9927.523594958,9927.589114166,9928.295285833,9930.205341916,1,0.820394875001512
116,16,20,categorization,0,kitchen,SHINEd_sun_ajcbwwvdlsvjyzje.tif,96,0.0666666666666667,0.0666666666666667,1.75,9930.215568958,9930.986856583,9,9930.280482541,9930.345940333,9931.001635041,9932.745002,1,0.771287625000696
116,17,20,categorization,0,bathroom,SHINEd_sun_apkruvsevgegsdwp.tif,44,0.0666666666666667,0.0666666666666667,0.966666666666667,9932.7645105,9933.646212625,13,9932.831834125,9932.8980815,9933.6728115,9934.632816458,1,0.881702125001539
116,18,20,categorization,0,kitchen,SHINEd_sun_ahpczsiumwwocjkv.tif,92,0.0666666666666667,0.0666666666666667,1.15,9934.638200291,9935.441047,9,9934.699933166,9934.761019791,9935.446189708,9936.589564083,1,0.802846709000733
116,19,20,categorization,0,bathroom,SHINEd_sun_asfwthctfqerjvxr.tif,49,0.0666666666666667,0.0666666666666667,0.733333333333333,9936.599122041,9937.647191041,13,9936.665501833,9936.731876625,9937.671841083,9938.398544458,1,1.0480690000004
116,20,20,categorization,0,kitchen,SHINEd_sun_aymvwlarqodbwuoc.tif,108,0.0666666666666667,0.0666666666666667,1.41666666666667,9938.410457416,9939.241209,9,9938.47685025,9938.534349625,9939.252606458,9940.662661833,1,0.830751584000609
116,21,20,categorization,0,bathroom,SHINEd_sun_apjevzvycyhuqghb.tif,43,0.0666666666666667,0.0666666666666667,0.916666666666667,9940.681397791,9942.520918625,9,9940.747850041,9940.814128375,9942.533264958,9943.443271166,0,1.8395208339989
116,22,20,categorization,0,kitchen,SHINEd_labelme_brsyyvweiuaazfr.tif,61,0.0666666666666667,0.0666666666666667,1.05,9943.448326375,9944.273447291,9,9943.510337041,9943.570945958,9944.289383541,9945.332764083,1,0.825120915998923
116,23,20,categorization,0,bathroom,SHINEd_sun_aqrpegblszgcoujh.tif,48,0.0666666666666667,0.0666666666666667,1,9945.342331083,9947.118209083,9,9945.406847375,9945.47324525,9947.148391416,9948.141730458,0,1.77587800000038
116,24,20,categorization,0,bathroom,SHINEd_sun_axyrejkiiaqiurjk.tif,59,0.0666666666666667,0.0666666666666667,0.766666666666667,9948.146752375,9949.673124416,13,9948.2084865,9948.269421958,9949.688322375,9950.448326583,1,1.52637204100029
116,25,20,categorization,0,bathroom,SHINEd_sun_akiytfaagpdsphgz.tif,31,0.0666666666666667,0.0666666666666667,0.783333333333333,9950.453120583,9951.312773583,9,9950.514726291,9950.575790625,9951.327747916,9952.104418708,0,0.859652999999525
116,26,20,categorization,0,bathroom,SHINEd_sun_apmqjbnwghzuhhzh.tif,46,0.0666666666666667,0.0666666666666667,1.45,9952.109307375,9952.81753825,13,9952.171252041,9952.231987708,9952.834433541,9954.277805,1,0.708230874999572
116,27,20,categorization,0,bathroom,SHINEd_sun_atstyziqcmkahyxk.tif,51,0.0666666666666667,0.0666666666666667,1.15,9954.298297958,9955.103163333,13,9954.364797,9954.431048875,9955.120517291,9956.263891375,1,0.8048653750011
116,28,20,categorization,0,kitchen,SHINEd_sun_auaiucuqpdausiva.tif,102,0.0666666666666667,0.0666666666666667,1.35,9956.272399166,9956.962805375,9,9956.338503041,9956.405209833,9956.977867333,9958.321238208,1,0.690406208999775
116,29,20,categorization,0,kitchen,SHINEd_sun_ahdycvpopffkzzsu.tif,90,0.0666666666666667,0.0666666666666667,1.26666666666667,9958.331271791,9959.612822208,9,9958.398147375,9958.463876416,9959.639337791,9960.89937875,1,1.2815504170012
116,30,20,categorization,0,bathroom,SHINEd_sun_apeeialkgkuxddgh.tif,42,0.0666666666666667,0.0666666666666667,1.05,9960.917564291,9961.709193583,13,9960.981296458,9961.04709675,9961.736022666,9962.779399833,1,0.791629291999925
116,31,20,categorization,0,bathroom,SHINEd_sun_anhioqovhscjqqwb.tif,38,0.0666666666666667,0.0666666666666667,0.8,9962.788467625,9963.525716666,13,9962.852083291,9962.919701125,9963.540974666,9964.334357958,1,0.737249040999814
116,32,20,categorization,0,kitchen,SHINEd_sun_aegoxogugdkwpmpj.tif,80,0.0666666666666667,0.0666666666666667,0.866666666666667,9964.356496958,9965.017675291,9,9964.423662583,9964.489398041,9965.024985458,9965.884990458,1,0.661178332999043
116,33,20,categorization,0,kitchen,SHINEd_sun_afuyedyxivkhecmu.tif,85,0.0666666666666667,0.0666666666666667,0.866666666666667,9965.890082,9966.737232625,9,9965.951808041,9966.01271925,9966.748554625,9967.608558791,1,0.847150625000722
116,34,20,categorization,0,kitchen,SHINEd_sun_aamedkxepzlwuxes.tif,65,0.0666666666666667,0.0666666666666667,1.53333333333333,9967.613406875,9968.353659833,9,9967.675183875,9967.736262958,9968.371328041,9969.898190666,1,0.740252957999473
116,35,20,categorization,0,bathroom,SHINEd_sun_amzlamotzwfkwjco.tif,37,0.0666666666666667,0.0666666666666667,1.66666666666667,9969.910724333,9971.474685791,13,9969.976953166,9970.040190333,9971.494342916,9973.154652958,1,1.56396145799954
116,36,20,categorization,0,bathroom,SHINEd_sun_alotolagknyrgtsk.tif,35,0.0666666666666667,0.0666666666666667,1.95,9973.172611458,9973.890052041,13,9973.238335583,9973.304112916,9973.910564916,9975.853944625,1,0.717440583001007
116,37,20,categorization,0,bathroom,SHINEd_sun_ambriybtogmepttm.tif,36,0.0666666666666667,0.0666666666666667,1.3,9975.873034833,9976.755102208,13,9975.940053416,9976.005779875,9976.779423833,9978.072808958,1,0.882067375001498
116,38,20,categorization,0,bathroom,SHINEd_sun_afcoljnjfoxjtgja.tif,20,0.0666666666666667,0.0666666666666667,1.25,9978.088899333,9978.933075375,9,9978.15662625,9978.221871,9978.962233083,9980.205601375,0,0.844176041999162
116,39,20,categorization,0,kitchen,SHINEd_sun_acxkpeoqbwcxfvip.tif,77,0.0666666666666667,0.0666666666666667,1.2,9980.220725541,9981.003507,9,9980.287652875,9980.353166541,9981.026812916,9982.220202666,1,0.782781459000034
116,40,20,categorization,0,bathroom,SHINEd_sun_acegryoqftbzowsg.tif,17,0.0666666666666667,0.0666666666666667,1.61666666666667,9982.238134375,9983.044250333,9,9982.305390958,9982.37110275,9983.060242625,9984.67028825,0,0.806115957999282
116,41,20,categorization,0,bathroom,SHINEd_sun_ahaulkltgpkeeemi.tif,26,0.0666666666666667,0.0666666666666667,1.65,9984.691374125,9985.387787458,13,9984.758949333,9984.824074083,9985.414372208,9987.057738541,1,0.696413333000237
116,42,20,categorization,0,kitchen,SHINEd_sun_acfmftudsenhrfhy.tif,74,0.0666666666666667,0.0666666666666667,0.9,9987.078550458,9987.876844875,9,9987.145873083,9987.2117165,9987.901849916,9988.795189458,1,0.798294416999852
116,43,20,categorization,0,kitchen,SHINEd_sun_aapllqyqlykszopd.tif,66,0.0666666666666667,0.0666666666666667,0.816666666666667,9988.80038125,9989.744705791,9,9988.86213425,9988.923190041,9989.758753416,9990.568758166,1,0.944324541000242
116,44,20,categorization,0,kitchen,SHINEd_sun_abpwyqmlzafvklqo.tif,72,0.0666666666666667,0.0666666666666667,1.86666666666667,9990.574006916,9991.401421833,9,9990.635690166,9990.69675925,9991.415302666,9993.275345625,1,0.82741491699926
116,45,20,categorization,0,bathroom,SHINEd_sun_ahijqszoswveeyji.tif,28,0.0666666666666667,0.0666666666666667,1.38333333333333,9993.284778333,9994.398423875,9,9993.351227333,9993.417514208,9994.423572416,9995.800273125,0,1.11364554200009
116,46,20,categorization,0,kitchen,SHINEd_sun_aggjlwcdjsjcaemh.tif,86,0.0666666666666667,0.0666666666666667,1.63333333333333,9995.815885791,9996.60326975,13,9995.882592458,9995.948558666,9996.621444416,9998.248167166,0,0.787383958999271
116,47,20,categorization,0,bathroom,SHINEd_sun_apkxzenqapsujocq.tif,45,0.0666666666666667,0.0666666666666667,1.56666666666667,9998.265165666,9999.09920825,13,9998.332047833,9998.396811708,9999.120246625,10000.680301333,1,0.83404258399969
116,48,20,categorization,0,kitchen,SHINEd_sun_admlmbcdswaszruo.tif,79,0.0666666666666667,0.0666666666666667,1.21666666666667,10000.699078791,10001.459296958,9,10000.765577375,10000.831928791,10001.488675041,10002.698731208,1,0.760218167000858
116,49,20,categorization,0,kitchen,SHINEd_sun_acgtpgfybqjmzeyw.tif,75,0.0666666666666667,0.0666666666666667,0.716666666666667,10002.715848416,10003.593934833,9,10002.782575625,10002.848545958,10003.622091625,10004.332146833,1,0.878086416998485
116,50,20,categorization,0,kitchen,SHINEd_sun_aixorpehvfykdynp.tif,95,0.0666666666666667,0.0666666666666667,0.966666666666667,10004.345192125,10005.752599875,9,10004.411921875,10004.477846208,10005.763640958,10006.723645958,1,1.40740775000086
