sub_num,trial,block,task,is_practice,category,image,texture,duration,mask_dur,jitter,stim_time,time_of_resp,trial_response,mask_time,fix_time,jit_onset,trial_end,trial_accuracy,RT
116,1,23,categorization,0,kitchen,SHINEd_sun_ahspylgoovwmwvgk.tif,93,0.0666666666666667,0.0666666666666667,0.916666666666667,10252.596573375,10253.736235833,9,10252.659398375,10252.719446625,10253.755105666,10254.665110458,1,1.13966245799929
116,2,23,categorization,0,bathroom,SHINEd_sun_ausgutylgojavyoq.tif,53,0.0666666666666667,0.0666666666666667,1.61666666666667,10254.669738416,10255.472141333,13,10254.731525041,10254.792452375,10255.477606041,10257.087644416,1,0.802402917001018
116,3,23,categorization,0,kitchen,SHINEd_sun_ahpczsiumwwocjkv.tif,92,0.0666666666666667,0.0666666666666667,1.05,10257.104977291,10258.736004625,9,10257.171649583,10257.232827541,10258.752223833,10259.795616125,1,1.63102733400046
116,4,23,categorization,0,bathroom,SHINEd_sun_alotolagknyrgtsk.tif,35,0.0666666666666667,0.0666666666666667,1.76666666666667,10259.806650208,10260.576921625,13,10259.871527916,10259.937848208,10260.593638083,10262.353674208,1,0.770271416999094
116,5,23,categorization,0,kitchen,SHINEd_sun_aadbddgrdsjugojn.tif,64,0.0666666666666667,0.0666666666666667,0.816666666666667,10262.371670625,10263.408257958,9,10262.438201458,10262.504120458,10263.42700275,10264.237007833,1,1.03658733300108
116,6,23,categorization,0,kitchen,SHINEd_sun_abdenxonkemggwsq.tif,69,0.0666666666666667,0.0666666666666667,1.65,10264.242488916,10265.032327541,13,10264.304244958,10264.36518925,10265.050801416,10266.6941675,0,0.789838624999902
116,7,23,categorization,0,kitchen,SHINEd_sun_aymvwlarqodbwuoc.tif,108,0.0666666666666667,0.0666666666666667,1.65,10266.712969541,10268.028875833,9,10266.779735,10266.845781458,10268.055697083,10269.699088833,1,1.31590629200036
116,8,23,categorization,0,kitchen,SHINEd_sun_azmutvzbxypaceni.tif,110,0.0666666666666667,0.0666666666666667,1.21666666666667,10269.716850083,10270.476410666,9,10269.783960666,10269.850376708,10270.507733666,10271.71778525,1,0.759560583001075
116,9,23,categorization,0,bathroom,SHINEd_sun_acgyywnybuveqsro.tif,18,0.0666666666666667,0.0666666666666667,0.933333333333333,10271.735583166,10272.539769833,13,10271.802932916,10271.868429541,10272.557195083,10273.483897708,1,0.804186666999158
116,10,23,categorization,0,kitchen,SHINEd_sun_aypmqwcualkenuoe.tif,109,0.0666666666666667,0.0666666666666667,0.933333333333333,10273.500930625,10274.328008416,9,10273.568108541,10273.626484583,10274.345609083,10275.272279416,1,0.827077791000193
116,11,23,categorization,0,bathroom,SHINEd_sun_aavhrsfjbserjtht.tif,13,0.0666666666666667,0.0666666666666667,0.983333333333333,10275.278320958,10276.008288708,13,10275.340056958,10275.401040791,10276.020170208,10276.99684075,1,0.729967750001379
116,12,23,categorization,0,bathroom,SHINEd_sun_axldvoqbuvuggfmq.tif,57,0.0666666666666667,0.0666666666666667,1.03333333333333,10277.00175425,10277.800308625,9,10277.0634535,10277.124482083,10277.81036475,10278.837066083,0,0.798554374998275
116,13,23,categorization,0,kitchen,SHINEd_sun_abrcnpqqhmjwekyf.tif,73,0.0666666666666667,0.0666666666666667,1.35,10278.850493208,10279.569926,13,10278.915169791,10278.982091125,10279.587850208,10280.931194916,0,0.719432792000589
116,14,23,categorization,0,bathroom,SHINEd_sun_awnqiikzaispgmwo.tif,56,0.0666666666666667,0.0666666666666667,0.95,10280.941111958,10281.674787583,9,10281.005650125,10281.073737458,10281.696868916,10282.640239125,0,0.733675625000615
116,15,23,categorization,0,bathroom,SHINEd_sun_aofnryafpsjimzsb.tif,40,0.0666666666666667,0.0666666666666667,1.58333333333333,10282.656855083,10284.272242625,13,10282.722900916,10282.789557333,10284.292402708,10285.869114416,1,1.61538754200046
116,16,23,categorization,0,kitchen,SHINEd_sun_ahdycvpopffkzzsu.tif,90,0.0666666666666667,0.0666666666666667,0.766666666666667,10285.887068666,10286.65631175,9,10285.953607583,10286.020073958,10286.676428166,10287.436434333,1,0.769243084001573
116,17,23,categorization,0,kitchen,SHINEd_labelme_brsyyvweiuaazfr.tif,61,0.0666666666666667,0.0666666666666667,1.8,10287.44193175,10288.919704791,13,10287.503763875,10287.564800583,10288.93439725,10290.727767583,0,1.47777304100055
116,18,23,categorization,0,bathroom,SHINEd_sun_auzqhkafidnkrwmo.tif,54,0.0666666666666667,0.0666666666666667,0.95,10290.747181625,10291.685998833,9,10290.813927291,10290.880310375,10291.702867208,10292.646208583,0,0.938817207999818
116,19,23,categorization,0,bathroom,SHINEd_sun_ahqjwnzgolcaoidx.tif,29,0.0666666666666667,0.0666666666666667,1.45,10292.651508708,10294.263501958,9,10292.713433041,10292.774245791,10294.277188916,10295.7205765,0,1.6119932499987
116,20,23,categorization,0,bathroom,SHINEd_sun_ahijqszoswveeyji.tif,28,0.0666666666666667,0.0666666666666667,1.15,10295.738660208,10297.266765791,13,10295.8055685,10295.871430875,10297.295544,10298.438920791,1,1.52810558300007
116,21,23,categorization,0,kitchen,SHINEd_sun_axyyrmzcupyhlivc.tif,107,0.0666666666666667,0.0666666666666667,0.733333333333333,10298.447990375,10299.180191833,9,10298.513926,10298.581077375,10299.204297458,10299.93101725,1,0.732201458000418
116,22,23,categorization,0,kitchen,SHINEd_sun_acfmftudsenhrfhy.tif,74,0.0666666666666667,0.0666666666666667,0.933333333333333,10299.946979625,10300.760214083,9,10300.01365825,10300.079831833,10300.76514125,10301.691813541,1,0.813234458000807
116,23,23,categorization,0,kitchen,SHINEd_sun_auticobqsbwgoppi.tif,104,0.0666666666666667,0.0666666666666667,1.33333333333333,10301.696591333,10302.632221208,9,10301.758430916,10301.819316625,10302.637618416,10303.964334166,1,0.935629874998995
116,24,23,categorization,0,kitchen,SHINEd_sun_aapllqyqlykszopd.tif,66,0.0666666666666667,0.0666666666666667,1.91666666666667,10303.981644375,10304.94874,9,10304.048127916,10304.114571833,10304.971287541,10306.881324,1,0.967095624999274
116,25,23,categorization,0,bathroom,SHINEd_sun_ahcvzmoyaycdoftf.tif,27,0.0666666666666667,0.0666666666666667,1.6,10306.898590166,10307.90957975,9,10306.965048375,10307.031500125,10307.938109375,10309.531475916,0,1.01098958399962
116,26,23,categorization,0,bathroom,SHINEd_sun_anhioqovhscjqqwb.tif,38,0.0666666666666667,0.0666666666666667,2,10309.547873125,10310.392245125,13,10309.614631625,10309.680969083,10310.420892125,10312.414278166,1,0.844371999999566
116,27,23,categorization,0,bathroom,SHINEd_sun_asfwthctfqerjvxr.tif,49,0.0666666666666667,0.0666666666666667,1.06666666666667,10312.431921708,10313.353869,13,10312.498641416,10312.565097458,10313.371217791,10314.431276916,1,0.921947292001278
116,28,23,categorization,0,bathroom,SHINEd_sun_amzlamotzwfkwjco.tif,37,0.0666666666666667,0.0666666666666667,1.28333333333333,10314.445798208,10315.580572541,9,10314.510688083,10314.576931041,10315.600063375,10316.876780625,0,1.13477433299886
116,29,23,categorization,0,bathroom,SHINEd_labelme_sfxiulhjbhlyiyt.tif,11,0.0666666666666667,0.0666666666666667,0.95,10316.890070708,10317.820476708,13,10316.956722541,10317.023909083,10317.847065166,10318.790404375,1,0.930406000001312
116,30,23,categorization,0,kitchen,SHINEd_sun_agzzivivdpnawacl.tif,89,0.0666666666666667,0.0666666666666667,0.9,10318.796414833,10319.519562,9,10318.858274833,10318.919105958,10319.537861458,10320.431198666,1,0.723147167000207
116,31,23,categorization,0,kitchen,SHINEd_sun_auaiucuqpdausiva.tif,102,0.0666666666666667,0.0666666666666667,0.716666666666667,10320.436717958,10321.079928541,9,10320.498416625,10320.55942025,10321.0947965,10321.804799875,1,0.643210582999018
116,32,23,categorization,0,bathroom,SHINEd_sun_aleqenyvunhactkl.tif,32,0.0666666666666667,0.0666666666666667,0.866666666666667,10321.811285375,10322.975846458,13,10321.873131791,10321.93415975,10322.98694375,10323.846948041,1,1.16456108300008
116,33,23,categorization,0,kitchen,SHINEd_sun_acgtpgfybqjmzeyw.tif,75,0.0666666666666667,0.0666666666666667,1.11666666666667,10323.851569208,10324.568020291,9,10323.913358708,10323.974310541,10324.57673,10325.686785833,1,0.71645108300072
116,34,23,categorization,0,bathroom,SHINEd_sun_axyrejkiiaqiurjk.tif,59,0.0666666666666667,0.0666666666666667,0.866666666666667,10325.696029333,10326.661915875,13,10325.760506666,10325.828860083,10326.685653458,10327.545690291,1,0.96588654200059
116,35,23,categorization,0,bathroom,SHINEd_sun_apkxzenqapsujocq.tif,45,0.0666666666666667,0.0666666666666667,1.83333333333333,10327.56260925,10328.4082405,13,10327.625486166,10327.685484291,10328.421157666,10330.247881208,1,0.845631250000224
116,36,23,categorization,0,kitchen,SHINEd_sun_acwjdupvyjsugpay.tif,76,0.0666666666666667,0.0666666666666667,0.85,10330.265251166,10332.103871166,13,10330.331661958,10330.398355958,10332.117398416,10332.960737375,0,1.83862000000045
116,37,23,categorization,0,bathroom,SHINEd_sun_azqyogdvyhahyram.tif,60,0.0666666666666667,0.0666666666666667,1.76666666666667,10332.965982,10333.743794333,13,10333.027780833,10333.088732791,10333.757479458,10335.517520958,1,0.777812333000838
116,38,23,categorization,0,bathroom,SHINEd_sun_acegryoqftbzowsg.tif,17,0.0666666666666667,0.0666666666666667,1.9,10335.533120333,10336.328500916,9,10335.599718875,10335.665861666,10336.35585525,10338.249233625,0,0.795380583000224
116,39,23,categorization,0,kitchen,SHINEd_labelme_kxvouciolcpqplr.tif,62,0.0666666666666667,0.0666666666666667,1.61666666666667,10338.262790208,10339.156821291,13,10338.329037875,10338.395518125,10339.185727375,10340.795761916,0,0.8940310830003
116,40,23,categorization,0,bathroom,SHINEd_sun_apynckhmoftszqoq.tif,47,0.0666666666666667,0.0666666666666667,1.21666666666667,10340.811532708,10341.570797916,9,10340.877806125,10340.944056375,10341.600138208,10342.810173125,0,0.759265208000215
116,41,23,categorization,0,bathroom,SHINEd_sun_axxbkopsgyouuebh.tif,58,0.0666666666666667,0.0666666666666667,1.2,10342.829291041,10343.594073333,9,10342.895641916,10342.961893375,10343.617591791,10344.810984666,0,0.764782292000746
116,42,23,categorization,0,bathroom,SHINEd_sun_anryaplzeujmzfkd.tif,39,0.0666666666666667,0.0666666666666667,1.05,10344.820821666,10345.691007708,13,10344.885292625,10344.953211833,10345.709426583,10346.752815791,1,0.87018604199875
116,43,23,categorization,0,bathroom,SHINEd_sun_ambriybtogmepttm.tif,36,0.0666666666666667,0.0666666666666667,1.01666666666667,10346.769602541,10347.495837625,9,10346.836315541,10346.894423291,10347.512844416,10348.522899708,0,0.7262350839992
116,44,23,categorization,0,bathroom,SHINEd_sun_afcoljnjfoxjtgja.tif,20,0.0666666666666667,0.0666666666666667,1.43333333333333,10348.534595916,10349.611294958,13,10348.59947175,10348.66612625,10349.639343,10351.066044083,1,1.07669904199975
116,45,23,categorization,0,kitchen,SHINEd_sun_awcpdzzznmweyyhv.tif,106,0.0666666666666667,0.0666666666666667,1.5,10351.0848085,10351.993130833,9,10351.151392208,10351.217566375,10352.006444458,10353.499841166,1,0.908322332999887
116,46,23,categorization,0,bathroom,SHINEd_sun_apjevzvycyhuqghb.tif,43,0.0666666666666667,0.0666666666666667,1.21666666666667,10353.518320083,10354.546822958,13,10353.585328791,10353.650685375,10354.573822166,10355.783859833,1,1.02850287500041
116,47,23,categorization,0,bathroom,SHINEd_sun_alkosphxlxwjwgjd.tif,34,0.0666666666666667,0.0666666666666667,0.916666666666667,10355.799926916,10356.675798416,13,10355.8668345,10355.932577416,10356.705681958,10357.615719958,1,0.875871500000358
116,48,23,categorization,0,kitchen,SHINEd_sun_abdxkyyxwfskuaqb.tif,70,0.0666666666666667,0.0666666666666667,0.716666666666667,10357.631852375,10359.127836458,9,10357.698182833,10357.755564083,10359.141721458,10359.851726333,1,1.49598408299971
116,49,23,categorization,0,bathroom,SHINEd_sun_ajlawzvmubibwbpy.tif,30,0.0666666666666667,0.0666666666666667,1.18333333333333,10359.856384458,10360.975291916,9,10359.918112125,10359.979168791,10360.980942291,10362.157655833,0,1.11890745799974
116,50,23,categorization,0,kitchen,SHINEd_sun_ajcbwwvdlsvjyzje.tif,96,0.0666666666666667,0.0666666666666667,0.766666666666667,10362.166659166,10363.185901458,13,10362.234431083,10362.29912125,10363.205059541,10363.965110208,0,1.01924229200085
