sub_num,trial,block,task,is_practice,category,image,texture,duration,mask_dur,jitter,stim_time,time_of_resp,trial_response,mask_time,fix_time,jit_onset,trial_end,trial_accuracy,RT
116,1,22,categorization,0,bathroom,SHINEd_sun_acegryoqftbzowsg.tif,17,0.0666666666666667,0.0666666666666667,1.25,10133.305702,10134.472453916,9,10133.368026708,10133.428375291,10134.480134125,10135.72351875,0,1.16675191600007
116,2,22,categorization,0,bathroom,SHINEd_sun_ajlawzvmubibwbpy.tif,30,0.0666666666666667,0.0666666666666667,1.81666666666667,10135.736766958,10136.624754083,9,10135.804591416,10135.869511791,10136.642391833,10138.452447125,0,0.887987125001018
116,3,22,categorization,0,kitchen,SHINEd_sun_aadbddgrdsjugojn.tif,64,0.0666666666666667,0.0666666666666667,1.38333333333333,10138.46996625,10139.4158195,9,10138.536958666,10138.603013833,10139.44307125,10140.819790458,1,0.945853249999345
116,4,22,categorization,0,kitchen,SHINEd_sun_aenotlpyftoioydp.tif,82,0.0666666666666667,0.0666666666666667,1.16666666666667,10140.836527958,10141.817763625,9,10140.903104625,10140.969398916,10141.842467666,10143.002502708,1,0.981235667000874
116,5,22,categorization,0,bathroom,SHINEd_sun_aljolscmmzydegqp.tif,33,0.0666666666666667,0.0666666666666667,1.28333333333333,10143.012069,10143.756729291,13,10143.078753916,10143.144995041,10143.785112875,10145.061813916,1,0.7446602910004
116,6,22,categorization,0,kitchen,SHINEd_sun_abrcnpqqhmjwekyf.tif,73,0.0666666666666667,0.0666666666666667,0.716666666666667,10145.080201333,10145.998588166,9,10145.146828,10145.2127255,10146.019157166,10146.729212375,1,0.918386833000113
116,7,22,categorization,0,kitchen,SHINEd_sun_acgtpgfybqjmzeyw.tif,75,0.0666666666666667,0.0666666666666667,0.75,10146.746849333,10147.737011166,9,10146.813743833,10146.879476958,10147.748192458,10148.491529958,1,0.990161833000457
116,8,22,categorization,0,kitchen,SHINEd_sun_axyyrmzcupyhlivc.tif,107,0.0666666666666667,0.0666666666666667,1.26666666666667,10148.497032208,10149.280531916,9,10148.558825708,10148.619796291,10149.288252708,10150.548298625,1,0.783499707998999
116,9,22,categorization,0,kitchen,SHINEd_sun_agorklincwxrdtga.tif,87,0.0666666666666667,0.0666666666666667,1.31666666666667,10150.565182041,10151.52836975,9,10150.631876125,10150.698190541,10151.554855166,10152.864888958,1,0.963187708999612
116,10,22,categorization,0,kitchen,SHINEd_sun_aexklacwqwezaorf.tif,84,0.0666666666666667,0.0666666666666667,1.28333333333333,10152.881640208,10154.083210208,9,10152.948267291,10153.014456875,10154.104408375,10155.38112175,1,1.20157000000108
116,11,22,categorization,0,kitchen,SHINEd_sun_abdenxonkemggwsq.tif,69,0.0666666666666667,0.0666666666666667,0.95,10155.398786541,10156.709449583,9,10155.465004708,10155.531253125,10156.740648083,10157.683986166,1,1.31066304200067
116,12,22,categorization,0,kitchen,SHINEd_sun_aggjlwcdjsjcaemh.tif,86,0.0666666666666667,0.0666666666666667,1.21666666666667,10157.689570791,10158.855998583,13,10157.751457333,10157.812291083,10158.864153458,10160.074203583,0,1.16642779199901
116,13,22,categorization,0,kitchen,SHINEd_sun_awcpdzzznmweyyhv.tif,106,0.0666666666666667,0.0666666666666667,1.15,10160.091234708,10160.803650625,9,10160.157907291,10160.223756041,10160.830322583,10161.973689916,1,0.712415916999817
116,14,22,categorization,0,bathroom,SHINEd_sun_axxbkopsgyouuebh.tif,58,0.0666666666666667,0.0666666666666667,0.916666666666667,10161.984955041,10162.714093,13,10162.049789916,10162.117439666,10162.740577291,10163.650616958,1,0.729137959000582
116,15,22,categorization,0,kitchen,SHINEd_sun_aamedkxepzlwuxes.tif,65,0.0666666666666667,0.0666666666666667,1.86666666666667,10163.666484291,10164.304359125,9,10163.732939833,10163.799078291,10164.31811075,10166.178165458,1,0.637874834001195
116,16,22,categorization,0,kitchen,SHINEd_sun_agubuxuukhzyzpdp.tif,88,0.0666666666666667,0.0666666666666667,0.766666666666667,10166.196885958,10167.3319445,9,10166.263595041,10166.329695875,10167.352885,10168.112889041,1,1.13505854200048
116,17,22,categorization,0,kitchen,SHINEd_sun_amjjdeyrggfqgmom.tif,100,0.0666666666666667,0.0666666666666667,1.96666666666667,10168.117606083,10168.9360065,9,10168.179491708,10168.24027125,10168.942747208,10170.902797958,1,0.818400416999793
116,18,22,categorization,0,bathroom,SHINEd_sun_ahcvzmoyaycdoftf.tif,27,0.0666666666666667,0.0666666666666667,0.716666666666667,10170.9223085,10172.352479541,9,10170.988826166,10171.054829,10172.357674291,10173.067679166,0,1.43017104099999
116,19,22,categorization,0,kitchen,SHINEd_sun_abpwyqmlzafvklqo.tif,72,0.0666666666666667,0.0666666666666667,0.9,10173.072258625,10174.23187425,13,10173.134004833,10173.194904833,10174.24764475,10175.140983125,0,1.15961562499979
116,20,22,categorization,0,bathroom,SHINEd_sun_aggnnqpdorgxpvce.tif,21,0.0666666666666667,0.0666666666666667,0.866666666666667,10175.146295041,10176.0562085,13,10175.20800275,10175.268926708,10176.071352333,10176.931356666,1,0.909913458999654
116,21,22,categorization,0,bathroom,SHINEd_sun_aofnryafpsjimzsb.tif,40,0.0666666666666667,0.0666666666666667,0.8,10176.937028208,10177.784633166,9,10176.998761291,10177.059745541,10177.795302541,10178.588640125,0,0.847604958000375
116,22,22,categorization,0,bathroom,SHINEd_sun_aleqenyvunhactkl.tif,32,0.0666666666666667,0.0666666666666667,0.966666666666667,10178.595258708,10179.304196666,13,10178.65694925,10178.7179305,10179.319728,10180.279731833,1,0.708937958001115
116,23,22,categorization,0,bathroom,SHINEd_sun_anryaplzeujmzfkd.tif,39,0.0666666666666667,0.0666666666666667,0.983333333333333,10180.285264541,10181.392298708,13,10180.346940541,10180.407927916,10181.409721708,10182.386393875,1,1.10703416700017
116,24,22,categorization,0,kitchen,SHINEd_sun_azmutvzbxypaceni.tif,110,0.0666666666666667,0.0666666666666667,0.75,10182.391995875,10183.063904791,9,10182.453959375,10182.514712625,10183.083502,10183.826840041,1,0.671908916001485
116,25,22,categorization,0,kitchen,SHINEd_sun_ahspylgoovwmwvgk.tif,93,0.0666666666666667,0.0666666666666667,1.35,10183.83183,10184.687794083,9,10183.893652833,10183.954580708,10184.707047166,10186.050432333,1,0.855964083000799
116,26,22,categorization,0,kitchen,SHINEd_sun_ahywdevtimnqcsln.tif,94,0.0666666666666667,0.0666666666666667,0.7,10186.067835875,10186.883894166,9,10186.134228208,10186.200493291,10186.90723,10187.600601333,1,0.816058291000445
116,27,22,categorization,0,kitchen,SHINEd_labelme_brsyyvweiuaazfr.tif,61,0.0666666666666667,0.0666666666666667,1.36666666666667,10187.616717125,10188.62422975,9,10187.683304875,10187.742131583,10188.627428583,10189.98747525,1,1.00751262499944
116,28,22,categorization,0,bathroom,SHINEd_sun_abjtwfukuwddzted.tif,15,0.0666666666666667,0.0666666666666667,1.88333333333333,10190.003451541,10190.992791958,9,10190.071717875,10190.13605325,10191.008443041,10192.885148791,0,0.989340416999767
116,29,22,categorization,0,bathroom,SHINEd_sun_aqrpegblszgcoujh.tif,48,0.0666666666666667,0.0666666666666667,1.76666666666667,10192.902170541,10193.675679291,13,10192.9697555,10193.034929083,10193.690517708,10195.450567833,1,0.773508750000474
116,30,22,categorization,0,kitchen,SHINEd_sun_abdxkyyxwfskuaqb.tif,70,0.0666666666666667,0.0666666666666667,1.9,10195.468820125,10196.604364041,9,10195.533649041,10195.601756541,10196.624784,10198.518170125,1,1.13554391600155
116,31,22,categorization,0,bathroom,SHINEd_sun_akiytfaagpdsphgz.tif,31,0.0666666666666667,0.0666666666666667,1.05,10198.535996166,10200.24871925,9,10198.603151375,10198.668762166,10200.254944208,10201.29832075,0,1.71272308399966
116,32,22,categorization,0,bathroom,SHINEd_sun_ahijqszoswveeyji.tif,28,0.0666666666666667,0.0666666666666667,1.15,10201.31050225,10202.125733958,13,10201.375251666,10201.441318791,10202.147751958,10203.291120458,1,0.815231708000283
116,33,22,categorization,0,bathroom,SHINEd_labelme_sfxiulhjbhlyiyt.tif,11,0.0666666666666667,0.0666666666666667,1.5,10203.304880791,10204.048356458,9,10203.367397958,10203.427686625,10204.063339166,10205.556724958,0,0.743475667000894
116,34,22,categorization,0,kitchen,SHINEd_sun_akchetnepxlcxhsu.tif,98,0.0666666666666667,0.0666666666666667,0.983333333333333,10205.574233875,10206.280277583,9,10205.640557291,10205.706962333,10206.295617708,10207.272288875,1,0.706043707999925
116,35,22,categorization,0,kitchen,SHINEd_sun_aehawpgmrlhlvcow.tif,81,0.0666666666666667,0.0666666666666667,1.36666666666667,10207.278655875,10208.0002565,13,10207.340395833,10207.401380291,10208.020213208,10209.380272375,0,0.721600625000065
116,36,22,categorization,0,bathroom,SHINEd_sun_agguqiubmwhqqunb.tif,22,0.0666666666666667,0.0666666666666667,1.28333333333333,10209.397890958,10210.303911666,13,10209.462733208,10209.530719875,10210.319922916,10211.596637625,1,0.906020708000142
116,37,22,categorization,0,bathroom,SHINEd_sun_agyqfjcfkdcydepw.tif,25,0.0666666666666667,0.0666666666666667,0.916666666666667,10211.613765916,10212.429930375,9,10211.680632583,10211.746434875,10212.451643208,10213.361688375,0,0.816164458999992
116,38,22,categorization,0,bathroom,SHINEd_sun_aoybiabnpadelefl.tif,41,0.0666666666666667,0.0666666666666667,0.883333333333333,10213.381198,10214.744617041,9,10213.443823166,10213.503892083,10214.756430458,10215.633102958,0,1.36341904100118
116,39,22,categorization,0,bathroom,SHINEd_sun_afcoljnjfoxjtgja.tif,20,0.0666666666666667,0.0666666666666667,1.71666666666667,10215.63781425,10216.440499291,13,10215.699569833,10215.7604905,10216.446270666,10218.1563095,1,0.802685041000586
116,40,22,categorization,0,bathroom,SHINEd_sun_abapwbhyhkfixyex.tif,14,0.0666666666666667,0.0666666666666667,1.01666666666667,10218.174570875,10219.082871208,13,10218.241296666,10218.307224,10219.09568425,10220.105740958,1,0.908300332999715
116,41,22,categorization,0,kitchen,SHINEd_sun_ajkqhtgcbgpcwrwn.tif,97,0.0666666666666667,0.0666666666666667,1.58333333333333,10220.1167065,10221.070164666,13,10220.180849083,10220.247498291,10221.086596166,10222.663306833,0,0.953458165999109
116,42,22,categorization,0,kitchen,SHINEd_sun_agzzivivdpnawacl.tif,89,0.0666666666666667,0.0666666666666667,0.783333333333333,10222.681548708,10223.527446,9,10222.748152875,10222.814639583,10223.55379675,10224.33050825,1,0.84589729199979
116,43,22,categorization,0,bathroom,SHINEd_sun_aspsyogrekjtfozg.tif,50,0.0666666666666667,0.0666666666666667,0.916666666666667,10224.34618025,10225.432315583,9,10224.4087805,10224.468893541,10225.437444291,10226.347448666,0,1.08613533300013
116,44,22,categorization,0,bathroom,SHINEd_sun_aavhrsfjbserjtht.tif,13,0.0666666666666667,0.0666666666666667,0.75,10226.353115958,10227.160154333,13,10226.41505225,10226.475839916,10227.17824475,10227.921582416,1,0.807038375000047
116,45,22,categorization,0,bathroom,SHINEd_sun_ahaulkltgpkeeemi.tif,26,0.0666666666666667,0.0666666666666667,1.46666666666667,10227.928247541,10228.920275583,9,10227.98995475,10228.050960041,10228.936661625,10230.396717833,0,0.99202804199922
116,46,22,categorization,0,bathroom,SHINEd_sun_apmqjbnwghzuhhzh.tif,46,0.0666666666666667,0.0666666666666667,0.833333333333333,10230.415346583,10231.223782791,13,10230.480468625,10230.548104916,10231.235571916,10232.06224675,1,0.808436207998966
116,47,22,categorization,0,kitchen,SHINEd_sun_aaxxjlsuzvqlgylf.tif,68,0.0666666666666667,0.0666666666666667,1.15,10232.068245083,10233.287689625,9,10232.129862,10232.190960041,10233.293018083,10234.436387541,1,1.21944454199911
116,48,22,categorization,0,kitchen,SHINEd_sun_auticobqsbwgoppi.tif,104,0.0666666666666667,0.0666666666666667,1.1,10234.445518375,10235.395177875,9,10234.511930375,10234.5778915,10235.417779333,10236.511151041,1,0.949659500000053
116,49,22,categorization,0,kitchen,SHINEd_sun_avszsnwsbuqfgzbn.tif,105,0.0666666666666667,0.0666666666666667,1.15,10236.52280025,10237.644871083,9,10236.587806583,10236.655334916,10237.661163916,10238.804538375,1,1.12207083300018
116,50,22,categorization,0,bathroom,SHINEd_sun_apkruvsevgegsdwp.tif,44,0.0666666666666667,0.0666666666666667,0.766666666666667,10238.81452575,10239.679703291,13,10238.880565041,10238.947197916,10239.703884625,10240.463937291,1,0.865177540999866
