sub_num,trial,block,task,is_practice,category,image,texture,duration,mask_dur,jitter,stim_time,time_of_resp,trial_response,mask_time,fix_time,jit_onset,trial_end,trial_accuracy,RT
101,6,0,familiarity,1,kitchen,kitchen_practice2.tif,227,1.5,0,0.733333333333333,3185.795614125,3188.7590575,1,NaN,3188.788226458,3188.810569,3189.537240458,NaN,NaN
101,7,0,familiarity,1,kitchen,kitchen_practice3.tif,228,1.5,0,1.3,3189.551377916,3192.814412333,2,NaN,3192.820012625,3192.838329125,3194.131713666,NaN,NaN
101,8,0,familiarity,1,kitchen,kitchen_practice1.tif,226,1.5,0,2,3194.148050583,3197.038064583,1,NaN,3197.043516541,3197.0618415,3199.055225916,NaN,NaN
101,9,0,familiarity,1,kitchen,kitchen_practice5.tif,230,1.5,0,1.81666666666667,3199.074977833,3202.925872,5,NaN,3202.931659958,3202.950400125,3204.760457041,NaN,NaN
101,10,0,familiarity,1,kitchen,kitchen_practice4.tif,229,1.5,0,0.75,3204.778928916,3209.518373083,3,NaN,3209.523981791,3209.542241083,3210.285580416,NaN,NaN
101,1,1,familiarity,0,kitchen,sun_acxkpeoqbwcxfvip.tif,187,1.5,0,0.866666666666667,3215.594589333,3218.697577166,4,NaN,3218.729696416,3218.754054458,3219.614119125,NaN,NaN
101,2,1,familiarity,0,kitchen,sun_aggjlwcdjsjcaemh.tif,196,1.5,0,1.01666666666667,3219.619284041,3222.647526916,6,NaN,3222.663127291,3222.682855333,3223.693022625,NaN,NaN
101,3,1,familiarity,0,kitchen,sun_agorklincwxrdtga.tif,197,1.5,0,1.78333333333333,3223.703660875,3227.55758825,5,NaN,3227.563494375,3227.581815791,3229.358533583,NaN,NaN
101,4,1,familiarity,0,kitchen,sun_aadbddgrdsjugojn.tif,174,1.5,0,1.85,3229.374819833,3232.553634208,5,NaN,3232.58269825,3232.605900083,3234.449285666,NaN,NaN
101,5,1,familiarity,0,kitchen,sun_ahdycvpopffkzzsu.tif,200,1.5,0,1.83333333333333,3234.47148775,3237.758600125,7,NaN,3237.767630208,3237.786228541,3239.61295875,NaN,NaN
101,6,1,familiarity,0,kitchen,sun_ahljzhgcdpomplvg.tif,201,1.5,0,1.56666666666667,3239.634358208,3242.749236625,3,NaN,3242.78005925,3242.803868125,3244.363922541,NaN,NaN
101,7,1,familiarity,0,kitchen,sun_agzzivivdpnawacl.tif,199,1.5,0,1.31666666666667,3244.382493083,3247.629964083,5,NaN,3247.635574416,3247.653808041,3248.963860541,NaN,NaN
101,8,1,familiarity,0,kitchen,sun_ahspylgoovwmwvgk.tif,203,1.5,0,1.75,3248.980212833,3252.81377975,6,NaN,3252.819565458,3252.837631291,3254.581010583,NaN,NaN
101,9,1,familiarity,0,kitchen,sun_azmutvzbxypaceni.tif,220,1.5,0,1.9,3254.599814,3257.5757475,6,NaN,3257.604698875,3257.627629833,3259.520999625,NaN,NaN
101,10,1,familiarity,0,kitchen,sun_agubuxuukhzyzpdp.tif,198,1.5,0,1.76666666666667,3259.539862083,3263.6064105,4,NaN,3263.612272666,3263.630649125,3265.390709166,NaN,NaN
101,11,1,familiarity,0,kitchen,labelme_kxvouciolcpqplr.tif,172,1.5,0,1.05,3265.40921575,3268.798279583,3,NaN,3268.827589208,3268.851268958,3269.894650958,NaN,NaN
101,12,1,familiarity,0,kitchen,labelme_brsyyvweiuaazfr.tif,171,1.5,0,1.58333333333333,3269.904587791,3272.822320458,6,NaN,3272.827871791,3272.846239875,3274.422955416,NaN,NaN
101,13,1,familiarity,0,kitchen,sun_aegoxogugdkwpmpj.tif,190,1.5,0,0.983333333333333,3274.436749041,3277.49381,7,NaN,3277.4995065,3277.517836291,3278.494508875,NaN,NaN
101,14,1,familiarity,0,kitchen,sun_adgqasybjyktddhj.tif,188,1.5,0,0.733333333333333,3278.499290833,3281.630556666,5,NaN,3281.638897666,3281.657273625,3282.383945208,NaN,NaN
101,15,1,familiarity,0,kitchen,sun_akchetnepxlcxhsu.tif,208,1.5,0,1.13333333333333,3282.388845375,3285.549894666,5,NaN,3285.556849291,3285.575115666,3286.701833125,NaN,NaN
101,16,1,familiarity,0,kitchen,sun_acgtpgfybqjmzeyw.tif,185,1.5,0,1.58333333333333,3286.711109583,3289.765638875,6,NaN,3289.771331583,3289.789731125,3291.366454,NaN,NaN
101,17,1,familiarity,0,kitchen,sun_abrcnpqqhmjwekyf.tif,183,1.5,0,0.783333333333333,3291.381748291,3294.717822583,6,NaN,3294.72342525,3294.741764458,3295.518437875,NaN,NaN
101,18,1,familiarity,0,kitchen,sun_aapllqyqlykszopd.tif,176,1.5,0,0.8,3295.52368625,3299.173512583,4,NaN,3299.179302833,3299.197781833,3299.991121416,NaN,NaN
101,19,1,familiarity,0,kitchen,sun_aymvwlarqodbwuoc.tif,218,1.5,0,1.7,3299.995549166,3303.350044875,1,NaN,3303.355564875,3303.373910291,3305.067281666,NaN,NaN
101,20,1,familiarity,0,kitchen,sun_abftihopvusyfakt.tif,181,1.5,0,1.48333333333333,3305.084647708,3309.070059875,4,NaN,3309.075559833,3309.093978625,3310.570696958,NaN,NaN
101,21,1,familiarity,0,kitchen,sun_acwjdupvyjsugpay.tif,186,1.5,0,0.966666666666667,3310.580991458,3313.670079166,6,NaN,3313.67555925,3313.693972916,3314.653978791,NaN,NaN
101,22,1,familiarity,0,kitchen,sun_aexklacwqwezaorf.tif,194,1.5,0,1.28333333333333,3314.658256041,3317.90163925,1,NaN,3317.907265791,3317.925604833,3319.202319541,NaN,NaN
101,23,1,familiarity,0,kitchen,sun_auaiucuqpdausiva.tif,212,1.5,0,0.783333333333333,3319.220956916,3322.31779375,1,NaN,3322.323284666,3322.341537541,3323.118210208,NaN,NaN
101,24,1,familiarity,0,kitchen,sun_aamedkxepzlwuxes.tif,175,1.5,0,1.36666666666667,3323.123391416,3326.877578833,4,NaN,3326.88334475,3326.90169275,3328.261750416,NaN,NaN
101,25,1,familiarity,0,kitchen,labelme_rykdqxenmhulbdn.tif,173,1.5,0,1.45,3328.272624833,3331.605552958,5,NaN,3331.611346583,3331.629613916,3333.0729975,NaN,NaN
101,1,2,familiarity,0,kitchen,sun_ajcbwwvdlsvjyzje.tif,206,1.5,0,1.81666666666667,3337.362624583,3341.133997375,4,NaN,3341.139417625,3341.157745083,3342.968029083,NaN,NaN
101,2,2,familiarity,0,kitchen,sun_aypmqwcualkenuoe.tif,219,1.5,0,0.816666666666667,3342.987491833,3347.357738791,4,NaN,3347.36334325,3347.381727625,3348.191732083,NaN,NaN
101,3,2,familiarity,0,kitchen,sun_ahpczsiumwwocjkv.tif,202,1.5,0,0.9,3348.196072416,3352.0218075,6,NaN,3352.027275416,3352.045579791,3352.938922166,NaN,NaN
101,4,2,familiarity,0,kitchen,sun_acfmftudsenhrfhy.tif,184,1.5,0,0.933333333333333,3352.944055541,3355.966756583,3,NaN,3355.996002208,3356.0192,3356.945873125,NaN,NaN
101,5,2,familiarity,0,kitchen,sun_afuyedyxivkhecmu.tif,195,1.5,0,1.48333333333333,3356.9517065,3359.791468625,2,NaN,3359.817621791,3359.840675291,3361.31740425,NaN,NaN
101,6,2,familiarity,0,kitchen,sun_axyyrmzcupyhlivc.tif,217,1.5,0,1.48333333333333,3361.337980791,3364.685490291,5,NaN,3364.691104375,3364.70942275,3366.186147041,NaN,NaN
101,7,2,familiarity,0,kitchen,sun_aenotlpyftoioydp.tif,192,1.5,0,1.43333333333333,3366.196517166,3369.461551333,5,NaN,3369.467186583,3369.485445625,3370.912148541,NaN,NaN
101,8,2,familiarity,0,kitchen,sun_avszsnwsbuqfgzbn.tif,215,1.5,0,0.733333333333333,3370.9290235,3374.309521708,2,NaN,3374.315142166,3374.333580958,3375.060253916,NaN,NaN
101,9,2,familiarity,0,kitchen,sun_abpwyqmlzafvklqo.tif,182,1.5,0,0.966666666666667,3375.065305333,3378.26924475,5,NaN,3378.275794333,3378.294042333,3379.254048,NaN,NaN
101,10,2,familiarity,0,kitchen,sun_aixorpehvfykdynp.tif,205,1.5,0,0.916666666666667,3379.259451833,3383.165863,5,NaN,3383.171378125,3383.189740875,3384.099746,NaN,NaN
101,11,2,familiarity,0,kitchen,sun_abdxkyyxwfskuaqb.tif,180,1.5,0,1.03333333333333,3384.117369541,3386.909026458,2,NaN,3386.936969416,3386.960331208,3387.987054041,NaN,NaN
101,12,2,familiarity,0,kitchen,sun_abdenxonkemggwsq.tif,179,1.5,0,0.733333333333333,3387.996345916,3391.333665083,4,NaN,3391.339146041,3391.3575825,3392.084254083,NaN,NaN
101,13,2,familiarity,0,kitchen,sun_aehawpgmrlhlvcow.tif,191,1.5,0,1.13333333333333,3392.088463625,3395.541254166,4,NaN,3395.546772208,3395.565077416,3396.691782333,NaN,NaN
101,14,2,familiarity,0,kitchen,sun_ajkqhtgcbgpcwrwn.tif,207,1.5,0,0.883333333333333,3396.702748416,3400.309422958,5,NaN,3400.315349416,3400.333837583,3401.210508,NaN,NaN
101,15,2,familiarity,0,kitchen,sun_aarfiyshqohlwkmo.tif,177,1.5,0,1.85,3401.216757958,3404.445452583,6,NaN,3404.451916,3404.470250458,3406.31364175,NaN,NaN
101,16,2,familiarity,0,kitchen,sun_aeqdocilnnpuvuhx.tif,193,1.5,0,0.733333333333333,3406.332249708,3410.133595958,4,NaN,3410.138999291,3410.157322833,3410.883995333,NaN,NaN
101,17,2,familiarity,0,kitchen,sun_aqeaevwwwjoqhzvl.tif,211,1.5,0,1.95,3410.889227375,3414.309395833,3,NaN,3414.31492125,3414.333416791,3416.2768015,NaN,NaN
101,18,2,familiarity,0,kitchen,sun_auticobqsbwgoppi.tif,214,1.5,0,1.1,3416.294942,3419.348611166,5,NaN,3419.373609083,3419.396725041,3420.490118583,NaN,NaN
101,19,2,familiarity,0,kitchen,sun_aaxxjlsuzvqlgylf.tif,178,1.5,0,1.31666666666667,3420.499548875,3423.756755875,2,NaN,3423.762633875,3423.78097425,3425.09101225,NaN,NaN
101,20,2,familiarity,0,kitchen,sun_amjjdeyrggfqgmom.tif,210,1.5,0,1.78333333333333,3425.10508475,3428.901501916,1,NaN,3428.906964916,3428.92533775,3430.7020525,NaN,NaN
101,21,2,familiarity,0,kitchen,sun_aunzlwrbjumxhwdj.tif,213,1.5,0,1.33333333333333,3430.717324083,3433.688890166,7,NaN,3433.716538791,3433.739597625,3435.066326333,NaN,NaN
101,22,2,familiarity,0,kitchen,sun_awcpdzzznmweyyhv.tif,216,1.5,0,0.95,3435.084837583,3438.133486625,3,NaN,3438.138967583,3438.157393333,3439.100731583,NaN,NaN
101,23,2,familiarity,0,kitchen,sun_akcjzhbbjlbogpdi.tif,209,1.5,0,1.93333333333333,3439.106076458,3442.853370958,4,NaN,3442.859006458,3442.877383541,3444.804100958,NaN,NaN
101,24,2,familiarity,0,kitchen,sun_ahywdevtimnqcsln.tif,204,1.5,0,1.28333333333333,3444.8209805,3448.220970541,4,NaN,3448.226820541,3448.245267,3449.521985375,NaN,NaN
101,25,2,familiarity,0,kitchen,sun_admlmbcdswaszruo.tif,189,1.5,0,1.43333333333333,3449.539981958,3452.836977083,5,NaN,3452.842627041,3452.860960583,3454.287670833,NaN,NaN
