sub_num,trial,block,task,is_practice,category,image,texture,duration,mask_dur,jitter,stim_time,time_of_resp,trial_response,mask_time,fix_time,jit_onset,trial_end,trial_accuracy,RT
124,6,0,familiarity,1,kitchen,kitchen_practice2.tif,227,1.5,0,0.733333333333333,7965.971867292,7970.835258167,2,NaN,7970.841108208,7970.859447792,7971.586125542,NaN,NaN
124,7,0,familiarity,1,kitchen,kitchen_practice3.tif,228,1.5,0,1.3,7971.591636792,7975.6350585,3,NaN,7975.64088475,7975.658995208,7976.952388958,NaN,NaN
124,8,0,familiarity,1,kitchen,kitchen_practice1.tif,226,1.5,0,2,7976.96970625,7979.875623625,1,NaN,7979.881266958,7979.899549042,7981.892968542,NaN,NaN
124,9,0,familiarity,1,kitchen,kitchen_practice5.tif,230,1.5,0,1.81666666666667,7981.90936975,7985.187135375,5,NaN,7985.194962583,7985.213490667,7987.023589125,NaN,NaN
124,10,0,familiarity,1,kitchen,kitchen_practice4.tif,229,1.5,0,0.75,7987.043471625,7990.349746875,4,NaN,7990.373179292,7990.394160125,7991.137502958,NaN,NaN
124,1,1,familiarity,0,kitchen,sun_acxkpeoqbwcxfvip.tif,187,1.5,0,0.866666666666667,7995.913191875,8000.891270083,2,NaN,8000.897589708,8000.916472375,8001.77655,NaN,NaN
124,2,1,familiarity,0,kitchen,sun_aggjlwcdjsjcaemh.tif,196,1.5,0,1.01666666666667,8001.781414083,8005.62757875,6,NaN,8005.633122583,8005.651611042,8006.66184075,NaN,NaN
124,3,1,familiarity,0,kitchen,sun_agorklincwxrdtga.tif,197,1.5,0,1.78333333333333,8006.6697875,8009.763798208,3,NaN,8009.769152667,8009.787499292,8011.564225,NaN,NaN
124,4,1,familiarity,0,kitchen,sun_aadbddgrdsjugojn.tif,174,1.5,0,1.85,8011.582199167,8015.85973825,4,NaN,8015.865133375,8015.883617417,8017.72702975,NaN,NaN
124,5,1,familiarity,0,kitchen,sun_ahdycvpopffkzzsu.tif,200,1.5,0,1.83333333333333,8017.7446635,8021.418845625,6,NaN,8021.424781167,8021.443057708,8023.269816208,NaN,NaN
124,6,1,familiarity,0,kitchen,sun_ahljzhgcdpomplvg.tif,201,1.5,0,1.56666666666667,8023.280103917,8026.49546775,5,NaN,8026.522713625,8026.544001125,8028.104107417,NaN,NaN
124,7,1,familiarity,0,kitchen,sun_agzzivivdpnawacl.tif,199,1.5,0,1.31666666666667,8028.122183417,8033.883522125,3,NaN,8033.88895675,8033.907799333,8035.217894042,NaN,NaN
124,8,1,familiarity,0,kitchen,sun_ahspylgoovwmwvgk.tif,203,1.5,0,1.75,8035.227422125,8041.371351083,7,NaN,8041.377589208,8041.395870417,8043.13926325,NaN,NaN
124,9,1,familiarity,0,kitchen,sun_azmutvzbxypaceni.tif,220,1.5,0,1.9,8043.160110417,8047.34748875,4,NaN,8047.353005958,8047.371347417,8049.264739792,NaN,NaN
124,10,1,familiarity,0,kitchen,sun_agubuxuukhzyzpdp.tif,198,1.5,0,1.76666666666667,8049.275700667,8053.2987835,2,NaN,8053.304729833,8053.323200583,8055.083303375,NaN,NaN
124,11,1,familiarity,0,kitchen,labelme_kxvouciolcpqplr.tif,172,1.5,0,1.05,8055.101848667,8058.7950075,3,NaN,8058.800945083,8058.819302083,8059.862721875,NaN,NaN
124,12,1,familiarity,0,kitchen,labelme_brsyyvweiuaazfr.tif,171,1.5,0,1.58333333333333,8059.872195625,8063.77931875,4,NaN,8063.7846925,8063.802968792,8065.3796975,NaN,NaN
124,13,1,familiarity,0,kitchen,sun_aegoxogugdkwpmpj.tif,190,1.5,0,0.983333333333333,8065.396967375,8070.563101333,5,NaN,8070.568720625,8070.587093125,8071.563766583,NaN,NaN
124,14,1,familiarity,0,kitchen,sun_adgqasybjyktddhj.tif,188,1.5,0,0.733333333333333,8071.568204917,8075.235480292,7,NaN,8075.241059583,8075.259333042,8075.986009792,NaN,NaN
124,15,1,familiarity,0,kitchen,sun_akchetnepxlcxhsu.tif,208,1.5,0,1.13333333333333,8075.990727375,8079.682580042,5,NaN,8079.688554417,8079.7068715,8080.83361825,NaN,NaN
124,16,1,familiarity,0,kitchen,sun_acgtpgfybqjmzeyw.tif,185,1.5,0,1.58333333333333,8080.841656375,8085.882529708,4,NaN,8085.888514167,8085.906792375,8087.483565,NaN,NaN
124,17,1,familiarity,0,kitchen,sun_abrcnpqqhmjwekyf.tif,183,1.5,0,0.783333333333333,8087.502699458,8092.114530667,4,NaN,8092.120342333,8092.13880675,8092.915482417,NaN,NaN
124,18,1,familiarity,0,kitchen,sun_aapllqyqlykszopd.tif,176,1.5,0,0.8,8092.919989375,8096.882509833,3,NaN,8096.88839625,8096.906826375,8097.700168167,NaN,NaN
124,19,1,familiarity,0,kitchen,sun_aymvwlarqodbwuoc.tif,218,1.5,0,1.7,8097.7044095,8101.042581917,1,NaN,8101.04879075,8101.067135292,8102.760576292,NaN,NaN
124,20,1,familiarity,0,kitchen,sun_abftihopvusyfakt.tif,181,1.5,0,1.48333333333333,8102.777537833,8105.979730958,2,NaN,8106.008964542,8106.032490333,8107.50925125,NaN,NaN
124,21,1,familiarity,0,kitchen,sun_acwjdupvyjsugpay.tif,186,1.5,0,0.966666666666667,8107.529219417,8110.570449458,6,NaN,8110.57629075,8110.594688792,8111.554694625,NaN,NaN
124,22,1,familiarity,0,kitchen,sun_aexklacwqwezaorf.tif,194,1.5,0,1.28333333333333,8111.558888833,8116.299291542,2,NaN,8116.30581425,8116.324555083,8117.601327833,NaN,NaN
124,23,1,familiarity,0,kitchen,sun_auaiucuqpdausiva.tif,212,1.5,0,0.783333333333333,8117.620244208,8121.130935792,3,NaN,8121.13655825,8121.154947667,8121.931623667,NaN,NaN
124,24,1,familiarity,0,kitchen,sun_aamedkxepzlwuxes.tif,175,1.5,0,1.36666666666667,8121.936055,8124.571007833,5,NaN,8124.599406625,8124.622937417,8125.983026542,NaN,NaN
124,25,1,familiarity,0,kitchen,labelme_rykdqxenmhulbdn.tif,173,1.5,0,1.45,8126.001569917,8129.706588458,4,NaN,8129.712438917,8129.730786542,8131.174190333,NaN,NaN
124,1,2,familiarity,0,kitchen,sun_ajcbwwvdlsvjyzje.tif,206,1.5,0,1.81666666666667,8139.519233,8143.098462833,5,NaN,8143.104361125,8143.122939292,8144.933217625,NaN,NaN
124,2,2,familiarity,0,kitchen,sun_aypmqwcualkenuoe.tif,219,1.5,0,0.816666666666667,8144.952410917,8147.833810708,1,NaN,8147.863016042,8147.886258583,8148.696265417,NaN,NaN
124,3,2,familiarity,0,kitchen,sun_ahpczsiumwwocjkv.tif,202,1.5,0,0.9,8148.701132667,8151.535210208,2,NaN,8151.564378167,8151.587477833,8152.4808195,NaN,NaN
124,4,2,familiarity,0,kitchen,sun_acfmftudsenhrfhy.tif,184,1.5,0,0.933333333333333,8152.485446458,8155.467419958,5,NaN,8155.496312125,8155.519876833,8156.446552917,NaN,NaN
124,5,2,familiarity,0,kitchen,sun_afuyedyxivkhecmu.tif,195,1.5,0,1.48333333333333,8156.451298667,8159.939130208,3,NaN,8159.944504458,8159.96278875,8161.439519292,NaN,NaN
124,6,2,familiarity,0,kitchen,sun_axyyrmzcupyhlivc.tif,217,1.5,0,1.48333333333333,8161.457655917,8164.922715625,6,NaN,8164.928362958,8164.946656417,8166.4234285,NaN,NaN
124,7,2,familiarity,0,kitchen,sun_aenotlpyftoioydp.tif,192,1.5,0,1.43333333333333,8166.443082,8169.66688275,3,NaN,8169.672392667,8169.690851083,8171.117626625,NaN,NaN
124,8,2,familiarity,0,kitchen,sun_avszsnwsbuqfgzbn.tif,215,1.5,0,0.733333333333333,8171.1340215,8174.002635125,2,NaN,8174.008297,8174.026671292,8174.753346583,NaN,NaN
124,9,2,familiarity,0,kitchen,sun_abpwyqmlzafvklqo.tif,182,1.5,0,0.966666666666667,8174.757739458,8178.339088792,2,NaN,8178.344493833,8178.362790542,8179.322797458,NaN,NaN
124,10,2,familiarity,0,kitchen,sun_aixorpehvfykdynp.tif,205,1.5,0,0.916666666666667,8179.327850208,8182.306936042,5,NaN,8182.329064583,8182.350342125,8183.260350625,NaN,NaN
124,11,2,familiarity,0,kitchen,sun_abdxkyyxwfskuaqb.tif,180,1.5,0,1.03333333333333,8183.264927042,8186.259552792,3,NaN,8186.284548292,8186.308171292,8187.334937625,NaN,NaN
124,12,2,familiarity,0,kitchen,sun_abdenxonkemggwsq.tif,179,1.5,0,0.733333333333333,8187.343081958,8190.555506167,2,NaN,8190.561491542,8190.579780167,8191.306454792,NaN,NaN
124,13,2,familiarity,0,kitchen,sun_aehawpgmrlhlvcow.tif,191,1.5,0,1.13333333333333,8191.310866875,8194.89086325,2,NaN,8194.89640325,8194.914646333,8196.041407542,NaN,NaN
124,14,2,familiarity,0,kitchen,sun_ajkqhtgcbgpcwrwn.tif,207,1.5,0,0.883333333333333,8196.049980417,8199.62698125,3,NaN,8199.632498375,8199.650826792,8200.527504375,NaN,NaN
124,15,2,familiarity,0,kitchen,sun_aarfiyshqohlwkmo.tif,177,1.5,0,1.85,8200.5319345,8206.106187167,2,NaN,8206.11235075,8206.130686042,8207.974116083,NaN,NaN
124,16,2,familiarity,0,kitchen,sun_aeqdocilnnpuvuhx.tif,193,1.5,0,0.733333333333333,8207.993208333,8210.876018792,1,NaN,8210.905265083,8210.928412958,8211.65509,NaN,NaN
124,17,2,familiarity,0,kitchen,sun_aqeaevwwwjoqhzvl.tif,211,1.5,0,1.95,8211.660151917,8214.688021125,1,NaN,8214.715249667,8214.73890475,8216.682294167,NaN,NaN
124,18,2,familiarity,0,kitchen,sun_auticobqsbwgoppi.tif,214,1.5,0,1.1,8216.697186833,8220.40260075,4,NaN,8220.408151875,8220.426492,8221.519885292,NaN,NaN
124,19,2,familiarity,0,kitchen,sun_aaxxjlsuzvqlgylf.tif,178,1.5,0,1.31666666666667,8221.530021958,8225.010113208,2,NaN,8225.016140708,8225.034405083,8226.344471458,NaN,NaN
124,20,2,familiarity,0,kitchen,sun_amjjdeyrggfqgmom.tif,210,1.5,0,1.78333333333333,8226.364691333,8229.314423167,1,NaN,8229.320086375,8229.338421333,8231.1151945,NaN,NaN
124,21,2,familiarity,0,kitchen,sun_aunzlwrbjumxhwdj.tif,213,1.5,0,1.33333333333333,8231.133445125,8237.714419292,2,NaN,8237.721126292,8237.739511167,8239.066280542,NaN,NaN
124,22,2,familiarity,0,kitchen,sun_awcpdzzznmweyyhv.tif,216,1.5,0,0.95,8239.084691833,8242.954686292,5,NaN,8242.9604535,8242.978760042,8243.922104292,NaN,NaN
124,23,2,familiarity,0,kitchen,sun_akcjzhbbjlbogpdi.tif,209,1.5,0,1.93333333333333,8243.926585417,8250.474994417,3,NaN,8250.481131917,8250.499519125,8252.426269625,NaN,NaN
124,24,2,familiarity,0,kitchen,sun_ahywdevtimnqcsln.tif,204,1.5,0,1.28333333333333,8252.444549042,8258.42653475,4,NaN,8258.432192667,8258.450521083,8259.72727325,NaN,NaN
124,25,2,familiarity,0,kitchen,sun_admlmbcdswaszruo.tif,189,1.5,0,1.43333333333333,8259.7453485,8262.385942625,6,NaN,8262.391774625,8262.410010583,8263.836787417,NaN,NaN
