sub_num,trial,block,task,is_practice,category,image,texture,duration,mask_dur,jitter,stim_time,time_of_resp,trial_response,mask_time,fix_time,jit_onset,trial_end,trial_accuracy,RT
102,6,0,familiarity,1,kitchen,kitchen_practice2.tif,227,1.5,0,0.733333333333333,20513.144539416,20517.074200916,5,NaN,20517.080105708,20517.09844075,20517.825114291,NaN,NaN
102,7,0,familiarity,1,kitchen,kitchen_practice3.tif,228,1.5,0,1.3,20517.82936525,20521.874251916,1,NaN,20521.879852833,20521.898141708,20523.191547875,NaN,NaN
102,8,0,familiarity,1,kitchen,kitchen_practice1.tif,226,1.5,0,2,20523.209016625,20525.978057958,1,NaN,20525.983632291,20526.00212425,20527.995517875,NaN,NaN
102,9,0,familiarity,1,kitchen,kitchen_practice5.tif,230,1.5,0,1.81666666666667,20528.013729166,20532.905495791,4,NaN,20532.911533875,20532.929903625,20534.739972166,NaN,NaN
102,10,0,familiarity,1,kitchen,kitchen_practice4.tif,229,1.5,0,0.75,20534.760867875,20537.989373208,5,NaN,20538.019664875,20538.043109208,20538.786452583,NaN,NaN
102,1,1,familiarity,0,kitchen,sun_acxkpeoqbwcxfvip.tif,187,1.5,0,0.866666666666667,20543.367133041,20546.82559525,3,NaN,20546.8322505,20546.85119125,20547.711268625,NaN,NaN
102,2,1,familiarity,0,kitchen,sun_aggjlwcdjsjcaemh.tif,196,1.5,0,1.01666666666667,20547.716359375,20553.218056041,5,NaN,20553.22385075,20553.242301291,20554.252550125,NaN,NaN
102,3,1,familiarity,0,kitchen,sun_agorklincwxrdtga.tif,197,1.5,0,1.78333333333333,20554.261978791,20557.70582125,2,NaN,20557.711794625,20557.730166875,20559.506924708,NaN,NaN
102,4,1,familiarity,0,kitchen,sun_aadbddgrdsjugojn.tif,174,1.5,0,1.85,20559.527365166,20563.025920875,3,NaN,20563.031660666,20563.050628666,20564.894044125,NaN,NaN
102,5,1,familiarity,0,kitchen,sun_ahdycvpopffkzzsu.tif,200,1.5,0,1.83333333333333,20564.912231833,20567.691024166,6,NaN,20567.72010925,20567.743516291,20569.570242916,NaN,NaN
102,6,1,familiarity,0,kitchen,sun_ahljzhgcdpomplvg.tif,201,1.5,0,1.56666666666667,20569.588654083,20572.571379583,7,NaN,20572.600916791,20572.624137041,20574.184226666,NaN,NaN
102,7,1,familiarity,0,kitchen,sun_agzzivivdpnawacl.tif,199,1.5,0,1.31666666666667,20574.204106875,20577.378211875,4,NaN,20577.3839065,20577.402133833,20578.712236333,NaN,NaN
102,8,1,familiarity,0,kitchen,sun_ahspylgoovwmwvgk.tif,203,1.5,0,1.75,20578.730982458,20581.705244416,6,NaN,20581.711154791,20581.729493083,20583.472905583,NaN,NaN
102,9,1,familiarity,0,kitchen,sun_azmutvzbxypaceni.tif,220,1.5,0,1.9,20583.490443458,20586.969925708,7,NaN,20586.975715333,20586.994183916,20588.887614125,NaN,NaN
102,10,1,familiarity,0,kitchen,sun_agubuxuukhzyzpdp.tif,198,1.5,0,1.76666666666667,20588.905299833,20593.77729925,3,NaN,20593.783321166,20593.801581333,20595.561677,NaN,NaN
102,11,1,familiarity,0,kitchen,labelme_kxvouciolcpqplr.tif,172,1.5,0,1.05,20595.578959166,20598.694231708,6,NaN,20598.724057375,20598.7478385,20599.791250708,NaN,NaN
102,12,1,familiarity,0,kitchen,labelme_brsyyvweiuaazfr.tif,171,1.5,0,1.58333333333333,20599.803402458,20603.43318,4,NaN,20603.439093208,20603.457478958,20605.03424775,NaN,NaN
102,13,1,familiarity,0,kitchen,sun_aegoxogugdkwpmpj.tif,190,1.5,0,0.983333333333333,20605.054113166,20609.218049041,4,NaN,20609.223574208,20609.242065,20610.218739,NaN,NaN
102,14,1,familiarity,0,kitchen,sun_adgqasybjyktddhj.tif,188,1.5,0,0.733333333333333,20610.223437125,20613.449676916,7,NaN,20613.456324458,20613.474818958,20614.201493666,NaN,NaN
102,15,1,familiarity,0,kitchen,sun_akchetnepxlcxhsu.tif,208,1.5,0,1.13333333333333,20614.20613,20617.657599041,7,NaN,20617.664332958,20617.682801958,20618.809561583,NaN,NaN
102,16,1,familiarity,0,kitchen,sun_acgtpgfybqjmzeyw.tif,185,1.5,0,1.58333333333333,20618.818991541,20621.769844958,7,NaN,20621.775469541,20621.793858958,20623.370581083,NaN,NaN
102,17,1,familiarity,0,kitchen,sun_abrcnpqqhmjwekyf.tif,183,1.5,0,0.783333333333333,20623.389330875,20626.633032041,6,NaN,20626.638916208,20626.657326083,20627.433999666,NaN,NaN
102,18,1,familiarity,0,kitchen,sun_aapllqyqlykszopd.tif,176,1.5,0,0.8,20627.449676125,20630.544987541,6,NaN,20630.555853166,20630.574961416,20631.368301375,NaN,NaN
102,19,1,familiarity,0,kitchen,sun_aymvwlarqodbwuoc.tif,218,1.5,0,1.7,20631.372865875,20635.009023916,3,NaN,20635.015085458,20635.033637,20636.727061125,NaN,NaN
102,20,1,familiarity,0,kitchen,sun_abftihopvusyfakt.tif,181,1.5,0,1.48333333333333,20636.745700208,20639.668912666,2,NaN,20639.698169,20639.72099025,20641.197722583,NaN,NaN
102,21,1,familiarity,0,kitchen,sun_acwjdupvyjsugpay.tif,186,1.5,0,0.966666666666667,20641.215786458,20644.201713458,7,NaN,20644.207388708,20644.225675708,20645.185683666,NaN,NaN
102,22,1,familiarity,0,kitchen,sun_aexklacwqwezaorf.tif,194,1.5,0,1.28333333333333,20645.190273791,20649.193629833,3,NaN,20649.1996055,20649.217934291,20650.494676625,NaN,NaN
102,23,1,familiarity,0,kitchen,sun_auaiucuqpdausiva.tif,212,1.5,0,0.783333333333333,20650.51202275,20653.489553625,4,NaN,20653.4953495,20653.513649916,20654.290323625,NaN,NaN
102,24,1,familiarity,0,kitchen,sun_aamedkxepzlwuxes.tif,175,1.5,0,1.36666666666667,20654.294644916,20657.234754541,6,NaN,20657.263954416,20657.287239166,20658.647326625,NaN,NaN
102,25,1,familiarity,0,kitchen,labelme_rykdqxenmhulbdn.tif,173,1.5,0,1.45,20658.667545,20661.345824875,6,NaN,20661.35142475,20661.369769291,20662.813174083,NaN,NaN
102,1,2,familiarity,0,kitchen,sun_ajcbwwvdlsvjyzje.tif,206,1.5,0,1.81666666666667,20667.727986,20670.937325625,5,NaN,20670.944059083,20670.962420833,20672.772476375,NaN,NaN
102,2,2,familiarity,0,kitchen,sun_aypmqwcualkenuoe.tif,219,1.5,0,0.816666666666667,20672.790811541,20678.305110291,2,NaN,20678.311012125,20678.329407708,20679.139415916,NaN,NaN
102,3,2,familiarity,0,kitchen,sun_ahpczsiumwwocjkv.tif,202,1.5,0,0.9,20679.143715083,20682.809522208,3,NaN,20682.815161416,20682.833627416,20683.726968458,NaN,NaN
102,4,2,familiarity,0,kitchen,sun_acfmftudsenhrfhy.tif,184,1.5,0,0.933333333333333,20683.731496958,20687.641475375,5,NaN,20687.647139416,20687.665658541,20688.592333833,NaN,NaN
102,5,2,familiarity,0,kitchen,sun_afuyedyxivkhecmu.tif,195,1.5,0,1.48333333333333,20688.597036083,20691.809718708,2,NaN,20691.816458916,20691.834763875,20693.311525791,NaN,NaN
102,6,2,familiarity,0,kitchen,sun_axyyrmzcupyhlivc.tif,217,1.5,0,1.48333333333333,20693.335232583,20697.945341791,5,NaN,20697.951212625,20697.969567166,20699.446294458,NaN,NaN
102,7,2,familiarity,0,kitchen,sun_aenotlpyftoioydp.tif,192,1.5,0,1.43333333333333,20699.461786541,20702.441038166,3,NaN,20702.446920458,20702.465311083,20703.892077,NaN,NaN
102,8,2,familiarity,0,kitchen,sun_avszsnwsbuqfgzbn.tif,215,1.5,0,0.733333333333333,20703.911160625,20707.168689625,5,NaN,20707.174917208,20707.193252916,20707.919926458,NaN,NaN
102,9,2,familiarity,0,kitchen,sun_abpwyqmlzafvklqo.tif,182,1.5,0,0.966666666666667,20707.932619958,20710.554867,7,NaN,20710.585817458,20710.609956083,20711.569966666,NaN,NaN
102,10,2,familiarity,0,kitchen,sun_aixorpehvfykdynp.tif,205,1.5,0,0.916666666666667,20711.582607541,20716.561401458,4,NaN,20716.567387916,20716.5859395,20717.495950375,NaN,NaN
102,11,2,familiarity,0,kitchen,sun_abdxkyyxwfskuaqb.tif,180,1.5,0,1.03333333333333,20717.501425791,20720.492616166,3,NaN,20720.52224775,20720.543489791,20721.570254666,NaN,NaN
102,12,2,familiarity,0,kitchen,sun_abdenxonkemggwsq.tif,179,1.5,0,0.733333333333333,20721.581094333,20724.233345541,2,NaN,20724.23897025,20724.257278458,20724.983954,NaN,NaN
102,13,2,familiarity,0,kitchen,sun_aehawpgmrlhlvcow.tif,191,1.5,0,1.13333333333333,20724.99922875,20727.605585333,4,NaN,20727.635590666,20727.659310125,20728.786057833,NaN,NaN
102,14,2,familiarity,0,kitchen,sun_ajkqhtgcbgpcwrwn.tif,207,1.5,0,0.883333333333333,20728.796226541,20731.889487958,6,NaN,20731.894962875,20731.913283166,20732.789957,NaN,NaN
102,15,2,familiarity,0,kitchen,sun_aarfiyshqohlwkmo.tif,177,1.5,0,1.85,20732.79424175,20736.945424416,3,NaN,20736.951757291,20736.970027125,20738.8134465,NaN,NaN
102,16,2,familiarity,0,kitchen,sun_aeqdocilnnpuvuhx.tif,193,1.5,0,0.733333333333333,20738.833273875,20741.957002958,1,NaN,20741.986841416,20742.010524458,20742.737201416,NaN,NaN
102,17,2,familiarity,0,kitchen,sun_aqeaevwwwjoqhzvl.tif,211,1.5,0,1.95,20742.741892458,20745.449650583,1,NaN,20745.4783885,20745.502124041,20747.4455445,NaN,NaN
102,18,2,familiarity,0,kitchen,sun_auticobqsbwgoppi.tif,214,1.5,0,1.1,20747.465614708,20750.393398708,7,NaN,20750.423317875,20750.446883916,20751.540309458,NaN,NaN
102,19,2,familiarity,0,kitchen,sun_aaxxjlsuzvqlgylf.tif,178,1.5,0,1.31666666666667,20751.55092775,20754.433361416,6,NaN,20754.438918958,20754.457182041,20755.767260291,NaN,NaN
102,20,2,familiarity,0,kitchen,sun_amjjdeyrggfqgmom.tif,210,1.5,0,1.78333333333333,20755.7865115,20758.817468875,1,NaN,20758.823054416,20758.841339833,20760.618087833,NaN,NaN
102,21,2,familiarity,0,kitchen,sun_aunzlwrbjumxhwdj.tif,213,1.5,0,1.33333333333333,20760.638139375,20763.844836708,2,NaN,20763.869538166,20763.893144166,20765.219873625,NaN,NaN
102,22,2,familiarity,0,kitchen,sun_awcpdzzznmweyyhv.tif,216,1.5,0,0.95,20765.239209208,20769.120919916,5,NaN,20769.126622833,20769.145030666,20770.08837025,NaN,NaN
102,23,2,familiarity,0,kitchen,sun_akcjzhbbjlbogpdi.tif,209,1.5,0,1.93333333333333,20770.092842875,20774.424456583,6,NaN,20774.43066675,20774.449560333,20776.376308041,NaN,NaN
102,24,2,familiarity,0,kitchen,sun_ahywdevtimnqcsln.tif,204,1.5,0,1.28333333333333,20776.395672041,20779.881198875,6,NaN,20779.886650416,20779.905037541,20781.181776708,NaN,NaN
102,25,2,familiarity,0,kitchen,sun_admlmbcdswaszruo.tif,189,1.5,0,1.43333333333333,20781.200744458,20784.249355625,7,NaN,20784.255031958,20784.273410166,20785.700157458,NaN,NaN
