sub_num,trial,block,task,is_practice,category,image,texture,duration,mask_dur,jitter,stim_time,time_of_resp,trial_response,mask_time,fix_time,jit_onset,trial_end,trial_accuracy,RT
105,1,1,categorization,0,bathroom,SHINEd_sun_acgyywnybuveqsro.tif,18,0.0666666666666667,0.0666666666666667,1.23333333333333,6755.238394458,6769.006737208,9,6755.301158416,6755.361187166,6769.030708791,6770.257416083,0,13.7683427500006
105,2,1,categorization,0,kitchen,SHINEd_sun_admlmbcdswaszruo.tif,79,0.0666666666666667,0.0666666666666667,0.783333333333333,6770.276246791,6771.66705625,13,6770.343128166,6770.409753,6771.686185916,6772.462857291,0,1.39080945900059
105,3,1,categorization,0,kitchen,SHINEd_sun_aypmqwcualkenuoe.tif,109,0.0666666666666667,0.0666666666666667,0.75,6772.468532583,6773.286813041,9,6772.530396666,6772.591336208,6773.293138791,6774.036476,1,0.818280458000118
105,4,1,categorization,0,bathroom,SHINEd_sun_acduarbnmmoglmiv.tif,16,0.0666666666666667,0.0666666666666667,1.23333333333333,6774.041448375,6774.830520791,13,6774.103247208,6774.164269375,6774.849407083,6776.0761195,1,0.789072415999726
105,5,1,categorization,0,bathroom,SHINEd_sun_agrwbmhcpmfuwmsg.tif,24,0.0666666666666667,0.0666666666666667,1.13333333333333,6776.094101208,6776.848232833,13,6776.160805625,6776.227325791,6776.866860041,6777.993540041,1,0.7541316249999
105,6,1,categorization,0,bathroom,SHINEd_labelme_sfxiulhjbhlyiyt.tif,11,0.0666666666666667,0.0666666666666667,0.95,6777.999760708,6778.6065865,13,6778.061592625,6778.122497791,6778.624416041,6779.567754208,1,0.606825791999654
105,7,1,categorization,0,bathroom,SHINEd_sun_avhrdrntsqrjzccq.tif,55,0.0666666666666667,0.0666666666666667,0.733333333333333,6779.572791583,6780.47897875,13,6779.634640375,6779.695505458,6780.497398666,6781.22406875,1,0.906187167000098
105,8,1,categorization,0,bathroom,SHINEd_sun_azqyogdvyhahyram.tif,60,0.0666666666666667,0.0666666666666667,1.31666666666667,6781.228968875,6781.998901666,13,6781.290733708,6781.35170075,6782.003413916,6783.313472916,1,0.769932791000429
105,9,1,categorization,0,kitchen,SHINEd_labelme_kxvouciolcpqplr.tif,62,0.0666666666666667,0.0666666666666667,0.8,6783.331061541,6784.209010333,13,6783.397564541,6783.463779333,6784.236776541,6785.030161208,0,0.877948792000097
105,10,1,categorization,0,kitchen,SHINEd_sun_aehawpgmrlhlvcow.tif,81,0.0666666666666667,0.0666666666666667,0.716666666666667,6785.040101666,6786.062564875,13,6785.10261175,6785.162809166,6786.081274041,6786.791279083,0,1.02246320900031
105,11,1,categorization,0,kitchen,SHINEd_sun_abdenxonkemggwsq.tif,69,0.0666666666666667,0.0666666666666667,0.916666666666667,6786.796084208,6787.615107333,13,6786.857828625,6786.918757416,6787.620637916,6788.530642166,0,0.819023125000058
105,12,1,categorization,0,kitchen,SHINEd_sun_aenotlpyftoioydp.tif,82,0.0666666666666667,0.0666666666666667,0.95,6788.537305416,6789.406496708,13,6788.599148791,6788.660037666,6789.411936583,6790.355274041,0,0.869191292000323
105,13,1,categorization,0,kitchen,SHINEd_sun_afuyedyxivkhecmu.tif,85,0.0666666666666667,0.0666666666666667,0.833333333333333,6790.36015025,6791.582752041,13,6790.42191325,6790.482872333,6791.60207525,6792.428746416,0,1.22260179100067
105,14,1,categorization,0,bathroom,SHINEd_sun_abapwbhyhkfixyex.tif,14,0.0666666666666667,0.0666666666666667,0.75,6792.433379166,6794.455122583,13,6792.495082416,6792.556105125,6794.475065541,6795.218404,1,2.02174341699993
105,15,1,categorization,0,bathroom,SHINEd_sun_alkosphxlxwjwgjd.tif,34,0.0666666666666667,0.0666666666666667,1.53333333333333,6795.223246875,6796.72711325,13,6795.2850395,6795.345979625,6796.731532375,6798.25824675,1,1.50386637500014
105,16,1,categorization,0,bathroom,SHINEd_sun_axxbkopsgyouuebh.tif,58,0.0666666666666667,0.0666666666666667,1.05,6798.278008666,6799.578620708,13,6798.344885958,6798.410731541,6799.603283416,6800.646651041,1,1.30061204200047
105,17,1,categorization,0,bathroom,SHINEd_sun_aljolscmmzydegqp.tif,33,0.0666666666666667,0.0666666666666667,0.9,6800.659188,6801.7539785,13,6800.723653208,6800.790361708,6801.778618916,6802.671961791,1,1.09479050000027
105,18,1,categorization,0,bathroom,SHINEd_sun_aleqenyvunhactkl.tif,32,0.0666666666666667,0.0666666666666667,1.18333333333333,6802.677878791,6803.838377958,13,6802.739679666,6802.800488875,6803.852721208,6805.02944625,1,1.16049916700013
105,19,1,categorization,0,bathroom,SHINEd_sun_aspsyogrekjtfozg.tif,50,0.0666666666666667,0.0666666666666667,0.9,6805.039565333,6806.320479958,13,6805.10587725,6805.172312625,6806.348303625,6807.241642416,1,1.28091462500015
105,20,1,categorization,0,kitchen,SHINEd_sun_aymvwlarqodbwuoc.tif,108,0.0666666666666667,0.0666666666666667,1.66666666666667,6807.246535833,6808.582787125,13,6807.308329041,6807.369306708,6808.588149375,6810.248197291,0,1.33625129200027
105,21,1,categorization,0,bathroom,SHINEd_sun_auzqhkafidnkrwmo.tif,54,0.0666666666666667,0.0666666666666667,1.13333333333333,6810.266776916,6811.279317041,13,6810.333614291,6810.399550916,6811.306121125,6812.432846041,1,1.01254012499976
105,22,1,categorization,0,kitchen,SHINEd_sun_aeqdocilnnpuvuhx.tif,83,0.0666666666666667,0.0666666666666667,1.3,6812.442187833,6813.394291958,13,6812.507141666,6812.574886541,6813.414665208,6814.708038458,0,0.952104125000005
105,23,1,categorization,0,kitchen,SHINEd_sun_aunzlwrbjumxhwdj.tif,103,0.0666666666666667,0.0666666666666667,1.93333333333333,6814.725231916,6815.920428833,13,6814.791996666,6814.858039333,6815.947927541,6817.874631708,0,1.19519691700043
105,24,1,categorization,0,bathroom,SHINEd_sun_anhioqovhscjqqwb.tif,38,0.0666666666666667,0.0666666666666667,1,6817.892596416,6819.030105958,13,6817.959339916,6818.025381875,6819.044527625,6820.037865791,1,1.13750954199986
105,25,1,categorization,0,kitchen,SHINEd_sun_aaxxjlsuzvqlgylf.tif,68,0.0666666666666667,0.0666666666666667,0.883333333333333,6820.042590333,6821.350340791,13,6820.10435225,6820.165313166,6821.367560833,6822.244233375,0,1.30775045800056
105,26,1,categorization,0,bathroom,SHINEd_sun_agguqiubmwhqqunb.tif,22,0.0666666666666667,0.0666666666666667,1.95,6822.248792541,6823.710418458,13,6822.310569708,6822.371437916,6823.723541375,6825.666909583,1,1.46162591700067
105,27,1,categorization,0,kitchen,SHINEd_sun_aarfiyshqohlwkmo.tif,67,0.0666666666666667,0.0666666666666667,1.25,6825.685316208,6826.737014,13,6825.750168708,6825.817946583,6826.757534541,6828.000916541,0,1.0516977920006
105,28,1,categorization,0,kitchen,SHINEd_sun_ajkqhtgcbgpcwrwn.tif,97,0.0666666666666667,0.0666666666666667,1.95,6828.018441791,6829.404415,13,6828.084731833,6828.1515945,6829.426213375,6831.369607708,0,1.38597320899953
105,29,1,categorization,0,bathroom,SHINEd_sun_acegryoqftbzowsg.tif,17,0.0666666666666667,0.0666666666666667,1.91666666666667,6831.389853666,6832.774368041,13,6831.456673875,6831.522529958,6832.791754458,6834.701803125,1,1.38451437500044
105,30,1,categorization,0,kitchen,SHINEd_sun_abrcnpqqhmjwekyf.tif,73,0.0666666666666667,0.0666666666666667,1.41666666666667,6834.718979916,6835.919233458,13,6834.785704166,6834.8529415,6835.938975708,6837.349012041,0,1.20025354200061
105,31,1,categorization,0,kitchen,SHINEd_sun_amjjdeyrggfqgmom.tif,100,0.0666666666666667,0.0666666666666667,0.716666666666667,6837.366203625,6838.477747916,9,6837.43452975,6837.498847,6838.505188708,6839.21519525,1,1.11154429100043
105,32,1,categorization,0,kitchen,SHINEd_sun_ahljzhgcdpomplvg.tif,91,0.0666666666666667,0.0666666666666667,1.28333333333333,6839.220605625,6841.038142625,13,6839.282432375,6839.343375541,6841.04592725,6842.322649583,0,1.8175369999999
105,33,1,categorization,0,bathroom,SHINEd_sun_alotolagknyrgtsk.tif,35,0.0666666666666667,0.0666666666666667,0.9,6842.340070791,6843.55238875,13,6842.407099958,6842.473316375,6843.57963175,6844.472969583,1,1.21231795900076
105,34,1,categorization,0,bathroom,SHINEd_sun_anryaplzeujmzfkd.tif,39,0.0666666666666667,0.0666666666666667,0.8,6844.477645916,6845.534718333,13,6844.539367416,6844.600680416,6845.552759916,6846.346096208,1,1.05707241699929
105,35,1,categorization,0,bathroom,SHINEd_sun_aapitsgbtktqubfy.tif,12,0.0666666666666667,0.0666666666666667,1.01666666666667,6846.350986208,6847.366847125,13,6846.412799,6846.473722791,6847.375387458,6848.385438791,1,1.01586091700028
105,36,1,categorization,0,bathroom,SHINEd_sun_aghyqhbptboemmoq.tif,23,0.0666666666666667,0.0666666666666667,0.85,6848.395611041,6850.005867625,13,6848.460108291,6848.527104208,6850.035186958,6850.878525458,1,1.61025658400013
105,37,1,categorization,0,kitchen,SHINEd_sun_agorklincwxrdtga.tif,87,0.0666666666666667,0.0666666666666667,1.51666666666667,6850.883480333,6852.126468041,13,6850.945228916,6851.00620925,6852.141667375,6853.65170875,0,1.24298770800033
105,38,1,categorization,0,bathroom,SHINEd_sun_ajlawzvmubibwbpy.tif,30,0.0666666666666667,0.0666666666666667,1.83333333333333,6853.670088875,6854.958859791,13,6853.7348415,6853.802503583,6854.978043416,6856.804756041,1,1.28877091599952
105,39,1,categorization,0,kitchen,SHINEd_sun_aexklacwqwezaorf.tif,84,0.0666666666666667,0.0666666666666667,0.716666666666667,6856.823771541,6858.057898166,13,6856.890524208,6856.956617666,6858.077125041,6858.787128291,0,1.2341266250005
105,40,1,categorization,0,kitchen,SHINEd_sun_adgqasybjyktddhj.tif,78,0.0666666666666667,0.0666666666666667,0.9,6858.791704833,6859.423020708,13,6858.853516083,6858.9144185,6859.432844541,6860.326182958,0,0.631315874999927
105,41,1,categorization,0,kitchen,SHINEd_labelme_rykdqxenmhulbdn.tif,63,0.0666666666666667,0.0666666666666667,0.916666666666667,6860.331105458,6861.182808125,13,6860.392801208,6860.453830583,6861.188934666,6862.098940541,0,0.851702666999699
105,42,1,categorization,0,kitchen,SHINEd_sun_ahdycvpopffkzzsu.tif,90,0.0666666666666667,0.0666666666666667,0.816666666666667,6862.103923916,6863.246474166,13,6862.165570416,6862.226584125,6863.261763583,6864.071767791,0,1.14255024999966
105,43,1,categorization,0,kitchen,SHINEd_sun_agzzivivdpnawacl.tif,89,0.0666666666666667,0.0666666666666667,1.88333333333333,6864.076383041,6865.990164375,13,6864.13810625,6864.198989375,6866.001219291,6867.877938958,0,1.9137813340003
105,44,1,categorization,0,bathroom,SHINEd_sun_aclfzgynxzxlbepz.tif,19,0.0666666666666667,0.0666666666666667,0.9,6867.895204625,6869.526263541,13,6867.96336225,6868.027907458,6869.53067425,6870.424011625,1,1.63105891600026
105,45,1,categorization,0,kitchen,SHINEd_sun_auaiucuqpdausiva.tif,102,0.0666666666666667,0.0666666666666667,1,6870.428850875,6872.245980208,13,6870.49070475,6870.551711291,6872.253975583,6873.247314208,0,1.81712933300059
105,46,1,categorization,0,kitchen,SHINEd_sun_ahpczsiumwwocjkv.tif,92,0.0666666666666667,0.0666666666666667,0.733333333333333,6873.253598,6874.8385475,13,6873.315238625,6873.376423291,6874.845296041,6875.571967208,0,1.58494949999931
105,47,1,categorization,0,kitchen,SHINEd_sun_ahywdevtimnqcsln.tif,94,0.0666666666666667,0.0666666666666667,0.883333333333333,6875.576455708,6876.374743958,9,6875.638195875,6875.699170791,6876.384337833,6877.261008,1,0.798288250000041
105,48,1,categorization,0,kitchen,SHINEd_sun_aapllqyqlykszopd.tif,66,0.0666666666666667,0.0666666666666667,1.73333333333333,6877.265798791,6879.694529666,9,6877.3277565,6877.388510583,6879.707335291,6881.434049916,1,2.42873087499993
105,49,1,categorization,0,kitchen,SHINEd_sun_axyyrmzcupyhlivc.tif,107,0.0666666666666667,0.0666666666666667,1.91666666666667,6881.457388458,6882.781827916,13,6881.524226583,6881.590245,6882.793438458,6884.703490625,0,1.32443945799969
105,50,1,categorization,0,kitchen,SHINEd_sun_avszsnwsbuqfgzbn.tif,105,0.0666666666666667,0.0666666666666667,1.35,6884.724160625,6886.390400458,13,6884.791112916,6884.856881541,6886.40938225,6887.75275025,0,1.66623983299996
