sub_num,trial,block,task,is_practice,category,image,texture,duration,mask_dur,jitter,stim_time,time_of_resp,trial_response,mask_time,fix_time,jit_onset,trial_end,trial_accuracy,RT
105,1,18,categorization,0,kitchen,SHINEd_sun_ahpczsiumwwocjkv.tif,92,0.0666666666666667,0.0666666666666667,0.75,9033.952011125,9034.661111041,9,9034.014432375,9034.074711625,9034.676686458,9035.420024583,1,0.709099915999104
105,2,18,categorization,0,kitchen,SHINEd_sun_abrcnpqqhmjwekyf.tif,73,0.0666666666666667,0.0666666666666667,1.05,9035.426292041,9036.029103333,9,9035.488088708,9035.548980125,9036.034132375,9037.077498916,1,0.602811291999387
105,3,18,categorization,0,kitchen,SHINEd_sun_avszsnwsbuqfgzbn.tif,105,0.0666666666666667,0.0666666666666667,1.08333333333333,9037.087409833,9037.686604583,9,9037.151740166,9037.218571416,9037.707457625,9038.784172541,1,0.599194749998787
105,4,18,categorization,0,kitchen,SHINEd_sun_abpwyqmlzafvklqo.tif,72,0.0666666666666667,0.0666666666666667,1.78333333333333,9038.802582166,9039.709290083,13,9038.869545833,9038.935078833,9039.720444666,9041.497153916,0,0.906707916999949
105,5,18,categorization,0,kitchen,SHINEd_sun_afuyedyxivkhecmu.tif,85,0.0666666666666667,0.0666666666666667,0.733333333333333,9041.515838833,9042.20834125,9,9041.582283625,9041.648793416,9042.238943833,9042.965615666,1,0.69250241699956
105,6,18,categorization,0,bathroom,SHINEd_sun_aoybiabnpadelefl.tif,41,0.0666666666666667,0.0666666666666667,0.716666666666667,9042.97113725,9043.821218916,9,9043.032879166,9043.093751208,9043.828945833,9044.5389515,0,0.850081665999824
105,7,18,categorization,0,bathroom,SHINEd_sun_apkruvsevgegsdwp.tif,44,0.0666666666666667,0.0666666666666667,1.76666666666667,9044.544054583,9045.068971208,9,9044.605791833,9044.666676083,9045.085215833,9046.845257166,0,0.524916624999605
105,8,18,categorization,0,kitchen,SHINEd_sun_acgtpgfybqjmzeyw.tif,75,0.0666666666666667,0.0666666666666667,1.11666666666667,9046.860283208,9047.2963895,9,9046.9270545,9046.993066166,9047.315913541,9048.425976333,1,0.436106291999749
105,9,18,categorization,0,bathroom,SHINEd_sun_amzlamotzwfkwjco.tif,37,0.0666666666666667,0.0666666666666667,0.8,9048.4351665,9049.043142666,9,9048.499943291,9048.567941833,9049.056982041,9049.850374375,0,0.607976166000299
105,10,18,categorization,0,kitchen,SHINEd_sun_ajkqhtgcbgpcwrwn.tif,97,0.0666666666666667,0.0666666666666667,1.53333333333333,9049.866407333,9050.425686291,9,9049.933125541,9049.999354291,9050.453913166,9051.980615541,1,0.559278958000505
105,11,18,categorization,0,bathroom,SHINEd_sun_auzqhkafidnkrwmo.tif,54,0.0666666666666667,0.0666666666666667,0.966666666666667,9051.997698416,9052.487977166,9,9052.064035208,9052.130523541,9052.502865916,9053.462912083,0,0.490278749999561
105,12,18,categorization,0,bathroom,SHINEd_sun_ausgutylgojavyoq.tif,53,0.0666666666666667,0.0666666666666667,1.31666666666667,9053.479104958,9054.117224166,9,9053.545744,9053.605743583,9054.124172583,9055.43423325,0,0.638119208000717
105,13,18,categorization,0,bathroom,SHINEd_sun_alotolagknyrgtsk.tif,35,0.0666666666666667,0.0666666666666667,1.25,9055.451182416,9056.050601875,13,9055.5179255,9055.583887541,9056.073728541,9057.317111083,1,0.599419459000273
105,14,18,categorization,0,bathroom,SHINEd_sun_aunuadmjocsddsrl.tif,52,0.0666666666666667,0.0666666666666667,0.85,9057.327547625,9057.868638291,9,9057.392401291,9057.460141458,9057.881472666,9058.724848666,0,0.541090665999945
105,15,18,categorization,0,bathroom,SHINEd_sun_agyqfjcfkdcydepw.tif,25,0.0666666666666667,0.0666666666666667,1.68333333333333,9058.737926833,9059.565338625,9,9058.804472416,9058.870490958,9059.572655666,9061.249360625,0,0.827411791999111
105,16,18,categorization,0,bathroom,SHINEd_sun_aggnnqpdorgxpvce.tif,21,0.0666666666666667,0.0666666666666667,1.06666666666667,9061.259897875,9061.640853791,9,9061.327484291,9061.393195291,9061.667265166,9062.727300208,0,0.380955915999948
105,17,18,categorization,0,bathroom,SHINEd_sun_apjevzvycyhuqghb.tif,43,0.0666666666666667,0.0666666666666667,1.48333333333333,9062.738606166,9063.169666166,9,9062.805599875,9062.872061125,9063.195477916,9064.672190708,0,0.431060000000798
105,18,18,categorization,0,kitchen,SHINEd_sun_aadbddgrdsjugojn.tif,64,0.0666666666666667,0.0666666666666667,1.81666666666667,9064.688221291,9064.965091458,9,9064.755418833,9064.813222791,9064.981738625,9066.791775375,1,0.276870166999288
105,19,18,categorization,0,kitchen,SHINEd_sun_aymvwlarqodbwuoc.tif,108,0.0666666666666667,0.0666666666666667,0.966666666666667,9066.81117375,9067.616683458,9,9066.878186625,9066.944021458,9067.633650583,9068.593656083,1,0.80550970799959
105,20,18,categorization,0,bathroom,SHINEd_sun_ahijqszoswveeyji.tif,28,0.0666666666666667,0.0666666666666667,1.6,9068.598776416,9069.564595208,13,9068.66054475,9068.721465875,9069.573327916,9071.166713458,1,0.965818791999482
105,21,18,categorization,0,kitchen,SHINEd_sun_aehawpgmrlhlvcow.tif,81,0.0666666666666667,0.0666666666666667,1.28333333333333,9071.184707375,9071.648126708,9,9071.251348291,9071.317536958,9071.674062916,9072.950772333,1,0.463419333000274
105,22,18,categorization,0,kitchen,SHINEd_sun_adgqasybjyktddhj.tif,78,0.0666666666666667,0.0666666666666667,0.9,9072.970011,9073.389436,9,9073.036601625,9073.102610958,9073.408885208,9074.302273875,1,0.419425000000047
105,23,18,categorization,0,kitchen,SHINEd_sun_aapllqyqlykszopd.tif,66,0.0666666666666667,0.0666666666666667,1.41666666666667,9074.319495916,9074.869288291,9,9074.386289625,9074.452395208,9074.888139541,9076.298195541,1,0.549792375000834
105,24,18,categorization,0,kitchen,SHINEd_sun_akchetnepxlcxhsu.tif,98,0.0666666666666667,0.0666666666666667,0.8,9076.316916666,9077.205155083,13,9076.383800958,9076.450246291,9077.222583,9078.015927291,0,0.888238416999229
105,25,18,categorization,0,kitchen,SHINEd_sun_amjjdeyrggfqgmom.tif,100,0.0666666666666667,0.0666666666666667,1.05,9078.022171375,9078.429132416,9,9078.084026541,9078.145094333,9078.44679775,9079.490167125,1,0.406961041000613
105,26,18,categorization,0,bathroom,SHINEd_sun_ahqjwnzgolcaoidx.tif,29,0.0666666666666667,0.0666666666666667,0.766666666666667,9079.499596166,9079.798817791,13,9079.564545708,9079.631444958,9079.821720541,9080.581781666,1,0.299221624998609
105,27,18,categorization,0,kitchen,SHINEd_sun_axyyrmzcupyhlivc.tif,107,0.0666666666666667,0.0666666666666667,0.816666666666667,9080.596403291,9080.716923333,9,9080.663191083,9080.730225958,9080.753506666,9081.563515791,1,0.120520042000862
105,28,18,categorization,0,bathroom,SHINEd_sun_ahaulkltgpkeeemi.tif,26,0.0666666666666667,0.0666666666666667,0.95,9081.569400666,9082.796692291,9,9081.631037291,9081.692100666,9082.810597375,9083.75393475,0,1.22729162500036
105,29,18,categorization,0,bathroom,SHINEd_sun_anryaplzeujmzfkd.tif,39,0.0666666666666667,0.0666666666666667,1.46666666666667,9083.758815416,9084.4129565,9,9083.820598875,9083.881471333,9084.416738583,9085.876776458,0,0.654141084000003
105,30,18,categorization,0,bathroom,SHINEd_sun_abjtwfukuwddzted.tif,15,0.0666666666666667,0.0666666666666667,0.8,9085.894151875,9087.065685,9,9085.960860916,9086.02713075,9087.083112125,9087.87645,0,1.17153312499977
105,31,18,categorization,0,bathroom,SHINEd_sun_aspsyogrekjtfozg.tif,50,0.0666666666666667,0.0666666666666667,1.88333333333333,9087.881006458,9088.532862416,13,9087.942790333,9088.0036665,9088.538885083,9090.415594875,1,0.651855957999942
105,32,18,categorization,0,kitchen,SHINEd_sun_admlmbcdswaszruo.tif,79,0.0666666666666667,0.0666666666666667,1.03333333333333,9090.428332458,9090.786796916,9,9090.494959541,9090.56074275,9090.799475958,9091.826177708,1,0.358464458000526
105,33,18,categorization,0,bathroom,SHINEd_sun_akiytfaagpdsphgz.tif,31,0.0666666666666667,0.0666666666666667,0.916666666666667,9091.838240375,9092.593102208,9,9091.902711875,9091.969317833,9092.608542458,9093.518605583,0,0.754861833000177
105,34,18,categorization,0,kitchen,SHINEd_sun_ahljzhgcdpomplvg.tif,91,0.0666666666666667,0.0666666666666667,0.883333333333333,9093.531785541,9093.989529291,9,9093.598575875,9093.664198416,9093.999916541,9094.876587291,1,0.4577437500011
105,35,18,categorization,0,kitchen,SHINEd_sun_ahywdevtimnqcsln.tif,94,0.0666666666666667,0.0666666666666667,0.983333333333333,9094.881546708,9095.276532125,9,9094.943267916,9095.004383291,9095.289692666,9096.26636475,1,0.394985417000498
105,36,18,categorization,0,kitchen,SHINEd_sun_ajcbwwvdlsvjyzje.tif,96,0.0666666666666667,0.0666666666666667,0.933333333333333,9096.271266666,9096.876698833,9,9096.332936666,9096.393970333,9096.895736083,9097.822406875,1,0.60543216699989
105,37,18,categorization,0,kitchen,SHINEd_sun_aixorpehvfykdynp.tif,95,0.0666666666666667,0.0666666666666667,0.783333333333333,9097.827226125,9098.365571625,9,9097.888814708,9097.949940833,9098.385164833,9099.161836041,1,0.538345499999195
105,38,18,categorization,0,bathroom,SHINEd_sun_aapitsgbtktqubfy.tif,12,0.0666666666666667,0.0666666666666667,0.85,9099.166425541,9099.597062833,9,9099.22814,9099.289076833,9099.607571166,9100.450909458,0,0.430637292000029
105,39,18,categorization,0,bathroom,SHINEd_sun_asfwthctfqerjvxr.tif,49,0.0666666666666667,0.0666666666666667,1.7,9100.455456041,9101.25312325,9,9100.517166375,9100.578139,9101.263351041,9102.956718291,0,0.797667209000792
105,40,18,categorization,0,kitchen,SHINEd_sun_abftihopvusyfakt.tif,71,0.0666666666666667,0.0666666666666667,1.31666666666667,9102.968536416,9103.088968958,9,9103.035311333,9103.102037208,9103.125096791,9104.435134916,1,0.120432542000344
105,41,18,categorization,0,bathroom,SHINEd_sun_aofnryafpsjimzsb.tif,40,0.0666666666666667,0.0666666666666667,0.9,9104.452788916,9105.280798416,13,9104.519569916,9104.58542775,9105.308854166,9106.2022335,1,0.828009500000917
105,42,18,categorization,0,kitchen,SHINEd_sun_azmutvzbxypaceni.tif,110,0.0666666666666667,0.0666666666666667,1.75,9106.218624708,9107.109269125,13,9106.285235291,9106.351351416,9107.120129,9108.863520666,0,0.890644416998839
105,43,18,categorization,0,bathroom,SHINEd_sun_apeeialkgkuxddgh.tif,42,0.0666666666666667,0.0666666666666667,1.41666666666667,9108.880465,9109.873223583,13,9108.94694925,9109.01321175,9109.90321125,9111.313267666,1,0.992758582999159
105,44,18,categorization,0,kitchen,SHINEd_sun_acxkpeoqbwcxfvip.tif,77,0.0666666666666667,0.0666666666666667,1.01666666666667,9111.33037375,9111.984632041,13,9111.397002041,9111.463054,9112.002199416,9113.012235208,0,0.654258291000588
105,45,18,categorization,0,bathroom,SHINEd_sun_aavhrsfjbserjtht.tif,13,0.0666666666666667,0.0666666666666667,1.95,9113.026217208,9113.818611291,13,9113.091100125,9113.157328625,9113.847193458,9115.7905825,1,0.792394083000545
105,46,18,categorization,0,bathroom,SHINEd_sun_alkosphxlxwjwgjd.tif,34,0.0666666666666667,0.0666666666666667,0.916666666666667,9115.80525125,9116.578887625,9,9115.872494791,9115.937931958,9116.593639708,9117.503644875,0,0.773636375000933
105,47,18,categorization,0,bathroom,SHINEd_sun_apkxzenqapsujocq.tif,45,0.0666666666666667,0.0666666666666667,1.08333333333333,9117.509403583,9118.052413208,9,9117.5711935,9117.6321215,9118.067243,9119.143967708,0,0.543009625000195
105,48,18,categorization,0,kitchen,SHINEd_sun_aamedkxepzlwuxes.tif,65,0.0666666666666667,0.0666666666666667,1.16666666666667,9119.157062375,9119.910086041,9,9119.222156291,9119.289674,9119.928772583,9121.088826291,1,0.753023666000445
105,49,18,categorization,0,kitchen,SHINEd_labelme_kxvouciolcpqplr.tif,62,0.0666666666666667,0.0666666666666667,1.78333333333333,9121.105102666,9121.517292625,9,9121.169666041,9121.228431666,9121.530251375,9123.306972083,1,0.412189958999079
105,50,18,categorization,0,kitchen,SHINEd_sun_aggjlwcdjsjcaemh.tif,86,0.0666666666666667,0.0666666666666667,1.2,9123.3248425,9123.445254,9,9123.391543,9123.458819875,9123.480026,9124.673401208,1,0.120411500000046
