sub_num,trial,block,task,is_practice,category,image,texture,duration,mask_dur,jitter,stim_time,time_of_resp,trial_response,mask_time,fix_time,jit_onset,trial_end,trial_accuracy,RT
129,6,0,familiarity,1,kitchen,kitchen_practice2.tif,227,1.5,0,0.733333333333333,6914.763782458,6919.001751042,2,NaN,6919.00748575,6919.025803833,6919.752475042,NaN,NaN
129,7,0,familiarity,1,kitchen,kitchen_practice3.tif,228,1.5,0,1.3,6919.757103458,6922.74919225,2,NaN,6922.777021708,6922.80048075,6924.093846333,NaN,NaN
129,8,0,familiarity,1,kitchen,kitchen_practice1.tif,226,1.5,0,2,6924.11060925,6926.913290458,2,NaN,6926.91898475,6926.937347208,6928.930732042,NaN,NaN
129,9,0,familiarity,1,kitchen,kitchen_practice5.tif,230,1.5,0,1.81666666666667,6928.947128083,6933.065263167,5,NaN,6933.070940333,6933.089209208,6934.899244708,NaN,NaN
129,10,0,familiarity,1,kitchen,kitchen_practice4.tif,229,1.5,0,0.75,6934.920250458,6938.401923333,2,NaN,6938.40723175,6938.425552625,6939.16889025,NaN,NaN
129,1,1,familiarity,0,kitchen,sun_acxkpeoqbwcxfvip.tif,187,1.5,0,0.866666666666667,6943.585211,6946.525961417,3,NaN,6946.555273042,6946.582324375,6947.442430125,NaN,NaN
129,2,1,familiarity,0,kitchen,sun_aggjlwcdjsjcaemh.tif,196,1.5,0,1.01666666666667,6947.449808167,6950.162697167,6,NaN,6950.192324792,6950.21580375,6951.225831208,NaN,NaN
129,3,1,familiarity,0,kitchen,sun_agorklincwxrdtga.tif,197,1.5,0,1.78333333333333,6951.233566667,6953.961953125,1,NaN,6953.967352,6953.985735208,6955.7624335,NaN,NaN
129,4,1,familiarity,0,kitchen,sun_aadbddgrdsjugojn.tif,174,1.5,0,1.85,6955.7785005,6958.674632583,3,NaN,6958.702887208,6958.72655,6960.569929417,NaN,NaN
129,5,1,familiarity,0,kitchen,sun_ahdycvpopffkzzsu.tif,200,1.5,0,1.83333333333333,6960.58556775,6964.169203833,6,NaN,6964.174927958,6964.193344083,6966.02005725,NaN,NaN
129,6,1,familiarity,0,kitchen,sun_ahljzhgcdpomplvg.tif,201,1.5,0,1.56666666666667,6966.034421333,6969.314688625,2,NaN,6969.34081675,6969.364786917,6970.924826125,NaN,NaN
129,7,1,familiarity,0,kitchen,sun_agzzivivdpnawacl.tif,199,1.5,0,1.31666666666667,6970.942782458,6974.116734,5,NaN,6974.145288208,6974.169141625,6975.479176417,NaN,NaN
129,8,1,familiarity,0,kitchen,sun_ahspylgoovwmwvgk.tif,203,1.5,0,1.75,6975.497346792,6978.337431667,3,NaN,6978.342931667,6978.361310875,6980.104696292,NaN,NaN
129,9,1,familiarity,0,kitchen,sun_azmutvzbxypaceni.tif,220,1.5,0,1.9,6980.119915583,6983.841370333,4,NaN,6983.84689425,6983.865711958,6985.759085125,NaN,NaN
129,10,1,familiarity,0,kitchen,sun_agubuxuukhzyzpdp.tif,198,1.5,0,1.76666666666667,6985.772537708,6988.596924958,2,NaN,6988.621860208,6988.645318625,6990.405347708,NaN,NaN
129,11,1,familiarity,0,kitchen,labelme_kxvouciolcpqplr.tif,172,1.5,0,1.05,6990.424871958,6993.044912708,4,NaN,6993.073720333,6993.097686875,6994.141075917,NaN,NaN
129,12,1,familiarity,0,kitchen,labelme_brsyyvweiuaazfr.tif,171,1.5,0,1.58333333333333,6994.150901083,6996.857598708,3,NaN,6996.862820375,6996.881234917,6998.457954042,NaN,NaN
129,13,1,familiarity,0,kitchen,sun_aegoxogugdkwpmpj.tif,190,1.5,0,0.983333333333333,6998.475506292,7001.852626708,3,NaN,7001.88182425,7001.904492292,7002.881164833,NaN,NaN
129,14,1,familiarity,0,kitchen,sun_adgqasybjyktddhj.tif,188,1.5,0,0.733333333333333,7002.897297458,7005.702694708,3,NaN,7005.724955375,7005.746446583,7006.473117375,NaN,NaN
129,15,1,familiarity,0,kitchen,sun_akchetnepxlcxhsu.tif,208,1.5,0,1.13333333333333,7006.477683708,7011.296895625,5,NaN,7011.30258425,7011.320895542,7012.447598917,NaN,NaN
129,16,1,familiarity,0,kitchen,sun_acgtpgfybqjmzeyw.tif,185,1.5,0,1.58333333333333,7012.457042833,7016.201543208,5,NaN,7016.206808542,7016.225163917,7017.801883708,NaN,NaN
129,17,1,familiarity,0,kitchen,sun_abrcnpqqhmjwekyf.tif,183,1.5,0,0.783333333333333,7017.820123917,7021.169344292,4,NaN,7021.174812417,7021.193297042,7021.969967542,NaN,NaN
129,18,1,familiarity,0,kitchen,sun_aapllqyqlykszopd.tif,176,1.5,0,0.8,7021.974384333,7025.010917292,5,NaN,7025.036307375,7025.0597205,7025.853058708,NaN,NaN
129,19,1,familiarity,0,kitchen,sun_aymvwlarqodbwuoc.tif,218,1.5,0,1.7,7025.857925292,7029.033144292,1,NaN,7029.03919775,7029.057607708,7030.750984542,NaN,NaN
129,20,1,familiarity,0,kitchen,sun_abftihopvusyfakt.tif,181,1.5,0,1.48333333333333,7030.76989825,7034.114493833,2,NaN,7034.142948792,7034.166297708,7035.643015417,NaN,NaN
129,21,1,familiarity,0,kitchen,sun_acwjdupvyjsugpay.tif,186,1.5,0,0.966666666666667,7035.6574825,7038.529201083,5,NaN,7038.534689458,7038.553032792,7039.513037833,NaN,NaN
129,22,1,familiarity,0,kitchen,sun_aexklacwqwezaorf.tif,194,1.5,0,1.28333333333333,7039.517621167,7042.769150458,1,NaN,7042.774558458,7042.792853083,7044.06955925,NaN,NaN
129,23,1,familiarity,0,kitchen,sun_auaiucuqpdausiva.tif,212,1.5,0,0.783333333333333,7044.0845275,7047.017259083,1,NaN,7047.022549292,7047.040904875,7047.817576292,NaN,NaN
129,24,1,familiarity,0,kitchen,sun_aamedkxepzlwuxes.tif,175,1.5,0,1.36666666666667,7047.821904833,7051.4176225,3,NaN,7051.42292575,7051.441306208,7052.801339542,NaN,NaN
129,25,1,familiarity,0,kitchen,labelme_rykdqxenmhulbdn.tif,173,1.5,0,1.45,7052.816054167,7055.561364083,4,NaN,7055.566576208,7055.584862125,7057.028227708,NaN,NaN
129,1,2,familiarity,0,kitchen,sun_ajcbwwvdlsvjyzje.tif,206,1.5,0,1.81666666666667,7074.950462958,7077.5843325,3,NaN,7077.602949458,7077.625174917,7079.435224417,NaN,NaN
129,2,2,familiarity,0,kitchen,sun_aypmqwcualkenuoe.tif,219,1.5,0,0.816666666666667,7079.455615333,7082.858632958,4,NaN,7082.871439375,7082.890819792,7083.700823833,NaN,NaN
129,3,2,familiarity,0,kitchen,sun_ahpczsiumwwocjkv.tif,202,1.5,0,0.9,7083.705414375,7086.557459458,1,NaN,7086.585973375,7086.609169292,7087.502507375,NaN,NaN
129,4,2,familiarity,0,kitchen,sun_acfmftudsenhrfhy.tif,184,1.5,0,0.933333333333333,7087.50725625,7090.450665583,3,NaN,7090.479143833,7090.502291667,7091.428961833,NaN,NaN
129,5,2,familiarity,0,kitchen,sun_afuyedyxivkhecmu.tif,195,1.5,0,1.48333333333333,7091.433924417,7094.801158292,3,NaN,7094.806552458,7094.824976,7096.3016945,NaN,NaN
129,6,2,familiarity,0,kitchen,sun_axyyrmzcupyhlivc.tif,217,1.5,0,1.48333333333333,7096.31956375,7099.224954917,4,NaN,7099.230582583,7099.248827292,7100.725544833,NaN,NaN
129,7,2,familiarity,0,kitchen,sun_aenotlpyftoioydp.tif,192,1.5,0,1.43333333333333,7100.743291667,7103.560515292,4,NaN,7103.566293458,7103.584663417,7105.01136125,NaN,NaN
129,8,2,familiarity,0,kitchen,sun_avszsnwsbuqfgzbn.tif,215,1.5,0,0.733333333333333,7105.028364625,7109.184965292,3,NaN,7109.190391583,7109.20873825,7109.935410958,NaN,NaN
129,9,2,familiarity,0,kitchen,sun_abpwyqmlzafvklqo.tif,182,1.5,0,0.966666666666667,7109.939529958,7113.609487833,5,NaN,7113.615046042,7113.633331583,7114.593335292,NaN,NaN
129,10,2,familiarity,0,kitchen,sun_aixorpehvfykdynp.tif,205,1.5,0,0.916666666666667,7114.598096208,7117.849178167,5,NaN,7117.854695917,7117.873089583,7118.783093292,NaN,NaN
129,11,2,familiarity,0,kitchen,sun_abdxkyyxwfskuaqb.tif,180,1.5,0,1.03333333333333,7118.787587792,7121.565641958,3,NaN,7121.593928458,7121.617417417,7122.644121125,NaN,NaN
129,12,2,familiarity,0,kitchen,sun_abdenxonkemggwsq.tif,179,1.5,0,0.733333333333333,7122.65350225,7125.472804625,3,NaN,7125.478258583,7125.497049792,7126.223720208,NaN,NaN
129,13,2,familiarity,0,kitchen,sun_aehawpgmrlhlvcow.tif,191,1.5,0,1.13333333333333,7126.228048333,7129.529084,1,NaN,7129.534423542,7129.552865667,7130.679571375,NaN,NaN
129,14,2,familiarity,0,kitchen,sun_ajkqhtgcbgpcwrwn.tif,207,1.5,0,0.883333333333333,7130.688021125,7134.032552583,6,NaN,7134.038207208,7134.056514583,7134.933185417,NaN,NaN
129,15,2,familiarity,0,kitchen,sun_aarfiyshqohlwkmo.tif,177,1.5,0,1.85,7134.93786225,7138.753024708,2,NaN,7138.75830775,7138.77662425,7140.619987,NaN,NaN
129,16,2,familiarity,0,kitchen,sun_aeqdocilnnpuvuhx.tif,193,1.5,0,0.733333333333333,7140.635783333,7144.560639667,1,NaN,7144.56634225,7144.584545542,7145.311215875,NaN,NaN
129,17,2,familiarity,0,kitchen,sun_aqeaevwwwjoqhzvl.tif,211,1.5,0,1.95,7145.315704125,7148.212563833,2,NaN,7148.240648917,7148.264047042,7150.207418333,NaN,NaN
129,18,2,familiarity,0,kitchen,sun_auticobqsbwgoppi.tif,214,1.5,0,1.1,7150.2261885,7152.908715417,5,NaN,7152.933366667,7152.957739542,7154.051114208,NaN,NaN
129,19,2,familiarity,0,kitchen,sun_aaxxjlsuzvqlgylf.tif,178,1.5,0,1.31666666666667,7154.060282833,7156.76887475,1,NaN,7156.774228208,7156.792683875,7158.10272675,NaN,NaN
129,20,2,familiarity,0,kitchen,sun_amjjdeyrggfqgmom.tif,210,1.5,0,1.78333333333333,7158.123264292,7161.065256542,1,NaN,7161.07046675,7161.088806042,7162.86552275,NaN,NaN
129,21,2,familiarity,0,kitchen,sun_aunzlwrbjumxhwdj.tif,213,1.5,0,1.33333333333333,7162.885162208,7167.056330708,4,NaN,7167.062176333,7167.080498292,7168.407210583,NaN,NaN
129,22,2,familiarity,0,kitchen,sun_awcpdzzznmweyyhv.tif,216,1.5,0,0.95,7168.42231875,7172.50462225,2,NaN,7172.510127333,7172.528608458,7173.471945958,NaN,NaN
129,23,2,familiarity,0,kitchen,sun_akcjzhbbjlbogpdi.tif,209,1.5,0,1.93333333333333,7173.479506,7176.553336083,6,NaN,7176.560820042,7176.579297958,7178.506009333,NaN,NaN
129,24,2,familiarity,0,kitchen,sun_ahywdevtimnqcsln.tif,204,1.5,0,1.28333333333333,7178.526467958,7182.144660375,5,NaN,7182.150172792,7182.168570875,7183.445286333,NaN,NaN
129,25,2,familiarity,0,kitchen,sun_admlmbcdswaszruo.tif,189,1.5,0,1.43333333333333,7183.463950708,7186.392289417,4,NaN,7186.398072333,7186.416346958,7187.843062792,NaN,NaN
