sub_num,trial,block,task,is_practice,category,image,texture,duration,mask_dur,jitter,stim_time,time_of_resp,trial_response,mask_time,fix_time,jit_onset,trial_end,trial_accuracy,RT
133,1,0,familiarity,1,bathroom,bathroom_practice1.tif,221,1.5,0,0.916666666666667,735.250541,739.617586208,6,NaN,739.623279666,739.641527833,740.551533291,NaN,NaN
133,2,0,familiarity,1,bathroom,bathroom_practice2.tif,222,1.5,0,0.85,740.556819875,744.665001166,2,NaN,744.670770916,744.689512833,745.532852458,NaN,NaN
133,3,0,familiarity,1,bathroom,bathroom_practice3.tif,223,1.5,0,0.883333333333333,745.537889833,748.420277166,3,NaN,748.44348075,748.465324458,749.341996666,NaN,NaN
133,4,0,familiarity,1,bathroom,bathroom_practice5.tif,225,1.5,0,1.43333333333333,749.347509208,752.849563833,2,NaN,752.855097458,752.873310708,754.300019583,NaN,NaN
133,5,0,familiarity,1,bathroom,bathroom_practice4.tif,224,1.5,0,1.53333333333333,754.30973675,757.249020166,1,NaN,757.254836625,757.272920666,758.799632958,NaN,NaN
133,1,1,familiarity,0,bathroom,sun_ahcvzmoyaycdoftf.tif,137,1.5,0,1.26666666666667,764.002492333,766.732599958,7,NaN,766.75376825,766.776290625,768.036335166,NaN,NaN
133,2,1,familiarity,0,bathroom,sun_aggnnqpdorgxpvce.tif,131,1.5,0,1.76666666666667,768.055273416,771.2892045,3,NaN,771.294782125,771.313126208,773.073162583,NaN,NaN
133,3,1,familiarity,0,bathroom,sun_aclfzgynxzxlbepz.tif,129,1.5,0,1.46666666666667,773.092090333,777.24080275,3,NaN,777.246452458,777.264816875,778.724875708,NaN,NaN
133,4,1,familiarity,0,bathroom,sun_apmqjbnwghzuhhzh.tif,156,1.5,0,1.28333333333333,778.741358666,783.649497708,5,NaN,783.656352166,783.674599375,784.951305333,NaN,NaN
133,5,1,familiarity,0,bathroom,sun_acegryoqftbzowsg.tif,127,1.5,0,0.966666666666667,784.97189875,789.065489916,3,NaN,789.071068416,789.089842791,790.049847458,NaN,NaN
133,6,1,familiarity,0,bathroom,sun_alkosphxlxwjwgjd.tif,144,1.5,0,0.783333333333333,790.05396425,794.056869125,5,NaN,794.062444791,794.080703041,794.85737575,NaN,NaN
133,7,1,familiarity,0,bathroom,sun_acgyywnybuveqsro.tif,128,1.5,0,1.21666666666667,794.862586833,797.532409583,6,NaN,797.559927208,797.583100958,798.793143291,NaN,NaN
133,8,1,familiarity,0,bathroom,sun_anhioqovhscjqqwb.tif,148,1.5,0,1.4,798.810151625,802.26544575,6,NaN,802.271020708,802.289530666,803.682903833,NaN,NaN
133,9,1,familiarity,0,bathroom,sun_aspsyogrekjtfozg.tif,160,1.5,0,1.3,803.701148291,806.553318708,2,NaN,806.558803291,806.577219833,807.870596041,NaN,NaN
133,10,1,familiarity,0,bathroom,sun_ahqjwnzgolcaoidx.tif,139,1.5,0,0.95,807.888061083,811.520525166,5,NaN,811.526279541,811.544632708,812.487972541,NaN,NaN
133,11,1,familiarity,0,bathroom,sun_ausgutylgojavyoq.tif,163,1.5,0,1.96666666666667,812.492817125,816.953120166,4,NaN,816.95865225,816.977049166,818.937091375,NaN,NaN
133,12,1,familiarity,0,bathroom,sun_axyrejkiiaqiurjk.tif,169,1.5,0,1.13333333333333,818.954603166,821.842103083,6,NaN,821.866059583,821.890035208,823.016752666,NaN,NaN
133,13,1,familiarity,0,bathroom,sun_agrwbmhcpmfuwmsg.tif,134,1.5,0,0.933333333333333,823.027751666,826.544727041,5,NaN,826.550444791,826.568863,827.495535208,NaN,NaN
133,14,1,familiarity,0,bathroom,sun_axxbkopsgyouuebh.tif,168,1.5,0,1.6,827.500678708,830.205343958,6,NaN,830.232750791,830.255709375,831.849088041,NaN,NaN
133,15,1,familiarity,0,bathroom,sun_akiytfaagpdsphgz.tif,141,1.5,0,1.38333333333333,831.86475275,834.505060291,6,NaN,834.510655375,834.529036541,835.905756958,NaN,NaN
133,16,1,familiarity,0,bathroom,sun_aavhrsfjbserjtht.tif,123,1.5,0,1.58333333333333,835.920203291,840.248299625,3,NaN,840.254379541,840.272578041,841.849278833,NaN,NaN
133,17,1,familiarity,0,bathroom,sun_auzqhkafidnkrwmo.tif,164,1.5,0,0.966666666666667,841.867780791,845.159778375,2,NaN,845.184521375,845.206467166,846.16647175,NaN,NaN
133,18,1,familiarity,0,bathroom,sun_amzlamotzwfkwjco.tif,147,1.5,0,0.983333333333333,846.172595666,848.748620041,1,NaN,848.777938541,848.801441708,849.778115333,NaN,NaN
133,19,1,familiarity,0,bathroom,sun_asfwthctfqerjvxr.tif,159,1.5,0,0.8,849.787309583,853.857231083,5,NaN,853.862747875,853.881031416,854.674371166,NaN,NaN
133,20,1,familiarity,0,bathroom,sun_apkxzenqapsujocq.tif,155,1.5,0,0.7,854.679423416,858.616719416,5,NaN,858.622261166,858.640586333,859.333925958,NaN,NaN
133,21,1,familiarity,0,bathroom,sun_anryaplzeujmzfkd.tif,149,1.5,0,0.716666666666667,859.339075875,862.418595291,3,NaN,862.432524791,862.451778791,863.161786083,NaN,NaN
133,22,1,familiarity,0,bathroom,sun_atstyziqcmkahyxk.tif,161,1.5,0,1.76666666666667,863.167126541,866.225085208,4,NaN,866.234445208,866.2535125,868.013549125,NaN,NaN
133,23,1,familiarity,0,bathroom,sun_ajlawzvmubibwbpy.tif,140,1.5,0,1.7,868.032375166,872.504708,3,NaN,872.510299833,872.52871125,874.222093583,NaN,NaN
133,24,1,familiarity,0,bathroom,sun_aljolscmmzydegqp.tif,143,1.5,0,1.38333333333333,874.241062,877.394240125,1,NaN,877.425559083,877.448781666,878.825484375,NaN,NaN
133,25,1,familiarity,0,bathroom,sun_afcoljnjfoxjtgja.tif,130,1.5,0,0.766666666666667,878.839678,882.048033125,3,NaN,882.05388525,882.072348458,882.832354458,NaN,NaN
133,1,2,familiarity,0,bathroom,sun_azqyogdvyhahyram.tif,170,1.5,0,0.85,887.406234083,892.384067291,3,NaN,892.390114666,892.408479958,893.251818458,NaN,NaN
133,2,2,familiarity,0,bathroom,sun_agguqiubmwhqqunb.tif,132,1.5,0,1.53333333333333,893.257127541,896.808430708,4,NaN,896.814020083,896.832346708,898.359070041,NaN,NaN
133,3,2,familiarity,0,bathroom,sun_avhrdrntsqrjzccq.tif,165,1.5,0,0.7,898.3691635,902.128222166,2,NaN,902.133737125,902.152207625,902.845548458,NaN,NaN
133,4,2,familiarity,0,bathroom,sun_aunuadmjocsddsrl.tif,162,1.5,0,1.36666666666667,902.850948791,905.969923375,6,NaN,905.980874958,905.999938208,907.359993583,NaN,NaN
133,5,2,familiarity,0,bathroom,sun_abapwbhyhkfixyex.tif,124,1.5,0,0.716666666666667,907.37789275,910.864063458,6,NaN,910.870312541,910.888820833,911.598825458,NaN,NaN
133,6,2,familiarity,0,bathroom,sun_alotolagknyrgtsk.tif,145,1.5,0,1.38333333333333,911.605909833,914.228561833,1,NaN,914.252724166,914.275703666,915.652468875,NaN,NaN
133,7,2,familiarity,0,bathroom,labelme_sfxiulhjbhlyiyt.tif,121,1.5,0,0.916666666666667,915.671205875,919.416110625,4,NaN,919.421834,919.440038375,920.350043416,NaN,NaN
133,8,2,familiarity,0,bathroom,sun_aqrpegblszgcoujh.tif,158,1.5,0,1.58333333333333,920.355074541,923.936355125,5,NaN,923.942103125,923.960427166,925.537143833,NaN,NaN
133,9,2,familiarity,0,bathroom,sun_ahijqszoswveeyji.tif,138,1.5,0,1.25,925.554394583,928.936922583,4,NaN,928.942409625,928.960698791,930.2040885,NaN,NaN
133,10,2,familiarity,0,bathroom,sun_axldvoqbuvuggfmq.tif,167,1.5,0,0.95,930.221582875,933.112878708,6,NaN,933.118458,933.136827958,934.080168416,NaN,NaN
133,11,2,familiarity,0,bathroom,sun_ahaulkltgpkeeemi.tif,136,1.5,0,1.4,934.085450166,938.0158835,3,NaN,938.021810041,938.039967416,939.433349666,NaN,NaN
133,12,2,familiarity,0,bathroom,sun_aghyqhbptboemmoq.tif,133,1.5,0,0.766666666666667,939.449923041,946.735947333,6,NaN,946.741752166,946.760412666,947.520418375,NaN,NaN
133,13,2,familiarity,0,bathroom,sun_apynckhmoftszqoq.tif,157,1.5,0,0.733333333333333,947.525567083,951.896437208,4,NaN,951.902938958,951.921241583,952.647913958,NaN,NaN
133,14,2,familiarity,0,bathroom,sun_apeeialkgkuxddgh.tif,152,1.5,0,1.06666666666667,952.653111708,957.879978708,5,NaN,957.885831208,957.904202,958.964249583,NaN,NaN
133,15,2,familiarity,0,bathroom,sun_agyqfjcfkdcydepw.tif,135,1.5,0,1.33333333333333,958.974186416,961.672170583,3,NaN,961.678045083,961.696497833,963.023209333,NaN,NaN
133,16,2,familiarity,0,bathroom,sun_aleqenyvunhactkl.tif,142,1.5,0,1.41666666666667,963.037300083,966.4881945,4,NaN,966.493778125,966.512094958,967.922128416,NaN,NaN
133,17,2,familiarity,0,bathroom,sun_aapitsgbtktqubfy.tif,122,1.5,0,1.95,967.939157333,970.447624333,6,NaN,970.4537705,970.471938958,972.41533,NaN,NaN
133,18,2,familiarity,0,bathroom,sun_ambriybtogmepttm.tif,146,1.5,0,0.866666666666667,972.426415541,975.382215708,2,NaN,975.403306041,975.426055708,976.286061666,NaN,NaN
133,19,2,familiarity,0,bathroom,sun_apkruvsevgegsdwp.tif,154,1.5,0,0.983333333333333,976.291852916,980.247948166,3,NaN,980.253702041,980.271813958,981.248486833,NaN,NaN
133,20,2,familiarity,0,bathroom,sun_awnqiikzaispgmwo.tif,166,1.5,0,0.983333333333333,981.254958041,984.896475791,4,NaN,984.901907208,984.920584416,985.897256625,NaN,NaN
133,21,2,familiarity,0,bathroom,sun_abjtwfukuwddzted.tif,125,1.5,0,0.766666666666667,985.902544625,989.951731708,6,NaN,989.957575541,989.975825583,990.735830208,NaN,NaN
133,22,2,familiarity,0,bathroom,sun_acduarbnmmoglmiv.tif,126,1.5,0,0.833333333333333,990.740606416,995.103556333,2,NaN,995.109522333,995.127848375,995.954520166,NaN,NaN
133,23,2,familiarity,0,bathroom,sun_apjevzvycyhuqghb.tif,153,1.5,0,0.833333333333333,995.959690291,1001.167750708,6,NaN,1001.173605291,1001.191865083,1002.018539083,NaN,NaN
133,24,2,familiarity,0,bathroom,sun_aofnryafpsjimzsb.tif,150,1.5,0,0.716666666666667,1002.023651333,1005.011957625,6,NaN,1005.039945333,1005.063239125,1005.773246375,NaN,NaN
133,25,2,familiarity,0,bathroom,sun_aoybiabnpadelefl.tif,151,1.5,0,1.71666666666667,1005.778495666,1008.664663541,6,NaN,1008.689014875,1008.710728708,1010.42077225,NaN,NaN
