sub_num,trial,block,task,is_practice,category,image,texture,duration,mask_dur,jitter,stim_time,time_of_resp,trial_response,mask_time,fix_time,jit_onset,trial_end,trial_accuracy,RT
133,1,0,complexity,1,bathroom,bathroom_practice3.tif,223,1.5,0,1.56666666666667,1774.637088333,1779.340401125,4,NaN,1779.346749791,1779.365174041,1780.92523025,NaN,NaN
133,2,0,complexity,1,bathroom,bathroom_practice5.tif,225,1.5,0,1.1,1780.942482291,1785.972758,4,NaN,1785.9784015,1785.9967135,1787.090082458,NaN,NaN
133,3,0,complexity,1,bathroom,bathroom_practice2.tif,222,1.5,0,1.51666666666667,1787.0980195,1789.517196625,7,NaN,1789.522718958,1789.541003875,1791.051059833,NaN,NaN
133,4,0,complexity,1,bathroom,bathroom_practice4.tif,224,1.5,0,1.15,1791.069970791,1794.965376083,2,NaN,1794.970976375,1794.989360958,1796.132740625,NaN,NaN
133,5,0,complexity,1,bathroom,bathroom_practice1.tif,221,1.5,0,1.26666666666667,1796.141447333,1798.932549958,2,NaN,1798.938378375,1798.9567315,1800.216767375,NaN,NaN
133,1,1,complexity,0,bathroom,sun_abapwbhyhkfixyex.tif,124,1.5,0,0.75,1807.169377958,1814.732571791,3,NaN,1814.738166958,1814.756653333,1815.499992,NaN,NaN
133,2,1,complexity,0,bathroom,sun_akiytfaagpdsphgz.tif,141,1.5,0,1.28333333333333,1815.504914333,1822.356815958,3,NaN,1822.362460333,1822.380675208,1823.657401041,NaN,NaN
133,3,1,complexity,0,bathroom,sun_axxbkopsgyouuebh.tif,168,1.5,0,1.76666666666667,1823.670580583,1826.397188291,2,NaN,1826.402732958,1826.421372541,1828.181422041,NaN,NaN
133,4,1,complexity,0,bathroom,sun_abjtwfukuwddzted.tif,125,1.5,0,1.28333333333333,1828.200748291,1831.280963416,2,NaN,1831.308653041,1831.332112833,1832.608839541,NaN,NaN
133,5,1,complexity,0,bathroom,sun_amzlamotzwfkwjco.tif,147,1.5,0,1.8,1832.62401675,1835.836561833,3,NaN,1835.842313708,1835.860686083,1837.654074958,NaN,NaN
133,6,1,complexity,0,bathroom,sun_aofnryafpsjimzsb.tif,150,1.5,0,0.716666666666667,1837.670480583,1842.156798916,4,NaN,1842.162342083,1842.180679666,1842.890686458,NaN,NaN
133,7,1,complexity,0,bathroom,sun_asfwthctfqerjvxr.tif,159,1.5,0,1,1842.896036083,1847.940537,5,NaN,1847.94715,1847.965577166,1848.958917125,NaN,NaN
133,8,1,complexity,0,bathroom,sun_apjevzvycyhuqghb.tif,153,1.5,0,1.21666666666667,1848.964229708,1857.716207541,5,NaN,1857.722352166,1857.740782333,1858.950830833,NaN,NaN
133,9,1,complexity,0,bathroom,sun_aapitsgbtktqubfy.tif,122,1.5,0,1.55,1858.969846666,1862.460266833,2,NaN,1862.466193708,1862.484289625,1864.027674208,NaN,NaN
133,10,1,complexity,0,bathroom,sun_aclfzgynxzxlbepz.tif,129,1.5,0,2,1864.046383958,1867.387683833,2,NaN,1867.413533541,1867.437417208,1869.430797083,NaN,NaN
133,11,1,complexity,0,bathroom,sun_aqrpegblszgcoujh.tif,158,1.5,0,0.716666666666667,1869.4468205,1872.104225958,3,NaN,1872.135393208,1872.158706291,1872.868713208,NaN,NaN
133,12,1,complexity,0,bathroom,sun_awnqiikzaispgmwo.tif,166,1.5,0,0.933333333333333,1872.874397416,1875.597607208,5,NaN,1875.626426583,1875.649509375,1876.576179583,NaN,NaN
133,13,1,complexity,0,bathroom,sun_axyrejkiiaqiurjk.tif,169,1.5,0,1.58333333333333,1876.581131958,1880.396357666,2,NaN,1880.401983333,1880.420358375,1881.997083625,NaN,NaN
133,14,1,complexity,0,bathroom,sun_aspsyogrekjtfozg.tif,160,1.5,0,0.9,1882.014694166,1885.197982666,6,NaN,1885.228103333,1885.251827125,1886.145166333,NaN,NaN
133,15,1,complexity,0,bathroom,sun_anryaplzeujmzfkd.tif,149,1.5,0,1.16666666666667,1886.150812958,1888.998158125,5,NaN,1889.027781541,1889.051141291,1890.211177125,NaN,NaN
133,16,1,complexity,0,bathroom,sun_ausgutylgojavyoq.tif,163,1.5,0,0.733333333333333,1890.222199875,1893.404204166,6,NaN,1893.409978583,1893.428339625,1894.15501175,NaN,NaN
133,17,1,complexity,0,bathroom,sun_ahijqszoswveeyji.tif,138,1.5,0,1.15,1894.160193541,1900.5087215,5,NaN,1900.514215041,1900.532683791,1901.676128083,NaN,NaN
133,18,1,complexity,0,bathroom,sun_acgyywnybuveqsro.tif,128,1.5,0,1.01666666666667,1901.685652708,1905.421018916,1,NaN,1905.426475125,1905.444761541,1906.454794875,NaN,NaN
133,19,1,complexity,0,bathroom,sun_aggnnqpdorgxpvce.tif,131,1.5,0,0.883333333333333,1906.463033833,1910.09200425,4,NaN,1910.098102666,1910.116398208,1910.993069541,NaN,NaN
133,20,1,complexity,0,bathroom,sun_avhrdrntsqrjzccq.tif,165,1.5,0,1.65,1910.998786041,1916.435913208,5,NaN,1916.441823708,1916.460140166,1918.103516041,NaN,NaN
133,21,1,complexity,0,bathroom,sun_aghyqhbptboemmoq.tif,133,1.5,0,0.75,1918.121343583,1921.551674916,2,NaN,1921.573384958,1921.59347,1922.336808375,NaN,NaN
133,22,1,complexity,0,bathroom,sun_acegryoqftbzowsg.tif,127,1.5,0,1.28333333333333,1922.341285333,1926.404416416,4,NaN,1926.410238,1926.428716416,1927.705432458,NaN,NaN
133,23,1,complexity,0,bathroom,sun_ambriybtogmepttm.tif,146,1.5,0,1.25,1927.720908375,1932.244913166,3,NaN,1932.250419833,1932.268700041,1933.512085666,NaN,NaN
133,24,1,complexity,0,bathroom,sun_agrwbmhcpmfuwmsg.tif,134,1.5,0,0.833333333333333,1933.53066775,1936.260556958,4,NaN,1936.266080041,1936.284112125,1937.110785125,NaN,NaN
133,25,1,complexity,0,bathroom,sun_acduarbnmmoglmiv.tif,126,1.5,0,1.05,1937.1171175,1939.973213125,6,NaN,1940.002484166,1940.025573541,1941.068957875,NaN,NaN
133,1,2,complexity,0,bathroom,sun_apkxzenqapsujocq.tif,155,1.5,0,0.95,1946.2011845,1951.44387525,3,NaN,1951.449692625,1951.467883833,1952.411222,NaN,NaN
133,2,2,complexity,0,bathroom,sun_afcoljnjfoxjtgja.tif,130,1.5,0,1.55,1952.417042041,1955.178316083,4,NaN,1955.207952458,1955.231841208,1956.775225958,NaN,NaN
133,3,2,complexity,0,bathroom,sun_agyqfjcfkdcydepw.tif,135,1.5,0,1.2,1956.793636333,1959.88458675,5,NaN,1959.890049583,1959.908449125,1961.101830875,NaN,NaN
133,4,2,complexity,0,bathroom,sun_apkruvsevgegsdwp.tif,154,1.5,0,1.86666666666667,1961.118972125,1964.972134333,4,NaN,1964.977588833,1964.99594,1966.855980666,NaN,NaN
133,5,2,complexity,0,bathroom,sun_alotolagknyrgtsk.tif,145,1.5,0,1.66666666666667,1966.87603975,1970.032118916,4,NaN,1970.062064333,1970.085577041,1971.745633916,NaN,NaN
133,6,2,complexity,0,bathroom,sun_axldvoqbuvuggfmq.tif,167,1.5,0,1.35,1971.7652925,1978.523645125,4,NaN,1978.529609833,1978.548107125,1979.891490291,NaN,NaN
133,7,2,complexity,0,bathroom,sun_aoybiabnpadelefl.tif,151,1.5,0,1.11666666666667,1979.909652125,1983.595769708,1,NaN,1983.601857125,1983.62014775,1984.730206666,NaN,NaN
133,8,2,complexity,0,bathroom,sun_apmqjbnwghzuhhzh.tif,156,1.5,0,0.95,1984.740328291,1987.923998458,2,NaN,1987.929614208,1987.947792833,1988.891132958,NaN,NaN
133,9,2,complexity,0,bathroom,sun_aleqenyvunhactkl.tif,142,1.5,0,1.03333333333333,1988.896636458,1991.463700708,5,NaN,1991.491192708,1991.515120166,1992.541839458,NaN,NaN
133,10,2,complexity,0,bathroom,sun_aunuadmjocsddsrl.tif,162,1.5,0,1.01666666666667,1992.550869666,1995.219664125,6,NaN,1995.225583875,1995.243983791,1996.254022583,NaN,NaN
133,11,2,complexity,0,bathroom,sun_agguqiubmwhqqunb.tif,132,1.5,0,1.81666666666667,1996.262350291,2001.084234541,4,NaN,2001.089782416,2001.108059833,2002.918093416,NaN,NaN
133,12,2,complexity,0,bathroom,sun_alkosphxlxwjwgjd.tif,144,1.5,0,1.8,2002.93697825,2005.729599166,5,NaN,2005.758971041,2005.782401208,2007.575794,NaN,NaN
133,13,2,complexity,0,bathroom,sun_atstyziqcmkahyxk.tif,161,1.5,0,1.26666666666667,2007.595143958,2010.13344675,4,NaN,2010.15772825,2010.181382666,2011.441420041,NaN,NaN
133,14,2,complexity,0,bathroom,sun_azqyogdvyhahyram.tif,170,1.5,0,1.66666666666667,2011.460272166,2014.243951791,3,NaN,2014.249530791,2014.267726541,2015.927785708,NaN,NaN
133,15,2,complexity,0,bathroom,sun_aljolscmmzydegqp.tif,143,1.5,0,1.93333333333333,2015.94551,2020.084106041,6,NaN,2020.0910535,2020.10935875,2022.036066,NaN,NaN
133,16,2,complexity,0,bathroom,sun_ahcvzmoyaycdoftf.tif,137,1.5,0,1.75,2022.053966958,2025.387667208,3,NaN,2025.3957145,2025.414946583,2027.158313541,NaN,NaN
133,17,2,complexity,0,bathroom,sun_aavhrsfjbserjtht.tif,123,1.5,0,0.766666666666667,2027.1775295,2030.551623,4,NaN,2030.578943375,2030.602588583,2031.36259475,NaN,NaN
133,18,2,complexity,0,bathroom,sun_ajlawzvmubibwbpy.tif,140,1.5,0,1.43333333333333,2031.368127875,2034.643812208,4,NaN,2034.649526416,2034.667792583,2036.094507208,NaN,NaN
133,19,2,complexity,0,bathroom,sun_ahqjwnzgolcaoidx.tif,139,1.5,0,0.916666666666667,2036.110491125,2039.044262458,5,NaN,2039.049698125,2039.067883458,2039.97788825,NaN,NaN
133,20,2,complexity,0,bathroom,labelme_sfxiulhjbhlyiyt.tif,121,1.5,0,0.766666666666667,2039.9836345,2043.015213416,6,NaN,2043.044947083,2043.066379,2043.826385416,NaN,NaN
133,21,2,complexity,0,bathroom,sun_apynckhmoftszqoq.tif,157,1.5,0,0.783333333333333,2043.831735458,2046.223444833,6,NaN,2046.252598833,2046.275762,2047.05243275,NaN,NaN
133,22,2,complexity,0,bathroom,sun_anhioqovhscjqqwb.tif,148,1.5,0,1.31666666666667,2047.057812791,2050.195379791,3,NaN,2050.202365791,2050.22083875,2051.53088075,NaN,NaN
133,23,2,complexity,0,bathroom,sun_auzqhkafidnkrwmo.tif,164,1.5,0,1.1,2051.548898833,2054.708244083,4,NaN,2054.713745083,2054.732218083,2055.825592208,NaN,NaN
133,24,2,complexity,0,bathroom,sun_ahaulkltgpkeeemi.tif,136,1.5,0,1.26666666666667,2055.836991333,2059.091327583,5,NaN,2059.097298791,2059.115607458,2060.37564,NaN,NaN
133,25,2,complexity,0,bathroom,sun_apeeialkgkuxddgh.tif,152,1.5,0,0.933333333333333,2060.385905666,2064.044216791,4,NaN,2064.049665791,2064.067958416,2064.994632416,NaN,NaN
