sub_num,trial,block,task,is_practice,category,image,texture,duration,mask_dur,jitter,stim_time,time_of_resp,trial_response,mask_time,fix_time,jit_onset,trial_end,trial_accuracy,RT
301,1,0,categorization,1,kitchen,SHINEd_kitchen_practice2.tif,117,0.0666666666666667,0.0666666666666667,1.21666666666667,4227.337223792,4228.337262625,13,4227.403543959,4227.464368125,4228.367676375,4229.5778655,0,1.00003883299996
301,2,0,categorization,1,kitchen,SHINEd_kitchen_practice5.tif,120,0.0666666666666667,0.0666666666666667,1.36666666666667,4229.634863167,4230.889992375,9,4229.708593459,4229.769543167,4230.934982917,4232.295195334,1,1.25512920799974
301,3,0,categorization,1,bathroom,SHINEd_bathroom_practice1.tif,111,0.0666666666666667,0.0666666666666667,1.85,4232.349640292,4232.9331025,13,4232.424783167,4232.485640167,4232.961858917,4234.805413584,1,0.583462208000128
301,4,0,categorization,1,bathroom,SHINEd_bathroom_practice3.tif,113,0.0666666666666667,0.0666666666666667,1.55,4234.83203,4235.394392459,13,4234.902727167,4234.967134334,4235.426696209,4236.970247625,1,0.562362459000724
301,5,0,categorization,1,bathroom,SHINEd_bathroom_practice2.tif,112,0.0666666666666667,0.0666666666666667,1.48333333333333,4237.006112625,4237.868781292,13,4237.079386917,4237.140843542,4237.907225084,4239.384895042,1,0.862668666999525
301,6,0,categorization,1,bathroom,SHINEd_bathroom_practice4.tif,114,0.0666666666666667,0.0666666666666667,1.15,4239.413172375,4240.045943167,13,4239.481659209,4239.541665042,4240.068139334,4241.211652709,1,0.632770791999974
301,7,0,categorization,1,kitchen,SHINEd_kitchen_practice4.tif,119,0.0666666666666667,0.0666666666666667,0.733333333333333,4241.222885084,4241.961509667,9,4241.291086584,4241.35627625,4241.980091834,4242.706809584,1,0.738624583000274
301,8,0,categorization,1,kitchen,SHINEd_kitchen_practice1.tif,116,0.0666666666666667,0.0666666666666667,1.6,4242.726559834,4243.520663459,9,4242.793913584,4242.861211542,4243.530014,4245.123399125,1,0.794103625000389
301,9,0,categorization,1,kitchen,SHINEd_kitchen_practice3.tif,118,0.0666666666666667,0.0666666666666667,0.716666666666667,4245.144029334,4246.03244525,9,4245.211510709,4245.278348334,4246.051633542,4246.761638917,1,0.888415915999758
301,10,0,categorization,1,bathroom,SHINEd_bathroom_practice5.tif,115,0.0666666666666667,0.0666666666666667,1.21666666666667,4246.766982959,4247.609774375,9,4246.828716125,4246.889951125,4247.624956917,4248.835013542,0,0.842791415999272
301,1,1,categorization,0,bathroom,SHINEd_sun_ahijqszoswveeyji.tif,28,0.0666666666666667,0.0666666666666667,1.23333333333333,4254.05501375,4255.040951542,9,4254.117113709,4254.178189667,4255.047122417,4256.273829959,0,0.985937791999277
301,2,1,categorization,0,bathroom,SHINEd_sun_agrwbmhcpmfuwmsg.tif,24,0.0666666666666667,0.0666666666666667,0.783333333333333,4256.293020542,4257.183115625,13,4256.361778959,4256.42720375,4257.200115417,4257.976840625,1,0.890095083000233
301,3,1,categorization,0,bathroom,SHINEd_sun_apkxzenqapsujocq.tif,45,0.0666666666666667,0.0666666666666667,0.75,4257.993579584,4258.79311425,13,4258.059461917,4258.118181209,4258.803697459,4259.547036417,1,0.799534666
301,4,1,categorization,0,bathroom,SHINEd_sun_apjevzvycyhuqghb.tif,43,0.0666666666666667,0.0666666666666667,1.23333333333333,4259.551813459,4260.641490167,13,4259.613652459,4259.674787209,4260.660539584,4261.887249625,1,1.08967670799939
301,5,1,categorization,0,kitchen,SHINEd_sun_adgqasybjyktddhj.tif,78,0.0666666666666667,0.0666666666666667,1.13333333333333,4261.905546,4262.948357042,9,4261.972742625,4262.039942542,4262.980290917,4264.107009459,1,1.04281104199981
301,6,1,categorization,0,bathroom,SHINEd_sun_aoybiabnpadelefl.tif,41,0.0666666666666667,0.0666666666666667,0.95,4264.117362959,4265.208280125,13,4264.181842625,4264.251423792,4265.223767167,4266.167106084,1,1.0909171659996
301,7,1,categorization,0,kitchen,SHINEd_sun_aypmqwcualkenuoe.tif,109,0.0666666666666667,0.0666666666666667,0.733333333333333,4266.172896459,4267.281789834,9,4266.234695959,4266.295862084,4267.298184167,4268.024856125,1,1.10889337499975
301,8,1,categorization,0,kitchen,SHINEd_sun_ahspylgoovwmwvgk.tif,93,0.0666666666666667,0.0666666666666667,1.31666666666667,4268.032740709,4269.089867125,9,4268.094528625,4268.155735375,4269.108324709,4270.418367125,1,1.05712641599985
301,9,1,categorization,0,kitchen,SHINEd_sun_agorklincwxrdtga.tif,87,0.0666666666666667,0.0666666666666667,0.8,4270.435101834,4271.42376325,9,4270.50185,4270.569435709,4271.442666084,4272.236006375,1,0.988661415999559
301,10,1,categorization,0,kitchen,SHINEd_labelme_brsyyvweiuaazfr.tif,61,0.0666666666666667,0.0666666666666667,0.716666666666667,4272.241748625,4273.289617917,13,4272.303562292,4272.364828,4273.300059917,4274.010064375,0,1.04786929200054
301,11,1,categorization,0,kitchen,SHINEd_sun_axyyrmzcupyhlivc.tif,107,0.0666666666666667,0.0666666666666667,0.916666666666667,4274.015762834,4274.816611584,13,4274.077559792,4274.1387735,4274.824564542,4275.734568125,0,0.800848750000114
301,12,1,categorization,0,kitchen,SHINEd_sun_auaiucuqpdausiva.tif,102,0.0666666666666667,0.0666666666666667,0.95,4275.739574542,4276.936938792,9,4275.801250334,4275.862551167,4276.94835825,4277.891697792,1,1.19736424999974
301,13,1,categorization,0,bathroom,SHINEd_sun_aghyqhbptboemmoq.tif,23,0.0666666666666667,0.0666666666666667,0.833333333333333,4277.899180417,4279.144885459,9,4277.961073292,4278.022145334,4279.15752175,4279.984192917,0,1.24570504199983
301,14,1,categorization,0,kitchen,SHINEd_sun_abpwyqmlzafvklqo.tif,72,0.0666666666666667,0.0666666666666667,0.75,4279.989053959,4280.833538959,9,4280.050817875,4280.11203325,4280.847425334,4281.590763542,1,0.844485000000532
301,15,1,categorization,0,kitchen,SHINEd_sun_acfmftudsenhrfhy.tif,74,0.0666666666666667,0.0666666666666667,1.53333333333333,4281.595985084,4282.6252245,13,4281.657801792,4281.719008959,4282.637677584,4284.164403375,0,1.02923941599965
301,16,1,categorization,0,bathroom,SHINEd_sun_ahaulkltgpkeeemi.tif,26,0.0666666666666667,0.0666666666666667,1.05,4284.185080459,4284.985425542,13,4284.251903792,4284.3193455,4285.009543042,4286.052916375,1,0.800345082999229
301,17,1,categorization,0,bathroom,SHINEd_sun_avhrdrntsqrjzccq.tif,55,0.0666666666666667,0.0666666666666667,0.9,4286.06172875,4286.968312917,13,4286.126535792,4286.194852375,4286.984182834,4287.87757275,1,0.906584166999892
301,18,1,categorization,0,bathroom,SHINEd_sun_anryaplzeujmzfkd.tif,39,0.0666666666666667,0.0666666666666667,1.18333333333333,4287.889748959,4288.777723625,13,4287.95693025,4288.023561375,4288.7924175,4289.969134292,1,0.887974666000446
301,19,1,categorization,0,kitchen,SHINEd_sun_ajkqhtgcbgpcwrwn.tif,97,0.0666666666666667,0.0666666666666667,0.9,4289.979469417,4290.910828584,9,4290.048007292,4290.113782667,4290.937267834,4291.830633792,1,0.931359167000664
301,20,1,categorization,0,kitchen,SHINEd_sun_ajcbwwvdlsvjyzje.tif,96,0.0666666666666667,0.0666666666666667,1.66666666666667,4291.848215834,4292.75282625,9,4291.91195775,4291.971606459,4292.75741725,4294.417463084,1,0.904610415999741
301,21,1,categorization,0,kitchen,SHINEd_sun_amjjdeyrggfqgmom.tif,100,0.0666666666666667,0.0666666666666667,1.13333333333333,4294.435309584,4295.194032709,9,4294.502303084,4294.569551417,4295.208716834,4296.335436375,1,0.75872312499996
301,22,1,categorization,0,kitchen,SHINEd_sun_agubuxuukhzyzpdp.tif,88,0.0666666666666667,0.0666666666666667,1.3,4296.345214042,4297.473086,9,4296.410598584,4296.480628459,4297.48591675,4298.779306417,1,1.12787195799956
301,23,1,categorization,0,kitchen,SHINEd_sun_akcjzhbbjlbogpdi.tif,99,0.0666666666666667,0.0666666666666667,1.93333333333333,4298.797918125,4299.569620167,9,4298.864966792,4298.931988209,4299.587968,4301.514668042,1,0.771702041999561
301,24,1,categorization,0,kitchen,SHINEd_sun_abdenxonkemggwsq.tif,69,0.0666666666666667,0.0666666666666667,1,4301.530332292,4302.538048375,9,4301.597446167,4301.664393667,4302.553748459,4303.547086875,1,1.00771608299965
301,25,1,categorization,0,kitchen,SHINEd_sun_aeqdocilnnpuvuhx.tif,83,0.0666666666666667,0.0666666666666667,0.883333333333333,4303.551966167,4304.417493125,9,4303.613736167,4303.675090834,4304.427083209,4305.303755167,1,0.865526958000373
301,26,1,categorization,0,kitchen,SHINEd_sun_awcpdzzznmweyyhv.tif,106,0.0666666666666667,0.0666666666666667,1.95,4305.309185667,4306.265257,9,4305.370880292,4305.43214275,4306.377032375,4308.320414084,1,0.956071333000182
301,27,1,categorization,0,bathroom,SHINEd_sun_apeeialkgkuxddgh.tif,42,0.0666666666666667,0.0666666666666667,1.25,4308.330038375,4309.113292084,13,4308.395320417,4308.464100584,4309.137212375,4310.380573125,1,0.783253708999837
301,28,1,categorization,0,bathroom,SHINEd_sun_auzqhkafidnkrwmo.tif,54,0.0666666666666667,0.0666666666666667,1.95,4310.3914245,4311.8855845,9,4310.458309834,4310.525840625,4311.916662417,4313.860037959,0,1.49416000000019
301,29,1,categorization,0,bathroom,SHINEd_labelme_sfxiulhjbhlyiyt.tif,11,0.0666666666666667,0.0666666666666667,1.91666666666667,4313.877955084,4314.5570745,13,4313.944850292,4314.012350834,4314.585683334,4316.495723709,1,0.679119416000503
301,30,1,categorization,0,kitchen,SHINEd_sun_aenotlpyftoioydp.tif,82,0.0666666666666667,0.0666666666666667,1.41666666666667,4316.517960334,4317.45928775,9,4316.585165917,4316.652245292,4317.474751875,4318.884798959,1,0.941327415999694
301,31,1,categorization,0,kitchen,SHINEd_sun_aunzlwrbjumxhwdj.tif,103,0.0666666666666667,0.0666666666666667,0.716666666666667,4318.902698375,4320.373343375,9,4318.966995,4319.114480459,4320.389963542,4321.0999685,1,1.47064500000033
301,32,1,categorization,0,bathroom,SHINEd_sun_aggnnqpdorgxpvce.tif,21,0.0666666666666667,0.0666666666666667,1.28333333333333,4321.105798584,4322.033279334,9,4321.167572042,4321.229063709,4322.047950917,4323.324661,0,0.927480750000541
301,33,1,categorization,0,bathroom,SHINEd_sun_alkosphxlxwjwgjd.tif,34,0.0666666666666667,0.0666666666666667,0.9,4323.342724542,4324.289173917,13,4323.410135834,4323.476905875,4324.316719792,4325.210058292,1,0.946449375000157
301,34,1,categorization,0,kitchen,SHINEd_sun_acxkpeoqbwcxfvip.tif,77,0.0666666666666667,0.0666666666666667,0.8,4325.216052042,4327.688284959,9,4325.277859792,4325.338921959,4327.707889709,4328.501227459,1,2.47223291699993
301,35,1,categorization,0,bathroom,SHINEd_sun_apmqjbnwghzuhhzh.tif,46,0.0666666666666667,0.0666666666666667,1.01666666666667,4328.506595167,4330.264414375,9,4328.568326584,4328.6296025,4330.282105875,4331.292150292,0,1.757819208
301,36,1,categorization,0,kitchen,SHINEd_sun_aymvwlarqodbwuoc.tif,108,0.0666666666666667,0.0666666666666667,0.85,4331.301283875,4332.788262917,9,4331.365315042,4331.433473792,4332.808479917,4333.651819209,1,1.4869790419998
301,37,1,categorization,0,bathroom,SHINEd_sun_acduarbnmmoglmiv.tif,16,0.0666666666666667,0.0666666666666667,1.51666666666667,4333.657233417,4334.425039917,13,4333.71903375,4333.780267959,4334.4321025,4335.942144417,1,0.767806500000006
301,38,1,categorization,0,bathroom,SHINEd_sun_apynckhmoftszqoq.tif,47,0.0666666666666667,0.0666666666666667,1.83333333333333,4335.959152834,4336.75292675,13,4336.026054375,4336.093549917,4336.783257917,4338.609956,1,0.793773916000646
301,39,1,categorization,0,bathroom,SHINEd_sun_awnqiikzaispgmwo.tif,56,0.0666666666666667,0.0666666666666667,0.716666666666667,4338.628610209,4339.509142625,13,4338.695260167,4338.762543834,4339.534100334,4340.244103959,1,0.880532416000278
301,40,1,categorization,0,kitchen,SHINEd_sun_akchetnepxlcxhsu.tif,98,0.0666666666666667,0.0666666666666667,0.9,4340.249912375,4341.12843125,13,4340.311581834,4340.372837542,4341.141821167,4342.035159625,0,0.878518874999827
301,41,1,categorization,0,kitchen,SHINEd_sun_aehawpgmrlhlvcow.tif,81,0.0666666666666667,0.0666666666666667,0.916666666666667,4342.039958459,4342.888891,9,4342.101712042,4342.162878209,4342.898159584,4343.808163709,1,0.848932540999158
301,42,1,categorization,0,kitchen,SHINEd_labelme_kxvouciolcpqplr.tif,62,0.0666666666666667,0.0666666666666667,0.816666666666667,4343.815102167,4344.71262775,9,4343.876904709,4343.938256584,4344.724131459,4345.534137084,1,0.897525583000061
301,43,1,categorization,0,kitchen,SHINEd_labelme_rykdqxenmhulbdn.tif,63,0.0666666666666667,0.0666666666666667,1.88333333333333,4345.538784917,4346.705038875,9,4345.600648875,4345.66184425,4346.714689167,4348.59139,1,1.1662539580002
301,44,1,categorization,0,kitchen,SHINEd_sun_aarfiyshqohlwkmo.tif,67,0.0666666666666667,0.0666666666666667,0.9,4348.610389167,4349.667638292,9,4348.677989584,4348.744405792,4349.68401875,4350.577357667,1,1.05724912500045
301,45,1,categorization,0,bathroom,SHINEd_sun_aunuadmjocsddsrl.tif,52,0.0666666666666667,0.0666666666666667,1,4350.582687917,4351.40941275,13,4350.644656625,4350.705737875,4351.4243245,4352.41766325,1,0.826724833000299
301,46,1,categorization,0,bathroom,SHINEd_sun_aqrpegblszgcoujh.tif,48,0.0666666666666667,0.0666666666666667,0.733333333333333,4352.422601,4353.137204792,13,4352.484262834,4352.545531584,4353.147297709,4353.873968709,1,0.714603792000162
301,47,1,categorization,0,kitchen,SHINEd_sun_aapllqyqlykszopd.tif,66,0.0666666666666667,0.0666666666666667,0.883333333333333,4353.879079,4354.744433334,9,4353.940955709,4354.002220875,4354.754343375,4355.631016209,1,0.865354333999676
301,48,1,categorization,0,bathroom,SHINEd_sun_abapwbhyhkfixyex.tif,14,0.0666666666666667,0.0666666666666667,1.73333333333333,4355.635901042,4356.608972542,9,4355.697584042,4355.758992417,4356.62810375,4358.354814375,0,0.973071499999605
301,49,1,categorization,0,bathroom,SHINEd_sun_ausgutylgojavyoq.tif,53,0.0666666666666667,0.0666666666666667,1.91666666666667,4358.372955667,4359.872783417,13,4358.439839167,4358.506960042,4359.892756625,4361.802788667,1,1.4998277500008
301,50,1,categorization,0,kitchen,SHINEd_sun_auticobqsbwgoppi.tif,104,0.0666666666666667,0.0666666666666667,1.35,4361.822240917,4362.7002075,9,4361.889848959,4361.956387042,4362.711196042,4364.05457625,1,0.877966582999761
301,1,2,categorization,0,bathroom,SHINEd_sun_aljolscmmzydegqp.tif,33,0.0666666666666667,0.0666666666666667,0.95,4369.717183417,4370.640948417,13,4369.779665084,4369.840232292,4370.659137375,4371.602475292,1,0.923764999999548
301,2,2,categorization,0,kitchen,SHINEd_sun_abdxkyyxwfskuaqb.tif,70,0.0666666666666667,0.0666666666666667,0.75,4371.60748125,4372.889268792,9,4371.669217917,4371.73097925,4372.900050417,4373.643389917,1,1.28178754199962
301,3,2,categorization,0,kitchen,SHINEd_sun_afuyedyxivkhecmu.tif,85,0.0666666666666667,0.0666666666666667,1.68333333333333,4373.648255834,4374.992726584,9,4373.710075042,4373.771254875,4375.007372709,4376.684084,1,1.34447074999935
301,4,2,categorization,0,kitchen,SHINEd_sun_aaxxjlsuzvqlgylf.tif,68,0.0666666666666667,0.0666666666666667,0.816666666666667,4376.703658584,4378.537351625,13,4376.770812125,4376.838008542,4378.557222375,4379.367228,0,1.83369304100052
301,5,2,categorization,0,kitchen,SHINEd_sun_aixorpehvfykdynp.tif,95,0.0666666666666667,0.0666666666666667,0.916666666666667,4379.37281875,4380.208206875,13,4379.434599667,4379.495971834,4380.215006542,4381.125012167,0,0.835388124999554
301,6,2,categorization,0,bathroom,SHINEd_sun_aapitsgbtktqubfy.tif,12,0.0666666666666667,0.0666666666666667,1.21666666666667,4381.131529334,4382.224006667,13,4381.19317125,4381.254504542,4382.24022475,4383.45026275,1,1.09247733299981
301,7,2,categorization,0,kitchen,SHINEd_sun_abftihopvusyfakt.tif,71,0.0666666666666667,0.0666666666666667,0.9,4383.467943542,4384.632943417,9,4383.53289,4383.602120084,4384.658382042,4385.551718959,1,1.16499987499992
301,8,2,categorization,0,bathroom,SHINEd_sun_axxbkopsgyouuebh.tif,58,0.0666666666666667,0.0666666666666667,1.65,4385.556572917,4386.249121667,13,4385.618234917,4385.679576167,4386.264967959,4387.908348875,1,0.692548749999332
301,9,2,categorization,0,kitchen,SHINEd_sun_abrcnpqqhmjwekyf.tif,73,0.0666666666666667,0.0666666666666667,1.15,4387.925116667,4389.0793065,9,4387.993575625,4388.059434125,4389.099733834,4390.24311525,1,1.15418983299969
301,10,2,categorization,0,kitchen,SHINEd_sun_ahljzhgcdpomplvg.tif,91,0.0666666666666667,0.0666666666666667,1.13333333333333,4390.255029292,4390.990992125,13,4390.321178834,4390.389174042,4391.01270325,4392.139411625,0,0.735962833000485
301,11,2,categorization,0,bathroom,SHINEd_sun_agyqfjcfkdcydepw.tif,25,0.0666666666666667,0.0666666666666667,1.76666666666667,4392.154421375,4392.872083959,13,4392.2163475,4392.277421209,4392.879866667,4394.639919709,1,0.717662583999299
301,12,2,categorization,0,bathroom,SHINEd_sun_aavhrsfjbserjtht.tif,13,0.0666666666666667,0.0666666666666667,1.8,4394.658880542,4395.89202675,13,4394.726354084,4394.7932845,4395.917727792,4397.711093792,1,1.23314620800011
301,13,2,categorization,0,bathroom,SHINEd_sun_amzlamotzwfkwjco.tif,37,0.0666666666666667,0.0666666666666667,0.9,4397.729742334,4398.5247915,13,4397.797174667,4397.864042209,4398.554725709,4399.448065292,1,0.795049166000354
301,14,2,categorization,0,bathroom,SHINEd_sun_aspsyogrekjtfozg.tif,50,0.0666666666666667,0.0666666666666667,0.716666666666667,4399.453889834,4400.520224917,13,4399.515546542,4399.577007959,4400.529087584,4401.239092917,1,1.06633508300001
301,15,2,categorization,0,bathroom,SHINEd_sun_alotolagknyrgtsk.tif,35,0.0666666666666667,0.0666666666666667,1.36666666666667,4401.243800584,4402.168659375,13,4401.305797292,4401.366801292,4402.185637292,4403.545668084,1,0.924858790999679
301,16,2,categorization,0,bathroom,SHINEd_sun_apkruvsevgegsdwp.tif,44,0.0666666666666667,0.0666666666666667,0.916666666666667,4403.5566085,4404.256719625,13,4403.624017417,4403.691218459,4404.281611667,4405.19166025,1,0.700111125000149
301,17,2,categorization,0,bathroom,SHINEd_sun_agguqiubmwhqqunb.tif,22,0.0666666666666667,0.0666666666666667,0.716666666666667,4405.209092084,4406.057053667,13,4405.271800209,4405.332215459,4406.067375292,4406.777378834,1,0.847961583000142
301,18,2,categorization,0,bathroom,SHINEd_sun_afcoljnjfoxjtgja.tif,20,0.0666666666666667,0.0666666666666667,0.766666666666667,4406.782254875,4407.704412042,13,4406.8440625,4406.90517525,4407.723685667,4408.483691417,1,0.922157166999568
301,19,2,categorization,0,bathroom,SHINEd_sun_abjtwfukuwddzted.tif,15,0.0666666666666667,0.0666666666666667,1.06666666666667,4408.488686792,4409.232833084,13,4408.550519959,4408.611645125,4409.247100375,4410.307136959,1,0.744146291999641
301,20,2,categorization,0,bathroom,SHINEd_sun_aclfzgynxzxlbepz.tif,19,0.0666666666666667,0.0666666666666667,0.8,4410.3166835,4411.021018209,13,4410.381497459,4410.448632917,4411.037410625,4411.83079575,1,0.70433470900025
301,21,2,categorization,0,kitchen,SHINEd_sun_aadbddgrdsjugojn.tif,64,0.0666666666666667,0.0666666666666667,0.866666666666667,4411.850335542,4412.625099459,9,4411.91798975,4411.984764917,4412.637316667,4413.497321959,1,0.7747639170002
301,22,2,categorization,0,bathroom,SHINEd_sun_anhioqovhscjqqwb.tif,38,0.0666666666666667,0.0666666666666667,1.48333333333333,4413.502226959,4414.152723042,13,4413.563856875,4413.625173709,4414.160751917,4415.637470417,1,0.65049608299978
301,23,2,categorization,0,bathroom,SHINEd_sun_ahqjwnzgolcaoidx.tif,29,0.0666666666666667,0.0666666666666667,1.1,4415.654850125,4416.712050042,13,4415.724154334,4415.789591584,4416.72876125,4417.822134167,1,1.05719991699971
301,24,2,categorization,0,bathroom,SHINEd_sun_azqyogdvyhahyram.tif,60,0.0666666666666667,0.0666666666666667,0.783333333333333,4417.834079959,4418.620209875,13,4417.899442084,4417.969502417,4418.643876167,4419.420591125,1,0.786129916000391
301,25,2,categorization,0,bathroom,SHINEd_sun_ahcvzmoyaycdoftf.tif,27,0.0666666666666667,0.0666666666666667,0.866666666666667,4419.436206584,4420.1364535,13,4419.503325417,4419.569182334,4420.155052459,4421.015057459,1,0.700246916000651
301,26,2,categorization,0,kitchen,SHINEd_sun_agzzivivdpnawacl.tif,89,0.0666666666666667,0.0666666666666667,1.83333333333333,4421.02007175,4421.920681042,9,4421.081695292,4421.143059375,4421.928516125,4423.755236292,1,0.900609291999899
301,27,2,categorization,0,bathroom,SHINEd_sun_atstyziqcmkahyxk.tif,51,0.0666666666666667,0.0666666666666667,0.7,4423.772476417,4424.444228125,13,4423.84150875,4423.906449292,4424.462791667,4425.156131125,1,0.671751708000556
301,28,2,categorization,0,bathroom,SHINEd_sun_ambriybtogmepttm.tif,36,0.0666666666666667,0.0666666666666667,1.33333333333333,4425.161910625,4426.032507959,13,4425.223835209,4425.284879,4426.0369825,4427.363700042,1,0.870597334000195
301,29,2,categorization,0,bathroom,SHINEd_sun_aofnryafpsjimzsb.tif,40,0.0666666666666667,0.0666666666666667,1.33333333333333,4427.385076667,4428.095915375,13,4427.452297834,4427.519253875,4428.126531375,4429.453240584,1,0.710838707999756
301,30,2,categorization,0,kitchen,SHINEd_sun_azmutvzbxypaceni.tif,110,0.0666666666666667,0.0666666666666667,1.38333333333333,4429.471103834,4430.347663625,9,4429.5359815,4429.603897375,4430.377316375,4431.754024167,1,0.876559790999636
301,31,2,categorization,0,kitchen,SHINEd_sun_admlmbcdswaszruo.tif,79,0.0666666666666667,0.0666666666666667,1.25,4431.771282,4432.514690209,9,4431.838569542,4431.905581084,4432.545802542,4433.7891745,1,0.743408209000336
301,32,2,categorization,0,kitchen,SHINEd_sun_ahdycvpopffkzzsu.tif,90,0.0666666666666667,0.0666666666666667,1.55,4433.807359667,4434.94136075,13,4433.876484125,4433.941389084,4434.964810417,4436.508198459,0,1.13400108299993
301,33,2,categorization,0,kitchen,SHINEd_sun_ahpczsiumwwocjkv.tif,92,0.0666666666666667,0.0666666666666667,1.61666666666667,4436.525369292,4437.40109875,9,4436.593575875,4436.65937525,4437.432988667,4439.043045375,1,0.875729458000023
301,34,2,categorization,0,bathroom,SHINEd_sun_axyrejkiiaqiurjk.tif,59,0.0666666666666667,0.0666666666666667,1.33333333333333,4439.061687459,4439.909196625,13,4439.129153209,4439.196200167,4439.936460917,4441.263167,1,0.847509166000236
301,35,2,categorization,0,kitchen,SHINEd_sun_acgtpgfybqjmzeyw.tif,75,0.0666666666666667,0.0666666666666667,0.833333333333333,4441.283969,4441.9860115,9,4441.350981625,4441.41823625,4442.006596084,4442.833298292,1,0.702042500000061
301,36,2,categorization,0,bathroom,SHINEd_sun_acegryoqftbzowsg.tif,17,0.0666666666666667,0.0666666666666667,1.45,4442.850226584,4443.912557459,9,4442.917416375,4442.984299292,4443.91986775,4445.363251792,0,1.06233087500004
301,37,2,categorization,0,bathroom,SHINEd_sun_asfwthctfqerjvxr.tif,49,0.0666666666666667,0.0666666666666667,0.933333333333333,4445.384463125,4446.164500625,13,4445.451705167,4445.519103042,4446.173260542,4447.09993375,1,0.780037499999708
301,38,2,categorization,0,bathroom,SHINEd_sun_akiytfaagpdsphgz.tif,31,0.0666666666666667,0.0666666666666667,1.65,4447.105824625,4447.863949417,13,4447.167542459,4447.228946584,4447.880694834,4449.524062125,1,0.758124791999762
301,39,2,categorization,0,kitchen,SHINEd_sun_ahywdevtimnqcsln.tif,94,0.0666666666666667,0.0666666666666667,1.23333333333333,4449.5361445,4450.315888084,9,4449.603405292,4449.670282584,4450.343103084,4451.569830042,1,0.779743584000244
301,40,2,categorization,0,kitchen,SHINEd_sun_aqeaevwwwjoqhzvl.tif,101,0.0666666666666667,0.0666666666666667,0.766666666666667,4451.581859584,4452.287793917,9,4451.648761959,4451.715946292,4452.305826125,4453.065862667,1,0.705934333000187
301,41,2,categorization,0,kitchen,SHINEd_sun_aggjlwcdjsjcaemh.tif,86,0.0666666666666667,0.0666666666666667,1.78333333333333,4453.083030959,4453.832816334,9,4453.150156125,4453.217398459,4453.852735209,4455.629447084,1,0.749785375000101
301,42,2,categorization,0,kitchen,SHINEd_sun_avszsnwsbuqfgzbn.tif,105,0.0666666666666667,0.0666666666666667,1.11666666666667,4455.645996375,4456.380745292,9,4455.714514959,4455.780138709,4456.403859209,4457.513911,1,0.734748916999706
301,43,2,categorization,0,bathroom,SHINEd_sun_axldvoqbuvuggfmq.tif,57,0.0666666666666667,0.0666666666666667,1.85,4457.52498,4458.202444875,13,4457.590175334,4457.657376459,4458.230585875,4460.073976834,1,0.677464874999714
301,44,2,categorization,0,bathroom,SHINEd_sun_acgyywnybuveqsro.tif,18,0.0666666666666667,0.0666666666666667,0.733333333333333,4460.093172584,4460.869151459,13,4460.160289209,4460.227370292,4460.9003425,4461.627019792,1,0.775978874999964
301,45,2,categorization,0,kitchen,SHINEd_sun_acwjdupvyjsugpay.tif,76,0.0666666666666667,0.0666666666666667,0.783333333333333,4461.633262542,4462.328516459,9,4461.695056875,4461.756198875,4462.341666542,4463.11833925,1,0.695253916999718
301,46,2,categorization,0,kitchen,SHINEd_sun_aexklacwqwezaorf.tif,84,0.0666666666666667,0.0666666666666667,1.5,4463.12328225,4463.864341959,9,4463.1849575,4463.246325125,4463.881817375,4465.375185334,1,0.741059709000183
301,47,2,categorization,0,kitchen,SHINEd_sun_aamedkxepzlwuxes.tif,65,0.0666666666666667,0.0666666666666667,0.733333333333333,4465.393750334,4466.110303625,9,4465.461025084,4465.527864875,4466.134661125,4466.861359834,1,0.7165532909994
301,48,2,categorization,0,bathroom,SHINEd_sun_ajlawzvmubibwbpy.tif,30,0.0666666666666667,0.0666666666666667,1.1,4466.878764584,4467.687766834,13,4466.941195125,4467.001744167,4467.703566959,4468.796936084,1,0.809002250000049
301,49,2,categorization,0,kitchen,SHINEd_sun_aegoxogugdkwpmpj.tif,80,0.0666666666666667,0.0666666666666667,1.6,4468.806944292,4469.50736325,9,4468.871912917,4468.940994542,4469.530430834,4471.123811792,1,0.700418958000228
301,50,2,categorization,0,bathroom,SHINEd_sun_aleqenyvunhactkl.tif,32,0.0666666666666667,0.0666666666666667,1.06666666666667,4471.14288225,4471.810748125,13,4471.210369125,4471.276975792,4471.833953667,4472.894001792,1,0.667865874999734
301,1,3,categorization,0,bathroom,SHINEd_sun_asfwthctfqerjvxr.tif,49,0.0666666666666667,0.0666666666666667,0.85,4477.515789667,4478.384485625,13,4477.577470375,4477.639154792,4478.391257834,4479.234594875,1,0.868695957999989
301,2,3,categorization,0,kitchen,SHINEd_sun_acxkpeoqbwcxfvip.tif,77,0.0666666666666667,0.0666666666666667,1.65,4479.239411125,4479.880835875,9,4479.301044834,4479.362322125,4479.897462209,4481.540844792,1,0.641424750000624
301,3,3,categorization,0,kitchen,SHINEd_sun_aexklacwqwezaorf.tif,84,0.0666666666666667,0.0666666666666667,0.783333333333333,4481.551938709,4482.188616209,9,4481.620620709,4481.686142042,4482.209094084,4482.985766292,1,0.636677500000587
301,4,3,categorization,0,kitchen,SHINEd_sun_abftihopvusyfakt.tif,71,0.0666666666666667,0.0666666666666667,0.933333333333333,4482.991337375,4483.680591959,9,4483.053105209,4483.114288542,4483.699531792,4484.626202834,1,0.689254584000082
301,5,3,categorization,0,kitchen,SHINEd_sun_ahljzhgcdpomplvg.tif,91,0.0666666666666667,0.0666666666666667,0.866666666666667,4484.6310545,4485.256252875,9,4484.692706709,4484.754050959,4485.272807709,4486.132812875,1,0.625198375000764
301,6,3,categorization,0,bathroom,SHINEd_sun_azqyogdvyhahyram.tif,60,0.0666666666666667,0.0666666666666667,1.11666666666667,4486.137659542,4486.75186825,13,4486.199469792,4486.260713542,4486.76253325,4487.872581209,1,0.61420870800066
301,7,3,categorization,0,kitchen,SHINEd_sun_aeqdocilnnpuvuhx.tif,83,0.0666666666666667,0.0666666666666667,0.966666666666667,4487.883158542,4488.626844334,9,4487.947785042,4488.017103875,4488.656543417,4489.616574834,1,0.743685792000178
301,8,3,categorization,0,bathroom,SHINEd_sun_afcoljnjfoxjtgja.tif,20,0.0666666666666667,0.0666666666666667,1.78333333333333,4489.632833459,4490.712231667,9,4489.699804917,4489.767379834,4490.719997292,4492.496699625,0,1.07939820800038
301,9,3,categorization,0,bathroom,SHINEd_sun_aunuadmjocsddsrl.tif,52,0.0666666666666667,0.0666666666666667,1.55,4492.511107667,4493.222552917,13,4492.57964375,4492.645197084,4493.251882167,4494.795251167,1,0.711445249999997
301,10,3,categorization,0,bathroom,SHINEd_sun_ausgutylgojavyoq.tif,53,0.0666666666666667,0.0666666666666667,1.41666666666667,4494.813652417,4495.458569959,13,4494.880060625,4494.947702167,4495.487559167,4496.897617417,1,0.644917541999348
301,11,3,categorization,0,kitchen,SHINEd_sun_aarfiyshqohlwkmo.tif,67,0.0666666666666667,0.0666666666666667,0.8,4496.917134417,4498.08506325,13,4496.983935667,4497.051190167,4498.108324417,4498.901662917,0,1.16792883299968
301,12,3,categorization,0,kitchen,SHINEd_sun_abdenxonkemggwsq.tif,69,0.0666666666666667,0.0666666666666667,1.28333333333333,4498.906754584,4499.936716792,9,4498.968693292,4499.02988025,4499.948853,4501.225575709,1,1.02996220800014
301,13,3,categorization,0,kitchen,SHINEd_sun_aamedkxepzlwuxes.tif,65,0.0666666666666667,0.0666666666666667,1.66666666666667,4501.243795875,4502.069087959,9,4501.310367584,4501.378090375,4502.082908667,4503.742948334,1,0.825292084000466
301,14,3,categorization,0,bathroom,SHINEd_sun_avhrdrntsqrjzccq.tif,55,0.0666666666666667,0.0666666666666667,1.81666666666667,4503.760136625,4504.7014805,13,4503.827294917,4503.893945709,4504.716319625,4506.526367292,1,0.941343874999802
301,15,3,categorization,0,bathroom,SHINEd_sun_aqrpegblszgcoujh.tif,48,0.0666666666666667,0.0666666666666667,1.35,4506.544893,4507.331134209,13,4506.611637084,4506.678542375,4507.352215417,4508.695598625,1,0.786241208999854
301,16,3,categorization,0,bathroom,SHINEd_sun_abjtwfukuwddzted.tif,15,0.0666666666666667,0.0666666666666667,0.916666666666667,4508.710093792,4509.355877625,13,4508.776510542,4508.844114334,4509.384302375,4510.294350334,1,0.645783832999768
301,17,3,categorization,0,bathroom,SHINEd_sun_ahqjwnzgolcaoidx.tif,29,0.0666666666666667,0.0666666666666667,0.916666666666667,4510.3129895,4510.959577459,13,4510.379389417,4510.4466035,4510.965759,4511.875762417,1,0.646587958999589
301,18,3,categorization,0,kitchen,SHINEd_sun_aypmqwcualkenuoe.tif,109,0.0666666666666667,0.0666666666666667,1.31666666666667,4511.880681584,4512.760802417,9,4511.942460917,4512.003692417,4512.772806417,4514.0828405,1,0.880120833000547
301,19,3,categorization,0,kitchen,SHINEd_sun_ahywdevtimnqcsln.tif,94,0.0666666666666667,0.0666666666666667,1.45,4514.100719,4514.873607834,9,4514.167905834,4514.235040334,4514.891382209,4516.334756042,1,0.772888833999787
301,20,3,categorization,0,bathroom,SHINEd_sun_alotolagknyrgtsk.tif,35,0.0666666666666667,0.0666666666666667,0.95,4516.354605709,4517.121482667,13,4516.421537292,4516.488665292,4517.145567292,4518.08890825,1,0.766876958000466
301,21,3,categorization,0,bathroom,SHINEd_sun_axyrejkiiaqiurjk.tif,59,0.0666666666666667,0.0666666666666667,1.38333333333333,4518.094959959,4518.8955,13,4518.156767417,4518.218036209,4518.90383775,4520.280546042,1,0.800540040999294
301,22,3,categorization,0,kitchen,SHINEd_sun_amjjdeyrggfqgmom.tif,100,0.0666666666666667,0.0666666666666667,1.16666666666667,4520.303106209,4520.953942709,9,4520.370754375,4520.436989417,4520.977213625,4522.137260334,1,0.650836499999969
301,23,3,categorization,0,kitchen,SHINEd_sun_aqeaevwwwjoqhzvl.tif,101,0.0666666666666667,0.0666666666666667,1.61666666666667,4522.15537025,4523.246944125,9,4522.222927959,4522.289681375,4523.262516417,4524.872567875,1,1.09157387499999
301,24,3,categorization,0,bathroom,SHINEd_sun_auzqhkafidnkrwmo.tif,54,0.0666666666666667,0.0666666666666667,1.38333333333333,4524.888079834,4525.485934792,13,4524.956146667,4525.022112834,4525.512311917,4526.889021584,1,0.597854958000426
301,25,3,categorization,0,bathroom,SHINEd_sun_aljolscmmzydegqp.tif,33,0.0666666666666667,0.0666666666666667,1.78333333333333,4526.907766667,4527.75050725,13,4526.97632725,4527.041986959,4527.782468125,4529.559158334,1,0.842740582999795
301,26,3,categorization,0,kitchen,SHINEd_sun_agorklincwxrdtga.tif,87,0.0666666666666667,0.0666666666666667,0.783333333333333,4529.571227167,4530.280109709,9,4529.639727709,4529.705490125,4530.312507375,4531.089180042,1,0.708882541999628
301,27,3,categorization,0,bathroom,SHINEd_sun_ajlawzvmubibwbpy.tif,30,0.0666666666666667,0.0666666666666667,1.65,4531.09432675,4531.727942875,13,4531.156162,4531.217353,4531.735830834,4533.379214209,1,0.633616125000117
301,28,3,categorization,0,bathroom,SHINEd_sun_agguqiubmwhqqunb.tif,22,0.0666666666666667,0.0666666666666667,1.86666666666667,4533.40209775,4534.365229625,13,4533.468824917,4533.53395275,4534.390698042,4536.25075625,1,0.963131874999817
301,29,3,categorization,0,bathroom,SHINEd_sun_apmqjbnwghzuhhzh.tif,46,0.0666666666666667,0.0666666666666667,1.23333333333333,4536.269459542,4536.913276375,13,4536.335765125,4536.403659,4536.943696334,4538.170407709,1,0.643816833000528
301,30,3,categorization,0,kitchen,SHINEd_sun_acwjdupvyjsugpay.tif,76,0.0666666666666667,0.0666666666666667,0.7,4538.1846685,4539.279414375,9,4538.251090334,4538.318726125,4539.309462667,4540.002841625,1,1.09474587499972
301,31,3,categorization,0,bathroom,SHINEd_sun_awnqiikzaispgmwo.tif,56,0.0666666666666667,0.0666666666666667,0.716666666666667,4540.019821167,4540.752576959,13,4540.082369167,4540.142809209,4540.761444167,4541.471450209,1,0.732755791999807
301,32,3,categorization,0,bathroom,SHINEd_sun_apkxzenqapsujocq.tif,45,0.0666666666666667,0.0666666666666667,1.05,4541.476459667,4542.383703792,13,4541.538218375,4541.599514209,4542.401723417,4543.445094,1,0.907244125000034
301,33,3,categorization,0,kitchen,SHINEd_sun_aegoxogugdkwpmpj.tif,80,0.0666666666666667,0.0666666666666667,1.1,4543.454478292,4544.383321042,13,4543.519994375,4543.587122125,4544.411182917,4545.504571667,0,0.928842749999603
301,34,3,categorization,0,kitchen,SHINEd_sun_ahspylgoovwmwvgk.tif,93,0.0666666666666667,0.0666666666666667,1.13333333333333,4545.515989584,4546.238828584,9,4545.581059917,4545.649415959,4546.255702542,4547.382402209,1,0.722839000000022
301,35,3,categorization,0,kitchen,SHINEd_sun_aapllqyqlykszopd.tif,66,0.0666666666666667,0.0666666666666667,1.38333333333333,4547.401565417,4548.111355167,9,4547.469791709,4547.534297334,4548.119876917,4549.496585334,1,0.7097897499998
301,36,3,categorization,0,bathroom,SHINEd_sun_axldvoqbuvuggfmq.tif,57,0.0666666666666667,0.0666666666666667,1.5,4549.516772584,4550.503226709,13,4549.584641834,4549.651837542,4550.526106209,4552.01947925,1,0.986454124999909
301,37,3,categorization,0,bathroom,SHINEd_sun_ambriybtogmepttm.tif,36,0.0666666666666667,0.0666666666666667,1.61666666666667,4552.034501834,4552.740445125,13,4552.10188575,4552.1689805,4552.759633584,4554.369667834,1,0.70594329100004
301,38,3,categorization,0,bathroom,SHINEd_sun_alkosphxlxwjwgjd.tif,34,0.0666666666666667,0.0666666666666667,0.983333333333333,4554.388295167,4555.004092,13,4554.45637875,4554.522304042,4555.029592667,4556.006263667,1,0.615796832999877
301,39,3,categorization,0,bathroom,SHINEd_sun_ahcvzmoyaycdoftf.tif,27,0.0666666666666667,0.0666666666666667,1.3,4556.014124459,4556.648197375,13,4556.075855209,4556.137215375,4556.655613125,4557.948989417,1,0.634072915999241
301,40,3,categorization,0,kitchen,SHINEd_sun_aggjlwcdjsjcaemh.tif,86,0.0666666666666667,0.0666666666666667,1.03333333333333,4557.966781417,4559.2367695,9,4558.033554292,4558.101131,4559.260308,4560.287012,1,1.2699880830005
301,41,3,categorization,0,kitchen,SHINEd_sun_aadbddgrdsjugojn.tif,64,0.0666666666666667,0.0666666666666667,1.45,4560.297867959,4561.033093209,9,4560.362640834,4560.430360667,4561.053455959,4562.496827209,1,0.73522525000044
301,42,3,categorization,0,kitchen,SHINEd_sun_awcpdzzznmweyyhv.tif,106,0.0666666666666667,0.0666666666666667,1.23333333333333,4562.51189925,4563.369026,13,4562.578608667,4562.646440584,4563.384374375,4564.611093875,0,0.857126750000134
301,43,3,categorization,0,bathroom,SHINEd_sun_amzlamotzwfkwjco.tif,37,0.0666666666666667,0.0666666666666667,1.26666666666667,4564.628813709,4565.437492625,13,4564.695464584,4564.762603167,4565.45162225,4566.711663084,1,0.808678916000645
301,44,3,categorization,0,bathroom,SHINEd_sun_apjevzvycyhuqghb.tif,43,0.0666666666666667,0.0666666666666667,1.03333333333333,4566.723340917,4567.666286792,13,4566.790279542,4566.857095584,4567.67889475,4568.705614209,1,0.942945875000078
301,45,3,categorization,0,bathroom,SHINEd_sun_aoybiabnpadelefl.tif,41,0.0666666666666667,0.0666666666666667,1.31666666666667,4568.723534084,4569.423920584,13,4568.786464084,4568.846590417,4569.431845459,4570.741900375,1,0.700386500000604
301,46,3,categorization,0,kitchen,SHINEd_sun_axyyrmzcupyhlivc.tif,107,0.0666666666666667,0.0666666666666667,1.7,4570.759017167,4571.598955667,9,4570.827770084,4570.892710084,4571.615391667,4573.308770917,1,0.839938500000244
301,47,3,categorization,0,kitchen,SHINEd_sun_aymvwlarqodbwuoc.tif,108,0.0666666666666667,0.0666666666666667,1.35,4573.326668834,4573.897705417,13,4573.39506625,4573.460408917,4573.916882459,4575.260264459,0,0.571036583000023
301,48,3,categorization,0,kitchen,SHINEd_sun_aixorpehvfykdynp.tif,95,0.0666666666666667,0.0666666666666667,0.8,4575.277636584,4576.091347167,13,4575.344436584,4575.411965834,4576.118857125,4576.912243584,0,0.813710583000102
301,49,3,categorization,0,kitchen,SHINEd_sun_acfmftudsenhrfhy.tif,74,0.0666666666666667,0.0666666666666667,0.766666666666667,4576.929160542,4578.135827459,9,4576.996364,4577.054529125,4578.140618959,4578.900624959,1,1.20666691699989
301,50,3,categorization,0,kitchen,SHINEd_sun_agubuxuukhzyzpdp.tif,88,0.0666666666666667,0.0666666666666667,1.38333333333333,4578.9054115,4579.567449292,9,4578.967213959,4579.028434917,4579.580185084,4580.956895792,1,0.662037791999865
