sub_num,trial,block,task,is_practice,category,image,texture,duration,mask_dur,jitter,stim_time,time_of_resp,trial_response,mask_time,fix_time,jit_onset,trial_end,trial_accuracy,RT
115,6,0,typicality,1,kitchen,kitchen_practice2.tif,227,1.5,0,0.966666666666667,12903.873361334,12908.037097459,5,NaN,12908.058498709,12908.079738,12909.039947292,NaN,NaN
115,7,0,typicality,1,kitchen,kitchen_practice5.tif,230,1.5,0,1.58333333333333,12909.051494667,12911.840898542,5,NaN,12911.881858334,12911.905602584,12913.482332375,NaN,NaN
115,8,0,typicality,1,kitchen,kitchen_practice1.tif,226,1.5,0,1.03333333333333,12913.509063209,12916.0843555,3,NaN,12916.090837834,12916.109442209,12917.136163417,NaN,NaN
115,9,0,typicality,1,kitchen,kitchen_practice4.tif,229,1.5,0,1.68333333333333,12917.157569959,12920.40540475,3,NaN,12920.412198917,12920.430524,12922.107246459,NaN,NaN
115,10,0,typicality,1,kitchen,kitchen_practice3.tif,228,1.5,0,1.45,12922.140886542,12925.257197209,4,NaN,12925.299341667,12925.321981542,12926.765364375,NaN,NaN
115,1,1,typicality,0,kitchen,sun_agubuxuukhzyzpdp.tif,198,1.5,0,0.733333333333333,12932.215321917,12935.868199667,4,NaN,12935.874416709,12935.892853292,12936.619524167,NaN,NaN
115,2,1,typicality,0,kitchen,sun_ahpczsiumwwocjkv.tif,202,1.5,0,1.18333333333333,12936.623849542,12939.694202834,4,NaN,12939.719218334,12939.743152709,12940.919856584,NaN,NaN
115,3,1,typicality,0,kitchen,sun_aapllqyqlykszopd.tif,176,1.5,0,0.7,12940.93162725,12944.372460875,5,NaN,12944.378159167,12944.39650425,12945.089843542,NaN,NaN
115,4,1,typicality,0,kitchen,sun_auaiucuqpdausiva.tif,212,1.5,0,1.2,12945.094209875,12948.604774375,2,NaN,12948.612509,12948.630750834,12949.824115,NaN,NaN
115,5,1,typicality,0,kitchen,sun_adgqasybjyktddhj.tif,188,1.5,0,0.966666666666667,12949.837376875,12953.004832375,6,NaN,12953.010300167,12953.028745917,12953.988751292,NaN,NaN
115,6,1,typicality,0,kitchen,sun_aaxxjlsuzvqlgylf.tif,178,1.5,0,1.3,12953.993651334,12957.684220084,4,NaN,12957.690034459,12957.70855125,12959.001924334,NaN,NaN
115,7,1,typicality,0,kitchen,labelme_kxvouciolcpqplr.tif,172,1.5,0,1.65,12959.014464,12962.02836975,4,NaN,12962.034135875,12962.052595834,12963.695964792,NaN,NaN
115,8,1,typicality,0,kitchen,sun_amjjdeyrggfqgmom.tif,210,1.5,0,1.63333333333333,12963.715481834,12966.116439792,2,NaN,12966.140842959,12966.163476584,12967.790192875,NaN,NaN
115,9,1,typicality,0,kitchen,sun_acfmftudsenhrfhy.tif,184,1.5,0,0.9,12967.802848,12970.780268042,4,NaN,12970.785955625,12970.804382375,12971.697720917,NaN,NaN
115,10,1,typicality,0,kitchen,sun_aypmqwcualkenuoe.tif,219,1.5,0,0.95,12971.702461417,12974.552582459,5,NaN,12974.580790834,12974.605184875,12975.548522875,NaN,NaN
115,11,1,typicality,0,kitchen,sun_avszsnwsbuqfgzbn.tif,215,1.5,0,0.816666666666667,12975.55356775,12978.482974584,3,NaN,12978.504933792,12978.530911292,12979.3409165,NaN,NaN
115,12,1,typicality,0,kitchen,sun_aarfiyshqohlwkmo.tif,177,1.5,0,1.96666666666667,12979.345814667,12982.003418834,4,NaN,12982.030490125,12982.053598459,12984.013648,NaN,NaN
115,13,1,typicality,0,kitchen,sun_aeqdocilnnpuvuhx.tif,193,1.5,0,0.783333333333333,12984.032720959,12987.868524959,4,NaN,12987.8741175,12987.892469292,12988.669141417,NaN,NaN
115,14,1,typicality,0,kitchen,sun_ahdycvpopffkzzsu.tif,200,1.5,0,0.733333333333333,12988.673809375,12991.34847175,6,NaN,12991.370295334,12991.393768459,12992.12044,NaN,NaN
115,15,1,typicality,0,kitchen,sun_acgtpgfybqjmzeyw.tif,185,1.5,0,1.9,12992.125369959,12994.943951542,7,NaN,12994.972590417,12994.996223709,12996.889612042,NaN,NaN
115,16,1,typicality,0,kitchen,sun_aqeaevwwwjoqhzvl.tif,211,1.5,0,0.75,12996.909960375,13000.292232042,3,NaN,13000.298019417,13000.316422125,13001.059759584,NaN,NaN
115,17,1,typicality,0,kitchen,sun_aenotlpyftoioydp.tif,192,1.5,0,0.916666666666667,13001.064557667,13004.02435575,2,NaN,13004.0493535,13004.071010584,13004.98101575,NaN,NaN
115,18,1,typicality,0,kitchen,sun_ajkqhtgcbgpcwrwn.tif,207,1.5,0,0.733333333333333,13004.985877084,13008.220285375,5,NaN,13008.226944875,13008.246095584,13008.972766334,NaN,NaN
115,19,1,typicality,0,kitchen,sun_acxkpeoqbwcxfvip.tif,187,1.5,0,1.81666666666667,13008.977289292,13012.932938459,4,NaN,13012.938249917,13012.956611042,13014.7666585,NaN,NaN
115,20,1,typicality,0,kitchen,labelme_rykdqxenmhulbdn.tif,173,1.5,0,1.16666666666667,13014.785725209,13017.88593175,3,NaN,13017.912171667,13017.933764709,13019.0937985,NaN,NaN
115,21,1,typicality,0,kitchen,sun_agorklincwxrdtga.tif,197,1.5,0,1.81666666666667,13019.105979417,13021.868912584,5,NaN,13021.874271292,13021.892592584,13023.7026375,NaN,NaN
115,22,1,typicality,0,kitchen,sun_aexklacwqwezaorf.tif,194,1.5,0,1.35,13023.71942925,13026.564543917,3,NaN,13026.586241375,13026.60838675,13027.95176,NaN,NaN
115,23,1,typicality,0,kitchen,sun_ahywdevtimnqcsln.tif,204,1.5,0,1.25,13027.971478667,13030.564359209,5,NaN,13030.569795,13030.588142334,13031.831513792,NaN,NaN
115,24,1,typicality,0,kitchen,sun_aamedkxepzlwuxes.tif,175,1.5,0,1.05,13031.84856,13034.891836084,4,NaN,13034.897625625,13034.9160175,13035.959389042,NaN,NaN
115,25,1,typicality,0,kitchen,sun_ajcbwwvdlsvjyzje.tif,206,1.5,0,0.916666666666667,13035.971112542,13040.052343167,5,NaN,13040.057766709,13040.0759625,13040.985967417,NaN,NaN
115,1,2,typicality,0,kitchen,sun_awcpdzzznmweyyhv.tif,216,1.5,0,1.56666666666667,13045.7925085,13048.702173792,4,NaN,13048.723834792,13048.745125667,13050.305179209,NaN,NaN
115,2,2,typicality,0,kitchen,sun_aegoxogugdkwpmpj.tif,190,1.5,0,0.883333333333333,13050.324050292,13053.412207834,4,NaN,13053.417784542,13053.436176125,13054.312846584,NaN,NaN
115,3,2,typicality,0,kitchen,sun_aixorpehvfykdynp.tif,205,1.5,0,0.75,13054.317244625,13056.924380334,5,NaN,13056.946856959,13056.96870775,13057.712050209,NaN,NaN
115,4,2,typicality,0,kitchen,sun_aehawpgmrlhlvcow.tif,191,1.5,0,1.23333333333333,13057.717687959,13060.607937125,4,NaN,13060.6325075,13060.656560334,13061.883276625,NaN,NaN
115,5,2,typicality,0,kitchen,sun_acwjdupvyjsugpay.tif,186,1.5,0,0.85,13061.901506709,13064.732166084,6,NaN,13064.737688625,13064.756109417,13065.599449292,NaN,NaN
115,6,2,typicality,0,kitchen,labelme_brsyyvweiuaazfr.tif,171,1.5,0,0.916666666666667,13065.604689917,13068.428912125,5,NaN,13068.457057084,13068.479679959,13069.38968625,NaN,NaN
115,7,2,typicality,0,kitchen,sun_akchetnepxlcxhsu.tif,208,1.5,0,1.75,13069.395941875,13072.155452417,7,NaN,13072.183720709,13072.207322667,13073.950711834,NaN,NaN
115,8,2,typicality,0,kitchen,sun_ahljzhgcdpomplvg.tif,201,1.5,0,1.43333333333333,13073.970795167,13076.797678042,6,NaN,13076.8225985,13076.846773375,13078.273491084,NaN,NaN
115,9,2,typicality,0,kitchen,sun_abpwyqmlzafvklqo.tif,182,1.5,0,0.783333333333333,13078.29301875,13080.987818084,6,NaN,13080.993067542,13081.011367,13081.788038042,NaN,NaN
115,10,2,typicality,0,kitchen,sun_axyyrmzcupyhlivc.tif,217,1.5,0,1.76666666666667,13081.79259625,13084.480546084,6,NaN,13084.5076175,13084.531586625,13086.2916285,NaN,NaN
115,11,2,typicality,0,kitchen,sun_auticobqsbwgoppi.tif,214,1.5,0,1.78333333333333,13086.310760042,13089.119442625,7,NaN,13089.141960875,13089.164196375,13090.940907209,NaN,NaN
115,12,2,typicality,0,kitchen,sun_aymvwlarqodbwuoc.tif,218,1.5,0,1.85,13090.95949075,13093.607625334,3,NaN,13093.635353084,13093.658482584,13095.501852792,NaN,NaN
115,13,2,typicality,0,kitchen,sun_ahspylgoovwmwvgk.tif,203,1.5,0,1.18333333333333,13095.521789209,13098.46803025,4,NaN,13098.493374667,13098.516736417,13099.693429125,NaN,NaN
115,14,2,typicality,0,kitchen,sun_aggjlwcdjsjcaemh.tif,196,1.5,0,1.01666666666667,13099.706595334,13102.419933209,5,NaN,13102.42547,13102.444448875,13103.45449275,NaN,NaN
115,15,2,typicality,0,kitchen,sun_aunzlwrbjumxhwdj.tif,213,1.5,0,1.65,13103.463590209,13106.579796834,5,NaN,13106.585178792,13106.60349975,13108.246881917,NaN,NaN
115,16,2,typicality,0,kitchen,sun_abrcnpqqhmjwekyf.tif,183,1.5,0,1.83333333333333,13108.267252209,13111.419532042,5,NaN,13111.446791584,13111.470658959,13113.297381584,NaN,NaN
115,17,2,typicality,0,kitchen,sun_agzzivivdpnawacl.tif,199,1.5,0,1.58333333333333,13113.309840875,13116.464503709,5,NaN,13116.492640417,13116.51532575,13118.092028167,NaN,NaN
115,18,2,typicality,0,kitchen,sun_abftihopvusyfakt.tif,181,1.5,0,1.85,13118.112230459,13120.8634335,4,NaN,13120.891884,13120.915487084,13122.758859292,NaN,NaN
115,19,2,typicality,0,kitchen,sun_afuyedyxivkhecmu.tif,195,1.5,0,0.766666666666667,13122.778572792,13125.571308334,2,NaN,13125.590479042,13125.612018375,13126.372029,NaN,NaN
115,20,2,typicality,0,kitchen,sun_aadbddgrdsjugojn.tif,174,1.5,0,0.716666666666667,13126.378482875,13129.464337584,3,NaN,13129.480528625,13129.500769042,13130.210773709,NaN,NaN
115,21,2,typicality,0,kitchen,sun_azmutvzbxypaceni.tif,220,1.5,0,1.38333333333333,13130.227223625,13133.148529334,4,NaN,13133.173705584,13133.196787,13134.573504125,NaN,NaN
115,22,2,typicality,0,kitchen,sun_abdxkyyxwfskuaqb.tif,180,1.5,0,0.866666666666667,13134.593703292,13137.981041084,3,NaN,13137.986973459,13138.005271167,13138.865277209,NaN,NaN
115,23,2,typicality,0,kitchen,sun_akcjzhbbjlbogpdi.tif,209,1.5,0,1.4,13138.876940042,13141.68768575,4,NaN,13141.716203042,13141.739774875,13143.133156709,NaN,NaN
115,24,2,typicality,0,kitchen,sun_admlmbcdswaszruo.tif,189,1.5,0,1,13143.14602325,13146.028021084,4,NaN,13146.033354709,13146.051703834,13147.045042334,NaN,NaN
115,25,2,typicality,0,kitchen,sun_abdenxonkemggwsq.tif,179,1.5,0,1.28333333333333,13147.050114334,13150.2434305,4,NaN,13150.249545625,13150.267883334,13151.5445895,NaN,NaN
