sub_num,trial,block,task,is_practice,category,image,texture,duration,mask_dur,jitter,stim_time,time_of_resp,trial_response,mask_time,fix_time,jit_onset,trial_end,trial_accuracy,RT
140,1,10,categorization,0,bathroom,SHINEd_sun_ambriybtogmepttm.tif,36,0.0666666666666667,0.0666666666666667,1.61666666666667,1886.475237,1887.3478655,9,1886.53730675,1886.597931416,1887.366430541,1888.976479958,0,0.872628499999792
140,2,10,categorization,0,kitchen,SHINEd_sun_akchetnepxlcxhsu.tif,98,0.0666666666666667,0.0666666666666667,0.833333333333333,1888.995171541,1889.706321083,13,1889.061712,1889.128097208,1889.735794666,1890.562465625,0,0.71114954199993
140,3,10,categorization,0,bathroom,SHINEd_sun_ausgutylgojavyoq.tif,53,0.0666666666666667,0.0666666666666667,0.916666666666667,1890.568209541,1891.2122905,9,1890.629966375,1890.690978291,1891.226107083,1892.136111541,0,0.644080959000121
140,4,10,categorization,0,kitchen,SHINEd_sun_afuyedyxivkhecmu.tif,85,0.0666666666666667,0.0666666666666667,1.58333333333333,1892.140812875,1892.7407715,9,1892.20243525,1892.263525375,1892.748671833,1894.325395041,1,0.599958624999999
140,5,10,categorization,0,bathroom,SHINEd_sun_apkruvsevgegsdwp.tif,44,0.0666666666666667,0.0666666666666667,1.38333333333333,1894.342979875,1895.02423925,13,1894.409863166,1894.475763666,1895.049471833,1896.426179958,1,0.681259374999854
140,6,10,categorization,0,kitchen,SHINEd_sun_amjjdeyrggfqgmom.tif,100,0.0666666666666667,0.0666666666666667,1.53333333333333,1896.44398325,1897.065153375,9,1896.509142166,1896.571838083,1897.094915916,1898.621614083,1,0.621170124999935
140,7,10,categorization,0,bathroom,SHINEd_sun_anryaplzeujmzfkd.tif,39,0.0666666666666667,0.0666666666666667,0.833333333333333,1898.632455125,1899.200448583,13,1898.699310916,1898.765152875,1899.221973625,1900.048673875,1,0.567993458000046
140,8,10,categorization,0,bathroom,SHINEd_sun_acegryoqftbzowsg.tif,17,0.0666666666666667,0.0666666666666667,1.88333333333333,1900.0651445,1901.020085208,13,1900.1312455,1900.197627958,1901.033045541,1902.909748166,1,0.954940707999867
140,9,10,categorization,0,kitchen,SHINEd_sun_abrcnpqqhmjwekyf.tif,73,0.0666666666666667,0.0666666666666667,0.833333333333333,1902.926817208,1903.532425625,9,1902.992988,1903.059578166,1903.548890041,1904.375561958,1,0.605608416999985
140,10,10,categorization,0,bathroom,SHINEd_sun_acduarbnmmoglmiv.tif,16,0.0666666666666667,0.0666666666666667,1.4,1904.380533166,1905.340129458,13,1904.442294458,1904.50329075,1905.355224125,1906.748575416,1,0.959596292000015
140,11,10,categorization,0,bathroom,SHINEd_sun_alkosphxlxwjwgjd.tif,34,0.0666666666666667,0.0666666666666667,0.95,1906.75853525,1907.399442666,13,1906.825681458,1906.891525166,1907.415269791,1908.358648041,1,0.640907415999891
140,12,10,categorization,0,kitchen,SHINEd_sun_ahspylgoovwmwvgk.tif,93,0.0666666666666667,0.0666666666666667,1.16666666666667,1908.377066166,1908.980782458,9,1908.440055458,1908.499849166,1908.985043,1910.1450995,1,0.603716291999945
140,13,10,categorization,0,kitchen,SHINEd_sun_admlmbcdswaszruo.tif,79,0.0666666666666667,0.0666666666666667,1.8,1910.156719833,1910.742658541,9,1910.223464458,1910.289484166,1910.762601458,1912.555971458,1,0.585938708000185
140,14,10,categorization,0,bathroom,SHINEd_sun_alotolagknyrgtsk.tif,35,0.0666666666666667,0.0666666666666667,1.53333333333333,1912.57031475,1913.575682625,9,1912.635924041,1912.701015625,1913.59006875,1915.116779916,0,1.00536787499982
140,15,10,categorization,0,kitchen,SHINEd_sun_aexklacwqwezaorf.tif,84,0.0666666666666667,0.0666666666666667,1.48333333333333,1915.133926375,1915.845966625,9,1915.200686333,1915.268141375,1915.874871666,1917.351579583,1,0.712040249999973
140,16,10,categorization,0,bathroom,SHINEd_sun_agrwbmhcpmfuwmsg.tif,24,0.0666666666666667,0.0666666666666667,0.783333333333333,1917.369780083,1918.128679375,13,1917.437004416,1917.502958625,1918.141430541,1918.918140166,1,0.758899292000024
140,17,10,categorization,0,kitchen,SHINEd_labelme_rykdqxenmhulbdn.tif,63,0.0666666666666667,0.0666666666666667,1.8,1918.935869708,1919.740503125,9,1919.001359458,1919.060063208,1919.74537975,1921.538770708,1,0.804633417000105
140,18,10,categorization,0,bathroom,SHINEd_sun_aghyqhbptboemmoq.tif,23,0.0666666666666667,0.0666666666666667,1.76666666666667,1921.556094708,1922.404663208,13,1921.623042458,1921.689002041,1922.429330541,1924.189379541,1,0.848568500000056
140,19,10,categorization,0,bathroom,SHINEd_sun_agguqiubmwhqqunb.tif,22,0.0666666666666667,0.0666666666666667,1.96666666666667,1924.207084458,1925.092496125,9,1924.273955583,1924.339590375,1925.11316,1927.073202666,0,0.885411666999971
140,20,10,categorization,0,kitchen,SHINEd_sun_abdxkyyxwfskuaqb.tif,70,0.0666666666666667,0.0666666666666667,0.783333333333333,1927.093128083,1927.842240833,9,1927.159955083,1927.225608375,1927.866055333,1928.642727375,1,0.749112749999995
140,21,10,categorization,0,bathroom,SHINEd_sun_ahqjwnzgolcaoidx.tif,29,0.0666666666666667,0.0666666666666667,1.03333333333333,1928.647577166,1929.2846025,9,1928.709265,1928.770396916,1929.288872666,1930.315602,0,0.637025333999873
140,22,10,categorization,0,bathroom,SHINEd_sun_auzqhkafidnkrwmo.tif,54,0.0666666666666667,0.0666666666666667,0.916666666666667,1930.324518041,1930.932793416,9,1930.388530041,1930.455868,1930.9622705,1931.872312708,0,0.608275375000176
140,23,10,categorization,0,kitchen,SHINEd_sun_abpwyqmlzafvklqo.tif,72,0.0666666666666667,0.0666666666666667,1.66666666666667,1931.888152166,1932.397064041,9,1931.95468225,1932.020623125,1932.406412333,1934.066458291,1,0.508911874999967
140,24,10,categorization,0,bathroom,SHINEd_sun_atstyziqcmkahyxk.tif,51,0.0666666666666667,0.0666666666666667,1.76666666666667,1934.086159666,1934.380280875,9,1934.15284,1934.2192635,1934.409602458,1936.16965575,0,0.294121208999968
140,25,10,categorization,0,bathroom,SHINEd_sun_azqyogdvyhahyram.tif,60,0.0666666666666667,0.0666666666666667,1.15,1936.188909833,1936.999236166,13,1936.255769083,1936.321809375,1937.028979125,1938.172365416,1,0.810326332999921
140,26,10,categorization,0,kitchen,SHINEd_sun_ajcbwwvdlsvjyzje.tif,96,0.0666666666666667,0.0666666666666667,0.883333333333333,1938.181500791,1939.43914625,9,1938.248066083,1938.313866166,1939.454258541,1940.330932291,1,1.25764545900006
140,27,10,categorization,0,kitchen,SHINEd_sun_aeqdocilnnpuvuhx.tif,83,0.0666666666666667,0.0666666666666667,0.733333333333333,1940.3356995,1942.084540958,9,1940.397553541,1940.458369166,1942.094021041,1942.820691291,1,1.74884145800002
140,28,10,categorization,0,kitchen,SHINEd_sun_aymvwlarqodbwuoc.tif,108,0.0666666666666667,0.0666666666666667,1.71666666666667,1942.825672375,1944.043949041,13,1942.887372041,1942.948371,1944.05057675,1945.760629166,0,1.21827666599984
140,29,10,categorization,0,kitchen,SHINEd_sun_agzzivivdpnawacl.tif,89,0.0666666666666667,0.0666666666666667,1.86666666666667,1945.780125916,1946.549403875,13,1945.847129916,1945.912942416,1946.568131791,1948.428174458,0,0.769277958999965
140,30,10,categorization,0,bathroom,SHINEd_sun_aleqenyvunhactkl.tif,32,0.0666666666666667,0.0666666666666667,1.5,1948.4470465,1949.484868833,13,1948.51206275,1948.575649333,1949.496429791,1950.989800583,1,1.03782233300012
140,31,10,categorization,0,kitchen,SHINEd_sun_abftihopvusyfakt.tif,71,0.0666666666666667,0.0666666666666667,1.61666666666667,1951.007295958,1952.417937875,13,1951.074263583,1951.14062575,1952.450439958,1954.060492833,0,1.41064191700002
140,32,10,categorization,0,kitchen,SHINEd_sun_aqeaevwwwjoqhzvl.tif,101,0.0666666666666667,0.0666666666666667,0.95,1954.078907125,1954.60690675,9,1954.146097791,1954.211825166,1954.616335333,1955.559678208,1,0.52799962500012
140,33,10,categorization,0,kitchen,SHINEd_labelme_kxvouciolcpqplr.tif,62,0.0666666666666667,0.0666666666666667,0.8,1955.565753666,1956.29209725,13,1955.627545583,1955.688318166,1956.306845708,1957.100184291,0,0.726343584000006
140,34,10,categorization,0,bathroom,SHINEd_sun_agyqfjcfkdcydepw.tif,25,0.0666666666666667,0.0666666666666667,0.783333333333333,1957.105052291,1958.164315625,9,1957.166675125,1957.227651541,1958.179347541,1958.956019166,0,1.05926333399998
140,35,10,categorization,0,bathroom,SHINEd_sun_aavhrsfjbserjtht.tif,13,0.0666666666666667,0.0666666666666667,1.36666666666667,1958.9607145,1959.852523833,9,1959.022437166,1959.083342458,1959.868628375,1961.228659958,0,0.891809333000083
140,36,10,categorization,0,bathroom,SHINEd_sun_axyrejkiiaqiurjk.tif,59,0.0666666666666667,0.0666666666666667,0.816666666666667,1961.245400291,1962.197165791,9,1961.31205775,1961.378719875,1962.218675291,1963.028679666,0,0.951765500000192
140,37,10,categorization,0,kitchen,SHINEd_sun_auticobqsbwgoppi.tif,104,0.0666666666666667,0.0666666666666667,1.81666666666667,1963.034071625,1963.667675,9,1963.095744875,1963.156721208,1963.675211583,1965.485256875,1,0.633603374999893
140,38,10,categorization,0,kitchen,SHINEd_sun_aamedkxepzlwuxes.tif,65,0.0666666666666667,0.0666666666666667,0.9,1965.503220791,1966.492685208,9,1965.570445833,1965.636166583,1966.507692791,1967.401032583,1,0.989464416999908
140,39,10,categorization,0,bathroom,SHINEd_sun_ahcvzmoyaycdoftf.tif,27,0.0666666666666667,0.0666666666666667,1.48333333333333,1967.405899916,1967.844676291,9,1967.467732875,1967.528585791,1967.863605208,1969.340329125,0,0.438776375000089
140,40,10,categorization,0,bathroom,SHINEd_sun_apeeialkgkuxddgh.tif,42,0.0666666666666667,0.0666666666666667,1.28333333333333,1969.358944625,1969.703917416,9,1969.425537791,1969.491948083,1969.733309041,1971.00998725,0,0.344972790999918
140,41,10,categorization,0,kitchen,SHINEd_sun_acwjdupvyjsugpay.tif,76,0.0666666666666667,0.0666666666666667,0.983333333333333,1971.019478541,1971.78298875,9,1971.084055625,1971.149423333,1971.805423666,1972.782124208,1,0.76351020900006
140,42,10,categorization,0,kitchen,SHINEd_sun_aapllqyqlykszopd.tif,66,0.0666666666666667,0.0666666666666667,1.31666666666667,1972.797008916,1973.371923625,9,1972.864154916,1972.926896666,1973.378727375,1974.688769916,1,0.574914708999813
140,43,10,categorization,0,kitchen,SHINEd_sun_akcjzhbbjlbogpdi.tif,99,0.0666666666666667,0.0666666666666667,0.716666666666667,1974.703680416,1975.579756541,13,1974.770173,1974.836305,1975.591331666,1976.301386958,0,0.876076125000054
140,44,10,categorization,0,bathroom,SHINEd_sun_anhioqovhscjqqwb.tif,38,0.0666666666666667,0.0666666666666667,1.51666666666667,1976.319577208,1976.923636916,13,1976.386108583,1976.4438965,1976.92916825,1978.43921475,1,0.604059708000023
140,45,10,categorization,0,bathroom,SHINEd_sun_aunuadmjocsddsrl.tif,52,0.0666666666666667,0.0666666666666667,0.833333333333333,1978.453895541,1979.216689458,13,1978.5203645,1978.581301666,1979.237331,1980.064005791,1,0.762793916999954
140,46,10,categorization,0,kitchen,SHINEd_sun_aadbddgrdsjugojn.tif,64,0.0666666666666667,0.0666666666666667,1.28333333333333,1980.070082041,1981.611972791,9,1980.131782375,1980.1926365,1981.628338666,1982.905044833,1,1.54189074999999
140,47,10,categorization,0,kitchen,SHINEd_sun_aehawpgmrlhlvcow.tif,81,0.0666666666666667,0.0666666666666667,0.783333333333333,1982.91975,1984.396633791,13,1982.987084708,1983.052604041,1984.429472291,1985.206143416,0,1.47688379100009
140,48,10,categorization,0,bathroom,SHINEd_sun_acgyywnybuveqsro.tif,18,0.0666666666666667,0.0666666666666667,1.23333333333333,1985.211135583,1985.892340416,13,1985.272869166,1985.333845375,1985.90226575,1987.12898,1,0.681204833000038
140,49,10,categorization,0,kitchen,SHINEd_sun_agorklincwxrdtga.tif,87,0.0666666666666667,0.0666666666666667,1.46666666666667,1987.148003208,1988.353294708,13,1987.214770666,1987.280451291,1988.370278458,1989.830317875,0,1.20529149999993
140,50,10,categorization,0,kitchen,SHINEd_sun_aypmqwcualkenuoe.tif,109,0.0666666666666667,0.0666666666666667,1.56666666666667,1989.848380083,1990.77685725,13,1989.914017666,1989.9812125,1990.804797166,1992.36484,0,0.928477166999983
