sub_num,trial,block,task,is_practice,category,image,texture,duration,mask_dur,jitter,stim_time,time_of_resp,trial_response,mask_time,fix_time,jit_onset,trial_end,trial_accuracy,RT
103,6,0,aesthetic,1,kitchen,kitchen_practice2.tif,227,1.5,0,1.08333333333333,3370.794467833,3373.924766125,5,NaN,3373.931749041,3373.950460291,3375.027232083,NaN,NaN
103,7,0,aesthetic,1,kitchen,kitchen_practice1.tif,226,1.5,0,1.06666666666667,3375.0361645,3378.836340041,4,NaN,3378.841984541,3378.860318666,3379.920380666,NaN,NaN
103,8,0,aesthetic,1,kitchen,kitchen_practice4.tif,229,1.5,0,1.11666666666667,3379.927964458,3383.771662958,5,NaN,3383.777552041,3383.795869458,3384.905973625,NaN,NaN
103,9,0,aesthetic,1,kitchen,kitchen_practice3.tif,228,1.5,0,0.95,3384.914069708,3387.571874375,6,NaN,3387.577621833,3387.595919,3388.539263166,NaN,NaN
103,10,0,aesthetic,1,kitchen,kitchen_practice5.tif,230,1.5,0,0.9,3388.5438,3391.08158275,6,NaN,3391.11027625,3391.133637375,3392.026978625,NaN,NaN
103,1,1,aesthetic,0,kitchen,sun_ahljzhgcdpomplvg.tif,201,1.5,0,1.48333333333333,3396.583782875,3399.624534583,6,NaN,3399.652998166,3399.67555975,3401.152314291,NaN,NaN
103,2,1,aesthetic,0,kitchen,sun_afuyedyxivkhecmu.tif,195,1.5,0,1.46666666666667,3401.170528958,3403.859616166,3,NaN,3403.86530725,3403.883750041,3405.343828583,NaN,NaN
103,3,1,aesthetic,0,kitchen,sun_adgqasybjyktddhj.tif,188,1.5,0,0.766666666666667,3405.359679375,3408.452059916,4,NaN,3408.45749525,3408.475844958,3409.23585375,NaN,NaN
103,4,1,aesthetic,0,kitchen,sun_ahpczsiumwwocjkv.tif,202,1.5,0,1.16666666666667,3409.240176708,3412.010916541,6,NaN,3412.038708041,3412.060679041,3413.22078025,NaN,NaN
103,5,1,aesthetic,0,kitchen,sun_agorklincwxrdtga.tif,197,1.5,0,1.6,3413.229561958,3416.747377875,6,NaN,3416.753366291,3416.771673458,3418.365096083,NaN,NaN
103,6,1,aesthetic,0,kitchen,sun_auaiucuqpdausiva.tif,212,1.5,0,1.68333333333333,3418.384334208,3421.379095708,5,NaN,3421.408341541,3421.431498416,3423.108270583,NaN,NaN
103,7,1,aesthetic,0,kitchen,sun_aapllqyqlykszopd.tif,176,1.5,0,1.5,3423.12563225,3425.667079791,3,NaN,3425.695654458,3425.719108166,3427.212542958,NaN,NaN
103,8,1,aesthetic,0,kitchen,sun_awcpdzzznmweyyhv.tif,216,1.5,0,0.833333333333333,3427.229773041,3429.883715791,3,NaN,3429.889506416,3429.907836041,3430.734511416,NaN,NaN
103,9,1,aesthetic,0,kitchen,sun_aadbddgrdsjugojn.tif,174,1.5,0,0.9,3430.74995625,3434.379899833,4,NaN,3434.385336416,3434.403644208,3435.296988958,NaN,NaN
103,10,1,aesthetic,0,kitchen,sun_aegoxogugdkwpmpj.tif,190,1.5,0,0.933333333333333,3435.301589875,3438.094723,2,NaN,3438.11345875,3438.136751291,3439.063428625,NaN,NaN
103,11,1,aesthetic,0,kitchen,sun_abrcnpqqhmjwekyf.tif,183,1.5,0,0.9,3439.068660333,3442.275770166,5,NaN,3442.283023916,3442.301280333,3443.194620833,NaN,NaN
103,12,1,aesthetic,0,kitchen,sun_avszsnwsbuqfgzbn.tif,215,1.5,0,0.85,3443.199036583,3445.812748541,4,NaN,3445.841080166,3445.864388708,3446.707731041,NaN,NaN
103,13,1,aesthetic,0,kitchen,labelme_kxvouciolcpqplr.tif,172,1.5,0,1.83333333333333,3446.716556291,3449.851483291,3,NaN,3449.857912791,3449.876299291,3451.703050041,NaN,NaN
103,14,1,aesthetic,0,kitchen,sun_agzzivivdpnawacl.tif,199,1.5,0,0.733333333333333,3451.719104583,3454.694764666,3,NaN,3454.723460541,3454.746649416,3455.473327791,NaN,NaN
103,15,1,aesthetic,0,kitchen,sun_aunzlwrbjumxhwdj.tif,213,1.5,0,1.63333333333333,3455.4778565,3458.370957625,1,NaN,3458.400179916,3458.423396125,3460.050105833,NaN,NaN
103,16,1,aesthetic,0,kitchen,sun_aymvwlarqodbwuoc.tif,218,1.5,0,0.766666666666667,3460.063782458,3463.295132125,3,NaN,3463.324482958,3463.347788083,3464.107797875,NaN,NaN
103,17,1,aesthetic,0,kitchen,sun_abpwyqmlzafvklqo.tif,182,1.5,0,1.71666666666667,3464.112693416,3467.572200541,3,NaN,3467.577692625,3467.59595225,3469.306019166,NaN,NaN
103,18,1,aesthetic,0,kitchen,sun_abdxkyyxwfskuaqb.tif,180,1.5,0,1.51666666666667,3469.322813166,3472.319031958,4,NaN,3472.348338333,3472.371347458,3473.881457,NaN,NaN
103,19,1,aesthetic,0,kitchen,sun_aaxxjlsuzvqlgylf.tif,178,1.5,0,1.25,3473.897075875,3477.060169291,6,NaN,3477.065777833,3477.084954458,3478.328391041,NaN,NaN
103,20,1,aesthetic,0,kitchen,sun_azmutvzbxypaceni.tif,220,1.5,0,1.41666666666667,3478.346508041,3481.635594375,6,NaN,3481.641313875,3481.659565333,3483.069671541,NaN,NaN
103,21,1,aesthetic,0,kitchen,sun_axyyrmzcupyhlivc.tif,217,1.5,0,1.1,3483.086967291,3485.875440333,7,NaN,3485.881160458,3485.899488416,3486.992886583,NaN,NaN
103,22,1,aesthetic,0,kitchen,sun_ajkqhtgcbgpcwrwn.tif,207,1.5,0,0.95,3487.001855291,3490.083234833,2,NaN,3490.089364791,3490.107871416,3491.051213625,NaN,NaN
103,23,1,aesthetic,0,kitchen,sun_aamedkxepzlwuxes.tif,175,1.5,0,1.45,3491.05560075,3493.876627291,2,NaN,3493.905533333,3493.928856625,3495.372277833,NaN,NaN
103,24,1,aesthetic,0,kitchen,sun_akcjzhbbjlbogpdi.tif,209,1.5,0,0.883333333333333,3495.386956458,3498.283241,2,NaN,3498.289080333,3498.307417541,3499.184092458,NaN,NaN
103,25,1,aesthetic,0,kitchen,sun_ahywdevtimnqcsln.tif,204,1.5,0,1.23333333333333,3499.188532625,3501.795193583,3,NaN,3501.823468708,3501.846804791,3503.073535541,NaN,NaN
103,1,2,aesthetic,0,kitchen,sun_aeqdocilnnpuvuhx.tif,193,1.5,0,1.78333333333333,3507.519455083,3510.819391291,3,NaN,3510.82515925,3510.843526083,3512.620269541,NaN,NaN
103,2,2,aesthetic,0,kitchen,sun_aggjlwcdjsjcaemh.tif,196,1.5,0,1.8,3512.63771825,3515.686710875,3,NaN,3515.7155535,3515.738675375,3517.532079166,NaN,NaN
103,3,2,aesthetic,0,kitchen,sun_aixorpehvfykdynp.tif,205,1.5,0,0.8,3517.550249333,3520.8010305,4,NaN,3520.829776708,3520.851102458,3521.644445166,NaN,NaN
103,4,2,aesthetic,0,kitchen,sun_acfmftudsenhrfhy.tif,184,1.5,0,1.01666666666667,3521.649264333,3525.443656458,4,NaN,3525.449122666,3525.467573375,3526.47763275,NaN,NaN
103,5,2,aesthetic,0,kitchen,sun_acxkpeoqbwcxfvip.tif,187,1.5,0,0.85,3526.486346458,3529.627924875,4,NaN,3529.633387708,3529.6515215,3530.494863958,NaN,NaN
103,6,2,aesthetic,0,kitchen,sun_admlmbcdswaszruo.tif,189,1.5,0,1.83333333333333,3530.499195375,3533.446735291,7,NaN,3533.475371541,3533.497951833,3535.324709041,NaN,NaN
103,7,2,aesthetic,0,kitchen,sun_aexklacwqwezaorf.tif,194,1.5,0,1.11666666666667,3535.343849,3538.802819333,4,NaN,3538.808849916,3538.8272155,3539.937296625,NaN,NaN
103,8,2,aesthetic,0,kitchen,sun_agubuxuukhzyzpdp.tif,198,1.5,0,1.88333333333333,3539.945278416,3542.387586708,2,NaN,3542.39306325,3542.411380833,3544.288143625,NaN,NaN
103,9,2,aesthetic,0,kitchen,sun_aypmqwcualkenuoe.tif,219,1.5,0,0.916666666666667,3544.305076791,3547.811329708,4,NaN,3547.816917583,3547.835106,3548.745115666,NaN,NaN
103,10,2,aesthetic,0,kitchen,labelme_rykdqxenmhulbdn.tif,173,1.5,0,1.05,3548.751054916,3551.446018208,1,NaN,3551.472200666,3551.495345625,3552.538801583,NaN,NaN
103,11,2,aesthetic,0,kitchen,sun_aqeaevwwwjoqhzvl.tif,211,1.5,0,1.35,3552.548077791,3555.395193208,2,NaN,3555.400821416,3555.41903125,3556.762454416,NaN,NaN
103,12,2,aesthetic,0,kitchen,sun_ahspylgoovwmwvgk.tif,203,1.5,0,1.01666666666667,3556.779458583,3559.466777416,7,NaN,3559.472716791,3559.491080416,3560.501156916,NaN,NaN
103,13,2,aesthetic,0,kitchen,sun_aehawpgmrlhlvcow.tif,191,1.5,0,2,3560.508600708,3563.0831105,7,NaN,3563.088715041,3563.107052458,3565.100486458,NaN,NaN
103,14,2,aesthetic,0,kitchen,sun_ahdycvpopffkzzsu.tif,200,1.5,0,0.9,3565.119551041,3568.140555208,3,NaN,3568.169624125,3568.193203666,3569.086547166,NaN,NaN
103,15,2,aesthetic,0,kitchen,sun_akchetnepxlcxhsu.tif,208,1.5,0,1.15,3569.091079,3572.7073225,2,NaN,3572.712931208,3572.731216083,3573.874609458,NaN,NaN
103,16,2,aesthetic,0,kitchen,sun_abdenxonkemggwsq.tif,179,1.5,0,1.23333333333333,3573.884824083,3577.043433625,2,NaN,3577.049230083,3577.067461541,3578.294200458,NaN,NaN
103,17,2,aesthetic,0,kitchen,sun_ajcbwwvdlsvjyzje.tif,206,1.5,0,1.03333333333333,3578.312850958,3580.987483875,3,NaN,3580.993012416,3581.011266916,3582.037991,NaN,NaN
103,18,2,aesthetic,0,kitchen,sun_acgtpgfybqjmzeyw.tif,185,1.5,0,0.783333333333333,3582.045981125,3585.034799583,3,NaN,3585.040793416,3585.059139625,3585.835814791,NaN,NaN
103,19,2,aesthetic,0,kitchen,sun_acwjdupvyjsugpay.tif,186,1.5,0,0.766666666666667,3585.840247625,3588.61853825,4,NaN,3588.647564625,3588.670399583,3589.430409625,NaN,NaN
103,20,2,aesthetic,0,kitchen,sun_auticobqsbwgoppi.tif,214,1.5,0,1.18333333333333,3589.4352225,3592.522535583,2,NaN,3592.531380041,3592.550327208,3593.727029833,NaN,NaN
103,21,2,aesthetic,0,kitchen,sun_aenotlpyftoioydp.tif,192,1.5,0,0.7,3593.738054875,3596.443640916,2,NaN,3596.449242458,3596.467400083,3597.160744833,NaN,NaN
103,22,2,aesthetic,0,kitchen,labelme_brsyyvweiuaazfr.tif,171,1.5,0,0.7,3597.165118166,3600.116775291,2,NaN,3600.144112916,3600.167631583,3600.860974333,NaN,NaN
103,23,2,aesthetic,0,kitchen,sun_abftihopvusyfakt.tif,181,1.5,0,1.55,3600.865647416,3603.791931291,5,NaN,3603.820177041,3603.843257791,3605.38669775,NaN,NaN
103,24,2,aesthetic,0,kitchen,sun_aarfiyshqohlwkmo.tif,177,1.5,0,1.16666666666667,3605.404772708,3608.299406041,3,NaN,3608.304875875,3608.3231645,3609.483268541,NaN,NaN
103,25,2,aesthetic,0,kitchen,sun_amjjdeyrggfqgmom.tif,210,1.5,0,1.68333333333333,3609.494435625,3612.955180375,5,NaN,3612.960788833,3612.979055208,3614.65581725,NaN,NaN
