sub_num,trial,block,task,is_practice,category,image,texture,duration,mask_dur,jitter,stim_time,time_of_resp,trial_response,mask_time,fix_time,jit_onset,trial_end,trial_accuracy,RT
137,1,0,usability,1,bathroom,bathroom_practice3.tif,223,1.5,0,0.983333333333333,1651.725634666,1656.19570625,6,NaN,1656.201930875,1656.220731666,1657.1974565,NaN,NaN
137,2,0,usability,1,bathroom,bathroom_practice4.tif,224,1.5,0,1.78333333333333,1657.20229275,1659.7880415,6,NaN,1659.816851166,1659.840248708,1661.617179083,NaN,NaN
137,3,0,usability,1,bathroom,bathroom_practice5.tif,225,1.5,0,1.78333333333333,1661.6365745,1667.8189445,4,NaN,1667.824755666,1667.84333375,1669.620042291,NaN,NaN
137,4,0,usability,1,bathroom,bathroom_practice2.tif,222,1.5,0,1.26666666666667,1669.637822666,1673.611383041,1,NaN,1673.616842666,1673.635335666,1674.895385166,NaN,NaN
137,5,0,usability,1,bathroom,bathroom_practice1.tif,221,1.5,0,1.05,1674.910092125,1678.22695425,6,NaN,1678.232714583,1678.250988291,1679.294356,NaN,NaN
137,1,1,usability,0,bathroom,sun_apynckhmoftszqoq.tif,157,1.5,0,1.01666666666667,1684.688069,1687.899482291,7,NaN,1687.906159,1687.924629708,1688.934660416,NaN,NaN
137,2,1,usability,0,bathroom,sun_avhrdrntsqrjzccq.tif,165,1.5,0,1.61666666666667,1688.942785333,1694.546929541,3,NaN,1694.55280825,1694.571107125,1696.181156625,NaN,NaN
137,3,1,usability,0,bathroom,sun_apkxzenqapsujocq.tif,155,1.5,0,1.16666666666667,1696.195764,1698.8567465,4,NaN,1698.884702583,1698.908003125,1700.068044458,NaN,NaN
137,4,1,usability,0,bathroom,sun_aoybiabnpadelefl.tif,151,1.5,0,0.983333333333333,1700.078809166,1703.827127291,3,NaN,1703.83264575,1703.8510885,1704.827761291,NaN,NaN
137,5,1,usability,0,bathroom,sun_aggnnqpdorgxpvce.tif,131,1.5,0,0.783333333333333,1704.832260833,1709.187725,3,NaN,1709.193314041,1709.211595291,1709.988267958,NaN,NaN
137,6,1,usability,0,bathroom,sun_ambriybtogmepttm.tif,146,1.5,0,0.816666666666667,1709.992724416,1715.458607583,2,NaN,1715.46476975,1715.48310625,1716.29310975,NaN,NaN
137,7,1,usability,0,bathroom,sun_agrwbmhcpmfuwmsg.tif,134,1.5,0,1.1,1716.297593916,1719.210565708,1,NaN,1719.238939666,1719.261997083,1720.355384125,NaN,NaN
137,8,1,usability,0,bathroom,sun_amzlamotzwfkwjco.tif,147,1.5,0,1.65,1720.364612666,1723.851448416,4,NaN,1723.857021958,1723.875326,1725.518715,NaN,NaN
137,9,1,usability,0,bathroom,sun_afcoljnjfoxjtgja.tif,130,1.5,0,1.13333333333333,1725.535776041,1728.350311583,4,NaN,1728.374809041,1728.395757625,1729.522462833,NaN,NaN
137,10,1,usability,0,bathroom,sun_aofnryafpsjimzsb.tif,150,1.5,0,0.766666666666667,1729.53041825,1733.299360833,5,NaN,1733.304762375,1733.323062625,1734.083066958,NaN,NaN
137,11,1,usability,0,bathroom,sun_apeeialkgkuxddgh.tif,152,1.5,0,1.25,1734.087433416,1736.852296875,7,NaN,1736.880957458,1736.904252208,1738.14762025,NaN,NaN
137,12,1,usability,0,bathroom,sun_aavhrsfjbserjtht.tif,123,1.5,0,1.5,1738.162675041,1741.819302416,4,NaN,1741.824769083,1741.843216375,1743.336593166,NaN,NaN
137,13,1,usability,0,bathroom,labelme_sfxiulhjbhlyiyt.tif,121,1.5,0,1.56666666666667,1743.355180125,1747.290922666,4,NaN,1747.296757166,1747.314939125,1748.874997625,NaN,NaN
137,14,1,usability,0,bathroom,sun_alkosphxlxwjwgjd.tif,144,1.5,0,1.45,1748.893556833,1752.546596416,3,NaN,1752.552442,1752.57097975,1754.014361583,NaN,NaN
137,15,1,usability,0,bathroom,sun_atstyziqcmkahyxk.tif,161,1.5,0,1.53333333333333,1754.031624666,1756.5388975,7,NaN,1756.5444935,1756.562724,1758.089446625,NaN,NaN
137,16,1,usability,0,bathroom,sun_aleqenyvunhactkl.tif,142,1.5,0,0.8,1758.107495833,1760.858933208,5,NaN,1760.864579125,1760.88298675,1761.676325333,NaN,NaN
137,17,1,usability,0,bathroom,sun_ahaulkltgpkeeemi.tif,136,1.5,0,0.933333333333333,1761.680597791,1766.042432041,6,NaN,1766.048395833,1766.066812625,1766.993484625,NaN,NaN
137,18,1,usability,0,bathroom,sun_aljolscmmzydegqp.tif,143,1.5,0,1.75,1766.998025333,1769.582664125,1,NaN,1769.612512958,1769.63552525,1771.378893375,NaN,NaN
137,19,1,usability,0,bathroom,sun_ahijqszoswveeyji.tif,138,1.5,0,1.48333333333333,1771.396627708,1775.602452333,6,NaN,1775.6084145,1775.626782458,1777.103487208,NaN,NaN
137,20,1,usability,0,bathroom,sun_aclfzgynxzxlbepz.tif,129,1.5,0,1.03333333333333,1777.121078541,1780.930510458,7,NaN,1780.936238041,1780.954598791,1781.981312166,NaN,NaN
137,21,1,usability,0,bathroom,sun_alotolagknyrgtsk.tif,145,1.5,0,1.23333333333333,1781.991967291,1785.539296291,2,NaN,1785.544732708,1785.563060291,1786.78977,NaN,NaN
137,22,1,usability,0,bathroom,sun_axxbkopsgyouuebh.tif,168,1.5,0,1.28333333333333,1786.804951166,1789.723143791,7,NaN,1789.728712291,1789.747102625,1791.023824375,NaN,NaN
137,23,1,usability,0,bathroom,sun_ahcvzmoyaycdoftf.tif,137,1.5,0,1.66666666666667,1791.042708833,1794.811108125,6,NaN,1794.816799,1794.835095208,1796.495145291,NaN,NaN
137,24,1,usability,0,bathroom,sun_aghyqhbptboemmoq.tif,133,1.5,0,1.26666666666667,1796.512950625,1801.011235125,5,NaN,1801.016754416,1801.035078416,1802.295121708,NaN,NaN
137,25,1,usability,0,bathroom,sun_awnqiikzaispgmwo.tif,166,1.5,0,1.4,1802.312743125,1805.474972041,6,NaN,1805.480718083,1805.499143916,1806.892525458,NaN,NaN
137,1,2,usability,0,bathroom,sun_abjtwfukuwddzted.tif,125,1.5,0,1.66666666666667,1811.201318833,1813.910423666,7,NaN,1813.9382955,1813.961211916,1815.621256666,NaN,NaN
137,2,2,usability,0,bathroom,sun_aqrpegblszgcoujh.tif,158,1.5,0,1.85,1815.638528958,1819.706552125,6,NaN,1819.712276375,1819.730541291,1821.573927083,NaN,NaN
137,3,2,usability,0,bathroom,sun_acgyywnybuveqsro.tif,128,1.5,0,1.65,1821.591917125,1824.742504125,5,NaN,1824.771488833,1824.794522083,1826.437898125,NaN,NaN
137,4,2,usability,0,bathroom,sun_azqyogdvyhahyram.tif,170,1.5,0,0.95,1826.450805333,1829.76173525,7,NaN,1829.788321291,1829.811803791,1830.755142333,NaN,NaN
137,5,2,usability,0,bathroom,sun_apmqjbnwghzuhhzh.tif,156,1.5,0,0.783333333333333,1830.760488125,1833.767526666,5,NaN,1833.7959055,1833.819001083,1834.595673458,NaN,NaN
137,6,2,usability,0,bathroom,sun_ajlawzvmubibwbpy.tif,140,1.5,0,1.13333333333333,1834.60024875,1838.314302041,5,NaN,1838.320276166,1838.338545666,1839.465262166,NaN,NaN
137,7,2,usability,0,bathroom,sun_akiytfaagpdsphgz.tif,141,1.5,0,1.63333333333333,1839.473239666,1842.490665125,3,NaN,1842.496241125,1842.514571708,1844.141275375,NaN,NaN
137,8,2,usability,0,bathroom,sun_acduarbnmmoglmiv.tif,126,1.5,0,1.2,1844.158624958,1846.8115235,1,NaN,1846.83913475,1846.862258,1848.055633875,NaN,NaN
137,9,2,usability,0,bathroom,sun_ahqjwnzgolcaoidx.tif,139,1.5,0,1.71666666666667,1848.068163625,1850.682515125,6,NaN,1850.688170625,1850.706772875,1852.416807416,NaN,NaN
137,10,2,usability,0,bathroom,sun_asfwthctfqerjvxr.tif,159,1.5,0,0.9,1852.431771125,1855.042737833,3,NaN,1855.071329166,1855.0941185,1855.987456,NaN,NaN
137,11,2,usability,0,bathroom,sun_apjevzvycyhuqghb.tif,153,1.5,0,0.9,1855.992036333,1859.065664791,4,NaN,1859.094934333,1859.117088958,1860.010426916,NaN,NaN
137,12,2,usability,0,bathroom,sun_agguqiubmwhqqunb.tif,132,1.5,0,0.766666666666667,1860.015029958,1864.79432225,3,NaN,1864.800156875,1864.818496625,1865.5785015,NaN,NaN
137,13,2,usability,0,bathroom,sun_acegryoqftbzowsg.tif,127,1.5,0,0.966666666666667,1865.582774958,1870.642346,4,NaN,1870.648185041,1870.666558583,1871.626563333,NaN,NaN
137,14,2,usability,0,bathroom,sun_apkruvsevgegsdwp.tif,154,1.5,0,0.7,1871.6311485,1874.755117416,7,NaN,1874.762284958,1874.780666666,1875.474003625,NaN,NaN
137,15,2,usability,0,bathroom,sun_aunuadmjocsddsrl.tif,162,1.5,0,1.1,1875.478634833,1879.178326541,7,NaN,1879.183922416,1879.202235041,1880.29561275,NaN,NaN
137,16,2,usability,0,bathroom,sun_axyrejkiiaqiurjk.tif,169,1.5,0,1.33333333333333,1880.303416333,1883.395063791,4,NaN,1883.400582291,1883.418911583,1884.745613,NaN,NaN
137,17,2,usability,0,bathroom,sun_ausgutylgojavyoq.tif,163,1.5,0,1.15,1884.762483791,1887.618624125,7,NaN,1887.624081333,1887.642652666,1888.786032291,NaN,NaN
137,18,2,usability,0,bathroom,sun_aapitsgbtktqubfy.tif,122,1.5,0,1.28333333333333,1888.79559125,1895.066223583,4,NaN,1895.0726025,1895.091208833,1896.367906666,NaN,NaN
137,19,2,usability,0,bathroom,sun_agyqfjcfkdcydepw.tif,135,1.5,0,1.35,1896.378615333,1899.874614083,1,NaN,1899.880034541,1899.89839575,1901.241790875,NaN,NaN
137,20,2,usability,0,bathroom,sun_abapwbhyhkfixyex.tif,124,1.5,0,1.43333333333333,1901.260308625,1906.490436916,3,NaN,1906.496209,1906.514543416,1907.941261208,NaN,NaN
137,21,2,usability,0,bathroom,sun_auzqhkafidnkrwmo.tif,164,1.5,0,0.916666666666667,1907.958378458,1914.315046166,3,NaN,1914.320607875,1914.338959875,1915.248965833,NaN,NaN
137,22,2,usability,0,bathroom,sun_anryaplzeujmzfkd.tif,149,1.5,0,0.766666666666667,1915.253434833,1918.539008291,5,NaN,1918.544475166,1918.562723083,1919.322727791,NaN,NaN
137,23,2,usability,0,bathroom,sun_anhioqovhscjqqwb.tif,148,1.5,0,0.866666666666667,1919.327048375,1922.196462541,4,NaN,1922.220259958,1922.241963541,1923.101967125,NaN,NaN
137,24,2,usability,0,bathroom,sun_axldvoqbuvuggfmq.tif,167,1.5,0,0.833333333333333,1923.106495791,1926.169692375,6,NaN,1926.193467458,1926.213370458,1927.040041166,NaN,NaN
137,25,2,usability,0,bathroom,sun_aspsyogrekjtfozg.tif,160,1.5,0,0.75,1927.044732083,1930.103773958,2,NaN,1930.118612291,1930.137840875,1930.881178833,NaN,NaN
