sub_num,trial,block,task,is_practice,category,image,texture,duration,mask_dur,jitter,stim_time,time_of_resp,trial_response,mask_time,fix_time,jit_onset,trial_end,trial_accuracy,RT
120,6,0,complexity,1,kitchen,kitchen_practice5.tif,230,1.5,0,1.46666666666667,4637.630869416,4641.231272791,3,NaN,4641.237018125,4641.255757916,4642.715855541,NaN,NaN
120,7,0,complexity,1,kitchen,kitchen_practice2.tif,227,1.5,0,1.31666666666667,4642.733139625,4645.303143708,6,NaN,4645.308771333,4645.327142833,4646.637248166,NaN,NaN
120,8,0,complexity,1,kitchen,kitchen_practice4.tif,229,1.5,0,1.76666666666667,4646.654984125,4649.503618083,6,NaN,4649.509206375,4649.527552708,4651.287640125,NaN,NaN
120,9,0,complexity,1,kitchen,kitchen_practice1.tif,226,1.5,0,0.816666666666667,4651.305575083,4654.274202166,5,NaN,4654.3035675,4654.326700583,4655.136712125,NaN,NaN
120,10,0,complexity,1,kitchen,kitchen_practice3.tif,228,1.5,0,0.9,4655.141999958,4658.082949583,4,NaN,4658.111919041,4658.135217041,4659.028560416,NaN,NaN
120,1,1,complexity,0,kitchen,sun_avszsnwsbuqfgzbn.tif,215,1.5,0,1.15,4665.267539583,4669.334776875,6,NaN,4669.340681833,4669.35892225,4670.502351416,NaN,NaN
120,2,1,complexity,0,kitchen,sun_ahpczsiumwwocjkv.tif,202,1.5,0,1.33333333333333,4670.5120785,4676.239686333,4,NaN,4676.245103958,4676.263440083,4677.59018625,NaN,NaN
120,3,1,complexity,0,kitchen,sun_aeqdocilnnpuvuhx.tif,193,1.5,0,1.75,4677.610190833,4691.7749565,3,NaN,4691.781642458,4691.800036708,4693.543456833,NaN,NaN
120,4,1,complexity,0,kitchen,sun_ahywdevtimnqcsln.tif,204,1.5,0,1.2,4693.562595958,4698.391080875,3,NaN,4698.396624416,4698.414983083,4699.608392666,NaN,NaN
120,5,1,complexity,0,kitchen,sun_aqeaevwwwjoqhzvl.tif,211,1.5,0,1.46666666666667,4699.618348666,4711.535388291,4,NaN,4711.540882791,4711.559248583,4713.019309833,NaN,NaN
120,6,1,complexity,0,kitchen,sun_aehawpgmrlhlvcow.tif,191,1.5,0,1.01666666666667,4713.030242375,4715.599335875,5,NaN,4715.604864125,4715.623386083,4716.633466125,NaN,NaN
120,7,1,complexity,0,kitchen,sun_agorklincwxrdtga.tif,197,1.5,0,1.18333333333333,4716.641399,4723.070842333,5,NaN,4723.07654375,4723.094965666,4724.271729,NaN,NaN
120,8,1,complexity,0,kitchen,sun_agzzivivdpnawacl.tif,199,1.5,0,1.03333333333333,4724.283866416,4727.262603583,3,NaN,4727.268584708,4727.286936833,4728.313682375,NaN,NaN
120,9,1,complexity,0,kitchen,sun_acfmftudsenhrfhy.tif,184,1.5,0,1.25,4728.340081083,4734.478817375,5,NaN,4734.484510083,4734.50281625,4735.746249916,NaN,NaN
120,10,1,complexity,0,kitchen,sun_aarfiyshqohlwkmo.tif,177,1.5,0,0.733333333333333,4735.764862291,4741.33459475,4,NaN,4741.34053225,4741.358762208,4742.085438583,NaN,NaN
120,11,1,complexity,0,kitchen,labelme_rykdqxenmhulbdn.tif,173,1.5,0,1.01666666666667,4742.090930416,4744.706789583,3,NaN,4744.735920375,4744.759419125,4745.7694935,NaN,NaN
120,12,1,complexity,0,kitchen,sun_aexklacwqwezaorf.tif,194,1.5,0,1.53333333333333,4745.790333791,4756.014778916,3,NaN,4756.020471041,4756.038771125,4757.565504958,NaN,NaN
120,13,1,complexity,0,kitchen,sun_aunzlwrbjumxhwdj.tif,213,1.5,0,1.33333333333333,4757.585502458,4764.943253208,3,NaN,4764.949564708,4764.96802775,4766.294789833,NaN,NaN
120,14,1,complexity,0,kitchen,sun_ahljzhgcdpomplvg.tif,201,1.5,0,1.53333333333333,4766.313299333,4770.44639525,3,NaN,4770.452292041,4770.470618333,4771.997355125,NaN,NaN
120,15,1,complexity,0,kitchen,labelme_kxvouciolcpqplr.tif,172,1.5,0,1.01666666666667,4772.015896166,4783.03109225,3,NaN,4783.036711833,4783.055127416,4784.06518675,NaN,NaN
120,16,1,complexity,0,kitchen,sun_awcpdzzznmweyyhv.tif,216,1.5,0,1.23333333333333,4784.075391416,4802.646385208,3,NaN,4802.652780166,4802.671161708,4803.897902875,NaN,NaN
120,17,1,complexity,0,kitchen,sun_aaxxjlsuzvqlgylf.tif,178,1.5,0,1.18333333333333,4803.913026291,4810.854530875,4,NaN,4810.8603365,4810.878770791,4812.055494625,NaN,NaN
120,18,1,complexity,0,kitchen,sun_aamedkxepzlwuxes.tif,175,1.5,0,0.783333333333333,4812.067566,4816.822856291,4,NaN,4816.828977791,4816.847628875,4817.624306791,NaN,NaN
120,19,1,complexity,0,kitchen,sun_ajcbwwvdlsvjyzje.tif,206,1.5,0,1.73333333333333,4817.638981166,4820.426239083,5,NaN,4820.456520833,4820.477714333,4822.204468875,NaN,NaN
120,20,1,complexity,0,kitchen,sun_azmutvzbxypaceni.tif,220,1.5,0,1.21666666666667,4822.220437,4826.55024875,4,NaN,4826.55592475,4826.574304916,4827.784400416,NaN,NaN
120,21,1,complexity,0,kitchen,sun_acxkpeoqbwcxfvip.tif,187,1.5,0,1.26666666666667,4827.800924916,4833.542334916,4,NaN,4833.5479,4833.5661175,4834.826181166,NaN,NaN
120,22,1,complexity,0,kitchen,sun_aggjlwcdjsjcaemh.tif,196,1.5,0,0.783333333333333,4834.840192166,4839.822223541,3,NaN,4839.828472,4839.846777708,4840.623455041,NaN,NaN
120,23,1,complexity,0,kitchen,sun_aadbddgrdsjugojn.tif,174,1.5,0,1.48333333333333,4840.638916625,4845.054997041,4,NaN,4845.060740208,4845.079261083,4846.556019,NaN,NaN
120,24,1,complexity,0,kitchen,sun_acwjdupvyjsugpay.tif,186,1.5,0,1.36666666666667,4846.578178458,4854.238426625,4,NaN,4854.244732458,4854.26338025,4855.6234415,NaN,NaN
120,25,1,complexity,0,kitchen,sun_auticobqsbwgoppi.tif,214,1.5,0,0.983333333333333,4855.642196791,4860.590452,2,NaN,4860.5960725,4860.614456333,4861.591133291,NaN,NaN
120,1,2,complexity,0,kitchen,sun_aixorpehvfykdynp.tif,205,1.5,0,1.26666666666667,4867.298915291,4871.110567708,3,NaN,4871.116311791,4871.134708416,4872.394774416,NaN,NaN
120,2,2,complexity,0,kitchen,sun_aypmqwcualkenuoe.tif,219,1.5,0,1.11666666666667,4872.413387291,4876.214398208,7,NaN,4876.220370166,4876.239105375,4877.349210833,NaN,NaN
120,3,2,complexity,0,kitchen,sun_aymvwlarqodbwuoc.tif,218,1.5,0,1.43333333333333,4877.357743125,4879.742662083,6,NaN,4879.748222583,4879.766566125,4881.193322083,NaN,NaN
120,4,2,complexity,0,kitchen,sun_amjjdeyrggfqgmom.tif,210,1.5,0,0.8,4881.208292166,4884.222219583,3,NaN,4884.227890666,4884.246215125,4885.039556,NaN,NaN
120,5,2,complexity,0,kitchen,sun_akcjzhbbjlbogpdi.tif,209,1.5,0,0.733333333333333,4885.043768,4892.893817291,3,NaN,4892.900203583,4892.918627041,4893.6453015,NaN,NaN
120,6,2,complexity,0,kitchen,sun_abdxkyyxwfskuaqb.tif,180,1.5,0,1.03333333333333,4893.649904083,4909.877711333,3,NaN,4909.884354291,4909.902728708,4910.929452291,NaN,NaN
120,7,2,complexity,0,kitchen,sun_acgtpgfybqjmzeyw.tif,185,1.5,0,1.56666666666667,4910.937234291,4919.454227666,3,NaN,4919.459888083,4919.478189583,4921.038218625,NaN,NaN
120,8,2,complexity,0,kitchen,sun_ahdycvpopffkzzsu.tif,200,1.5,0,0.866666666666667,4921.04767425,4927.014680125,3,NaN,4927.020541208,4927.03888675,4927.898895166,NaN,NaN
120,9,2,complexity,0,kitchen,sun_ajkqhtgcbgpcwrwn.tif,207,1.5,0,0.716666666666667,4927.903162291,4930.521303041,3,NaN,4930.550060416,4930.573239208,4931.283247208,NaN,NaN
120,10,2,complexity,0,kitchen,sun_agubuxuukhzyzpdp.tif,198,1.5,0,1.33333333333333,4931.287982,4934.358828125,5,NaN,4934.369396958,4934.388611041,4935.715371208,NaN,NaN
120,11,2,complexity,0,kitchen,sun_aegoxogugdkwpmpj.tif,190,1.5,0,1.01666666666667,4935.732726875,4938.38970325,4,NaN,4938.395685875,4938.414063083,4939.424126875,NaN,NaN
120,12,2,complexity,0,kitchen,sun_aenotlpyftoioydp.tif,192,1.5,0,0.733333333333333,4939.432485041,4942.862678291,3,NaN,4942.868210666,4942.88645825,4943.613135375,NaN,NaN
120,13,2,complexity,0,kitchen,sun_auaiucuqpdausiva.tif,212,1.5,0,1.38333333333333,4943.621865625,4946.331298208,5,NaN,4946.359375291,4946.382507958,4947.7592715,NaN,NaN
120,14,2,complexity,0,kitchen,sun_aapllqyqlykszopd.tif,176,1.5,0,1.06666666666667,4947.771969291,4954.406396583,4,NaN,4954.412557833,4954.431173125,4955.491254125,NaN,NaN
120,15,2,complexity,0,kitchen,sun_adgqasybjyktddhj.tif,188,1.5,0,0.85,4955.499322291,4968.270057416,4,NaN,4968.275644333,4968.294082708,4969.13742425,NaN,NaN
120,16,2,complexity,0,kitchen,labelme_brsyyvweiuaazfr.tif,171,1.5,0,0.9,4969.155258708,4975.877911333,4,NaN,4975.883553666,4975.901986166,4976.795327916,NaN,NaN
120,17,2,complexity,0,kitchen,sun_admlmbcdswaszruo.tif,189,1.5,0,1.55,4976.805028833,4981.13403375,5,NaN,4981.140476041,4981.1586685,4982.702063833,NaN,NaN
120,18,2,complexity,0,kitchen,sun_abrcnpqqhmjwekyf.tif,183,1.5,0,0.7,4982.720832166,4987.10192525,3,NaN,4987.108089333,4987.126383083,4987.819724625,NaN,NaN
120,19,2,complexity,0,kitchen,sun_abdenxonkemggwsq.tif,179,1.5,0,0.716666666666667,4987.824449458,4990.761128541,6,NaN,4990.787845,4990.809506375,4991.519516791,NaN,NaN
120,20,2,complexity,0,kitchen,sun_akchetnepxlcxhsu.tif,208,1.5,0,0.85,4991.524199333,4996.221763,4,NaN,4996.227436833,4996.245834458,4997.089175708,NaN,NaN
120,21,2,complexity,0,kitchen,sun_axyyrmzcupyhlivc.tif,217,1.5,0,1.35,4997.093535916,5000.090482583,3,NaN,5000.119744416,5000.143168916,5001.486585958,NaN,NaN
120,22,2,complexity,0,kitchen,sun_abftihopvusyfakt.tif,181,1.5,0,1.96666666666667,5001.502025,5004.821343416,4,NaN,5004.827353083,5004.845712291,5006.805806291,NaN,NaN
120,23,2,complexity,0,kitchen,sun_afuyedyxivkhecmu.tif,195,1.5,0,0.933333333333333,5006.825360916,5009.852775125,6,NaN,5009.882354333,5009.906424291,5010.833100791,NaN,NaN
120,24,2,complexity,0,kitchen,sun_ahspylgoovwmwvgk.tif,203,1.5,0,1.33333333333333,5010.838053333,5014.613798791,3,NaN,5014.6192835,5014.637775875,5015.964507791,NaN,NaN
120,25,2,complexity,0,kitchen,sun_abpwyqmlzafvklqo.tif,182,1.5,0,1.16666666666667,5015.984118125,5019.309962375,2,NaN,5019.315481041,5019.333926791,5020.494004375,NaN,NaN
