sub_num,trial,block,task,is_practice,category,image,texture,duration,mask_dur,jitter,stim_time,time_of_resp,trial_response,mask_time,fix_time,jit_onset,trial_end,trial_accuracy,RT
103,1,0,complexity,1,bathroom,bathroom_practice3.tif,223,1.5,0,1.56666666666667,2315.9221895,2322.3761355,4,NaN,2322.381956375,2322.4002815,2323.960317541,NaN,NaN
103,2,0,complexity,1,bathroom,bathroom_practice5.tif,225,1.5,0,1.1,2323.978335166,2330.401003916,4,NaN,2330.406443583,2330.4245945,2331.51798425,NaN,NaN
103,3,0,complexity,1,bathroom,bathroom_practice2.tif,222,1.5,0,1.51666666666667,2331.52659825,2335.096396208,7,NaN,2335.102002208,2335.120320375,2336.630355875,NaN,NaN
103,4,0,complexity,1,bathroom,bathroom_practice4.tif,224,1.5,0,1.15,2336.649336,2341.552360083,6,NaN,2341.558063166,2341.576453958,2342.719857,NaN,NaN
103,5,0,complexity,1,bathroom,bathroom_practice1.tif,221,1.5,0,1.26666666666667,2342.730075041,2345.600993916,2,NaN,2345.606402458,2345.624628166,2346.884676916,NaN,NaN
103,1,1,complexity,0,bathroom,sun_abapwbhyhkfixyex.tif,124,1.5,0,0.75,2351.9643285,2357.392335041,5,NaN,2357.397925208,2357.416487666,2358.159826958,NaN,NaN
103,2,1,complexity,0,bathroom,sun_akiytfaagpdsphgz.tif,141,1.5,0,1.28333333333333,2358.164176,2361.040061416,2,NaN,2361.068198666,2361.091551375,2362.368268583,NaN,NaN
103,3,1,complexity,0,bathroom,sun_axxbkopsgyouuebh.tif,168,1.5,0,1.76666666666667,2362.384490666,2375.143888083,2,NaN,2375.149845458,2375.168442375,2376.928491,NaN,NaN
103,4,1,complexity,0,bathroom,sun_abjtwfukuwddzted.tif,125,1.5,0,1.28333333333333,2376.946973708,2381.056174041,2,NaN,2381.061792375,2381.080098375,2382.356826958,NaN,NaN
103,5,1,complexity,0,bathroom,sun_amzlamotzwfkwjco.tif,147,1.5,0,1.8,2382.374250375,2387.400623875,4,NaN,2387.40614375,2387.424412083,2389.21778525,NaN,NaN
103,6,1,complexity,0,bathroom,sun_aofnryafpsjimzsb.tif,150,1.5,0,0.716666666666667,2389.236436875,2394.744675083,2,NaN,2394.750688708,2394.7690485,2395.479051875,NaN,NaN
103,7,1,complexity,0,bathroom,sun_asfwthctfqerjvxr.tif,159,1.5,0,1,2395.483474833,2398.959880333,5,NaN,2398.965586208,2398.983980041,2399.977319291,NaN,NaN
103,8,1,complexity,0,bathroom,sun_apjevzvycyhuqghb.tif,153,1.5,0,1.21666666666667,2399.982609083,2403.936675833,6,NaN,2403.942096583,2403.960408083,2405.170467416,NaN,NaN
103,9,1,complexity,0,bathroom,sun_aapitsgbtktqubfy.tif,122,1.5,0,1.55,2405.185724625,2409.552626,3,NaN,2409.558085958,2409.576421333,2411.119805958,NaN,NaN
103,10,1,complexity,0,bathroom,sun_aclfzgynxzxlbepz.tif,129,1.5,0,2,2411.137570166,2415.575642208,1,NaN,2415.581471875,2415.599821791,2417.593193916,NaN,NaN
103,11,1,complexity,0,bathroom,sun_aqrpegblszgcoujh.tif,158,1.5,0,0.716666666666667,2417.610544041,2421.552349625,2,NaN,2421.557886458,2421.576254666,2422.286259583,NaN,NaN
103,12,1,complexity,0,bathroom,sun_awnqiikzaispgmwo.tif,166,1.5,0,0.933333333333333,2422.290983083,2425.213025,1,NaN,2425.241609875,2425.264652458,2426.191324,NaN,NaN
103,13,1,complexity,0,bathroom,sun_axyrejkiiaqiurjk.tif,169,1.5,0,1.58333333333333,2426.19597225,2429.839898083,4,NaN,2429.845558708,2429.863930666,2431.440650875,NaN,NaN
103,14,1,complexity,0,bathroom,sun_aspsyogrekjtfozg.tif,160,1.5,0,0.9,2431.458653458,2436.407536791,6,NaN,2436.413578458,2436.431954791,2437.325294291,NaN,NaN
103,15,1,complexity,0,bathroom,sun_anryaplzeujmzfkd.tif,149,1.5,0,1.16666666666667,2437.330434041,2441.20777025,5,NaN,2441.213478916,2441.231809666,2442.391848291,NaN,NaN
103,16,1,complexity,0,bathroom,sun_ausgutylgojavyoq.tif,163,1.5,0,0.733333333333333,2442.402221,2447.288041083,6,NaN,2447.293512041,2447.311919041,2448.038590208,NaN,NaN
103,17,1,complexity,0,bathroom,sun_ahijqszoswveeyji.tif,138,1.5,0,1.15,2448.043933916,2450.619908041,5,NaN,2450.647554958,2450.670933083,2451.814319791,NaN,NaN
103,18,1,complexity,0,bathroom,sun_acgyywnybuveqsro.tif,128,1.5,0,1.01666666666667,2451.82641675,2454.847787,5,NaN,2454.853462958,2454.872001208,2455.882048916,NaN,NaN
103,19,1,complexity,0,bathroom,sun_aggnnqpdorgxpvce.tif,131,1.5,0,0.883333333333333,2455.890624791,2459.968339166,5,NaN,2459.974208916,2459.992543416,2460.869214958,NaN,NaN
103,20,1,complexity,0,bathroom,sun_avhrdrntsqrjzccq.tif,165,1.5,0,1.65,2460.873785,2464.927426208,6,NaN,2464.933917333,2464.952185833,2466.595560291,NaN,NaN
103,21,1,complexity,0,bathroom,sun_aghyqhbptboemmoq.tif,133,1.5,0,0.75,2466.613761833,2470.439932958,3,NaN,2470.445357625,2470.463710166,2471.207049,NaN,NaN
103,22,1,complexity,0,bathroom,sun_acegryoqftbzowsg.tif,127,1.5,0,1.28333333333333,2471.211955083,2475.032390958,2,NaN,2475.038222333,2475.056493208,2476.333216833,NaN,NaN
103,23,1,complexity,0,bathroom,sun_ambriybtogmepttm.tif,146,1.5,0,1.25,2476.3506505,2479.20008,2,NaN,2479.205509625,2479.2237695,2480.467146041,NaN,NaN
103,24,1,complexity,0,bathroom,sun_agrwbmhcpmfuwmsg.tif,134,1.5,0,0.833333333333333,2480.48083275,2483.640272666,2,NaN,2483.645798875,2483.66404625,2484.490718333,NaN,NaN
103,25,1,complexity,0,bathroom,sun_acduarbnmmoglmiv.tif,126,1.5,0,1.05,2484.49539675,2487.95997225,5,NaN,2487.965375458,2487.983688333,2489.027067,NaN,NaN
103,1,2,complexity,0,bathroom,sun_apkxzenqapsujocq.tif,155,1.5,0,0.95,2493.293387916,2497.887937583,3,NaN,2497.893390208,2497.911598375,2498.854935708,NaN,NaN
103,2,2,complexity,0,bathroom,sun_afcoljnjfoxjtgja.tif,130,1.5,0,1.55,2498.859429291,2507.728290916,5,NaN,2507.734100541,2507.7524085,2509.295796916,NaN,NaN
103,3,2,complexity,0,bathroom,sun_agyqfjcfkdcydepw.tif,135,1.5,0,1.2,2509.310455125,2521.775953916,6,NaN,2521.781540458,2521.799926875,2522.993328166,NaN,NaN
103,4,2,complexity,0,bathroom,sun_apkruvsevgegsdwp.tif,154,1.5,0,1.86666666666667,2523.004730291,2528.415492375,2,NaN,2528.421114083,2528.439450166,2530.299507333,NaN,NaN
103,5,2,complexity,0,bathroom,sun_alotolagknyrgtsk.tif,145,1.5,0,1.66666666666667,2530.317727291,2534.280097416,6,NaN,2534.285679958,2534.304053291,2535.964113291,NaN,NaN
103,6,2,complexity,0,bathroom,sun_axldvoqbuvuggfmq.tif,167,1.5,0,1.35,2535.982033833,2539.024434125,2,NaN,2539.052388875,2539.075376916,2540.418760541,NaN,NaN
103,7,2,complexity,0,bathroom,sun_aoybiabnpadelefl.tif,151,1.5,0,1.11666666666667,2540.435572166,2543.487599875,1,NaN,2543.493111041,2543.511574125,2544.6216075,NaN,NaN
103,8,2,complexity,0,bathroom,sun_apmqjbnwghzuhhzh.tif,156,1.5,0,0.95,2544.630274916,2547.727381166,2,NaN,2547.732889166,2547.751294333,2548.694631208,NaN,NaN
103,9,2,complexity,0,bathroom,sun_aleqenyvunhactkl.tif,142,1.5,0,1.03333333333333,2548.699220458,2551.779347,5,NaN,2551.805856291,2551.825479208,2552.852182291,NaN,NaN
103,10,2,complexity,0,bathroom,sun_aunuadmjocsddsrl.tif,162,1.5,0,1.01666666666667,2552.860505458,2556.679266791,6,NaN,2556.684990083,2556.703371625,2557.713399291,NaN,NaN
103,11,2,complexity,0,bathroom,sun_agguqiubmwhqqunb.tif,132,1.5,0,1.81666666666667,2557.720742708,2561.151395041,5,NaN,2561.156982875,2561.175299166,2562.985358375,NaN,NaN
103,12,2,complexity,0,bathroom,sun_alkosphxlxwjwgjd.tif,144,1.5,0,1.8,2563.003120083,2567.007562083,3,NaN,2567.013130666,2567.031518583,2568.82489,NaN,NaN
103,13,2,complexity,0,bathroom,sun_atstyziqcmkahyxk.tif,161,1.5,0,1.26666666666667,2568.841026625,2573.711071,4,NaN,2573.716903333,2573.7352755,2574.995322291,NaN,NaN
103,14,2,complexity,0,bathroom,sun_azqyogdvyhahyram.tif,170,1.5,0,1.66666666666667,2575.013942,2579.423850458,3,NaN,2579.429285125,2579.44760375,2581.107648958,NaN,NaN
103,15,2,complexity,0,bathroom,sun_aljolscmmzydegqp.tif,143,1.5,0,1.93333333333333,2581.126106875,2584.679888208,4,NaN,2584.686425583,2584.704809791,2586.631526666,NaN,NaN
103,16,2,complexity,0,bathroom,sun_ahcvzmoyaycdoftf.tif,137,1.5,0,1.75,2586.650412708,2589.8488705,5,NaN,2589.873989375,2589.894058625,2591.637434708,NaN,NaN
103,17,2,complexity,0,bathroom,sun_aavhrsfjbserjtht.tif,123,1.5,0,0.766666666666667,2591.652640375,2595.383634041,5,NaN,2595.389027208,2595.407310375,2596.167314375,NaN,NaN
103,18,2,complexity,0,bathroom,sun_ajlawzvmubibwbpy.tif,140,1.5,0,1.43333333333333,2596.172525333,2600.215534208,5,NaN,2600.221135833,2600.239276541,2601.666002458,NaN,NaN
103,19,2,complexity,0,bathroom,sun_ahqjwnzgolcaoidx.tif,139,1.5,0,0.916666666666667,2601.683749625,2605.047592625,3,NaN,2605.052969583,2605.071222458,2605.981227916,NaN,NaN
103,20,2,complexity,0,bathroom,labelme_sfxiulhjbhlyiyt.tif,121,1.5,0,0.766666666666667,2605.985516083,2609.534890166,3,NaN,2609.540731958,2609.559340583,2610.319346041,NaN,NaN
103,21,2,complexity,0,bathroom,sun_apynckhmoftszqoq.tif,157,1.5,0,0.783333333333333,2610.323737375,2614.359621041,5,NaN,2614.36507975,2614.383521916,2615.160193166,NaN,NaN
103,22,2,complexity,0,bathroom,sun_anhioqovhscjqqwb.tif,148,1.5,0,1.31666666666667,2615.164443541,2619.551534916,5,NaN,2619.55695425,2619.575264041,2620.885300833,NaN,NaN
103,23,2,complexity,0,bathroom,sun_auzqhkafidnkrwmo.tif,164,1.5,0,1.1,2620.899963666,2624.111717541,5,NaN,2624.117165083,2624.135556208,2625.228921416,NaN,NaN
103,24,2,complexity,0,bathroom,sun_ahaulkltgpkeeemi.tif,136,1.5,0,1.26666666666667,2625.240001791,2630.623281375,5,NaN,2630.628794166,2630.64712225,2631.90716075,NaN,NaN
103,25,2,complexity,0,bathroom,sun_apeeialkgkuxddgh.tif,152,1.5,0,0.933333333333333,2631.924101916,2635.135098708,3,NaN,2635.14067425,2635.1590565,2636.085729083,NaN,NaN
