sub_num,trial,block,task,is_practice,category,image,texture,duration,mask_dur,jitter,stim_time,time_of_resp,trial_response,mask_time,fix_time,jit_onset,trial_end,trial_accuracy,RT
113,1,0,complexity,1,bathroom,bathroom_practice3.tif,223,1.5,0,1.56666666666667,1752.429259416,1755.681268375,5,NaN,1755.686947916,1755.705236458,1757.265293041,NaN,NaN
113,2,0,complexity,1,bathroom,bathroom_practice5.tif,225,1.5,0,1.1,1757.283073541,1768.017618333,5,NaN,1768.023387375,1768.041722041,1769.135095333,NaN,NaN
113,3,0,complexity,1,bathroom,bathroom_practice2.tif,222,1.5,0,1.51666666666667,1769.1435055,1771.993156,7,NaN,1771.998777208,1772.017225,1773.52726575,NaN,NaN
113,4,0,complexity,1,bathroom,bathroom_practice4.tif,224,1.5,0,1.15,1773.537544041,1777.600721375,2,NaN,1777.6064565,1777.624725916,1778.768101666,NaN,NaN
113,5,0,complexity,1,bathroom,bathroom_practice1.tif,221,1.5,0,1.26666666666667,1778.777796166,1782.633657541,1,NaN,1782.639144541,1782.65742475,1783.917457958,NaN,NaN
113,1,1,complexity,0,bathroom,sun_abapwbhyhkfixyex.tif,124,1.5,0,0.75,1788.391168916,1791.585720375,4,NaN,1791.59149425,1791.609992083,1792.353329958,NaN,NaN
113,2,1,complexity,0,bathroom,sun_akiytfaagpdsphgz.tif,141,1.5,0,1.28333333333333,1792.357893541,1795.777050458,3,NaN,1795.782606708,1795.800828916,1797.0775445,NaN,NaN
113,3,1,complexity,0,bathroom,sun_axxbkopsgyouuebh.tif,168,1.5,0,1.76666666666667,1797.095978166,1800.449371041,4,NaN,1800.454714916,1800.472853291,1802.232903541,NaN,NaN
113,4,1,complexity,0,bathroom,sun_abjtwfukuwddzted.tif,125,1.5,0,1.28333333333333,1802.251662666,1806.473100541,1,NaN,1806.478526875,1806.496952625,1807.773652791,NaN,NaN
113,5,1,complexity,0,bathroom,sun_amzlamotzwfkwjco.tif,147,1.5,0,1.8,1807.790923541,1815.297228333,4,NaN,1815.302571208,1815.321069916,1817.114442708,NaN,NaN
113,6,1,complexity,0,bathroom,sun_aofnryafpsjimzsb.tif,150,1.5,0,0.716666666666667,1817.132253208,1820.302428416,6,NaN,1820.331727208,1820.355071875,1821.0650775,NaN,NaN
113,7,1,complexity,0,bathroom,sun_asfwthctfqerjvxr.tif,159,1.5,0,1,1821.069899541,1824.408670791,7,NaN,1824.41427425,1824.432540875,1825.425877958,NaN,NaN
113,8,1,complexity,0,bathroom,sun_apjevzvycyhuqghb.tif,153,1.5,0,1.21666666666667,1825.4302425,1829.056411791,7,NaN,1829.062275333,1829.080646375,1830.290691875,NaN,NaN
113,9,1,complexity,0,bathroom,sun_aapitsgbtktqubfy.tif,122,1.5,0,1.55,1830.308686458,1835.216745958,3,NaN,1835.222419791,1835.24080975,1836.784194458,NaN,NaN
113,10,1,complexity,0,bathroom,sun_aclfzgynxzxlbepz.tif,129,1.5,0,2,1836.801702375,1839.992556375,2,NaN,1839.998235875,1840.016643583,1842.010033416,NaN,NaN
113,11,1,complexity,0,bathroom,sun_aqrpegblszgcoujh.tif,158,1.5,0,0.716666666666667,1842.02695925,1845.993334666,1,NaN,1845.998626958,1846.016966708,1846.726970291,NaN,NaN
113,12,1,complexity,0,bathroom,sun_awnqiikzaispgmwo.tif,166,1.5,0,0.933333333333333,1846.731485708,1849.690492958,1,NaN,1849.718989333,1849.743486791,1850.670159125,NaN,NaN
113,13,1,complexity,0,bathroom,sun_axyrejkiiaqiurjk.tif,169,1.5,0,1.58333333333333,1850.674804666,1854.400679083,3,NaN,1854.406257958,1854.424603916,1856.001318041,NaN,NaN
113,14,1,complexity,0,bathroom,sun_aspsyogrekjtfozg.tif,160,1.5,0,0.9,1856.015621666,1859.688725875,6,NaN,1859.694281791,1859.712598083,1860.605935166,NaN,NaN
113,15,1,complexity,0,bathroom,sun_anryaplzeujmzfkd.tif,149,1.5,0,1.16666666666667,1860.610557,1863.929306333,5,NaN,1863.934621041,1863.952886541,1865.112926458,NaN,NaN
113,16,1,complexity,0,bathroom,sun_ausgutylgojavyoq.tif,163,1.5,0,0.733333333333333,1865.123786958,1869.18512925,5,NaN,1869.1904185,1869.208768,1869.935441125,NaN,NaN
113,17,1,complexity,0,bathroom,sun_ahijqszoswveeyji.tif,138,1.5,0,1.15,1869.939867958,1873.240285541,5,NaN,1873.245860208,1873.264046333,1874.407426416,NaN,NaN
113,18,1,complexity,0,bathroom,sun_acgyywnybuveqsro.tif,128,1.5,0,1.01666666666667,1874.4185935,1878.112857875,2,NaN,1878.1182495,1878.136812291,1879.146864083,NaN,NaN
113,19,1,complexity,0,bathroom,sun_aggnnqpdorgxpvce.tif,131,1.5,0,0.883333333333333,1879.156067375,1883.888787166,3,NaN,1883.894317208,1883.912658916,1884.789331666,NaN,NaN
113,20,1,complexity,0,bathroom,sun_avhrdrntsqrjzccq.tif,165,1.5,0,1.65,1884.793634541,1889.752416333,6,NaN,1889.75809975,1889.776501625,1891.419881333,NaN,NaN
113,21,1,complexity,0,bathroom,sun_aghyqhbptboemmoq.tif,133,1.5,0,0.75,1891.435346458,1895.656172916,3,NaN,1895.6620335,1895.680333541,1896.42367225,NaN,NaN
113,22,1,complexity,0,bathroom,sun_acegryoqftbzowsg.tif,127,1.5,0,1.28333333333333,1896.427923208,1899.736921833,4,NaN,1899.742731666,1899.761245875,1901.037965041,NaN,NaN
113,23,1,complexity,0,bathroom,sun_ambriybtogmepttm.tif,146,1.5,0,1.25,1901.054275791,1906.784449666,3,NaN,1906.790046625,1906.808308458,1908.051677708,NaN,NaN
113,24,1,complexity,0,bathroom,sun_agrwbmhcpmfuwmsg.tif,134,1.5,0,0.833333333333333,1908.070793,1911.264240166,4,NaN,1911.269999041,1911.288278083,1912.114949833,NaN,NaN
113,25,1,complexity,0,bathroom,sun_acduarbnmmoglmiv.tif,126,1.5,0,1.05,1912.119570625,1915.976250666,4,NaN,1915.981885041,1916.000219708,1917.043607,NaN,NaN
113,1,2,complexity,0,bathroom,sun_apkxzenqapsujocq.tif,155,1.5,0,0.95,1921.141199916,1925.880693916,4,NaN,1925.886020416,1925.904545708,1926.847883083,NaN,NaN
113,2,2,complexity,0,bathroom,sun_afcoljnjfoxjtgja.tif,130,1.5,0,1.55,1926.8525205,1931.623964541,3,NaN,1931.629733958,1931.647987375,1933.191370875,NaN,NaN
113,3,2,complexity,0,bathroom,sun_agyqfjcfkdcydepw.tif,135,1.5,0,1.2,1933.209482916,1935.761578208,6,NaN,1935.789482583,1935.812682125,1937.006057458,NaN,NaN
113,4,2,complexity,0,bathroom,sun_apkruvsevgegsdwp.tif,154,1.5,0,1.86666666666667,1937.019456791,1940.695927541,5,NaN,1940.701736375,1940.72011,1942.580166,NaN,NaN
113,5,2,complexity,0,bathroom,sun_alotolagknyrgtsk.tif,145,1.5,0,1.66666666666667,1942.598610333,1945.649658958,7,NaN,1945.677059291,1945.700376583,1947.360412416,NaN,NaN
113,6,2,complexity,0,bathroom,sun_axldvoqbuvuggfmq.tif,167,1.5,0,1.35,1947.378629375,1950.864609375,7,NaN,1950.890328458,1950.910452375,1952.253825833,NaN,NaN
113,7,2,complexity,0,bathroom,sun_aoybiabnpadelefl.tif,151,1.5,0,1.11666666666667,1952.269321458,1955.088197083,1,NaN,1955.09377325,1955.112102625,1956.222150791,NaN,NaN
113,8,2,complexity,0,bathroom,sun_apmqjbnwghzuhhzh.tif,156,1.5,0,0.95,1956.230807333,1961.10464725,5,NaN,1961.110009166,1961.128477958,1962.07181525,NaN,NaN
113,9,2,complexity,0,bathroom,sun_aleqenyvunhactkl.tif,142,1.5,0,1.03333333333333,1962.076481416,1965.992341875,2,NaN,1965.997845208,1966.01625575,1967.042967666,NaN,NaN
113,10,2,complexity,0,bathroom,sun_aunuadmjocsddsrl.tif,162,1.5,0,1.01666666666667,1967.051889416,1970.408201375,4,NaN,1970.413708375,1970.432050083,1971.442092333,NaN,NaN
113,11,2,complexity,0,bathroom,sun_agguqiubmwhqqunb.tif,132,1.5,0,1.81666666666667,1971.450262208,1974.759990208,5,NaN,1974.765632541,1974.784017041,1976.594062708,NaN,NaN
113,12,2,complexity,0,bathroom,sun_alkosphxlxwjwgjd.tif,144,1.5,0,1.8,1976.611798416,1980.344610166,4,NaN,1980.35004975,1980.368460416,1982.161835791,NaN,NaN
113,13,2,complexity,0,bathroom,sun_atstyziqcmkahyxk.tif,161,1.5,0,1.26666666666667,1982.176936666,1985.672525125,4,NaN,1985.678504666,1985.696884583,1986.956935083,NaN,NaN
113,14,2,complexity,0,bathroom,sun_azqyogdvyhahyram.tif,170,1.5,0,1.66666666666667,1986.975536625,1989.960638458,5,NaN,1989.966219458,1989.984664375,1991.644718708,NaN,NaN
113,15,2,complexity,0,bathroom,sun_aljolscmmzydegqp.tif,143,1.5,0,1.93333333333333,1991.662982166,1995.751744166,6,NaN,1995.757569291,1995.775854666,1997.702568416,NaN,NaN
113,16,2,complexity,0,bathroom,sun_ahcvzmoyaycdoftf.tif,137,1.5,0,1.75,1997.723132833,2001.081079083,5,NaN,2001.088580583,2001.106978458,2002.850350416,NaN,NaN
113,17,2,complexity,0,bathroom,sun_aavhrsfjbserjtht.tif,123,1.5,0,0.766666666666667,2002.869042666,2006.075833708,4,NaN,2006.105165291,2006.128401708,2006.888406958,NaN,NaN
113,18,2,complexity,0,bathroom,sun_ajlawzvmubibwbpy.tif,140,1.5,0,1.43333333333333,2006.894007791,2010.520221166,6,NaN,2010.525583916,2010.543843416,2011.970553208,NaN,NaN
113,19,2,complexity,0,bathroom,sun_ahqjwnzgolcaoidx.tif,139,1.5,0,0.916666666666667,2011.989506458,2015.3920595,5,NaN,2015.397590416,2015.415948958,2016.325954916,NaN,NaN
113,20,2,complexity,0,bathroom,labelme_sfxiulhjbhlyiyt.tif,121,1.5,0,0.766666666666667,2016.33063525,2019.86405025,4,NaN,2019.869676791,2019.887852666,2020.647857416,NaN,NaN
113,21,2,complexity,0,bathroom,sun_apynckhmoftszqoq.tif,157,1.5,0,0.783333333333333,2020.652086458,2027.119793583,4,NaN,2027.12563025,2027.143864583,2027.920536666,NaN,NaN
113,22,2,complexity,0,bathroom,sun_anhioqovhscjqqwb.tif,148,1.5,0,1.31666666666667,2027.93593325,2031.800039041,3,NaN,2031.805490958,2031.823792208,2033.133841166,NaN,NaN
113,23,2,complexity,0,bathroom,sun_auzqhkafidnkrwmo.tif,164,1.5,0,1.1,2033.151128625,2036.816571166,4,NaN,2036.821857166,2036.840182125,2037.93355675,NaN,NaN
113,24,2,complexity,0,bathroom,sun_ahaulkltgpkeeemi.tif,136,1.5,0,1.26666666666667,2037.943420625,2041.191845,5,NaN,2041.197491625,2041.21587025,2042.475914791,NaN,NaN
113,25,2,complexity,0,bathroom,sun_apeeialkgkuxddgh.tif,152,1.5,0,0.933333333333333,2042.492242041,2045.607679333,5,NaN,2045.613257666,2045.631623291,2046.55829525,NaN,NaN
