sub_num,trial,block,task,is_practice,category,image,texture,duration,mask_dur,jitter,stim_time,time_of_resp,trial_response,mask_time,fix_time,jit_onset,trial_end,trial_accuracy,RT
103,1,0,typicality,1,bathroom,bathroom_practice2.tif,222,1.5,0,1.48333333333333,1090.203413291,1097.725420666,3,NaN,1097.748893416,1097.769339833,1099.24620475,NaN,NaN
103,2,0,typicality,1,bathroom,bathroom_practice4.tif,224,1.5,0,0.75,1099.315649333,1103.9734235,6,NaN,1103.983434875,1104.002305041,1104.745660875,NaN,NaN
103,3,0,typicality,1,bathroom,bathroom_practice1.tif,221,1.5,0,1.93333333333333,1104.752273083,1108.358127083,6,NaN,1108.365280333,1108.384301958,1110.311141041,NaN,NaN
103,4,0,typicality,1,bathroom,bathroom_practice5.tif,225,1.5,0,0.983333333333333,1110.347268708,1114.782097916,3,NaN,1114.789765041,1114.80857175,1115.785250625,NaN,NaN
103,5,0,typicality,1,bathroom,bathroom_practice3.tif,223,1.5,0,0.883333333333333,1115.793290041,1122.053422291,3,NaN,1122.063989333,1122.083382,1122.960131916,NaN,NaN
103,1,1,typicality,0,bathroom,sun_aapitsgbtktqubfy.tif,122,1.5,0,0.866666666666667,1131.717555291,1135.397836916,5,NaN,1135.403974166,1135.42254375,1136.282562166,NaN,NaN
103,2,1,typicality,0,bathroom,sun_aleqenyvunhactkl.tif,142,1.5,0,1.03333333333333,1136.287115166,1139.933575625,3,NaN,1139.939354,1139.957703083,1140.984406291,NaN,NaN
103,3,1,typicality,0,bathroom,sun_ajlawzvmubibwbpy.tif,140,1.5,0,0.866666666666667,1140.994195083,1144.349620291,5,NaN,1144.356887291,1144.375140291,1145.235146125,NaN,NaN
103,4,1,typicality,0,bathroom,sun_alkosphxlxwjwgjd.tif,144,1.5,0,1.61666666666667,1145.245069833,1150.333793666,5,NaN,1150.339919125,1150.358304875,1151.968355333,NaN,NaN
103,5,1,typicality,0,bathroom,sun_anhioqovhscjqqwb.tif,148,1.5,0,0.883333333333333,1151.985398458,1156.573607875,3,NaN,1156.579710041,1156.598034666,1157.474706208,NaN,NaN
103,6,1,typicality,0,bathroom,sun_alotolagknyrgtsk.tif,145,1.5,0,0.933333333333333,1157.47997375,1161.773164416,2,NaN,1161.779141083,1161.79736275,1162.724035291,NaN,NaN
103,7,1,typicality,0,bathroom,sun_aghyqhbptboemmoq.tif,133,1.5,0,1.5,1162.729728708,1165.776106458,6,NaN,1165.790187833,1165.810220375,1167.303587083,NaN,NaN
103,8,1,typicality,0,bathroom,sun_asfwthctfqerjvxr.tif,159,1.5,0,1.36666666666667,1167.321885416,1170.845047041,4,NaN,1170.850964291,1170.869307916,1172.229349333,NaN,NaN
103,9,1,typicality,0,bathroom,sun_agyqfjcfkdcydepw.tif,135,1.5,0,0.85,1172.242734625,1175.941518333,1,NaN,1175.947228416,1175.965572083,1176.808911916,NaN,NaN
103,10,1,typicality,0,bathroom,sun_apeeialkgkuxddgh.tif,152,1.5,0,1.81666666666667,1176.814127,1180.581312666,7,NaN,1180.587113458,1180.605607083,1182.415657625,NaN,NaN
103,11,1,typicality,0,bathroom,sun_acegryoqftbzowsg.tif,127,1.5,0,1.28333333333333,1182.434070416,1185.989546875,5,NaN,1185.995050416,1186.013255708,1187.289955041,NaN,NaN
103,12,1,typicality,0,bathroom,sun_anryaplzeujmzfkd.tif,149,1.5,0,1.23333333333333,1187.308259541,1190.613823041,5,NaN,1190.619233166,1190.637530333,1191.8642455,NaN,NaN
103,13,1,typicality,0,bathroom,sun_amzlamotzwfkwjco.tif,147,1.5,0,0.883333333333333,1191.88183925,1195.221737791,2,NaN,1195.227224833,1195.245502333,1196.122172458,NaN,NaN
103,14,1,typicality,0,bathroom,sun_afcoljnjfoxjtgja.tif,130,1.5,0,0.866666666666667,1196.126462791,1199.621501333,3,NaN,1199.626986791,1199.6453555,1200.505358958,NaN,NaN
103,15,1,typicality,0,bathroom,sun_aclfzgynxzxlbepz.tif,129,1.5,0,1.36666666666667,1200.510178458,1205.085805583,6,NaN,1205.091334875,1205.109602166,1206.469647291,NaN,NaN
103,16,1,typicality,0,bathroom,sun_acduarbnmmoglmiv.tif,126,1.5,0,1.05,1206.487644708,1210.164931625,2,NaN,1210.170869166,1210.189166041,1211.232550291,NaN,NaN
103,17,1,typicality,0,bathroom,sun_auzqhkafidnkrwmo.tif,164,1.5,0,1.21666666666667,1211.240088916,1216.821449875,5,NaN,1216.826888958,1216.845300916,1218.0553555,NaN,NaN
103,18,1,typicality,0,bathroom,sun_aofnryafpsjimzsb.tif,150,1.5,0,0.816666666666667,1218.065165791,1223.044809083,2,NaN,1223.050761916,1223.06911525,1223.879121458,NaN,NaN
103,19,1,typicality,0,bathroom,sun_apmqjbnwghzuhhzh.tif,156,1.5,0,1,1223.88417375,1226.94649975,6,NaN,1226.97414475,1226.996490416,1227.989829166,NaN,NaN
103,20,1,typicality,0,bathroom,sun_abjtwfukuwddzted.tif,125,1.5,0,1.21666666666667,1227.996749791,1233.41351725,2,NaN,1233.419085708,1233.437310375,1234.647363458,NaN,NaN
103,21,1,typicality,0,bathroom,sun_awnqiikzaispgmwo.tif,166,1.5,0,1.46666666666667,1234.664503416,1239.845412958,5,NaN,1239.850899833,1239.8694495,1241.329496291,NaN,NaN
103,22,1,typicality,0,bathroom,sun_aljolscmmzydegqp.tif,143,1.5,0,1.4,1241.348211625,1244.317220625,1,NaN,1244.32292775,1244.341312583,1245.7346975,NaN,NaN
103,23,1,typicality,0,bathroom,sun_abapwbhyhkfixyex.tif,124,1.5,0,0.783333333333333,1245.746855041,1249.109018916,5,NaN,1249.114947666,1249.133209708,1249.909882541,NaN,NaN
103,24,1,typicality,0,bathroom,labelme_sfxiulhjbhlyiyt.tif,121,1.5,0,1.21666666666667,1249.914276458,1253.245219791,7,NaN,1253.250606125,1253.269021208,1254.479078875,NaN,NaN
103,25,1,typicality,0,bathroom,sun_axldvoqbuvuggfmq.tif,167,1.5,0,1.35,1254.498205833,1257.221325125,7,NaN,1257.226726791,1257.245139541,1258.588510166,NaN,NaN
103,1,2,typicality,0,bathroom,sun_aoybiabnpadelefl.tif,151,1.5,0,1.65,1264.674442125,1268.789188666,2,NaN,1268.794709458,1268.8128935,1270.456264041,NaN,NaN
103,2,2,typicality,0,bathroom,sun_apkruvsevgegsdwp.tif,154,1.5,0,1.01666666666667,1270.473734125,1274.941533291,7,NaN,1274.947063458,1274.96546875,1275.975508375,NaN,NaN
103,3,2,typicality,0,bathroom,sun_ahijqszoswveeyji.tif,138,1.5,0,1.58333333333333,1275.985589916,1282.188504875,2,NaN,1282.194518333,1282.212763583,1283.789475041,NaN,NaN
103,4,2,typicality,0,bathroom,sun_aunuadmjocsddsrl.tif,162,1.5,0,0.7,1283.804763666,1286.989627125,6,NaN,1286.995078083,1287.013312916,1287.706652375,NaN,NaN
103,5,2,typicality,0,bathroom,sun_apkxzenqapsujocq.tif,155,1.5,0,1.23333333333333,1287.712532541,1290.576833125,7,NaN,1290.6047985,1290.627461333,1291.854176708,NaN,NaN
103,6,2,typicality,0,bathroom,sun_akiytfaagpdsphgz.tif,141,1.5,0,0.816666666666667,1291.870491625,1295.052888666,7,NaN,1295.058495791,1295.076965666,1295.886971208,NaN,NaN
103,7,2,typicality,0,bathroom,sun_agrwbmhcpmfuwmsg.tif,134,1.5,0,0.733333333333333,1295.891506125,1299.812911958,7,NaN,1299.818594041,1299.836940291,1300.563612333,NaN,NaN
103,8,2,typicality,0,bathroom,sun_agguqiubmwhqqunb.tif,132,1.5,0,1.15,1300.567916875,1303.289089208,6,NaN,1303.315431375,1303.3387535,1304.482119916,NaN,NaN
103,9,2,typicality,0,bathroom,sun_axyrejkiiaqiurjk.tif,169,1.5,0,0.933333333333333,1304.490567083,1307.420977333,2,NaN,1307.426554125,1307.444881291,1308.371553875,NaN,NaN
103,10,2,typicality,0,bathroom,sun_aavhrsfjbserjtht.tif,123,1.5,0,0.916666666666667,1308.376691875,1311.852377541,6,NaN,1311.85823425,1311.876650083,1312.786653958,NaN,NaN
103,11,2,typicality,0,bathroom,sun_avhrdrntsqrjzccq.tif,165,1.5,0,1.26666666666667,1312.791235708,1315.840079916,3,NaN,1315.858277541,1315.878447458,1317.138481541,NaN,NaN
103,12,2,typicality,0,bathroom,sun_aqrpegblszgcoujh.tif,158,1.5,0,0.933333333333333,1317.15577625,1320.812572916,5,NaN,1320.818352166,1320.836639541,1321.763309541,NaN,NaN
103,13,2,typicality,0,bathroom,sun_ambriybtogmepttm.tif,146,1.5,0,1,1321.768142208,1325.836434958,3,NaN,1325.842154583,1325.860570791,1326.85390925,NaN,NaN
103,14,2,typicality,0,bathroom,sun_acgyywnybuveqsro.tif,128,1.5,0,1,1326.859532333,1330.14840175,5,NaN,1330.154197666,1330.172635083,1331.165973,NaN,NaN
103,15,2,typicality,0,bathroom,sun_aggnnqpdorgxpvce.tif,131,1.5,0,1.21666666666667,1331.17094975,1335.173082041,3,NaN,1335.178586625,1335.196807416,1336.406849541,NaN,NaN
103,16,2,typicality,0,bathroom,sun_apjevzvycyhuqghb.tif,153,1.5,0,1.85,1336.415504458,1339.709373583,3,NaN,1339.71480025,1339.733150625,1341.576531541,NaN,NaN
103,17,2,typicality,0,bathroom,sun_aspsyogrekjtfozg.tif,160,1.5,0,0.766666666666667,1341.591239375,1344.83983525,2,NaN,1344.865130708,1344.886222125,1345.646225791,NaN,NaN
103,18,2,typicality,0,bathroom,sun_axxbkopsgyouuebh.tif,168,1.5,0,0.966666666666667,1345.660591666,1348.656389833,7,NaN,1348.682817875,1348.705593791,1349.665599208,NaN,NaN
103,19,2,typicality,0,bathroom,sun_ahaulkltgpkeeemi.tif,136,1.5,0,1.4,1349.677068166,1353.62927575,6,NaN,1353.63477825,1353.653092125,1355.04647825,NaN,NaN
103,20,2,typicality,0,bathroom,sun_apynckhmoftszqoq.tif,157,1.5,0,0.933333333333333,1355.063972708,1358.733161708,6,NaN,1358.738580625,1358.756962458,1359.683633916,NaN,NaN
103,21,2,typicality,0,bathroom,sun_ahqjwnzgolcaoidx.tif,139,1.5,0,1.7,1359.688639333,1362.749982791,6,NaN,1362.759825,1362.779754916,1364.473146625,NaN,NaN
103,22,2,typicality,0,bathroom,sun_ahcvzmoyaycdoftf.tif,137,1.5,0,0.916666666666667,1364.488756125,1367.179933833,7,NaN,1367.199843916,1367.222909166,1368.132914166,NaN,NaN
103,23,2,typicality,0,bathroom,sun_ausgutylgojavyoq.tif,163,1.5,0,0.833333333333333,1368.137584458,1372.732601833,3,NaN,1372.738307291,1372.756581708,1373.5832525,NaN,NaN
103,24,2,typicality,0,bathroom,sun_azqyogdvyhahyram.tif,170,1.5,0,0.783333333333333,1373.587560333,1376.579944416,6,NaN,1376.606213916,1376.629658708,1377.406329916,NaN,NaN
103,25,2,typicality,0,bathroom,sun_atstyziqcmkahyxk.tif,161,1.5,0,1.4,1377.412030583,1380.820747333,7,NaN,1380.827254958,1380.845466541,1382.238842083,NaN,NaN
