sub_num,trial,block,task,is_practice,category,image,texture,duration,mask_dur,jitter,stim_time,time_of_resp,trial_response,mask_time,fix_time,jit_onset,trial_end,trial_accuracy,RT
128,1,0,complexity,1,bathroom,bathroom_practice3.tif,223,1.5,0,1.56666666666667,14007.036721875,14011.535627042,4,NaN,14011.558379084,14011.578691084,14013.138876042,NaN,NaN
128,2,0,complexity,1,bathroom,bathroom_practice5.tif,225,1.5,0,1.1,14013.204760792,14015.939304375,5,NaN,14015.982313,14016.009687584,14017.103210375,NaN,NaN
128,3,0,complexity,1,bathroom,bathroom_practice2.tif,222,1.5,0,1.51666666666667,14017.12378425,14020.552578792,7,NaN,14020.56021025,14020.579011125,14022.089231667,NaN,NaN
128,4,0,complexity,1,bathroom,bathroom_practice4.tif,224,1.5,0,1.15,14022.115798625,14024.96744775,2,NaN,14024.97546625,14024.994269125,14026.137799292,NaN,NaN
128,5,0,complexity,1,bathroom,bathroom_practice1.tif,221,1.5,0,1.26666666666667,14026.183685834,14030.856488542,3,NaN,14030.867119917,14030.886550417,14032.147579417,NaN,NaN
128,1,1,complexity,0,bathroom,sun_abapwbhyhkfixyex.tif,124,1.5,0,0.75,14037.476940375,14040.951933292,5,NaN,14040.958719959,14040.977201292,14041.720552917,NaN,NaN
128,2,1,complexity,0,bathroom,sun_akiytfaagpdsphgz.tif,141,1.5,0,1.28333333333333,14041.737756959,14044.740296084,6,NaN,14044.769939209,14044.793438459,14046.070154417,NaN,NaN
128,3,1,complexity,0,bathroom,sun_axxbkopsgyouuebh.tif,168,1.5,0,1.76666666666667,14046.087168042,14048.984575459,1,NaN,14048.991061667,14049.009269084,14050.769324625,NaN,NaN
128,4,1,complexity,0,bathroom,sun_abjtwfukuwddzted.tif,125,1.5,0,1.28333333333333,14050.796252625,14054.535558792,5,NaN,14054.542132292,14054.560557459,14055.83726475,NaN,NaN
128,5,1,complexity,0,bathroom,sun_amzlamotzwfkwjco.tif,147,1.5,0,1.8,14055.859696834,14059.223947542,4,NaN,14059.23087725,14059.249306125,14061.042694042,NaN,NaN
128,6,1,complexity,0,bathroom,sun_aofnryafpsjimzsb.tif,150,1.5,0,0.716666666666667,14061.059812917,14064.38642825,6,NaN,14064.410699875,14064.434739417,14065.144746084,NaN,NaN
128,7,1,complexity,0,bathroom,sun_asfwthctfqerjvxr.tif,159,1.5,0,1,14065.1542315,14068.45554275,5,NaN,14068.461793959,14068.480364792,14069.473702375,NaN,NaN
128,8,1,complexity,0,bathroom,sun_apjevzvycyhuqghb.tif,153,1.5,0,1.21666666666667,14069.487667375,14075.135332584,5,NaN,14075.1419905,14075.16025475,14076.370308917,NaN,NaN
128,9,1,complexity,0,bathroom,sun_aapitsgbtktqubfy.tif,122,1.5,0,1.55,14076.393507959,14079.519253959,4,NaN,14079.526713959,14079.54493,14081.088285,NaN,NaN
128,10,1,complexity,0,bathroom,sun_aclfzgynxzxlbepz.tif,129,1.5,0,2,14081.100251292,14084.30440125,3,NaN,14084.310378042,14084.328665292,14086.32203275,NaN,NaN
128,11,1,complexity,0,bathroom,sun_aqrpegblszgcoujh.tif,158,1.5,0,0.716666666666667,14086.341832167,14091.584112,3,NaN,14091.590160959,14091.608457417,14092.318461375,NaN,NaN
128,12,1,complexity,0,bathroom,sun_awnqiikzaispgmwo.tif,166,1.5,0,0.933333333333333,14092.322740959,14094.828503334,3,NaN,14094.853388875,14094.875956625,14095.802628834,NaN,NaN
128,13,1,complexity,0,bathroom,sun_axyrejkiiaqiurjk.tif,169,1.5,0,1.58333333333333,14095.820886042,14098.960169125,6,NaN,14098.966975834,14098.985282792,14100.561993875,NaN,NaN
128,14,1,complexity,0,bathroom,sun_aspsyogrekjtfozg.tif,160,1.5,0,0.9,14100.583133542,14103.903718084,5,NaN,14103.932016375,14103.956083917,14104.849423625,NaN,NaN
128,15,1,complexity,0,bathroom,sun_anryaplzeujmzfkd.tif,149,1.5,0,1.16666666666667,14104.870422459,14108.032099667,5,NaN,14108.038648709,14108.057149625,14109.217191917,NaN,NaN
128,16,1,complexity,0,bathroom,sun_ausgutylgojavyoq.tif,163,1.5,0,0.733333333333333,14109.227648667,14113.19908675,6,NaN,14113.205757959,14113.224028334,14113.950699209,NaN,NaN
128,17,1,complexity,0,bathroom,sun_ahijqszoswveeyji.tif,138,1.5,0,1.15,14113.956548542,14117.519317334,6,NaN,14117.526746459,14117.545012417,14118.688383084,NaN,NaN
128,18,1,complexity,0,bathroom,sun_acgyywnybuveqsro.tif,128,1.5,0,1.01666666666667,14118.696664125,14122.064227417,6,NaN,14122.070150042,14122.088379042,14123.098433959,NaN,NaN
128,19,1,complexity,0,bathroom,sun_aggnnqpdorgxpvce.tif,131,1.5,0,0.883333333333333,14123.108002042,14127.511752084,4,NaN,14127.518355459,14127.536809167,14128.413481292,NaN,NaN
128,20,1,complexity,0,bathroom,sun_avhrdrntsqrjzccq.tif,165,1.5,0,1.65,14128.42072375,14132.079318417,5,NaN,14132.085530542,14132.103960125,14133.747330042,NaN,NaN
128,21,1,complexity,0,bathroom,sun_aghyqhbptboemmoq.tif,133,1.5,0,0.75,14133.762614459,14137.896097834,2,NaN,14137.902274375,14137.920539667,14138.663877375,NaN,NaN
128,22,1,complexity,0,bathroom,sun_acegryoqftbzowsg.tif,127,1.5,0,1.28333333333333,14138.670891167,14141.462913084,4,NaN,14141.490914792,14141.515410209,14142.792123125,NaN,NaN
128,23,1,complexity,0,bathroom,sun_ambriybtogmepttm.tif,146,1.5,0,1.25,14142.81212175,14146.255597,4,NaN,14146.261623334,14146.279812542,14147.523179709,NaN,NaN
128,24,1,complexity,0,bathroom,sun_agrwbmhcpmfuwmsg.tif,134,1.5,0,0.833333333333333,14147.543318,14151.638948917,3,NaN,14151.645723709,14151.664139875,14152.490810584,NaN,NaN
128,25,1,complexity,0,bathroom,sun_acduarbnmmoglmiv.tif,126,1.5,0,1.05,14152.503767375,14155.508204084,6,NaN,14155.526904917,14155.547460709,14156.590847542,NaN,NaN
128,1,2,complexity,0,bathroom,sun_apkxzenqapsujocq.tif,155,1.5,0,0.95,14164.646105,14168.495999875,3,NaN,14168.501977209,14168.520316959,14169.463654375,NaN,NaN
128,2,2,complexity,0,bathroom,sun_afcoljnjfoxjtgja.tif,130,1.5,0,1.55,14169.470429459,14173.206985167,3,NaN,14173.213198167,14173.231566625,14174.774942334,NaN,NaN
128,3,2,complexity,0,bathroom,sun_agyqfjcfkdcydepw.tif,135,1.5,0,1.2,14174.7947805,14178.158949959,5,NaN,14178.165187584,14178.183440709,14179.376819459,NaN,NaN
128,4,2,complexity,0,bathroom,sun_apkruvsevgegsdwp.tif,154,1.5,0,1.86666666666667,14179.391060167,14182.335108167,4,NaN,14182.341288459,14182.359657,14184.219690417,NaN,NaN
128,5,2,complexity,0,bathroom,sun_alotolagknyrgtsk.tif,145,1.5,0,1.66666666666667,14184.24062,14188.079842917,6,NaN,14188.0859425,14188.104442709,14189.764485084,NaN,NaN
128,6,2,complexity,0,bathroom,sun_axldvoqbuvuggfmq.tif,167,1.5,0,1.35,14189.785276959,14193.839018125,3,NaN,14193.845260167,14193.863527917,14195.207166375,NaN,NaN
128,7,2,complexity,0,bathroom,sun_aoybiabnpadelefl.tif,151,1.5,0,1.11666666666667,14195.220850959,14201.023183917,3,NaN,14201.030340834,14201.048740792,14202.158795209,NaN,NaN
128,8,2,complexity,0,bathroom,sun_apmqjbnwghzuhhzh.tif,156,1.5,0,0.95,14202.166798042,14206.839635209,3,NaN,14206.845689334,14206.863965917,14207.807305459,NaN,NaN
128,9,2,complexity,0,bathroom,sun_aleqenyvunhactkl.tif,142,1.5,0,1.03333333333333,14207.820337459,14211.214965125,3,NaN,14211.221679209,14211.239912,14212.266609042,NaN,NaN
128,10,2,complexity,0,bathroom,sun_aunuadmjocsddsrl.tif,162,1.5,0,1.01666666666667,14212.287981042,14216.09529525,1,NaN,14216.101311167,14216.119759167,14217.129811792,NaN,NaN
128,11,2,complexity,0,bathroom,sun_agguqiubmwhqqunb.tif,132,1.5,0,1.81666666666667,14217.13996125,14220.502982209,3,NaN,14220.509635375,14220.528081709,14222.338128875,NaN,NaN
128,12,2,complexity,0,bathroom,sun_alkosphxlxwjwgjd.tif,144,1.5,0,1.8,14222.359476542,14226.374698375,3,NaN,14226.381139584,14226.399491917,14228.192865542,NaN,NaN
128,13,2,complexity,0,bathroom,sun_atstyziqcmkahyxk.tif,161,1.5,0,1.26666666666667,14228.21501625,14231.647607834,3,NaN,14231.653667084,14231.672654792,14232.932697584,NaN,NaN
128,14,2,complexity,0,bathroom,sun_azqyogdvyhahyram.tif,170,1.5,0,1.66666666666667,14232.952134459,14235.758925625,2,NaN,14235.765026917,14235.783234917,14237.4432745,NaN,NaN
128,15,2,complexity,0,bathroom,sun_aljolscmmzydegqp.tif,143,1.5,0,1.93333333333333,14237.462492209,14240.414436,2,NaN,14240.44324525,14240.467286542,14242.393992917,NaN,NaN
128,16,2,complexity,0,bathroom,sun_ahcvzmoyaycdoftf.tif,137,1.5,0,1.75,14242.415039209,14246.16749675,3,NaN,14246.173424667,14246.191789042,14247.935169042,NaN,NaN
128,17,2,complexity,0,bathroom,sun_aavhrsfjbserjtht.tif,123,1.5,0,0.766666666666667,14247.953542542,14250.972183167,4,NaN,14250.997889042,14251.022082125,14251.782085084,NaN,NaN
128,18,2,complexity,0,bathroom,sun_ajlawzvmubibwbpy.tif,140,1.5,0,1.43333333333333,14251.803211917,14254.579145417,5,NaN,14254.609227084,14254.633092625,14256.059805334,NaN,NaN
128,19,2,complexity,0,bathroom,sun_ahqjwnzgolcaoidx.tif,139,1.5,0,0.916666666666667,14256.080123,14259.038958709,3,NaN,14259.045143209,14259.063527792,14259.973533,NaN,NaN
128,20,2,complexity,0,bathroom,labelme_sfxiulhjbhlyiyt.tif,121,1.5,0,0.766666666666667,14259.986681625,14262.614107667,2,NaN,14262.642589209,14262.666382334,14263.426386042,NaN,NaN
128,21,2,complexity,0,bathroom,sun_apynckhmoftszqoq.tif,157,1.5,0,0.783333333333333,14263.436782375,14266.027214625,3,NaN,14266.057016,14266.080789125,14266.857460834,NaN,NaN
128,22,2,complexity,0,bathroom,sun_anhioqovhscjqqwb.tif,148,1.5,0,1.31666666666667,14266.870098709,14269.747280084,4,NaN,14269.773211542,14269.796742334,14271.106791917,NaN,NaN
128,23,2,complexity,0,bathroom,sun_auzqhkafidnkrwmo.tif,164,1.5,0,1.1,14271.1179905,14274.431526584,7,NaN,14274.437719459,14274.456134459,14275.549508792,NaN,NaN
128,24,2,complexity,0,bathroom,sun_ahaulkltgpkeeemi.tif,136,1.5,0,1.26666666666667,14275.571462334,14278.478597709,2,NaN,14278.485062792,14278.503844667,14279.763898917,NaN,NaN
128,25,2,complexity,0,bathroom,sun_apeeialkgkuxddgh.tif,152,1.5,0,0.933333333333333,14279.78389625,14282.806459167,3,NaN,14282.812479167,14282.830870667,14283.757540709,NaN,NaN
