sub_num,trial,block,task,is_practice,category,image,texture,duration,mask_dur,jitter,stim_time,time_of_resp,trial_response,mask_time,fix_time,jit_onset,trial_end,trial_accuracy,RT
401,1,3,categorization,0,kitchen,SHINEd_sun_acwjdupvyjsugpay.tif,76,0.05,0.0666666666666667,0.85,4924.135919375,NaN,NaN,4924.182051459,NaN,NaN,NaN,NaN,NaN
401,2,3,categorization,0,bathroom,SHINEd_sun_aavhrsfjbserjtht.tif,13,0.05,0.0666666666666667,1.65,NaN,NaN,NaN,NaN,NaN,NaN,NaN,NaN,NaN
401,3,3,categorization,0,bathroom,SHINEd_sun_acegryoqftbzowsg.tif,17,0.05,0.0666666666666667,0.783333333333333,NaN,NaN,NaN,NaN,NaN,NaN,NaN,NaN,NaN
401,4,3,categorization,0,kitchen,SHINEd_sun_aqeaevwwwjoqhzvl.tif,101,0.05,0.0666666666666667,0.933333333333333,NaN,NaN,NaN,NaN,NaN,NaN,NaN,NaN,NaN
401,5,3,categorization,0,bathroom,SHINEd_sun_ausgutylgojavyoq.tif,53,0.05,0.0666666666666667,0.866666666666667,NaN,NaN,NaN,NaN,NaN,NaN,NaN,NaN,NaN
401,6,3,categorization,0,bathroom,SHINEd_sun_aofnryafpsjimzsb.tif,40,0.05,0.0666666666666667,1.11666666666667,NaN,NaN,NaN,NaN,NaN,NaN,NaN,NaN,NaN
401,7,3,categorization,0,kitchen,SHINEd_sun_ajkqhtgcbgpcwrwn.tif,97,0.05,0.0666666666666667,0.966666666666667,NaN,NaN,NaN,NaN,NaN,NaN,NaN,NaN,NaN
401,8,3,categorization,0,bathroom,SHINEd_sun_alotolagknyrgtsk.tif,35,0.05,0.0666666666666667,1.78333333333333,NaN,NaN,NaN,NaN,NaN,NaN,NaN,NaN,NaN
401,9,3,categorization,0,bathroom,SHINEd_sun_anhioqovhscjqqwb.tif,38,0.05,0.0666666666666667,1.55,NaN,NaN,NaN,NaN,NaN,NaN,NaN,NaN,NaN
401,10,3,categorization,0,bathroom,SHINEd_sun_aclfzgynxzxlbepz.tif,19,0.05,0.0666666666666667,1.41666666666667,NaN,NaN,NaN,NaN,NaN,NaN,NaN,NaN,NaN
401,11,3,categorization,0,kitchen,SHINEd_labelme_brsyyvweiuaazfr.tif,61,0.05,0.0666666666666667,0.8,NaN,NaN,NaN,NaN,NaN,NaN,NaN,NaN,NaN
401,12,3,categorization,0,bathroom,SHINEd_sun_awnqiikzaispgmwo.tif,56,0.05,0.0666666666666667,1.28333333333333,NaN,NaN,NaN,NaN,NaN,NaN,NaN,NaN,NaN
401,13,3,categorization,0,kitchen,SHINEd_sun_aexklacwqwezaorf.tif,84,0.05,0.0666666666666667,1.66666666666667,NaN,NaN,NaN,NaN,NaN,NaN,NaN,NaN,NaN
401,14,3,categorization,0,bathroom,SHINEd_sun_apynckhmoftszqoq.tif,47,0.05,0.0666666666666667,1.81666666666667,NaN,NaN,NaN,NaN,NaN,NaN,NaN,NaN,NaN
401,15,3,categorization,0,kitchen,SHINEd_sun_acxkpeoqbwcxfvip.tif,77,0.05,0.0666666666666667,1.35,NaN,NaN,NaN,NaN,NaN,NaN,NaN,NaN,NaN
401,16,3,categorization,0,kitchen,SHINEd_sun_abdenxonkemggwsq.tif,69,0.05,0.0666666666666667,0.916666666666667,NaN,NaN,NaN,NaN,NaN,NaN,NaN,NaN,NaN
401,17,3,categorization,0,kitchen,SHINEd_sun_aymvwlarqodbwuoc.tif,108,0.05,0.0666666666666667,0.916666666666667,NaN,NaN,NaN,NaN,NaN,NaN,NaN,NaN,NaN
401,18,3,categorization,0,bathroom,SHINEd_sun_azqyogdvyhahyram.tif,60,0.05,0.0666666666666667,1.31666666666667,NaN,NaN,NaN,NaN,NaN,NaN,NaN,NaN,NaN
401,19,3,categorization,0,kitchen,SHINEd_sun_aehawpgmrlhlvcow.tif,81,0.05,0.0666666666666667,1.45,NaN,NaN,NaN,NaN,NaN,NaN,NaN,NaN,NaN
401,20,3,categorization,0,kitchen,SHINEd_sun_auaiucuqpdausiva.tif,102,0.05,0.0666666666666667,0.95,NaN,NaN,NaN,NaN,NaN,NaN,NaN,NaN,NaN
401,21,3,categorization,0,kitchen,SHINEd_labelme_kxvouciolcpqplr.tif,62,0.05,0.0666666666666667,1.38333333333333,NaN,NaN,NaN,NaN,NaN,NaN,NaN,NaN,NaN
401,22,3,categorization,0,kitchen,SHINEd_sun_abdxkyyxwfskuaqb.tif,70,0.05,0.0666666666666667,1.16666666666667,NaN,NaN,NaN,NaN,NaN,NaN,NaN,NaN,NaN
401,23,3,categorization,0,bathroom,SHINEd_sun_agguqiubmwhqqunb.tif,22,0.05,0.0666666666666667,1.61666666666667,NaN,NaN,NaN,NaN,NaN,NaN,NaN,NaN,NaN
401,24,3,categorization,0,kitchen,SHINEd_sun_axyyrmzcupyhlivc.tif,107,0.05,0.0666666666666667,1.38333333333333,NaN,NaN,NaN,NaN,NaN,NaN,NaN,NaN,NaN
401,25,3,categorization,0,kitchen,SHINEd_labelme_rykdqxenmhulbdn.tif,63,0.05,0.0666666666666667,1.78333333333333,NaN,NaN,NaN,NaN,NaN,NaN,NaN,NaN,NaN
401,26,3,categorization,0,kitchen,SHINEd_sun_aadbddgrdsjugojn.tif,64,0.05,0.0666666666666667,0.783333333333333,NaN,NaN,NaN,NaN,NaN,NaN,NaN,NaN,NaN
401,27,3,categorization,0,kitchen,SHINEd_sun_avszsnwsbuqfgzbn.tif,105,0.05,0.0666666666666667,1.65,NaN,NaN,NaN,NaN,NaN,NaN,NaN,NaN,NaN
401,28,3,categorization,0,bathroom,SHINEd_sun_aapitsgbtktqubfy.tif,12,0.05,0.0666666666666667,1.86666666666667,NaN,NaN,NaN,NaN,NaN,NaN,NaN,NaN,NaN
401,29,3,categorization,0,bathroom,SHINEd_sun_atstyziqcmkahyxk.tif,51,0.05,0.0666666666666667,1.23333333333333,NaN,NaN,NaN,NaN,NaN,NaN,NaN,NaN,NaN
401,30,3,categorization,0,kitchen,SHINEd_sun_abpwyqmlzafvklqo.tif,72,0.05,0.0666666666666667,0.7,NaN,NaN,NaN,NaN,NaN,NaN,NaN,NaN,NaN
401,31,3,categorization,0,kitchen,SHINEd_sun_amjjdeyrggfqgmom.tif,100,0.05,0.0666666666666667,0.716666666666667,NaN,NaN,NaN,NaN,NaN,NaN,NaN,NaN,NaN
401,32,3,categorization,0,bathroom,SHINEd_sun_aleqenyvunhactkl.tif,32,0.05,0.0666666666666667,1.05,NaN,NaN,NaN,NaN,NaN,NaN,NaN,NaN,NaN
401,33,3,categorization,0,bathroom,SHINEd_sun_aghyqhbptboemmoq.tif,23,0.05,0.0666666666666667,1.1,NaN,NaN,NaN,NaN,NaN,NaN,NaN,NaN,NaN
401,34,3,categorization,0,bathroom,SHINEd_sun_apmqjbnwghzuhhzh.tif,46,0.05,0.0666666666666667,1.13333333333333,NaN,NaN,NaN,NaN,NaN,NaN,NaN,NaN,NaN
401,35,3,categorization,0,kitchen,SHINEd_sun_abrcnpqqhmjwekyf.tif,73,0.05,0.0666666666666667,1.38333333333333,NaN,NaN,NaN,NaN,NaN,NaN,NaN,NaN,NaN
401,36,3,categorization,0,bathroom,SHINEd_labelme_sfxiulhjbhlyiyt.tif,11,0.05,0.0666666666666667,1.5,NaN,NaN,NaN,NaN,NaN,NaN,NaN,NaN,NaN
401,37,3,categorization,0,kitchen,SHINEd_sun_aaxxjlsuzvqlgylf.tif,68,0.05,0.0666666666666667,1.61666666666667,NaN,NaN,NaN,NaN,NaN,NaN,NaN,NaN,NaN
401,38,3,categorization,0,kitchen,SHINEd_sun_ahdycvpopffkzzsu.tif,90,0.05,0.0666666666666667,0.983333333333333,NaN,NaN,NaN,NaN,NaN,NaN,NaN,NaN,NaN
401,39,3,categorization,0,kitchen,SHINEd_sun_agubuxuukhzyzpdp.tif,88,0.05,0.0666666666666667,1.3,NaN,NaN,NaN,NaN,NaN,NaN,NaN,NaN,NaN
401,40,3,categorization,0,bathroom,SHINEd_sun_ahaulkltgpkeeemi.tif,26,0.05,0.0666666666666667,1.03333333333333,NaN,NaN,NaN,NaN,NaN,NaN,NaN,NaN,NaN
401,41,3,categorization,0,kitchen,SHINEd_sun_adgqasybjyktddhj.tif,78,0.05,0.0666666666666667,1.45,NaN,NaN,NaN,NaN,NaN,NaN,NaN,NaN,NaN
401,42,3,categorization,0,kitchen,SHINEd_sun_admlmbcdswaszruo.tif,79,0.05,0.0666666666666667,1.23333333333333,NaN,NaN,NaN,NaN,NaN,NaN,NaN,NaN,NaN
401,43,3,categorization,0,kitchen,SHINEd_sun_azmutvzbxypaceni.tif,110,0.05,0.0666666666666667,1.26666666666667,NaN,NaN,NaN,NaN,NaN,NaN,NaN,NaN,NaN
401,44,3,categorization,0,bathroom,SHINEd_sun_abjtwfukuwddzted.tif,15,0.05,0.0666666666666667,1.03333333333333,NaN,NaN,NaN,NaN,NaN,NaN,NaN,NaN,NaN
401,45,3,categorization,0,bathroom,SHINEd_sun_acgyywnybuveqsro.tif,18,0.05,0.0666666666666667,1.31666666666667,NaN,NaN,NaN,NaN,NaN,NaN,NaN,NaN,NaN
401,46,3,categorization,0,bathroom,SHINEd_sun_auzqhkafidnkrwmo.tif,54,0.05,0.0666666666666667,1.7,NaN,NaN,NaN,NaN,NaN,NaN,NaN,NaN,NaN
401,47,3,categorization,0,kitchen,SHINEd_sun_ahpczsiumwwocjkv.tif,92,0.05,0.0666666666666667,1.35,NaN,NaN,NaN,NaN,NaN,NaN,NaN,NaN,NaN
401,48,3,categorization,0,bathroom,SHINEd_sun_aqrpegblszgcoujh.tif,48,0.05,0.0666666666666667,0.8,NaN,NaN,NaN,NaN,NaN,NaN,NaN,NaN,NaN
401,49,3,categorization,0,bathroom,SHINEd_sun_anryaplzeujmzfkd.tif,39,0.05,0.0666666666666667,0.766666666666667,NaN,NaN,NaN,NaN,NaN,NaN,NaN,NaN,NaN
401,50,3,categorization,0,bathroom,SHINEd_sun_ahijqszoswveeyji.tif,28,0.05,0.0666666666666667,1.38333333333333,NaN,NaN,NaN,NaN,NaN,NaN,NaN,NaN,NaN
