sub_num,trial,block,task,is_practice,category,image,texture,duration,mask_dur,jitter,stim_time,time_of_resp,trial_response,mask_time,fix_time,jit_onset,trial_end,trial_accuracy,RT
127,1,18,categorization,0,bathroom,SHINEd_sun_auzqhkafidnkrwmo.tif,54,0.0666666666666667,0.0666666666666667,0.75,13898.512624167,13899.693594959,9,13898.575028709,13898.635889959,13899.704410417,13900.447747625,0,1.18097079200015
127,2,18,categorization,0,kitchen,SHINEd_sun_azmutvzbxypaceni.tif,110,0.0666666666666667,0.0666666666666667,1.05,13900.452389417,13901.494513375,9,13900.514174834,13900.57526425,13901.511089334,13902.554458292,1,1.04212395800096
127,3,18,categorization,0,bathroom,SHINEd_sun_abjtwfukuwddzted.tif,15,0.0666666666666667,0.0666666666666667,1.08333333333333,13902.565357125,13903.345379417,9,13902.63026675,13902.695127709,13903.368421459,13904.445130167,0,0.780022291999558
127,4,18,categorization,0,kitchen,SHINEd_sun_aenotlpyftoioydp.tif,82,0.0666666666666667,0.0666666666666667,1.78333333333333,13904.454096375,13905.246441417,9,13904.519002334,13904.584522084,13905.253242459,13907.029949459,1,0.792345042000306
127,5,18,categorization,0,kitchen,SHINEd_sun_axyyrmzcupyhlivc.tif,107,0.0666666666666667,0.0666666666666667,0.733333333333333,13907.047869667,13907.870278167,9,13907.114141625,13907.1816725,13907.887950834,13908.614622792,1,0.822408500000165
127,6,18,categorization,0,bathroom,SHINEd_sun_apmqjbnwghzuhhzh.tif,46,0.0666666666666667,0.0666666666666667,0.716666666666667,13908.619847292,13909.92585775,9,13908.681533167,13908.742746417,13909.945720375,13910.655726,0,1.30601045799995
127,7,18,categorization,0,bathroom,SHINEd_sun_acegryoqftbzowsg.tif,17,0.0666666666666667,0.0666666666666667,1.76666666666667,13910.660925209,13911.717728917,9,13910.722597417,13910.783786542,13911.735930125,13913.495973209,0,1.05680370799928
127,8,18,categorization,0,kitchen,SHINEd_sun_aegoxogugdkwpmpj.tif,80,0.0666666666666667,0.0666666666666667,1.11666666666667,13913.511759917,13914.15511475,9,13913.578573834,13913.645720917,13914.185651334,13915.295691834,1,0.643354832998739
127,9,18,categorization,0,kitchen,SHINEd_sun_aqeaevwwwjoqhzvl.tif,101,0.0666666666666667,0.0666666666666667,0.8,13915.306813625,13915.867068084,9,13915.371712542,13915.440916667,13915.897727084,13916.691118042,1,0.560254459000134
127,10,18,categorization,0,bathroom,SHINEd_sun_aqrpegblszgcoujh.tif,48,0.0666666666666667,0.0666666666666667,1.53333333333333,13916.707849417,13917.485226542,13,13916.774270167,13916.841237959,13917.493468584,13919.020167209,1,0.777377124999475
127,11,18,categorization,0,bathroom,SHINEd_sun_aljolscmmzydegqp.tif,33,0.0666666666666667,0.0666666666666667,0.966666666666667,13919.038022292,13919.584432834,9,13919.104533625,13919.171323042,13919.610904542,13920.570959959,0,0.546410542001468
127,12,18,categorization,0,bathroom,SHINEd_sun_ambriybtogmepttm.tif,36,0.0666666666666667,0.0666666666666667,1.31666666666667,13920.580520417,13921.134122834,13,13920.643037292,13920.7033905,13921.138970917,13922.449009209,1,0.553602417001457
127,13,18,categorization,0,bathroom,SHINEd_sun_aleqenyvunhactkl.tif,32,0.0666666666666667,0.0666666666666667,1.25,13922.458762167,13923.019761959,9,13922.523516042,13922.592497417,13923.0489305,13924.2923185,0,0.560999792000075
127,14,18,categorization,0,bathroom,SHINEd_sun_apjevzvycyhuqghb.tif,43,0.0666666666666667,0.0666666666666667,0.85,13924.302108709,13924.905538292,13,13924.366124167,13924.434399125,13924.923502334,13925.766890542,1,0.603429582999524
127,15,18,categorization,0,kitchen,SHINEd_sun_akcjzhbbjlbogpdi.tif,99,0.0666666666666667,0.0666666666666667,1.68333333333333,13925.782303167,13926.381138792,9,13925.848894334,13925.915965375,13926.401782667,13928.078482459,1,0.598835624999992
127,16,18,categorization,0,bathroom,SHINEd_sun_aofnryafpsjimzsb.tif,40,0.0666666666666667,0.0666666666666667,1.06666666666667,13928.096375584,13928.711866584,13,13928.162796084,13928.230087167,13928.736880084,13929.796934125,1,0.615491000000475
127,17,18,categorization,0,kitchen,SHINEd_sun_aypmqwcualkenuoe.tif,109,0.0666666666666667,0.0666666666666667,1.48333333333333,13929.807516834,13930.337687792,9,13929.872460084,13929.940042834,13930.362474459,13931.8391865,1,0.530170957999871
127,18,18,categorization,0,kitchen,SHINEd_sun_ahljzhgcdpomplvg.tif,91,0.0666666666666667,0.0666666666666667,1.81666666666667,13931.849475625,13932.446187459,9,13931.914491667,13931.981167125,13932.469830709,13934.279873959,1,0.596711833999507
127,19,18,categorization,0,bathroom,SHINEd_sun_anhioqovhscjqqwb.tif,38,0.0666666666666667,0.0666666666666667,0.966666666666667,13934.296491125,13934.864303959,9,13934.361843292,13934.429192667,13934.885505834,13935.845562625,0,0.567812834000506
127,20,18,categorization,0,bathroom,SHINEd_sun_avhrdrntsqrjzccq.tif,55,0.0666666666666667,0.0666666666666667,1.6,13935.86294825,13936.90956825,13,13935.929378959,13935.987717084,13936.922950625,13938.516332,1,1.04661999999917
127,21,18,categorization,0,kitchen,SHINEd_sun_adgqasybjyktddhj.tif,78,0.0666666666666667,0.0666666666666667,1.28333333333333,13938.533044542,13939.436124875,9,13938.599895625,13938.666725375,13939.456347292,13940.733058375,1,0.903080332998798
127,22,18,categorization,0,bathroom,SHINEd_sun_agguqiubmwhqqunb.tif,22,0.0666666666666667,0.0666666666666667,0.9,13940.750047417,13941.631398,9,13940.81679525,13940.883754792,13941.657611167,13942.550950625,0,0.881350583000312
127,23,18,categorization,0,bathroom,SHINEd_sun_agyqfjcfkdcydepw.tif,25,0.0666666666666667,0.0666666666666667,1.41666666666667,13942.556852334,13943.390227417,13,13942.618527959,13942.679956584,13943.39876675,13944.808799459,1,0.833375082998828
127,24,18,categorization,0,kitchen,SHINEd_sun_abftihopvusyfakt.tif,71,0.0666666666666667,0.0666666666666667,0.8,13944.826304667,13945.678816292,9,13944.892366792,13944.960091125,13945.699626834,13946.493001584,1,0.852511625000261
127,25,18,categorization,0,kitchen,SHINEd_sun_ahdycvpopffkzzsu.tif,90,0.0666666666666667,0.0666666666666667,1.05,13946.5034435,13948.269354,9,13946.5659885,13946.626486917,13948.278990459,13949.322380875,1,1.76591050000025
127,26,18,categorization,0,bathroom,SHINEd_sun_abapwbhyhkfixyex.tif,14,0.0666666666666667,0.0666666666666667,0.766666666666667,13949.333372625,13950.135745875,9,13949.398290084,13949.4653195,13950.154834709,13950.914868875,0,0.802373250000528
127,27,18,categorization,0,kitchen,SHINEd_sun_aymvwlarqodbwuoc.tif,108,0.0666666666666667,0.0666666666666667,0.816666666666667,13950.931269375,13951.982314084,9,13950.9980205,13951.06528075,13952.000939125,13952.810944375,1,1.05104470900005
127,28,18,categorization,0,bathroom,SHINEd_labelme_sfxiulhjbhlyiyt.tif,11,0.0666666666666667,0.0666666666666667,0.95,13952.816593542,13954.037189625,9,13952.878357792,13952.939470625,13954.04157475,13954.984914417,0,1.22059608299969
127,29,18,categorization,0,bathroom,SHINEd_sun_akiytfaagpdsphgz.tif,31,0.0666666666666667,0.0666666666666667,1.46666666666667,13954.990284459,13955.886164417,9,13955.051998334,13955.113113667,13955.898327375,13957.358371959,0,0.895879957999568
127,30,18,categorization,0,bathroom,SHINEd_sun_ahaulkltgpkeeemi.tif,26,0.0666666666666667,0.0666666666666667,0.8,13957.375542542,13958.635075834,9,13957.442058,13957.509245584,13958.667741,13959.461078417,0,1.25953329199911
127,31,18,categorization,0,kitchen,SHINEd_sun_auticobqsbwgoppi.tif,104,0.0666666666666667,0.0666666666666667,1.88333333333333,13959.466720875,13960.590090459,13,13959.528626042,13959.589525917,13960.608055792,13962.4847655,0,1.1233695840001
127,32,18,categorization,0,kitchen,SHINEd_labelme_rykdqxenmhulbdn.tif,63,0.0666666666666667,0.0666666666666667,1.03333333333333,13962.495436459,13964.389625167,13,13962.562042542,13962.629003875,13964.398057042,13965.424753959,0,1.894188708
127,33,18,categorization,0,kitchen,SHINEd_sun_agubuxuukhzyzpdp.tif,88,0.0666666666666667,0.0666666666666667,0.916666666666667,13965.435720625,13966.4288485,9,13965.501094792,13965.567944417,13966.4563795,13967.366413209,1,0.993127874999118
127,34,18,categorization,0,bathroom,SHINEd_sun_ajlawzvmubibwbpy.tif,30,0.0666666666666667,0.0666666666666667,0.883333333333333,13967.381928292,13968.229426042,9,13967.444768125,13967.50489525,13968.240407959,13969.117080584,0,0.847497750000912
127,35,18,categorization,0,bathroom,SHINEd_sun_alotolagknyrgtsk.tif,35,0.0666666666666667,0.0666666666666667,0.983333333333333,13969.122830334,13969.949578125,9,13969.184495792,13969.2457405,13969.964724125,13970.941395792,0,0.826747791001253
127,36,18,categorization,0,kitchen,SHINEd_sun_ahywdevtimnqcsln.tif,94,0.0666666666666667,0.0666666666666667,0.933333333333333,13970.946556125,13971.749610167,9,13971.008291875,13971.069431167,13971.754436917,13972.681108459,1,0.80305404200044
127,37,18,categorization,0,kitchen,SHINEd_sun_agzzivivdpnawacl.tif,89,0.0666666666666667,0.0666666666666667,0.783333333333333,13972.686751334,13973.8700075,9,13972.748439334,13972.809640042,13973.878169875,13974.654841084,1,1.18325616599941
127,38,18,categorization,0,kitchen,SHINEd_sun_abdxkyyxwfskuaqb.tif,70,0.0666666666666667,0.0666666666666667,0.85,13974.660424334,13975.588992,9,13974.722159875,13974.783452917,13975.602432959,13976.44577225,1,0.928567666000163
127,39,18,categorization,0,kitchen,SHINEd_sun_ahpczsiumwwocjkv.tif,92,0.0666666666666667,0.0666666666666667,1.7,13976.45074875,13977.349267125,9,13976.51242275,13976.573560292,13977.359083542,13979.052472875,1,0.898518375001004
127,40,18,categorization,0,bathroom,SHINEd_sun_acgyywnybuveqsro.tif,18,0.0666666666666667,0.0666666666666667,1.31666666666667,13979.070602,13980.137775709,9,13979.137260959,13979.204767292,13980.161527084,13981.471561459,0,1.06717370899969
127,41,18,categorization,0,kitchen,SHINEd_sun_abpwyqmlzafvklqo.tif,72,0.0666666666666667,0.0666666666666667,0.9,13981.48655475,13982.288365084,9,13981.553171459,13981.620344417,13982.310433667,13983.203825084,1,0.801810334000038
127,42,18,categorization,0,bathroom,SHINEd_sun_anryaplzeujmzfkd.tif,39,0.0666666666666667,0.0666666666666667,1.75,13983.22163975,13983.909817792,9,13983.284397334,13983.344637625,13983.912928,13985.656310334,0,0.6881780420008
127,43,18,categorization,0,kitchen,SHINEd_sun_aaxxjlsuzvqlgylf.tif,68,0.0666666666666667,0.0666666666666667,1.41666666666667,13985.673878792,13986.413239125,9,13985.74015725,13985.807547667,13986.428829042,13987.83887525,1,0.73936033300015
127,44,18,categorization,0,bathroom,SHINEd_sun_afcoljnjfoxjtgja.tif,20,0.0666666666666667,0.0666666666666667,1.01666666666667,13987.856668042,13988.658552042,9,13987.92331775,13987.9903265,13988.680708584,13989.690759834,0,0.801883999998608
127,45,18,categorization,0,bathroom,SHINEd_sun_apynckhmoftszqoq.tif,47,0.0666666666666667,0.0666666666666667,1.95,13989.700682334,13990.255174709,9,13989.765675375,13989.832707417,13990.270583292,13992.213956375,0,0.554492375000336
127,46,18,categorization,0,kitchen,SHINEd_sun_abdenxonkemggwsq.tif,69,0.0666666666666667,0.0666666666666667,0.916666666666667,13992.231682125,13992.96196725,9,13992.297969709,13992.363535542,13992.98685825,13993.896865959,1,0.730285124998773
127,47,18,categorization,0,bathroom,SHINEd_sun_azqyogdvyhahyram.tif,60,0.0666666666666667,0.0666666666666667,1.08333333333333,13993.902930167,13994.509616459,9,13993.9645775,13994.025840667,13994.52762925,13995.604329542,0,0.606686291999722
127,48,18,categorization,0,kitchen,SHINEd_sun_acxkpeoqbwcxfvip.tif,77,0.0666666666666667,0.0666666666666667,1.16666666666667,13995.613627459,13996.269261334,13,13995.678698834,13995.745746542,13996.284645042,13997.444683542,0,0.655633874999694
127,49,18,categorization,0,bathroom,SHINEd_sun_amzlamotzwfkwjco.tif,37,0.0666666666666667,0.0666666666666667,1.78333333333333,13997.462715084,13997.998196625,9,13997.5291635,13997.5963625,13998.015490459,13999.792201584,0,0.535481540999172
127,50,18,categorization,0,bathroom,SHINEd_sun_alkosphxlxwjwgjd.tif,34,0.0666666666666667,0.0666666666666667,1.2,13999.80985125,14000.536689,13,13999.876608625,13999.94353775,14000.566382417,14001.7597535,1,0.726837750000414
