sub_num,trial,block,task,is_practice,category,image,texture,duration,mask_dur,jitter,stim_time,time_of_resp,trial_response,mask_time,fix_time,jit_onset,trial_end,trial_accuracy,RT
127,1,2,categorization,0,kitchen,SHINEd_sun_ahywdevtimnqcsln.tif,94,0.0666666666666667,0.0666666666666667,0.95,11932.855106167,11933.597629667,13,11932.917770667,11932.978066292,11933.613319209,11934.5566565,0,0.742523499999152
127,2,2,categorization,0,bathroom,SHINEd_sun_afcoljnjfoxjtgja.tif,20,0.0666666666666667,0.0666666666666667,0.75,11934.562087042,11935.405150709,9,11934.6237655,11934.685073917,11935.420135459,11936.163474625,0,0.843063667000024
127,3,2,categorization,0,bathroom,SHINEd_sun_amzlamotzwfkwjco.tif,37,0.0666666666666667,0.0666666666666667,1.68333333333333,11936.171020167,11937.061988667,13,11936.232755875,11936.293782917,11937.07961975,11938.7563425,1,0.890968499999872
127,4,2,categorization,0,bathroom,SHINEd_sun_atstyziqcmkahyxk.tif,51,0.0666666666666667,0.0666666666666667,0.816666666666667,11938.774017584,11939.601794292,13,11938.840899542,11938.907818125,11939.631301709,11940.441307209,1,0.827776707999874
127,5,2,categorization,0,kitchen,SHINEd_sun_aeqdocilnnpuvuhx.tif,83,0.0666666666666667,0.0666666666666667,0.916666666666667,11940.446302917,11941.349256917,9,11940.507971209,11940.569386334,11941.354841542,11942.264845834,1,0.902953999999227
127,6,2,categorization,0,kitchen,SHINEd_sun_acxkpeoqbwcxfvip.tif,77,0.0666666666666667,0.0666666666666667,1.21666666666667,11942.271173584,11943.293149709,13,11942.332812917,11942.394062459,11943.312517917,11944.522574375,0,1.02197612499913
127,7,2,categorization,0,kitchen,SHINEd_sun_ajcbwwvdlsvjyzje.tif,96,0.0666666666666667,0.0666666666666667,0.9,11944.531538542,11945.344099209,13,11944.59847675,11944.666369917,11945.372856834,11946.266228459,0,0.812560667000071
127,8,2,categorization,0,kitchen,SHINEd_sun_aarfiyshqohlwkmo.tif,67,0.0666666666666667,0.0666666666666667,1.65,11946.282559417,11947.149780625,13,11946.349373584,11946.414764084,11947.167020042,11948.810406375,0,0.867221208000046
127,9,2,categorization,0,bathroom,SHINEd_labelme_sfxiulhjbhlyiyt.tif,11,0.0666666666666667,0.0666666666666667,1.15,11948.826978334,11949.588032,13,11948.893947375,11948.960811959,11949.61754775,11950.760925167,1,0.761053665999498
127,10,2,categorization,0,kitchen,SHINEd_labelme_rykdqxenmhulbdn.tif,63,0.0666666666666667,0.0666666666666667,1.13333333333333,11950.771193959,11951.412568209,9,11950.8387645,11950.905324959,11951.427417375,11952.5541275,1,0.641374249998989
127,11,2,categorization,0,bathroom,SHINEd_sun_abjtwfukuwddzted.tif,15,0.0666666666666667,0.0666666666666667,1.76666666666667,11952.572507584,11953.301798209,9,11952.639305709,11952.706806459,11953.3086085,11955.068683167,0,0.729290625000431
127,12,2,categorization,0,bathroom,SHINEd_sun_apynckhmoftszqoq.tif,47,0.0666666666666667,0.0666666666666667,1.8,11955.085578959,11955.857568834,13,11955.152409584,11955.21968225,11955.875922959,11957.66930025,1,0.771989875000145
127,13,2,categorization,0,bathroom,SHINEd_sun_apeeialkgkuxddgh.tif,42,0.0666666666666667,0.0666666666666667,0.9,11957.686539792,11958.334275667,13,11957.753350709,11957.820589625,11958.361018,11959.254358625,1,0.647735875001672
127,14,2,categorization,0,bathroom,SHINEd_sun_ajlawzvmubibwbpy.tif,30,0.0666666666666667,0.0666666666666667,0.716666666666667,11959.259964042,11959.909618334,13,11959.321939834,11959.382900709,11959.918279209,11960.62828525,1,0.649654292001287
127,15,2,categorization,0,bathroom,SHINEd_sun_apkruvsevgegsdwp.tif,44,0.0666666666666667,0.0666666666666667,1.36666666666667,11960.633434959,11961.292888792,13,11960.695155709,11960.756470292,11961.3087495,11962.66879725,1,0.659453833000953
127,16,2,categorization,0,kitchen,SHINEd_sun_aixorpehvfykdynp.tif,95,0.0666666666666667,0.0666666666666667,0.916666666666667,11962.686065959,11963.237983709,13,11962.753004,11962.819936334,11963.259693375,11964.169744209,0,0.55191774999912
127,17,2,categorization,0,bathroom,SHINEd_sun_agyqfjcfkdcydepw.tif,25,0.0666666666666667,0.0666666666666667,0.716666666666667,11964.1859575,11964.94183125,13,11964.252327584,11964.319568667,11964.955537125,11965.665542792,1,0.755873750000319
127,18,2,categorization,0,kitchen,SHINEd_sun_auaiucuqpdausiva.tif,102,0.0666666666666667,0.0666666666666667,0.766666666666667,11965.671221542,11966.253936542,13,11965.732868542,11965.7940595,11966.262951542,11967.022956084,0,0.582715000000462
127,19,2,categorization,0,bathroom,SHINEd_sun_aclfzgynxzxlbepz.tif,19,0.0666666666666667,0.0666666666666667,1.06666666666667,11967.028645375,11967.941381709,13,11967.090288875,11967.151643042,11967.9538805,11969.013919875,1,0.912736334001238
127,20,2,categorization,0,bathroom,SHINEd_sun_alotolagknyrgtsk.tif,35,0.0666666666666667,0.0666666666666667,0.8,11969.023283334,11969.800551667,9,11969.088770334,11969.156018,11969.8293025,11970.622670917,0,0.777268333000393
127,21,2,categorization,0,kitchen,SHINEd_sun_avszsnwsbuqfgzbn.tif,105,0.0666666666666667,0.0666666666666667,0.866666666666667,11970.639195584,11971.341848709,9,11970.705751709,11970.772917334,11971.358267167,11972.218273,1,0.702653124999415
127,22,2,categorization,0,kitchen,SHINEd_sun_ahljzhgcdpomplvg.tif,91,0.0666666666666667,0.0666666666666667,1.48333333333333,11972.224066542,11972.805486042,9,11972.2856685,11972.346980667,11972.815793417,11974.292512542,1,0.581419500000266
127,23,2,categorization,0,kitchen,SHINEd_sun_aexklacwqwezaorf.tif,84,0.0666666666666667,0.0666666666666667,1.1,11974.308334667,11974.914462167,9,11974.372806792,11974.44049775,11974.929297292,11976.022683667,1,0.606127500001094
127,24,2,categorization,0,kitchen,SHINEd_sun_aapllqyqlykszopd.tif,66,0.0666666666666667,0.0666666666666667,0.783333333333333,11976.032278834,11976.523128417,9,11976.098732084,11976.165663209,11976.538127875,11977.314852209,1,0.490849583000454
127,25,2,categorization,0,kitchen,SHINEd_sun_aenotlpyftoioydp.tif,82,0.0666666666666667,0.0666666666666667,0.866666666666667,11977.330616584,11978.077922875,9,11977.397026334,11977.464416459,11978.083396584,11978.94340275,1,0.747306290999404
127,26,2,categorization,0,kitchen,SHINEd_labelme_kxvouciolcpqplr.tif,62,0.0666666666666667,0.0666666666666667,1.83333333333333,11978.949170875,11979.564709459,9,11979.010789917,11979.072062167,11979.573935917,11981.400646875,1,0.615538584001115
127,27,2,categorization,0,kitchen,SHINEd_sun_aaxxjlsuzvqlgylf.tif,68,0.0666666666666667,0.0666666666666667,0.7,11981.419082292,11982.168795209,13,11981.485683584,11981.553052375,11982.193137209,11982.886477042,0,0.74971291699876
127,28,2,categorization,0,kitchen,SHINEd_sun_ahspylgoovwmwvgk.tif,93,0.0666666666666667,0.0666666666666667,1.33333333333333,11982.892373459,11983.492986417,9,11982.954002209,11983.015273125,11983.500585834,11984.827308417,1,0.600612958000056
127,29,2,categorization,0,bathroom,SHINEd_sun_acgyywnybuveqsro.tif,18,0.0666666666666667,0.0666666666666667,1.33333333333333,11984.844924375,11985.856589667,9,11984.9115865,11984.978730334,11985.885263834,11987.211988,0,1.01166529200054
127,30,2,categorization,0,kitchen,SHINEd_sun_abpwyqmlzafvklqo.tif,72,0.0666666666666667,0.0666666666666667,1.38333333333333,11987.229945459,11988.159331042,9,11987.296892834,11987.363729667,11988.187229084,11989.563940209,1,0.929385583000112
127,31,2,categorization,0,bathroom,SHINEd_sun_axxbkopsgyouuebh.tif,58,0.0666666666666667,0.0666666666666667,1.25,11989.581591375,11990.37596425,13,11989.648604292,11989.715574375,11990.404059125,11991.647437,1,0.7943728750015
127,32,2,categorization,0,kitchen,SHINEd_sun_aunzlwrbjumxhwdj.tif,103,0.0666666666666667,0.0666666666666667,1.55,11991.6627515,11992.897652917,9,11991.729617,11991.796401917,11992.922416209,11994.465788167,1,1.23490141699949
127,33,2,categorization,0,bathroom,SHINEd_sun_abapwbhyhkfixyex.tif,14,0.0666666666666667,0.0666666666666667,1.61666666666667,11994.477258667,11995.299802959,9,11994.544457459,11994.611237959,11995.317367667,11996.927409834,0,0.822544291999293
127,34,2,categorization,0,bathroom,SHINEd_sun_anryaplzeujmzfkd.tif,39,0.0666666666666667,0.0666666666666667,1.33333333333333,11996.945847792,11998.20643825,9,11997.012784,11997.079518209,11998.239529375,11999.566252667,0,1.26059045799957
127,35,2,categorization,0,kitchen,SHINEd_sun_auticobqsbwgoppi.tif,104,0.0666666666666667,0.0666666666666667,0.833333333333333,11999.583475417,12000.397911917,9,11999.650684834,11999.717247709,12000.422919209,12001.249643584,1,0.814436500000738
127,36,2,categorization,0,kitchen,SHINEd_sun_agubuxuukhzyzpdp.tif,88,0.0666666666666667,0.0666666666666667,1.45,12001.266590959,12002.069863084,13,12001.331304,12001.390826667,12002.075732959,12003.51910825,0,0.803272125000149
127,37,2,categorization,0,kitchen,SHINEd_sun_aggjlwcdjsjcaemh.tif,86,0.0666666666666667,0.0666666666666667,0.933333333333333,12003.538549042,12004.186859334,13,12003.605604209,12003.672115875,12004.212722042,12005.139394459,0,0.648310292001042
127,38,2,categorization,0,bathroom,SHINEd_sun_auzqhkafidnkrwmo.tif,54,0.0666666666666667,0.0666666666666667,1.65,12005.14554375,12005.901471709,9,12005.207234167,12005.268506209,12005.920862584,12007.564229334,0,0.755927958998655
127,39,2,categorization,0,kitchen,SHINEd_sun_amjjdeyrggfqgmom.tif,100,0.0666666666666667,0.0666666666666667,1.23333333333333,12007.581114667,12008.394625084,9,12007.647648917,12007.715230292,12008.419325667,12009.64602875,1,0.813510416999634
127,40,2,categorization,0,kitchen,SHINEd_sun_akcjzhbbjlbogpdi.tif,99,0.0666666666666667,0.0666666666666667,0.766666666666667,12009.663853584,12010.626185792,9,12009.729133375,12009.797179875,12010.654277167,12011.414322834,1,0.962332208000589
127,41,2,categorization,0,bathroom,SHINEd_sun_apkxzenqapsujocq.tif,45,0.0666666666666667,0.0666666666666667,1.78333333333333,12011.429911709,12012.517790167,9,12011.496521792,12011.554690834,12012.523183,12014.299900334,0,1.08787845799998
127,42,2,categorization,0,bathroom,SHINEd_sun_aggnnqpdorgxpvce.tif,21,0.0666666666666667,0.0666666666666667,1.11666666666667,12014.317218917,12015.082555625,9,12014.381861542,12014.449727959,12015.105966667,12016.216025084,0,0.765336708000177
127,43,2,categorization,0,bathroom,SHINEd_sun_ahijqszoswveeyji.tif,28,0.0666666666666667,0.0666666666666667,1.85,12016.224923792,12016.963893875,9,12016.2902055,12016.35760875,12016.979893334,12018.823265125,0,0.738970082999003
127,44,2,categorization,0,bathroom,SHINEd_sun_aleqenyvunhactkl.tif,32,0.0666666666666667,0.0666666666666667,0.733333333333333,12018.841218667,12019.708146917,13,12018.907682042,12018.97512975,12019.731657417,12020.458327625,1,0.866928250001365
127,45,2,categorization,0,kitchen,SHINEd_sun_afuyedyxivkhecmu.tif,85,0.0666666666666667,0.0666666666666667,0.783333333333333,12020.463433209,12021.3890045,9,12020.525077584,12020.586375625,12021.405439459,12022.182111,1,0.925571290999869
127,46,2,categorization,0,bathroom,SHINEd_sun_axldvoqbuvuggfmq.tif,57,0.0666666666666667,0.0666666666666667,1.5,12022.18768875,12023.085308084,13,12022.249414792,12022.310527292,12023.095934875,12024.589320334,1,0.89761933400041
127,47,2,categorization,0,bathroom,SHINEd_sun_aoybiabnpadelefl.tif,41,0.0666666666666667,0.0666666666666667,0.733333333333333,12024.607867,12025.285996709,9,12024.674425,12024.741370042,12025.3147575,12026.041480042,0,0.678129709000132
127,48,2,categorization,0,kitchen,SHINEd_sun_agorklincwxrdtga.tif,87,0.0666666666666667,0.0666666666666667,1.1,12026.057668084,12027.269783625,13,12026.122089584,12026.18098925,12027.283199875,12028.37656825,0,1.21211554100046
127,49,2,categorization,0,kitchen,SHINEd_sun_aehawpgmrlhlvcow.tif,81,0.0666666666666667,0.0666666666666667,1.6,12028.384692625,12029.085146,9,12028.448957292,12028.516702209,12029.106156584,12030.699527334,1,0.700453374998688
127,50,2,categorization,0,bathroom,SHINEd_sun_axyrejkiiaqiurjk.tif,59,0.0666666666666667,0.0666666666666667,1.06666666666667,12030.717045375,12031.435328917,9,12030.782314584,12030.8508335,12031.45696275,12032.51700825,0,0.718283541998971
