sub_num,trial,block,task,is_practice,category,image,texture,duration,mask_dur,jitter,stim_time,time_of_resp,trial_response,mask_time,fix_time,jit_onset,trial_end,trial_accuracy,RT
137,1,0,aesthetic,1,bathroom,bathroom_practice1.tif,221,1.5,0,1.6,1369.137525291,1373.859796625,1,NaN,1373.865861416,1373.884151,1375.477526958,NaN,NaN
137,2,0,aesthetic,1,bathroom,bathroom_practice2.tif,222,1.5,0,1.26666666666667,1375.495925833,1378.022221875,6,NaN,1378.050459041,1378.07371625,1379.333755708,NaN,NaN
137,3,0,aesthetic,1,bathroom,bathroom_practice3.tif,223,1.5,0,1.15,1379.350441458,1382.659982125,4,NaN,1382.665663,1382.683923833,1383.827310625,NaN,NaN
137,4,0,aesthetic,1,bathroom,bathroom_practice4.tif,224,1.5,0,1.75,1383.835376291,1387.508152166,3,NaN,1387.513952125,1387.53218975,1389.275566,NaN,NaN
137,5,0,aesthetic,1,bathroom,bathroom_practice5.tif,225,1.5,0,0.85,1389.292983375,1393.468169916,6,NaN,1393.473812166,1393.492187833,1394.335525958,NaN,NaN
137,1,1,aesthetic,0,bathroom,sun_acgyywnybuveqsro.tif,128,1.5,0,0.933333333333333,1401.656191458,1404.711968541,6,NaN,1404.726852041,1404.746334125,1405.673006958,NaN,NaN
137,2,1,aesthetic,0,bathroom,sun_ahcvzmoyaycdoftf.tif,137,1.5,0,1.18333333333333,1405.677458541,1408.485565541,5,NaN,1408.514252916,1408.537366083,1409.71406975,NaN,NaN
137,3,1,aesthetic,0,bathroom,sun_ahqjwnzgolcaoidx.tif,139,1.5,0,1.56666666666667,1409.725095625,1412.635836916,3,NaN,1412.641559333,1412.659894833,1414.219951666,NaN,NaN
137,4,1,aesthetic,0,bathroom,sun_ambriybtogmepttm.tif,146,1.5,0,1.38333333333333,1414.23050525,1416.852634625,7,NaN,1416.85802125,1416.876416041,1418.253101916,NaN,NaN
137,5,1,aesthetic,0,bathroom,sun_apkruvsevgegsdwp.tif,154,1.5,0,1.23333333333333,1418.26390675,1421.4197625,1,NaN,1421.425514041,1421.443858833,1422.670560916,NaN,NaN
137,6,1,aesthetic,0,bathroom,sun_apkxzenqapsujocq.tif,155,1.5,0,1.83333333333333,1422.689064708,1430.428175375,4,NaN,1430.433768125,1430.452232416,1432.2789535,NaN,NaN
137,7,1,aesthetic,0,bathroom,sun_agyqfjcfkdcydepw.tif,135,1.5,0,1.1,1432.290722125,1434.9048955,7,NaN,1434.932772,1434.955899208,1436.049284166,NaN,NaN
137,8,1,aesthetic,0,bathroom,sun_anhioqovhscjqqwb.tif,148,1.5,0,1.71666666666667,1436.057601541,1439.660023041,6,NaN,1439.665833708,1439.684127083,1441.394170125,NaN,NaN
137,9,1,aesthetic,0,bathroom,sun_alotolagknyrgtsk.tif,145,1.5,0,1.01666666666667,1441.415233791,1444.503383166,5,NaN,1444.528534166,1444.551473458,1445.56152625,NaN,NaN
137,10,1,aesthetic,0,bathroom,sun_auzqhkafidnkrwmo.tif,164,1.5,0,1.36666666666667,1445.569520875,1449.316377125,7,NaN,1449.322134875,1449.340466833,1450.700501708,NaN,NaN
137,11,1,aesthetic,0,bathroom,sun_agguqiubmwhqqunb.tif,132,1.5,0,0.75,1450.718529916,1453.571443208,4,NaN,1453.577490875,1453.595761125,1454.339098666,NaN,NaN
137,12,1,aesthetic,0,bathroom,sun_acduarbnmmoglmiv.tif,126,1.5,0,1.31666666666667,1454.3434885,1457.668503708,5,NaN,1457.674022416,1457.692526666,1459.002574375,NaN,NaN
137,13,1,aesthetic,0,bathroom,sun_aclfzgynxzxlbepz.tif,129,1.5,0,1.33333333333333,1459.01571275,1463.835971708,3,NaN,1463.8418595,1463.86047375,1465.187190916,NaN,NaN
137,14,1,aesthetic,0,bathroom,sun_axxbkopsgyouuebh.tif,168,1.5,0,1.41666666666667,1465.204593958,1467.939434833,4,NaN,1467.945217541,1467.963466375,1469.373513958,NaN,NaN
137,15,1,aesthetic,0,bathroom,sun_avhrdrntsqrjzccq.tif,165,1.5,0,1.93333333333333,1469.389566,1471.916464041,7,NaN,1471.921892791,1471.940334583,1473.86703825,NaN,NaN
137,16,1,aesthetic,0,bathroom,sun_ahijqszoswveeyji.tif,138,1.5,0,1.68333333333333,1473.882650416,1476.653064333,5,NaN,1476.681899125,1476.704907416,1478.381629083,NaN,NaN
137,17,1,aesthetic,0,bathroom,sun_atstyziqcmkahyxk.tif,161,1.5,0,0.783333333333333,1478.39891,1481.688576958,2,NaN,1481.717071083,1481.740171583,1482.516843333,NaN,NaN
137,18,1,aesthetic,0,bathroom,sun_asfwthctfqerjvxr.tif,159,1.5,0,1.93333333333333,1482.521455166,1485.227748916,6,NaN,1485.25609275,1485.279301125,1487.206008666,NaN,NaN
137,19,1,aesthetic,0,bathroom,sun_aofnryafpsjimzsb.tif,150,1.5,0,1.18333333333333,1487.224503416,1489.85223975,7,NaN,1489.880950083,1489.904507416,1491.081203291,NaN,NaN
137,20,1,aesthetic,0,bathroom,sun_afcoljnjfoxjtgja.tif,130,1.5,0,1.61666666666667,1491.092477,1495.260052583,5,NaN,1495.265584125,1495.283996666,1496.894051416,NaN,NaN
137,21,1,aesthetic,0,bathroom,sun_akiytfaagpdsphgz.tif,141,1.5,0,1.16666666666667,1496.909064916,1499.731395083,6,NaN,1499.760462541,1499.783242,1500.943298083,NaN,NaN
137,22,1,aesthetic,0,bathroom,sun_awnqiikzaispgmwo.tif,166,1.5,0,1.85,1500.952779625,1504.595454083,4,NaN,1504.6012615,1504.61955775,1506.462930041,NaN,NaN
137,23,1,aesthetic,0,bathroom,sun_apjevzvycyhuqghb.tif,153,1.5,0,1.68333333333333,1506.476862958,1509.407197208,7,NaN,1509.431646,1509.454304541,1511.131009458,NaN,NaN
137,24,1,aesthetic,0,bathroom,sun_apynckhmoftszqoq.tif,157,1.5,0,1.98333333333333,1511.146808625,1514.3253445,2,NaN,1514.354221791,1514.375779791,1516.35248875,NaN,NaN
137,25,1,aesthetic,0,bathroom,sun_aoybiabnpadelefl.tif,151,1.5,0,1.28333333333333,1516.368185541,1518.824710208,7,NaN,1518.850666958,1518.874270875,1520.150984,NaN,NaN
137,1,2,aesthetic,0,bathroom,sun_apmqjbnwghzuhhzh.tif,156,1.5,0,0.9,1524.30338225,1528.084071958,4,NaN,1528.08952625,1528.107868625,1529.001206041,NaN,NaN
137,2,2,aesthetic,0,bathroom,sun_aapitsgbtktqubfy.tif,122,1.5,0,1.95,1529.005668666,1531.95660925,6,NaN,1531.985120833,1532.008082416,1533.951469125,NaN,NaN
137,3,2,aesthetic,0,bathroom,sun_axyrejkiiaqiurjk.tif,169,1.5,0,1,1533.968432875,1536.366548708,7,NaN,1536.388050125,1536.411299,1537.404635541,NaN,NaN
137,4,2,aesthetic,0,bathroom,sun_ahaulkltgpkeeemi.tif,136,1.5,0,0.733333333333333,1537.409327625,1540.19769175,1,NaN,1540.221123125,1540.242642375,1540.969314666,NaN,NaN
137,5,2,aesthetic,0,bathroom,sun_amzlamotzwfkwjco.tif,147,1.5,0,1.2,1540.974119333,1543.843736583,6,NaN,1543.872351583,1543.895047625,1545.088433541,NaN,NaN
137,6,2,aesthetic,0,bathroom,sun_aunuadmjocsddsrl.tif,162,1.5,0,1.21666666666667,1545.101155375,1547.723553416,1,NaN,1547.729197708,1547.747378625,1548.957423083,NaN,NaN
137,7,2,aesthetic,0,bathroom,sun_azqyogdvyhahyram.tif,170,1.5,0,0.933333333333333,1548.975063333,1551.987159791,1,NaN,1551.992961083,1552.011304208,1552.937975291,NaN,NaN
137,8,2,aesthetic,0,bathroom,sun_aqrpegblszgcoujh.tif,158,1.5,0,0.916666666666667,1552.942293541,1555.399313833,6,NaN,1555.427239541,1555.450060333,1556.360066541,NaN,NaN
137,9,2,aesthetic,0,bathroom,sun_aspsyogrekjtfozg.tif,160,1.5,0,1.1,1556.364719708,1559.055118791,7,NaN,1559.082694125,1559.105862208,1560.199243291,NaN,NaN
137,10,2,aesthetic,0,bathroom,sun_axldvoqbuvuggfmq.tif,167,1.5,0,1.16666666666667,1560.208652,1563.787966666,4,NaN,1563.793338625,1563.811622666,1564.971667583,NaN,NaN
137,11,2,aesthetic,0,bathroom,sun_abjtwfukuwddzted.tif,125,1.5,0,0.783333333333333,1564.98149775,1567.811615125,2,NaN,1567.817078125,1567.835400125,1568.612071458,NaN,NaN
137,12,2,aesthetic,0,bathroom,sun_abapwbhyhkfixyex.tif,124,1.5,0,1.95,1568.616502166,1571.803100125,5,NaN,1571.8108375,1571.829088333,1573.772470625,NaN,NaN
137,13,2,aesthetic,0,bathroom,sun_anryaplzeujmzfkd.tif,149,1.5,0,1.05,1573.790233541,1576.717193375,3,NaN,1576.747103916,1576.770247666,1577.813629416,NaN,NaN
137,14,2,aesthetic,0,bathroom,sun_ausgutylgojavyoq.tif,163,1.5,0,1.03333333333333,1577.822889708,1581.419945291,3,NaN,1581.425477875,1581.44415225,1582.470872875,NaN,NaN
137,15,2,aesthetic,0,bathroom,sun_aggnnqpdorgxpvce.tif,131,1.5,0,1.45,1582.479797708,1585.715436458,7,NaN,1585.721018041,1585.739371125,1587.182761,NaN,NaN
137,16,2,aesthetic,0,bathroom,sun_aljolscmmzydegqp.tif,143,1.5,0,0.966666666666667,1587.196766541,1589.923029041,4,NaN,1589.928878958,1589.947092416,1590.907096875,NaN,NaN
137,17,2,aesthetic,0,bathroom,sun_aghyqhbptboemmoq.tif,133,1.5,0,0.966666666666667,1590.912239875,1594.41095975,5,NaN,1594.416919458,1594.435334333,1595.39534025,NaN,NaN
137,18,2,aesthetic,0,bathroom,sun_alkosphxlxwjwgjd.tif,144,1.5,0,1.2,1595.399876,1598.312473041,7,NaN,1598.340943041,1598.36332575,1599.556705541,NaN,NaN
137,19,2,aesthetic,0,bathroom,sun_apeeialkgkuxddgh.tif,152,1.5,0,0.933333333333333,1599.568809958,1602.283290625,4,NaN,1602.289036375,1602.307358083,1603.234028125,NaN,NaN
137,20,2,aesthetic,0,bathroom,sun_aleqenyvunhactkl.tif,142,1.5,0,1.31666666666667,1603.238598416,1607.955544125,4,NaN,1607.961096958,1607.979420416,1609.289476833,NaN,NaN
137,21,2,aesthetic,0,bathroom,sun_ajlawzvmubibwbpy.tif,140,1.5,0,1.18333333333333,1609.306843333,1612.523526333,6,NaN,1612.528960083,1612.547246708,1613.72397025,NaN,NaN
137,22,2,aesthetic,0,bathroom,labelme_sfxiulhjbhlyiyt.tif,121,1.5,0,1.71666666666667,1613.733953291,1617.331318666,4,NaN,1617.337030166,1617.355349291,1619.065383291,NaN,NaN
137,23,2,aesthetic,0,bathroom,sun_aavhrsfjbserjtht.tif,123,1.5,0,1.53333333333333,1619.079318083,1622.899280708,6,NaN,1622.904765958,1622.92300325,1624.449719,NaN,NaN
137,24,2,aesthetic,0,bathroom,sun_acegryoqftbzowsg.tif,127,1.5,0,0.933333333333333,1624.466369708,1627.323440166,7,NaN,1627.329174625,1627.347440958,1628.274111791,NaN,NaN
137,25,2,aesthetic,0,bathroom,sun_agrwbmhcpmfuwmsg.tif,134,1.5,0,0.916666666666667,1628.278863791,1631.004594333,5,NaN,1631.032243916,1631.05529225,1631.96529725,NaN,NaN
