sub_num,trial,block,task,is_practice,category,image,texture,duration,mask_dur,jitter,stim_time,time_of_resp,trial_response,mask_time,fix_time,jit_onset,trial_end,trial_accuracy,RT
126,6,0,aesthetic,1,kitchen,kitchen_practice2.tif,227,1.5,0,1.08333333333333,9334.962543833,9338.530792375,6,NaN,9338.536392166,9338.55511875,9339.63184825,NaN,NaN
126,7,0,aesthetic,1,kitchen,kitchen_practice1.tif,226,1.5,0,1.06666666666667,9339.639736083,9342.186502333,5,NaN,9342.191989,9342.2103925,9343.270477166,NaN,NaN
126,8,0,aesthetic,1,kitchen,kitchen_practice4.tif,229,1.5,0,1.11666666666667,9343.281054833,9345.754752875,4,NaN,9345.760114041,9345.778450416,9346.8885225,NaN,NaN
126,9,0,aesthetic,1,kitchen,kitchen_practice3.tif,228,1.5,0,0.95,9346.899702125,9349.394673208,4,NaN,9349.400027583,9349.418284125,9350.361624125,NaN,NaN
126,10,0,aesthetic,1,kitchen,kitchen_practice5.tif,230,1.5,0,0.9,9350.36584325,9353.24299075,5,NaN,9353.269838416,9353.293303791,9354.186644166,NaN,NaN
126,1,1,aesthetic,0,kitchen,sun_ahljzhgcdpomplvg.tif,201,1.5,0,1.48333333333333,9361.037507791,9363.935143666,2,NaN,9363.964855708,9363.989787625,9365.466540916,NaN,NaN
126,2,1,aesthetic,0,kitchen,sun_afuyedyxivkhecmu.tif,195,1.5,0,1.46666666666667,9365.485130541,9368.450164,1,NaN,9368.455904333,9368.474222791,9369.934284,NaN,NaN
126,3,1,aesthetic,0,kitchen,sun_adgqasybjyktddhj.tif,188,1.5,0,0.766666666666667,9369.954613083,9373.218688208,5,NaN,9373.224627125,9373.243041791,9374.0030515,NaN,NaN
126,4,1,aesthetic,0,kitchen,sun_ahpczsiumwwocjkv.tif,202,1.5,0,1.16666666666667,9374.007358458,9376.886119208,4,NaN,9376.911320291,9376.934508833,9378.094606416,NaN,NaN
126,5,1,aesthetic,0,kitchen,sun_agorklincwxrdtga.tif,197,1.5,0,1.6,9378.106827291,9380.730203958,4,NaN,9380.735913875,9380.754587291,9382.348024666,NaN,NaN
126,6,1,aesthetic,0,kitchen,sun_auaiucuqpdausiva.tif,212,1.5,0,1.68333333333333,9382.36729925,9385.515913625,2,NaN,9385.543928333,9385.5661265,9387.242862583,NaN,NaN
126,7,1,aesthetic,0,kitchen,sun_aapllqyqlykszopd.tif,176,1.5,0,1.5,9387.260591625,9390.946147666,3,NaN,9390.953298333,9390.971793125,9392.465189458,NaN,NaN
126,8,1,aesthetic,0,kitchen,sun_awcpdzzznmweyyhv.tif,216,1.5,0,0.833333333333333,9392.476640375,9396.018014,6,NaN,9396.023804708,9396.042206,9396.868879083,NaN,NaN
126,9,1,aesthetic,0,kitchen,sun_aadbddgrdsjugojn.tif,174,1.5,0,0.9,9396.873171666,9400.234674625,2,NaN,9400.240328208,9400.258748625,9401.152092458,NaN,NaN
126,10,1,aesthetic,0,kitchen,sun_aegoxogugdkwpmpj.tif,190,1.5,0,0.933333333333333,9401.156652,9404.226275333,2,NaN,9404.251171833,9404.273487041,9405.200161541,NaN,NaN
126,11,1,aesthetic,0,kitchen,sun_abrcnpqqhmjwekyf.tif,183,1.5,0,0.9,9405.205722833,9407.821794833,4,NaN,9407.850334583,9407.87386225,9408.767207625,NaN,NaN
126,12,1,aesthetic,0,kitchen,sun_avszsnwsbuqfgzbn.tif,215,1.5,0,0.85,9408.7724115,9411.230118333,3,NaN,9411.25919425,9411.283813708,9412.127157958,NaN,NaN
126,13,1,aesthetic,0,kitchen,labelme_kxvouciolcpqplr.tif,172,1.5,0,1.83333333333333,9412.132032125,9414.94961625,5,NaN,9414.978443708,9415.002036291,9416.828795416,NaN,NaN
126,14,1,aesthetic,0,kitchen,sun_agzzivivdpnawacl.tif,199,1.5,0,0.733333333333333,9416.849518916,9419.335301916,6,NaN,9419.364283166,9419.388446041,9420.115179416,NaN,NaN
126,15,1,aesthetic,0,kitchen,sun_aunzlwrbjumxhwdj.tif,213,1.5,0,1.63333333333333,9420.122808583,9422.93935275,2,NaN,9422.968638625,9422.992397041,9424.61915275,NaN,NaN
126,16,1,aesthetic,0,kitchen,sun_aymvwlarqodbwuoc.tif,218,1.5,0,0.766666666666667,9424.638995583,9427.933872833,6,NaN,9427.963319416,9427.987656916,9428.747663375,NaN,NaN
126,17,1,aesthetic,0,kitchen,sun_abpwyqmlzafvklqo.tif,182,1.5,0,1.71666666666667,9428.752550041,9431.422975666,4,NaN,9431.450852875,9431.474462541,9433.184521791,NaN,NaN
126,18,1,aesthetic,0,kitchen,sun_abdxkyyxwfskuaqb.tif,180,1.5,0,1.51666666666667,9433.204806083,9436.654932708,2,NaN,9436.684274083,9436.705631416,9438.215714708,NaN,NaN
126,19,1,aesthetic,0,kitchen,sun_aaxxjlsuzvqlgylf.tif,178,1.5,0,1.25,9438.236401583,9440.905570791,3,NaN,9440.911472333,9440.929795291,9442.173196875,NaN,NaN
126,20,1,aesthetic,0,kitchen,sun_azmutvzbxypaceni.tif,220,1.5,0,1.41666666666667,9442.190561166,9444.905828166,5,NaN,9444.911642958,9444.929945083,9446.340002708,NaN,NaN
126,21,1,aesthetic,0,kitchen,sun_axyyrmzcupyhlivc.tif,217,1.5,0,1.1,9446.360109333,9448.994449958,1,NaN,9448.999798125,9449.018115625,9450.111528125,NaN,NaN
126,22,1,aesthetic,0,kitchen,sun_ajkqhtgcbgpcwrwn.tif,207,1.5,0,0.95,9450.123256083,9453.682535708,6,NaN,9453.688079,9453.706385291,9454.649729958,NaN,NaN
126,23,1,aesthetic,0,kitchen,sun_aamedkxepzlwuxes.tif,175,1.5,0,1.45,9454.656013458,9457.441197541,3,NaN,9457.470026958,9457.493464041,9458.936859333,NaN,NaN
126,24,1,aesthetic,0,kitchen,sun_akcjzhbbjlbogpdi.tif,209,1.5,0,0.883333333333333,9458.955337833,9461.674357291,1,NaN,9461.6798375,9461.698236333,9462.574910416,NaN,NaN
126,25,1,aesthetic,0,kitchen,sun_ahywdevtimnqcsln.tif,204,1.5,0,1.23333333333333,9462.579337416,9465.346794291,7,NaN,9465.3764475,9465.400394833,9466.627123166,NaN,NaN
126,1,2,aesthetic,0,kitchen,sun_aeqdocilnnpuvuhx.tif,193,1.5,0,1.78333333333333,9471.16105325,9474.20584,4,NaN,9474.222742875,9474.242380916,9476.019110625,NaN,NaN
126,2,2,aesthetic,0,kitchen,sun_aggjlwcdjsjcaemh.tif,196,1.5,0,1.8,9476.041991875,9478.646355291,3,NaN,9478.673356958,9478.697113041,9480.490501958,NaN,NaN
126,3,2,aesthetic,0,kitchen,sun_aixorpehvfykdynp.tif,205,1.5,0,0.8,9480.510089875,9483.405652541,3,NaN,9483.432559541,9483.456600416,9484.24994275,NaN,NaN
126,4,2,aesthetic,0,kitchen,sun_acfmftudsenhrfhy.tif,184,1.5,0,1.01666666666667,9484.256028291,9487.133637083,2,NaN,9487.1632625,9487.186662166,9488.1967265,NaN,NaN
126,5,2,aesthetic,0,kitchen,sun_acxkpeoqbwcxfvip.tif,187,1.5,0,0.85,9488.206576541,9490.969646083,2,NaN,9490.9755095,9490.993927541,9491.837267541,NaN,NaN
126,6,2,aesthetic,0,kitchen,sun_admlmbcdswaszruo.tif,189,1.5,0,1.83333333333333,9491.841714,9495.505907958,5,NaN,9495.511543583,9495.529946333,9497.356696083,NaN,NaN
126,7,2,aesthetic,0,kitchen,sun_aexklacwqwezaorf.tif,194,1.5,0,1.11666666666667,9497.37429025,9501.073669958,3,NaN,9501.079435083,9501.097843041,9502.207899041,NaN,NaN
126,8,2,aesthetic,0,kitchen,sun_agubuxuukhzyzpdp.tif,198,1.5,0,1.88333333333333,9502.216860958,9504.857691375,2,NaN,9504.863077791,9504.881497208,9506.758235125,NaN,NaN
126,9,2,aesthetic,0,kitchen,sun_aypmqwcualkenuoe.tif,219,1.5,0,0.916666666666667,9506.7770965,9510.850029875,3,NaN,9510.855543333,9510.873894083,9511.783905125,NaN,NaN
126,10,2,aesthetic,0,kitchen,labelme_rykdqxenmhulbdn.tif,173,1.5,0,1.05,9511.788528708,9515.617868958,1,NaN,9515.623597291,9515.641953291,9516.685343916,NaN,NaN
126,11,2,aesthetic,0,kitchen,sun_aqeaevwwwjoqhzvl.tif,211,1.5,0,1.35,9516.695056166,9519.906285,2,NaN,9519.911800666,9519.930112083,9521.273648666,NaN,NaN
126,12,2,aesthetic,0,kitchen,sun_ahspylgoovwmwvgk.tif,203,1.5,0,1.01666666666667,9521.291735041,9523.801474333,5,NaN,9523.807279791,9523.825564458,9524.835659666,NaN,NaN
126,13,2,aesthetic,0,kitchen,sun_aehawpgmrlhlvcow.tif,191,1.5,0,2,9524.843937375,9527.545856333,5,NaN,9527.551566041,9527.570000625,9529.563418208,NaN,NaN
126,14,2,aesthetic,0,kitchen,sun_ahdycvpopffkzzsu.tif,200,1.5,0,0.9,9529.574571041,9532.574856166,3,NaN,9532.604288541,9532.627868791,9533.521210083,NaN,NaN
126,15,2,aesthetic,0,kitchen,sun_akchetnepxlcxhsu.tif,208,1.5,0,1.15,9533.5259745,9536.530782833,3,NaN,9536.557540916,9536.578146875,9537.721552583,NaN,NaN
126,16,2,aesthetic,0,kitchen,sun_abdenxonkemggwsq.tif,179,1.5,0,1.23333333333333,9537.730822583,9541.129202541,3,NaN,9541.135175083,9541.153547333,9542.38029175,NaN,NaN
126,17,2,aesthetic,0,kitchen,sun_ajcbwwvdlsvjyzje.tif,206,1.5,0,1.03333333333333,9542.399021916,9545.457761125,4,NaN,9545.46331625,9545.481687333,9546.508454833,NaN,NaN
126,18,2,aesthetic,0,kitchen,sun_acgtpgfybqjmzeyw.tif,185,1.5,0,0.783333333333333,9546.519187166,9549.113748958,3,NaN,9549.119344,9549.137779333,9549.914457041,NaN,NaN
126,19,2,aesthetic,0,kitchen,sun_acwjdupvyjsugpay.tif,186,1.5,0,0.766666666666667,9549.918914833,9552.565361208,4,NaN,9552.593584291,9552.617044291,9553.377052708,NaN,NaN
126,20,2,aesthetic,0,kitchen,sun_auticobqsbwgoppi.tif,214,1.5,0,1.18333333333333,9553.381855458,9556.097084875,4,NaN,9556.125710125,9556.149629,9557.326375083,NaN,NaN
126,21,2,aesthetic,0,kitchen,sun_aenotlpyftoioydp.tif,192,1.5,0,0.7,9557.336939708,9560.522058166,1,NaN,9560.527648875,9560.546012875,9561.239352833,NaN,NaN
126,22,2,aesthetic,0,kitchen,labelme_brsyyvweiuaazfr.tif,171,1.5,0,0.7,9561.243751625,9564.022948,3,NaN,9564.051772041,9564.074987791,9564.768328583,NaN,NaN
126,23,2,aesthetic,0,kitchen,sun_abftihopvusyfakt.tif,181,1.5,0,1.55,9564.773339916,9567.449554583,6,NaN,9567.47794725,9567.502066458,9569.045478291,NaN,NaN
126,24,2,aesthetic,0,kitchen,sun_aarfiyshqohlwkmo.tif,177,1.5,0,1.16666666666667,9569.064600208,9572.353623041,5,NaN,9572.359124541,9572.377513125,9573.537576625,NaN,NaN
126,25,2,aesthetic,0,kitchen,sun_amjjdeyrggfqgmom.tif,210,1.5,0,1.68333333333333,9573.54762625,9576.217589625,6,NaN,9576.223084375,9576.241493666,9577.91822625,NaN,NaN
