sub_num,trial,block,task,is_practice,category,image,texture,duration,mask_dur,jitter,stim_time,time_of_resp,trial_response,mask_time,fix_time,jit_onset,trial_end,trial_accuracy,RT
138,1,0,complexity,1,bathroom,bathroom_practice3.tif,223,1.5,0,1.56666666666667,1327.87325925,1332.336211541,2,NaN,1332.342032791,1332.36028975,1333.920323416,NaN,NaN
138,2,0,complexity,1,bathroom,bathroom_practice5.tif,225,1.5,0,1.1,1333.939880166,1336.23603375,3,NaN,1336.266142125,1336.289429291,1337.382787875,NaN,NaN
138,3,0,complexity,1,bathroom,bathroom_practice2.tif,222,1.5,0,1.51666666666667,1337.394373625,1339.873267041,7,NaN,1339.899745583,1339.923349,1341.433396833,NaN,NaN
138,4,0,complexity,1,bathroom,bathroom_practice4.tif,224,1.5,0,1.15,1341.444988083,1344.152275166,3,NaN,1344.157766916,1344.176133875,1345.319509833,NaN,NaN
138,5,0,complexity,1,bathroom,bathroom_practice1.tif,221,1.5,0,1.26666666666667,1345.329289708,1347.975846666,1,NaN,1347.981226875,1347.999299166,1349.259355916,NaN,NaN
138,1,1,complexity,0,bathroom,sun_abapwbhyhkfixyex.tif,124,1.5,0,0.75,1353.124949833,1355.850652625,3,NaN,1355.875648166,1355.899072041,1356.64241125,NaN,NaN
138,2,1,complexity,0,bathroom,sun_akiytfaagpdsphgz.tif,141,1.5,0,1.28333333333333,1356.647543541,1359.863968125,4,NaN,1359.8693835,1359.887693041,1361.1643955,NaN,NaN
138,3,1,complexity,0,bathroom,sun_axxbkopsgyouuebh.tif,168,1.5,0,1.76666666666667,1361.184302333,1363.728203333,2,NaN,1363.733582291,1363.75193625,1365.511987541,NaN,NaN
138,4,1,complexity,0,bathroom,sun_abjtwfukuwddzted.tif,125,1.5,0,1.28333333333333,1365.522987833,1368.558536708,2,NaN,1368.583701458,1368.607463208,1369.884192,NaN,NaN
138,5,1,complexity,0,bathroom,sun_amzlamotzwfkwjco.tif,147,1.5,0,1.8,1369.901747625,1373.320127875,3,NaN,1373.325524375,1373.343902041,1375.137281125,NaN,NaN
138,6,1,complexity,0,bathroom,sun_aofnryafpsjimzsb.tif,150,1.5,0,0.716666666666667,1375.155220125,1377.91916725,5,NaN,1377.945385916,1377.968626291,1378.678633291,NaN,NaN
138,7,1,complexity,0,bathroom,sun_asfwthctfqerjvxr.tif,159,1.5,0,1,1378.683445291,1381.620636875,4,NaN,1381.649538375,1381.673208,1382.666547125,NaN,NaN
138,8,1,complexity,0,bathroom,sun_apjevzvycyhuqghb.tif,153,1.5,0,1.21666666666667,1382.679410708,1385.230752208,6,NaN,1385.259310708,1385.283301416,1386.493358083,NaN,NaN
138,9,1,complexity,0,bathroom,sun_aapitsgbtktqubfy.tif,122,1.5,0,1.55,1386.5121425,1389.208135541,3,NaN,1389.213495125,1389.231579541,1390.774962708,NaN,NaN
138,10,1,complexity,0,bathroom,sun_aclfzgynxzxlbepz.tif,129,1.5,0,2,1390.793844875,1393.551510666,2,NaN,1393.557067958,1393.575443583,1395.568819333,NaN,NaN
138,11,1,complexity,0,bathroom,sun_aqrpegblszgcoujh.tif,158,1.5,0,0.716666666666667,1395.586123,1398.627252583,3,NaN,1398.653475083,1398.675474125,1399.385479333,NaN,NaN
138,12,1,complexity,0,bathroom,sun_awnqiikzaispgmwo.tif,166,1.5,0,0.933333333333333,1399.395903791,1402.032661583,1,NaN,1402.055688708,1402.079737833,1403.006408875,NaN,NaN
138,13,1,complexity,0,bathroom,sun_axyrejkiiaqiurjk.tif,169,1.5,0,1.58333333333333,1403.012511583,1405.53643025,4,NaN,1405.559733666,1405.582708291,1407.159425958,NaN,NaN
138,14,1,complexity,0,bathroom,sun_aspsyogrekjtfozg.tif,160,1.5,0,0.9,1407.178172333,1409.7352125,6,NaN,1409.740912166,1409.75925325,1410.652590833,NaN,NaN
138,15,1,complexity,0,bathroom,sun_anryaplzeujmzfkd.tif,149,1.5,0,1.16666666666667,1410.656911291,1413.356214791,5,NaN,1413.379520416,1413.400648958,1414.560682583,NaN,NaN
138,16,1,complexity,0,bathroom,sun_ausgutylgojavyoq.tif,163,1.5,0,0.733333333333333,1414.571043125,1417.543630291,5,NaN,1417.549097208,1417.567779291,1418.294451,NaN,NaN
138,17,1,complexity,0,bathroom,sun_ahijqszoswveeyji.tif,138,1.5,0,1.15,1418.298909583,1420.715583166,5,NaN,1420.743464625,1420.766623458,1421.910015625,NaN,NaN
138,18,1,complexity,0,bathroom,sun_acgyywnybuveqsro.tif,128,1.5,0,1.01666666666667,1421.920113125,1424.543789791,4,NaN,1424.549193875,1424.567591458,1425.577634791,NaN,NaN
138,19,1,complexity,0,bathroom,sun_aggnnqpdorgxpvce.tif,131,1.5,0,0.883333333333333,1425.585200125,1428.103133208,4,NaN,1428.10866275,1428.12696,1429.003632583,NaN,NaN
138,20,1,complexity,0,bathroom,sun_avhrdrntsqrjzccq.tif,165,1.5,0,1.65,1429.008613041,1431.992108333,6,NaN,1432.021504166,1432.043162583,1433.686545041,NaN,NaN
138,21,1,complexity,0,bathroom,sun_aghyqhbptboemmoq.tif,133,1.5,0,0.75,1433.703459208,1436.522523583,3,NaN,1436.549347333,1436.572936041,1437.316274375,NaN,NaN
138,22,1,complexity,0,bathroom,sun_acegryoqftbzowsg.tif,127,1.5,0,1.28333333333333,1437.328996666,1439.772406166,3,NaN,1439.798806833,1439.821912958,1441.098635916,NaN,NaN
138,23,1,complexity,0,bathroom,sun_ambriybtogmepttm.tif,146,1.5,0,1.25,1441.116529083,1443.758837875,3,NaN,1443.76462775,1443.782802625,1445.026180875,NaN,NaN
138,24,1,complexity,0,bathroom,sun_agrwbmhcpmfuwmsg.tif,134,1.5,0,0.833333333333333,1445.044331625,1448.679039791,4,NaN,1448.684656875,1448.70282925,1449.52950075,NaN,NaN
138,25,1,complexity,0,bathroom,sun_acduarbnmmoglmiv.tif,126,1.5,0,1.05,1449.533972583,1453.231455583,5,NaN,1453.236836041,1453.255145375,1454.298525875,NaN,NaN
138,1,2,complexity,0,bathroom,sun_apkxzenqapsujocq.tif,155,1.5,0,0.95,1457.95330475,1461.639474166,2,NaN,1461.644874583,1461.663286875,1462.60662625,NaN,NaN
138,2,2,complexity,0,bathroom,sun_afcoljnjfoxjtgja.tif,130,1.5,0,1.55,1462.612210666,1465.102450625,4,NaN,1465.128410083,1465.151504791,1466.694876583,NaN,NaN
138,3,2,complexity,0,bathroom,sun_agyqfjcfkdcydepw.tif,135,1.5,0,1.2,1466.711626333,1469.762666416,6,NaN,1469.791853625,1469.813934041,1471.007327291,NaN,NaN
138,4,2,complexity,0,bathroom,sun_apkruvsevgegsdwp.tif,154,1.5,0,1.86666666666667,1471.022183291,1473.703737583,2,NaN,1473.709102875,1473.72735575,1475.587382791,NaN,NaN
138,5,2,complexity,0,bathroom,sun_alotolagknyrgtsk.tif,145,1.5,0,1.66666666666667,1475.597626208,1478.169939375,6,NaN,1478.190908,1478.213905666,1479.87395725,NaN,NaN
138,6,2,complexity,0,bathroom,sun_axldvoqbuvuggfmq.tif,167,1.5,0,1.35,1479.88518225,1482.904827916,3,NaN,1482.933313708,1482.956747166,1484.300141958,NaN,NaN
138,7,2,complexity,0,bathroom,sun_aoybiabnpadelefl.tif,151,1.5,0,1.11666666666667,1484.317411,1486.743445458,5,NaN,1486.748823416,1486.767174666,1487.877220583,NaN,NaN
138,8,2,complexity,0,bathroom,sun_apmqjbnwghzuhhzh.tif,156,1.5,0,0.95,1487.888533833,1491.695115708,4,NaN,1491.700591416,1491.719022916,1492.662362166,NaN,NaN
138,9,2,complexity,0,bathroom,sun_aleqenyvunhactkl.tif,142,1.5,0,1.03333333333333,1492.666901125,1495.066039083,2,NaN,1495.090943,1495.114607916,1496.141325083,NaN,NaN
138,10,2,complexity,0,bathroom,sun_aunuadmjocsddsrl.tif,162,1.5,0,1.01666666666667,1496.149580958,1498.918859541,2,NaN,1498.924521291,1498.942766375,1499.952804125,NaN,NaN
138,11,2,complexity,0,bathroom,sun_agguqiubmwhqqunb.tif,132,1.5,0,1.81666666666667,1499.960828291,1502.495408916,5,NaN,1502.500764416,1502.519190166,1504.329238166,NaN,NaN
138,12,2,complexity,0,bathroom,sun_alkosphxlxwjwgjd.tif,144,1.5,0,1.8,1504.346463666,1506.754452041,4,NaN,1506.783393708,1506.806753708,1508.600129791,NaN,NaN
138,13,2,complexity,0,bathroom,sun_atstyziqcmkahyxk.tif,161,1.5,0,1.26666666666667,1508.614274625,1511.17848175,3,NaN,1511.204888583,1511.22792275,1512.487973958,NaN,NaN
138,14,2,complexity,0,bathroom,sun_azqyogdvyhahyram.tif,170,1.5,0,1.66666666666667,1512.50539325,1515.174701541,2,NaN,1515.180383125,1515.198460916,1516.858509708,NaN,NaN
138,15,2,complexity,0,bathroom,sun_aljolscmmzydegqp.tif,143,1.5,0,1.93333333333333,1516.87394925,1519.270936958,3,NaN,1519.298757125,1519.321906208,1521.24861675,NaN,NaN
138,16,2,complexity,0,bathroom,sun_ahcvzmoyaycdoftf.tif,137,1.5,0,1.75,1521.266707125,1523.8068865,3,NaN,1523.835466916,1523.858734,1525.602129791,NaN,NaN
138,17,2,complexity,0,bathroom,sun_aavhrsfjbserjtht.tif,123,1.5,0,0.766666666666667,1525.621835,1528.044456375,4,NaN,1528.073017041,1528.096425958,1528.856482666,NaN,NaN
138,18,2,complexity,0,bathroom,sun_ajlawzvmubibwbpy.tif,140,1.5,0,1.43333333333333,1528.871774958,1531.424776791,4,NaN,1531.44366875,1531.464616833,1532.8913295,NaN,NaN
138,19,2,complexity,0,bathroom,sun_ahqjwnzgolcaoidx.tif,139,1.5,0,0.916666666666667,1532.909653958,1535.567446666,5,NaN,1535.57284775,1535.59129425,1536.501298083,NaN,NaN
138,20,2,complexity,0,bathroom,labelme_sfxiulhjbhlyiyt.tif,121,1.5,0,0.766666666666667,1536.505613458,1539.074832625,2,NaN,1539.102757916,1539.125619041,1539.885626,NaN,NaN
138,21,2,complexity,0,bathroom,sun_apynckhmoftszqoq.tif,157,1.5,0,0.783333333333333,1539.895259666,1542.856894,2,NaN,1542.875862375,1542.898067666,1543.674739666,NaN,NaN
138,22,2,complexity,0,bathroom,sun_anhioqovhscjqqwb.tif,148,1.5,0,1.31666666666667,1543.680287125,1546.838779083,2,NaN,1546.846446458,1546.864678541,1548.1747165,NaN,NaN
138,23,2,complexity,0,bathroom,sun_auzqhkafidnkrwmo.tif,164,1.5,0,1.1,1548.191769375,1551.15091825,4,NaN,1551.156327291,1551.17468475,1552.268051916,NaN,NaN
138,24,2,complexity,0,bathroom,sun_ahaulkltgpkeeemi.tif,136,1.5,0,1.26666666666667,1552.277286458,1554.934806041,2,NaN,1554.940301166,1554.95866575,1556.218705625,NaN,NaN
138,25,2,complexity,0,bathroom,sun_apeeialkgkuxddgh.tif,152,1.5,0,0.933333333333333,1556.236113833,1558.646557291,1,NaN,1558.652178791,1558.6703715,1559.597044708,NaN,NaN
