sub_num,trial,block,task,is_practice,category,image,texture,duration,mask_dur,jitter,stim_time,time_of_resp,trial_response,mask_time,fix_time,jit_onset,trial_end,trial_accuracy,RT
120,6,0,complexity,1,kitchen,kitchen_practice5.tif,230,1.5,0,1.46666666666667,1491688.9736805,1491690.4768107,50,NaN,1491690.4765791,1491690.5022917,1491691.9672982,NaN,NaN
120,7,0,complexity,1,kitchen,kitchen_practice2.tif,227,1.5,0,1.31666666666667,1491691.9733538,1491693.9172858,54,NaN,1491693.4773958,1491693.9228892,1491695.2378977,NaN,NaN
120,8,0,complexity,1,kitchen,kitchen_practice4.tif,229,1.5,0,1.76666666666667,1491695.2439897,1491697.1235939,54,NaN,1491696.7466509,1491697.1290439,1491698.8940675,NaN,NaN
120,9,0,complexity,1,kitchen,kitchen_practice1.tif,226,1.5,0,0.816666666666667,1491698.9006727,1491700.6354829,53,NaN,1491700.4033888,1491700.6408588,1491701.4558663,NaN,NaN
120,10,0,complexity,1,kitchen,kitchen_practice3.tif,228,1.5,0,0.9,1491701.4623812,1491703.1578334,51,NaN,1491702.965261,1491703.1646139,1491704.0629763,NaN,NaN
120,1,1,complexity,0,kitchen,sun_awcpdzzznmweyyhv.tif,215,1.5,0,1.15,1491708.7820897,1491710.6357531,51,NaN,1491710.2849079,1491710.6413097,1491711.7896512,NaN,NaN
120,2,1,complexity,0,kitchen,sun_ahpczsiumwwocjkv.tif,202,1.5,0,1.33333333333333,1491711.795794,1491713.6208733,50,NaN,1491713.2993882,1491713.6275259,1491714.9591976,NaN,NaN
120,3,1,complexity,0,kitchen,sun_aeqdocilnnpuvuhx.tif,193,1.5,0,1.75,1491714.9650443,1491716.7638806,54,NaN,1491716.4687907,1491716.7701615,1491718.5185026,NaN,NaN
120,4,1,complexity,0,kitchen,sun_ahywdevtimnqcsln.tif,204,1.5,0,1.2,1491718.5249556,1491720.748265,54,NaN,1491720.0277092,1491720.7540111,1491721.9523515,NaN,NaN
120,5,1,complexity,0,kitchen,sun_auaiucuqpdausiva.tif,211,1.5,0,1.46666666666667,1491721.9588461,1491723.7506277,54,NaN,1491723.462528,1491723.7566114,1491725.221617,NaN,NaN
120,6,1,complexity,0,kitchen,sun_aehawpgmrlhlvcow.tif,191,1.5,0,1.01666666666667,1491725.2279176,1491727.4154028,50,NaN,1491726.7308671,1491727.420961,1491728.4359658,NaN,NaN
120,7,1,complexity,0,kitchen,sun_agorklincwxrdtga.tif,197,1.5,0,1.18333333333333,1491728.4420062,1491730.3643953,51,NaN,1491729.9455245,1491730.3700328,1491731.5517042,NaN,NaN
120,8,1,complexity,0,kitchen,sun_agzzivivdpnawacl.tif,199,1.5,0,1.03333333333333,1491731.557359,1491733.5552928,53,NaN,1491733.060516,1491733.5614184,1491734.5930897,NaN,NaN
120,9,1,complexity,0,kitchen,sun_acfmftudsenhrfhy.tif,184,1.5,0,1.25,1491734.5987294,1491736.3724328,53,NaN,1491736.1017645,1491736.3778022,1491737.6261411,NaN,NaN
120,10,1,complexity,0,kitchen,sun_aarfiyshqohlwkmo.tif,177,1.5,0,0.733333333333333,1491737.6325692,1491739.1565399,53,NaN,1491739.1357882,1491739.1621333,1491739.8938073,NaN,NaN
120,11,1,complexity,0,kitchen,labelme_rykdqxenmhulbdn.tif,173,1.5,0,1.01666666666667,1491739.8997383,1491742.0082596,52,NaN,1491741.4028996,1491742.0138112,1491743.0288181,NaN,NaN
120,12,1,complexity,0,kitchen,sun_aexklacwqwezaorf.tif,194,1.5,0,1.53333333333333,1491743.0348138,1491745.0172801,52,NaN,1491744.5384668,1491745.0231383,1491746.554813,NaN,NaN
120,13,1,complexity,0,kitchen,sun_auticobqsbwgoppi.tif,213,1.5,0,1.33333333333333,1491746.5610252,1491748.3720637,51,NaN,1491748.0639162,1491748.3776455,1491749.709343,NaN,NaN
120,14,1,complexity,0,kitchen,sun_ahljzhgcdpomplvg.tif,201,1.5,0,1.53333333333333,1491749.7170612,1491751.7033531,51,NaN,1491751.2203663,1491751.7085945,1491753.240269,NaN,NaN
120,15,1,complexity,0,kitchen,labelme_kxvouciolcpqplr.tif,172,1.5,0,1.01666666666667,1491753.2465764,1491755.1891149,50,NaN,1491754.7506339,1491755.1956455,1491756.2106537,NaN,NaN
120,16,1,complexity,0,kitchen,sun_axyyrmzcupyhlivc.tif,216,1.5,0,1.23333333333333,1491756.2165821,1491758.9607867,52,NaN,1491757.7200183,1491758.9661586,1491760.1978309,NaN,NaN
120,17,1,complexity,0,kitchen,sun_aaxxjlsuzvqlgylf.tif,178,1.5,0,1.18333333333333,1491760.2048048,1491761.9949759,53,NaN,1491761.7075939,1491762.0004191,1491763.1821061,NaN,NaN
120,18,1,complexity,0,kitchen,sun_aamedkxepzlwuxes.tif,175,1.5,0,0.783333333333333,1491763.1888059,1491765.0336951,54,NaN,1491764.6920927,1491765.0391721,1491765.8208467,NaN,NaN
120,19,1,complexity,0,kitchen,sun_ajkqhtgcbgpcwrwn.tif,206,1.5,0,1.73333333333333,1491765.8279379,1491767.6125057,54,NaN,1491767.3308689,1491767.6181591,1491769.3498336,NaN,NaN
120,20,1,complexity,0,kitchen,sun_azmutvzbxypaceni.tif,220,1.5,0,1.21666666666667,1491769.3561015,1491771.1511253,50,NaN,1491770.8596389,1491771.1564853,1491772.3714928,NaN,NaN
120,21,1,complexity,0,kitchen,sun_acxkpeoqbwcxfvip.tif,187,1.5,0,1.26666666666667,1491772.3779998,1491774.2125868,52,NaN,1491773.8808923,1491774.2189989,1491775.4840065,NaN,NaN
120,22,1,complexity,0,kitchen,sun_aggjlwcdjsjcaemh.tif,196,1.5,0,0.783333333333333,1491775.4904151,1491777.3233987,52,NaN,1491776.9937422,1491777.3297763,1491778.1114512,NaN,NaN
120,23,1,complexity,0,kitchen,sun_aadbddgrdsjugojn.tif,174,1.5,0,1.48333333333333,1491778.1178205,1491780.4497325,51,NaN,1491779.6205952,1491780.456317,1491781.9379901,NaN,NaN
120,24,1,complexity,0,kitchen,sun_acwjdupvyjsugpay.tif,186,1.5,0,1.36666666666667,1491781.9439057,1491783.7825138,50,NaN,1491783.446692,1491783.7886518,1491785.1536574,NaN,NaN
120,25,1,complexity,0,kitchen,sun_avszsnwsbuqfgzbn.tif,214,1.5,0,0.983333333333333,1491785.1597238,1491786.8610639,55,NaN,1491786.6622426,1491786.8666965,1491787.8483697,NaN,NaN
120,1,2,complexity,0,kitchen,sun_ajcbwwvdlsvjyzje.tif,205,1.5,0,1.26666666666667,1491791.6011936,1491793.4190743,54,NaN,1491793.1039082,1491793.4242475,1491794.6892528,NaN,NaN
120,2,2,complexity,0,kitchen,sun_ayqymgxqhxxiykiw.tif,219,1.5,0,1.11666666666667,1491794.6955122,1491796.2842932,51,NaN,1491796.1986479,1491796.2898371,1491797.4048557,NaN,NaN
120,3,2,complexity,0,kitchen,sun_aypmqwcualkenuoe.tif,218,1.5,0,1.43333333333333,1491797.411624,1491799.0925429,55,NaN,1491798.9147423,1491799.0981665,1491800.5298406,NaN,NaN
120,4,2,complexity,0,kitchen,sun_aqeaevwwwjoqhzvl.tif,210,1.5,0,0.8,1491800.5362585,1491802.4275182,54,NaN,1491802.0392448,1491802.4331341,1491803.231474,NaN,NaN
120,5,2,complexity,0,kitchen,sun_amjjdeyrggfqgmom.tif,209,1.5,0,0.733333333333333,1491803.2378005,1491805.0933663,49,NaN,1491804.7414649,1491805.098998,1491805.8306712,NaN,NaN
120,6,2,complexity,0,kitchen,sun_abdxkyyxwfskuaqb.tif,180,1.5,0,1.03333333333333,1491805.8374303,1491807.6000767,53,NaN,1491807.3403465,1491807.606206,1491808.6378796,NaN,NaN
120,7,2,complexity,0,kitchen,sun_acgtpgfybqjmzeyw.tif,185,1.5,0,1.56666666666667,1491808.6439151,1491810.3961095,52,NaN,1491810.1469317,1491810.4018187,1491811.9668258,NaN,NaN
120,8,2,complexity,0,kitchen,sun_ahdycvpopffkzzsu.tif,200,1.5,0,0.866666666666667,1491811.9732885,1491813.7318833,51,NaN,1491813.4764871,1491813.7382125,1491814.6032207,NaN,NaN
120,9,2,complexity,0,kitchen,sun_akchetnepxlcxhsu.tif,207,1.5,0,0.716666666666667,1491814.6107389,1491816.7175699,51,NaN,1491816.1140983,1491816.7236441,1491817.438651,NaN,NaN
120,10,2,complexity,0,kitchen,sun_agubuxuukhzyzpdp.tif,198,1.5,0,1.33333333333333,1491817.4447358,1491819.1934983,53,NaN,1491818.9479397,1491819.1991316,1491820.5308063,NaN,NaN
120,11,2,complexity,0,kitchen,sun_aegoxogugdkwpmpj.tif,190,1.5,0,1.01666666666667,1491820.5386243,1491822.3069058,54,NaN,1491822.0421592,1491822.3134003,1491823.3284083,NaN,NaN
120,12,2,complexity,0,kitchen,sun_aenotlpyftoioydp.tif,192,1.5,0,0.733333333333333,1491823.3345776,1491825.1337554,51,NaN,1491824.8377408,1491825.1401713,1491825.8718425,NaN,NaN
120,13,2,complexity,0,kitchen,sun_aunzlwrbjumxhwdj.tif,212,1.5,0,1.38333333333333,1491825.8777108,1491827.9835129,50,NaN,1491827.3809146,1491827.9895251,1491829.3712125,NaN,NaN
120,14,2,complexity,0,kitchen,sun_aapllqyqlykszopd.tif,176,1.5,0,1.06666666666667,1491829.3775415,1491831.1829716,51,NaN,1491830.8807502,1491831.1896541,1491832.2546595,NaN,NaN
120,15,2,complexity,0,kitchen,sun_adgqasybjyktddhj.tif,188,1.5,0,0.85,1491832.2605582,1491834.0951955,50,NaN,1491833.7636133,1491834.1008289,1491834.9491706,NaN,NaN
120,16,2,complexity,0,kitchen,labelme_brsyyvweiuaazfr.tif,171,1.5,0,0.9,1491834.9552023,1491836.9653354,53,NaN,1491836.4582468,1491836.97075,1491837.8690905,NaN,NaN
120,17,2,complexity,0,kitchen,sun_admlmbcdswaszruo.tif,189,1.5,0,1.55,1491837.8752404,1491839.7770889,52,NaN,1491839.3792927,1491839.7832045,1491841.3315467,NaN,NaN
120,18,2,complexity,0,kitchen,sun_abrcnpqqhmjwekyf.tif,183,1.5,0,0.7,1491841.3376997,1491842.9752368,52,NaN,1491842.8401292,1491842.9806252,1491843.6789646,NaN,NaN
120,19,2,complexity,0,kitchen,sun_abdenxonkemggwsq.tif,179,1.5,0,0.716666666666667,1491843.6851534,1491845.4097889,54,NaN,1491845.1894002,1491845.4152311,1491846.130238,NaN,NaN
120,20,2,complexity,0,kitchen,sun_akcjzhbbjlbogpdi.tif,208,1.5,0,0.85,1491846.1363804,1491847.8978906,52,NaN,1491847.6396409,1491847.9034784,1491848.7518173,NaN,NaN
120,21,2,complexity,0,kitchen,sun_aymvwlarqodbwuoc.tif,217,1.5,0,1.35,1491848.7584183,1491850.3632534,52,NaN,1491850.2621541,1491850.3687172,1491851.7170591,NaN,NaN
120,22,2,complexity,0,kitchen,sun_abftihopvusyfakt.tif,181,1.5,0,1.96666666666667,1491851.7237023,1491853.6600481,52,NaN,1491853.226313,1491853.6664335,1491855.6314387,NaN,NaN
120,23,2,complexity,0,kitchen,sun_afuyedyxivkhecmu.tif,195,1.5,0,0.933333333333333,1491855.63791,1491857.4143474,54,NaN,1491857.1412354,1491857.4208382,1491858.3525107,NaN,NaN
120,24,2,complexity,0,kitchen,sun_ahspylgoovwmwvgk.tif,203,1.5,0,1.33333333333333,1491858.358708,1491860.302643,52,NaN,1491859.8624902,1491860.3080918,1491861.6397638,NaN,NaN
120,25,2,complexity,0,kitchen,sun_abpwyqmlzafvklqo.tif,182,1.5,0,1.16666666666667,1491861.6456023,1491863.4314321,51,NaN,1491863.1490058,1491863.4369475,1491864.6019552,NaN,NaN
