sub_num,trial,block,task,is_practice,category,image,texture,duration,mask_dur,jitter,stim_time,time_of_resp,trial_response,mask_time,fix_time,jit_onset,trial_end,trial_accuracy,RT
104,6,0,complexity,1,kitchen,kitchen_practice5.tif,230,1.5,0,1.46666666666667,4279.415805458,4283.607786708,5,NaN,4283.614209625,4283.632564791,4285.092669833,NaN,NaN
104,7,0,complexity,1,kitchen,kitchen_practice2.tif,227,1.5,0,1.31666666666667,4285.110335541,4287.872543875,6,NaN,4287.878066916,4287.896410791,4289.206503916,NaN,NaN
104,8,0,complexity,1,kitchen,kitchen_practice4.tif,229,1.5,0,1.76666666666667,4289.223922958,4292.128601958,7,NaN,4292.134128333,4292.152436875,4293.912521541,NaN,NaN
104,9,0,complexity,1,kitchen,kitchen_practice1.tif,226,1.5,0,0.816666666666667,4293.931539958,4297.183727166,4,NaN,4297.214355166,4297.238578041,4298.048588458,NaN,NaN
104,10,0,complexity,1,kitchen,kitchen_practice3.tif,228,1.5,0,0.9,4298.053468541,4301.352582375,3,NaN,4301.3580895,4301.376429083,4302.269773,NaN,NaN
104,1,1,complexity,0,kitchen,sun_avszsnwsbuqfgzbn.tif,215,1.5,0,1.15,4307.098917583,4311.88820725,3,NaN,4311.893733916,4311.912250875,4313.055658125,NaN,NaN
104,2,1,complexity,0,kitchen,sun_ahpczsiumwwocjkv.tif,202,1.5,0,1.33333333333333,4313.066165041,4316.000486208,2,NaN,4316.006045458,4316.024340916,4317.351087625,NaN,NaN
104,3,1,complexity,0,kitchen,sun_aeqdocilnnpuvuhx.tif,193,1.5,0,1.75,4317.368920291,4320.959867875,4,NaN,4320.965812875,4320.984197708,4322.727591833,NaN,NaN
104,4,1,complexity,0,kitchen,sun_ahywdevtimnqcsln.tif,204,1.5,0,1.2,4322.738003583,4326.007599375,4,NaN,4326.036626958,4326.059860916,4327.25324625,NaN,NaN
104,5,1,complexity,0,kitchen,sun_aqeaevwwwjoqhzvl.tif,211,1.5,0,1.46666666666667,4327.266797375,4330.264011916,5,NaN,4330.269661916,4330.288320791,4331.74842425,NaN,NaN
104,6,1,complexity,0,kitchen,sun_aehawpgmrlhlvcow.tif,191,1.5,0,1.01666666666667,4331.766960583,4337.807672875,2,NaN,4337.81358825,4337.8318175,4338.841923791,NaN,NaN
104,7,1,complexity,0,kitchen,sun_agorklincwxrdtga.tif,197,1.5,0,1.18333333333333,4338.849554,4342.063615583,3,NaN,4342.069695541,4342.0883775,4343.265134125,NaN,NaN
104,8,1,complexity,0,kitchen,sun_agzzivivdpnawacl.tif,199,1.5,0,1.03333333333333,4343.2753455,4348.90374475,4,NaN,4348.909573666,4348.927930375,4349.954664875,NaN,NaN
104,9,1,complexity,0,kitchen,sun_acfmftudsenhrfhy.tif,184,1.5,0,1.25,4349.9629135,4353.527864,5,NaN,4353.533583958,4353.551965333,4354.795375458,NaN,NaN
104,10,1,complexity,0,kitchen,sun_aarfiyshqohlwkmo.tif,177,1.5,0,0.733333333333333,4354.812824916,4358.200495708,6,NaN,4358.206145333,4358.224591375,4358.951265875,NaN,NaN
104,11,1,complexity,0,kitchen,labelme_rykdqxenmhulbdn.tif,173,1.5,0,1.01666666666667,4358.956297875,4362.408150625,3,NaN,4362.413612958,4362.431937375,4363.442009875,NaN,NaN
104,12,1,complexity,0,kitchen,sun_aexklacwqwezaorf.tif,194,1.5,0,1.53333333333333,4363.449997083,4366.49578175,6,NaN,4366.501490833,4366.520062875,4368.046795166,NaN,NaN
104,13,1,complexity,0,kitchen,sun_aunzlwrbjumxhwdj.tif,213,1.5,0,1.33333333333333,4368.065099333,4374.92800075,4,NaN,4374.933688875,4374.952043708,4376.278809875,NaN,NaN
104,14,1,complexity,0,kitchen,sun_ahljzhgcdpomplvg.tif,201,1.5,0,1.53333333333333,4376.297248583,4379.22341525,2,NaN,4379.228952375,4379.247321875,4380.774043916,NaN,NaN
104,15,1,complexity,0,kitchen,labelme_kxvouciolcpqplr.tif,172,1.5,0,1.01666666666667,4380.793313166,4384.375880708,2,NaN,4384.381515625,4384.399884083,4385.409955125,NaN,NaN
104,16,1,complexity,0,kitchen,sun_awcpdzzznmweyyhv.tif,216,1.5,0,1.23333333333333,4385.418210666,4388.455394875,4,NaN,4388.461395166,4388.479797875,4389.706570833,NaN,NaN
104,17,1,complexity,0,kitchen,sun_aaxxjlsuzvqlgylf.tif,178,1.5,0,1.18333333333333,4389.723655166,4392.632428375,3,NaN,4392.637946208,4392.656162875,4393.832873125,NaN,NaN
104,18,1,complexity,0,kitchen,sun_aamedkxepzlwuxes.tif,175,1.5,0,0.783333333333333,4393.844008041,4397.183523083,5,NaN,4397.189192541,4397.207342583,4397.984015083,NaN,NaN
104,19,1,complexity,0,kitchen,sun_ajcbwwvdlsvjyzje.tif,206,1.5,0,1.73333333333333,4397.989141125,4401.415620208,6,NaN,4401.421098541,4401.43963325,4403.166400666,NaN,NaN
104,20,1,complexity,0,kitchen,sun_azmutvzbxypaceni.tif,220,1.5,0,1.21666666666667,4403.182177208,4406.467349541,2,NaN,4406.4913675,4406.514628083,4407.724714375,NaN,NaN
104,21,1,complexity,0,kitchen,sun_acxkpeoqbwcxfvip.tif,187,1.5,0,1.26666666666667,4407.742925375,4411.440265541,5,NaN,4411.445992,4411.464359541,4412.724432041,NaN,NaN
104,22,1,complexity,0,kitchen,sun_aggjlwcdjsjcaemh.tif,196,1.5,0,0.783333333333333,4412.740644083,4416.703356458,2,NaN,4416.709672666,4416.727975833,4417.504651458,NaN,NaN
104,23,1,complexity,0,kitchen,sun_aadbddgrdsjugojn.tif,174,1.5,0,1.48333333333333,4417.508854791,4421.304205541,5,NaN,4421.309694875,4421.328123083,4422.804871625,NaN,NaN
104,24,1,complexity,0,kitchen,sun_acwjdupvyjsugpay.tif,186,1.5,0,1.36666666666667,4422.824523166,4426.7196935,1,NaN,4426.725408666,4426.743730916,4428.103810875,NaN,NaN
104,25,1,complexity,0,kitchen,sun_auticobqsbwgoppi.tif,214,1.5,0,0.983333333333333,4428.124228791,4433.383842625,2,NaN,4433.389449,4433.407774208,4434.384447583,NaN,NaN
104,1,2,complexity,0,kitchen,sun_aixorpehvfykdynp.tif,205,1.5,0,1.26666666666667,4438.563294166,4442.255215375,3,NaN,4442.26113725,4442.279486625,4443.539588041,NaN,NaN
104,2,2,complexity,0,kitchen,sun_aypmqwcualkenuoe.tif,219,1.5,0,1.11666666666667,4443.558078458,4447.647799125,7,NaN,4447.653275208,4447.671701291,4448.781768125,NaN,NaN
104,3,2,complexity,0,kitchen,sun_aymvwlarqodbwuoc.tif,218,1.5,0,1.43333333333333,4448.789999666,4451.768158,2,NaN,4451.773666791,4451.791947541,4453.21867175,NaN,NaN
104,4,2,complexity,0,kitchen,sun_amjjdeyrggfqgmom.tif,210,1.5,0,0.8,4453.238499291,4456.335071833,1,NaN,4456.340881291,4456.359166166,4457.152509208,NaN,NaN
104,5,2,complexity,0,kitchen,sun_akcjzhbbjlbogpdi.tif,209,1.5,0,0.733333333333333,4457.170714291,4460.271420041,2,NaN,4460.278279,4460.296636333,4461.023311333,NaN,NaN
104,6,2,complexity,0,kitchen,sun_abdxkyyxwfskuaqb.tif,180,1.5,0,1.03333333333333,4461.037490041,4463.992018666,3,NaN,4464.02045975,4464.043383625,4465.070113833,NaN,NaN
104,7,2,complexity,0,kitchen,sun_acgtpgfybqjmzeyw.tif,185,1.5,0,1.56666666666667,4465.079797125,4468.055152833,2,NaN,4468.060915125,4468.079137291,4469.639210166,NaN,NaN
104,8,2,complexity,0,kitchen,sun_ahdycvpopffkzzsu.tif,200,1.5,0,0.866666666666667,4469.658037791,4472.679713791,3,NaN,4472.708827708,4472.732119375,4473.592129833,NaN,NaN
104,9,2,complexity,0,kitchen,sun_ajkqhtgcbgpcwrwn.tif,207,1.5,0,0.716666666666667,4473.596637416,4476.672217416,5,NaN,4476.681413333,4476.700443916,4477.410449875,NaN,NaN
104,10,2,complexity,0,kitchen,sun_agubuxuukhzyzpdp.tif,198,1.5,0,1.33333333333333,4477.415123833,4480.456299041,4,NaN,4480.465498916,4480.484458708,4481.811213916,NaN,NaN
104,11,2,complexity,0,kitchen,sun_aegoxogugdkwpmpj.tif,190,1.5,0,1.01666666666667,4481.82890625,4485.68783275,6,NaN,4485.693404041,4485.711841833,4486.721946416,NaN,NaN
104,12,2,complexity,0,kitchen,sun_aenotlpyftoioydp.tif,192,1.5,0,0.733333333333333,4486.730185375,4490.294939166,2,NaN,4490.300753458,4490.319108708,4491.045784583,NaN,NaN
104,13,2,complexity,0,kitchen,sun_auaiucuqpdausiva.tif,212,1.5,0,1.38333333333333,4491.050120041,4494.303910833,2,NaN,4494.309652125,4494.327992083,4495.704747125,NaN,NaN
104,14,2,complexity,0,kitchen,sun_aapllqyqlykszopd.tif,176,1.5,0,1.06666666666667,4495.723820083,4498.559854916,3,NaN,4498.565397666,4498.583769541,4499.643847708,NaN,NaN
104,15,2,complexity,0,kitchen,sun_adgqasybjyktddhj.tif,188,1.5,0,0.85,4499.652218333,4502.671540041,2,NaN,4502.677138041,4502.695465166,4503.538807541,NaN,NaN
104,16,2,complexity,0,kitchen,labelme_brsyyvweiuaazfr.tif,171,1.5,0,0.9,4503.543392083,4506.583194166,4,NaN,4506.596227291,4506.615479916,4507.508822416,NaN,NaN
104,17,2,complexity,0,kitchen,sun_admlmbcdswaszruo.tif,189,1.5,0,1.55,4507.513494541,4511.135603666,3,NaN,4511.141097416,4511.159527666,4512.703164916,NaN,NaN
104,18,2,complexity,0,kitchen,sun_abrcnpqqhmjwekyf.tif,183,1.5,0,0.7,4512.721462083,4515.695762583,2,NaN,4515.70122525,4515.719622208,4516.412962458,NaN,NaN
104,19,2,complexity,0,kitchen,sun_abdenxonkemggwsq.tif,179,1.5,0,0.716666666666667,4516.417311083,4519.694899375,5,NaN,4519.70170175,4519.719986,4520.429993666,NaN,NaN
104,20,2,complexity,0,kitchen,sun_akchetnepxlcxhsu.tif,208,1.5,0,0.85,4520.434409125,4523.426835833,5,NaN,4523.456625541,4523.479864958,4524.323204416,NaN,NaN
104,21,2,complexity,0,kitchen,sun_axyyrmzcupyhlivc.tif,217,1.5,0,1.35,4524.327780916,4528.071125666,6,NaN,4528.076907208,4528.095238416,4529.438641958,NaN,NaN
104,22,2,complexity,0,kitchen,sun_abftihopvusyfakt.tif,181,1.5,0,1.96666666666667,4529.45707325,4533.438820875,2,NaN,4533.444693708,4533.4630505,4535.423155416,NaN,NaN
104,23,2,complexity,0,kitchen,sun_afuyedyxivkhecmu.tif,195,1.5,0,0.933333333333333,4535.442391083,4538.983066375,6,NaN,4538.988727666,4539.007010708,4539.933683958,NaN,NaN
104,24,2,complexity,0,kitchen,sun_ahspylgoovwmwvgk.tif,203,1.5,0,1.33333333333333,4539.938981541,4543.527611041,2,NaN,4543.533076416,4543.55142475,4544.8781845,NaN,NaN
104,25,2,complexity,0,kitchen,sun_abpwyqmlzafvklqo.tif,182,1.5,0,1.16666666666667,4544.89583375,4548.0150615,1,NaN,4548.020835625,4548.038983583,4549.199085541,NaN,NaN
