sub_num,trial,block,task,is_practice,category,image,texture,duration,mask_dur,jitter,stim_time,time_of_resp,trial_response,mask_time,fix_time,jit_onset,trial_end,trial_accuracy,RT
120,1,0,complexity,1,bathroom,bathroom_practice3.tif,223,1.5,0,1.56666666666667,1499914.0481073,1499915.851572,53,NaN,1499915.5511875,1499915.8571483,1499917.4221558,NaN,NaN
120,2,0,complexity,1,bathroom,bathroom_practice5.tif,225,1.5,0,1.1,1499917.4287352,1499922.2413356,54,NaN,1499918.9325618,1499922.2469303,1499923.3452712,NaN,NaN
120,3,0,complexity,1,bathroom,bathroom_practice2.tif,222,1.5,0,1.51666666666667,1499923.3527845,1499924.8559869,55,NaN,1499924.8557789,1499924.882313,1499926.3973223,NaN,NaN
120,4,0,complexity,1,bathroom,bathroom_practice4.tif,224,1.5,0,1.15,1499926.4035604,1499928.4801962,51,NaN,1499927.9069736,1499928.4870564,1499929.6353946,NaN,NaN
120,5,0,complexity,1,bathroom,bathroom_practice1.tif,221,1.5,0,1.26666666666667,1499929.6412126,1499931.1441481,49,NaN,1499931.1439433,1499931.1705556,1499932.4355603,NaN,NaN
120,1,1,complexity,0,bathroom,sun_abapwbhyhkfixyex.tif,124,1.5,0,0.75,1499941.4701236,1499944.5884834,51,NaN,1499942.9733899,1499944.5941235,1499945.3424631,NaN,NaN
120,2,1,complexity,0,bathroom,sun_akiytfaagpdsphgz.tif,141,1.5,0,1.28333333333333,1499945.3486853,1499946.8514481,52,NaN,1499946.8512094,1499946.8769818,1499948.1586548,NaN,NaN
120,3,1,complexity,0,bathroom,sun_axxbkopsgyouuebh.tif,168,1.5,0,1.76666666666667,1499948.165435,1499950.107444,50,NaN,1499949.6688527,1499950.114285,1499951.8793178,NaN,NaN
120,4,1,complexity,0,bathroom,sun_abjtwfukuwddzted.tif,125,1.5,0,1.28333333333333,1499951.8862218,1499953.4184698,54,NaN,1499953.3895203,1499953.4248077,1499954.7064804,NaN,NaN
120,5,1,complexity,0,bathroom,sun_amzlamotzwfkwjco.tif,147,1.5,0,1.8,1499954.7125895,1499956.5636571,52,NaN,1499956.2156443,1499956.569157,1499958.3674962,NaN,NaN
120,6,1,complexity,0,bathroom,sun_aofnryafpsjimzsb.tif,150,1.5,0,0.716666666666667,1499958.3736317,1499960.1343077,54,NaN,1499959.8773679,1499960.1399251,1499960.8549329,NaN,NaN
120,7,1,complexity,0,bathroom,sun_asfwthctfqerjvxr.tif,159,1.5,0,1,1499960.861333,1499962.6287312,55,NaN,1499962.3651599,1499962.6352405,1499963.6335797,NaN,NaN
120,8,1,complexity,0,bathroom,sun_apjevzvycyhuqghb.tif,153,1.5,0,1.21666666666667,1499963.6393296,1499965.4566883,54,NaN,1499965.1423573,1499965.4623469,1499966.6773552,NaN,NaN
120,9,1,complexity,0,bathroom,sun_aapitsgbtktqubfy.tif,122,1.5,0,1.55,1499966.683511,1499968.4503981,51,NaN,1499968.1869462,1499968.4558798,1499970.0042209,NaN,NaN
120,10,1,complexity,0,bathroom,sun_aclfzgynxzxlbepz.tif,129,1.5,0,2,1499970.0106115,1499972.0779964,50,NaN,1499971.5140415,1499972.0845492,1499974.0828912,NaN,NaN
120,11,1,complexity,0,bathroom,sun_aqrpegblszgcoujh.tif,158,1.5,0,0.716666666666667,1499974.0903712,1499976.9067619,51,NaN,1499975.5941489,1499976.9126473,1499977.627652,NaN,NaN
120,12,1,complexity,0,bathroom,sun_awnqiikzaispgmwo.tif,166,1.5,0,0.933333333333333,1499977.6337224,1499980.8435657,51,NaN,1499979.1365372,1499980.8490622,1499981.7807363,NaN,NaN
120,13,1,complexity,0,bathroom,sun_axyrejkiiaqiurjk.tif,169,1.5,0,1.58333333333333,1499981.7868791,1499983.5813198,51,NaN,1499983.2899603,1499983.5868245,1499985.1684977,NaN,NaN
120,14,1,complexity,0,bathroom,sun_aspsyogrekjtfozg.tif,160,1.5,0,0.9,1499985.1750862,1499987.1102415,53,NaN,1499986.6787572,1499987.1159222,1499988.0142609,NaN,NaN
120,15,1,complexity,0,bathroom,sun_anryaplzeujmzfkd.tif,149,1.5,0,1.16666666666667,1499988.020903,1499990.4061779,53,NaN,1499989.5232999,1499990.412994,1499991.5780007,NaN,NaN
120,16,1,complexity,0,bathroom,sun_ausgutylgojavyoq.tif,163,1.5,0,0.733333333333333,1499991.5848303,1499993.179617,53,NaN,1499993.0884534,1499993.1852402,1499993.9169132,NaN,NaN
120,17,1,complexity,0,bathroom,sun_ahijqszoswveeyji.tif,138,1.5,0,1.15,1499993.9236495,1499995.4274322,52,NaN,1499995.4272073,1499995.4534491,1499996.6017926,NaN,NaN
120,18,1,complexity,0,bathroom,sun_acgyywnybuveqsro.tif,128,1.5,0,1.01666666666667,1499996.608068,1499998.4471473,50,NaN,1499998.111677,1499998.4527872,1499999.4677922,NaN,NaN
120,19,1,complexity,0,bathroom,sun_aggnnqpdorgxpvce.tif,131,1.5,0,0.883333333333333,1499999.4732666,1500001.2193714,52,NaN,1500000.9768301,1500001.2250121,1500002.1066843,NaN,NaN
120,20,1,complexity,0,bathroom,sun_avhrdrntsqrjzccq.tif,165,1.5,0,1.65,1500002.1127645,1500004.1271637,51,NaN,1500003.6157956,1500004.1327356,1500005.7810741,NaN,NaN
120,21,1,complexity,0,bathroom,sun_aghyqhbptboemmoq.tif,133,1.5,0,0.75,1500005.7871292,1500007.5006758,50,NaN,1500007.2906698,1500007.5075375,1500008.2558777,NaN,NaN
120,22,1,complexity,0,bathroom,sun_acegryoqftbzowsg.tif,127,1.5,0,1.28333333333333,1500008.2621252,1500010.1060965,52,NaN,1500009.765335,1500010.1117544,1500011.3934285,NaN,NaN
120,23,1,complexity,0,bathroom,sun_ambriybtogmepttm.tif,146,1.5,0,1.25,1500011.399554,1500013.1655317,52,NaN,1500012.9031843,1500013.1711048,1500014.4194441,NaN,NaN
120,24,1,complexity,0,bathroom,sun_agrwbmhcpmfuwmsg.tif,134,1.5,0,0.833333333333333,1500014.4257407,1500016.2852957,53,NaN,1500015.9297949,1500016.2918891,1500017.1235614,NaN,NaN
120,25,1,complexity,0,bathroom,sun_acduarbnmmoglmiv.tif,126,1.5,0,1.05,1500017.1297034,1500018.9100982,55,NaN,1500018.6332016,1500018.9156681,1500019.9640217,NaN,NaN
120,1,2,complexity,0,bathroom,sun_apkxzenqapsujocq.tif,155,1.5,0,0.95,1500023.9472477,1500025.7418868,52,NaN,1500025.4502067,1500025.7477699,1500026.6961092,NaN,NaN
120,2,2,complexity,0,bathroom,sun_afcoljnjfoxjtgja.tif,130,1.5,0,1.55,1500026.7023624,1500028.7137746,52,NaN,1500028.205523,1500028.7192255,1500030.2675649,NaN,NaN
120,3,2,complexity,0,bathroom,sun_agyqfjcfkdcydepw.tif,135,1.5,0,1.2,1500030.2736814,1500032.4480366,52,NaN,1500031.7771718,1500032.4548282,1500033.6532122,NaN,NaN
120,4,2,complexity,0,bathroom,sun_apkruvsevgegsdwp.tif,154,1.5,0,1.86666666666667,1500033.660129,1500035.6414296,51,NaN,1500035.1630346,1500035.6480879,1500037.5130934,NaN,NaN
120,5,2,complexity,0,bathroom,sun_alotolagknyrgtsk.tif,145,1.5,0,1.66666666666667,1500037.5192814,1500039.3364461,53,NaN,1500039.0222888,1500039.3419826,1500041.0069887,NaN,NaN
120,6,2,complexity,0,bathroom,sun_axldvoqbuvuggfmq.tif,167,1.5,0,1.35,1500041.0131091,1500042.8022543,52,NaN,1500042.5162142,1500042.8078523,1500044.1561937,NaN,NaN
120,7,2,complexity,0,bathroom,sun_aoybiabnpadelefl.tif,151,1.5,0,1.11666666666667,1500044.1627952,1500046.1518201,49,NaN,1500045.666974,1500046.157319,1500047.2723274,NaN,NaN
120,8,2,complexity,0,bathroom,sun_apmqjbnwghzuhhzh.tif,156,1.5,0,0.95,1500047.2790053,1500049.2609536,53,NaN,1500048.7821907,1500049.2674968,1500050.2158371,NaN,NaN
120,9,2,complexity,0,bathroom,sun_aleqenyvunhactkl.tif,142,1.5,0,1.03333333333333,1500050.221677,1500051.9796165,52,NaN,1500051.7242271,1500051.9861071,1500053.0177815,NaN,NaN
120,10,2,complexity,0,bathroom,sun_aunuadmjocsddsrl.tif,162,1.5,0,1.01666666666667,1500053.023923,1500055.260462,54,NaN,1500054.5269791,1500055.266038,1500056.2810446,NaN,NaN
120,11,2,complexity,0,bathroom,sun_agguqiubmwhqqunb.tif,132,1.5,0,1.81666666666667,1500056.2875684,1500057.9884843,53,NaN,1500057.790694,1500057.9949203,1500059.8099282,NaN,NaN
120,12,2,complexity,0,bathroom,sun_alkosphxlxwjwgjd.tif,144,1.5,0,1.8,1500059.8163207,1500062.0700588,52,NaN,1500061.319334,1500062.0767595,1500063.875119,NaN,NaN
120,13,2,complexity,0,bathroom,sun_atstyziqcmkahyxk.tif,161,1.5,0,1.26666666666667,1500063.8830266,1500065.6698966,50,NaN,1500065.3859541,1500065.6751555,1500066.9401614,NaN,NaN
120,14,2,complexity,0,bathroom,sun_azqyogdvyhahyram.tif,170,1.5,0,1.66666666666667,1500066.9465588,1500068.7312664,51,NaN,1500068.4498264,1500068.7364741,1500070.4014819,NaN,NaN
120,15,2,complexity,0,bathroom,sun_aljolscmmzydegqp.tif,143,1.5,0,1.93333333333333,1500070.4075451,1500072.3095608,52,NaN,1500071.9109278,1500072.3151516,1500074.246826,NaN,NaN
120,16,2,complexity,0,bathroom,sun_ahcvzmoyaycdoftf.tif,137,1.5,0,1.75,1500074.2533713,1500076.3821309,51,NaN,1500075.7566953,1500076.3876096,1500078.135948,NaN,NaN
120,17,2,complexity,0,bathroom,sun_aavhrsfjbserjtht.tif,123,1.5,0,0.766666666666667,1500078.1426301,1500080.1775282,52,NaN,1500079.6468884,1500080.183171,1500080.9481797,NaN,NaN
120,18,2,complexity,0,bathroom,sun_ajlawzvmubibwbpy.tif,140,1.5,0,1.43333333333333,1500080.9544348,1500082.779752,53,NaN,1500082.4580466,1500082.7854329,1500084.2171074,NaN,NaN
120,19,2,complexity,0,bathroom,sun_ahqjwnzgolcaoidx.tif,139,1.5,0,0.916666666666667,1500084.2249217,1500085.9937769,53,NaN,1500085.727694,1500085.9994144,1500086.9144227,NaN,NaN
120,20,2,complexity,0,bathroom,labelme_sfxiulhjbhlyiyt.tif,121,1.5,0,0.766666666666667,1500086.921779,1500088.6852261,52,NaN,1500088.4245296,1500088.6912922,1500089.4563016,NaN,NaN
120,21,2,complexity,0,bathroom,sun_apynckhmoftszqoq.tif,157,1.5,0,0.783333333333333,1500089.462551,1500091.324941,51,NaN,1500090.9653674,1500091.3305671,1500092.1122413,NaN,NaN
120,22,2,complexity,0,bathroom,sun_anhioqovhscjqqwb.tif,148,1.5,0,1.31666666666667,1500092.1189613,1500093.9184608,51,NaN,1500093.6222842,1500093.9240938,1500095.2390993,NaN,NaN
120,23,2,complexity,0,bathroom,sun_auzqhkafidnkrwmo.tif,164,1.5,0,1.1,1500095.2452774,1500097.0411438,54,NaN,1500096.7483997,1500097.0477197,1500098.146063,NaN,NaN
120,24,2,complexity,0,bathroom,sun_ahaulkltgpkeeemi.tif,136,1.5,0,1.26666666666667,1500098.1522534,1500099.8904126,51,NaN,1500099.6565674,1500099.8961921,1500101.1612001,NaN,NaN
120,25,2,complexity,0,bathroom,sun_apeeialkgkuxddgh.tif,152,1.5,0,0.933333333333333,1500101.1674025,1500103.4340538,52,NaN,1500102.6698423,1500103.4397789,1500104.371453,NaN,NaN
