sub_num,trial,block,task,is_practice,category,image,texture,duration,mask_dur,jitter,stim_time,time_of_resp,trial_response,mask_time,fix_time,jit_onset,trial_end,trial_accuracy,RT
109,1,0,familiarity,1,bathroom,bathroom_practice1.tif,221,1.5,0,0.916666666666667,6829.75484775,6835.216536458,3,NaN,6835.222375208,6835.240788375,6836.15079275,NaN,NaN
109,2,0,familiarity,1,bathroom,bathroom_practice2.tif,222,1.5,0,0.85,6836.15560625,6838.864390792,1,NaN,6838.896636042,6838.919979542,6839.763318625,NaN,NaN
109,3,0,familiarity,1,bathroom,bathroom_practice3.tif,223,1.5,0,0.883333333333333,6839.767916375,6842.844208125,2,NaN,6842.868112417,6842.88784725,6843.764519833,NaN,NaN
109,4,0,familiarity,1,bathroom,bathroom_practice5.tif,225,1.5,0,1.43333333333333,6843.769854333,6846.588218958,1,NaN,6846.614819042,6846.636528042,6848.063253792,NaN,NaN
109,5,0,familiarity,1,bathroom,bathroom_practice4.tif,224,1.5,0,1.53333333333333,6848.081194583,6852.353014625,4,NaN,6852.358998917,6852.3773545,6853.904080792,NaN,NaN
109,1,1,familiarity,0,bathroom,sun_ahcvzmoyaycdoftf.tif,137,1.5,0,1.26666666666667,6860.273290167,6863.465043167,2,NaN,6863.472477,6863.490901542,6864.7509455,NaN,NaN
109,2,1,familiarity,0,bathroom,sun_aggnnqpdorgxpvce.tif,131,1.5,0,1.76666666666667,6864.770429583,6867.432345083,1,NaN,6867.438245875,6867.4566095,6869.216643542,NaN,NaN
109,3,1,familiarity,0,bathroom,sun_aclfzgynxzxlbepz.tif,129,1.5,0,1.46666666666667,6869.236507375,6872.30398925,2,NaN,6872.334349042,6872.357959083,6873.817991542,NaN,NaN
109,4,1,familiarity,0,bathroom,sun_apmqjbnwghzuhhzh.tif,156,1.5,0,1.28333333333333,6873.833947208,6877.216765292,2,NaN,6877.222520292,6877.241023125,6878.517724542,NaN,NaN
109,5,1,familiarity,0,bathroom,sun_acegryoqftbzowsg.tif,127,1.5,0,0.966666666666667,6878.5363205,6882.008174833,1,NaN,6882.014096958,6882.032471792,6882.992476583,NaN,NaN
109,6,1,familiarity,0,bathroom,sun_alkosphxlxwjwgjd.tif,144,1.5,0,0.783333333333333,6882.997953167,6886.67201625,3,NaN,6886.678211792,6886.6965235,6887.473194292,NaN,NaN
109,7,1,familiarity,0,bathroom,sun_acgyywnybuveqsro.tif,128,1.5,0,1.21666666666667,6887.478686292,6891.120997917,3,NaN,6891.126799667,6891.144970458,6892.355015167,NaN,NaN
109,8,1,familiarity,0,bathroom,sun_anhioqovhscjqqwb.tif,148,1.5,0,1.4,6892.373365583,6897.360611917,2,NaN,6897.366433542,6897.384736667,6898.778113875,NaN,NaN
109,9,1,familiarity,0,bathroom,sun_aspsyogrekjtfozg.tif,160,1.5,0,1.3,6898.798397625,6901.432294833,1,NaN,6901.438172875,6901.456579167,6902.749952167,NaN,NaN
109,10,1,familiarity,0,bathroom,sun_ahqjwnzgolcaoidx.tif,139,1.5,0,0.95,6902.770069042,6908.008032167,6,NaN,6908.014168125,6908.032572792,6908.975910792,NaN,NaN
109,11,1,familiarity,0,bathroom,sun_ausgutylgojavyoq.tif,163,1.5,0,1.96666666666667,6908.981161125,6912.184631083,5,NaN,6912.191718375,6912.21021725,6914.170272708,NaN,NaN
109,12,1,familiarity,0,bathroom,sun_axyrejkiiaqiurjk.tif,169,1.5,0,1.13333333333333,6914.182911375,6917.052573167,1,NaN,6917.082391542,6917.105628792,6918.232347542,NaN,NaN
109,13,1,familiarity,0,bathroom,sun_agrwbmhcpmfuwmsg.tif,134,1.5,0,0.933333333333333,6918.243301125,6923.328505917,4,NaN,6923.334548083,6923.352933042,6924.279606208,NaN,NaN
109,14,1,familiarity,0,bathroom,sun_axxbkopsgyouuebh.tif,168,1.5,0,1.6,6924.285049583,6928.0885295,7,NaN,6928.09438825,6928.112689,6929.706070542,NaN,NaN
109,15,1,familiarity,0,bathroom,sun_akiytfaagpdsphgz.tif,141,1.5,0,1.38333333333333,6929.72404425,6932.959768208,1,NaN,6932.966046625,6932.984440625,6934.361148292,NaN,NaN
109,16,1,familiarity,0,bathroom,sun_aavhrsfjbserjtht.tif,123,1.5,0,1.58333333333333,6934.377645792,6937.975890042,6,NaN,6937.982025208,6938.000399292,6939.577107583,NaN,NaN
109,17,1,familiarity,0,bathroom,sun_auzqhkafidnkrwmo.tif,164,1.5,0,0.966666666666667,6939.597304875,6943.032666167,1,NaN,6943.038456167,6943.056698083,6944.016703208,NaN,NaN
109,18,1,familiarity,0,bathroom,sun_amzlamotzwfkwjco.tif,147,1.5,0,0.983333333333333,6944.02160425,6947.12820625,1,NaN,6947.135375833,6947.153760125,6948.130433208,NaN,NaN
109,19,1,familiarity,0,bathroom,sun_asfwthctfqerjvxr.tif,159,1.5,0,0.8,6948.135802625,6951.375626042,2,NaN,6951.382718208,6951.401092208,6952.194431833,NaN,NaN
109,20,1,familiarity,0,bathroom,sun_apkxzenqapsujocq.tif,155,1.5,0,0.7,6952.199837417,6956.744510625,5,NaN,6956.750747417,6956.769309875,6957.462649458,NaN,NaN
109,21,1,familiarity,0,bathroom,sun_anryaplzeujmzfkd.tif,149,1.5,0,0.716666666666667,6957.468138667,6960.944219458,5,NaN,6960.950051125,6960.968433792,6961.678439125,NaN,NaN
109,22,1,familiarity,0,bathroom,sun_atstyziqcmkahyxk.tif,161,1.5,0,1.76666666666667,6961.683115667,6965.615943375,4,NaN,6965.622025,6965.640428125,6967.400479792,NaN,NaN
109,23,1,familiarity,0,bathroom,sun_ajlawzvmubibwbpy.tif,140,1.5,0,1.7,6967.419477375,6970.389245917,1,NaN,6970.40709325,6970.428802375,6972.122189875,NaN,NaN
109,24,1,familiarity,0,bathroom,sun_aljolscmmzydegqp.tif,143,1.5,0,1.38333333333333,6972.141025042,6975.096396042,1,NaN,6975.120602458,6975.1461795,6976.522903083,NaN,NaN
109,25,1,familiarity,0,bathroom,sun_afcoljnjfoxjtgja.tif,130,1.5,0,0.766666666666667,6976.542748458,6979.584550458,4,NaN,6979.590369,6979.608713458,6980.368719542,NaN,NaN
109,1,2,familiarity,0,bathroom,sun_azqyogdvyhahyram.tif,170,1.5,0,0.85,6986.188226667,6989.359705583,7,NaN,6989.366366417,6989.384712958,6990.228050708,NaN,NaN
109,2,2,familiarity,0,bathroom,sun_agguqiubmwhqqunb.tif,132,1.5,0,1.53333333333333,6990.232674083,6993.152663417,3,NaN,6993.182321917,6993.20548925,6994.732187125,NaN,NaN
109,3,2,familiarity,0,bathroom,sun_avhrdrntsqrjzccq.tif,165,1.5,0,0.7,6994.7455685,6997.448468708,1,NaN,6997.45440425,6997.472751125,6998.166088292,NaN,NaN
109,4,2,familiarity,0,bathroom,sun_aunuadmjocsddsrl.tif,162,1.5,0,1.36666666666667,6998.170455375,7002.039572125,2,NaN,7002.045830333,7002.06420275,7003.424257625,NaN,NaN
109,5,2,familiarity,0,bathroom,sun_abapwbhyhkfixyex.tif,124,1.5,0,0.716666666666667,7003.442587125,7006.927808292,1,NaN,7006.933836167,7006.952164208,7007.662168375,NaN,NaN
109,6,2,familiarity,0,bathroom,sun_alotolagknyrgtsk.tif,145,1.5,0,1.38333333333333,7007.666420417,7010.943588208,1,NaN,7010.95008075,7010.968434875,7012.345149917,NaN,NaN
109,7,2,familiarity,0,bathroom,labelme_sfxiulhjbhlyiyt.tif,121,1.5,0,0.916666666666667,7012.363452875,7016.783554958,6,NaN,7016.789661833,7016.808042,7017.718046583,NaN,NaN
109,8,2,familiarity,0,bathroom,sun_aqrpegblszgcoujh.tif,158,1.5,0,1.58333333333333,7017.722412583,7021.831428542,1,NaN,7021.8379205,7021.856434583,7023.433169292,NaN,NaN
109,9,2,familiarity,0,bathroom,sun_ahijqszoswveeyji.tif,138,1.5,0,1.25,7023.452335,7026.169504667,2,NaN,7026.196792125,7026.220364208,7027.463739417,NaN,NaN
109,10,2,familiarity,0,bathroom,sun_axldvoqbuvuggfmq.tif,167,1.5,0,0.95,7027.482633542,7031.160425125,3,NaN,7031.166415917,7031.18490275,7032.12824075,NaN,NaN
109,11,2,familiarity,0,bathroom,sun_ahaulkltgpkeeemi.tif,136,1.5,0,1.4,7032.132782,7037.1759775,5,NaN,7037.181752583,7037.200147208,7038.593521125,NaN,NaN
109,12,2,familiarity,0,bathroom,sun_aghyqhbptboemmoq.tif,133,1.5,0,0.766666666666667,7038.607288208,7041.375522,6,NaN,7041.381526625,7041.399970583,7042.159974208,NaN,NaN
109,13,2,familiarity,0,bathroom,sun_apynckhmoftszqoq.tif,157,1.5,0,0.733333333333333,7042.164526417,7045.687867167,2,NaN,7045.693727583,7045.711976792,7046.438647292,NaN,NaN
109,14,2,familiarity,0,bathroom,sun_apeeialkgkuxddgh.tif,152,1.5,0,1.06666666666667,7046.443976208,7049.52430325,6,NaN,7049.54487225,7049.564938417,7050.624984667,NaN,NaN
109,15,2,familiarity,0,bathroom,sun_agyqfjcfkdcydepw.tif,135,1.5,0,1.33333333333333,7050.633304833,7054.024029458,1,NaN,7054.029964792,7054.048373875,7055.375075,NaN,NaN
109,16,2,familiarity,0,bathroom,sun_aleqenyvunhactkl.tif,142,1.5,0,1.41666666666667,7055.3919735,7059.255945083,1,NaN,7059.261919542,7059.28031675,7060.69036675,NaN,NaN
109,17,2,familiarity,0,bathroom,sun_aapitsgbtktqubfy.tif,122,1.5,0,1.95,7060.702222,7064.279390083,3,NaN,7064.285596917,7064.303892208,7066.247271583,NaN,NaN
109,18,2,familiarity,0,bathroom,sun_ambriybtogmepttm.tif,146,1.5,0,0.866666666666667,7066.264510167,7069.112016292,1,NaN,7069.142329208,7069.165578167,7070.025583583,NaN,NaN
109,19,2,familiarity,0,bathroom,sun_apkruvsevgegsdwp.tif,154,1.5,0,0.983333333333333,7070.030363667,7074.200032583,2,NaN,7074.205700167,7074.223939208,7075.200610375,NaN,NaN
109,20,2,familiarity,0,bathroom,sun_awnqiikzaispgmwo.tif,166,1.5,0,0.983333333333333,7075.205432708,7078.352749417,3,NaN,7078.361276875,7078.379593583,7079.356265292,NaN,NaN
109,21,2,familiarity,0,bathroom,sun_abjtwfukuwddzted.tif,125,1.5,0,0.766666666666667,7079.360558583,7082.347062917,1,NaN,7082.380939417,7082.404161667,7083.164167083,NaN,NaN
109,22,2,familiarity,0,bathroom,sun_acduarbnmmoglmiv.tif,126,1.5,0,0.833333333333333,7083.16888775,7086.043154042,1,NaN,7086.07039675,7086.093657292,7086.920327708,NaN,NaN
109,23,2,familiarity,0,bathroom,sun_apjevzvycyhuqghb.tif,153,1.5,0,0.833333333333333,7086.925121875,7090.81552275,3,NaN,7090.82160375,7090.8401125,7091.666783792,NaN,NaN
109,24,2,familiarity,0,bathroom,sun_aofnryafpsjimzsb.tif,150,1.5,0,0.716666666666667,7091.671539875,7095.559453125,4,NaN,7095.565552917,7095.583822,7096.293826167,NaN,NaN
109,25,2,familiarity,0,bathroom,sun_aoybiabnpadelefl.tif,151,1.5,0,1.71666666666667,7096.298104792,7098.97567925,1,NaN,7099.002979708,7099.026695542,7100.736740625,NaN,NaN
