sub_num,trial,block,task,is_practice,category,image,texture,duration,mask_dur,jitter,stim_time,time_of_resp,trial_response,mask_time,fix_time,jit_onset,trial_end,trial_accuracy,RT
120,1,0,usability,1,bathroom,bathroom_practice3.tif,223,1.5,0,0.983333333333333,1999.28395425,2002.833112583,5,NaN,2002.839241875,2002.858020375,2003.834751,NaN,NaN
120,2,0,usability,1,bathroom,bathroom_practice4.tif,224,1.5,0,1.78333333333333,2003.839802333,2008.457679541,3,NaN,2008.463287416,2008.481766416,2010.258637083,NaN,NaN
120,3,0,usability,1,bathroom,bathroom_practice5.tif,225,1.5,0,1.78333333333333,2010.2770715,2012.877051416,4,NaN,2012.902632541,2012.926433541,2014.703151958,NaN,NaN
120,4,0,usability,1,bathroom,bathroom_practice2.tif,222,1.5,0,1.26666666666667,2014.72100025,2020.185747208,6,NaN,2020.191171208,2020.209486458,2021.4695335,NaN,NaN
120,5,0,usability,1,bathroom,bathroom_practice1.tif,221,1.5,0,1.05,2021.488135166,2024.305054833,2,NaN,2024.310675791,2024.3290015,2025.372375958,NaN,NaN
120,1,1,usability,0,bathroom,sun_apynckhmoftszqoq.tif,157,1.5,0,1.01666666666667,2033.308074333,2036.985648875,3,NaN,2036.991072375,2037.009501458,2038.019547291,NaN,NaN
120,2,1,usability,0,bathroom,sun_avhrdrntsqrjzccq.tif,165,1.5,0,1.61666666666667,2038.036439541,2040.88171675,6,NaN,2040.887214875,2040.905419,2042.515451333,NaN,NaN
120,3,1,usability,0,bathroom,sun_apkxzenqapsujocq.tif,155,1.5,0,1.16666666666667,2042.532645416,2045.220303625,3,NaN,2045.241153333,2045.262819875,2046.422873916,NaN,NaN
120,4,1,usability,0,bathroom,sun_aoybiabnpadelefl.tif,151,1.5,0,0.983333333333333,2046.433151625,2057.713684416,5,NaN,2057.719109416,2057.737253458,2058.713926708,NaN,NaN
120,5,1,usability,0,bathroom,sun_aggnnqpdorgxpvce.tif,131,1.5,0,0.783333333333333,2058.719531583,2064.481617041,5,NaN,2064.487082958,2064.505477375,2065.282148666,NaN,NaN
120,6,1,usability,0,bathroom,sun_ambriybtogmepttm.tif,146,1.5,0,0.816666666666667,2065.286409083,2069.273132375,5,NaN,2069.2786795,2069.297127666,2070.1071335,NaN,NaN
120,7,1,usability,0,bathroom,sun_agrwbmhcpmfuwmsg.tif,134,1.5,0,1.1,2070.112370416,2078.681122791,4,NaN,2078.686877125,2078.705199166,2079.798576333,NaN,NaN
120,8,1,usability,0,bathroom,sun_amzlamotzwfkwjco.tif,147,1.5,0,1.65,2079.808018291,2083.633536916,5,NaN,2083.639605125,2083.657895666,2085.301267375,NaN,NaN
120,9,1,usability,0,bathroom,sun_afcoljnjfoxjtgja.tif,130,1.5,0,1.13333333333333,2085.321809166,2088.350095916,5,NaN,2088.373296333,2088.397094666,2089.523806875,NaN,NaN
120,10,1,usability,0,bathroom,sun_aofnryafpsjimzsb.tif,150,1.5,0,0.766666666666667,2089.532172041,2093.073277041,6,NaN,2093.078718875,2093.096849583,2093.856854875,NaN,NaN
120,11,1,usability,0,bathroom,sun_apeeialkgkuxddgh.tif,152,1.5,0,1.25,2093.862058041,2098.32962725,6,NaN,2098.3350655,2098.353463333,2099.596842125,NaN,NaN
120,12,1,usability,0,bathroom,sun_aavhrsfjbserjtht.tif,123,1.5,0,1.5,2099.61377225,2107.873264166,5,NaN,2107.878712125,2107.896914625,2109.390296708,NaN,NaN
120,13,1,usability,0,bathroom,labelme_sfxiulhjbhlyiyt.tif,121,1.5,0,1.56666666666667,2109.404989333,2120.97687075,5,NaN,2120.98260375,2121.000890708,2122.560940375,NaN,NaN
120,14,1,usability,0,bathroom,sun_alkosphxlxwjwgjd.tif,144,1.5,0,1.45,2122.578509458,2125.87349475,6,NaN,2125.878982666,2125.897316041,2127.340697333,NaN,NaN
120,15,1,usability,0,bathroom,sun_atstyziqcmkahyxk.tif,161,1.5,0,1.53333333333333,2127.357153875,2137.952670708,4,NaN,2137.958607708,2137.976962333,2139.5036645,NaN,NaN
120,16,1,usability,0,bathroom,sun_aleqenyvunhactkl.tif,142,1.5,0,0.8,2139.520336083,2145.80924275,4,NaN,2145.814702708,2145.83318475,2146.626524625,NaN,NaN
120,17,1,usability,0,bathroom,sun_ahaulkltgpkeeemi.tif,136,1.5,0,0.933333333333333,2146.63165325,2149.856877083,3,NaN,2149.862270416,2149.880640458,2150.807311625,NaN,NaN
120,18,1,usability,0,bathroom,sun_aljolscmmzydegqp.tif,143,1.5,0,1.75,2150.811966333,2153.663688916,6,NaN,2153.693570291,2153.717281416,2155.460646458,NaN,NaN
120,19,1,usability,0,bathroom,sun_ahijqszoswveeyji.tif,138,1.5,0,1.48333333333333,2155.478850541,2159.961206333,6,NaN,2159.966706833,2159.985177875,2161.461879333,NaN,NaN
120,20,1,usability,0,bathroom,sun_aclfzgynxzxlbepz.tif,129,1.5,0,1.03333333333333,2161.4809965,2167.64124325,4,NaN,2167.646797333,2167.665189833,2168.691892125,NaN,NaN
120,21,1,usability,0,bathroom,sun_alotolagknyrgtsk.tif,145,1.5,0,1.23333333333333,2168.69995375,2175.360491833,6,NaN,2175.366121875,2175.384653,2176.611360458,NaN,NaN
120,22,1,usability,0,bathroom,sun_axxbkopsgyouuebh.tif,168,1.5,0,1.28333333333333,2176.624410375,2185.033090375,5,NaN,2185.0388185,2185.057173458,2186.333880375,NaN,NaN
120,23,1,usability,0,bathroom,sun_ahcvzmoyaycdoftf.tif,137,1.5,0,1.66666666666667,2186.351452708,2189.888561125,7,NaN,2189.894123375,2189.912532958,2191.572577541,NaN,NaN
120,24,1,usability,0,bathroom,sun_aghyqhbptboemmoq.tif,133,1.5,0,1.26666666666667,2191.590008541,2196.368569958,4,NaN,2196.374162708,2196.39259625,2197.652635041,NaN,NaN
120,25,1,usability,0,bathroom,sun_awnqiikzaispgmwo.tif,166,1.5,0,1.4,2197.66882325,2204.632849416,5,NaN,2204.638287208,2204.656816625,2206.050197666,NaN,NaN
120,1,2,usability,0,bathroom,sun_abjtwfukuwddzted.tif,125,1.5,0,1.66666666666667,2211.837966041,2216.45625575,2,NaN,2216.461952666,2216.480318833,2218.140354291,NaN,NaN
120,2,2,usability,0,bathroom,sun_aqrpegblszgcoujh.tif,158,1.5,0,1.85,2218.157765083,2222.272966833,4,NaN,2222.278355666,2222.296666916,2224.140043458,NaN,NaN
120,3,2,usability,0,bathroom,sun_acgyywnybuveqsro.tif,128,1.5,0,1.65,2224.158507791,2237.4566715,6,NaN,2237.462272041,2237.480757,2239.124107583,NaN,NaN
120,4,2,usability,0,bathroom,sun_azqyogdvyhahyram.tif,170,1.5,0,0.95,2239.134094041,2246.623979916,2,NaN,2246.629948041,2246.648291791,2247.591630583,NaN,NaN
120,5,2,usability,0,bathroom,sun_apmqjbnwghzuhhzh.tif,156,1.5,0,0.783333333333333,2247.596094416,2265.016067625,4,NaN,2265.022615333,2265.0408815,2265.817552208,NaN,NaN
120,6,2,usability,0,bathroom,sun_ajlawzvmubibwbpy.tif,140,1.5,0,1.13333333333333,2265.822372833,2269.719902083,6,NaN,2269.725641833,2269.744053166,2270.870752458,NaN,NaN
120,7,2,usability,0,bathroom,sun_akiytfaagpdsphgz.tif,141,1.5,0,1.63333333333333,2270.879771416,2275.256730416,7,NaN,2275.262376291,2275.280639416,2276.907350291,NaN,NaN
120,8,2,usability,0,bathroom,sun_acduarbnmmoglmiv.tif,126,1.5,0,1.2,2276.922835375,2279.989567375,6,NaN,2280.02035075,2280.0435755,2281.236952125,NaN,NaN
120,9,2,usability,0,bathroom,sun_ahqjwnzgolcaoidx.tif,139,1.5,0,1.71666666666667,2281.248661916,2283.880620791,6,NaN,2283.886168708,2283.9045205,2285.614562291,NaN,NaN
120,10,2,usability,0,bathroom,sun_asfwthctfqerjvxr.tif,159,1.5,0,0.9,2285.629425583,2289.832507208,7,NaN,2289.837873083,2289.856230041,2290.749566916,NaN,NaN
120,11,2,usability,0,bathroom,sun_apjevzvycyhuqghb.tif,153,1.5,0,0.9,2290.753835708,2293.4002695,7,NaN,2293.429626708,2293.453494666,2294.346832833,NaN,NaN
120,12,2,usability,0,bathroom,sun_agguqiubmwhqqunb.tif,132,1.5,0,0.766666666666667,2294.352080625,2297.968058791,6,NaN,2297.973708,2297.992067916,2298.75207275,NaN,NaN
120,13,2,usability,0,bathroom,sun_acegryoqftbzowsg.tif,127,1.5,0,0.966666666666667,2298.767054083,2302.167760583,5,NaN,2302.173542708,2302.191753791,2303.151759375,NaN,NaN
120,14,2,usability,0,bathroom,sun_apkruvsevgegsdwp.tif,154,1.5,0,0.7,2303.156232,2310.936500333,5,NaN,2310.942763333,2310.961230541,2311.654568916,NaN,NaN
120,15,2,usability,0,bathroom,sun_aunuadmjocsddsrl.tif,162,1.5,0,1.1,2311.659105,2315.455983833,4,NaN,2315.461520166,2315.4799685,2316.573352791,NaN,NaN
120,16,2,usability,0,bathroom,sun_axyrejkiiaqiurjk.tif,169,1.5,0,1.33333333333333,2316.58476875,2320.1918255,5,NaN,2320.1976595,2320.215934,2321.542632458,NaN,NaN
120,17,2,usability,0,bathroom,sun_ausgutylgojavyoq.tif,163,1.5,0,1.15,2321.559816416,2324.160298916,6,NaN,2324.165778791,2324.184222875,2325.327597833,NaN,NaN
120,18,2,usability,0,bathroom,sun_aapitsgbtktqubfy.tif,122,1.5,0,1.28333333333333,2325.337133041,2328.792473625,6,NaN,2328.797934375,2328.816434916,2330.093151583,NaN,NaN
120,19,2,usability,0,bathroom,sun_agyqfjcfkdcydepw.tif,135,1.5,0,1.35,2330.110822625,2333.104448333,7,NaN,2333.109994125,2333.128348791,2334.471736666,NaN,NaN
120,20,2,usability,0,bathroom,sun_abapwbhyhkfixyex.tif,124,1.5,0,1.43333333333333,2334.488280375,2339.072343166,6,NaN,2339.077785,2339.096172458,2340.522891375,NaN,NaN
120,21,2,usability,0,bathroom,sun_auzqhkafidnkrwmo.tif,164,1.5,0,0.916666666666667,2340.536813958,2344.791706541,7,NaN,2344.797529875,2344.816007666,2345.726011875,NaN,NaN
120,22,2,usability,0,bathroom,sun_anryaplzeujmzfkd.tif,149,1.5,0,0.766666666666667,2345.730298208,2349.743934208,5,NaN,2349.749791208,2349.768389416,2350.528393125,NaN,NaN
120,23,2,usability,0,bathroom,sun_anhioqovhscjqqwb.tif,148,1.5,0,0.866666666666667,2350.532713458,2356.519805,5,NaN,2356.525537083,2356.543926,2357.403929875,NaN,NaN
120,24,2,usability,0,bathroom,sun_axldvoqbuvuggfmq.tif,167,1.5,0,0.833333333333333,2357.408266333,2360.191338958,4,NaN,2360.221035541,2360.244274875,2361.070947041,NaN,NaN
120,25,2,usability,0,bathroom,sun_aspsyogrekjtfozg.tif,160,1.5,0,0.75,2361.075549375,2363.930717916,5,NaN,2363.954382583,2363.978095291,2364.721432083,NaN,NaN
