slide,sub1,sub2,pairID,trialID,stim1,stim2,instructionsLoop.thisRepN,instructionsLoop.thisTrialN,instructionsLoop.thisN,instructionsLoop.thisIndex,practice.thisRepN,practice.thisTrialN,practice.thisN,practice.thisIndex,trials.thisRepN,trials.thisTrialN,trials.thisN,trials.thisIndex,thisRow.t,notes,preparation.started,preparation.stopped,instructions.started,startResponse.started,slide_img.started,instructions.stopped,startResponse.keys,startResponse.rt,startResponse.duration,trial.started,polygon.started,polygon_2.started,image1.started,image2.started,rating_1.started,question.started,rating_2.started,question_2.started,block_text.started,trial.stopped,stim1pos,stim2pos,block,rating_1.response,rating_1.rt,rating_2.response,rating_2.rt,ITI.started,text.started,text.stopped,ITI.stopped,practice_over.started,text_2.started,space_practice_over.started,practice_over.stopped,space_practice_over.keys,space_practice_over.rt,space_practice_over.duration,breakBlocks.started,breakBlocks.stopped,startBlock.keys,startBlock.started,startBlock.rt,startBlock.duration,end.started,message_end.started,key_resp.started,end.stopped,key_resp.keys,key_resp.rt,key_resp.duration,participant,session,session_number,date,expName,psychopyVersion,frameRate,expStart,
instructions/Slide2.jpg,,,,,,,0,0,0,0,,,,,,,,,0.02669025000000147,,0.0023407919999272053,0.002467249999995147,0.009613208000018858,0.02669025000000147,0.02669025000000147,44.24619458299992,space,44.21925487499993,None,,,,,,,,,,,,,,,,,,,,,,,,,,,,,,,,,,,,,,,,,,,208,kitchen,1,2024-03-16_13h17.54.890,image_similarity_rating,2023.2.3,None,2024-03-16 13h18.12.277534 +0100,
instructions/Slide3.jpg,,,,,,,0,1,1,1,,,,,,,,,44.26835099999994,,,,44.247084291999954,44.26835099999994,44.26835099999994,68.805631167,space,24.537020582999958,None,,,,,,,,,,,,,,,,,,,,,,,,,,,,,,,,,,,,,,,,,,,208,kitchen,1,2024-03-16_13h17.54.890,image_similarity_rating,2023.2.3,None,2024-03-16 13h18.12.277534 +0100,
instructions/Slide4.jpg,,,,,,,0,2,2,2,,,,,,,,,68.82805666699994,,,,68.80619358299998,68.82805666699994,68.82805666699994,75.77667733299995,space,6.948246624999911,None,,,,,,,,,,,,,,,,,,,,,,,,,,,,,,,,,,,,,,,,,,,208,kitchen,1,2024-03-16_13h17.54.890,image_similarity_rating,2023.2.3,None,2024-03-16 13h18.12.277534 +0100,
instructions/Slide5.jpg,,,,,,,0,3,3,3,,,,,,,,,75.80396699999994,,,,75.77761220799994,75.80396699999994,75.80396699999994,80.40584666699999,space,4.601517958000045,None,,,,,,,,,,,,,,,,,,,,,,,,,,,,,,,,,,,,,,,,,,,208,kitchen,1,2024-03-16_13h17.54.890,image_similarity_rating,2023.2.3,None,2024-03-16 13h18.12.277534 +0100,
,108,110,practice,8,stimuli/own/kitchen/108_kit.jpg,stimuli/own/kitchen/110_kit.jpg,,,,,0,0,0,7,,,,,80.61338245799993,,,,,,,,,,,80.43446187500001,80.61338245799993,80.61338245799993,80.61338245799993,80.61338245799993,80.61338245799993,80.61338245799993,80.61338245799993,80.61338245799993,80.61338245799993,120.37065599999994,7,-7,0,1.0,16.675678416999972,6.0,36.727104250000025,120.37088233299994,120.372982417,120.82270299999993,120.65589329199997,,,,,,,,,,,,,,,,,,,,,208,kitchen,1,2024-03-16_13h17.54.890,image_similarity_rating,2023.2.3,None,2024-03-16 13h18.12.277534 +0100,
,110,107,practice,4,stimuli/own/kitchen/110_kit.jpg,stimuli/own/kitchen/107_kit.jpg,,,,,0,1,1,3,,,,,120.82270299999993,,,,,,,,,,,120.65630408300001,120.82270299999993,120.82270299999993,120.82270299999993,120.82270299999993,120.82270299999993,120.82270299999993,120.82270299999993,120.82270299999993,120.82270299999993,141.04940079199991,7,-7,0,1.0,15.676068750000013,1.0,19.133501124999952,141.049551458,141.05224391699994,141.50168324999993,141.3351775,,,,,,,,,,,,,,,,,,,,,208,kitchen,1,2024-03-16_13h17.54.890,image_similarity_rating,2023.2.3,None,2024-03-16 13h18.12.277534 +0100,
,110,133,practice,1,stimuli/own/kitchen/110_kit.jpg,stimuli/own/kitchen/133_kit.jpg,,,,,0,2,2,0,,,,,141.50168324999993,,,,,,,,,,,141.33562962500002,141.50168324999993,141.50168324999993,141.50168324999993,141.50168324999993,141.50168324999993,141.50168324999993,141.50168324999993,141.50168324999993,141.50168324999993,173.44482158300002,-7,7,0,2.0,23.374268957999902,3.0,31.658657875000017,173.44496262500002,173.45043658299994,173.90139566699997,173.73490137499994,,,,,,,,,,,,,,,,,,,,,208,kitchen,1,2024-03-16_13h17.54.890,image_similarity_rating,2023.2.3,None,2024-03-16 13h18.12.277534 +0100,
,107,108,practice,5,stimuli/own/kitchen/107_kit.jpg,stimuli/own/kitchen/108_kit.jpg,,,,,0,3,3,4,,,,,173.90139566699997,,,,,,,,,,,173.73534866699993,173.90139566699997,173.90139566699997,173.90139566699997,173.90139566699997,173.90139566699997,173.90139566699997,173.90139566699997,173.90139566699997,173.90139566699997,197.86107633299991,-7,7,0,1.0,16.852945959000067,1.0,23.78680233299997,197.86121491699998,197.86693983299995,198.31727991699995,198.15166475,,,,,,,,,,,,,,,,,,,,,208,kitchen,1,2024-03-16_13h17.54.890,image_similarity_rating,2023.2.3,None,2024-03-16 13h18.12.277534 +0100,
,108,133,practice,10,stimuli/own/kitchen/108_kit.jpg,stimuli/own/kitchen/133_kit.jpg,,,,,0,4,4,9,,,,,198.31727991699995,,,,,,,,,,,198.15212595799994,198.31727991699995,198.31727991699995,198.31727991699995,198.31727991699995,198.31727991699995,198.31727991699995,198.31727991699995,198.31727991699995,198.31727991699995,213.04465037499995,-7,7,0,3.0,8.402904125000077,4.0,14.254120291999925,213.04478825,213.05016020799997,213.50099929199996,213.33476774999997,,,,,,,,,,,,,,,,,,,,,208,kitchen,1,2024-03-16_13h17.54.890,image_similarity_rating,2023.2.3,None,2024-03-16 13h18.12.277534 +0100,
,128,108,practice,3,stimuli/own/kitchen/128_kit.jpg,stimuli/own/kitchen/108_kit.jpg,,,,,0,5,5,2,,,,,213.50099929199996,,,,,,,,,,,213.33518208299995,213.50099929199996,213.50099929199996,213.50099929199996,213.50099929199996,213.50099929199996,213.50099929199996,213.50099929199996,213.50099929199996,213.50099929199996,228.21944629199993,7,-7,0,1.0,9.07993783300003,1.0,14.570373042000028,228.21958895799992,228.221499,228.67127204199994,228.50559933299996,,,,,,,,,,,,,,,,,,,,,208,kitchen,1,2024-03-16_13h17.54.890,image_similarity_rating,2023.2.3,None,2024-03-16 13h18.12.277534 +0100,
,110,128,practice,2,stimuli/own/kitchen/110_kit.jpg,stimuli/own/kitchen/128_kit.jpg,,,,,0,6,6,1,,,,,228.67127204199994,,,,,,,,,,,228.50594595799998,228.67127204199994,228.67127204199994,228.67127204199994,228.67127204199994,228.67127204199994,228.67127204199994,228.67127204199994,228.67127204199994,228.67127204199994,238.93587149999996,7,-7,0,1.0,8.415471292000007,6.0,10.041327166999963,238.93601145799994,238.93781483299995,239.38375862499993,239.221541,,,,,,,,,,,,,,,,,,,,,208,kitchen,1,2024-03-16_13h17.54.890,image_similarity_rating,2023.2.3,None,2024-03-16 13h18.12.277534 +0100,
,107,133,practice,9,stimuli/own/kitchen/107_kit.jpg,stimuli/own/kitchen/133_kit.jpg,,,,,0,7,7,8,,,,,239.38375862499993,,,,,,,,,,,239.22183320800002,239.38375862499993,239.38375862499993,239.38375862499993,239.38375862499993,239.38375862499993,239.38375862499993,239.38375862499993,239.38375862499993,239.38375862499993,250.77388862499993,-7,7,0,3.0,11.35991995900008,2.0,7.697210208000001,250.774031542,250.7834698329999,251.2332403329999,251.06835554199995,,,,,,,,,,,,,,,,,,,,,208,kitchen,1,2024-03-16_13h17.54.890,image_similarity_rating,2023.2.3,None,2024-03-16 13h18.12.277534 +0100,
,128,133,practice,6,stimuli/own/kitchen/128_kit.jpg,stimuli/own/kitchen/133_kit.jpg,,,,,0,8,8,5,,,,,251.2332403329999,,,,,,,,,,,251.06874749999997,251.2332403329999,251.2332403329999,251.2332403329999,251.2332403329999,251.2332403329999,251.2332403329999,251.2332403329999,251.2332403329999,251.2332403329999,272.5943565829999,-7,7,0,3.0,11.883763875,5.0,21.15040641600001,272.5944972919999,272.600119875,273.0502252079999,272.884561458,,,,,,,,,,,,,,,,,,,,,208,kitchen,1,2024-03-16_13h17.54.890,image_similarity_rating,2023.2.3,None,2024-03-16 13h18.12.277534 +0100,
,107,128,practice,7,stimuli/own/kitchen/107_kit.jpg,stimuli/own/kitchen/128_kit.jpg,,,,,0,9,9,6,,,,,273.0502252079999,,,,,,,,,,,272.885019542,273.0502252079999,273.0502252079999,273.0502252079999,273.0502252079999,273.0502252079999,273.0502252079999,273.0502252079999,273.0502252079999,273.0502252079999,290.9700121249999,7,-7,0,1.0,15.15284654100003,5.0,17.764268083000047,290.97015129199997,290.972217583,291.26727774999995,291.255175333,,,,,,,,,,,,,,,,,,,,,208,kitchen,1,2024-03-16_13h17.54.890,image_similarity_rating,2023.2.3,None,2024-03-16 13h18.12.277534 +0100,
,,,,,,,,,,,,,,,,,,,,,,,,,,,,,,,,,,,,,,,,,,,,,,,,,,,,291.255260208,291.26727774999995,291.26727774999995,308.041400875,space,16.773889542000006,None,,,,,,,,,,,,,,208,kitchen,1,2024-03-16_13h17.54.890,image_similarity_rating,2023.2.3,None,2024-03-16 13h18.12.277534 +0100,
,125,127,492,492,stimuli/own/kitchen/125_kit.jpg,stimuli/own/kitchen/127_kit.jpg,,,,,,,,,0,0,0,491,308.091473167,,,,,,,,,,,308.38430845799996,308.56058075,308.56058075,308.56058075,308.56058075,308.56058075,308.56058075,308.56058075,308.56058075,308.56058075,330.868743958,7,-7,1,1.0,10.55773229099998,2.0,22.157836417,308.089490875,308.091473167,308.56058075,308.3842942499999,,,,,,,,308.075939542,308.08920875,None,,,,,,,,,,,208,kitchen,1,2024-03-16_13h17.54.890,image_similarity_rating,2023.2.3,None,2024-03-16 13h18.12.277534 +0100,
,101,134,27,27,stimuli/own/kitchen/101_kit.jpg,stimuli/own/kitchen/134_kit.jpg,,,,,,,,,0,1,1,26,330.877337292,,,,,,,,,,,331.16770366699996,331.33849275,331.33849275,331.33849275,331.33849275,331.33849275,331.33849275,331.33849275,331.33849275,331.33849275,350.4354912079999,-7,7,1,2.0,10.913494333000017,3.0,18.837232250000056,330.875384167,330.877337292,331.33849275,331.1676867919999,,,,,,,,330.86931012499997,330.87533337499997,None,,,,,,,,,,,208,kitchen,1,2024-03-16_13h17.54.890,image_similarity_rating,2023.2.3,None,2024-03-16 13h18.12.277534 +0100,
,103,135,93,93,stimuli/own/kitchen/103_kit.jpg,stimuli/own/kitchen/135_kit.jpg,,,,,,,,,0,2,2,92,350.44113304199993,,,,,,,,,,,350.734312125,350.9023639169999,350.9023639169999,350.9023639169999,350.9023639169999,350.9023639169999,350.9023639169999,350.9023639169999,350.9023639169999,350.9023639169999,364.56068370800006,7,-7,1,4.0,13.569417417000068,7.0,8.37810829099999,350.439192792,350.44113304199993,350.9023639169999,350.73429591699994,,,,,,,,350.43571020799993,350.4391454999999,None,,,,,,,,,,,208,kitchen,1,2024-03-16_13h17.54.890,image_similarity_rating,2023.2.3,None,2024-03-16 13h18.12.277534 +0100,
,101,117,12,12,stimuli/own/kitchen/101_kit.jpg,stimuli/own/kitchen/117_kit.jpg,,,,,,,,,0,3,3,11,364.58288579199996,,,,,,,,,,,364.86704833300007,365.03992933300003,365.03992933300003,365.03992933300003,365.03992933300003,365.03992933300003,365.03992933300003,365.03992933300003,365.03992933300003,365.03992933300003,381.769348292,-7,7,1,2.0,14.062648874999923,5.0,16.624091958000008,364.5644120420001,364.58288579199996,,364.86702012500007,,,,,,,,364.560905167,364.5643651669999,None,,,,,,,,,,,208,kitchen,1,2024-03-16_13h17.54.890,image_similarity_rating,2023.2.3,None,2024-03-16 13h18.12.277534 +0100,
,113,137,291,291,stimuli/own/kitchen/113_kit.jpg,stimuli/own/kitchen/137_kit.jpg,,,,,,,,,0,4,4,290,381.77488837499993,,,,,,,,,,,382.06743308299986,382.23235158299997,382.23235158299997,382.23235158299997,382.23235158299997,382.23235158299997,382.23235158299997,382.23235158299997,382.23235158299997,382.23235158299997,395.80177437500004,-7,7,1,1.0,9.932572499999878,4.0,13.47117004200004,381.77306199999987,381.77488837499993,382.23235158299997,382.0674157919999,,,,,,,,381.7695688749999,381.77301254199995,None,,,,,,,,,,,208,kitchen,1,2024-03-16_13h17.54.890,image_similarity_rating,2023.2.3,None,2024-03-16 13h18.12.277534 +0100,
,105,131,151,151,stimuli/own/kitchen/105_kit.jpg,stimuli/own/kitchen/131_kit.jpg,,,,,,,,,0,5,5,150,395.80743804199994,,,,,,,,,,,396.10064295799987,396.26671291700006,396.26671291700006,396.26671291700006,396.26671291700006,396.26671291700006,396.26671291700006,396.26671291700006,396.26671291700006,396.26671291700006,401.44405741699995,7,-7,1,1.0,3.730658000000176,1.0,5.028946166999958,395.805503208,395.80743804199994,396.26671291700006,396.100623833,,,,,,,,395.80199349999987,395.805456208,None,,,,,,,,,,,208,kitchen,1,2024-03-16_13h17.54.890,image_similarity_rating,2023.2.3,None,2024-03-16 13h18.12.277534 +0100,
,102,118,46,46,stimuli/own/kitchen/102_kit.jpg,stimuli/own/kitchen/118_kit.jpg,,,,,,,,,0,6,6,45,401.46641620799994,,,,,,,,,,,401.750373042,401.9151949999999,401.9151949999999,401.9151949999999,401.9151949999999,401.9151949999999,401.9151949999999,401.9151949999999,401.9151949999999,401.9151949999999,411.7517590419999,-7,7,1,2.0,5.1982669579999765,5.0,9.625137874999837,401.4477652919999,401.46641620799994,,401.75036124999986,,,,,,,,401.44427925,401.447718,None,,,,,,,,,,,208,kitchen,1,2024-03-16_13h17.54.890,image_similarity_rating,2023.2.3,None,2024-03-16 13h18.12.277534 +0100,
,102,126,54,54,stimuli/own/kitchen/102_kit.jpg,stimuli/own/kitchen/126_kit.jpg,,,,,,,,,0,7,7,53,411.757321167,,,,,,,,,,,412.05058033299986,412.21537354200007,412.21537354200007,412.21537354200007,412.21537354200007,412.21537354200007,412.21537354200007,412.21537354200007,412.21537354200007,412.21537354200007,426.6482432920001,7,-7,1,1.0,10.727707125000052,2.0,14.314732332999938,411.75556104200007,411.757321167,412.21537354200007,412.050567417,,,,,,,,411.751979583,411.755513792,None,,,,,,,,,,,208,kitchen,1,2024-03-16_13h17.54.890,image_similarity_rating,2023.2.3,None,2024-03-16 13h18.12.277534 +0100,
,101,138,31,31,stimuli/own/kitchen/101_kit.jpg,stimuli/own/kitchen/138_kit.jpg,,,,,,,,,0,8,8,30,426.65392466700007,,,,,,,,,,,426.93797333300006,427.1023132920001,427.1023132920001,427.1023132920001,427.1023132920001,427.1023132920001,427.1023132920001,427.1023132920001,427.1023132920001,427.1023132920001,443.793783083,-7,7,1,1.0,6.504487250000011,2.0,16.592031042000144,426.65197120799996,426.65392466700007,427.1023132920001,426.937960375,,,,,,,,426.6484846249999,426.651923667,None,,,,,,,,,,,208,kitchen,1,2024-03-16_13h17.54.890,image_similarity_rating,2023.2.3,None,2024-03-16 13h18.12.277534 +0100,
,122,134,452,452,stimuli/own/kitchen/122_kit.jpg,stimuli/own/kitchen/134_kit.jpg,,,,,,,,,0,9,9,451,443.81597462499997,,,,,,,,,,,444.10004116699986,444.264096708,444.264096708,444.264096708,444.264096708,444.264096708,444.264096708,444.264096708,444.264096708,444.264096708,454.6816405829999,-7,7,1,3.0,9.477701625000009,6.0,7.043681291999974,443.797646958,443.81597462499997,,444.1000238329999,,,,,,,,443.79400425000006,443.79759962499986,None,,,,,,,,,,,208,kitchen,1,2024-03-16_13h17.54.890,image_similarity_rating,2023.2.3,None,2024-03-16 13h18.12.277534 +0100,
,118,141,385,385,stimuli/own/kitchen/118_kit.jpg,stimuli/own/kitchen/141_kit.jpg,,,,,,,,,0,10,10,384,454.687288708,,,,,,,,,,,454.97127291699996,455.139347167,455.139347167,455.139347167,455.139347167,455.139347167,455.139347167,455.139347167,455.139347167,455.139347167,462.9684100420001,-7,7,1,2.0,7.659646500000008,1.0,5.396372165999992,454.68536745799986,454.687288708,455.139347167,454.971260208,,,,,,,,454.6818616669999,454.68531979199986,None,,,,,,,,,,,208,kitchen,1,2024-03-16_13h17.54.890,image_similarity_rating,2023.2.3,None,2024-03-16 13h18.12.277534 +0100,
,120,139,422,422,stimuli/own/kitchen/120_kit.jpg,stimuli/own/kitchen/139_kit.jpg,,,,,,,,,0,11,11,421,462.9741211669999,,,,,,,,,,,463.2670749580001,463.43363466699986,463.43363466699986,463.43363466699986,463.43363466699986,463.43363466699986,463.43363466699986,463.43363466699986,463.43363466699986,463.43363466699986,476.27756720800005,7,-7,1,1.0,12.180003207999789,5.0,7.544468332999941,462.97223358300005,462.9741211669999,463.43363466699986,463.26705470800005,,,,,,,,462.968630083,462.972186417,None,,,,,,,,,,,208,kitchen,1,2024-03-16_13h17.54.890,image_similarity_rating,2023.2.3,None,2024-03-16 13h18.12.277534 +0100,
,125,136,499,499,stimuli/own/kitchen/125_kit.jpg,stimuli/own/kitchen/136_kit.jpg,,,,,,,,,0,12,12,498,476.28444291699986,,,,,,,,,,,476.5713595829999,476.74155125000004,476.74155125000004,476.74155125000004,476.74155125000004,476.74155125000004,476.74155125000004,476.74155125000004,476.74155125000004,476.74155125000004,485.43098529199995,7,-7,1,1.0,8.590354666999929,6.0,5.093578041000001,476.28138224999987,476.28444291699986,476.74155125000004,476.571345208,,,,,,,,476.2777883329999,476.2813346669999,None,,,,,,,,,,,208,kitchen,1,2024-03-16_13h17.54.890,image_similarity_rating,2023.2.3,None,2024-03-16 13h18.12.277534 +0100,
,135,137,576,576,stimuli/own/kitchen/135_kit.jpg,stimuli/own/kitchen/137_kit.jpg,,,,,,,,,0,13,13,575,485.43664750000005,,,,,,,,,,,485.72159395799997,485.88693191699997,485.88693191699997,485.88693191699997,485.88693191699997,485.88693191699997,485.88693191699997,485.88693191699997,485.88693191699997,485.88693191699997,496.1388714169999,7,-7,1,1.0,5.121102958999927,3.0,10.016720874999919,485.4348735,485.43664750000005,485.88693191699997,485.721581333,,,,,,,,485.43121391700004,485.4348262919999,None,,,,,,,,,,,208,kitchen,1,2024-03-16_13h17.54.890,image_similarity_rating,2023.2.3,None,2024-03-16 13h18.12.277534 +0100,
,113,114,271,271,stimuli/own/kitchen/113_kit.jpg,stimuli/own/kitchen/114_kit.jpg,,,,,,,,,0,14,14,270,496.149158542,,,,,,,,,,,496.433457,496.5991478330001,496.5991478330001,496.5991478330001,496.5991478330001,496.5991478330001,496.5991478330001,496.5991478330001,496.5991478330001,496.5991478330001,511.3513831669999,-7,7,1,2.0,10.368664916999933,3.0,14.5780411249998,496.14257433299997,496.149158542,496.5991478330001,496.4334427499999,,,,,,,,496.139091958,496.14252691700005,None,,,,,,,,,,,208,kitchen,1,2024-03-16_13h17.54.890,image_similarity_rating,2023.2.3,None,2024-03-16 13h18.12.277534 +0100,
,136,139,583,583,stimuli/own/kitchen/136_kit.jpg,stimuli/own/kitchen/139_kit.jpg,,,,,,,,,0,15,15,582,511.35682262500006,,,,,,,,,,,511.6501434999999,511.814732917,511.814732917,511.814732917,511.814732917,511.814732917,511.814732917,511.814732917,511.814732917,511.814732917,526.9142647919999,7,-7,1,1.0,9.147708958000067,4.0,14.862652916999878,511.35506058299995,511.35682262500006,511.814732917,511.6501299999999,,,,,,,,511.35160099999996,511.35501387500005,None,,,,,,,,,,,208,kitchen,1,2024-03-16_13h17.54.890,image_similarity_rating,2023.2.3,None,2024-03-16 13h18.12.277534 +0100,
,114,135,313,313,stimuli/own/kitchen/114_kit.jpg,stimuli/own/kitchen/135_kit.jpg,,,,,,,,,0,16,16,312,526.9201309169999,,,,,,,,,,,527.204424292,527.37124525,527.37124525,527.37124525,527.37124525,527.37124525,527.37124525,527.37124525,527.37124525,527.37124525,536.0931072499999,-7,7,1,1.0,3.4257098749999386,3.0,8.648785417,526.918150333,526.9201309169999,527.37124525,527.2044111249999,,,,,,,,526.914498583,526.91810275,None,,,,,,,,,,,208,kitchen,1,2024-03-16_13h17.54.890,image_similarity_rating,2023.2.3,None,2024-03-16 13h18.12.277534 +0100,
,117,136,359,359,stimuli/own/kitchen/117_kit.jpg,stimuli/own/kitchen/136_kit.jpg,,,,,,,,,0,17,17,358,536.0987461670001,,,,,,,,,,,536.3833815419999,536.5495702079999,536.5495702079999,536.5495702079999,536.5495702079999,536.5495702079999,536.5495702079999,536.5495702079999,536.5495702079999,536.5495702079999,546.5219450000001,7,-7,1,1.0,7.685802833000025,1.0,9.797306417000073,536.0968040419999,536.0987461670001,536.5495702079999,536.3833586669999,,,,,,,,536.093327917,536.096754625,None,,,,,,,,,,,208,kitchen,1,2024-03-16_13h17.54.890,image_similarity_rating,2023.2.3,None,2024-03-16 13h18.12.277534 +0100,
,113,116,272,272,stimuli/own/kitchen/113_kit.jpg,stimuli/own/kitchen/116_kit.jpg,,,,,,,,,0,18,18,271,546.5322479999999,,,,,,,,,,,546.816595458,546.9845535829999,546.9845535829999,546.9845535829999,546.9845535829999,546.9845535829999,546.9845535829999,546.9845535829999,546.9845535829999,546.9845535829999,560.6010307079999,7,-7,1,1.0,10.332059625000056,2.0,13.51908712500017,546.5256362920001,546.5322479999999,546.9845535829999,546.816580458,,,,,,,,546.5221641669999,546.525589208,None,,,,,,,,,,,208,kitchen,1,2024-03-16_13h17.54.890,image_similarity_rating,2023.2.3,None,2024-03-16 13h18.12.277534 +0100,
,113,131,286,286,stimuli/own/kitchen/113_kit.jpg,stimuli/own/kitchen/131_kit.jpg,,,,,,,,,0,19,19,285,560.6068973329999,,,,,,,,,,,560.899995292,561.0678345,561.0678345,561.0678345,561.0678345,561.0678345,561.0678345,561.0678345,561.0678345,561.0678345,578.338706292,-7,7,1,1.0,6.3488487090000945,4.0,17.173400333000018,560.604974125,560.6068973329999,561.0678345,560.8999802919999,,,,,,,,560.6012505,560.6049234169999,None,,,,,,,,,,,208,kitchen,1,2024-03-16_13h17.54.890,image_similarity_rating,2023.2.3,None,2024-03-16 13h18.12.277534 +0100,
,111,131,235,235,stimuli/own/kitchen/111_kit.jpg,stimuli/own/kitchen/131_kit.jpg,,,,,,,,,0,20,20,234,578.3487914579999,,,,,,,,,,,578.633213208,578.8040932079999,578.8040932079999,578.8040932079999,578.8040932079999,578.8040932079999,578.8040932079999,578.8040932079999,578.8040932079999,578.8040932079999,586.2428599579999,7,-7,1,1.0,5.171642708000036,1.0,6.789618582999992,578.3426209169999,578.3487914579999,578.8040932079999,578.63319625,,,,,,,,578.338925292,578.3425713329999,None,,,,,,,,,,,208,kitchen,1,2024-03-16_13h17.54.890,image_similarity_rating,2023.2.3,None,2024-03-16 13h18.12.277534 +0100,
,111,139,242,242,stimuli/own/kitchen/111_kit.jpg,stimuli/own/kitchen/139_kit.jpg,,,,,,,,,0,21,21,241,586.2485168750001,,,,,,,,,,,586.533781792,586.6981541249999,586.6981541249999,586.6981541249999,586.6981541249999,586.6981541249999,586.6981541249999,586.6981541249999,586.6981541249999,586.6981541249999,605.3815470000001,7,-7,1,4.0,13.738605000000007,4.0,18.482289791999847,586.24668125,586.2485168750001,586.6981541249999,586.533765708,,,,,,,,586.243083833,586.246634167,None,,,,,,,,,,,208,kitchen,1,2024-03-16_13h17.54.890,image_similarity_rating,2023.2.3,None,2024-03-16 13h18.12.277534 +0100,
,109,118,196,196,stimuli/own/kitchen/109_kit.jpg,stimuli/own/kitchen/118_kit.jpg,,,,,,,,,0,22,22,195,605.387423542,,,,,,,,,,,605.670349958,605.8340924999999,605.8340924999999,605.8340924999999,605.8340924999999,605.8340924999999,605.8340924999999,605.8340924999999,605.8340924999999,605.8340924999999,618.726033542,-7,7,1,2.0,7.149449666999999,3.0,12.731207125000083,605.385494167,605.387423542,605.8340924999999,605.6703369999999,,,,,,,,605.381766375,605.3854438750001,None,,,,,,,,,,,208,kitchen,1,2024-03-16_13h17.54.890,image_similarity_rating,2023.2.3,None,2024-03-16 13h18.12.277534 +0100,
,109,122,200,200,stimuli/own/kitchen/109_kit.jpg,stimuli/own/kitchen/122_kit.jpg,,,,,,,,,0,23,23,199,618.731639875,,,,,,,,,,,619.0164065,619.1844076250001,619.1844076250001,619.1844076250001,619.1844076250001,619.1844076250001,619.1844076250001,619.1844076250001,619.1844076250001,619.1844076250001,633.2718355000001,7,-7,1,2.0,5.934855833000029,3.0,13.276314791999994,618.7297472920001,618.731639875,619.1844076250001,619.0163853329999,,,,,,,,618.7262556669999,618.7297005419999,None,,,,,,,,,,,208,kitchen,1,2024-03-16_13h17.54.890,image_similarity_rating,2023.2.3,None,2024-03-16 13h18.12.277534 +0100,
,123,124,460,460,stimuli/own/kitchen/123_kit.jpg,stimuli/own/kitchen/124_kit.jpg,,,,,,,,,0,24,24,459,633.2819512919999,,,,,,,,,,,633.566510833,633.738235833,633.738235833,633.738235833,633.738235833,633.738235833,633.738235833,633.738235833,633.738235833,633.738235833,647.4592529999999,7,-7,1,1.0,9.12746712499984,4.0,13.586544959000094,633.275560917,633.2819512919999,633.738235833,633.5664908329999,,,,,,,,633.272056333,633.27551375,None,,,,,,,,,,,208,kitchen,1,2024-03-16_13h17.54.890,image_similarity_rating,2023.2.3,None,2024-03-16 13h18.12.277534 +0100,
,105,122,143,143,stimuli/own/kitchen/105_kit.jpg,stimuli/own/kitchen/122_kit.jpg,,,,,,,,,0,25,25,142,647.4651807500001,,,,,,,,,,,647.7495459169999,647.9149153330001,647.9149153330001,647.9149153330001,647.9149153330001,647.9149153330001,647.9149153330001,647.9149153330001,647.9149153330001,647.9149153330001,658.9262559580001,-7,7,1,2.0,10.947858290999875,6.0,6.2974642500000755,647.463040875,647.4651807500001,647.9149153330001,647.749530333,,,,,,,,647.459473,647.4629939579999,None,,,,,,,,,,,208,kitchen,1,2024-03-16_13h17.54.890,image_similarity_rating,2023.2.3,None,2024-03-16 13h18.12.277534 +0100,
,113,123,279,279,stimuli/own/kitchen/113_kit.jpg,stimuli/own/kitchen/123_kit.jpg,,,,,,,,,0,26,26,278,658.9488272499999,,,,,,,,,,,659.23243425,659.3978181669999,659.3978181669999,659.3978181669999,659.3978181669999,659.3978181669999,659.3978181669999,659.3978181669999,659.3978181669999,659.3978181669999,677.496918875,7,-7,1,3.0,13.49433929199995,3.0,17.92375641700005,658.930090875,658.9488272499999,,659.2324170420001,,,,,,,,658.926474792,658.93004375,None,,,,,,,,,,,208,kitchen,1,2024-03-16_13h17.54.890,image_similarity_rating,2023.2.3,None,2024-03-16 13h18.12.277534 +0100,
,105,125,146,146,stimuli/own/kitchen/105_kit.jpg,stimuli/own/kitchen/125_kit.jpg,,,,,,,,,0,27,27,145,677.502868208,,,,,,,,,,,677.7867848330001,677.951368333,677.951368333,677.951368333,677.951368333,677.951368333,677.951368333,677.951368333,677.951368333,677.951368333,691.06382625,-7,7,1,2.0,8.69408829200006,7.0,13.013006583999868,677.5007885419999,677.502868208,677.951368333,677.7867709169999,,,,,,,,677.497156458,677.50074125,None,,,,,,,,,,,208,kitchen,1,2024-03-16_13h17.54.890,image_similarity_rating,2023.2.3,None,2024-03-16 13h18.12.277534 +0100,
,125,138,501,501,stimuli/own/kitchen/125_kit.jpg,stimuli/own/kitchen/138_kit.jpg,,,,,,,,,0,28,28,500,691.069770958,,,,,,,,,,,691.35418425,691.521624958,691.521624958,691.521624958,691.521624958,691.521624958,691.521624958,691.521624958,691.521624958,691.521624958,696.459860375,7,-7,1,2.0,3.573420624999926,7.0,4.764739666999958,691.06766925,691.069770958,691.521624958,691.354170917,,,,,,,,691.0640690829999,691.0676220419999,None,,,,,,,,,,,208,kitchen,1,2024-03-16_13h17.54.890,image_similarity_rating,2023.2.3,None,2024-03-16 13h18.12.277534 +0100,
,124,139,488,488,stimuli/own/kitchen/124_kit.jpg,stimuli/own/kitchen/139_kit.jpg,,,,,,,,,0,29,29,487,696.4662093329999,,,,,,,,,,,696.750048083,696.9160672080001,696.9160672080001,696.9160672080001,696.9160672080001,696.9160672080001,696.9160672080001,696.9160672080001,696.9160672080001,696.9160672080001,707.5846995420001,-7,7,1,2.0,8.117417166999985,2.0,10.502236249999896,696.4636026249999,696.4662093329999,696.9160672080001,696.750035083,,,,,,,,696.4600803750001,696.4635549579999,None,,,,,,,,,,,208,kitchen,1,2024-03-16_13h17.54.890,image_similarity_rating,2023.2.3,None,2024-03-16 13h18.12.277534 +0100,
,102,127,55,55,stimuli/own/kitchen/102_kit.jpg,stimuli/own/kitchen/127_kit.jpg,,,,,,,,,0,30,30,54,707.5981788749999,,,,,,,,,,,707.8835760829999,708.0498818329999,708.0498818329999,708.0498818329999,708.0498818329999,708.0498818329999,708.0498818329999,708.0498818329999,708.0498818329999,708.0498818329999,714.7257376250001,7,-7,1,2.0,3.87214029200004,4.0,6.497131915999944,707.588582083,707.5981788749999,708.0498818329999,707.8835585830001,,,,,,,,707.584928875,707.588533125,None,,,,,,,,,,,208,kitchen,1,2024-03-16_13h17.54.890,image_similarity_rating,2023.2.3,None,2024-03-16 13h18.12.277534 +0100,
,119,126,392,392,stimuli/own/kitchen/119_kit.jpg,stimuli/own/kitchen/126_kit.jpg,,,,,,,,,0,31,31,391,714.7312847499999,,,,,,,,,,,715.0160716669999,715.1811034169999,715.1811034169999,715.1811034169999,715.1811034169999,715.1811034169999,715.1811034169999,715.1811034169999,715.1811034169999,715.1811034169999,723.0172424579999,-7,7,1,2.0,6.405407875000037,1.0,7.675985167000135,714.729456292,714.7312847499999,715.1811034169999,715.0160574170001,,,,,,,,714.7259566249999,714.7294094580001,None,,,,,,,,,,,208,kitchen,1,2024-03-16_13h17.54.890,image_similarity_rating,2023.2.3,None,2024-03-16 13h18.12.277534 +0100,
,109,123,201,201,stimuli/own/kitchen/109_kit.jpg,stimuli/own/kitchen/123_kit.jpg,,,,,,,,,0,32,32,200,723.022688833,,,,,,,,,,,723.3162727499999,723.4810934999999,723.4810934999999,723.4810934999999,723.4810934999999,723.4810934999999,723.4810934999999,723.4810934999999,723.4810934999999,723.4810934999999,728.622213083,7,-7,1,1.0,3.4950748750000002,1.0,4.955083332999948,723.020925917,723.022688833,723.4810934999999,723.3162599579999,,,,,,,,723.017462333,723.020878958,None,,,,,,,,,,,208,kitchen,1,2024-03-16_13h17.54.890,image_similarity_rating,2023.2.3,None,2024-03-16 13h18.12.277534 +0100,
,127,138,526,526,stimuli/own/kitchen/127_kit.jpg,stimuli/own/kitchen/138_kit.jpg,,,,,,,,,0,33,33,525,728.631417875,,,,,,,,,,,728.916871667,729.0819849999999,729.0819849999999,729.0819849999999,729.0819849999999,729.0819849999999,729.0819849999999,729.0819849999999,729.0819849999999,729.0819849999999,736.817077708,-7,7,1,3.0,5.977529790999824,1.0,7.081260874999998,728.625921,728.631417875,729.0819849999999,728.916858042,,,,,,,,728.6224462920001,728.6258736670001,None,,,,,,,,,,,208,kitchen,1,2024-03-16_13h17.54.890,image_similarity_rating,2023.2.3,None,2024-03-16 13h18.12.277534 +0100,
,114,120,300,300,stimuli/own/kitchen/114_kit.jpg,stimuli/own/kitchen/120_kit.jpg,,,,,,,,,0,34,34,299,736.8225309999999,,,,,,,,,,,737.116025292,737.282802625,737.282802625,737.282802625,737.282802625,737.282802625,737.282802625,737.282802625,737.282802625,737.282802625,749.134502583,-7,7,1,3.0,9.130210042000044,4.0,11.400473582999894,736.8207665419999,736.8225309999999,737.282802625,737.116010333,,,,,,,,736.8172994170001,736.8207196669999,None,,,,,,,,,,,208,kitchen,1,2024-03-16_13h17.54.890,image_similarity_rating,2023.2.3,None,2024-03-16 13h18.12.277534 +0100,
,119,122,388,388,stimuli/own/kitchen/119_kit.jpg,stimuli/own/kitchen/122_kit.jpg,,,,,,,,,0,35,35,387,749.140121583,,,,,,,,,,,749.432553708,749.598942125,749.598942125,749.598942125,749.598942125,749.598942125,749.598942125,749.598942125,749.598942125,749.598942125,763.8379303329999,7,-7,1,2.0,12.690793708000001,2.0,14.10140824999985,749.13830075,749.140121583,749.598942125,749.432538333,,,,,,,,749.1347266249999,749.138253208,None,,,,,,,,,,,208,kitchen,1,2024-03-16_13h17.54.890,image_similarity_rating,2023.2.3,None,2024-03-16 13h18.12.277534 +0100,
,126,138,514,514,stimuli/own/kitchen/126_kit.jpg,stimuli/own/kitchen/138_kit.jpg,,,,,,,,,0,36,36,513,763.848040875,,,,,,,,,,,764.132865833,764.298237333,764.298237333,764.298237333,764.298237333,764.298237333,764.298237333,764.298237333,764.298237333,764.298237333,773.725874417,7,-7,1,3.0,7.819280875000004,2.0,9.178300042000046,763.8417277079999,763.848040875,764.298237333,764.1328533750001,,,,,,,,763.838152083,763.841680375,None,,,,,,,,,,,208,kitchen,1,2024-03-16_13h17.54.890,image_similarity_rating,2023.2.3,None,2024-03-16 13h18.12.277534 +0100,
,134,136,569,569,stimuli/own/kitchen/134_kit.jpg,stimuli/own/kitchen/136_kit.jpg,,,,,,,,,0,37,37,568,773.74812775,,,,,,,,,,,774.0322340829999,774.197685083,774.197685083,774.197685083,774.197685083,774.197685083,774.197685083,774.197685083,774.197685083,774.197685083,782.9212027079999,7,-7,1,5.0,5.498324249999996,6.0,8.585898708000059,773.7295734999999,773.74812775,,774.032215417,,,,,,,,773.72609725,773.7295256670001,None,,,,,,,,,,,208,kitchen,1,2024-03-16_13h17.54.890,image_similarity_rating,2023.2.3,None,2024-03-16 13h18.12.277534 +0100,
,109,129,206,206,stimuli/own/kitchen/109_kit.jpg,stimuli/own/kitchen/129_kit.jpg,,,,,,,,,0,38,38,205,782.9310736250001,,,,,,,,,,,783.2158095419999,783.382635,783.382635,783.382635,783.382635,783.382635,783.382635,783.382635,783.382635,783.382635,791.0709921249999,7,-7,1,1.0,5.549182167000026,1.0,6.464712874999805,782.924877667,782.9310736250001,783.382635,783.2157965,,,,,,,,782.921418708,782.924830667,None,,,,,,,,,,,208,kitchen,1,2024-03-16_13h17.54.890,image_similarity_rating,2023.2.3,None,2024-03-16 13h18.12.277534 +0100,
,118,132,377,377,stimuli/own/kitchen/118_kit.jpg,stimuli/own/kitchen/132_kit.jpg,,,,,,,,,0,39,39,376,791.081154417,,,,,,,,,,,791.3668664999999,791.5317208749999,791.5317208749999,791.5317208749999,791.5317208749999,791.5317208749999,791.5317208749999,791.5317208749999,791.5317208749999,791.5317208749999,807.850192792,-7,7,1,6.0,7.7882032079999135,5.0,16.214452959000027,791.074684375,791.081154417,791.5317208749999,791.366853917,,,,,,,,791.0712110000001,791.0746371669999,None,,,,,,,,,,,208,kitchen,1,2024-03-16_13h17.54.890,image_similarity_rating,2023.2.3,None,2024-03-16 13h18.12.277534 +0100,
,123,132,467,467,stimuli/own/kitchen/123_kit.jpg,stimuli/own/kitchen/132_kit.jpg,,,,,,,,,0,40,40,466,807.855638292,,,,,,,,,,,808.149332458,808.31306775,808.31306775,808.31306775,808.31306775,808.31306775,808.31306775,808.31306775,808.31306775,808.31306775,818.48000625,7,-7,1,4.0,7.80624862500008,1.0,9.091571541999883,807.853872583,807.855638292,808.31306775,808.1493199999999,,,,,,,,807.850413042,807.85382575,None,,,,,,,,,,,208,kitchen,1,2024-03-16_13h17.54.890,image_similarity_rating,2023.2.3,None,2024-03-16 13h18.12.277534 +0100,
,123,129,464,464,stimuli/own/kitchen/123_kit.jpg,stimuli/own/kitchen/129_kit.jpg,,,,,,,,,0,41,41,463,818.485670375,,,,,,,,,,,818.7702935419999,818.9387,818.9387,818.9387,818.9387,818.9387,818.9387,818.9387,818.9387,818.9387,828.4510879169999,7,-7,1,2.0,4.813499750000119,4.0,9.523690750000014,818.483738083,818.485670375,818.9387,818.7702788749999,,,,,,,,818.4802449580001,818.483691,None,,,,,,,,,,,208,kitchen,1,2024-03-16_13h17.54.890,image_similarity_rating,2023.2.3,None,2024-03-16 13h18.12.277534 +0100,
,122,129,448,448,stimuli/own/kitchen/122_kit.jpg,stimuli/own/kitchen/129_kit.jpg,,,,,,,,,0,42,42,447,828.464345,,,,,,,,,,,828.7492389579999,828.9213025,828.9213025,828.9213025,828.9213025,828.9213025,828.9213025,828.9213025,828.9213025,828.9213025,842.608806542,7,-7,1,3.0,10.32087645799993,1.0,13.575664166999786,828.4548805000001,828.464345,828.9213025,828.7492176249999,,,,,,,,828.451311167,828.454831208,None,,,,,,,,,,,208,kitchen,1,2024-03-16_13h17.54.890,image_similarity_rating,2023.2.3,None,2024-03-16 13h18.12.277534 +0100,
,129,140,539,539,stimuli/own/kitchen/129_kit.jpg,stimuli/own/kitchen/140_kit.jpg,,,,,,,,,0,43,43,538,842.631033,,,,,,,,,,,842.91506825,843.082168042,843.082168042,843.082168042,843.082168042,843.082168042,843.082168042,843.082168042,843.082168042,843.082168042,848.905432958,7,-7,1,2.0,5.770674125000141,1.0,2.579281999999921,842.6125788749999,842.631033,,842.915048833,,,,,,,,842.6090258329999,842.6125317499999,None,,,,,,,,,,,208,kitchen,1,2024-03-16_13h17.54.890,image_similarity_rating,2023.2.3,None,2024-03-16 13h18.12.277534 +0100,
,106,135,183,183,stimuli/own/kitchen/106_kit.jpg,stimuli/own/kitchen/135_kit.jpg,,,,,,,,,0,44,44,182,848.91465325,,,,,,,,,,,849.198900625,849.3616263329999,849.3616263329999,849.3616263329999,849.3616263329999,849.3616263329999,849.3616263329999,849.3616263329999,849.3616263329999,849.3616263329999,862.166672292,7,-7,1,1.0,10.734671583999898,1.0,12.556520583000065,848.9090963749999,848.91465325,849.3616263329999,849.1988902919999,,,,,,,,848.9056509169999,848.9090493749999,None,,,,,,,,,,,208,kitchen,1,2024-03-16_13h17.54.890,image_similarity_rating,2023.2.3,None,2024-03-16 13h18.12.277534 +0100,
,109,138,214,214,stimuli/own/kitchen/109_kit.jpg,stimuli/own/kitchen/138_kit.jpg,,,,,,,,,0,45,45,213,862.172279542,,,,,,,,,,,862.465593083,862.6334102919999,862.6334102919999,862.6334102919999,862.6334102919999,862.6334102919999,862.6334102919999,862.6334102919999,862.6334102919999,862.6334102919999,869.3540651669999,7,-7,1,2.0,5.729117999999971,4.0,6.609116749999885,862.170349375,862.172279542,862.6334102919999,862.465576833,,,,,,,,862.1668908749999,862.170302208,None,,,,,,,,,,,208,kitchen,1,2024-03-16_13h17.54.890,image_similarity_rating,2023.2.3,None,2024-03-16 13h18.12.277534 +0100,
,130,139,548,548,stimuli/own/kitchen/130_kit.jpg,stimuli/own/kitchen/139_kit.jpg,,,,,,,,,0,46,46,547,869.364430708,,,,,,,,,,,869.6488082919999,869.8201916669999,869.8201916669999,869.8201916669999,869.8201916669999,869.8201916669999,869.8201916669999,869.8201916669999,869.8201916669999,869.8201916669999,878.30429375,-7,7,1,3.0,6.094224667000162,2.0,6.922428916999934,869.357740458,869.364430708,869.8201916669999,869.648791875,,,,,,,,869.354280292,869.3576939579999,None,,,,,,,,,,,208,kitchen,1,2024-03-16_13h17.54.890,image_similarity_rating,2023.2.3,None,2024-03-16 13h18.12.277534 +0100,
,102,138,64,64,stimuli/own/kitchen/102_kit.jpg,stimuli/own/kitchen/138_kit.jpg,,,,,,,,,0,47,47,63,878.314257208,,,,,,,,,,,878.5987316669999,878.765071792,878.765071792,878.765071792,878.765071792,878.765071792,878.765071792,878.765071792,878.765071792,878.765071792,891.825054542,7,-7,1,2.0,7.499861792000047,2.0,12.88420641599987,878.3079717499999,878.314257208,878.765071792,878.598716458,,,,,,,,878.3045142499999,878.3079254169999,None,,,,,,,,,,,208,kitchen,1,2024-03-16_13h17.54.890,image_similarity_rating,2023.2.3,None,2024-03-16 13h18.12.277534 +0100,
,121,123,426,426,stimuli/own/kitchen/121_kit.jpg,stimuli/own/kitchen/123_kit.jpg,,,,,,,,,0,48,48,425,891.8305900419999,,,,,,,,,,,892.115295875,892.28029175,892.28029175,892.28029175,892.28029175,892.28029175,892.28029175,892.28029175,892.28029175,892.28029175,899.0042037919999,-7,7,1,1.0,3.8694672090000495,2.0,6.550203334000116,891.8287321249999,891.8305900419999,892.28029175,892.115282417,,,,,,,,891.825276125,891.828684917,None,,,,,,,,,,,208,kitchen,1,2024-03-16_13h17.54.890,image_similarity_rating,2023.2.3,None,2024-03-16 13h18.12.277534 +0100,
,112,123,254,254,stimuli/own/kitchen/112_kit.jpg,stimuli/own/kitchen/123_kit.jpg,,,,,,,,,0,49,49,253,899.0142318750001,,,,,,,,,,,899.2987798749999,899.4652565,899.4652565,899.4652565,899.4652565,899.4652565,899.4652565,899.4652565,899.4652565,899.4652565,911.791610208,7,-7,1,2.0,9.613059000000021,1.0,12.096401583999977,899.0079543329999,899.0142318750001,899.4652565,899.298760667,,,,,,,,899.004421083,899.007906875,None,,,,,,,,,,,208,kitchen,1,2024-03-16_13h17.54.890,image_similarity_rating,2023.2.3,None,2024-03-16 13h18.12.277534 +0100,
,103,106,70,70,stimuli/own/kitchen/103_kit.jpg,stimuli/own/kitchen/106_kit.jpg,,,,,,,,,0,50,50,69,911.797132708,,,,,,,,,,,912.082043542,912.251230667,912.251230667,912.251230667,912.251230667,912.251230667,912.251230667,912.251230667,912.251230667,912.251230667,920.7585538330001,-7,7,1,1.0,5.8487634999999045,4.0,7.520474750000176,911.7952872919999,911.797132708,912.251230667,912.082026708,,,,,,,,911.7918315000001,911.7952402079999,None,,,,,,,,,,,208,kitchen,1,2024-03-16_13h17.54.890,image_similarity_rating,2023.2.3,None,2024-03-16 13h18.12.277534 +0100,
,139,141,594,594,stimuli/own/kitchen/139_kit.jpg,stimuli/own/kitchen/141_kit.jpg,,,,,,,,,0,51,51,593,920.780830417,,,,,,,,,,,921.0648272079999,921.2297358330001,921.2297358330001,921.2297358330001,921.2297358330001,921.2297358330001,921.2297358330001,921.2297358330001,921.2297358330001,921.2297358330001,927.996067958,7,-7,1,1.0,3.606162583000014,2.0,6.605847499999982,920.762224208,920.780830417,,921.0648095,,,,,,,,920.758776042,920.762177875,None,,,,,,,,,,,208,kitchen,1,2024-03-16_13h17.54.890,image_similarity_rating,2023.2.3,None,2024-03-16 13h18.12.277534 +0100,
,112,118,249,249,stimuli/own/kitchen/112_kit.jpg,stimuli/own/kitchen/118_kit.jpg,,,,,,,,,0,52,52,248,928.001895583,,,,,,,,,,,928.2858230830001,928.4495121250001,928.4495121250001,928.4495121250001,928.4495121250001,928.4495121250001,928.4495121250001,928.4495121250001,928.4495121250001,928.4495121250001,940.950400458,7,-7,1,4.0,5.235718791999943,2.0,11.614525959000048,927.999809042,928.001895583,928.4495121250001,928.2858116250001,,,,,,,,927.9963114169999,927.9997615419999,None,,,,,,,,,,,208,kitchen,1,2024-03-16_13h17.54.890,image_similarity_rating,2023.2.3,None,2024-03-16 13h18.12.277534 +0100,
,126,136,512,512,stimuli/own/kitchen/126_kit.jpg,stimuli/own/kitchen/136_kit.jpg,,,,,,,,,0,53,53,511,940.9558417079999,,,,,,,,,,,941.2484067080001,941.415506875,941.415506875,941.415506875,941.415506875,941.415506875,941.415506875,941.415506875,941.415506875,941.415506875,950.587281667,7,-7,1,2.0,4.352532540999846,2.0,9.098161792000155,940.954065625,940.9558417079999,941.415506875,941.2483913749999,,,,,,,,940.950621583,940.954018792,None,,,,,,,,,,,208,kitchen,1,2024-03-16_13h17.54.890,image_similarity_rating,2023.2.3,None,2024-03-16 13h18.12.277534 +0100,
,112,132,262,609,stimuli/own/kitchen/112_kit.jpg,stimuli/own/kitchen/132_kit.jpg,,,,,,,,,0,54,54,608,950.5973560419999,,,,,,,,,,,950.8817988330001,951.0477876250001,951.0477876250001,951.0477876250001,951.0477876250001,951.0477876250001,951.0477876250001,951.0477876250001,951.0477876250001,951.0477876250001,958.829372583,-7,7,1,5.0,5.647601167000175,2.0,7.670659000000114,950.5909525829999,950.5973560419999,951.0477876250001,950.8817835829999,,,,,,,,950.5875003749999,950.5909062079999,None,,,,,,,,,,,208,kitchen,1,2024-03-16_13h17.54.890,image_similarity_rating,2023.2.3,None,2024-03-16 13h18.12.277534 +0100,
,103,121,81,81,stimuli/own/kitchen/103_kit.jpg,stimuli/own/kitchen/121_kit.jpg,,,,,,,,,0,55,55,80,958.8351321249999,,,,,,,,,,,959.1195020419999,959.2889383749999,959.2889383749999,959.2889383749999,959.2889383749999,959.2889383749999,959.2889383749999,959.2889383749999,959.2889383749999,959.2889383749999,967.9459789169999,7,-7,1,6.0,7.037638000000015,3.0,8.519504124999912,958.833206333,958.8351321249999,959.2889383749999,959.1194875,,,,,,,,958.8296187499999,958.833159417,None,,,,,,,,,,,208,kitchen,1,2024-03-16_13h17.54.890,image_similarity_rating,2023.2.3,None,2024-03-16 13h18.12.277534 +0100,
,111,119,224,224,stimuli/own/kitchen/111_kit.jpg,stimuli/own/kitchen/119_kit.jpg,,,,,,,,,0,56,56,223,967.951620083,,,,,,,,,,,968.235688458,968.40038225,968.40038225,968.40038225,968.40038225,968.40038225,968.40038225,968.40038225,968.40038225,968.40038225,975.858587,-7,7,1,2.0,4.863410625000142,1.0,7.20868408299998,967.949692708,967.951620083,968.40038225,968.2356764580001,,,,,,,,967.946222167,967.949646125,None,,,,,,,,,,,208,kitchen,1,2024-03-16_13h17.54.890,image_similarity_rating,2023.2.3,None,2024-03-16 13h18.12.277534 +0100,
,119,123,389,389,stimuli/own/kitchen/119_kit.jpg,stimuli/own/kitchen/123_kit.jpg,,,,,,,,,0,57,57,388,975.8806449580001,,,,,,,,,,,976.164605,976.335668333,976.335668333,976.335668333,976.335668333,976.335668333,976.335668333,976.335668333,976.335668333,976.335668333,983.0291611669999,-7,7,1,1.0,3.908860958000105,4.0,6.580265083000086,975.8622608750001,975.8806449580001,,976.1645742499999,,,,,,,,975.858806333,975.8622141669999,None,,,,,,,,,,,208,kitchen,1,2024-03-16_13h17.54.890,image_similarity_rating,2023.2.3,None,2024-03-16 13h18.12.277534 +0100,
,116,126,329,329,stimuli/own/kitchen/116_kit.jpg,stimuli/own/kitchen/126_kit.jpg,,,,,,,,,0,58,58,328,983.034661,,,,,,,,,,,983.3189859579999,983.4838142079999,983.4838142079999,983.4838142079999,983.4838142079999,983.4838142079999,983.4838142079999,983.4838142079999,983.4838142079999,983.4838142079999,992.536634292,-7,7,1,3.0,5.046456374999934,3.0,8.853425750000042,983.032903958,983.034661,983.4838142079999,983.318974208,,,,,,,,983.0293902499999,983.032856958,None,,,,,,,,,,,208,kitchen,1,2024-03-16_13h17.54.890,image_similarity_rating,2023.2.3,None,2024-03-16 13h18.12.277534 +0100,
,118,131,376,376,stimuli/own/kitchen/118_kit.jpg,stimuli/own/kitchen/131_kit.jpg,,,,,,,,,0,59,59,375,992.547127167,,,,,,,,,,,992.8317181670001,993.000906542,993.000906542,993.000906542,993.000906542,993.000906542,993.000906542,993.000906542,993.000906542,993.000906542,1002.4327259169999,-7,7,1,4.0,8.309325166999997,1.0,9.282044499999984,992.540310667,992.547127167,993.000906542,992.8317007499999,,,,,,,,992.5368546670001,992.540263875,None,,,,,,,,,,,208,kitchen,1,2024-03-16_13h17.54.890,image_similarity_rating,2023.2.3,None,2024-03-16 13h18.12.277534 +0100,
,131,139,557,557,stimuli/own/kitchen/131_kit.jpg,stimuli/own/kitchen/139_kit.jpg,,,,,,,,,0,60,60,556,1002.438281458,,,,,,,,,,,1002.7316562079999,1002.896420167,1002.896420167,1002.896420167,1002.896420167,1002.896420167,1002.896420167,1002.896420167,1002.896420167,1002.896420167,1008.449374208,-7,7,1,1.0,4.5370401669999865,1.0,5.364738832999819,1002.4363750829999,1002.438281458,1002.896420167,1002.731640542,,,,,,,,1002.432946708,1002.4363286249999,None,,,,,,,,,,,208,kitchen,1,2024-03-16_13h17.54.890,image_similarity_rating,2023.2.3,None,2024-03-16 13h18.12.277534 +0100,
,111,137,240,240,stimuli/own/kitchen/111_kit.jpg,stimuli/own/kitchen/137_kit.jpg,,,,,,,,,0,61,61,239,1008.455099292,,,,,,,,,,,1008.7482496249999,1008.9173012499999,1008.9173012499999,1008.9173012499999,1008.9173012499999,1008.9173012499999,1008.9173012499999,1008.9173012499999,1008.9173012499999,1008.9173012499999,1017.262740125,-7,7,1,2.0,6.693022334000034,1.0,8.157881707999877,1008.453155667,1008.455099292,1008.9173012499999,1008.7482337499999,,,,,,,,1008.449592375,1008.453109167,None,,,,,,,,,,,208,kitchen,1,2024-03-16_13h17.54.890,image_similarity_rating,2023.2.3,None,2024-03-16 13h18.12.277534 +0100,
,102,124,52,52,stimuli/own/kitchen/102_kit.jpg,stimuli/own/kitchen/124_kit.jpg,,,,,,,,,0,62,62,51,1017.2685144169999,,,,,,,,,,,1017.55201275,1017.7150439579999,1017.7150439579999,1017.7150439579999,1017.7150439579999,1017.7150439579999,1017.7150439579999,1017.7150439579999,1017.7150439579999,1017.7150439579999,1027.166950458,7,-7,1,4.0,8.34447620800006,1.0,9.240706457999977,1017.2665826250001,1017.2685144169999,1017.7150439579999,1017.551999792,,,,,,,,1017.2629559999999,1017.266536208,None,,,,,,,,,,,208,kitchen,1,2024-03-16_13h17.54.890,image_similarity_rating,2023.2.3,None,2024-03-16 13h18.12.277534 +0100,
,123,135,469,469,stimuli/own/kitchen/123_kit.jpg,stimuli/own/kitchen/135_kit.jpg,,,,,,,,,0,63,63,468,1027.172858083,,,,,,,,,,,1050.815085542,1050.982751292,1050.982751292,1050.982751292,1050.982751292,1050.982751292,1050.982751292,1050.982751292,1050.982751292,1050.982751292,1063.383105375,7,-7,2,1.0,11.133363584000108,1.0,12.197827125000003,1050.5191653749998,1050.522851667,1050.982751292,1050.8150727920001,,,,,,,,1027.1671690419998,1050.517404667,space,1027.172858083,23.34428370799992,None,,,,,,,,208,kitchen,1,2024-03-16_13h17.54.890,image_similarity_rating,2023.2.3,None,2024-03-16 13h18.12.277534 +0100,
,137,139,587,587,stimuli/own/kitchen/137_kit.jpg,stimuli/own/kitchen/139_kit.jpg,,,,,,,,,0,64,64,586,1063.3968707499998,,,,,,,,,,,1063.6815940830002,1063.845825292,1063.845825292,1063.845825292,1063.845825292,1063.845825292,1063.845825292,1063.845825292,1063.845825292,1063.845825292,1074.14984925,7,-7,2,1.0,7.395827291999922,1.0,10.082625708000023,1063.38775175,1063.3968707499998,1063.845825292,1063.681581375,,,,,,,,1063.383340083,1063.3876948329998,None,,,,,,,,,,,208,kitchen,1,2024-03-16_13h17.54.890,image_similarity_rating,2023.2.3,None,2024-03-16 13h18.12.277534 +0100,
,101,112,8,8,stimuli/own/kitchen/101_kit.jpg,stimuli/own/kitchen/112_kit.jpg,,,,,,,,,0,65,65,7,1074.1554592500001,,,,,,,,,,,1074.448223458,1074.617617125,1074.617617125,1074.617617125,1074.617617125,1074.617617125,1074.617617125,1074.617617125,1074.617617125,1074.617617125,1083.345252917,7,-7,2,3.0,7.548491833000071,6.0,8.564506791999975,1074.1535227919999,1074.1554592500001,1074.617617125,1074.448206958,,,,,,,,1074.150072542,1074.153476417,None,,,,,,,,,,,208,kitchen,1,2024-03-16_13h17.54.890,image_similarity_rating,2023.2.3,None,2024-03-16 13h18.12.277534 +0100,
,102,123,51,51,stimuli/own/kitchen/102_kit.jpg,stimuli/own/kitchen/123_kit.jpg,,,,,,,,,0,66,66,50,1083.350986375,,,,,,,,,,,1083.6353304999998,1083.800269167,1083.800269167,1083.800269167,1083.800269167,1083.800269167,1083.800269167,1083.800269167,1083.800269167,1083.800269167,1091.68669525,-7,7,2,1.0,6.717907541000159,2.0,7.725031333999823,1083.349058792,1083.350986375,1083.800269167,1083.6353140830001,,,,,,,,1083.3454672500002,1083.349010417,None,,,,,,,,,,,208,kitchen,1,2024-03-16_13h17.54.890,image_similarity_rating,2023.2.3,None,2024-03-16 13h18.12.277534 +0100,
,111,132,236,236,stimuli/own/kitchen/111_kit.jpg,stimuli/own/kitchen/132_kit.jpg,,,,,,,,,0,67,67,235,1091.696553458,,,,,,,,,,,1091.9819427080001,1092.14685625,1092.14685625,1092.14685625,1092.14685625,1092.14685625,1092.14685625,1092.14685625,1092.14685625,1092.14685625,1105.70298125,-7,7,2,2.0,8.341724999999997,3.0,13.418800582999893,1091.690432458,1091.696553458,1092.14685625,1091.981929083,,,,,,,,1091.6869109579998,1091.6903860829998,None,,,,,,,,,,,208,kitchen,1,2024-03-16_13h17.54.890,image_similarity_rating,2023.2.3,None,2024-03-16 13h18.12.277534 +0100,
,125,132,496,496,stimuli/own/kitchen/125_kit.jpg,stimuli/own/kitchen/132_kit.jpg,,,,,,,,,0,68,68,495,1105.71328425,,,,,,,,,,,1105.9977573329998,1106.169774333,1106.169774333,1106.169774333,1106.169774333,1106.169774333,1106.169774333,1106.169774333,1106.169774333,1106.169774333,1115.728605833,7,-7,2,5.0,8.350055042000122,2.0,9.459784375000027,1105.706648583,1105.71328425,1106.169774333,1105.9977414169998,,,,,,,,1105.703198708,1105.706601542,None,,,,,,,,,,,208,kitchen,1,2024-03-16_13h17.54.890,image_similarity_rating,2023.2.3,None,2024-03-16 13h18.12.277534 +0100,
,118,129,374,374,stimuli/own/kitchen/118_kit.jpg,stimuli/own/kitchen/129_kit.jpg,,,,,,,,,0,69,69,373,1115.734086208,,,,,,,,,,,1116.0184924169998,1116.18463725,1116.18463725,1116.18463725,1116.18463725,1116.18463725,1116.18463725,1116.18463725,1116.18463725,1116.18463725,1122.486229917,7,-7,2,1.0,4.867590625000048,2.0,6.19045237499995,1115.7323354579999,1115.734086208,1116.18463725,1116.0184802079998,,,,,,,,1115.7288222920001,1115.732288708,None,,,,,,,,,,,208,kitchen,1,2024-03-16_13h17.54.890,image_similarity_rating,2023.2.3,None,2024-03-16 13h18.12.277534 +0100,
,112,136,265,265,stimuli/own/kitchen/112_kit.jpg,stimuli/own/kitchen/136_kit.jpg,,,,,,,,,0,70,70,264,1122.4964435420002,,,,,,,,,,,1122.781027083,1122.9466284999999,1122.9466284999999,1122.9466284999999,1122.9466284999999,1122.9466284999999,1122.9466284999999,1122.9466284999999,1122.9466284999999,1122.9466284999999,1129.4536013329998,7,-7,2,1.0,1.8543425420000403,5.0,6.30804537500012,1122.4900737919997,1122.4964435420002,1122.9466284999999,1122.78101375,,,,,,,,1122.4864475,1122.490027333,None,,,,,,,,,,,208,kitchen,1,2024-03-16_13h17.54.890,image_similarity_rating,2023.2.3,None,2024-03-16 13h18.12.277534 +0100,
,101,141,34,34,stimuli/own/kitchen/101_kit.jpg,stimuli/own/kitchen/141_kit.jpg,,,,,,,,,0,71,71,33,1129.463557,,,,,,,,,,,1129.7478043749998,1129.917924542,1129.917924542,1129.917924542,1129.917924542,1129.917924542,1129.917924542,1129.917924542,1129.917924542,1129.917924542,1137.095724417,7,-7,2,1.0,5.7254580419999,2.0,7.030473000000029,1129.457264792,1129.463557,1129.917924542,1129.747787458,,,,,,,,1129.4538185000001,1129.457218083,None,,,,,,,,,,,208,kitchen,1,2024-03-16_13h17.54.890,image_similarity_rating,2023.2.3,None,2024-03-16 13h18.12.277534 +0100,
,106,132,181,181,stimuli/own/kitchen/106_kit.jpg,stimuli/own/kitchen/132_kit.jpg,,,,,,,,,0,72,72,180,1137.101666083,,,,,,,,,,,1137.3858462499998,1137.5495795420002,1137.5495795420002,1137.5495795420002,1137.5495795420002,1137.5495795420002,1137.5495795420002,1137.5495795420002,1137.5495795420002,1137.5495795420002,1144.932371625,-7,7,2,1.0,3.8968422079999527,2.0,7.2592283339999994,1137.099577417,1137.101666083,1137.5495795420002,1137.385836042,,,,,,,,1137.0959480000001,1137.0995305000001,None,,,,,,,,,,,208,kitchen,1,2024-03-16_13h17.54.890,image_similarity_rating,2023.2.3,None,2024-03-16 13h18.12.277534 +0100,
,101,136,29,29,stimuli/own/kitchen/101_kit.jpg,stimuli/own/kitchen/136_kit.jpg,,,,,,,,,0,73,73,28,1144.9380618330001,,,,,,,,,,,1145.231677542,1145.3964418330002,1145.3964418330002,1145.3964418330002,1145.3964418330002,1145.3964418330002,1145.3964418330002,1145.3964418330002,1145.3964418330002,1145.3964418330002,1160.8363065419999,-7,7,2,1.0,12.647413790999963,2.0,14.679066958000021,1144.9361129580002,1144.9380618330001,1145.3964418330002,1145.2316639169999,,,,,,,,1144.9325855000002,1144.936066625,None,,,,,,,,,,,208,kitchen,1,2024-03-16_13h17.54.890,image_similarity_rating,2023.2.3,None,2024-03-16 13h18.12.277534 +0100,
,136,141,585,585,stimuli/own/kitchen/136_kit.jpg,stimuli/own/kitchen/141_kit.jpg,,,,,,,,,0,74,74,584,1160.846487333,,,,,,,,,,,1161.130805375,1161.2973111249999,1161.2973111249999,1161.2973111249999,1161.2973111249999,1161.2973111249999,1161.2973111249999,1161.2973111249999,1161.2973111249999,1161.2973111249999,1169.5075446249998,-7,7,2,4.0,6.733182749999969,2.0,8.099088459000086,1160.8399569580001,1160.846487333,1161.2973111249999,1161.130790958,,,,,,,,1160.8365263330002,1160.8399100420002,None,,,,,,,,,,,208,kitchen,1,2024-03-16_13h17.54.890,image_similarity_rating,2023.2.3,None,2024-03-16 13h18.12.277534 +0100,
,106,114,165,165,stimuli/own/kitchen/106_kit.jpg,stimuli/own/kitchen/114_kit.jpg,,,,,,,,,0,75,75,164,1169.5298977500001,,,,,,,,,,,1169.8138495419998,1169.9865206670001,1169.9865206670001,1169.9865206670001,1169.9865206670001,1169.9865206670001,1169.9865206670001,1169.9865206670001,1169.9865206670001,1169.9865206670001,1176.0953184169998,-7,7,2,1.0,3.633855583000013,1.0,5.973102375000053,1169.5112355830001,1169.5298977500001,,1169.8138302920001,,,,,,,,1169.507768333,1169.5111871670001,None,,,,,,,,,,,208,kitchen,1,2024-03-16_13h17.54.890,image_similarity_rating,2023.2.3,None,2024-03-16 13h18.12.277534 +0100,
,122,141,459,459,stimuli/own/kitchen/122_kit.jpg,stimuli/own/kitchen/141_kit.jpg,,,,,,,,,0,76,76,458,1176.1010392079997,,,,,,,,,,,1176.385785125,1176.5510454169998,1176.5510454169998,1176.5510454169998,1176.5510454169998,1176.5510454169998,1176.5510454169998,1176.5510454169998,1176.5510454169998,1176.5510454169998,1180.9203724999998,-7,7,2,1.0,2.6488832909999473,4.0,4.269535916999985,1176.0990267920001,1176.1010392079997,1176.5510454169998,1176.385772042,,,,,,,,1176.0955555,1176.0989803329999,None,,,,,,,,,,,208,kitchen,1,2024-03-16_13h17.54.890,image_similarity_rating,2023.2.3,None,2024-03-16 13h18.12.277534 +0100,
,103,118,78,78,stimuli/own/kitchen/103_kit.jpg,stimuli/own/kitchen/118_kit.jpg,,,,,,,,,0,77,77,77,1180.929687792,,,,,,,,,,,1181.214463625,1181.380727917,1181.380727917,1181.380727917,1181.380727917,1181.380727917,1181.380727917,1181.380727917,1181.380727917,1181.380727917,1189.892008917,7,-7,2,2.0,6.991478082999947,5.0,8.366501666999966,1180.9240369579998,1180.929687792,1181.380727917,1181.214451333,,,,,,,,1180.920589292,1180.9239912499997,None,,,,,,,,,,,208,kitchen,1,2024-03-16_13h17.54.890,image_similarity_rating,2023.2.3,None,2024-03-16 13h18.12.277534 +0100,
,117,124,349,349,stimuli/own/kitchen/117_kit.jpg,stimuli/own/kitchen/124_kit.jpg,,,,,,,,,0,78,78,348,1189.8975742080002,,,,,,,,,,,1190.1813283329998,1190.3469917920002,1190.3469917920002,1190.3469917920002,1190.3469917920002,1190.3469917920002,1190.3469917920002,1190.3469917920002,1190.3469917920002,1190.3469917920002,1200.4579308329999,-7,7,2,5.0,8.292090790999964,2.0,9.976018292000163,1189.8958230419998,1189.8975742080002,1190.3469917920002,1190.181315333,,,,,,,,1189.8922258329999,1189.895776625,None,,,,,,,,,,,208,kitchen,1,2024-03-16_13h17.54.890,image_similarity_rating,2023.2.3,None,2024-03-16 13h18.12.277534 +0100,
,101,130,24,24,stimuli/own/kitchen/101_kit.jpg,stimuli/own/kitchen/130_kit.jpg,,,,,,,,,0,79,79,23,1200.4647493749999,,,,,,,,,,,1200.7483850419999,1200.9138374999998,1200.9138374999998,1200.9138374999998,1200.9138374999998,1200.9138374999998,1200.9138374999998,1200.9138374999998,1200.9138374999998,1200.9138374999998,1213.049329,7,-7,2,5.0,9.279954665999867,3.0,12.025807666999981,1200.461704292,1200.4647493749999,1200.9138374999998,1200.74837225,,,,,,,,1200.4581484169998,1200.4616580420002,None,,,,,,,,,,,208,kitchen,1,2024-03-16_13h17.54.890,image_similarity_rating,2023.2.3,None,2024-03-16 13h18.12.277534 +0100,
,125,131,495,495,stimuli/own/kitchen/125_kit.jpg,stimuli/own/kitchen/131_kit.jpg,,,,,,,,,0,80,80,494,1213.062828958,,,,,,,,,,,1213.34813425,1213.514003333,1213.514003333,1213.514003333,1213.514003333,1213.514003333,1213.514003333,1213.514003333,1213.514003333,1213.514003333,1218.6328802919998,7,-7,2,1.0,3.938207166999973,1.0,4.972729957999945,1213.053266125,1213.062828958,1213.514003333,1213.348119625,,,,,,,,1213.0495662079998,1213.053217625,None,,,,,,,,,,,208,kitchen,1,2024-03-16_13h17.54.890,image_similarity_rating,2023.2.3,None,2024-03-16 13h18.12.277534 +0100,
,111,114,220,220,stimuli/own/kitchen/111_kit.jpg,stimuli/own/kitchen/114_kit.jpg,,,,,,,,,0,81,81,219,1218.646120458,,,,,,,,,,,1218.931177417,1219.0965149580002,1219.0965149580002,1219.0965149580002,1219.0965149580002,1219.0965149580002,1219.0965149580002,1219.0965149580002,1219.0965149580002,1219.0965149580002,1230.319873417,-7,7,2,2.0,7.05059058300003,4.0,11.086004499999945,1218.6368149169998,1218.646120458,1219.0965149580002,1218.9311642080002,,,,,,,,1218.633113542,1218.6367638749998,None,,,,,,,,,,,208,kitchen,1,2024-03-16_13h17.54.890,image_similarity_rating,2023.2.3,None,2024-03-16 13h18.12.277534 +0100,
,129,137,536,536,stimuli/own/kitchen/129_kit.jpg,stimuli/own/kitchen/137_kit.jpg,,,,,,,,,0,82,82,535,1230.329804208,,,,,,,,,,,1230.614036375,1230.7787558750001,1230.7787558750001,1230.7787558750001,1230.7787558750001,1230.7787558750001,1230.7787558750001,1230.7787558750001,1230.7787558750001,1230.7787558750001,1242.357170583,7,-7,2,1.0,10.191824916999849,4.0,11.498217959000158,1230.323676083,1230.329804208,1230.7787558750001,1230.614024083,,,,,,,,1230.3200926670002,1230.3236295420002,None,,,,,,,,,,,208,kitchen,1,2024-03-16_13h17.54.890,image_similarity_rating,2023.2.3,None,2024-03-16 13h18.12.277534 +0100,
,125,135,498,498,stimuli/own/kitchen/125_kit.jpg,stimuli/own/kitchen/135_kit.jpg,,,,,,,,,0,83,83,497,1242.362651333,,,,,,,,,,,1242.6473605,1242.813193417,1242.813193417,1242.813193417,1242.813193417,1242.813193417,1242.813193417,1242.813193417,1242.813193417,1242.813193417,1248.182158958,7,-7,2,4.0,4.0586404579999,2.0,5.281892416000119,1242.3608465419998,1242.362651333,1242.813193417,1242.6473405420002,,,,,,,,1242.3573878329998,1242.3607998749999,None,,,,,,,,,,,208,kitchen,1,2024-03-16_13h17.54.890,image_similarity_rating,2023.2.3,None,2024-03-16 13h18.12.277534 +0100,
,131,138,556,556,stimuli/own/kitchen/131_kit.jpg,stimuli/own/kitchen/138_kit.jpg,,,,,,,,,0,84,84,555,1248.1880188750001,,,,,,,,,,,1248.48165875,1248.646284083,1248.646284083,1248.646284083,1248.646284083,1248.646284083,1248.646284083,1248.646284083,1248.646284083,1248.646284083,1255.461496583,-7,7,2,1.0,4.46904308299986,2.0,6.740233959000079,1248.185926833,1248.1880188750001,1248.646284083,1248.4816450419999,,,,,,,,1248.1823755,1248.1858778750002,None,,,,,,,,,,,208,kitchen,1,2024-03-16_13h17.54.890,image_similarity_rating,2023.2.3,None,2024-03-16 13h18.12.277534 +0100,
,104,129,119,119,stimuli/own/kitchen/104_kit.jpg,stimuli/own/kitchen/129_kit.jpg,,,,,,,,,0,85,85,118,1255.467305667,,,,,,,,,,,1255.7504104999998,1255.914291958,1255.914291958,1255.914291958,1255.914291958,1255.914291958,1255.914291958,1255.914291958,1255.914291958,1255.914291958,1265.473736167,7,-7,2,2.0,4.633792416999995,2.0,9.44765550000011,1255.465224917,1255.467305667,1255.914291958,1255.750400292,,,,,,,,1255.46174075,1255.4651787080002,None,,,,,,,,,,,208,kitchen,1,2024-03-16_13h17.54.890,image_similarity_rating,2023.2.3,None,2024-03-16 13h18.12.277534 +0100,
,114,126,306,306,stimuli/own/kitchen/114_kit.jpg,stimuli/own/kitchen/126_kit.jpg,,,,,,,,,0,86,86,305,1265.4792081669998,,,,,,,,,,,1265.7638745,1265.9263784999998,1265.9263784999998,1265.9263784999998,1265.9263784999998,1265.9263784999998,1265.9263784999998,1265.9263784999998,1265.9263784999998,1265.9263784999998,1283.0611518750002,7,-7,2,2.0,16.583020667000028,5.0,11.603321250000135,1265.4774149579998,1265.4792081669998,1265.9263784999998,1265.76386425,,,,,,,,1265.4739521669999,1265.4773679579998,None,,,,,,,,,,,208,kitchen,1,2024-03-16_13h17.54.890,image_similarity_rating,2023.2.3,None,2024-03-16 13h18.12.277534 +0100,
,119,129,394,394,stimuli/own/kitchen/119_kit.jpg,stimuli/own/kitchen/129_kit.jpg,,,,,,,,,0,87,87,393,1283.066664417,,,,,,,,,,,1283.351151583,1283.515040458,1283.515040458,1283.515040458,1283.515040458,1283.515040458,1283.515040458,1283.515040458,1283.515040458,1283.515040458,1289.452406042,7,-7,2,2.0,4.806266042000061,4.0,5.702992624999979,1283.064900458,1283.066664417,1283.515040458,1283.351141042,,,,,,,,1283.061379792,1283.0648540829998,None,,,,,,,,,,,208,kitchen,1,2024-03-16_13h17.54.890,image_similarity_rating,2023.2.3,None,2024-03-16 13h18.12.277534 +0100,
,102,119,47,47,stimuli/own/kitchen/102_kit.jpg,stimuli/own/kitchen/119_kit.jpg,,,,,,,,,0,88,88,46,1289.462560208,,,,,,,,,,,1289.74727075,1289.9147011250002,1289.9147011250002,1289.9147011250002,1289.9147011250002,1289.9147011250002,1289.9147011250002,1289.9147011250002,1289.9147011250002,1289.9147011250002,1300.335746458,-7,7,2,1.0,5.465822667000111,5.0,9.67966516699994,1289.456087,1289.462560208,1289.9147011250002,1289.747255583,,,,,,,,1289.452624292,1289.4560408329999,None,,,,,,,,,,,208,kitchen,1,2024-03-16_13h17.54.890,image_similarity_rating,2023.2.3,None,2024-03-16 13h18.12.277534 +0100,
,102,130,57,57,stimuli/own/kitchen/102_kit.jpg,stimuli/own/kitchen/130_kit.jpg,,,,,,,,,0,89,89,56,1300.346025458,,,,,,,,,,,1300.6311703329998,1300.7953334580002,1300.7953334580002,1300.7953334580002,1300.7953334580002,1300.7953334580002,1300.7953334580002,1300.7953334580002,1300.7953334580002,1300.7953334580002,1316.6076791249998,-7,7,2,4.0,13.091177709000021,5.0,15.635837875000107,1300.33954675,1300.346025458,1300.7953334580002,1300.6311569999998,,,,,,,,1300.335964458,1300.339499958,None,,,,,,,,,,,208,kitchen,1,2024-03-16_13h17.54.890,image_similarity_rating,2023.2.3,None,2024-03-16 13h18.12.277534 +0100,
,106,136,184,184,stimuli/own/kitchen/106_kit.jpg,stimuli/own/kitchen/136_kit.jpg,,,,,,,,,0,90,90,183,1316.6140472920001,,,,,,,,,,,1316.897796833,1317.062890667,1317.062890667,1317.062890667,1317.062890667,1317.062890667,1317.062890667,1317.062890667,1317.062890667,1317.062890667,1328.9648293330001,-7,7,2,1.0,6.033259249999901,5.0,11.71666758299989,1316.611482667,1316.6140472920001,1317.062890667,1316.8977824170001,,,,,,,,1316.607895958,1316.611435542,None,,,,,,,,,,,208,kitchen,1,2024-03-16_13h17.54.890,image_similarity_rating,2023.2.3,None,2024-03-16 13h18.12.277534 +0100,
,135,136,575,575,stimuli/own/kitchen/135_kit.jpg,stimuli/own/kitchen/136_kit.jpg,,,,,,,,,0,91,91,574,1328.970434542,,,,,,,,,,,1329.2644460420001,1329.430039292,1329.430039292,1329.430039292,1329.430039292,1329.430039292,1329.430039292,1329.430039292,1329.430039292,1329.430039292,1339.6020309169999,-7,7,2,2.0,8.519303458000195,4.0,10.09883058299988,1328.968507875,1328.970434542,1329.430039292,1329.2644299580002,,,,,,,,1328.9650461249998,1328.968461417,None,,,,,,,,,,,208,kitchen,1,2024-03-16_13h17.54.890,image_similarity_rating,2023.2.3,None,2024-03-16 13h18.12.277534 +0100,
,121,125,428,428,stimuli/own/kitchen/121_kit.jpg,stimuli/own/kitchen/125_kit.jpg,,,,,,,,,0,92,92,427,1339.6123982079998,,,,,,,,,,,1339.89714925,1340.064626417,1340.064626417,1340.064626417,1340.064626417,1340.064626417,1340.064626417,1340.064626417,1340.064626417,1340.064626417,1346.80330825,-7,7,2,4.0,3.9659379159998025,4.0,6.64518924999993,1339.6058290830001,1339.6123982079998,1340.064626417,1339.8971324999998,,,,,,,,1339.6022485419999,1339.605783,None,,,,,,,,,,,208,kitchen,1,2024-03-16_13h17.54.890,image_similarity_rating,2023.2.3,None,2024-03-16 13h18.12.277534 +0100,
,132,135,561,561,stimuli/own/kitchen/132_kit.jpg,stimuli/own/kitchen/135_kit.jpg,,,,,,,,,0,93,93,560,1346.8122399999997,,,,,,,,,,,1347.097469333,1347.2627745,1347.2627745,1347.2627745,1347.2627745,1347.2627745,1347.2627745,1347.2627745,1347.2627745,1347.2627745,1357.939868083,-7,7,2,3.0,7.586338957999942,3.0,10.590340167000022,1346.8069877500002,1346.8122399999997,1347.2627745,1347.097452167,,,,,,,,1346.803529333,1346.806941667,None,,,,,,,,,,,208,kitchen,1,2024-03-16_13h17.54.890,image_similarity_rating,2023.2.3,None,2024-03-16 13h18.12.277534 +0100,
,125,140,503,503,stimuli/own/kitchen/125_kit.jpg,stimuli/own/kitchen/140_kit.jpg,,,,,,,,,0,94,94,502,1357.9457804170002,,,,,,,,,,,1358.2302962499998,1358.396849667,1358.396849667,1358.396849667,1358.396849667,1358.396849667,1358.396849667,1358.396849667,1358.396849667,1358.396849667,1371.374324,-7,7,2,4.0,12.873344291999956,2.0,11.839275916999895,1357.943648292,1357.9457804170002,1358.396849667,1358.230280625,,,,,,,,1357.940084542,1357.9436017919998,None,,,,,,,,,,,208,kitchen,1,2024-03-16_13h17.54.890,image_similarity_rating,2023.2.3,None,2024-03-16 13h18.12.277534 +0100,
,119,134,398,398,stimuli/own/kitchen/119_kit.jpg,stimuli/own/kitchen/134_kit.jpg,,,,,,,,,0,95,95,397,1371.3801578329999,,,,,,,,,,,1371.6637367919998,1371.82610625,1371.82610625,1371.82610625,1371.82610625,1371.82610625,1371.82610625,1371.82610625,1371.82610625,1371.82610625,1380.4072203750002,7,-7,2,2.0,2.8187411670003257,1.0,8.396236875000113,1371.378176917,1371.3801578329999,1371.82610625,1371.663726792,,,,,,,,1371.374543417,1371.3781226669998,None,,,,,,,,,,,208,kitchen,1,2024-03-16_13h17.54.890,image_similarity_rating,2023.2.3,None,2024-03-16 13h18.12.277534 +0100,
,130,136,545,545,stimuli/own/kitchen/130_kit.jpg,stimuli/own/kitchen/136_kit.jpg,,,,,,,,,0,96,96,544,1380.429322417,,,,,,,,,,,1380.713094708,1380.878377042,1380.878377042,1380.878377042,1380.878377042,1380.878377042,1380.878377042,1380.878377042,1380.878377042,1380.878377042,1393.6685106670002,-7,7,2,3.0,9.656692041000042,3.0,12.667869791999692,1380.410891125,1380.429322417,,1380.7130807500002,,,,,,,,1380.4074370000003,1380.4108446670002,None,,,,,,,,,,,208,kitchen,1,2024-03-16_13h17.54.890,image_similarity_rating,2023.2.3,None,2024-03-16 13h18.12.277534 +0100,
,106,119,169,169,stimuli/own/kitchen/106_kit.jpg,stimuli/own/kitchen/119_kit.jpg,,,,,,,,,0,97,97,168,1393.6788878329999,,,,,,,,,,,1393.9640142920002,1394.1312364170003,1394.1312364170003,1394.1312364170003,1394.1312364170003,1394.1312364170003,1394.1312364170003,1394.1312364170003,1394.1312364170003,1394.1312364170003,1401.573103708,-7,7,2,2.0,5.418464707999647,5.0,7.157730916999753,1393.672169333,1393.6788878329999,1394.1312364170003,1393.9639997080003,,,,,,,,1393.6687265,1393.6721228750002,None,,,,,,,,,,,208,kitchen,1,2024-03-16_13h17.54.890,image_similarity_rating,2023.2.3,None,2024-03-16 13h18.12.277534 +0100,
,104,136,125,125,stimuli/own/kitchen/104_kit.jpg,stimuli/own/kitchen/136_kit.jpg,,,,,,,,,0,98,98,124,1401.578705458,,,,,,,,,,,1401.8635062920002,1402.033830417,1402.033830417,1402.033830417,1402.033830417,1402.033830417,1402.033830417,1402.033830417,1402.033830417,1402.033830417,1409.8354157500003,7,-7,2,2.0,6.270093334000194,5.0,7.427656500000012,1401.5768659170003,1401.578705458,1402.033830417,1401.8634846670002,,,,,,,,1401.5733221670002,1401.576819375,None,,,,,,,,,,,208,kitchen,1,2024-03-16_13h17.54.890,image_similarity_rating,2023.2.3,None,2024-03-16 13h18.12.277534 +0100,
,105,117,138,597,stimuli/own/kitchen/105_kit.jpg,stimuli/own/kitchen/117_kit.jpg,,,,,,,,,0,99,99,596,1409.8455988750002,,,,,,,,,,,1410.1300121670001,1410.295963,1410.295963,1410.295963,1410.295963,1410.295963,1410.295963,1410.295963,1410.295963,1410.295963,1416.965356833,-7,7,2,4.0,5.683645291000175,5.0,6.4684788750000735,1409.8392240420003,1409.8455988750002,1410.295963,1410.129998292,,,,,,,,1409.835629625,1409.8391779580002,None,,,,,,,,,,,208,kitchen,1,2024-03-16_13h17.54.890,image_similarity_rating,2023.2.3,None,2024-03-16 13h18.12.277534 +0100,
,102,109,39,39,stimuli/own/kitchen/102_kit.jpg,stimuli/own/kitchen/109_kit.jpg,,,,,,,,,0,100,100,38,1416.971310333,,,,,,,,,,,1417.2635015,1417.429463333,1417.429463333,1417.429463333,1417.429463333,1417.429463333,1417.429463333,1417.429463333,1417.429463333,1417.429463333,1424.1978737919999,7,-7,2,1.0,5.305021833999945,5.0,6.283043834000182,1416.969034458,1416.971310333,1417.429463333,1417.2634842920002,,,,,,,,1416.9655736670002,1416.9689885830003,None,,,,,,,,,,,208,kitchen,1,2024-03-16_13h17.54.890,image_similarity_rating,2023.2.3,None,2024-03-16 13h18.12.277534 +0100,
,123,125,461,461,stimuli/own/kitchen/123_kit.jpg,stimuli/own/kitchen/125_kit.jpg,,,,,,,,,0,101,101,460,1424.2036482080002,,,,,,,,,,,1424.4966532920002,1424.666602417,1424.666602417,1424.666602417,1424.666602417,1424.666602417,1424.666602417,1424.666602417,1424.666602417,1424.666602417,1429.9246909580002,7,-7,2,3.0,4.192656040999736,1.0,5.083540416999767,1424.201573833,1424.2036482080002,1424.666602417,1424.496636208,,,,,,,,1424.1980977080002,1424.201527667,None,,,,,,,,,,,208,kitchen,1,2024-03-16_13h17.54.890,image_similarity_rating,2023.2.3,None,2024-03-16 13h18.12.277534 +0100,
,130,138,547,547,stimuli/own/kitchen/130_kit.jpg,stimuli/own/kitchen/138_kit.jpg,,,,,,,,,0,102,102,546,1429.930278875,,,,,,,,,,,1430.2140717920001,1430.379843625,1430.379843625,1430.379843625,1430.379843625,1430.379843625,1430.379843625,1430.379843625,1430.379843625,1430.379843625,1438.135309958,-7,7,2,3.0,6.878067250000186,4.0,7.646173916999942,1429.9284217919999,1429.930278875,1430.379843625,1430.2140573750003,,,,,,,,1429.9249313750001,1429.928375417,None,,,,,,,,,,,208,kitchen,1,2024-03-16_13h17.54.890,image_similarity_rating,2023.2.3,None,2024-03-16 13h18.12.277534 +0100,
,117,141,364,364,stimuli/own/kitchen/117_kit.jpg,stimuli/own/kitchen/141_kit.jpg,,,,,,,,,0,103,103,363,1438.1454369580001,,,,,,,,,,,1438.4300457080003,1438.59512175,1438.59512175,1438.59512175,1438.59512175,1438.59512175,1438.59512175,1438.59512175,1438.59512175,1438.59512175,1445.1698339170002,-7,7,2,1.0,3.5341725409998617,2.0,6.461945416999697,1438.1390740420002,1438.1454369580001,1438.59512175,1438.4300308330003,,,,,,,,1438.135525708,1438.1390242500001,None,,,,,,,,,,,208,kitchen,1,2024-03-16_13h17.54.890,image_similarity_rating,2023.2.3,None,2024-03-16 13h18.12.277534 +0100,
,127,134,522,522,stimuli/own/kitchen/127_kit.jpg,stimuli/own/kitchen/134_kit.jpg,,,,,,,,,0,104,104,521,1445.178613917,,,,,,,,,,,1445.46395725,1445.630105875,1445.630105875,1445.630105875,1445.630105875,1445.630105875,1445.630105875,1445.630105875,1445.630105875,1445.630105875,1455.7320359170003,7,-7,2,4.0,4.468726209000124,5.0,9.428096583999832,1445.1734927920002,1445.178613917,1445.630105875,1445.463942375,,,,,,,,1445.170053458,1445.1734462499999,None,,,,,,,,,,,208,kitchen,1,2024-03-16_13h17.54.890,image_similarity_rating,2023.2.3,None,2024-03-16 13h18.12.277534 +0100,
,124,135,484,484,stimuli/own/kitchen/124_kit.jpg,stimuli/own/kitchen/135_kit.jpg,,,,,,,,,0,105,105,483,1455.737462875,,,,,,,,,,,1456.02990125,1456.2007398330002,1456.2007398330002,1456.2007398330002,1456.2007398330002,1456.2007398330002,1456.2007398330002,1456.2007398330002,1456.2007398330002,1456.2007398330002,1464.7894260420003,-7,7,2,2.0,7.173140291999971,6.0,8.351153582999814,1455.735710375,1455.737462875,1456.2007398330002,1456.029883833,,,,,,,,1455.7322547080003,1455.735664333,None,,,,,,,,,,,208,kitchen,1,2024-03-16_13h17.54.890,image_similarity_rating,2023.2.3,None,2024-03-16 13h18.12.277534 +0100,
,122,130,449,449,stimuli/own/kitchen/122_kit.jpg,stimuli/own/kitchen/130_kit.jpg,,,,,,,,,0,106,106,448,1464.7949845000003,,,,,,,,,,,1465.079839125,1465.245352458,1465.245352458,1465.245352458,1465.245352458,1465.245352458,1465.245352458,1465.245352458,1465.245352458,1465.245352458,1480.249336583,7,-7,2,6.0,13.881442459000027,4.0,14.799753291999878,1464.7930985420003,1464.7949845000003,1465.245352458,1465.07982675,,,,,,,,1464.7896446250002,1464.7930527920003,None,,,,,,,,,,,208,kitchen,1,2024-03-16_13h17.54.890,image_similarity_rating,2023.2.3,None,2024-03-16 13h18.12.277534 +0100,
,121,136,437,437,stimuli/own/kitchen/121_kit.jpg,stimuli/own/kitchen/136_kit.jpg,,,,,,,,,0,107,107,436,1480.261810125,,,,,,,,,,,1480.5468390830001,1480.7107879999999,1480.7107879999999,1480.7107879999999,1480.7107879999999,1480.7107879999999,1480.7107879999999,1480.7107879999999,1480.7107879999999,1480.7107879999999,1493.86047525,-7,7,2,1.0,8.8563574169998,5.0,13.01406658299993,1480.253199542,1480.261810125,1480.7107879999999,1480.546829083,,,,,,,,1480.2495625420001,1480.253150292,None,,,,,,,,,,,208,kitchen,1,2024-03-16_13h17.54.890,image_similarity_rating,2023.2.3,None,2024-03-16 13h18.12.277534 +0100,
,134,141,574,574,stimuli/own/kitchen/134_kit.jpg,stimuli/own/kitchen/141_kit.jpg,,,,,,,,,0,108,108,573,1493.8664141250001,,,,,,,,,,,1494.15055025,1494.3160510830003,1494.3160510830003,1494.3160510830003,1494.3160510830003,1494.3160510830003,1494.3160510830003,1494.3160510830003,1494.3160510830003,1494.3160510830003,1501.1234222500002,-7,7,2,3.0,5.591315374999795,3.0,6.6847851670004275,1493.864488542,1493.8664141250001,1494.3160510830003,1494.1505387500001,,,,,,,,1493.8606960000002,1493.8644386670003,None,,,,,,,,,,,208,kitchen,1,2024-03-16_13h17.54.890,image_similarity_rating,2023.2.3,None,2024-03-16 13h18.12.277534 +0100,
,105,141,160,160,stimuli/own/kitchen/105_kit.jpg,stimuli/own/kitchen/141_kit.jpg,,,,,,,,,0,109,109,159,1501.1453072499999,,,,,,,,,,,1501.4293735,1501.5953153330001,1501.5953153330001,1501.5953153330001,1501.5953153330001,1501.5953153330001,1501.5953153330001,1501.5953153330001,1501.5953153330001,1501.5953153330001,1508.7347193750002,7,-7,2,1.0,4.678783124999882,5.0,6.945698958999856,1501.1270825000001,1501.1453072499999,,1501.4293561670002,,,,,,,,1501.1236399580002,1501.127036083,None,,,,,,,,,,,208,kitchen,1,2024-03-16_13h17.54.890,image_similarity_rating,2023.2.3,None,2024-03-16 13h18.12.277534 +0100,
,109,111,190,190,stimuli/own/kitchen/109_kit.jpg,stimuli/own/kitchen/111_kit.jpg,,,,,,,,,0,110,110,189,1508.7451043750002,,,,,,,,,,,1509.029897208,1509.193551292,1509.193551292,1509.193551292,1509.193551292,1509.193551292,1509.193551292,1509.193551292,1509.193551292,1509.193551292,1515.077094375,7,-7,2,1.0,3.596161999999822,1.0,5.208284166999874,1508.7384191670003,1508.7451043750002,1509.193551292,1509.0298794170003,,,,,,,,1508.73494325,1508.738373708,None,,,,,,,,,,,208,kitchen,1,2024-03-16_13h17.54.890,image_similarity_rating,2023.2.3,None,2024-03-16 13h18.12.277534 +0100,
,109,113,192,192,stimuli/own/kitchen/109_kit.jpg,stimuli/own/kitchen/113_kit.jpg,,,,,,,,,0,111,111,191,1515.0827920420002,,,,,,,,,,,1515.3672242080002,1515.5382762919999,1515.5382762919999,1515.5382762919999,1515.5382762919999,1515.5382762919999,1515.5382762919999,1515.5382762919999,1515.5382762919999,1515.5382762919999,1525.7649409169999,7,-7,2,1.0,9.153886000000057,1.0,10.089387875000284,1515.0808632500002,1515.0827920420002,1515.5382762919999,1515.3672054170002,,,,,,,,1515.0773117500003,1515.0808163330003,None,,,,,,,,,,,208,kitchen,1,2024-03-16_13h17.54.890,image_similarity_rating,2023.2.3,None,2024-03-16 13h18.12.277534 +0100,
,119,127,393,393,stimuli/own/kitchen/119_kit.jpg,stimuli/own/kitchen/127_kit.jpg,,,,,,,,,0,112,112,392,1525.7703820000002,,,,,,,,,,,1526.0630925,1526.2280407500002,1526.2280407500002,1526.2280407500002,1526.2280407500002,1526.2280407500002,1526.2280407500002,1526.2280407500002,1526.2280407500002,1526.2280407500002,1534.4308126250003,-7,7,2,2.0,6.522397207999802,2.0,8.104708290999952,1525.768602958,1525.7703820000002,1526.2280407500002,1526.0630771670003,,,,,,,,1525.76516025,1525.768555958,None,,,,,,,,,,,208,kitchen,1,2024-03-16_13h17.54.890,image_similarity_rating,2023.2.3,None,2024-03-16 13h18.12.277534 +0100,
,113,120,276,276,stimuli/own/kitchen/113_kit.jpg,stimuli/own/kitchen/120_kit.jpg,,,,,,,,,0,113,113,275,1534.436413583,,,,,,,,,,,1534.7296336250001,1534.8946490419999,1534.8946490419999,1534.8946490419999,1534.8946490419999,1534.8946490419999,1534.8946490419999,1534.8946490419999,1534.8946490419999,1534.8946490419999,1548.2727925,7,-7,2,4.0,8.369985124999857,3.0,13.190388208000059,1534.4344700000001,1534.436413583,1534.8946490419999,1534.7296205000002,,,,,,,,1534.431027917,1534.434423792,None,,,,,,,,,,,208,kitchen,1,2024-03-16_13h17.54.890,image_similarity_rating,2023.2.3,None,2024-03-16 13h18.12.277534 +0100,
,104,111,103,103,stimuli/own/kitchen/104_kit.jpg,stimuli/own/kitchen/111_kit.jpg,,,,,,,,,0,114,114,102,1548.2785747500002,,,,,,,,,,,1548.5629106249999,1548.7307464579999,1548.7307464579999,1548.7307464579999,1548.7307464579999,1548.7307464579999,1548.7307464579999,1548.7307464579999,1548.7307464579999,1548.7307464579999,1555.2686077920002,7,-7,2,2.0,4.715653332999864,5.0,6.402325416999702,1548.2764498750003,1548.2785747500002,1548.7307464579999,1548.562889583,,,,,,,,1548.2730081250002,1548.2764043330003,None,,,,,,,,,,,208,kitchen,1,2024-03-16_13h17.54.890,image_similarity_rating,2023.2.3,None,2024-03-16 13h18.12.277534 +0100,
,103,123,83,83,stimuli/own/kitchen/103_kit.jpg,stimuli/own/kitchen/123_kit.jpg,,,,,,,,,0,115,115,82,1555.278386375,,,,,,,,,,,1555.562862708,1555.7288643330003,1555.7288643330003,1555.7288643330003,1555.7288643330003,1555.7288643330003,1555.7288643330003,1555.7288643330003,1555.7288643330003,1555.7288643330003,1563.364029792,-7,7,2,1.0,5.764254250000249,1.0,7.549274540999704,1555.2722715,1555.278386375,1555.7288643330003,1555.5628442500001,,,,,,,,1555.2688253750002,1555.2722252080002,None,,,,,,,,,,,208,kitchen,1,2024-03-16_13h17.54.890,image_similarity_rating,2023.2.3,None,2024-03-16 13h18.12.277534 +0100,
,116,119,322,322,stimuli/own/kitchen/116_kit.jpg,stimuli/own/kitchen/119_kit.jpg,,,,,,,,,0,116,116,321,1563.369603792,,,,,,,,,,,1563.663895958,1563.8281283750002,1563.8281283750002,1563.8281283750002,1563.8281283750002,1563.8281283750002,1563.8281283750002,1563.8281283750002,1563.8281283750002,1563.8281283750002,1576.351455083,-7,7,2,1.0,10.38772787500011,2.0,12.438268917000187,1563.3676810000002,1563.369603792,1563.8281283750002,1563.663882542,,,,,,,,1563.3642449580002,1563.367635,None,,,,,,,,,,,208,kitchen,1,2024-03-16_13h17.54.890,image_similarity_rating,2023.2.3,None,2024-03-16 13h18.12.277534 +0100,
,113,141,295,295,stimuli/own/kitchen/113_kit.jpg,stimuli/own/kitchen/141_kit.jpg,,,,,,,,,0,117,117,294,1576.361460792,,,,,,,,,,,1576.6461275830002,1576.811678167,1576.811678167,1576.811678167,1576.811678167,1576.811678167,1576.811678167,1576.811678167,1576.811678167,1576.811678167,1582.6561259580003,-7,7,2,1.0,2.2338601250003194,2.0,5.73185175000026,1576.355193167,1576.361460792,1576.811678167,1576.6461119169999,,,,,,,,1576.3516719580002,1576.355147417,None,,,,,,,,,,,208,kitchen,1,2024-03-16_13h17.54.890,image_similarity_rating,2023.2.3,None,2024-03-16 13h18.12.277534 +0100,
,101,137,30,30,stimuli/own/kitchen/101_kit.jpg,stimuli/own/kitchen/137_kit.jpg,,,,,,,,,0,118,118,29,1582.6783987080003,,,,,,,,,,,1582.96249275,1583.1288895830003,1583.1288895830003,1583.1288895830003,1583.1288895830003,1583.1288895830003,1583.1288895830003,1583.1288895830003,1583.1288895830003,1583.1288895830003,1588.11384675,-7,7,2,2.0,3.6369162080000024,1.0,4.864270042000044,1582.659815167,1582.6783987080003,,1582.962475583,,,,,,,,1582.6563409170003,1582.659767042,None,,,,,,,,,,,208,kitchen,1,2024-03-16_13h17.54.890,image_similarity_rating,2023.2.3,None,2024-03-16 13h18.12.277534 +0100,
,120,141,424,424,stimuli/own/kitchen/120_kit.jpg,stimuli/own/kitchen/141_kit.jpg,,,,,,,,,0,119,119,423,1588.1192458750002,,,,,,,,,,,1588.412822833,1588.5767366670002,1588.5767366670002,1588.5767366670002,1588.5767366670002,1588.5767366670002,1588.5767366670002,1588.5767366670002,1588.5767366670002,1588.5767366670002,1593.2102531670002,7,-7,2,1.0,2.4727978340001755,3.0,4.534912374999749,1588.117497667,1588.1192458750002,1588.5767366670002,1588.4128101250003,,,,,,,,1588.114061875,1588.1174513750002,None,,,,,,,,,,,208,kitchen,1,2024-03-16_13h17.54.890,image_similarity_rating,2023.2.3,None,2024-03-16 13h18.12.277534 +0100,
,124,137,486,486,stimuli/own/kitchen/124_kit.jpg,stimuli/own/kitchen/137_kit.jpg,,,,,,,,,0,120,120,485,1593.2158736249999,,,,,,,,,,,1593.499808958,1593.6633202500002,1593.6633202500002,1593.6633202500002,1593.6633202500002,1593.6633202500002,1593.6633202500002,1593.6633202500002,1593.6633202500002,1593.6633202500002,1600.9312447080001,7,-7,2,1.0,5.2526245829999425,6.0,7.119729417000144,1593.213947917,1593.2158736249999,1593.6633202500002,1593.4997990000002,,,,,,,,1593.210491208,1593.2139011670001,None,,,,,,,,,,,208,kitchen,1,2024-03-16_13h17.54.890,image_similarity_rating,2023.2.3,None,2024-03-16 13h18.12.277534 +0100,
,131,135,553,553,stimuli/own/kitchen/131_kit.jpg,stimuli/own/kitchen/135_kit.jpg,,,,,,,,,0,121,121,552,1600.9370385000002,,,,,,,,,,,1601.230236083,1601.3959654999999,1601.3959654999999,1601.3959654999999,1601.3959654999999,1601.3959654999999,1601.3959654999999,1601.3959654999999,1601.3959654999999,1601.3959654999999,1606.04711975,-7,7,2,1.0,3.730599500000153,1.0,4.551015541999732,1600.9349388330002,1600.9370385000002,1601.3959654999999,1601.2302183750003,,,,,,,,1600.9314627920003,1600.934892667,None,,,,,,,,,,,208,kitchen,1,2024-03-16_13h17.54.890,image_similarity_rating,2023.2.3,None,2024-03-16 13h18.12.277534 +0100,
,104,109,102,102,stimuli/own/kitchen/104_kit.jpg,stimuli/own/kitchen/109_kit.jpg,,,,,,,,,0,122,122,101,1606.0529672080002,,,,,,,,,,,1606.34672125,1606.511331917,1606.511331917,1606.511331917,1606.511331917,1606.511331917,1606.511331917,1606.511331917,1606.511331917,1606.511331917,1613.5012644580002,7,-7,2,1.0,5.907759917000021,4.0,6.942897708000146,1606.0508703330001,1606.0529672080002,1606.511331917,1606.346707875,,,,,,,,1606.047338208,1606.050824208,None,,,,,,,,,,,208,kitchen,1,2024-03-16_13h17.54.890,image_similarity_rating,2023.2.3,None,2024-03-16 13h18.12.277534 +0100,
,106,111,162,162,stimuli/own/kitchen/106_kit.jpg,stimuli/own/kitchen/111_kit.jpg,,,,,,,,,0,123,123,161,1613.5110995,,,,,,,,,,,1613.7959043330002,1613.965172667,1613.965172667,1613.965172667,1613.965172667,1613.965172667,1613.965172667,1613.965172667,1613.965172667,1613.965172667,1621.646989708,-7,7,2,1.0,2.890052334000302,4.0,7.620573958000023,1613.505004833,1613.5110995,1613.965172667,1613.7958894170001,,,,,,,,1613.5014797080003,1613.5049584580001,None,,,,,,,,,,,208,kitchen,1,2024-03-16_13h17.54.890,image_similarity_rating,2023.2.3,None,2024-03-16 13h18.12.277534 +0100,
,121,127,430,430,stimuli/own/kitchen/121_kit.jpg,stimuli/own/kitchen/127_kit.jpg,,,,,,,,,0,124,124,429,1621.6527511670001,,,,,,,,,,,1621.946584917,1622.112097583,1622.112097583,1622.112097583,1622.112097583,1622.112097583,1622.112097583,1622.112097583,1622.112097583,1622.112097583,1627.205885542,-7,7,2,1.0,3.785929458999817,2.0,5.006516207999994,1621.650651083,1621.6527511670001,1622.112097583,1621.946567333,,,,,,,,1621.6472037920003,1621.6506049170002,None,,,,,,,,,,,208,kitchen,1,2024-03-16_13h17.54.890,image_similarity_rating,2023.2.3,None,2024-03-16 13h18.12.277534 +0100,
,118,122,368,368,stimuli/own/kitchen/118_kit.jpg,stimuli/own/kitchen/122_kit.jpg,,,,,,,,,0,125,125,367,1627.228030667,,,,,,,,,,,1627.5120635420003,1627.678176375,1627.678176375,1627.678176375,1627.678176375,1627.678176375,1627.678176375,1627.678176375,1627.678176375,1627.678176375,1637.664257125,-7,7,2,4.0,9.715204625000297,2.0,4.58371812500036,1627.2097199580003,1627.228030667,,1627.5120474999999,,,,,,,,1627.206101625,1627.2096742500003,None,,,,,,,,,,,208,kitchen,1,2024-03-16_13h17.54.890,image_similarity_rating,2023.2.3,None,2024-03-16 13h18.12.277534 +0100,
,117,121,346,346,stimuli/own/kitchen/117_kit.jpg,stimuli/own/kitchen/121_kit.jpg,,,,,,,,,0,126,126,345,1637.670213542,,,,,,,,,,,1640.012568833,1640.1812263750003,1640.1812263750003,1640.1812263750003,1640.1812263750003,1640.1812263750003,1640.1812263750003,1640.1812263750003,1640.1812263750003,1640.1812263750003,1662.590023875,-7,7,3,3.0,21.126593666999725,4.0,22.138814874999753,1639.715482833,1639.7192610830002,1640.1812263750003,1640.0125497500003,,,,,,,,1637.664478958,1639.7149037919999,space,1637.670213542,2.044465833999766,None,,,,,,,,208,kitchen,1,2024-03-16_13h17.54.890,image_similarity_rating,2023.2.3,None,2024-03-16 13h18.12.277534 +0100,
,102,139,65,605,stimuli/own/kitchen/102_kit.jpg,stimuli/own/kitchen/139_kit.jpg,,,,,,,,,0,127,127,604,1662.596191875,,,,,,,,,,,1662.8794749580002,1663.044330875,1663.044330875,1663.044330875,1663.044330875,1663.044330875,1663.044330875,1663.044330875,1663.044330875,1663.044330875,1671.8722640830001,7,-7,3,2.0,5.497832707999805,2.0,8.755679458000031,1662.5942575,1662.596191875,1663.044330875,1662.8794619999999,,,,,,,,1662.5902406670002,1662.594210583,None,,,,,,,,,,,208,kitchen,1,2024-03-16_13h17.54.890,image_similarity_rating,2023.2.3,None,2024-03-16 13h18.12.277534 +0100,
,129,132,532,532,stimuli/own/kitchen/129_kit.jpg,stimuli/own/kitchen/132_kit.jpg,,,,,,,,,0,128,128,531,1671.8777142500003,,,,,,,,,,,1672.163177208,1672.3296634580001,1672.3296634580001,1672.3296634580001,1672.3296634580001,1672.3296634580001,1672.3296634580001,1672.3296634580001,1672.3296634580001,1672.3296634580001,1677.339517667,-7,7,3,1.0,3.5500782079998316,2.0,4.822831833000237,1671.875922583,1671.8777142500003,1672.3296634580001,1672.1631644580002,,,,,,,,1671.8724780420002,1671.875875917,None,,,,,,,,,,,208,kitchen,1,2024-03-16_13h17.54.890,image_similarity_rating,2023.2.3,None,2024-03-16 13h18.12.277534 +0100,
,117,118,343,343,stimuli/own/kitchen/117_kit.jpg,stimuli/own/kitchen/118_kit.jpg,,,,,,,,,0,129,129,342,1677.346177167,,,,,,,,,,,1677.6296984169999,1677.7959995420001,1677.7959995420001,1677.7959995420001,1677.7959995420001,1677.7959995420001,1677.7959995420001,1677.7959995420001,1677.7959995420001,1677.7959995420001,1686.822398375,7,-7,3,3.0,7.610880083000211,2.0,8.930635375000293,1677.343194042,1677.346177167,1677.7959995420001,1677.6296849579999,,,,,,,,1677.3397369170002,1677.343148,None,,,,,,,,,,,208,kitchen,1,2024-03-16_13h17.54.890,image_similarity_rating,2023.2.3,None,2024-03-16 13h18.12.277534 +0100,
,124,129,479,479,stimuli/own/kitchen/124_kit.jpg,stimuli/own/kitchen/129_kit.jpg,,,,,,,,,0,130,130,478,1686.844428458,,,,,,,,,,,1687.128703417,1687.2957315419999,1687.2957315419999,1687.2957315419999,1687.2957315419999,1687.2957315419999,1687.2957315419999,1687.2957315419999,1687.2957315419999,1687.2957315419999,1693.9012077920002,7,-7,3,1.0,5.364841459000218,6.0,6.421051666999574,1686.826049917,1686.844428458,,1687.1286814170003,,,,,,,,1686.822615042,1686.8260035829999,None,,,,,,,,,,,208,kitchen,1,2024-03-16_13h17.54.890,image_similarity_rating,2023.2.3,None,2024-03-16 13h18.12.277534 +0100,
,112,121,252,252,stimuli/own/kitchen/112_kit.jpg,stimuli/own/kitchen/121_kit.jpg,,,,,,,,,0,131,131,251,1693.9113725830002,,,,,,,,,,,1694.1965783330002,1694.361674667,1694.361674667,1694.361674667,1694.361674667,1694.361674667,1694.361674667,1694.361674667,1694.361674667,1694.361674667,1701.0435821670003,-7,7,3,1.0,5.399588750000021,5.0,6.6141616670001895,1693.9050055420003,1693.9113725830002,1694.361674667,1694.196560458,,,,,,,,1693.9014267080001,1693.9049595830002,None,,,,,,,,,,,208,kitchen,1,2024-03-16_13h17.54.890,image_similarity_rating,2023.2.3,None,2024-03-16 13h18.12.277534 +0100,
,118,138,382,382,stimuli/own/kitchen/118_kit.jpg,stimuli/own/kitchen/138_kit.jpg,,,,,,,,,0,132,132,381,1701.049376333,,,,,,,,,,,1701.334449417,1701.5020157920003,1701.5020157920003,1701.5020157920003,1701.5020157920003,1701.5020157920003,1701.5020157920003,1701.5020157920003,1701.5020157920003,1701.5020157920003,1711.38194875,7,-7,3,2.0,8.869272833000196,2.0,9.817565583000032,1701.0472869999999,1701.049376333,1701.5020157920003,1701.33443675,,,,,,,,1701.0437953330002,1701.0472407080001,None,,,,,,,,,,,208,kitchen,1,2024-03-16_13h17.54.890,image_similarity_rating,2023.2.3,None,2024-03-16 13h18.12.277534 +0100,
,116,130,332,332,stimuli/own/kitchen/116_kit.jpg,stimuli/own/kitchen/130_kit.jpg,,,,,,,,,0,133,133,331,1711.3943223750002,,,,,,,,,,,1711.6797539170002,1711.8454848330002,1711.8454848330002,1711.8454848330002,1711.8454848330002,1711.8454848330002,1711.8454848330002,1711.8454848330002,1711.8454848330002,1711.8454848330002,1716.480279083,7,-7,3,3.0,3.6359904589999132,2.0,4.511646417000065,1711.385606583,1711.3943223750002,1711.8454848330002,1711.679737167,,,,,,,,1711.382162042,1711.385560833,None,,,,,,,,,,,208,kitchen,1,2024-03-16_13h17.54.890,image_similarity_rating,2023.2.3,None,2024-03-16 13h18.12.277534 +0100,
,130,134,543,543,stimuli/own/kitchen/130_kit.jpg,stimuli/own/kitchen/134_kit.jpg,,,,,,,,,0,134,134,542,1716.4861265,,,,,,,,,,,1716.779725542,1716.944336,1716.944336,1716.944336,1716.944336,1716.944336,1716.944336,1716.944336,1716.944336,1716.944336,1723.4097217500002,7,-7,3,3.0,5.046922415999688,6.0,6.3048405829999865,1716.484032167,1716.4861265,1716.944336,1716.7797123750001,,,,,,,,1716.4804964580003,1716.483986667,None,,,,,,,,,,,208,kitchen,1,2024-03-16_13h17.54.890,image_similarity_rating,2023.2.3,None,2024-03-16 13h18.12.277534 +0100,
,129,138,537,537,stimuli/own/kitchen/129_kit.jpg,stimuli/own/kitchen/138_kit.jpg,,,,,,,,,0,135,135,536,1723.4151630830002,,,,,,,,,,,1723.7123603750001,1723.878209292,1723.878209292,1723.878209292,1723.878209292,1723.878209292,1723.878209292,1723.878209292,1723.878209292,1723.878209292,1730.7931080419999,7,-7,3,4.0,5.989259291000053,5.0,6.814798375000009,1723.4134066249999,1723.4151630830002,1723.878209292,1723.7123457080002,,,,,,,,1723.4099435829999,1723.4133604580002,None,,,,,,,,,,,208,kitchen,1,2024-03-16_13h17.54.890,image_similarity_rating,2023.2.3,None,2024-03-16 13h18.12.277534 +0100,
,127,141,529,529,stimuli/own/kitchen/127_kit.jpg,stimuli/own/kitchen/141_kit.jpg,,,,,,,,,0,136,136,528,1730.7989240420002,,,,,,,,,,,1731.0832287080002,1731.2472108750003,1731.2472108750003,1731.2472108750003,1731.2472108750003,1731.2472108750003,1731.2472108750003,1731.2472108750003,1731.2472108750003,1731.2472108750003,1737.880056292,7,-7,3,2.0,5.601683832999697,5.0,6.558915125000112,1730.796811667,1730.7989240420002,1731.2472108750003,1731.083215917,,,,,,,,1730.793357292,1730.7967657500003,None,,,,,,,,,,,208,kitchen,1,2024-03-16_13h17.54.890,image_similarity_rating,2023.2.3,None,2024-03-16 13h18.12.277534 +0100,
,102,111,40,40,stimuli/own/kitchen/102_kit.jpg,stimuli/own/kitchen/111_kit.jpg,,,,,,,,,0,137,137,39,1737.885704667,,,,,,,,,,,1738.17889625,1738.3450790830002,1738.3450790830002,1738.3450790830002,1738.3450790830002,1738.3450790830002,1738.3450790830002,1738.3450790830002,1738.3450790830002,1738.3450790830002,1747.984094125,-7,7,3,2.0,7.58001666600012,3.0,9.514555417000338,1737.883776667,1737.885704667,1738.3450790830002,1738.17888125,,,,,,,,1737.8802690830003,1737.8837304580002,None,,,,,,,,,,,208,kitchen,1,2024-03-16_13h17.54.890,image_similarity_rating,2023.2.3,None,2024-03-16 13h18.12.277534 +0100,
,101,102,1,1,stimuli/own/kitchen/101_kit.jpg,stimuli/own/kitchen/102_kit.jpg,,,,,,,,,0,138,138,0,1747.994614917,,,,,,,,,,,1748.2790192920002,1748.4445034999999,1748.4445034999999,1748.4445034999999,1748.4445034999999,1748.4445034999999,1748.4445034999999,1748.4445034999999,1748.4445034999999,1748.4445034999999,1758.5009935830003,7,-7,3,3.0,8.408094166999945,2.0,9.947712624999895,1747.987817583,1747.994614917,1748.4445034999999,1748.2790019580002,,,,,,,,1747.9843097920002,1747.987771833,None,,,,,,,,,,,208,kitchen,1,2024-03-16_13h17.54.890,image_similarity_rating,2023.2.3,None,2024-03-16 13h18.12.277534 +0100,
,103,131,90,90,stimuli/own/kitchen/103_kit.jpg,stimuli/own/kitchen/131_kit.jpg,,,,,,,,,0,139,139,89,1758.510857667,,,,,,,,,,,1758.796126792,1758.958606875,1758.958606875,1758.958606875,1758.958606875,1758.958606875,1758.958606875,1758.958606875,1758.958606875,1758.958606875,1762.6382588330002,-7,7,3,1.0,2.9427642079999714,1.0,3.5455262079999557,1758.5046125,1758.510857667,1758.958606875,1758.7961165830002,,,,,,,,1758.5012163750002,1758.5045665420002,None,,,,,,,,,,,208,kitchen,1,2024-03-16_13h17.54.890,image_similarity_rating,2023.2.3,None,2024-03-16 13h18.12.277534 +0100,
,134,138,571,571,stimuli/own/kitchen/134_kit.jpg,stimuli/own/kitchen/138_kit.jpg,,,,,,,,,0,140,140,570,1762.6439500830002,,,,,,,,,,,1762.9296199999999,1763.0959268330002,1763.0959268330002,1763.0959268330002,1763.0959268330002,1763.0959268330002,1763.0959268330002,1763.0959268330002,1763.0959268330002,1763.0959268330002,1771.031308083,-7,7,3,4.0,5.708043749999888,2.0,7.867875709000145,1762.6418764580003,1762.6439500830002,1763.0959268330002,1762.9296062080002,,,,,,,,1762.638473,1762.6418276250001,None,,,,,,,,,,,208,kitchen,1,2024-03-16_13h17.54.890,image_similarity_rating,2023.2.3,None,2024-03-16 13h18.12.277534 +0100,
,121,126,429,429,stimuli/own/kitchen/121_kit.jpg,stimuli/own/kitchen/126_kit.jpg,,,,,,,,,0,141,141,428,1771.0441216670001,,,,,,,,,,,1771.3289596670002,1771.4934715,1771.4934715,1771.4934715,1771.4934715,1771.4934715,1771.4934715,1771.4934715,1771.4934715,1771.4934715,1778.101342083,7,-7,3,2.0,3.8977332500003286,2.0,6.519984541999747,1771.035133292,1771.0441216670001,1771.4934715,1771.328946792,,,,,,,,1771.031534875,1771.0350829580002,None,,,,,,,,,,,208,kitchen,1,2024-03-16_13h17.54.890,image_similarity_rating,2023.2.3,None,2024-03-16 13h18.12.277534 +0100,
,116,138,339,339,stimuli/own/kitchen/116_kit.jpg,stimuli/own/kitchen/138_kit.jpg,,,,,,,,,0,142,142,338,1778.1107954170002,,,,,,,,,,,1778.3961652920002,1778.563093708,1778.563093708,1778.563093708,1778.563093708,1778.563093708,1778.563093708,1778.563093708,1778.563093708,1778.563093708,1786.1597134580002,-7,7,3,2.0,3.512966208999842,4.0,7.48423374999993,1778.1049643750002,1778.1107954170002,1778.563093708,1778.3961507920003,,,,,,,,1778.101554583,1778.1049185000002,None,,,,,,,,,,,208,kitchen,1,2024-03-16_13h17.54.890,image_similarity_rating,2023.2.3,None,2024-03-16 13h18.12.277534 +0100,
,111,122,227,227,stimuli/own/kitchen/111_kit.jpg,stimuli/own/kitchen/122_kit.jpg,,,,,,,,,0,143,143,226,1786.165780583,,,,,,,,,,,1786.450596958,1786.6146348330003,1786.6146348330003,1786.6146348330003,1786.6146348330003,1786.6146348330003,1786.6146348330003,1786.6146348330003,1786.6146348330003,1786.6146348330003,1795.7552982920001,7,-7,3,5.0,7.59655391699971,4.0,9.006589458000235,1786.1634746250002,1786.165780583,1786.6146348330003,1786.4505842500002,,,,,,,,1786.159945667,1786.163428458,None,,,,,,,,,,,208,kitchen,1,2024-03-16_13h17.54.890,image_similarity_rating,2023.2.3,None,2024-03-16 13h18.12.277534 +0100,
,122,126,446,446,stimuli/own/kitchen/122_kit.jpg,stimuli/own/kitchen/126_kit.jpg,,,,,,,,,0,144,144,445,1795.777369042,,,,,,,,,,,1796.0616017500001,1796.2276675829999,1796.2276675829999,1796.2276675829999,1796.2276675829999,1796.2276675829999,1796.2276675829999,1796.2276675829999,1796.2276675829999,1796.2276675829999,1806.279801792,-7,7,3,5.0,4.833857125000122,5.0,9.890812708999874,1795.758925917,1795.777369042,,1796.0615818750002,,,,,,,,1795.755516708,1795.758880125,None,,,,,,,,,,,208,kitchen,1,2024-03-16_13h17.54.890,image_similarity_rating,2023.2.3,None,2024-03-16 13h18.12.277534 +0100,
,105,126,147,147,stimuli/own/kitchen/105_kit.jpg,stimuli/own/kitchen/126_kit.jpg,,,,,,,,,0,145,145,146,1806.285156208,,,,,,,,,,,1806.5786082079999,1806.742747625,1806.742747625,1806.742747625,1806.742747625,1806.742747625,1806.742747625,1806.742747625,1806.742747625,1806.742747625,1820.250851458,-7,7,3,3.0,11.525706583000101,5.0,13.358106749999934,1806.2834294170002,1806.285156208,1806.742747625,1806.578596208,,,,,,,,1806.280021167,1806.283383083,None,,,,,,,,,,,208,kitchen,1,2024-03-16_13h17.54.890,image_similarity_rating,2023.2.3,None,2024-03-16 13h18.12.277534 +0100,
,117,125,350,350,stimuli/own/kitchen/117_kit.jpg,stimuli/own/kitchen/125_kit.jpg,,,,,,,,,0,146,146,349,1820.260819792,,,,,,,,,,,1820.545118208,1820.710080375,1820.710080375,1820.710080375,1820.710080375,1820.710080375,1820.710080375,1820.710080375,1820.710080375,1820.710080375,1831.7344981669999,-7,7,3,4.0,10.922270958999889,3.0,8.78637424999988,1820.2545933330002,1820.260819792,1820.710080375,1820.5451052080002,,,,,,,,1820.2510647500003,1820.254547125,None,,,,,,,,,,,208,kitchen,1,2024-03-16_13h17.54.890,image_similarity_rating,2023.2.3,None,2024-03-16 13h18.12.277534 +0100,
,112,117,248,248,stimuli/own/kitchen/112_kit.jpg,stimuli/own/kitchen/117_kit.jpg,,,,,,,,,0,147,147,247,1831.7439637920002,,,,,,,,,,,1832.0294398750002,1832.195273625,1832.195273625,1832.195273625,1832.195273625,1832.195273625,1832.195273625,1832.195273625,1832.195273625,1832.195273625,1839.3306714170003,7,-7,3,3.0,5.839426958000331,3.0,6.59766616700017,1831.7381527080001,1831.7439637920002,1832.195273625,1832.029425833,,,,,,,,1831.7347111670001,1831.738106583,None,,,,,,,,,,,208,kitchen,1,2024-03-16_13h17.54.890,image_similarity_rating,2023.2.3,None,2024-03-16 13h18.12.277534 +0100,
,102,140,66,66,stimuli/own/kitchen/102_kit.jpg,stimuli/own/kitchen/140_kit.jpg,,,,,,,,,0,148,148,65,1839.336626458,,,,,,,,,,,1839.6283628750002,1839.793601333,1839.793601333,1839.793601333,1839.793601333,1839.793601333,1839.793601333,1839.793601333,1839.793601333,1839.793601333,1848.5338860420002,-7,7,3,3.0,5.7387677080000685,5.0,8.16583695899999,1839.3343623750002,1839.336626458,1839.793601333,1839.628345,,,,,,,,1839.330902708,1839.334314917,None,,,,,,,,,,,208,kitchen,1,2024-03-16_13h17.54.890,image_similarity_rating,2023.2.3,None,2024-03-16 13h18.12.277534 +0100,
,105,114,136,136,stimuli/own/kitchen/105_kit.jpg,stimuli/own/kitchen/114_kit.jpg,,,,,,,,,0,149,149,135,1848.543953292,,,,,,,,,,,1848.8294098330002,1848.996462,1848.996462,1848.996462,1848.996462,1848.996462,1848.996462,1848.996462,1848.996462,1848.996462,1855.333711833,-7,7,3,2.0,5.924809791999905,7.0,4.648484374999953,1848.537564625,1848.543953292,1848.996462,1848.829395542,,,,,,,,1848.5341013330003,1848.5375184170002,None,,,,,,,,,,,208,kitchen,1,2024-03-16_13h17.54.890,image_similarity_rating,2023.2.3,None,2024-03-16 13h18.12.277534 +0100,
,109,135,211,211,stimuli/own/kitchen/109_kit.jpg,stimuli/own/kitchen/135_kit.jpg,,,,,,,,,0,150,150,210,1855.3438968750002,,,,,,,,,,,1855.6290600830002,1855.7939030830003,1855.7939030830003,1855.7939030830003,1855.7939030830003,1855.7939030830003,1855.7939030830003,1855.7939030830003,1855.7939030830003,1855.7939030830003,1862.7888173750002,-7,7,3,1.0,5.822182541000075,1.0,6.783991583999978,1855.337409792,1855.3438968750002,1855.7939030830003,1855.6290424170002,,,,,,,,1855.333924042,1855.337363792,None,,,,,,,,,,,208,kitchen,1,2024-03-16_13h17.54.890,image_similarity_rating,2023.2.3,None,2024-03-16 13h18.12.277534 +0100,
,113,135,289,289,stimuli/own/kitchen/113_kit.jpg,stimuli/own/kitchen/135_kit.jpg,,,,,,,,,0,151,151,288,1862.794866708,,,,,,,,,,,1863.0795388750003,1863.244183792,1863.244183792,1863.244183792,1863.244183792,1863.244183792,1863.244183792,1863.244183792,1863.244183792,1863.244183792,1869.697185042,7,-7,3,2.0,4.5772759999999835,4.0,6.348647541999981,1862.7924834579999,1862.794866708,1863.244183792,1863.0795254170002,,,,,,,,1862.789031875,1862.7924376670003,None,,,,,,,,,,,208,kitchen,1,2024-03-16_13h17.54.890,image_similarity_rating,2023.2.3,None,2024-03-16 13h18.12.277534 +0100,
,118,135,379,379,stimuli/own/kitchen/118_kit.jpg,stimuli/own/kitchen/135_kit.jpg,,,,,,,,,0,152,152,378,1869.710373375,,,,,,,,,,,1869.9952617080003,1870.159524792,1870.159524792,1870.159524792,1870.159524792,1870.159524792,1870.159524792,1870.159524792,1870.159524792,1870.159524792,1879.2005046670001,7,-7,3,2.0,6.0343849169998975,3.0,8.94189950000009,1869.7010808750001,1869.710373375,1870.159524792,1869.995248792,,,,,,,,1869.697420292,1869.701027083,None,,,,,,,,,,,208,kitchen,1,2024-03-16_13h17.54.890,image_similarity_rating,2023.2.3,None,2024-03-16 13h18.12.277534 +0100,
,119,132,397,397,stimuli/own/kitchen/119_kit.jpg,stimuli/own/kitchen/132_kit.jpg,,,,,,,,,0,153,153,396,1879.210529083,,,,,,,,,,,1879.4951235419999,1879.664424,1879.664424,1879.664424,1879.664424,1879.664424,1879.664424,1879.664424,1879.664424,1879.664424,1891.3795237499999,7,-7,3,1.0,10.020324542000253,1.0,11.606163250000009,1879.2041611670002,1879.210529083,1879.664424,1879.4951068330001,,,,,,,,1879.2007198330002,1879.2041154580002,None,,,,,,,,,,,208,kitchen,1,2024-03-16_13h17.54.890,image_similarity_rating,2023.2.3,None,2024-03-16 13h18.12.277534 +0100,
