sub_num,trial,block,task,is_practice,category,image,texture,duration,mask_dur,jitter,stim_time,time_of_resp,trial_response,mask_time,fix_time,jit_onset,trial_end,trial_accuracy,RT
126,6,0,typicality,1,kitchen,kitchen_practice2.tif,227,1.5,0,0.966666666666667,8636.638954875,8643.581088833,4,NaN,8643.603440291,8643.628613375,8644.588710416,NaN,NaN
126,7,0,typicality,1,kitchen,kitchen_practice5.tif,230,1.5,0,1.58333333333333,8644.599459833,8647.334052041,5,NaN,8647.380912625,8647.407089958,8648.984020666,NaN,NaN
126,8,0,typicality,1,kitchen,kitchen_practice1.tif,226,1.5,0,1.03333333333333,8649.012166875,8652.700723041,3,NaN,8652.707264333,8652.72594775,8653.752668458,NaN,NaN
126,9,0,typicality,1,kitchen,kitchen_practice4.tif,229,1.5,0,1.68333333333333,8653.775735041,8656.853495416,3,NaN,8656.861421583,8656.87976825,8658.556512541,NaN,NaN
126,10,0,typicality,1,kitchen,kitchen_practice3.tif,228,1.5,0,1.45,8658.590418916,8661.616250458,4,NaN,8661.652547958,8661.675565,8663.118989,NaN,NaN
126,1,1,typicality,0,kitchen,sun_agubuxuukhzyzpdp.tif,198,1.5,0,0.733333333333333,8669.077223875,8672.781193875,5,NaN,8672.787177083,8672.805592666,8673.532269,NaN,NaN
126,2,1,typicality,0,kitchen,sun_ahpczsiumwwocjkv.tif,202,1.5,0,1.18333333333333,8673.536770375,8676.432739541,4,NaN,8676.461572833,8676.485026958,8677.661759958,NaN,NaN
126,3,1,typicality,0,kitchen,sun_aapllqyqlykszopd.tif,176,1.5,0,0.7,8677.672216791,8680.509054666,5,NaN,8680.514838916,8680.533131041,8681.226470458,NaN,NaN
126,4,1,typicality,0,kitchen,sun_auaiucuqpdausiva.tif,212,1.5,0,1.2,8681.230834625,8684.262043916,3,NaN,8684.272477666,8684.292295333,8685.485718458,NaN,NaN
126,5,1,typicality,0,kitchen,sun_adgqasybjyktddhj.tif,188,1.5,0,0.966666666666667,8685.499843625,8688.261387,6,NaN,8688.266915458,8688.2853465,8689.245352708,NaN,NaN
126,6,1,typicality,0,kitchen,sun_aaxxjlsuzvqlgylf.tif,178,1.5,0,1.3,8689.249701041,8692.924883041,6,NaN,8692.930621208,8692.949031875,8694.242427583,NaN,NaN
126,7,1,typicality,0,kitchen,labelme_kxvouciolcpqplr.tif,172,1.5,0,1.65,8694.261562291,8697.396786083,5,NaN,8697.402607416,8697.42113525,8699.064569708,NaN,NaN
126,8,1,typicality,0,kitchen,sun_amjjdeyrggfqgmom.tif,210,1.5,0,1.63333333333333,8699.08378725,8701.940113416,2,NaN,8701.969429875,8701.993207083,8703.619962958,NaN,NaN
126,9,1,typicality,0,kitchen,sun_acfmftudsenhrfhy.tif,184,1.5,0,0.9,8703.631252375,8707.101103083,2,NaN,8707.106777083,8707.125731875,8708.019073666,NaN,NaN
126,10,1,typicality,0,kitchen,sun_aypmqwcualkenuoe.tif,219,1.5,0,0.95,8708.023516083,8710.964941541,1,NaN,8710.983830208,8711.008018083,8711.951361416,NaN,NaN
126,11,1,typicality,0,kitchen,sun_avszsnwsbuqfgzbn.tif,215,1.5,0,0.816666666666667,8711.9572645,8715.069958041,3,NaN,8715.079736916,8715.098797125,8715.908807666,NaN,NaN
126,12,1,typicality,0,kitchen,sun_aarfiyshqohlwkmo.tif,177,1.5,0,1.96666666666667,8715.924160791,8719.117380208,2,NaN,8719.124936583,8719.143318833,8721.103401875,NaN,NaN
126,13,1,typicality,0,kitchen,sun_aeqdocilnnpuvuhx.tif,193,1.5,0,0.783333333333333,8721.124000208,8727.276793875,5,NaN,8727.28244075,8727.300858833,8728.077533291,NaN,NaN
126,14,1,typicality,0,kitchen,sun_ahdycvpopffkzzsu.tif,200,1.5,0,0.733333333333333,8728.09059875,8730.752795708,4,NaN,8730.776923708,8730.799970125,8731.52664675,NaN,NaN
126,15,1,typicality,0,kitchen,sun_acgtpgfybqjmzeyw.tif,185,1.5,0,1.9,8731.531341166,8734.556184791,4,NaN,8734.583443875,8734.606187125,8736.499605541,NaN,NaN
126,16,1,typicality,0,kitchen,sun_aqeaevwwwjoqhzvl.tif,211,1.5,0,0.75,8736.51987825,8739.777019208,1,NaN,8739.804885333,8739.825609166,8740.568952,NaN,NaN
126,17,1,typicality,0,kitchen,sun_aenotlpyftoioydp.tif,192,1.5,0,0.916666666666667,8740.573740333,8743.552162541,5,NaN,8743.5761845,8743.598243083,8744.508251375,NaN,NaN
126,18,1,typicality,0,kitchen,sun_ajkqhtgcbgpcwrwn.tif,207,1.5,0,0.733333333333333,8744.513070125,8748.724810708,3,NaN,8748.730276291,8748.748670833,8749.475343916,NaN,NaN
126,19,1,typicality,0,kitchen,sun_acxkpeoqbwcxfvip.tif,187,1.5,0,1.81666666666667,8749.490452958,8754.860329875,2,NaN,8754.866216791,8754.884792,8756.694887791,NaN,NaN
126,20,1,typicality,0,kitchen,labelme_rykdqxenmhulbdn.tif,173,1.5,0,1.16666666666667,8756.714042375,8760.500744166,5,NaN,8760.506503958,8760.525393625,8761.685461416,NaN,NaN
126,21,1,typicality,0,kitchen,sun_agorklincwxrdtga.tif,197,1.5,0,1.81666666666667,8761.695411083,8765.55658375,3,NaN,8765.562095916,8765.580356833,8767.390444,NaN,NaN
126,22,1,typicality,0,kitchen,sun_aexklacwqwezaorf.tif,194,1.5,0,1.35,8767.410733583,8770.656521458,5,NaN,8770.68577325,8770.709685333,8772.05310825,NaN,NaN
126,23,1,typicality,0,kitchen,sun_ahywdevtimnqcsln.tif,204,1.5,0,1.25,8772.073062208,8775.044922708,7,NaN,8775.050337416,8775.068792875,8776.3121865,NaN,NaN
126,24,1,typicality,0,kitchen,sun_aamedkxepzlwuxes.tif,175,1.5,0,1.05,8776.330622041,8779.044295708,6,NaN,8779.050104458,8779.068559375,8780.111982083,NaN,NaN
126,25,1,typicality,0,kitchen,sun_ajcbwwvdlsvjyzje.tif,206,1.5,0,0.916666666666667,8780.126804041,8782.717112833,6,NaN,8782.722436583,8782.741009208,8783.651017166,NaN,NaN
126,1,2,typicality,0,kitchen,sun_awcpdzzznmweyyhv.tif,216,1.5,0,1.56666666666667,8789.623567166,8792.667891,5,NaN,8792.685146875,8792.705257125,8794.265332083,NaN,NaN
126,2,2,typicality,0,kitchen,sun_aegoxogugdkwpmpj.tif,190,1.5,0,0.883333333333333,8794.283715583,8798.476063708,4,NaN,8798.482076041,8798.500505166,8799.377178083,NaN,NaN
126,3,2,typicality,0,kitchen,sun_aixorpehvfykdynp.tif,205,1.5,0,0.75,8799.381494125,8802.076251791,6,NaN,8802.104455041,8802.128362458,8802.871706166,NaN,NaN
126,4,2,typicality,0,kitchen,sun_aehawpgmrlhlvcow.tif,191,1.5,0,1.23333333333333,8802.87640825,8805.861950958,6,NaN,8805.891006416,8805.914035041,8807.140797541,NaN,NaN
126,5,2,typicality,0,kitchen,sun_acwjdupvyjsugpay.tif,186,1.5,0,0.85,8807.161089583,8809.67650375,7,NaN,8809.6820745,8809.70045125,8810.54379575,NaN,NaN
126,6,2,typicality,0,kitchen,labelme_brsyyvweiuaazfr.tif,171,1.5,0,0.916666666666667,8810.548060541,8814.572237458,5,NaN,8814.578092291,8814.596656625,8815.5066635,NaN,NaN
126,7,2,typicality,0,kitchen,sun_akchetnepxlcxhsu.tif,208,1.5,0,1.75,8815.511266041,8817.952150125,5,NaN,8817.978203791,8818.001660166,8819.745088583,NaN,NaN
126,8,2,typicality,0,kitchen,sun_ahljzhgcdpomplvg.tif,201,1.5,0,1.43333333333333,8819.763892291,8822.969056291,3,NaN,8822.997904958,8823.021456791,8824.448246541,NaN,NaN
126,9,2,typicality,0,kitchen,sun_abpwyqmlzafvklqo.tif,182,1.5,0,0.783333333333333,8824.468658125,8827.588868875,7,NaN,8827.594872875,8827.613330833,8828.390003916,NaN,NaN
126,10,2,typicality,0,kitchen,sun_axyyrmzcupyhlivc.tif,217,1.5,0,1.76666666666667,8828.394596125,8831.076250375,5,NaN,8831.1041935,8831.127994041,8832.88806375,NaN,NaN
126,11,2,typicality,0,kitchen,sun_auticobqsbwgoppi.tif,214,1.5,0,1.78333333333333,8832.907941833,8836.095874041,4,NaN,8836.126630583,8836.15052675,8837.927252,NaN,NaN
126,12,2,typicality,0,kitchen,sun_aymvwlarqodbwuoc.tif,218,1.5,0,1.85,8837.943777541,8840.733781791,4,NaN,8840.762670708,8840.786311916,8842.629738875,NaN,NaN
126,13,2,typicality,0,kitchen,sun_ahspylgoovwmwvgk.tif,203,1.5,0,1.18333333333333,8842.650661291,8845.319922,5,NaN,8845.345677041,8845.3698185,8846.546524916,NaN,NaN
126,14,2,typicality,0,kitchen,sun_aggjlwcdjsjcaemh.tif,196,1.5,0,1.01666666666667,8846.557437666,8849.723849375,6,NaN,8849.72999875,8849.748495708,8850.758569833,NaN,NaN
126,15,2,typicality,0,kitchen,sun_aunzlwrbjumxhwdj.tif,213,1.5,0,1.65,8850.768408541,8853.628822416,3,NaN,8853.63441025,8853.652694875,8855.296122458,NaN,NaN
126,16,2,typicality,0,kitchen,sun_abrcnpqqhmjwekyf.tif,183,1.5,0,1.83333333333333,8855.315511416,8858.059371833,4,NaN,8858.0886365,8858.111902625,8859.938631541,NaN,NaN
126,17,2,typicality,0,kitchen,sun_agzzivivdpnawacl.tif,199,1.5,0,1.58333333333333,8859.960259708,8862.90152975,6,NaN,8862.923379291,8862.944100708,8864.520849375,NaN,NaN
126,18,2,typicality,0,kitchen,sun_abftihopvusyfakt.tif,181,1.5,0,1.85,8864.541881416,8868.747926791,4,NaN,8868.753987708,8868.772368666,8870.61575475,NaN,NaN
126,19,2,typicality,0,kitchen,sun_afuyedyxivkhecmu.tif,195,1.5,0,0.766666666666667,8870.63612175,8873.955363708,1,NaN,8873.971443458,8873.991246083,8874.75125225,NaN,NaN
126,20,2,typicality,0,kitchen,sun_aadbddgrdsjugojn.tif,174,1.5,0,0.716666666666667,8874.755826333,8877.527752,5,NaN,8877.549941333,8877.5718485,8878.281856458,NaN,NaN
126,21,2,typicality,0,kitchen,sun_azmutvzbxypaceni.tif,220,1.5,0,1.38333333333333,8878.290069291,8881.071936791,7,NaN,8881.100348916,8881.124526375,8882.501252458,NaN,NaN
126,22,2,typicality,0,kitchen,sun_abdxkyyxwfskuaqb.tif,180,1.5,0,0.866666666666667,8882.51985225,8885.716634125,3,NaN,8885.722079041,8885.740553333,8886.6005635,NaN,NaN
126,23,2,typicality,0,kitchen,sun_akcjzhbbjlbogpdi.tif,209,1.5,0,1.4,8886.605126666,8889.23166,5,NaN,8889.260145125,8889.28362225,8890.677057125,NaN,NaN
126,24,2,typicality,0,kitchen,sun_admlmbcdswaszruo.tif,189,1.5,0,1,8890.6960385,8893.828255166,7,NaN,8893.833831041,8893.852293833,8894.845636166,NaN,NaN
126,25,2,typicality,0,kitchen,sun_abdenxonkemggwsq.tif,179,1.5,0,1.28333333333333,8894.850280416,8898.8040605,4,NaN,8898.809750833,8898.82814675,8900.104884625,NaN,NaN
