sub_num,trial,block,task,is_practice,category,image,texture,duration,mask_dur,jitter,stim_time,time_of_resp,trial_response,mask_time,fix_time,jit_onset,trial_end,trial_accuracy,RT
106,6,0,usability,1,kitchen,kitchen_practice2.tif,227,1.5,0,1.13333333333333,9653.270263208,9656.43347725,6,NaN,9656.440485833,9656.458728375,9657.585470458,NaN,NaN
106,7,0,usability,1,kitchen,kitchen_practice3.tif,228,1.5,0,0.933333333333333,9657.597370666,9660.409834916,6,NaN,9660.415752375,9660.434089041,9661.3607625,NaN,NaN
106,8,0,usability,1,kitchen,kitchen_practice1.tif,226,1.5,0,1.48333333333333,9661.365427625,9664.0448825,4,NaN,9664.073936875,9664.097817416,9665.574562958,NaN,NaN
106,9,0,usability,1,kitchen,kitchen_practice4.tif,229,1.5,0,1.33333333333333,9665.589525208,9668.929207541,6,NaN,9668.935206458,9668.953713666,9670.280438708,NaN,NaN
106,10,0,usability,1,kitchen,kitchen_practice5.tif,230,1.5,0,1.3,9670.299856375,9673.466204958,5,NaN,9673.471722708,9673.490171416,9674.783609791,NaN,NaN
106,1,1,usability,0,kitchen,sun_amjjdeyrggfqgmom.tif,210,1.5,0,1.91666666666667,9679.920020916,9682.900967833,5,NaN,9682.917635583,9682.939087458,9684.849182666,NaN,NaN
106,2,1,usability,0,kitchen,sun_aymvwlarqodbwuoc.tif,218,1.5,0,0.85,9684.860651833,9688.217615458,5,NaN,9688.224431708,9688.243039541,9689.086379041,NaN,NaN
106,3,1,usability,0,kitchen,labelme_rykdqxenmhulbdn.tif,173,1.5,0,0.7,9689.093868291,9692.377377916,4,NaN,9692.38320975,9692.401608333,9693.094951041,NaN,NaN
106,4,1,usability,0,kitchen,sun_adgqasybjyktddhj.tif,188,1.5,0,1.6,9693.099310916,9695.933182333,6,NaN,9695.96396575,9695.987602958,9697.581018416,NaN,NaN
106,5,1,usability,0,kitchen,sun_aehawpgmrlhlvcow.tif,191,1.5,0,1.13333333333333,9697.597859333,9701.36935525,5,NaN,9701.375232541,9701.3937915,9702.520529541,NaN,NaN
106,6,1,usability,0,kitchen,sun_aadbddgrdsjugojn.tif,174,1.5,0,0.716666666666667,9702.53037725,9705.729928041,5,NaN,9705.735483875,9705.754202291,9706.464211458,NaN,NaN
106,7,1,usability,0,kitchen,sun_acwjdupvyjsugpay.tif,186,1.5,0,1.6,9706.477317333,9709.244923208,4,NaN,9709.273934458,9709.297492,9710.890898125,NaN,NaN
106,8,1,usability,0,kitchen,sun_aixorpehvfykdynp.tif,205,1.5,0,1.68333333333333,9710.906274208,9713.689557041,6,NaN,9713.695274708,9713.713664291,9715.390432416,NaN,NaN
106,9,1,usability,0,kitchen,sun_auaiucuqpdausiva.tif,212,1.5,0,1.41666666666667,9715.404899541,9718.778466375,4,NaN,9718.807721333,9718.831615708,9720.241717625,NaN,NaN
106,10,1,usability,0,kitchen,sun_aamedkxepzlwuxes.tif,175,1.5,0,1,9720.256590583,9723.369841541,5,NaN,9723.375431666,9723.39436425,9724.38770425,NaN,NaN
106,11,1,usability,0,kitchen,sun_ahpczsiumwwocjkv.tif,202,1.5,0,1.33333333333333,9724.392213625,9728.1137245,5,NaN,9728.119310041,9728.137993625,9729.464723125,NaN,NaN
106,12,1,usability,0,kitchen,sun_aenotlpyftoioydp.tif,192,1.5,0,1.15,9729.482504916,9733.233235625,4,NaN,9733.23920475,9733.257647375,9734.4010435,NaN,NaN
106,13,1,usability,0,kitchen,sun_aexklacwqwezaorf.tif,194,1.5,0,1.86666666666667,9734.41101,9738.873742875,3,NaN,9738.879411666,9738.897769625,9740.757832875,NaN,NaN
106,14,1,usability,0,kitchen,sun_aapllqyqlykszopd.tif,176,1.5,0,1.18333333333333,9740.777595375,9744.001475666,6,NaN,9744.030882583,9744.054505041,9745.231263291,NaN,NaN
106,15,1,usability,0,kitchen,sun_ahywdevtimnqcsln.tif,204,1.5,0,1.71666666666667,9745.241130833,9748.641188875,4,NaN,9748.647208791,9748.665652291,9750.375727416,NaN,NaN
106,16,1,usability,0,kitchen,sun_aggjlwcdjsjcaemh.tif,196,1.5,0,1.1,9750.392681416,9753.262855083,5,NaN,9753.292208125,9753.31566975,9754.409174375,NaN,NaN
106,17,1,usability,0,kitchen,sun_acxkpeoqbwcxfvip.tif,187,1.5,0,0.983333333333333,9754.419546666,9757.089305875,6,NaN,9757.094951958,9757.11329225,9758.089965541,NaN,NaN
106,18,1,usability,0,kitchen,sun_aeqdocilnnpuvuhx.tif,193,1.5,0,0.916666666666667,9758.095746333,9761.6888335,4,NaN,9761.69482475,9761.71312875,9762.623139416,NaN,NaN
106,19,1,usability,0,kitchen,sun_akcjzhbbjlbogpdi.tif,209,1.5,0,0.716666666666667,9762.628640125,9765.897773333,3,NaN,9765.903374541,9765.921779916,9766.631788666,NaN,NaN
106,20,1,usability,0,kitchen,sun_ajcbwwvdlsvjyzje.tif,206,1.5,0,0.883333333333333,9766.636107875,9769.833992125,5,NaN,9769.840178333,9769.858491166,9770.735167708,NaN,NaN
106,21,1,usability,0,kitchen,sun_azmutvzbxypaceni.tif,220,1.5,0,1.93333333333333,9770.739843875,9773.500553875,4,NaN,9773.526469791,9773.549383125,9775.476138708,NaN,NaN
106,22,1,usability,0,kitchen,sun_awcpdzzznmweyyhv.tif,216,1.5,0,0.9,9775.499282583,9778.585834,5,NaN,9778.615562333,9778.639169708,9779.532513041,NaN,NaN
106,23,1,usability,0,kitchen,sun_aunzlwrbjumxhwdj.tif,213,1.5,0,1.13333333333333,9779.537586,9782.705260125,4,NaN,9782.711033416,9782.729415666,9783.856153458,NaN,NaN
106,24,1,usability,0,kitchen,labelme_kxvouciolcpqplr.tif,172,1.5,0,0.766666666666667,9783.86699825,9786.889462041,3,NaN,9786.895065791,9786.913295875,9787.67330675,NaN,NaN
106,25,1,usability,0,kitchen,sun_agubuxuukhzyzpdp.tif,198,1.5,0,0.966666666666667,9787.67882025,9791.456707125,5,NaN,9791.462840833,9791.481161875,9792.441173041,NaN,NaN
106,1,2,usability,0,kitchen,sun_ajkqhtgcbgpcwrwn.tif,207,1.5,0,1.56666666666667,9797.483673208,9800.480228625,2,NaN,9800.50988275,9800.53318325,9802.093260291,NaN,NaN
106,2,2,usability,0,kitchen,sun_avszsnwsbuqfgzbn.tif,215,1.5,0,1.2,9802.110922666,9806.384904416,3,NaN,9806.390670666,9806.409096541,9807.602520208,NaN,NaN
106,3,2,usability,0,kitchen,sun_admlmbcdswaszruo.tif,189,1.5,0,1.73333333333333,9807.616002583,9812.31328975,5,NaN,9812.3187705,9812.337095166,9814.063825791,NaN,NaN
106,4,2,usability,0,kitchen,sun_abdxkyyxwfskuaqb.tif,180,1.5,0,1.61666666666667,9814.083614708,9817.19221925,4,NaN,9817.223660541,9817.245844166,9818.855903625,NaN,NaN
106,5,2,usability,0,kitchen,sun_aypmqwcualkenuoe.tif,219,1.5,0,1.38333333333333,9818.877806083,9822.064552083,4,NaN,9822.096424666,9822.120150208,9823.4969095,NaN,NaN
106,6,2,usability,0,kitchen,sun_agzzivivdpnawacl.tif,199,1.5,0,1.73333333333333,9823.516896208,9826.68109125,5,NaN,9826.6869175,9826.705348166,9828.432083416,NaN,NaN
106,7,2,usability,0,kitchen,sun_aaxxjlsuzvqlgylf.tif,178,1.5,0,1.96666666666667,9828.452979583,9832.32900525,6,NaN,9832.334814041,9832.353346625,9834.313406041,NaN,NaN
106,8,2,usability,0,kitchen,sun_abftihopvusyfakt.tif,181,1.5,0,0.883333333333333,9834.335489208,9837.218467625,6,NaN,9837.248148291,9837.271923541,9838.148599666,NaN,NaN
106,9,2,usability,0,kitchen,sun_agorklincwxrdtga.tif,197,1.5,0,1.06666666666667,9838.15339875,9841.497149208,6,NaN,9841.50274525,9841.521262041,9842.581341625,NaN,NaN
106,10,2,usability,0,kitchen,labelme_brsyyvweiuaazfr.tif,171,1.5,0,1.06666666666667,9842.594227166,9845.680803875,6,NaN,9845.686587208,9845.704919083,9846.76499925,NaN,NaN
106,11,2,usability,0,kitchen,sun_afuyedyxivkhecmu.tif,195,1.5,0,0.966666666666667,9846.7741725,9851.273305208,3,NaN,9851.279281708,9851.297906958,9852.257917791,NaN,NaN
106,12,2,usability,0,kitchen,sun_aegoxogugdkwpmpj.tif,190,1.5,0,1.78333333333333,9852.262584041,9855.473374625,5,NaN,9855.48023425,9855.498663666,9857.275419833,NaN,NaN
106,13,2,usability,0,kitchen,sun_axyyrmzcupyhlivc.tif,217,1.5,0,1.68333333333333,9857.293449625,9860.01222325,6,NaN,9860.040924,9860.065154458,9861.741910958,NaN,NaN
106,14,2,usability,0,kitchen,sun_abpwyqmlzafvklqo.tif,182,1.5,0,0.983333333333333,9861.7607755,9864.517248375,5,NaN,9864.547081208,9864.570785125,9865.547461291,NaN,NaN
106,15,2,usability,0,kitchen,sun_abdenxonkemggwsq.tif,179,1.5,0,1.33333333333333,9865.55231025,9868.617905333,4,NaN,9868.626613583,9868.6458065,9869.972531625,NaN,NaN
106,16,2,usability,0,kitchen,sun_acgtpgfybqjmzeyw.tif,185,1.5,0,1.56666666666667,9869.989013708,9873.457358416,5,NaN,9873.462934125,9873.481293875,9875.041398083,NaN,NaN
106,17,2,usability,0,kitchen,sun_ahspylgoovwmwvgk.tif,203,1.5,0,1.66666666666667,9875.059633041,9878.7692735,4,NaN,9878.776228083,9878.794606541,9880.45468175,NaN,NaN
106,18,2,usability,0,kitchen,sun_auticobqsbwgoppi.tif,214,1.5,0,1.86666666666667,9880.473202583,9883.621757291,4,NaN,9883.651649125,9883.675489208,9885.535555041,NaN,NaN
106,19,2,usability,0,kitchen,sun_aqeaevwwwjoqhzvl.tif,211,1.5,0,1.95,9885.554642,9888.597636083,4,NaN,9888.629517416,9888.653701833,9890.597108625,NaN,NaN
106,20,2,usability,0,kitchen,sun_acfmftudsenhrfhy.tif,184,1.5,0,0.966666666666667,9890.613178375,9893.440093666,4,NaN,9893.47014325,9893.494189875,9894.4542,NaN,NaN
106,21,2,usability,0,kitchen,sun_abrcnpqqhmjwekyf.tif,183,1.5,0,1.43333333333333,9894.459189708,9897.320708708,5,NaN,9897.350012458,9897.373159583,9898.799912958,NaN,NaN
106,22,2,usability,0,kitchen,sun_ahdycvpopffkzzsu.tif,200,1.5,0,0.85,9898.816476708,9901.481323291,3,NaN,9901.486752333,9901.505175625,9902.348518333,NaN,NaN
106,23,2,usability,0,kitchen,sun_ahljzhgcdpomplvg.tif,201,1.5,0,1.53333333333333,9902.352872583,9905.252390208,5,NaN,9905.282499625,9905.306636208,9906.833361208,NaN,NaN
106,24,2,usability,0,kitchen,sun_akchetnepxlcxhsu.tif,208,1.5,0,1.18333333333333,9906.84869425,9910.369080583,5,NaN,9910.37468175,9910.393167541,9911.569910083,NaN,NaN
106,25,2,usability,0,kitchen,sun_aarfiyshqohlwkmo.tif,177,1.5,0,1.86666666666667,9911.579054625,9914.505255,6,NaN,9914.510795791,9914.52907075,9916.389166791,NaN,NaN
