sub_num,trial,block,task,is_practice,category,image,texture,duration,mask_dur,jitter,stim_time,time_of_resp,trial_response,mask_time,fix_time,jit_onset,trial_end,trial_accuracy,RT
141,6,0,typicality,1,kitchen,kitchen_practice2.tif,227,1.5,0,0.966666666666667,8459.839222417,8463.502534792,4,NaN,8463.523581792,8463.544664708,8464.504799292,NaN,NaN
141,7,0,typicality,1,kitchen,kitchen_practice5.tif,230,1.5,0,1.58333333333333,8464.516049292,8468.189626375,6,NaN,8468.199079667,8468.217930958,8469.794775417,NaN,NaN
141,8,0,typicality,1,kitchen,kitchen_practice1.tif,226,1.5,0,1.03333333333333,8469.824567875,8472.4414565,4,NaN,8472.473333625,8472.497643375,8473.52434375,NaN,NaN
141,9,0,typicality,1,kitchen,kitchen_practice4.tif,229,1.5,0,1.68333333333333,8473.547966542,8476.981726292,1,NaN,8476.988265667,8477.006653667,8478.683371083,NaN,NaN
141,10,0,typicality,1,kitchen,kitchen_practice3.tif,228,1.5,0,1.45,8478.715534292,8481.617544083,4,NaN,8481.663121542,8481.686566125,8483.129935125,NaN,NaN
141,1,1,typicality,0,kitchen,sun_agubuxuukhzyzpdp.tif,198,1.5,0,0.733333333333333,8490.321751333,8493.1818895,6,NaN,8493.213955333,8493.236559458,8493.96322975,NaN,NaN
141,2,1,typicality,0,kitchen,sun_ahpczsiumwwocjkv.tif,202,1.5,0,1.18333333333333,8493.968125125,8496.720668542,7,NaN,8496.745903667,8496.768416917,8497.945134125,NaN,NaN
141,3,1,typicality,0,kitchen,sun_aapllqyqlykszopd.tif,176,1.5,0,0.7,8497.953746875,8501.549523375,7,NaN,8501.555591875,8501.573903167,8502.267240417,NaN,NaN
141,4,1,typicality,0,kitchen,sun_auaiucuqpdausiva.tif,212,1.5,0,1.2,8502.27187525,8504.833341708,1,NaN,8504.861402,8504.884313417,8506.077744375,NaN,NaN
141,5,1,typicality,0,kitchen,sun_adgqasybjyktddhj.tif,188,1.5,0,0.966666666666667,8506.089587458,8509.118012333,7,NaN,8509.123470292,8509.141870083,8510.101873208,NaN,NaN
141,6,1,typicality,0,kitchen,sun_aaxxjlsuzvqlgylf.tif,178,1.5,0,1.3,8510.1181675,8512.775444333,1,NaN,8512.804293292,8512.827296708,8514.120677375,NaN,NaN
141,7,1,typicality,0,kitchen,labelme_kxvouciolcpqplr.tif,172,1.5,0,1.65,8514.138864667,8517.22203475,7,NaN,8517.227545625,8517.246201458,8518.889574458,NaN,NaN
141,8,1,typicality,0,kitchen,sun_amjjdeyrggfqgmom.tif,210,1.5,0,1.63333333333333,8518.905062042,8521.731359708,4,NaN,8521.759814083,8521.782566167,8523.409267542,NaN,NaN
141,9,1,typicality,0,kitchen,sun_acfmftudsenhrfhy.tif,184,1.5,0,0.9,8523.428580667,8526.142938667,7,NaN,8526.170816208,8526.194330083,8527.087670417,NaN,NaN
141,10,1,typicality,0,kitchen,sun_aypmqwcualkenuoe.tif,219,1.5,0,0.95,8527.093354125,8531.094326167,1,NaN,8531.099819292,8531.118397042,8532.061735292,NaN,NaN
141,11,1,typicality,0,kitchen,sun_avszsnwsbuqfgzbn.tif,215,1.5,0,0.816666666666667,8532.066147708,8535.033358042,4,NaN,8535.06200225,8535.085318125,8535.895322292,NaN,NaN
141,12,1,typicality,0,kitchen,sun_aarfiyshqohlwkmo.tif,177,1.5,0,1.96666666666667,8535.901172208,8540.678365083,7,NaN,8540.683873292,8540.702224458,8542.662265333,NaN,NaN
141,13,1,typicality,0,kitchen,sun_aeqdocilnnpuvuhx.tif,193,1.5,0,0.783333333333333,8542.678250833,8550.477620333,4,NaN,8550.483474958,8550.50163875,8551.278309875,NaN,NaN
141,14,1,typicality,0,kitchen,sun_ahdycvpopffkzzsu.tif,200,1.5,0,0.733333333333333,8551.28294875,8556.189703042,7,NaN,8556.195370667,8556.213700375,8556.940373292,NaN,NaN
141,15,1,typicality,0,kitchen,sun_acgtpgfybqjmzeyw.tif,185,1.5,0,1.9,8556.9520735,8560.526223,4,NaN,8560.531834625,8560.550199875,8562.443567292,NaN,NaN
141,16,1,typicality,0,kitchen,sun_aqeaevwwwjoqhzvl.tif,211,1.5,0,0.75,8562.462947708,8565.247221542,4,NaN,8565.271310875,8565.293491,8566.036828625,NaN,NaN
141,17,1,typicality,0,kitchen,sun_aenotlpyftoioydp.tif,192,1.5,0,0.916666666666667,8566.041352792,8573.190357458,5,NaN,8573.19596025,8573.214263583,8574.124267375,NaN,NaN
141,18,1,typicality,0,kitchen,sun_ajkqhtgcbgpcwrwn.tif,207,1.5,0,0.733333333333333,8574.12843425,8577.166836375,6,NaN,8577.176274333,8577.195415208,8577.922085875,NaN,NaN
141,19,1,typicality,0,kitchen,sun_acxkpeoqbwcxfvip.tif,187,1.5,0,1.81666666666667,8577.926614375,8581.653823083,4,NaN,8581.65917775,8581.677456583,8583.487496125,NaN,NaN
141,20,1,typicality,0,kitchen,labelme_rykdqxenmhulbdn.tif,173,1.5,0,1.16666666666667,8583.505291417,8586.965266125,7,NaN,8586.971949958,8586.990281333,8588.150323167,NaN,NaN
141,21,1,typicality,0,kitchen,sun_agorklincwxrdtga.tif,197,1.5,0,1.81666666666667,8588.160652167,8591.469235333,4,NaN,8591.475094792,8591.493351083,8593.303392917,NaN,NaN
141,22,1,typicality,0,kitchen,sun_aexklacwqwezaorf.tif,194,1.5,0,1.35,8593.323421875,8596.261810875,4,NaN,8596.291322917,8596.314914208,8597.658285917,NaN,NaN
141,23,1,typicality,0,kitchen,sun_ahywdevtimnqcsln.tif,204,1.5,0,1.25,8597.670422417,8601.077735792,7,NaN,8601.083349833,8601.101751208,8602.345128833,NaN,NaN
141,24,1,typicality,0,kitchen,sun_aamedkxepzlwuxes.tif,175,1.5,0,1.05,8602.362229333,8606.285933125,4,NaN,8606.291387833,8606.309732958,8607.353104292,NaN,NaN
141,25,1,typicality,0,kitchen,sun_ajcbwwvdlsvjyzje.tif,206,1.5,0,0.916666666666667,8607.364599917,8610.853379,6,NaN,8610.859175792,8610.877544875,8611.787548583,NaN,NaN
141,1,2,typicality,0,kitchen,sun_awcpdzzznmweyyhv.tif,216,1.5,0,1.56666666666667,8622.37775975,8625.525583458,4,NaN,8625.534511583,8625.553551375,8627.113586,NaN,NaN
141,2,2,typicality,0,kitchen,sun_aegoxogugdkwpmpj.tif,190,1.5,0,0.883333333333333,8627.125706042,8630.286081708,4,NaN,8630.29146125,8630.309821625,8631.186494125,NaN,NaN
141,3,2,typicality,0,kitchen,sun_aixorpehvfykdynp.tif,205,1.5,0,0.75,8631.201426625,8634.241882042,6,NaN,8634.270719958,8634.292671625,8635.036008958,NaN,NaN
141,4,2,typicality,0,kitchen,sun_aehawpgmrlhlvcow.tif,191,1.5,0,1.23333333333333,8635.040670875,8638.66921225,1,NaN,8638.675248792,8638.693520875,8639.920210792,NaN,NaN
141,5,2,typicality,0,kitchen,sun_acwjdupvyjsugpay.tif,186,1.5,0,0.85,8639.931415083,8645.525122458,6,NaN,8645.531020292,8645.549398792,8646.392736542,NaN,NaN
141,6,2,typicality,0,kitchen,labelme_brsyyvweiuaazfr.tif,171,1.5,0,0.916666666666667,8646.397385292,8654.709652458,4,NaN,8654.715217917,8654.733764958,8655.643770292,NaN,NaN
141,7,2,typicality,0,kitchen,sun_akchetnepxlcxhsu.tif,208,1.5,0,1.75,8655.6491445,8658.417212833,4,NaN,8658.439705292,8658.463574417,8660.206953792,NaN,NaN
141,8,2,typicality,0,kitchen,sun_ahljzhgcdpomplvg.tif,201,1.5,0,1.43333333333333,8660.224357833,8663.230469083,4,NaN,8663.260251292,8663.283653708,8664.710368417,NaN,NaN
141,9,2,typicality,0,kitchen,sun_abpwyqmlzafvklqo.tif,182,1.5,0,0.783333333333333,8664.7294025,8668.981909917,4,NaN,8668.987464833,8669.005834875,8669.782507875,NaN,NaN
141,10,2,typicality,0,kitchen,sun_axyyrmzcupyhlivc.tif,217,1.5,0,1.76666666666667,8669.800552125,8672.472607083,4,NaN,8672.497834208,8672.521254125,8674.28130725,NaN,NaN
141,11,2,typicality,0,kitchen,sun_auticobqsbwgoppi.tif,214,1.5,0,1.78333333333333,8674.299260333,8678.845733417,2,NaN,8678.851173792,8678.869474125,8680.646187417,NaN,NaN
141,12,2,typicality,0,kitchen,sun_aymvwlarqodbwuoc.tif,218,1.5,0,1.85,8680.662933708,8683.558538833,2,NaN,8683.587300167,8683.610340583,8685.453720417,NaN,NaN
141,13,2,typicality,0,kitchen,sun_ahspylgoovwmwvgk.tif,203,1.5,0,1.18333333333333,8685.471856667,8689.38899975,4,NaN,8689.394844625,8689.413163583,8690.589873917,NaN,NaN
141,14,2,typicality,0,kitchen,sun_aggjlwcdjsjcaemh.tif,196,1.5,0,1.01666666666667,8690.601054,8693.597363542,7,NaN,8693.602806583,8693.6210875,8694.631127,NaN,NaN
141,15,2,typicality,0,kitchen,sun_aunzlwrbjumxhwdj.tif,213,1.5,0,1.65,8694.641085792,8697.605863875,1,NaN,8697.611162417,8697.629473708,8699.272858667,NaN,NaN
141,16,2,typicality,0,kitchen,sun_abrcnpqqhmjwekyf.tif,183,1.5,0,1.83333333333333,8699.289992417,8702.469650708,5,NaN,8702.4982165,8702.521562708,8704.348266708,NaN,NaN
141,17,2,typicality,0,kitchen,sun_agzzivivdpnawacl.tif,199,1.5,0,1.58333333333333,8704.364312792,8708.93319925,3,NaN,8708.938948333,8708.957212667,8710.533920292,NaN,NaN
141,18,2,typicality,0,kitchen,sun_abftihopvusyfakt.tif,181,1.5,0,1.85,8710.551210792,8714.965558875,4,NaN,8714.971067042,8714.989397208,8716.832764417,NaN,NaN
141,19,2,typicality,0,kitchen,sun_afuyedyxivkhecmu.tif,195,1.5,0,0.766666666666667,8716.849651542,8720.301276125,1,NaN,8720.308021417,8720.326354417,8721.086358625,NaN,NaN
141,20,2,typicality,0,kitchen,sun_aadbddgrdsjugojn.tif,174,1.5,0,0.716666666666667,8721.090708917,8723.893737792,4,NaN,8723.917929583,8723.939586875,8724.649591375,NaN,NaN
141,21,2,typicality,0,kitchen,sun_azmutvzbxypaceni.tif,220,1.5,0,1.38333333333333,8724.6550145,8730.196880167,7,NaN,8730.202875875,8730.221125708,8731.59784425,NaN,NaN
141,22,2,typicality,0,kitchen,sun_abdxkyyxwfskuaqb.tif,180,1.5,0,0.866666666666667,8731.61641075,8734.541004625,1,NaN,8734.54670175,8734.56503975,8735.425043708,NaN,NaN
141,23,2,typicality,0,kitchen,sun_akcjzhbbjlbogpdi.tif,209,1.5,0,1.4,8735.429356292,8738.821259292,5,NaN,8738.826702875,8738.844976625,8740.238350542,NaN,NaN
141,24,2,typicality,0,kitchen,sun_admlmbcdswaszruo.tif,189,1.5,0,1,8740.257788333,8743.501783333,7,NaN,8743.507099875,8743.525478167,8744.518816625,NaN,NaN
141,25,2,typicality,0,kitchen,sun_abdenxonkemggwsq.tif,179,1.5,0,1.28333333333333,8744.523451833,8747.205770208,4,NaN,8747.233516,8747.256647667,8748.533360917,NaN,NaN
