slide,sub1,sub2,pairID,trialID,stim1,stim2,instructionsLoop.thisRepN,instructionsLoop.thisTrialN,instructionsLoop.thisN,instructionsLoop.thisIndex,practice.thisRepN,practice.thisTrialN,practice.thisN,practice.thisIndex,trials.thisRepN,trials.thisTrialN,trials.thisN,trials.thisIndex,thisRow.t,notes,preparation.started,preparation.stopped,instructions.started,startResponse.started,slide_img.started,instructions.stopped,startResponse.keys,startResponse.rt,startResponse.duration,trial.started,polygon.started,polygon_2.started,image1.started,image2.started,rating_1.started,question.started,rating_2.started,question_2.started,block_text.started,trial.stopped,stim1pos,stim2pos,block,rating_1.response,rating_1.rt,rating_2.response,rating_2.rt,ITI.started,text.started,text.stopped,ITI.stopped,practice_over.started,text_2.started,space_practice_over.started,practice_over.stopped,space_practice_over.keys,space_practice_over.rt,space_practice_over.duration,breakBlocks.started,breakBlocks.stopped,startBlock.keys,startBlock.started,startBlock.rt,startBlock.duration,end.started,message_end.started,key_resp.started,end.stopped,key_resp.keys,key_resp.rt,key_resp.duration,participant,session,session_number,date,expName,psychopyVersion,frameRate,expStart,
instructions/Slide1.jpg,,,,,,,0,0,0,0,,,,,,,,,0.026899500000126864,,0.0021147910001673154,0.002218332999973427,0.009516791000123703,0.026899500000126864,0.026899500000126864,24.096548500000154,space,24.069319333000067,None,,,,,,,,,,,,,,,,,,,,,,,,,,,,,,,,,,,,,,,,,,,205,bathroom,1,2024-03-14_15h57.40.505,image_similarity_rating,2023.2.3,None,2024-03-14 15h57.51.416612 +0100,
instructions/Slide3.jpg,,,,,,,0,1,1,1,,,,,,,,,24.123064875000182,,,,24.097810750000008,24.123064875000182,24.123064875000182,27.605580750000172,space,3.48225162499989,None,,,,,,,,,,,,,,,,,,,,,,,,,,,,,,,,,,,,,,,,,,,205,bathroom,1,2024-03-14_15h57.40.505,image_similarity_rating,2023.2.3,None,2024-03-14 15h57.51.416612 +0100,
instructions/Slide4.jpg,,,,,,,0,2,2,2,,,,,,,,,27.62668141600011,,,,27.606188416000123,27.62668141600011,27.62668141600011,30.335990833000096,space,2.7089654580001934,None,,,,,,,,,,,,,,,,,,,,,,,,,,,,,,,,,,,,,,,,,,,205,bathroom,1,2024-03-14_15h57.40.505,image_similarity_rating,2023.2.3,None,2024-03-14 15h57.51.416612 +0100,
instructions/Slide5.jpg,,,,,,,0,3,3,3,,,,,,,,,30.36304791600014,,,,30.336790958000165,30.36304791600014,30.36304791600014,45.48910120800019,space,15.125670249999985,None,,,,,,,,,,,,,,,,,,,,,,,,,,,,,,,,,,,,,,,,,,,205,bathroom,1,2024-03-14_15h57.40.505,image_similarity_rating,2023.2.3,None,2024-03-14 15h57.51.416612 +0100,
,107,133,practice,9,stimuli/own/bathroom/107_bat.jpg,stimuli/own/bathroom/133_bat.jpg,,,,,0,0,0,8,,,,,45.69500470800017,,,,,,,,,,,45.516437500000166,45.69500470800017,45.69500470800017,45.69500470800017,45.69500470800017,45.69500470800017,45.69500470800017,45.69500470800017,45.69500470800017,45.69500470800017,69.08317845800002,7,-7,0,5.0,13.988509125000064,7.0,21.469856875000005,69.08342445800008,69.086014708,69.53981525000017,69.37293900000009,,,,,,,,,,,,,,,,,,,,,205,bathroom,1,2024-03-14_15h57.40.505,image_similarity_rating,2023.2.3,None,2024-03-14 15h57.51.416612 +0100,
,107,128,practice,7,stimuli/own/bathroom/107_bat.jpg,stimuli/own/bathroom/128_bat.jpg,,,,,0,1,1,6,,,,,69.53981525000017,,,,,,,,,,,69.37336354100012,69.53981525000017,69.53981525000017,69.53981525000017,69.53981525000017,69.53981525000017,69.53981525000017,69.53981525000017,69.53981525000017,69.53981525000017,85.10400062500003,-7,7,0,2.0,6.711448625000003,5.0,13.750871750000215,85.104145625,85.10607600000003,85.55541416599999,85.38938604100008,,,,,,,,,,,,,,,,,,,,,205,bathroom,1,2024-03-14_15h57.40.505,image_similarity_rating,2023.2.3,None,2024-03-14 15h57.51.416612 +0100,
,128,108,practice,3,stimuli/own/bathroom/128_bat.jpg,stimuli/own/bathroom/108_bat.jpg,,,,,0,2,2,2,,,,,85.55541416599999,,,,,,,,,,,85.3897474580001,85.55541416599999,85.55541416599999,85.55541416599999,85.55541416599999,85.55541416599999,85.55541416599999,85.55541416599999,85.55541416599999,85.55541416599999,97.92426366600012,7,-7,0,2.0,7.418649582999933,5.0,10.185689708999917,97.924408416,97.93412875000013,98.38458620799997,98.21869200000015,,,,,,,,,,,,,,,,,,,,,205,bathroom,1,2024-03-14_15h57.40.505,image_similarity_rating,2023.2.3,None,2024-03-14 15h57.51.416612 +0100,
,110,107,practice,4,stimuli/own/bathroom/110_bat.jpg,stimuli/own/bathroom/107_bat.jpg,,,,,0,3,3,3,,,,,98.38458620799997,,,,,,,,,,,98.21914262500013,98.38458620799997,98.38458620799997,98.38458620799997,98.38458620799997,98.38458620799997,98.38458620799997,98.38458620799997,98.38458620799997,98.38458620799997,121.26612312500015,7,-7,0,4.0,14.28250816700006,6.0,21.644810374999906,121.26629337500003,121.26906187500003,121.7183533330001,121.552013708,,,,,,,,,,,,,,,,,,,,,205,bathroom,1,2024-03-14_15h57.40.505,image_similarity_rating,2023.2.3,None,2024-03-14 15h57.51.416612 +0100,
,128,133,practice,6,stimuli/own/bathroom/128_bat.jpg,stimuli/own/bathroom/133_bat.jpg,,,,,0,4,4,5,,,,,121.7183533330001,,,,,,,,,,,121.55245987500007,121.7183533330001,121.7183533330001,121.7183533330001,121.7183533330001,121.7183533330001,121.7183533330001,121.7183533330001,121.7183533330001,121.7183533330001,140.85730470800013,-7,7,0,6.0,9.846678083999905,6.0,18.496773458000007,140.85744754100006,140.86715395800002,141.31970720800018,141.15182604100005,,,,,,,,,,,,,,,,,,,,,205,bathroom,1,2024-03-14_15h57.40.505,image_similarity_rating,2023.2.3,None,2024-03-14 15h57.51.416612 +0100,
,108,133,practice,10,stimuli/own/bathroom/108_bat.jpg,stimuli/own/bathroom/133_bat.jpg,,,,,0,5,5,9,,,,,141.31970720800018,,,,,,,,,,,141.15232041600007,141.31970720800018,141.31970720800018,141.31970720800018,141.31970720800018,141.31970720800018,141.31970720800018,141.31970720800018,141.31970720800018,141.31970720800018,164.386156541,7,-7,0,4.0,19.955692834000047,5.0,22.39842233399986,164.3863075830002,164.38822637500016,164.84020691600017,164.67258541600017,,,,,,,,,,,,,,,,,,,,,205,bathroom,1,2024-03-14_15h57.40.505,image_similarity_rating,2023.2.3,None,2024-03-14 15h57.51.416612 +0100,
,107,108,practice,5,stimuli/own/bathroom/107_bat.jpg,stimuli/own/bathroom/108_bat.jpg,,,,,0,6,6,4,,,,,164.84020691600017,,,,,,,,,,,164.67301295800007,164.84020691600017,164.84020691600017,164.84020691600017,164.84020691600017,164.84020691600017,164.84020691600017,164.84020691600017,164.84020691600017,164.84020691600017,178.88249654100014,-7,7,0,6.0,9.108736292000003,5.0,11.230841542000007,178.88265033300013,178.88525775000016,179.3357785830001,179.16825575000007,,,,,,,,,,,,,,,,,,,,,205,bathroom,1,2024-03-14_15h57.40.505,image_similarity_rating,2023.2.3,None,2024-03-14 15h57.51.416612 +0100,
,110,133,practice,1,stimuli/own/bathroom/110_bat.jpg,stimuli/own/bathroom/133_bat.jpg,,,,,0,7,7,0,,,,,179.3357785830001,,,,,,,,,,,179.16875504100017,179.3357785830001,179.3357785830001,179.3357785830001,179.3357785830001,179.3357785830001,179.3357785830001,179.3357785830001,179.3357785830001,179.3357785830001,194.51577450000013,7,-7,0,4.0,10.898781875000168,4.0,12.654885082999954,194.5159322080001,194.5187182080001,194.96687125000017,194.80162083300002,,,,,,,,,,,,,,,,,,,,,205,bathroom,1,2024-03-14_15h57.40.505,image_similarity_rating,2023.2.3,None,2024-03-14 15h57.51.416612 +0100,
,108,110,practice,8,stimuli/own/bathroom/108_bat.jpg,stimuli/own/bathroom/110_bat.jpg,,,,,0,8,8,7,,,,,194.96687125000017,,,,,,,,,,,194.802083583,194.96687125000017,194.96687125000017,194.96687125000017,194.96687125000017,194.96687125000017,194.96687125000017,194.96687125000017,194.96687125000017,194.96687125000017,219.15674304100003,-7,7,0,4.0,16.41669583299995,5.0,22.497471499999847,219.15688708300013,219.166914916,219.62234075000015,219.45148412499998,,,,,,,,,,,,,,,,,,,,,205,bathroom,1,2024-03-14_15h57.40.505,image_similarity_rating,2023.2.3,None,2024-03-14 15h57.51.416612 +0100,
,110,128,practice,2,stimuli/own/bathroom/110_bat.jpg,stimuli/own/bathroom/128_bat.jpg,,,,,0,9,9,1,,,,,219.62234075000015,,,,,,,,,,,219.451998666,219.62234075000015,219.62234075000015,219.62234075000015,219.62234075000015,219.62234075000015,219.62234075000015,219.62234075000015,219.62234075000015,219.62234075000015,234.8736597080001,7,-7,0,2.0,7.899687292000181,3.0,13.83936745799997,234.873812541,234.88387791600007,235.17413475000012,235.168098333,,,,,,,,,,,,,,,,,,,,,205,bathroom,1,2024-03-14_15h57.40.505,image_similarity_rating,2023.2.3,None,2024-03-14 15h57.51.416612 +0100,
,,,,,,,,,,,,,,,,,,,,,,,,,,,,,,,,,,,,,,,,,,,,,,,,,,,,235.1682272080002,235.17413475000012,235.17413475000012,246.40356858300015,space,11.229062916999965,None,,,,,,,,,,,,,,205,bathroom,1,2024-03-14_15h57.40.505,image_similarity_rating,2023.2.3,None,2024-03-14 15h57.51.416612 +0100,
,120,126,411,411,stimuli/own/bathroom/120_bat.jpg,stimuli/own/bathroom/126_bat.jpg,,,,,,,,,0,0,0,410,246.4554666250001,,,,,,,,,,,246.738863583,246.91330975000005,246.91330975000005,246.91330975000005,246.91330975000005,246.91330975000005,246.91330975000005,246.91330975000005,246.91330975000005,246.91330975000005,265.966111833,-7,7,1,4.0,13.05090862499992,3.0,17.834719790999998,246.453351375,246.4554666250001,246.91330975000005,246.73885133300018,,,,,,,,246.43962254100006,246.45304175,None,,,,,,,,,,,205,bathroom,1,2024-03-14_15h57.40.505,image_similarity_rating,2023.2.3,None,2024-03-14 15h57.51.416612 +0100,
,126,135,511,511,stimuli/own/bathroom/126_bat.jpg,stimuli/own/bathroom/135_bat.jpg,,,,,,,,,0,1,1,510,265.9744847080001,,,,,,,,,,,266.26777904100004,266.432257916,266.432257916,266.432257916,266.432257916,266.432257916,266.432257916,266.432257916,266.432257916,266.432257916,284.402463916,7,-7,1,3.0,5.858546416000081,2.0,16.25750066700016,265.9725291660002,265.9744847080001,266.432257916,266.26776625,,,,,,,,265.96668108300014,265.972478333,None,,,,,,,,,,,205,bathroom,1,2024-03-14_15h57.40.505,image_similarity_rating,2023.2.3,None,2024-03-14 15h57.51.416612 +0100,
,125,127,492,492,stimuli/own/bathroom/125_bat.jpg,stimuli/own/bathroom/127_bat.jpg,,,,,,,,,0,2,2,491,284.4082318750002,,,,,,,,,,,284.7011143750001,284.870018458,284.870018458,284.870018458,284.870018458,284.870018458,284.870018458,284.870018458,284.870018458,284.870018458,312.62319612500005,-7,7,1,4.0,20.384402459000057,5.0,26.75533870800018,284.40629975,284.4082318750002,284.870018458,284.7010985410002,,,,,,,,284.40269079100017,284.40625108300014,None,,,,,,,,,,,205,bathroom,1,2024-03-14_15h57.40.505,image_similarity_rating,2023.2.3,None,2024-03-14 15h57.51.416612 +0100,
,103,119,79,79,stimuli/own/bathroom/103_bat.jpg,stimuli/own/bathroom/119_bat.jpg,,,,,,,,,0,3,3,78,312.63317929100003,,,,,,,,,,,312.91774591600006,313.08532937500013,313.08532937500013,313.08532937500013,313.08532937500013,313.08532937500013,313.08532937500013,313.08532937500013,313.08532937500013,313.08532937500013,347.539482916,7,-7,1,5.0,28.548015834000125,1.0,33.073961790999874,312.62691275,312.63317929100003,313.08532937500013,312.9177312080001,,,,,,,,312.62342020799997,312.6268646660001,None,,,,,,,,,,,205,bathroom,1,2024-03-14_15h57.40.505,image_similarity_rating,2023.2.3,None,2024-03-14 15h57.51.416612 +0100,
,106,135,183,183,stimuli/own/bathroom/106_bat.jpg,stimuli/own/bathroom/135_bat.jpg,,,,,,,,,0,4,4,182,347.54969233300017,,,,,,,,,,,347.834512958,348.0064661660001,348.0064661660001,348.0064661660001,348.0064661660001,348.0064661660001,348.0064661660001,348.0064661660001,348.0064661660001,348.0064661660001,370.20190812500005,7,-7,1,2.0,20.09369170800005,1.0,15.96806116599987,347.54357025000013,347.54969233300017,348.0064661660001,347.8344926660002,,,,,,,,347.5397115410001,347.54351891600004,None,,,,,,,,,,,205,bathroom,1,2024-03-14_15h57.40.505,image_similarity_rating,2023.2.3,None,2024-03-14 15h57.51.416612 +0100,
,117,130,354,354,stimuli/own/bathroom/117_bat.jpg,stimuli/own/bathroom/130_bat.jpg,,,,,,,,,0,5,5,353,370.2075224580001,,,,,,,,,,,370.5010311660001,370.667203,370.667203,370.667203,370.667203,370.667203,370.667203,370.667203,370.667203,370.667203,384.305585458,7,-7,1,6.0,7.122918083000059,2.0,12.177347000000054,370.20575595800005,370.2075224580001,370.667203,370.5010158750001,,,,,,,,370.2021328330002,370.20570754100004,None,,,,,,,,,,,205,bathroom,1,2024-03-14_15h57.40.505,image_similarity_rating,2023.2.3,None,2024-03-14 15h57.51.416612 +0100,
,116,131,333,333,stimuli/own/bathroom/116_bat.jpg,stimuli/own/bathroom/131_bat.jpg,,,,,,,,,0,6,6,332,384.3162513750001,,,,,,,,,,,384.6006655410001,384.766514291,384.766514291,384.766514291,384.766514291,384.766514291,384.766514291,384.766514291,384.766514291,384.766514291,402.84807216600007,-7,7,1,1.0,13.924624583999957,1.0,16.53139804200009,384.309402375,384.3162513750001,384.766514291,384.600652416,,,,,,,,384.3058130410002,384.30935345800003,None,,,,,,,,,,,205,bathroom,1,2024-03-14_15h57.40.505,image_similarity_rating,2023.2.3,None,2024-03-14 15h57.51.416612 +0100,
,111,121,226,226,stimuli/own/bathroom/111_bat.jpg,stimuli/own/bathroom/121_bat.jpg,,,,,,,,,0,7,7,225,402.85378879100017,,,,,,,,,,,403.138299125,403.3098903750001,403.3098903750001,403.3098903750001,403.3098903750001,403.3098903750001,403.3098903750001,403.3098903750001,403.3098903750001,403.3098903750001,413.86517945800006,7,-7,1,5.0,6.840020832999926,7.0,8.617930042000125,402.85185037500014,402.85378879100017,403.3098903750001,403.13828541600014,,,,,,,,402.8482992500001,402.85180104100004,None,,,,,,,,,,,205,bathroom,1,2024-03-14_15h57.40.505,image_similarity_rating,2023.2.3,None,2024-03-14 15h57.51.416612 +0100,
,119,125,391,391,stimuli/own/bathroom/119_bat.jpg,stimuli/own/bathroom/125_bat.jpg,,,,,,,,,0,8,8,390,413.870896958,,,,,,,,,,,414.154597125,414.319978708,414.319978708,414.319978708,414.319978708,414.319978708,414.319978708,414.319978708,414.319978708,414.319978708,447.05203629100015,-7,7,1,4.0,27.609920916999954,2.0,31.645316875000162,413.8689500830001,413.870896958,414.319978708,414.154586375,,,,,,,,413.8654068750002,413.86890162500003,None,,,,,,,,,,,205,bathroom,1,2024-03-14_15h57.40.505,image_similarity_rating,2023.2.3,None,2024-03-14 15h57.51.416612 +0100,
,125,134,497,497,stimuli/own/bathroom/125_bat.jpg,stimuli/own/bathroom/134_bat.jpg,,,,,,,,,0,9,9,496,447.05769175,,,,,,,,,,,447.3505164160001,447.516208041,447.516208041,447.516208041,447.516208041,447.516208041,447.516208041,447.516208041,447.516208041,447.516208041,464.427162083,7,-7,1,4.0,9.39627370800008,6.0,15.449097791999975,447.0557616660001,447.05769175,447.516208041,447.3505029160001,,,,,,,,447.0522645410001,447.055713125,None,,,,,,,,,,,205,bathroom,1,2024-03-14_15h57.40.505,image_similarity_rating,2023.2.3,None,2024-03-14 15h57.51.416612 +0100,
,104,109,102,102,stimuli/own/bathroom/104_bat.jpg,stimuli/own/bathroom/109_bat.jpg,,,,,,,,,0,10,10,101,464.449382625,,,,,,,,,,,464.73337704100004,464.9054591250001,464.9054591250001,464.9054591250001,464.9054591250001,464.9054591250001,464.9054591250001,464.9054591250001,464.9054591250001,464.9054591250001,491.6815468330001,-7,7,1,6.0,18.183444500000178,6.0,25.576344415999984,464.43099125000003,464.449382625,,464.7333522910001,,,,,,,,464.427392583,464.43094325000015,None,,,,,,,,,,,205,bathroom,1,2024-03-14_15h57.40.505,image_similarity_rating,2023.2.3,None,2024-03-14 15h57.51.416612 +0100,
,106,127,177,177,stimuli/own/bathroom/106_bat.jpg,stimuli/own/bathroom/127_bat.jpg,,,,,,,,,0,11,11,176,491.6872861250001,,,,,,,,,,,491.9712597910002,492.139878875,492.139878875,492.139878875,492.139878875,492.139878875,492.139878875,492.139878875,492.139878875,492.139878875,581.4887261250001,7,-7,1,4.0,86.46841416699999,1.0,88.68969295800002,491.685513333,491.6872861250001,492.139878875,491.971245833,,,,,,,,491.68177166600003,491.685460916,None,,,,,,,,,,,205,bathroom,1,2024-03-14_15h57.40.505,image_similarity_rating,2023.2.3,None,2024-03-14 15h57.51.416612 +0100,
,123,124,460,460,stimuli/own/bathroom/123_bat.jpg,stimuli/own/bathroom/124_bat.jpg,,,,,,,,,0,12,12,459,581.4988164580002,,,,,,,,,,,581.783373083,581.951733291,581.951733291,581.951733291,581.951733291,581.951733291,581.951733291,581.951733291,581.951733291,581.951733291,596.634470666,-7,7,1,2.0,8.305970459000036,5.0,14.145117042000038,581.492691916,581.4988164580002,581.951733291,581.7833572910001,,,,,,,,581.488950333,581.492640833,None,,,,,,,,,,,205,bathroom,1,2024-03-14_15h57.40.505,image_similarity_rating,2023.2.3,None,2024-03-14 15h57.51.416612 +0100,
,130,135,544,544,stimuli/own/bathroom/130_bat.jpg,stimuli/own/bathroom/135_bat.jpg,,,,,,,,,0,13,13,543,596.6402384580001,,,,,,,,,,,596.9332838330001,597.1047074160001,597.1047074160001,597.1047074160001,597.1047074160001,597.1047074160001,597.1047074160001,597.1047074160001,597.1047074160001,597.1047074160001,631.159510083,7,-7,1,6.0,31.327350166000087,3.0,33.757877792000045,596.638289875,596.6402384580001,597.1047074160001,596.933256625,,,,,,,,596.634696458,596.638241291,None,,,,,,,,,,,205,bathroom,1,2024-03-14_15h57.40.505,image_similarity_rating,2023.2.3,None,2024-03-14 15h57.51.416612 +0100,
,101,141,34,34,stimuli/own/bathroom/101_bat.jpg,stimuli/own/bathroom/141_bat.jpg,,,,,,,,,0,14,14,33,631.1651173750001,,,,,,,,,,,631.4498243330002,631.615745541,631.615745541,631.615745541,631.615745541,631.615745541,631.615745541,631.615745541,631.615745541,631.615745541,638.9143026250001,-7,7,1,4.0,4.3162756669999,3.0,6.998933250000164,631.16323575,631.1651173750001,631.615745541,631.449810625,,,,,,,,631.159731125,631.1631876250001,None,,,,,,,,,,,205,bathroom,1,2024-03-14_15h57.40.505,image_similarity_rating,2023.2.3,None,2024-03-14 15h57.51.416612 +0100,
,106,138,186,186,stimuli/own/bathroom/106_bat.jpg,stimuli/own/bathroom/138_bat.jpg,,,,,,,,,0,15,15,185,638.91989975,,,,,,,,,,,639.2042082080002,639.375831625,639.375831625,639.375831625,639.375831625,639.375831625,639.375831625,639.375831625,639.375831625,639.375831625,646.767635125,-7,7,1,3.0,5.750642791000018,1.0,7.220150332999992,638.9180726660002,638.91989975,639.375831625,639.2041945410001,,,,,,,,638.914532583,638.9180228330001,None,,,,,,,,,,,205,bathroom,1,2024-03-14_15h57.40.505,image_similarity_rating,2023.2.3,None,2024-03-14 15h57.51.416612 +0100,
,113,119,275,275,stimuli/own/bathroom/113_bat.jpg,stimuli/own/bathroom/119_bat.jpg,,,,,,,,,0,16,16,274,646.7734215,,,,,,,,,,,647.067358083,647.2327465830001,647.2327465830001,647.2327465830001,647.2327465830001,647.2327465830001,647.2327465830001,647.2327465830001,647.2327465830001,647.2327465830001,668.192799291,7,-7,1,5.0,14.809793458000058,3.0,20.275338749999946,646.7714268330001,646.7734215,647.2327465830001,647.0673447080001,,,,,,,,646.7678580000002,646.7713779160001,None,,,,,,,,,,,205,bathroom,1,2024-03-14_15h57.40.505,image_similarity_rating,2023.2.3,None,2024-03-14 15h57.51.416612 +0100,
,105,139,158,158,stimuli/own/bathroom/105_bat.jpg,stimuli/own/bathroom/139_bat.jpg,,,,,,,,,0,17,17,157,668.198596958,,,,,,,,,,,668.4829899580002,668.6475226250002,668.6475226250002,668.6475226250002,668.6475226250002,668.6475226250002,668.6475226250002,668.6475226250002,668.6475226250002,668.6475226250002,683.5348391250002,7,-7,1,4.0,10.604515499999934,1.0,14.200372333999894,668.1965070410001,668.198596958,668.6475226250002,668.482977958,,,,,,,,668.193023708,668.1964581250002,None,,,,,,,,,,,205,bathroom,1,2024-03-14_15h57.40.505,image_similarity_rating,2023.2.3,None,2024-03-14 15h57.51.416612 +0100,
,106,112,163,163,stimuli/own/bathroom/106_bat.jpg,stimuli/own/bathroom/112_bat.jpg,,,,,,,,,0,18,18,162,683.5403187080001,,,,,,,,,,,683.8330331250002,684.00382425,684.00382425,684.00382425,684.00382425,684.00382425,684.00382425,684.00382425,684.00382425,684.00382425,697.8261660830001,-7,7,1,3.0,12.027020499999935,2.0,13.523150749999786,683.538550125,683.5403187080001,684.00382425,683.8330170830002,,,,,,,,683.535062833,683.5385022500002,None,,,,,,,,,,,205,bathroom,1,2024-03-14_15h57.40.505,image_similarity_rating,2023.2.3,None,2024-03-14 15h57.51.416612 +0100,
,119,132,397,397,stimuli/own/bathroom/119_bat.jpg,stimuli/own/bathroom/132_bat.jpg,,,,,,,,,0,19,19,396,697.8482531250002,,,,,,,,,,,698.132482166,698.296961,698.296961,698.296961,698.296961,698.296961,698.296961,698.296961,698.296961,698.296961,712.513727041,7,-7,1,5.0,14.090867500000058,3.0,12.422320457999831,697.8298930410001,697.8482531250002,,698.132463208,,,,,,,,697.8263933750002,697.8298447500001,None,,,,,,,,,,,205,bathroom,1,2024-03-14_15h57.40.505,image_similarity_rating,2023.2.3,None,2024-03-14 15h57.51.416612 +0100,
,117,125,350,350,stimuli/own/bathroom/117_bat.jpg,stimuli/own/bathroom/125_bat.jpg,,,,,,,,,0,20,20,349,712.5194341250001,,,,,,,,,,,712.803609666,712.9703545,712.9703545,712.9703545,712.9703545,712.9703545,712.9703545,712.9703545,712.9703545,712.9703545,720.1839462080002,-7,7,1,4.0,5.945348707999983,3.0,7.063257625000006,712.5175086250001,712.5194341250001,712.9703545,712.8035970000001,,,,,,,,712.5139799580002,712.517455125,None,,,,,,,,,,,205,bathroom,1,2024-03-14_15h57.40.505,image_similarity_rating,2023.2.3,None,2024-03-14 15h57.51.416612 +0100,
,109,137,213,213,stimuli/own/bathroom/109_bat.jpg,stimuli/own/bathroom/137_bat.jpg,,,,,,,,,0,21,21,212,720.1897082080002,,,,,,,,,,,720.482837625,720.6490327500001,720.6490327500001,720.6490327500001,720.6490327500001,720.6490327500001,720.6490327500001,720.6490327500001,720.6490327500001,720.6490327500001,733.3257633750002,-7,7,1,2.0,10.623947541999996,1.0,12.427572750000081,720.1877732500002,720.1897082080002,720.6490327500001,720.482822083,,,,,,,,720.184171416,720.187722916,None,,,,,,,,,,,205,bathroom,1,2024-03-14_15h57.40.505,image_similarity_rating,2023.2.3,None,2024-03-14 15h57.51.416612 +0100,
,123,125,461,461,stimuli/own/bathroom/123_bat.jpg,stimuli/own/bathroom/125_bat.jpg,,,,,,,,,0,22,22,460,733.331422833,,,,,,,,,,,733.6162158330001,733.7806337500001,733.7806337500001,733.7806337500001,733.7806337500001,733.7806337500001,733.7806337500001,733.7806337500001,733.7806337500001,733.7806337500001,744.7380244580002,-7,7,1,4.0,6.90815545800001,2.0,10.747772166000004,733.3295774160001,733.331422833,733.7806337500001,733.6161992500001,,,,,,,,733.3259863750002,733.329528791,None,,,,,,,,,,,205,bathroom,1,2024-03-14_15h57.40.505,image_similarity_rating,2023.2.3,None,2024-03-14 15h57.51.416612 +0100,
,105,117,138,138,stimuli/own/bathroom/105_bat.jpg,stimuli/own/bathroom/117_bat.jpg,,,,,,,,,0,23,23,137,744.7484859160002,,,,,,,,,,,745.0326770830002,745.2028865,745.2028865,745.2028865,745.2028865,745.2028865,745.2028865,745.2028865,745.2028865,745.2028865,757.3511766250001,7,-7,1,5.0,9.919832499999984,3.0,12.038127667000026,744.7417360410002,744.7484859160002,745.2028865,745.0326615410002,,,,,,,,744.7382453330001,744.7416874580001,None,,,,,,,,,,,205,bathroom,1,2024-03-14_15h57.40.505,image_similarity_rating,2023.2.3,None,2024-03-14 15h57.51.416612 +0100,
,105,131,151,151,stimuli/own/bathroom/105_bat.jpg,stimuli/own/bathroom/131_bat.jpg,,,,,,,,,0,24,24,150,757.3569540410001,,,,,,,,,,,757.64922875,757.818329833,757.818329833,757.818329833,757.818329833,757.818329833,757.818329833,757.818329833,757.818329833,757.818329833,769.951169791,7,-7,1,1.0,9.715120125000112,1.0,11.945864791000076,757.355025416,757.3569540410001,757.818329833,757.6492083750002,,,,,,,,757.3513998330002,757.3549770000002,None,,,,,,,,,,,205,bathroom,1,2024-03-14_15h57.40.505,image_similarity_rating,2023.2.3,None,2024-03-14 15h57.51.416612 +0100,
,104,113,105,105,stimuli/own/bathroom/104_bat.jpg,stimuli/own/bathroom/113_bat.jpg,,,,,,,,,0,25,25,104,769.9566790000001,,,,,,,,,,,770.249130375,770.4159151660001,770.4159151660001,770.4159151660001,770.4159151660001,770.4159151660001,770.4159151660001,770.4159151660001,770.4159151660001,770.4159151660001,778.713162666,-7,7,1,4.0,6.417794125,1.0,8.174529209000184,769.9548751660002,769.9566790000001,770.4159151660001,770.2491164160001,,,,,,,,769.9513992500001,769.954826875,None,,,,,,,,,,,205,bathroom,1,2024-03-14_15h57.40.505,image_similarity_rating,2023.2.3,None,2024-03-14 15h57.51.416612 +0100,
,118,141,385,385,stimuli/own/bathroom/118_bat.jpg,stimuli/own/bathroom/141_bat.jpg,,,,,,,,,0,26,26,384,778.7190210830001,,,,,,,,,,,779.002637,779.1660139580001,779.1660139580001,779.1660139580001,779.1660139580001,779.1660139580001,779.1660139580001,779.1660139580001,779.1660139580001,779.1660139580001,791.1256364580001,7,-7,1,3.0,10.805640791000087,1.0,8.176163459000009,778.7169240830001,778.7190210830001,779.1660139580001,779.0026272080001,,,,,,,,778.713395791,778.716876083,None,,,,,,,,,,,205,bathroom,1,2024-03-14_15h57.40.505,image_similarity_rating,2023.2.3,None,2024-03-14 15h57.51.416612 +0100,
,116,123,326,326,stimuli/own/bathroom/116_bat.jpg,stimuli/own/bathroom/123_bat.jpg,,,,,,,,,0,27,27,325,791.148131916,,,,,,,,,,,791.4320465410001,791.598341291,791.598341291,791.598341291,791.598341291,791.598341291,791.598341291,791.598341291,791.598341291,791.598341291,803.000314375,7,-7,1,3.0,10.825180042000056,4.0,5.310743208000076,791.1293776250002,791.148131916,,791.4320272500001,,,,,,,,791.1258708330001,791.129329375,None,,,,,,,,,,,205,bathroom,1,2024-03-14_15h57.40.505,image_similarity_rating,2023.2.3,None,2024-03-14 15h57.51.416612 +0100,
,137,138,586,586,stimuli/own/bathroom/137_bat.jpg,stimuli/own/bathroom/138_bat.jpg,,,,,,,,,0,28,28,585,803.0060496250001,,,,,,,,,,,803.2990697500002,803.463479,803.463479,803.463479,803.463479,803.463479,803.463479,803.463479,803.463479,803.463479,809.7259488330001,7,-7,1,3.0,5.507340749999912,1.0,2.4422932499999206,803.0042734580002,803.0060496250001,803.463479,803.2990573330001,,,,,,,,803.0005401660001,803.0042223750002,None,,,,,,,,,,,205,bathroom,1,2024-03-14_15h57.40.505,image_similarity_rating,2023.2.3,None,2024-03-14 15h57.51.416612 +0100,
,104,137,126,126,stimuli/own/bathroom/104_bat.jpg,stimuli/own/bathroom/137_bat.jpg,,,,,,,,,0,29,29,125,809.747794375,,,,,,,,,,,810.0320445,810.2031946250002,810.2031946250002,810.2031946250002,810.2031946250002,810.2031946250002,810.2031946250002,810.2031946250002,810.2031946250002,810.2031946250002,831.087714791,-7,7,1,3.0,18.5187881249999,2.0,20.510001833999922,809.72978375,809.747794375,,810.032016375,,,,,,,,809.7261755000002,809.729735416,None,,,,,,,,,,,205,bathroom,1,2024-03-14_15h57.40.505,image_similarity_rating,2023.2.3,None,2024-03-14 15h57.51.416612 +0100,
,123,130,465,465,stimuli/own/bathroom/123_bat.jpg,stimuli/own/bathroom/130_bat.jpg,,,,,,,,,0,30,30,464,831.09788925,,,,,,,,,,,831.382365166,831.546961,831.546961,831.546961,831.546961,831.546961,831.546961,831.546961,831.546961,831.546961,841.433613833,-7,7,1,4.0,4.787698041000112,5.0,9.487872165999988,831.091517583,831.09788925,831.546961,831.3823522910002,,,,,,,,831.0879386660001,831.0914695000001,None,,,,,,,,,,,205,bathroom,1,2024-03-14_15h57.40.505,image_similarity_rating,2023.2.3,None,2024-03-14 15h57.51.416612 +0100,
,113,117,273,273,stimuli/own/bathroom/113_bat.jpg,stimuli/own/bathroom/117_bat.jpg,,,,,,,,,0,31,31,272,841.439244833,,,,,,,,,,,841.7322804580001,841.8990925410001,841.8990925410001,841.8990925410001,841.8990925410001,841.8990925410001,841.8990925410001,841.8990925410001,841.8990925410001,841.8990925410001,854.2005239160001,7,-7,1,6.0,7.041036667000071,3.0,11.85022329100002,841.437317958,841.439244833,841.8990925410001,841.7322663750001,,,,,,,,841.4338426250001,841.4372692910001,None,,,,,,,,,,,205,bathroom,1,2024-03-14_15h57.40.505,image_similarity_rating,2023.2.3,None,2024-03-14 15h57.51.416612 +0100,
,130,139,548,548,stimuli/own/bathroom/130_bat.jpg,stimuli/own/bathroom/139_bat.jpg,,,,,,,,,0,32,32,547,854.20604925,,,,,,,,,,,854.4989994160001,854.6649552910001,854.6649552910001,854.6649552910001,854.6649552910001,854.6649552910001,854.6649552910001,854.6649552910001,854.6649552910001,854.6649552910001,866.7834357500001,7,-7,1,5.0,7.290892416000133,3.0,11.439732667000044,854.2042216660002,854.20604925,854.6649552910001,854.498981833,,,,,,,,854.2007499580002,854.2041729580001,None,,,,,,,,,,,205,bathroom,1,2024-03-14_15h57.40.505,image_similarity_rating,2023.2.3,None,2024-03-14 15h57.51.416612 +0100,
,101,121,16,16,stimuli/own/bathroom/101_bat.jpg,stimuli/own/bathroom/121_bat.jpg,,,,,,,,,0,33,33,15,866.7889245000001,,,,,,,,,,,867.082265541,867.251058458,867.251058458,867.251058458,867.251058458,867.251058458,867.251058458,867.251058458,867.251058458,867.251058458,879.4544611660001,7,-7,1,4.0,7.626165540999864,1.0,12.010695666999936,866.787155,866.7889245000001,867.251058458,867.082250208,,,,,,,,866.7836721250001,866.7871072080002,None,,,,,,,,,,,205,bathroom,1,2024-03-14_15h57.40.505,image_similarity_rating,2023.2.3,None,2024-03-14 15h57.51.416612 +0100,
,119,137,401,401,stimuli/own/bathroom/119_bat.jpg,stimuli/own/bathroom/137_bat.jpg,,,,,,,,,0,34,34,400,879.4642437500002,,,,,,,,,,,879.748917916,879.9193915830001,879.9193915830001,879.9193915830001,879.9193915830001,879.9193915830001,879.9193915830001,879.9193915830001,879.9193915830001,879.9193915830001,888.2467685410002,7,-7,1,3.0,3.725511458000028,6.0,7.659501792000128,879.4581795830002,879.4642437500002,879.9193915830001,879.7488983330002,,,,,,,,879.454691958,879.4581284160001,None,,,,,,,,,,,205,bathroom,1,2024-03-14_15h57.40.505,image_similarity_rating,2023.2.3,None,2024-03-14 15h57.51.416612 +0100,
,102,138,64,64,stimuli/own/bathroom/102_bat.jpg,stimuli/own/bathroom/138_bat.jpg,,,,,,,,,0,35,35,63,888.2524365000002,,,,,,,,,,,888.5361,888.7015887910002,888.7015887910002,888.7015887910002,888.7015887910002,888.7015887910002,888.7015887910002,888.7015887910002,888.7015887910002,888.7015887910002,898.3415607910001,-7,7,1,4.0,6.866746666999916,1.0,9.310450749999973,888.2505202910002,888.2524365000002,888.7015887910002,888.536083166,,,,,,,,888.2469927910001,888.2504717910001,None,,,,,,,,,,,205,bathroom,1,2024-03-14_15h57.40.505,image_similarity_rating,2023.2.3,None,2024-03-14 15h57.51.416612 +0100,
,112,138,267,267,stimuli/own/bathroom/112_bat.jpg,stimuli/own/bathroom/138_bat.jpg,,,,,,,,,0,36,36,266,898.3472010410001,,,,,,,,,,,898.63219875,898.7972711250002,898.7972711250002,898.7972711250002,898.7972711250002,898.7972711250002,898.7972711250002,898.7972711250002,898.7972711250002,898.7972711250002,906.104208208,7,-7,1,6.0,4.737936249999848,1.0,6.234859167000195,898.3452815830001,898.3472010410001,898.7972711250002,898.6321848750001,,,,,,,,898.3417952910002,898.345232916,None,,,,,,,,,,,205,bathroom,1,2024-03-14_15h57.40.505,image_similarity_rating,2023.2.3,None,2024-03-14 15h57.51.416612 +0100,
,127,134,522,522,stimuli/own/bathroom/127_bat.jpg,stimuli/own/bathroom/134_bat.jpg,,,,,,,,,0,37,37,521,906.1141112080002,,,,,,,,,,,906.39879875,906.563895083,906.563895083,906.563895083,906.563895083,906.563895083,906.563895083,906.563895083,906.563895083,906.563895083,918.1998745830001,-7,7,1,4.0,6.169838459000175,5.0,10.749987916999999,906.107930458,906.1141112080002,906.563895083,906.3987715000001,,,,,,,,906.1044341250001,906.107881166,None,,,,,,,,,,,205,bathroom,1,2024-03-14_15h57.40.505,image_similarity_rating,2023.2.3,None,2024-03-14 15h57.51.416612 +0100,
,135,136,575,575,stimuli/own/bathroom/135_bat.jpg,stimuli/own/bathroom/136_bat.jpg,,,,,,,,,0,38,38,574,918.2055888330001,,,,,,,,,,,918.498680791,918.6633964580001,918.6633964580001,918.6633964580001,918.6633964580001,918.6633964580001,918.6633964580001,918.6633964580001,918.6633964580001,918.6633964580001,926.441649958,7,-7,1,5.0,4.5917365000000245,4.0,7.392982999999958,918.203669083,918.2055888330001,918.6633964580001,918.4986657910001,,,,,,,,918.200100708,918.2036202500001,None,,,,,,,,,,,205,bathroom,1,2024-03-14_15h57.40.505,image_similarity_rating,2023.2.3,None,2024-03-14 15h57.51.416612 +0100,
,101,106,5,5,stimuli/own/bathroom/101_bat.jpg,stimuli/own/bathroom/106_bat.jpg,,,,,,,,,0,39,39,4,926.4475106250002,,,,,,,,,,,926.7321106250001,926.8984822080001,926.8984822080001,926.8984822080001,926.8984822080001,926.8984822080001,926.8984822080001,926.8984822080001,926.8984822080001,926.8984822080001,935.2998776250001,7,-7,1,2.0,5.01067929099986,1.0,7.779765750000024,926.4453591250001,926.4475106250002,926.8984822080001,926.73209625,,,,,,,,926.441877,926.445311166,None,,,,,,,,,,,205,bathroom,1,2024-03-14_15h57.40.505,image_similarity_rating,2023.2.3,None,2024-03-14 15h57.51.416612 +0100,
,113,136,290,290,stimuli/own/bathroom/113_bat.jpg,stimuli/own/bathroom/136_bat.jpg,,,,,,,,,0,40,40,289,935.305499,,,,,,,,,,,935.5986184160001,935.7662719580001,935.7662719580001,935.7662719580001,935.7662719580001,935.7662719580001,935.7662719580001,935.7662719580001,935.7662719580001,935.7662719580001,948.996033958,7,-7,1,4.0,6.4539826249999805,5.0,12.30505283299999,935.3035722500001,935.305499,935.7662719580001,935.598602583,,,,,,,,935.3001020830002,935.303523625,None,,,,,,,,,,,205,bathroom,1,2024-03-14_15h57.40.505,image_similarity_rating,2023.2.3,None,2024-03-14 15h57.51.416612 +0100,
,124,141,490,490,stimuli/own/bathroom/124_bat.jpg,stimuli/own/bathroom/141_bat.jpg,,,,,,,,,0,41,41,489,949.0016296660001,,,,,,,,,,,949.2862144160001,949.4548233750002,949.4548233750002,949.4548233750002,949.4548233750002,949.4548233750002,949.4548233750002,949.4548233750002,949.4548233750002,949.4548233750002,960.5374617910002,-7,7,1,5.0,5.133030082999994,4.0,10.199605958999882,948.999839625,949.0016296660001,949.4548233750002,949.2861976250001,,,,,,,,948.9962795000001,948.999790458,None,,,,,,,,,,,205,bathroom,1,2024-03-14_15h57.40.505,image_similarity_rating,2023.2.3,None,2024-03-14 15h57.51.416612 +0100,
,105,114,136,136,stimuli/own/bathroom/105_bat.jpg,stimuli/own/bathroom/114_bat.jpg,,,,,,,,,0,42,42,135,960.5473838750002,,,,,,,,,,,960.8318503330001,961.00224725,961.00224725,961.00224725,961.00224725,961.00224725,961.00224725,961.00224725,961.00224725,961.00224725,974.2258120830002,-7,7,1,4.0,7.252453625000044,4.0,12.811177041000064,960.5411898750001,960.5473838750002,961.00224725,960.8318300000001,,,,,,,,960.537685541,960.5411410830002,None,,,,,,,,,,,205,bathroom,1,2024-03-14_15h57.40.505,image_similarity_rating,2023.2.3,None,2024-03-14 15h57.51.416612 +0100,
,119,139,403,403,stimuli/own/bathroom/119_bat.jpg,stimuli/own/bathroom/139_bat.jpg,,,,,,,,,0,43,43,402,974.232137208,,,,,,,,,,,974.5150965830001,974.681613083,974.681613083,974.681613083,974.681613083,974.681613083,974.681613083,974.681613083,974.681613083,974.681613083,982.295758,7,-7,1,6.0,4.190828709000016,7.0,7.450412874999984,974.229517791,974.232137208,974.681613083,974.5150825830001,,,,,,,,974.2260357500002,974.2294594580001,None,,,,,,,,,,,205,bathroom,1,2024-03-14_15h57.40.505,image_similarity_rating,2023.2.3,None,2024-03-14 15h57.51.416612 +0100,
,120,129,413,413,stimuli/own/bathroom/120_bat.jpg,stimuli/own/bathroom/129_bat.jpg,,,,,,,,,0,44,44,412,982.3013828330002,,,,,,,,,,,982.5860419580001,982.7562834160001,982.7562834160001,982.7562834160001,982.7562834160001,982.7562834160001,982.7562834160001,982.7562834160001,982.7562834160001,982.7562834160001,992.046170416,-7,7,1,6.0,4.884214832999987,3.0,8.816433000000188,982.2996175410001,982.3013828330002,982.7562834160001,982.586028291,,,,,,,,982.2959813330001,982.299569083,None,,,,,,,,,,,205,bathroom,1,2024-03-14_15h57.40.505,image_similarity_rating,2023.2.3,None,2024-03-14 15h57.51.416612 +0100,
,126,130,507,507,stimuli/own/bathroom/126_bat.jpg,stimuli/own/bathroom/130_bat.jpg,,,,,,,,,0,45,45,506,992.0518361660002,,,,,,,,,,,992.336079291,992.5074496660002,992.5074496660002,992.5074496660002,992.5074496660002,992.5074496660002,992.5074496660002,992.5074496660002,992.5074496660002,992.5074496660002,1005.6124483330002,-7,7,1,4.0,12.66871274999994,6.0,5.900905916000056,992.0498931250002,992.0518361660002,992.5074496660002,992.3360633750001,,,,,,,,992.0464067500002,992.0498447080001,None,,,,,,,,,,,205,bathroom,1,2024-03-14_15h57.40.505,image_similarity_rating,2023.2.3,None,2024-03-14 15h57.51.416612 +0100,
,124,135,484,484,stimuli/own/bathroom/124_bat.jpg,stimuli/own/bathroom/135_bat.jpg,,,,,,,,,0,46,46,483,1005.618108166,,,,,,,,,,,1005.9029345000001,1006.071567833,1006.071567833,1006.071567833,1006.071567833,1006.071567833,1006.071567833,1006.071567833,1006.071567833,1006.071567833,1018.4371037080002,-7,7,1,4.0,7.481960874999913,3.0,12.065843958000187,1005.6161790829999,1005.618108166,1006.071567833,1005.9029210000001,,,,,,,,1005.6126725830002,1005.6161304160003,None,,,,,,,,,,,205,bathroom,1,2024-03-14_15h57.40.505,image_similarity_rating,2023.2.3,None,2024-03-14 15h57.51.416612 +0100,
,129,135,534,534,stimuli/own/bathroom/129_bat.jpg,stimuli/own/bathroom/135_bat.jpg,,,,,,,,,0,47,47,533,1018.4471389580001,,,,,,,,,,,1018.731647333,1018.8974000000001,1018.8974000000001,1018.8974000000001,1018.8974000000001,1018.8974000000001,1018.8974000000001,1018.8974000000001,1018.8974000000001,1018.8974000000001,1031.3081318750003,7,-7,1,5.0,9.241551667000294,4.0,11.034760374999678,1018.4407999160001,1018.4471389580001,1018.8974000000001,1018.731632541,,,,,,,,1018.4373289580001,1018.440751458,None,,,,,,,,,,,205,bathroom,1,2024-03-14_15h57.40.505,image_similarity_rating,2023.2.3,None,2024-03-14 15h57.51.416612 +0100,
,118,125,371,371,stimuli/own/bathroom/118_bat.jpg,stimuli/own/bathroom/125_bat.jpg,,,,,,,,,0,48,48,370,1031.3303027499999,,,,,,,,,,,1031.614472125,1031.787016208,1031.787016208,1031.787016208,1031.787016208,1031.787016208,1031.787016208,1031.787016208,1031.787016208,1031.787016208,1041.5035621250001,7,-7,1,5.0,5.87273362499991,2.0,9.481131625000216,1031.3119517080002,1031.3303027499999,,1031.6144515409999,,,,,,,,1031.3083640000002,1031.3119007080002,None,,,,,,,,,,,205,bathroom,1,2024-03-14_15h57.40.505,image_similarity_rating,2023.2.3,None,2024-03-14 15h57.51.416612 +0100,
,121,122,425,425,stimuli/own/bathroom/121_bat.jpg,stimuli/own/bathroom/122_bat.jpg,,,,,,,,,0,49,49,424,1041.51373975,,,,,,,,,,,1041.798352208,1041.9699671660003,1041.9699671660003,1041.9699671660003,1041.9699671660003,1041.9699671660003,1041.9699671660003,1041.9699671660003,1041.9699671660003,1041.9699671660003,1049.4995081250001,7,-7,1,5.0,4.849666707999859,1.0,7.158152292000068,1041.5072337080003,1041.51373975,1041.9699671660003,1041.7983314159999,,,,,,,,1041.503784791,1041.5071864580002,None,,,,,,,,,,,205,bathroom,1,2024-03-14_15h57.40.505,image_similarity_rating,2023.2.3,None,2024-03-14 15h57.51.416612 +0100,
,135,138,577,577,stimuli/own/bathroom/135_bat.jpg,stimuli/own/bathroom/138_bat.jpg,,,,,,,,,0,50,50,576,1049.504923916,,,,,,,,,,,1049.798210916,1049.964284041,1049.964284041,1049.964284041,1049.964284041,1049.964284041,1049.964284041,1049.964284041,1049.964284041,1049.964284041,1055.679019,7,-7,1,5.0,5.347166000000016,1.0,2.196482083999854,1049.503178791,1049.504923916,1049.964284041,1049.798192333,,,,,,,,1049.4997329999999,1049.5031308750001,None,,,,,,,,,,,205,bathroom,1,2024-03-14_15h57.40.505,image_similarity_rating,2023.2.3,None,2024-03-14 15h57.51.416612 +0100,
,124,127,478,478,stimuli/own/bathroom/124_bat.jpg,stimuli/own/bathroom/127_bat.jpg,,,,,,,,,0,51,51,477,1055.6846643330002,,,,,,,,,,,1055.9686843330003,1056.131851666,1056.131851666,1056.131851666,1056.131851666,1056.131851666,1056.131851666,1056.131851666,1056.131851666,1056.131851666,1066.041020333,7,-7,1,5.0,9.518082416000198,3.0,5.212112249999791,1055.68285975,1055.6846643330002,1056.131851666,1055.9686734580002,,,,,,,,1055.6792484999999,1055.6828119160002,None,,,,,,,,,,,205,bathroom,1,2024-03-14_15h57.40.505,image_similarity_rating,2023.2.3,None,2024-03-14 15h57.51.416612 +0100,
,111,124,229,229,stimuli/own/bathroom/111_bat.jpg,stimuli/own/bathroom/124_bat.jpg,,,,,,,,,0,52,52,228,1066.0465984160003,,,,,,,,,,,1066.331619375,1066.49934225,1066.49934225,1066.49934225,1066.49934225,1066.49934225,1066.49934225,1066.49934225,1066.49934225,1066.49934225,1072.7911956250002,7,-7,1,4.0,3.784784917000252,3.0,6.129286291999961,1066.0447014160002,1066.0465984160003,1066.49934225,1066.3315989160003,,,,,,,,1066.0412445,1066.0446531660002,None,,,,,,,,,,,205,bathroom,1,2024-03-14_15h57.40.505,image_similarity_rating,2023.2.3,None,2024-03-14 15h57.51.416612 +0100,
,118,121,367,367,stimuli/own/bathroom/118_bat.jpg,stimuli/own/bathroom/121_bat.jpg,,,,,,,,,0,53,53,366,1072.796815,,,,,,,,,,,1073.081465333,1073.2463945830002,1073.2463945830002,1073.2463945830002,1073.2463945830002,1073.2463945830002,1073.2463945830002,1073.2463945830002,1073.2463945830002,1073.2463945830002,1081.32877475,7,-7,1,3.0,7.490706666999813,1.0,2.0340656249995845,1072.794878458,1072.796815,1073.2463945830002,1073.081448708,,,,,,,,1072.7914161250003,1072.794830041,None,,,,,,,,,,,205,bathroom,1,2024-03-14_15h57.40.505,image_similarity_rating,2023.2.3,None,2024-03-14 15h57.51.416612 +0100,
,116,121,324,324,stimuli/own/bathroom/116_bat.jpg,stimuli/own/bathroom/121_bat.jpg,,,,,,,,,0,54,54,323,1081.3342666250003,,,,,,,,,,,1081.618988,1081.7840910000002,1081.7840910000002,1081.7840910000002,1081.7840910000002,1081.7840910000002,1081.7840910000002,1081.7840910000002,1081.7840910000002,1081.7840910000002,1094.995601416,-7,7,1,2.0,7.344190666000031,1.0,12.974828957999762,1081.3325147080002,1081.3342666250003,1081.7840910000002,1081.618977083,,,,,,,,1081.3289981250002,1081.3324666250003,None,,,,,,,,,,,205,bathroom,1,2024-03-14_15h57.40.505,image_similarity_rating,2023.2.3,None,2024-03-14 15h57.51.416612 +0100,
,112,132,262,611,stimuli/own/bathroom/112_bat.jpg,stimuli/own/bathroom/132_bat.jpg,,,,,,,,,0,55,55,610,1095.001251458,,,,,,,,,,,1095.286560375,1095.4554581660002,1095.4554581660002,1095.4554581660002,1095.4554581660002,1095.4554581660002,1095.4554581660002,1095.4554581660002,1095.4554581660002,1095.4554581660002,1103.3836155410002,-7,7,1,4.0,4.069028542000069,2.0,7.454023916999631,1094.999318416,1095.001251458,1095.4554581660002,1095.2865462500001,,,,,,,,1094.9958382910002,1094.9992694580003,None,,,,,,,,,,,205,bathroom,1,2024-03-14_15h57.40.505,image_similarity_rating,2023.2.3,None,2024-03-14 15h57.51.416612 +0100,
,112,126,257,257,stimuli/own/bathroom/112_bat.jpg,stimuli/own/bathroom/126_bat.jpg,,,,,,,,,0,56,56,256,1103.389547333,,,,,,,,,,,1103.681317791,1103.8461572080002,1103.8461572080002,1103.8461572080002,1103.8461572080002,1103.8461572080002,1103.8461572080002,1103.8461572080002,1103.8461572080002,1103.8461572080002,1114.5911950410002,-7,7,1,2.0,9.781024166999941,6.0,4.592171792000045,1103.387455625,1103.389547333,1103.8461572080002,1103.681302916,,,,,,,,1103.3838546250001,1103.3874062080001,None,,,,,,,,,,,205,bathroom,1,2024-03-14_15h57.40.505,image_similarity_rating,2023.2.3,None,2024-03-14 15h57.51.416612 +0100,
,101,135,28,28,stimuli/own/bathroom/101_bat.jpg,stimuli/own/bathroom/135_bat.jpg,,,,,,,,,0,57,57,27,1114.6134572080002,,,,,,,,,,,1114.897513833,1115.064223791,1115.064223791,1115.064223791,1115.064223791,1115.064223791,1115.064223791,1115.064223791,1115.064223791,1115.064223791,1126.6748399159999,-7,7,1,5.0,9.255624917000205,3.0,10.608626124999773,1114.5948732080003,1114.6134572080002,,1114.897494125,,,,,,,,1114.5914205410002,1114.5948246660002,None,,,,,,,,,,,205,bathroom,1,2024-03-14_15h57.40.505,image_similarity_rating,2023.2.3,None,2024-03-14 15h57.51.416612 +0100,
,106,123,173,173,stimuli/own/bathroom/106_bat.jpg,stimuli/own/bathroom/123_bat.jpg,,,,,,,,,0,58,58,172,1126.696864791,,,,,,,,,,,1126.9808060000003,1127.1527548750003,1127.1527548750003,1127.1527548750003,1127.1527548750003,1127.1527548750003,1127.1527548750003,1127.1527548750003,1127.1527548750003,1127.1527548750003,1133.249120625,-7,7,1,2.0,4.811159500000031,1.0,2.8555824159998338,1126.678520625,1126.696864791,,1126.980770541,,,,,,,,1126.675067166,1126.678472416,None,,,,,,,,,,,205,bathroom,1,2024-03-14_15h57.40.505,image_similarity_rating,2023.2.3,None,2024-03-14 15h57.51.416612 +0100,
,112,129,259,259,stimuli/own/bathroom/112_bat.jpg,stimuli/own/bathroom/129_bat.jpg,,,,,,,,,0,59,59,258,1133.254897041,,,,,,,,,,,1133.548021458,1133.7182099580002,1133.7182099580002,1133.7182099580002,1133.7182099580002,1133.7182099580002,1133.7182099580002,1133.7182099580002,1133.7182099580002,1133.7182099580002,1153.9450101250002,-7,7,1,6.0,19.895414416999756,2.0,13.317207500000222,1133.252800291,1133.254897041,1133.7182099580002,1133.5480062500003,,,,,,,,1133.2493443750002,1133.2527524580003,None,,,,,,,,,,,205,bathroom,1,2024-03-14_15h57.40.505,image_similarity_rating,2023.2.3,None,2024-03-14 15h57.51.416612 +0100,
,109,131,208,208,stimuli/own/bathroom/109_bat.jpg,stimuli/own/bathroom/131_bat.jpg,,,,,,,,,0,60,60,207,1153.950694625,,,,,,,,,,,1154.23550375,1154.4043987910002,1154.4043987910002,1154.4043987910002,1154.4043987910002,1154.4043987910002,1154.4043987910002,1154.4043987910002,1154.4043987910002,1154.4043987910002,1158.957887833,7,-7,1,1.0,3.128519000000324,1.0,3.867398874999708,1153.948758416,1153.950694625,1154.4043987910002,1154.2354883330001,,,,,,,,1153.945244833,1153.94871025,None,,,,,,,,,,,205,bathroom,1,2024-03-14_15h57.40.505,image_similarity_rating,2023.2.3,None,2024-03-14 15h57.51.416612 +0100,
,109,130,207,207,stimuli/own/bathroom/109_bat.jpg,stimuli/own/bathroom/130_bat.jpg,,,,,,,,,0,61,61,206,1158.979848958,,,,,,,,,,,1159.263812125,1159.4332469580002,1159.4332469580002,1159.4332469580002,1159.4332469580002,1159.4332469580002,1159.4332469580002,1159.4332469580002,1159.4332469580002,1159.4332469580002,1174.0532996250001,-7,7,1,5.0,9.951244875000157,1.0,5.132627208000031,1158.961581833,1158.979848958,,1159.263791958,,,,,,,,1158.9581084160002,1158.961533333,None,,,,,,,,,,,205,bathroom,1,2024-03-14_15h57.40.505,image_similarity_rating,2023.2.3,None,2024-03-14 15h57.51.416612 +0100,
,114,116,296,296,stimuli/own/bathroom/114_bat.jpg,stimuli/own/bathroom/116_bat.jpg,,,,,,,,,0,62,62,295,1174.06329325,,,,,,,,,,,1174.3477756660002,1174.5136801250003,1174.5136801250003,1174.5136801250003,1174.5136801250003,1174.5136801250003,1174.5136801250003,1174.5136801250003,1174.5136801250003,1174.5136801250003,1181.715585791,7,-7,1,4.0,4.271195540999997,1.0,6.030295125000066,1174.0570072910002,1174.06329325,1174.5136801250003,1174.347757583,,,,,,,,1174.0535242080002,1174.056959375,None,,,,,,,,,,,205,bathroom,1,2024-03-14_15h57.40.505,image_similarity_rating,2023.2.3,None,2024-03-14 15h57.51.416612 +0100,
,120,141,424,424,stimuli/own/bathroom/120_bat.jpg,stimuli/own/bathroom/141_bat.jpg,,,,,,,,,0,63,63,423,1181.721592916,,,,,,,,,,,1198.202619208,1198.374451,1198.374451,1198.374451,1198.374451,1198.374451,1198.374451,1198.374451,1198.374451,1198.374451,1214.7073816250002,-7,7,2,5.0,9.619916333999754,4.0,15.247253790999821,1197.9152177500002,1197.9188582080003,1198.374451,1198.2026053330003,,,,,,,,1181.7158119580001,1197.9138837080002,space,1181.721592916,16.192132582999875,None,,,,,,,,205,bathroom,1,2024-03-14_15h57.40.505,image_similarity_rating,2023.2.3,None,2024-03-14 15h57.51.416612 +0100,
,121,129,431,431,stimuli/own/bathroom/121_bat.jpg,stimuli/own/bathroom/129_bat.jpg,,,,,,,,,0,64,64,430,1214.7295835830002,,,,,,,,,,,1215.0138637910002,1215.186158833,1215.186158833,1215.186158833,1215.186158833,1215.186158833,1215.186158833,1215.186158833,1215.186158833,1215.186158833,1223.011503208,-7,7,2,5.0,4.497223625000061,3.0,7.576634582999759,1214.711615458,1214.7295835830002,,1215.01383925,,,,,,,,1214.7076062910003,1214.7115665,None,,,,,,,,,,,205,bathroom,1,2024-03-14_15h57.40.505,image_similarity_rating,2023.2.3,None,2024-03-14 15h57.51.416612 +0100,
,103,116,76,76,stimuli/own/bathroom/103_bat.jpg,stimuli/own/bathroom/116_bat.jpg,,,,,,,,,0,65,65,75,1223.0171950410002,,,,,,,,,,,1223.3021744580003,1223.466880958,1223.466880958,1223.466880958,1223.466880958,1223.466880958,1223.466880958,1223.466880958,1223.466880958,1223.466880958,1229.2949810410003,7,-7,2,4.0,4.993387166000048,7.0,2.5912111249999725,1223.0152369580003,1223.0171950410002,1223.466880958,1223.302158541,,,,,,,,1223.0117269160003,1223.01518925,None,,,,,,,,,,,205,bathroom,1,2024-03-14_15h57.40.505,image_similarity_rating,2023.2.3,None,2024-03-14 15h57.51.416612 +0100,
,124,136,485,485,stimuli/own/bathroom/124_bat.jpg,stimuli/own/bathroom/136_bat.jpg,,,,,,,,,0,66,66,484,1229.300651708,,,,,,,,,,,1229.5852848330003,1229.7566841660002,1229.7566841660002,1229.7566841660002,1229.7566841660002,1229.7566841660002,1229.7566841660002,1229.7566841660002,1229.7566841660002,1229.7566841660002,1239.0530032909999,-7,7,2,4.0,5.957101041999977,3.0,8.758443875000012,1229.29872925,1229.300651708,1229.7566841660002,1229.5852705,,,,,,,,1229.29521425,1229.2986803750002,None,,,,,,,,,,,205,bathroom,1,2024-03-14_15h57.40.505,image_similarity_rating,2023.2.3,None,2024-03-14 15h57.51.416612 +0100,
,111,130,234,234,stimuli/own/bathroom/111_bat.jpg,stimuli/own/bathroom/130_bat.jpg,,,,,,,,,0,67,67,233,1239.0631018330002,,,,,,,,,,,1239.347531875,1239.517132791,1239.517132791,1239.517132791,1239.517132791,1239.517132791,1239.517132791,1239.517132791,1239.517132791,1239.517132791,1249.4358372500003,-7,7,2,4.0,6.842563000000155,5.0,9.710662082999988,1239.056708208,1239.0631018330002,1239.517132791,1239.3475141249999,,,,,,,,1239.053226416,1239.0566607080002,None,,,,,,,,,,,205,bathroom,1,2024-03-14_15h57.40.505,image_similarity_rating,2023.2.3,None,2024-03-14 15h57.51.416612 +0100,
,105,109,132,132,stimuli/own/bathroom/105_bat.jpg,stimuli/own/bathroom/109_bat.jpg,,,,,,,,,0,68,68,131,1249.4462874580001,,,,,,,,,,,1249.731020041,1249.89705475,1249.89705475,1249.89705475,1249.89705475,1249.89705475,1249.89705475,1249.89705475,1249.89705475,1249.89705475,1257.657393833,-7,7,2,3.0,5.954466916000001,1.0,7.625643167000362,1249.439534291,1249.4462874580001,1249.89705475,1249.7310060000002,,,,,,,,1249.4360560410003,1249.439487291,None,,,,,,,,,,,205,bathroom,1,2024-03-14_15h57.40.505,image_similarity_rating,2023.2.3,None,2024-03-14 15h57.51.416612 +0100,
,111,131,235,235,stimuli/own/bathroom/111_bat.jpg,stimuli/own/bathroom/131_bat.jpg,,,,,,,,,0,69,69,234,1257.6795023749999,,,,,,,,,,,1257.963550666,1258.1282213750003,1258.1282213750003,1258.1282213750003,1258.1282213750003,1258.1282213750003,1258.1282213750003,1258.1282213750003,1258.1282213750003,1258.1282213750003,1261.440379041,7,-7,2,1.0,3.2082866659998217,1.0,2.2319127079999816,1257.661067416,1257.6795023749999,,1257.963529208,,,,,,,,1257.6576150000003,1257.6610198330002,None,,,,,,,,,,,205,bathroom,1,2024-03-14_15h57.40.505,image_similarity_rating,2023.2.3,None,2024-03-14 15h57.51.416612 +0100,
,104,121,112,112,stimuli/own/bathroom/104_bat.jpg,stimuli/own/bathroom/121_bat.jpg,,,,,,,,,0,70,70,111,1261.4459342080002,,,,,,,,,,,1261.7307129160001,1261.895542,1261.895542,1261.895542,1261.895542,1261.895542,1261.895542,1261.895542,1261.895542,1261.895542,1271.215159041,-7,7,2,3.0,7.313664667000012,1.0,9.107255916999748,1261.444049333,1261.4459342080002,1261.895542,1261.73070075,,,,,,,,1261.4405989580002,1261.4440016660003,None,,,,,,,,,,,205,bathroom,1,2024-03-14_15h57.40.505,image_similarity_rating,2023.2.3,None,2024-03-14 15h57.51.416612 +0100,
,105,141,160,160,stimuli/own/bathroom/105_bat.jpg,stimuli/own/bathroom/141_bat.jpg,,,,,,,,,0,71,71,159,1271.2207717080003,,,,,,,,,,,1271.5139997910003,1271.6795933750002,1271.6795933750002,1271.6795933750002,1271.6795933750002,1271.6795933750002,1271.6795933750002,1271.6795933750002,1271.6795933750002,1271.6795933750002,1281.7365095410003,-7,7,2,2.0,6.833236999999826,1.0,9.301446750000196,1271.218834083,1271.2207717080003,1271.6795933750002,1271.513987041,,,,,,,,1271.215376458,1271.218786958,None,,,,,,,,,,,205,bathroom,1,2024-03-14_15h57.40.505,image_similarity_rating,2023.2.3,None,2024-03-14 15h57.51.416612 +0100,
,116,134,335,335,stimuli/own/bathroom/116_bat.jpg,stimuli/own/bathroom/134_bat.jpg,,,,,,,,,0,72,72,334,1281.7461853329999,,,,,,,,,,,1282.030772291,1282.198611166,1282.198611166,1282.198611166,1282.198611166,1282.198611166,1282.198611166,1282.198611166,1282.198611166,1282.198611166,1289.4358407080001,7,-7,2,1.0,6.893104583999957,1.0,3.353356542000256,1281.7402102910003,1281.7461853329999,1282.198611166,1282.0307572080003,,,,,,,,1281.736730333,1281.740158625,None,,,,,,,,,,,205,bathroom,1,2024-03-14_15h57.40.505,image_similarity_rating,2023.2.3,None,2024-03-14 15h57.51.416612 +0100,
,103,130,89,89,stimuli/own/bathroom/103_bat.jpg,stimuli/own/bathroom/130_bat.jpg,,,,,,,,,0,73,73,88,1289.446053041,,,,,,,,,,,1289.7307989160001,1289.896563041,1289.896563041,1289.896563041,1289.896563041,1289.896563041,1289.896563041,1289.896563041,1289.896563041,1289.896563041,1297.998438291,-7,7,2,3.0,7.5028680420000455,1.0,3.003200124999694,1289.4395455000001,1289.446053041,1289.896563041,1289.7307844160002,,,,,,,,1289.436066,1289.4394972080001,None,,,,,,,,,,,205,bathroom,1,2024-03-14_15h57.40.505,image_similarity_rating,2023.2.3,None,2024-03-14 15h57.51.416612 +0100,
,136,139,583,583,stimuli/own/bathroom/136_bat.jpg,stimuli/own/bathroom/139_bat.jpg,,,,,,,,,0,74,74,582,1298.0041896660002,,,,,,,,,,,1298.2972782499999,1298.462440125,1298.462440125,1298.462440125,1298.462440125,1298.462440125,1298.462440125,1298.462440125,1298.462440125,1298.462440125,1305.9705431660002,-7,7,2,5.0,7.392347040999994,5.0,3.5555048750002243,1298.0022537500001,1298.0041896660002,1298.462440125,1298.2972647080003,,,,,,,,1297.9986609999999,1298.002206166,None,,,,,,,,,,,205,bathroom,1,2024-03-14_15h57.40.505,image_similarity_rating,2023.2.3,None,2024-03-14 15h57.51.416612 +0100,
,113,134,288,288,stimuli/own/bathroom/113_bat.jpg,stimuli/own/bathroom/134_bat.jpg,,,,,,,,,0,75,75,287,1305.979330166,,,,,,,,,,,1306.2640828750002,1306.43198125,1306.43198125,1306.43198125,1306.43198125,1306.43198125,1306.43198125,1306.43198125,1306.43198125,1306.43198125,1315.3991679580001,7,-7,2,5.0,4.893378499999926,4.0,6.935210625000309,1305.9743822910002,1305.979330166,1306.43198125,1306.2640670409999,,,,,,,,1305.9707675000002,1305.974334583,None,,,,,,,,,,,205,bathroom,1,2024-03-14_15h57.40.505,image_similarity_rating,2023.2.3,None,2024-03-14 15h57.51.416612 +0100,
,111,127,232,232,stimuli/own/bathroom/111_bat.jpg,stimuli/own/bathroom/127_bat.jpg,,,,,,,,,0,76,76,231,1315.4127350410001,,,,,,,,,,,1315.6972076660002,1315.8681560830003,1315.8681560830003,1315.8681560830003,1315.8681560830003,1315.8681560830003,1315.8681560830003,1315.8681560830003,1315.8681560830003,1315.8681560830003,1326.069236958,7,-7,2,5.0,7.794165541999973,3.0,9.827440708000267,1315.4031320830002,1315.4127350410001,1315.8681560830003,1315.6971917910003,,,,,,,,1315.3994085410002,1315.4030784160002,None,,,,,,,,,,,205,bathroom,1,2024-03-14_15h57.40.505,image_similarity_rating,2023.2.3,None,2024-03-14 15h57.51.416612 +0100,
,118,126,372,372,stimuli/own/bathroom/118_bat.jpg,stimuli/own/bathroom/126_bat.jpg,,,,,,,,,0,77,77,371,1326.0793973749999,,,,,,,,,,,1326.3638103750002,1326.5325568330002,1326.5325568330002,1326.5325568330002,1326.5325568330002,1326.5325568330002,1326.5325568330002,1326.5325568330002,1326.5325568330002,1326.5325568330002,1334.7523600000002,7,-7,2,3.0,6.4157668749999175,1.0,4.28315183299992,1326.072928791,1326.0793973749999,1326.5325568330002,1326.363794916,,,,,,,,1326.0694575,1326.0728808750002,None,,,,,,,,,,,205,bathroom,1,2024-03-14_15h57.40.505,image_similarity_rating,2023.2.3,None,2024-03-14 15h57.51.416612 +0100,
,125,136,499,499,stimuli/own/bathroom/125_bat.jpg,stimuli/own/bathroom/136_bat.jpg,,,,,,,,,0,78,78,498,1334.7626785,,,,,,,,,,,1335.0472011250001,1335.218685041,1335.218685041,1335.218685041,1335.218685041,1335.218685041,1335.218685041,1335.218685041,1335.218685041,1335.218685041,1346.7656786660002,7,-7,2,3.0,8.416694042000017,6.0,11.396664041999884,1334.756038708,1334.7626785,1335.218685041,1335.047184583,,,,,,,,1334.7525832500003,1334.755990375,None,,,,,,,,,,,205,bathroom,1,2024-03-14_15h57.40.505,image_similarity_rating,2023.2.3,None,2024-03-14 15h57.51.416612 +0100,
,127,140,528,528,stimuli/own/bathroom/127_bat.jpg,stimuli/own/bathroom/140_bat.jpg,,,,,,,,,0,79,79,527,1346.771451208,,,,,,,,,,,1347.063905416,1347.2330525,1347.2330525,1347.2330525,1347.2330525,1347.2330525,1347.2330525,1347.2330525,1347.2330525,1347.2330525,1357.1158592909999,-7,7,2,2.0,7.259365207999963,6.0,9.68133458300008,1346.7694911250003,1346.771451208,1347.2330525,1347.0638887500002,,,,,,,,1346.7659083330002,1346.7694436250001,None,,,,,,,,,,,205,bathroom,1,2024-03-14_15h57.40.505,image_similarity_rating,2023.2.3,None,2024-03-14 15h57.51.416612 +0100,
,116,125,328,328,stimuli/own/bathroom/116_bat.jpg,stimuli/own/bathroom/125_bat.jpg,,,,,,,,,0,80,80,327,1357.1216286249999,,,,,,,,,,,1357.41373675,1357.5791510000001,1357.5791510000001,1357.5791510000001,1357.5791510000001,1357.5791510000001,1357.5791510000001,1357.5791510000001,1357.5791510000001,1357.5791510000001,1368.9446650410002,-7,7,2,4.0,7.727503792000334,1.0,10.915647167000316,1357.1196324160003,1357.1216286249999,1357.5791510000001,1357.4137229159999,,,,,,,,1357.1160808330003,1357.1195854580003,None,,,,,,,,,,,205,bathroom,1,2024-03-14_15h57.40.505,image_similarity_rating,2023.2.3,None,2024-03-14 15h57.51.416612 +0100,
,120,131,415,415,stimuli/own/bathroom/120_bat.jpg,stimuli/own/bathroom/131_bat.jpg,,,,,,,,,0,81,81,414,1368.9501793330003,,,,,,,,,,,1369.2346462080002,1369.4001449160003,1369.4001449160003,1369.4001449160003,1369.4001449160003,1369.4001449160003,1369.4001449160003,1369.4001449160003,1369.4001449160003,1369.4001449160003,1376.985818291,7,-7,2,1.0,5.9990287499999795,1.0,7.062266083000395,1368.9483982500003,1368.9501793330003,1369.4001449160003,1369.234634791,,,,,,,,1368.9449151659999,1368.948350416,None,,,,,,,,,,,205,bathroom,1,2024-03-14_15h57.40.505,image_similarity_rating,2023.2.3,None,2024-03-14 15h57.51.416612 +0100,
,103,129,88,88,stimuli/own/bathroom/103_bat.jpg,stimuli/own/bathroom/129_bat.jpg,,,,,,,,,0,82,82,87,1376.995803125,,,,,,,,,,,1377.2802115000002,1377.444748666,1377.444748666,1377.444748666,1377.444748666,1377.444748666,1377.444748666,1377.444748666,1377.444748666,1377.444748666,1382.750283,-7,7,2,3.0,3.183984207999856,4.0,4.993355790999885,1376.9895245,1376.995803125,1377.444748666,1377.2801982080002,,,,,,,,1376.9860432500002,1376.989477208,None,,,,,,,,,,,205,bathroom,1,2024-03-14_15h57.40.505,image_similarity_rating,2023.2.3,None,2024-03-14 15h57.51.416612 +0100,
,102,136,62,62,stimuli/own/bathroom/102_bat.jpg,stimuli/own/bathroom/136_bat.jpg,,,,,,,,,0,83,83,61,1382.762873208,,,,,,,,,,,1383.0469781250001,1383.2126515830003,1383.2126515830003,1383.2126515830003,1383.2126515830003,1383.2126515830003,1383.2126515830003,1383.2126515830003,1383.2126515830003,1383.2126515830003,1391.9869569160003,7,-7,2,3.0,4.497465417000058,5.0,8.39750954100009,1382.7539494999999,1382.762873208,1383.2126515830003,1383.046964416,,,,,,,,1382.7505023330002,1382.75390175,None,,,,,,,,,,,205,bathroom,1,2024-03-14_15h57.40.505,image_similarity_rating,2023.2.3,None,2024-03-14 15h57.51.416612 +0100,
,104,140,129,129,stimuli/own/bathroom/104_bat.jpg,stimuli/own/bathroom/140_bat.jpg,,,,,,,,,0,84,84,128,1391.995554583,,,,,,,,,,,1392.2805015410001,1392.4484102080003,1392.4484102080003,1392.4484102080003,1392.4484102080003,1392.4484102080003,1392.4484102080003,1392.4484102080003,1392.4484102080003,1392.4484102080003,1400.8147569160003,-7,7,2,6.0,6.8839287499999955,7.0,3.1890903329999674,1391.9906399160002,1391.995554583,1392.4484102080003,1392.2804858750003,,,,,,,,1391.987176583,1391.990592541,None,,,,,,,,,,,205,bathroom,1,2024-03-14_15h57.40.505,image_similarity_rating,2023.2.3,None,2024-03-14 15h57.51.416612 +0100,
,104,130,120,120,stimuli/own/bathroom/104_bat.jpg,stimuli/own/bathroom/130_bat.jpg,,,,,,,,,0,85,85,119,1400.820466041,,,,,,,,,,,1401.1135550000001,1401.2791234580002,1401.2791234580002,1401.2791234580002,1401.2791234580002,1401.2791234580002,1401.2791234580002,1401.2791234580002,1401.2791234580002,1401.2791234580002,1408.7400902910001,-7,7,2,4.0,4.26951387500003,5.0,6.897608750000018,1400.818533208,1400.820466041,1401.2791234580002,1401.1135402910002,,,,,,,,1400.814979,1400.818485166,None,,,,,,,,,,,205,bathroom,1,2024-03-14_15h57.40.505,image_similarity_rating,2023.2.3,None,2024-03-14 15h57.51.416612 +0100,
,118,138,382,382,stimuli/own/bathroom/118_bat.jpg,stimuli/own/bathroom/138_bat.jpg,,,,,,,,,0,86,86,381,1408.7625271660002,,,,,,,,,,,1409.046515416,1409.2118266250002,1409.2118266250002,1409.2118266250002,1409.2118266250002,1409.2118266250002,1409.2118266250002,1409.2118266250002,1409.2118266250002,1409.2118266250002,1420.1523583750002,7,-7,2,2.0,6.123817125000187,1.0,2.922863750000033,1408.7440395410001,1408.7625271660002,,1409.046496833,,,,,,,,1408.740311916,1408.7439887500002,None,,,,,,,,,,,205,bathroom,1,2024-03-14_15h57.40.505,image_similarity_rating,2023.2.3,None,2024-03-14 15h57.51.416612 +0100,
,112,132,262,610,stimuli/own/bathroom/112_bat.jpg,stimuli/own/bathroom/132_bat.jpg,,,,,,,,,0,87,87,609,1420.1623644160002,,,,,,,,,,,1420.446910208,1420.6150962909999,1420.6150962909999,1420.6150962909999,1420.6150962909999,1420.6150962909999,1420.6150962909999,1420.6150962909999,1420.6150962909999,1420.6150962909999,1427.7897205000002,7,-7,2,3.0,4.474064125000041,4.0,6.676511207999738,1420.1560472500003,1420.1623644160002,1420.6150962909999,1420.4468920410002,,,,,,,,1420.1525814160002,1420.1560000830002,None,,,,,,,,,,,205,bathroom,1,2024-03-14_15h57.40.505,image_similarity_rating,2023.2.3,None,2024-03-14 15h57.51.416612 +0100,
,126,139,515,515,stimuli/own/bathroom/126_bat.jpg,stimuli/own/bathroom/139_bat.jpg,,,,,,,,,0,88,88,514,1427.79537525,,,,,,,,,,,1428.080195875,1428.2448805000001,1428.2448805000001,1428.2448805000001,1428.2448805000001,1428.2448805000001,1428.2448805000001,1428.2448805000001,1428.2448805000001,1428.2448805000001,1437.0648655000002,-7,7,2,4.0,8.448376542000005,7.0,3.3760083749998557,1427.793507041,1427.79537525,1428.2448805000001,1428.080182208,,,,,,,,1427.7899448750002,1427.79345675,None,,,,,,,,,,,205,bathroom,1,2024-03-14_15h57.40.505,image_similarity_rating,2023.2.3,None,2024-03-14 15h57.51.416612 +0100,
,134,141,574,574,stimuli/own/bathroom/134_bat.jpg,stimuli/own/bathroom/141_bat.jpg,,,,,,,,,0,89,89,573,1437.07060075,,,,,,,,,,,1437.363531625,1437.528357458,1437.528357458,1437.528357458,1437.528357458,1437.528357458,1437.528357458,1437.528357458,1437.528357458,1437.528357458,1443.919097916,7,-7,2,6.0,3.192263292000007,6.0,6.090629541999988,1437.0686765000003,1437.07060075,1437.528357458,1437.3635163330002,,,,,,,,1437.0650882080001,1437.0686278330002,None,,,,,,,,,,,205,bathroom,1,2024-03-14_15h57.40.505,image_similarity_rating,2023.2.3,None,2024-03-14 15h57.51.416612 +0100,
,106,141,189,189,stimuli/own/bathroom/106_bat.jpg,stimuli/own/bathroom/141_bat.jpg,,,,,,,,,0,90,90,188,1443.928914541,,,,,,,,,,,1444.213406833,1444.381517916,1444.381517916,1444.381517916,1444.381517916,1444.381517916,1444.381517916,1444.381517916,1444.381517916,1444.381517916,1454.852386333,7,-7,2,3.0,10.002017583999987,4.0,6.322971999999936,1443.9227859999999,1443.928914541,1444.381517916,1444.213392083,,,,,,,,1443.919320833,1443.9227385000002,None,,,,,,,,,,,205,bathroom,1,2024-03-14_15h57.40.505,image_similarity_rating,2023.2.3,None,2024-03-14 15h57.51.416612 +0100,
,109,139,215,215,stimuli/own/bathroom/109_bat.jpg,stimuli/own/bathroom/139_bat.jpg,,,,,,,,,0,91,91,214,1454.862100916,,,,,,,,,,,1455.146794041,1455.3113110830002,1455.3113110830002,1455.3113110830002,1455.3113110830002,1455.3113110830002,1455.3113110830002,1455.3113110830002,1455.3113110830002,1455.3113110830002,1464.1732692500002,-7,7,2,3.0,8.197682875000282,1.0,5.598399542000152,1454.8561978750001,1454.862100916,1455.3113110830002,1455.1467796250001,,,,,,,,1454.8526142910002,1454.8561496660002,None,,,,,,,,,,,205,bathroom,1,2024-03-14_15h57.40.505,image_similarity_rating,2023.2.3,None,2024-03-14 15h57.51.416612 +0100,
,102,141,67,67,stimuli/own/bathroom/102_bat.jpg,stimuli/own/bathroom/141_bat.jpg,,,,,,,,,0,92,92,66,1464.1958484160002,,,,,,,,,,,1464.479595041,1464.6436917500002,1464.6436917500002,1464.6436917500002,1464.6436917500002,1464.6436917500002,1464.6436917500002,1464.6436917500002,1464.6436917500002,1464.6436917500002,1476.740189375,-7,7,2,3.0,7.779791333000048,5.0,11.566612082999654,1464.1769657500001,1464.1958484160002,,1464.4795711250001,,,,,,,,1464.173494,1464.1769175410002,None,,,,,,,,,,,205,bathroom,1,2024-03-14_15h57.40.505,image_similarity_rating,2023.2.3,None,2024-03-14 15h57.51.416612 +0100,
,105,117,138,598,stimuli/own/bathroom/105_bat.jpg,stimuli/own/bathroom/117_bat.jpg,,,,,,,,,0,93,93,597,1476.7620572910002,,,,,,,,,,,1477.046257583,1477.2113179159999,1477.2113179159999,1477.2113179159999,1477.2113179159999,1477.2113179159999,1477.2113179159999,1477.2113179159999,1477.2113179159999,1477.2113179159999,1487.68998825,7,-7,2,3.0,6.905108542000107,4.0,9.416625457999999,1476.743875083,1476.7620572910002,,1477.04624,,,,,,,,1476.740413416,1476.743827083,None,,,,,,,,,,,205,bathroom,1,2024-03-14_15h57.40.505,image_similarity_rating,2023.2.3,None,2024-03-14 15h57.51.416612 +0100,
,125,141,504,504,stimuli/own/bathroom/125_bat.jpg,stimuli/own/bathroom/141_bat.jpg,,,,,,,,,0,94,94,503,1487.7118941659999,,,,,,,,,,,1487.99629975,1488.170024583,1488.170024583,1488.170024583,1488.170024583,1488.170024583,1488.170024583,1488.170024583,1488.170024583,1488.170024583,1496.4184725830003,-7,7,2,3.0,8.112781667000036,7.0,5.858443582999826,1487.6937085410002,1487.7118941659999,,1487.9962753329999,,,,,,,,1487.6902118750002,1487.69366075,None,,,,,,,,,,,205,bathroom,1,2024-03-14_15h57.40.505,image_similarity_rating,2023.2.3,None,2024-03-14 15h57.51.416612 +0100,
,113,121,277,277,stimuli/own/bathroom/113_bat.jpg,stimuli/own/bathroom/121_bat.jpg,,,,,,,,,0,95,95,276,1496.4285929580003,,,,,,,,,,,1496.7135016250002,1496.87729625,1496.87729625,1496.87729625,1496.87729625,1496.87729625,1496.87729625,1496.87729625,1496.87729625,1496.87729625,1508.618823083,-7,7,2,3.0,11.72020591699993,5.0,5.293504375000339,1496.422169583,1496.4285929580003,1496.87729625,1496.7134895000002,,,,,,,,1496.418699041,1496.422121708,None,,,,,,,,,,,205,bathroom,1,2024-03-14_15h57.40.505,image_similarity_rating,2023.2.3,None,2024-03-14 15h57.51.416612 +0100,
,122,135,453,453,stimuli/own/bathroom/122_bat.jpg,stimuli/own/bathroom/135_bat.jpg,,,,,,,,,0,96,96,452,1508.628534666,,,,,,,,,,,1508.913316083,1509.078240083,1509.078240083,1509.078240083,1509.078240083,1509.078240083,1509.078240083,1509.078240083,1509.078240083,1509.078240083,1517.402119875,-7,7,2,4.0,5.961579792000066,6.0,7.935859000000164,1508.622538125,1508.628534666,1509.078240083,1508.9132995830003,,,,,,,,1508.6190495000003,1508.622490333,None,,,,,,,,,,,205,bathroom,1,2024-03-14_15h57.40.505,image_similarity_rating,2023.2.3,None,2024-03-14 15h57.51.416612 +0100,
,106,120,170,170,stimuli/own/bathroom/106_bat.jpg,stimuli/own/bathroom/120_bat.jpg,,,,,,,,,0,97,97,169,1517.4119576660003,,,,,,,,,,,1517.69664175,1517.8690804159999,1517.8690804159999,1517.8690804159999,1517.8690804159999,1517.8690804159999,1517.8690804159999,1517.8690804159999,1517.8690804159999,1517.8690804159999,1526.15609325,7,-7,2,2.0,8.136988833000032,3.0,5.581817416999911,1517.4057943330001,1517.4119576660003,1517.8690804159999,1517.6966166660002,,,,,,,,1517.4023382500002,1517.405746875,None,,,,,,,,,,,205,bathroom,1,2024-03-14_15h57.40.505,image_similarity_rating,2023.2.3,None,2024-03-14 15h57.51.416612 +0100,
,123,131,466,466,stimuli/own/bathroom/123_bat.jpg,stimuli/own/bathroom/131_bat.jpg,,,,,,,,,0,98,98,465,1526.1615597080001,,,,,,,,,,,1526.446601625,1526.618169958,1526.618169958,1526.618169958,1526.618169958,1526.618169958,1526.618169958,1526.618169958,1526.618169958,1526.618169958,1532.2613371250002,7,-7,2,1.0,5.518832499999917,1.0,4.5721844579998105,1526.1597747910002,1526.1615597080001,1526.618169958,1526.44658525,,,,,,,,1526.1563115830002,1526.159727083,None,,,,,,,,,,,205,bathroom,1,2024-03-14_15h57.40.505,image_similarity_rating,2023.2.3,None,2024-03-14 15h57.51.416612 +0100,
,106,129,178,178,stimuli/own/bathroom/106_bat.jpg,stimuli/own/bathroom/129_bat.jpg,,,,,,,,,0,99,99,177,1532.267446916,,,,,,,,,,,1532.550717208,1532.721901791,1532.721901791,1532.721901791,1532.721901791,1532.721901791,1532.721901791,1532.721901791,1532.721901791,1532.721901791,1539.339649541,7,-7,2,2.0,3.5601123749997896,4.0,6.354374292000102,1532.2652034579999,1532.267446916,1532.721901791,1532.5507031660002,,,,,,,,1532.2615585,1532.2651550410003,None,,,,,,,,,,,205,bathroom,1,2024-03-14_15h57.40.505,image_similarity_rating,2023.2.3,None,2024-03-14 15h57.51.416612 +0100,
,118,132,377,377,stimuli/own/bathroom/118_bat.jpg,stimuli/own/bathroom/132_bat.jpg,,,,,,,,,0,100,100,376,1539.3617684160001,,,,,,,,,,,1539.6459428330002,1539.816550666,1539.816550666,1539.816550666,1539.816550666,1539.816550666,1539.816550666,1539.816550666,1539.816550666,1539.816550666,1547.039503541,-7,7,2,3.0,4.76041824999993,1.0,2.9035201659999075,1539.3434514580001,1539.3617684160001,,1539.6459227080002,,,,,,,,1539.3398692080002,1539.3434035830003,None,,,,,,,,,,,205,bathroom,1,2024-03-14_15h57.40.505,image_similarity_rating,2023.2.3,None,2024-03-14 15h57.51.416612 +0100,
,103,104,68,68,stimuli/own/bathroom/103_bat.jpg,stimuli/own/bathroom/104_bat.jpg,,,,,,,,,0,101,101,67,1547.0449742910002,,,,,,,,,,,1547.329850166,1547.496655958,1547.496655958,1547.496655958,1547.496655958,1547.496655958,1547.496655958,1547.496655958,1547.496655958,1547.496655958,1555.0103245830003,7,-7,2,3.0,6.065159291999862,5.0,3.2993131670000366,1547.043189875,1547.0449742910002,1547.496655958,1547.329834333,,,,,,,,1547.03972975,1547.043142458,None,,,,,,,,,,,205,bathroom,1,2024-03-14_15h57.40.505,image_similarity_rating,2023.2.3,None,2024-03-14 15h57.51.416612 +0100,
,104,118,109,109,stimuli/own/bathroom/104_bat.jpg,stimuli/own/bathroom/118_bat.jpg,,,,,,,,,0,102,102,108,1555.016034291,,,,,,,,,,,1555.300749791,1555.46893875,1555.46893875,1555.46893875,1555.46893875,1555.46893875,1555.46893875,1555.46893875,1555.46893875,1555.46893875,1565.7395235000001,7,-7,2,3.0,10.119785584000056,3.0,6.859174374999839,1555.014090375,1555.016034291,1555.46893875,1555.3007371659999,,,,,,,,1555.010557666,1555.014042125,None,,,,,,,,,,,205,bathroom,1,2024-03-14_15h57.40.505,image_similarity_rating,2023.2.3,None,2024-03-14 15h57.51.416612 +0100,
,127,139,527,527,stimuli/own/bathroom/127_bat.jpg,stimuli/own/bathroom/139_bat.jpg,,,,,,,,,0,103,103,526,1565.74502525,,,,,,,,,,,1566.0297107080003,1566.200691875,1566.200691875,1566.200691875,1566.200691875,1566.200691875,1566.200691875,1566.200691875,1566.200691875,1566.200691875,1571.973359125,-7,7,2,6.0,4.0445262499997625,7.0,5.487884832999953,1565.74319825,1565.74502525,1566.200691875,1566.029693875,,,,,,,,1565.739740791,1565.7431503750001,None,,,,,,,,,,,205,bathroom,1,2024-03-14_15h57.40.505,image_similarity_rating,2023.2.3,None,2024-03-14 15h57.51.416612 +0100,
,119,122,388,388,stimuli/own/bathroom/119_bat.jpg,stimuli/own/bathroom/122_bat.jpg,,,,,,,,,0,104,104,387,1571.9950243750002,,,,,,,,,,,1572.2794325000002,1572.4452865,1572.4452865,1572.4452865,1572.4452865,1572.4452865,1572.4452865,1572.4452865,1572.4452865,1572.4452865,1581.6937527500002,-7,7,2,5.0,9.039836708000166,7.0,6.26943937499982,1571.977030458,1571.9950243750002,,1572.2794124160002,,,,,,,,1571.9735820000003,1571.9769828750002,None,,,,,,,,,,,205,bathroom,1,2024-03-14_15h57.40.505,image_similarity_rating,2023.2.3,None,2024-03-14 15h57.51.416612 +0100,
,131,132,551,551,stimuli/own/bathroom/131_bat.jpg,stimuli/own/bathroom/132_bat.jpg,,,,,,,,,0,105,105,550,1581.6994187080002,,,,,,,,,,,1581.9836230829999,1582.148785958,1582.148785958,1582.148785958,1582.148785958,1582.148785958,1582.148785958,1582.148785958,1582.148785958,1582.148785958,1586.6437172500002,-7,7,2,1.0,2.0906316659998083,5.0,4.131746374999693,1581.697475833,1581.6994187080002,1582.148785958,1581.9836118330002,,,,,,,,1581.693981833,1581.6974278750001,None,,,,,,,,,,,205,bathroom,1,2024-03-14_15h57.40.505,image_similarity_rating,2023.2.3,None,2024-03-14 15h57.51.416612 +0100,
,104,126,117,117,stimuli/own/bathroom/104_bat.jpg,stimuli/own/bathroom/126_bat.jpg,,,,,,,,,0,106,106,116,1586.6494504580003,,,,,,,,,,,1586.9339728749999,1587.1005161250002,1587.1005161250002,1587.1005161250002,1587.1005161250002,1587.1005161250002,1587.1005161250002,1587.1005161250002,1587.1005161250002,1587.1005161250002,1598.9063736660003,7,-7,2,3.0,11.067752000000382,1.0,5.399851749999925,1586.647515375,1586.6494504580003,1587.1005161250002,1586.933960125,,,,,,,,1586.6439472499999,1586.6474663750002,None,,,,,,,,,,,205,bathroom,1,2024-03-14_15h57.40.505,image_similarity_rating,2023.2.3,None,2024-03-14 15h57.51.416612 +0100,
,109,135,211,211,stimuli/own/bathroom/109_bat.jpg,stimuli/own/bathroom/135_bat.jpg,,,,,,,,,0,107,107,210,1598.928277916,,,,,,,,,,,1599.212499041,1599.384939291,1599.384939291,1599.384939291,1599.384939291,1599.384939291,1599.384939291,1599.384939291,1599.384939291,1599.384939291,1607.0438309580002,-7,7,2,4.0,7.533334082999772,1.0,4.952004875000057,1598.9100498330001,1598.928277916,,1599.2124741660002,,,,,,,,1598.906594541,1598.910001333,None,,,,,,,,,,,205,bathroom,1,2024-03-14_15h57.40.505,image_similarity_rating,2023.2.3,None,2024-03-14 15h57.51.416612 +0100,
,125,137,500,500,stimuli/own/bathroom/125_bat.jpg,stimuli/own/bathroom/137_bat.jpg,,,,,,,,,0,108,108,499,1607.049481458,,,,,,,,,,,1607.3339465830002,1607.5045311249999,1607.5045311249999,1607.5045311249999,1607.5045311249999,1607.5045311249999,1607.5045311249999,1607.5045311249999,1607.5045311249999,1607.5045311249999,1612.163960958,7,-7,2,3.0,2.7742759580000893,4.0,4.467113333999805,1607.0475475,1607.049481458,1607.5045311249999,1607.333932708,,,,,,,,1607.044079041,1607.0474995410002,None,,,,,,,,,,,205,bathroom,1,2024-03-14_15h57.40.505,image_similarity_rating,2023.2.3,None,2024-03-14 15h57.51.416612 +0100,
,111,125,230,230,stimuli/own/bathroom/111_bat.jpg,stimuli/own/bathroom/125_bat.jpg,,,,,,,,,0,109,109,229,1612.169669,,,,,,,,,,,1612.4628087910003,1612.629524541,1612.629524541,1612.629524541,1612.629524541,1612.629524541,1612.629524541,1612.629524541,1612.629524541,1612.629524541,1620.427226166,-7,7,2,2.0,7.4468270409997785,3.0,4.6819383329998345,1612.1677041660002,1612.169669,1612.629524541,1612.4627926660003,,,,,,,,1612.164182875,1612.1676569160002,None,,,,,,,,,,,205,bathroom,1,2024-03-14_15h57.40.505,image_similarity_rating,2023.2.3,None,2024-03-14 15h57.51.416612 +0100,
,104,131,121,613,stimuli/own/bathroom/104_bat.jpg,stimuli/own/bathroom/131_bat.jpg,,,,,,,,,0,110,110,612,1620.4328595,,,,,,,,,,,1620.7174347500002,1620.887329375,1620.887329375,1620.887329375,1620.887329375,1620.887329375,1620.887329375,1620.887329375,1620.887329375,1620.887329375,1627.3977956250003,7,-7,2,2.0,3.1759492500000306,3.0,5.9360459159997845,1620.430930916,1620.4328595,1620.887329375,1620.7174200830002,,,,,,,,1620.427455791,1620.4308827910002,None,,,,,,,,,,,205,bathroom,1,2024-03-14_15h57.40.505,image_similarity_rating,2023.2.3,None,2024-03-14 15h57.51.416612 +0100,
,103,111,72,72,stimuli/own/bathroom/103_bat.jpg,stimuli/own/bathroom/111_bat.jpg,,,,,,,,,0,111,111,71,1627.4032197080003,,,,,,,,,,,1627.6960822500002,1627.864548291,1627.864548291,1627.864548291,1627.864548291,1627.864548291,1627.864548291,1627.864548291,1627.864548291,1627.864548291,1633.468642041,-7,7,2,6.0,3.791394875000151,2.0,5.429897667000205,1627.401452666,1627.4032197080003,1627.864548291,1627.6960645830002,,,,,,,,1627.3980169160002,1627.401405583,None,,,,,,,,,,,205,bathroom,1,2024-03-14_15h57.40.505,image_similarity_rating,2023.2.3,None,2024-03-14 15h57.51.416612 +0100,
,105,136,155,155,stimuli/own/bathroom/105_bat.jpg,stimuli/own/bathroom/136_bat.jpg,,,,,,,,,0,112,112,154,1633.4782969159999,,,,,,,,,,,1633.762601666,1633.928427875,1633.928427875,1633.928427875,1633.928427875,1633.928427875,1633.928427875,1633.928427875,1633.928427875,1633.928427875,1639.3972473330002,7,-7,2,2.0,3.978074667000328,1.0,5.221618583000236,1633.4722964580003,1633.4782969159999,1633.928427875,1633.762588583,,,,,,,,1633.4688628330002,1633.472248833,None,,,,,,,,,,,205,bathroom,1,2024-03-14_15h57.40.505,image_similarity_rating,2023.2.3,None,2024-03-14 15h57.51.416612 +0100,
,119,121,387,387,stimuli/own/bathroom/119_bat.jpg,stimuli/own/bathroom/121_bat.jpg,,,,,,,,,0,113,113,386,1639.402643833,,,,,,,,,,,1639.6962149580002,1639.866248916,1639.866248916,1639.866248916,1639.866248916,1639.866248916,1639.866248916,1639.866248916,1639.866248916,1639.866248916,1647.2138630000002,7,-7,2,3.0,5.364784332999989,2.0,6.147478167000372,1639.400893416,1639.402643833,1639.866248916,1639.6961965410003,,,,,,,,1639.39746425,1639.400845208,None,,,,,,,,,,,205,bathroom,1,2024-03-14_15h57.40.505,image_similarity_rating,2023.2.3,None,2024-03-14 15h57.51.416612 +0100,
,123,129,464,464,stimuli/own/bathroom/123_bat.jpg,stimuli/own/bathroom/129_bat.jpg,,,,,,,,,0,114,114,463,1647.219505416,,,,,,,,,,,1647.5126913750003,1647.6796242500002,1647.6796242500002,1647.6796242500002,1647.6796242500002,1647.6796242500002,1647.6796242500002,1647.6796242500002,1647.6796242500002,1647.6796242500002,1656.2601792500002,7,-7,2,3.0,4.426750000000084,1.0,8.393981165999776,1647.217556666,1647.219505416,1647.6796242500002,1647.5126722910002,,,,,,,,1647.2140890829999,1647.21750825,None,,,,,,,,,,,205,bathroom,1,2024-03-14_15h57.40.505,image_similarity_rating,2023.2.3,None,2024-03-14 15h57.51.416612 +0100,
,102,119,47,47,stimuli/own/bathroom/102_bat.jpg,stimuli/own/bathroom/119_bat.jpg,,,,,,,,,0,115,115,46,1656.265815083,,,,,,,,,,,1656.5502829580003,1656.717461416,1656.717461416,1656.717461416,1656.717461416,1656.717461416,1656.717461416,1656.717461416,1656.717461416,1656.717461416,1662.163786708,7,-7,2,4.0,5.264097708999998,1.0,2.096584625000105,1656.263896958,1656.265815083,1656.717461416,1656.550269083,,,,,,,,1656.2604116250002,1656.2638494159999,None,,,,,,,,,,,205,bathroom,1,2024-03-14_15h57.40.505,image_similarity_rating,2023.2.3,None,2024-03-14 15h57.51.416612 +0100,
,116,139,340,340,stimuli/own/bathroom/116_bat.jpg,stimuli/own/bathroom/139_bat.jpg,,,,,,,,,0,116,116,339,1662.169387958,,,,,,,,,,,1662.4626540830002,1662.6276478749999,1662.6276478749999,1662.6276478749999,1662.6276478749999,1662.6276478749999,1662.6276478749999,1662.6276478749999,1662.6276478749999,1662.6276478749999,1669.113772375,7,-7,2,5.0,4.955431124999905,1.0,6.250337542000125,1662.167451208,1662.169387958,1662.6276478749999,1662.4626393330002,,,,,,,,1662.1640090829999,1662.167403875,None,,,,,,,,,,,205,bathroom,1,2024-03-14_15h57.40.505,image_similarity_rating,2023.2.3,None,2024-03-14 15h57.51.416612 +0100,
,114,137,315,315,stimuli/own/bathroom/114_bat.jpg,stimuli/own/bathroom/137_bat.jpg,,,,,,,,,0,117,117,314,1669.119374875,,,,,,,,,,,1669.412667166,1669.5789863749999,1669.5789863749999,1669.5789863749999,1669.5789863749999,1669.5789863749999,1669.5789863749999,1669.5789863749999,1669.5789863749999,1669.5789863749999,1676.6603204159999,7,-7,2,2.0,4.310918916999981,1.0,6.729953083000055,1669.117446,1669.119374875,1669.5789863749999,1669.412652458,,,,,,,,1669.113992166,1669.1173981660002,None,,,,,,,,,,,205,bathroom,1,2024-03-14_15h57.40.505,image_similarity_rating,2023.2.3,None,2024-03-14 15h57.51.416612 +0100,
,103,126,86,86,stimuli/own/bathroom/103_bat.jpg,stimuli/own/bathroom/126_bat.jpg,,,,,,,,,0,118,118,85,1676.666149083,,,,,,,,,,,1676.949685791,1677.1131398750001,1677.1131398750001,1677.1131398750001,1677.1131398750001,1677.1131398750001,1677.1131398750001,1677.1131398750001,1677.1131398750001,1677.1131398750001,1685.334662041,-7,7,2,3.0,8.042329542000061,1.0,2.2648868750002293,1676.664138333,1676.666149083,1677.1131398750001,1676.9496742500003,,,,,,,,1676.660561208,1676.664090083,None,,,,,,,,,,,205,bathroom,1,2024-03-14_15h57.40.505,image_similarity_rating,2023.2.3,None,2024-03-14 15h57.51.416612 +0100,
,117,131,355,355,stimuli/own/bathroom/117_bat.jpg,stimuli/own/bathroom/131_bat.jpg,,,,,,,,,0,119,119,354,1685.344802291,,,,,,,,,,,1685.6292112080002,1685.7972884580001,1685.7972884580001,1685.7972884580001,1685.7972884580001,1685.7972884580001,1685.7972884580001,1685.7972884580001,1685.7972884580001,1685.7972884580001,1698.143270666,-7,7,2,2.0,10.742729999999938,5.0,12.031849708000209,1685.338442083,1685.344802291,1685.7972884580001,1685.629191791,,,,,,,,1685.3348804160003,1685.3383945410003,None,,,,,,,,,,,205,bathroom,1,2024-03-14_15h57.40.505,image_similarity_rating,2023.2.3,None,2024-03-14 15h57.51.416612 +0100,
,101,122,17,17,stimuli/own/bathroom/101_bat.jpg,stimuli/own/bathroom/122_bat.jpg,,,,,,,,,0,120,120,16,1698.148927208,,,,,,,,,,,1698.4335102910002,1698.6030886660003,1698.6030886660003,1698.6030886660003,1698.6030886660003,1698.6030886660003,1698.6030886660003,1698.6030886660003,1698.6030886660003,1698.6030886660003,1703.0768192500002,-7,7,2,6.0,2.7799596660001953,3.0,4.1597164169997995,1698.1469932910002,1698.148927208,1698.6030886660003,1698.433496666,,,,,,,,1698.1434931250003,1698.146945791,None,,,,,,,,,,,205,bathroom,1,2024-03-14_15h57.40.505,image_similarity_rating,2023.2.3,None,2024-03-14 15h57.51.416612 +0100,
,102,130,57,57,stimuli/own/bathroom/102_bat.jpg,stimuli/own/bathroom/130_bat.jpg,,,,,,,,,0,121,121,56,1703.0824662500002,,,,,,,,,,,1703.366853833,1703.5344015000003,1703.5344015000003,1703.5344015000003,1703.5344015000003,1703.5344015000003,1703.5344015000003,1703.5344015000003,1703.5344015000003,1703.5344015000003,1716.210078625,-7,7,2,5.0,5.033590499999718,6.0,12.553273499999705,1703.080540666,1703.0824662500002,1703.5344015000003,1703.366839958,,,,,,,,1703.077069541,1703.0804931250002,None,,,,,,,,,,,205,bathroom,1,2024-03-14_15h57.40.505,image_similarity_rating,2023.2.3,None,2024-03-14 15h57.51.416612 +0100,
,136,139,583,601,stimuli/own/bathroom/136_bat.jpg,stimuli/own/bathroom/139_bat.jpg,,,,,,,,,0,122,122,600,1716.2156470410002,,,,,,,,,,,1716.500157916,1716.6670607910003,1716.6670607910003,1716.6670607910003,1716.6670607910003,1716.6670607910003,1716.6670607910003,1716.6670607910003,1716.6670607910003,1716.6670607910003,1733.7972995410003,7,-7,2,4.0,5.789457458000015,6.0,16.743787124999926,1716.213822458,1716.2156470410002,1716.6670607910003,1716.500145458,,,,,,,,1716.2103275410002,1716.2137746250003,None,,,,,,,,,,,205,bathroom,1,2024-03-14_15h57.40.505,image_similarity_rating,2023.2.3,None,2024-03-14 15h57.51.416612 +0100,
,101,112,8,8,stimuli/own/bathroom/101_bat.jpg,stimuli/own/bathroom/112_bat.jpg,,,,,,,,,0,123,123,7,1733.802916541,,,,,,,,,,,1734.0957540000002,1734.2610481250001,1734.2610481250001,1734.2610481250001,1734.2610481250001,1734.2610481250001,1734.2610481250001,1734.2610481250001,1734.2610481250001,1734.2610481250001,1744.030315541,-7,7,2,3.0,6.525710832999721,7.0,9.409102459000223,1733.8009825000001,1733.802916541,1734.2610481250001,1734.0957350410001,,,,,,,,1733.7975199160003,1733.800934916,None,,,,,,,,,,,205,bathroom,1,2024-03-14_15h57.40.505,image_similarity_rating,2023.2.3,None,2024-03-14 15h57.51.416612 +0100,
,102,118,46,46,stimuli/own/bathroom/102_bat.jpg,stimuli/own/bathroom/118_bat.jpg,,,,,,,,,0,124,124,45,1744.035990041,,,,,,,,,,,1744.3289427910001,1744.4973244159999,1744.4973244159999,1744.4973244159999,1744.4973244159999,1744.4973244159999,1744.4973244159999,1744.4973244159999,1744.4973244159999,1744.4973244159999,1750.3145498750002,-7,7,2,2.0,5.647186583000348,1.0,3.0644603750001806,1744.0339837500003,1744.035990041,1744.4973244159999,1744.3289280830002,,,,,,,,1744.0305396250003,1744.033936041,None,,,,,,,,,,,205,bathroom,1,2024-03-14_15h57.40.505,image_similarity_rating,2023.2.3,None,2024-03-14 15h57.51.416612 +0100,
,105,135,154,154,stimuli/own/bathroom/105_bat.jpg,stimuli/own/bathroom/135_bat.jpg,,,,,,,,,0,125,125,153,1750.320171958,,,,,,,,,,,1750.6124225410001,1750.7836869579999,1750.7836869579999,1750.7836869579999,1750.7836869579999,1750.7836869579999,1750.7836869579999,1750.7836869579999,1750.7836869579999,1750.7836869579999,1766.588509041,7,-7,2,2.0,13.435249584000303,1.0,15.555510874999982,1750.3182263330002,1750.320171958,1750.7836869579999,1750.6123863750001,,,,,,,,1750.314769708,1750.3181768750003,None,,,,,,,,,,,205,bathroom,1,2024-03-14_15h57.40.505,image_similarity_rating,2023.2.3,None,2024-03-14 15h57.51.416612 +0100,
,120,134,417,417,stimuli/own/bathroom/120_bat.jpg,stimuli/own/bathroom/134_bat.jpg,,,,,,,,,0,126,126,416,1766.5940860829999,,,,,,,,,,,1821.945337166,1822.1121127910003,1822.1121127910003,1822.1121127910003,1822.1121127910003,1822.1121127910003,1822.1121127910003,1822.1121127910003,1822.1121127910003,1822.1121127910003,1840.500758291,7,-7,3,3.0,6.549674374999995,1.0,17.47051920800004,1821.6521986250002,1821.661555333,1822.1121127910003,1821.9453202500001,,,,,,,,1766.5887295,1821.651819375,space,1766.5940860829999,55.05756287500026,None,,,,,,,,205,bathroom,1,2024-03-14_15h57.40.505,image_similarity_rating,2023.2.3,None,2024-03-14 15h57.51.416612 +0100,
,129,130,530,530,stimuli/own/bathroom/129_bat.jpg,stimuli/own/bathroom/130_bat.jpg,,,,,,,,,0,127,127,529,1840.5108713330003,,,,,,,,,,,1840.795507166,1840.9646395000002,1840.9646395000002,1840.9646395000002,1840.9646395000002,1840.9646395000002,1840.9646395000002,1840.9646395000002,1840.9646395000002,1840.9646395000002,1855.9630572080002,7,-7,3,5.0,14.83645024999987,6.0,13.032775958000002,1840.5050746250001,1840.5108713330003,1840.9646395000002,1840.7954790830001,,,,,,,,1840.500981166,1840.505025791,None,,,,,,,,,,,205,bathroom,1,2024-03-14_15h57.40.505,image_similarity_rating,2023.2.3,None,2024-03-14 15h57.51.416612 +0100,
,106,109,161,161,stimuli/own/bathroom/106_bat.jpg,stimuli/own/bathroom/109_bat.jpg,,,,,,,,,0,128,128,160,1855.9686680830002,,,,,,,,,,,1856.261920666,1856.426852291,1856.426852291,1856.426852291,1856.426852291,1856.426852291,1856.426852291,1856.426852291,1856.426852291,1856.426852291,1863.5464224160003,7,-7,3,2.0,4.5306744999998045,1.0,6.645395000000008,1855.966735708,1855.9686680830002,1856.426852291,1856.2619055000002,,,,,,,,1855.9632813330002,1855.9666880830002,None,,,,,,,,,,,205,bathroom,1,2024-03-14_15h57.40.505,image_similarity_rating,2023.2.3,None,2024-03-14 15h57.51.416612 +0100,
,116,140,341,341,stimuli/own/bathroom/116_bat.jpg,stimuli/own/bathroom/140_bat.jpg,,,,,,,,,0,129,129,340,1863.5521204580002,,,,,,,,,,,1863.845370791,1864.0128323330002,1864.0128323330002,1864.0128323330002,1864.0128323330002,1864.0128323330002,1864.0128323330002,1864.0128323330002,1864.0128323330002,1864.0128323330002,1874.809313041,-7,7,3,3.0,5.137367666000046,5.0,10.659812625000086,1863.550192291,1863.5521204580002,1864.0128323330002,1863.845354708,,,,,,,,1863.5466411660002,1863.550143708,None,,,,,,,,,,,205,bathroom,1,2024-03-14_15h57.40.505,image_similarity_rating,2023.2.3,None,2024-03-14 15h57.51.416612 +0100,
,121,123,426,426,stimuli/own/bathroom/121_bat.jpg,stimuli/own/bathroom/123_bat.jpg,,,,,,,,,0,130,130,425,1874.8148078750003,,,,,,,,,,,1875.0995943750002,1875.2678452500002,1875.2678452500002,1875.2678452500002,1875.2678452500002,1875.2678452500002,1875.2678452500002,1875.2678452500002,1875.2678452500002,1875.2678452500002,1884.750551625,-7,7,3,3.0,6.4885504999997465,1.0,9.24719637499993,1874.8130455830003,1874.8148078750003,1875.2678452500002,1875.099580166,,,,,,,,1874.8095462080003,1874.8129973329999,None,,,,,,,,,,,205,bathroom,1,2024-03-14_15h57.40.505,image_similarity_rating,2023.2.3,None,2024-03-14 15h57.51.416612 +0100,
,119,130,395,395,stimuli/own/bathroom/119_bat.jpg,stimuli/own/bathroom/130_bat.jpg,,,,,,,,,0,131,131,394,1884.7606549580003,,,,,,,,,,,1885.045268,1885.2121924159999,1885.2121924159999,1885.2121924159999,1885.2121924159999,1885.2121924159999,1885.2121924159999,1885.2121924159999,1885.2121924159999,1885.2121924159999,1892.1506944579999,7,-7,3,6.0,5.079572292000194,2.0,6.652162709000095,1884.754334333,1884.7606549580003,1885.2121924159999,1885.0452509580002,,,,,,,,1884.7507752910003,1884.754286833,None,,,,,,,,,,,205,bathroom,1,2024-03-14_15h57.40.505,image_similarity_rating,2023.2.3,None,2024-03-14 15h57.51.416612 +0100,
,123,141,475,475,stimuli/own/bathroom/123_bat.jpg,stimuli/own/bathroom/141_bat.jpg,,,,,,,,,0,132,132,474,1892.1605134580002,,,,,,,,,,,1892.445061916,1892.6107212499999,1892.6107212499999,1892.6107212499999,1892.6107212499999,1892.6107212499999,1892.6107212499999,1892.6107212499999,1892.6107212499999,1892.6107212499999,1909.150667,7,-7,3,4.0,8.704993833000117,4.0,16.013989459000186,1892.154358166,1892.1605134580002,1892.6107212499999,1892.445048208,,,,,,,,1892.1509134579999,1892.1543104160003,None,,,,,,,,,,,205,bathroom,1,2024-03-14_15h57.40.505,image_similarity_rating,2023.2.3,None,2024-03-14 15h57.51.416612 +0100,
,103,121,81,81,stimuli/own/bathroom/103_bat.jpg,stimuli/own/bathroom/121_bat.jpg,,,,,,,,,0,133,133,80,1909.1605752910002,,,,,,,,,,,1909.4451392080002,1909.612564708,1909.612564708,1909.612564708,1909.612564708,1909.612564708,1909.612564708,1909.612564708,1909.612564708,1909.612564708,1919.079672833,7,-7,3,7.0,6.573822792000101,2.0,9.36907204199997,1909.154358041,1909.1605752910002,1909.612564708,1909.4451245410003,,,,,,,,1909.15088675,1909.15431125,None,,,,,,,,,,,205,bathroom,1,2024-03-14_15h57.40.505,image_similarity_rating,2023.2.3,None,2024-03-14 15h57.51.416612 +0100,
,102,112,41,41,stimuli/own/bathroom/102_bat.jpg,stimuli/own/bathroom/112_bat.jpg,,,,,,,,,0,134,134,40,1919.0852297080003,,,,,,,,,,,1919.378415458,1919.545825166,1919.545825166,1919.545825166,1919.545825166,1919.545825166,1919.545825166,1919.545825166,1919.545825166,1919.545825166,1927.3795349580002,7,-7,3,6.0,5.474119499999688,3.0,7.671008917000108,1919.083336291,1919.0852297080003,1919.545825166,1919.378399375,,,,,,,,1919.0798925830002,1919.0832896250001,None,,,,,,,,,,,205,bathroom,1,2024-03-14_15h57.40.505,image_similarity_rating,2023.2.3,None,2024-03-14 15h57.51.416612 +0100,
,112,125,256,256,stimuli/own/bathroom/112_bat.jpg,stimuli/own/bathroom/125_bat.jpg,,,,,,,,,0,135,135,255,1927.385142333,,,,,,,,,,,1927.678384125,1927.8428377500002,1927.8428377500002,1927.8428377500002,1927.8428377500002,1927.8428377500002,1927.8428377500002,1927.8428377500002,1927.8428377500002,1927.8428377500002,1935.8925348330001,-7,7,3,5.0,3.56132554099986,2.0,7.849525709000318,1927.38321475,1927.385142333,1927.8428377500002,1927.6783710000002,,,,,,,,1927.379767875,1927.383168041,None,,,,,,,,,,,205,bathroom,1,2024-03-14_15h57.40.505,image_similarity_rating,2023.2.3,None,2024-03-14 15h57.51.416612 +0100,
,114,141,319,319,stimuli/own/bathroom/114_bat.jpg,stimuli/own/bathroom/141_bat.jpg,,,,,,,,,0,136,136,318,1935.8983353750002,,,,,,,,,,,1936.182287541,1936.3448019160003,1936.3448019160003,1936.3448019160003,1936.3448019160003,1936.3448019160003,1936.3448019160003,1936.3448019160003,1936.3448019160003,1936.3448019160003,1947.7547739580002,-7,7,3,5.0,8.04170083300005,4.0,11.221589875000063,1935.8962547500003,1935.8983353750002,1936.3448019160003,1936.182275083,,,,,,,,1935.892779166,1935.8962076660002,None,,,,,,,,,,,205,bathroom,1,2024-03-14_15h57.40.505,image_similarity_rating,2023.2.3,None,2024-03-14 15h57.51.416612 +0100,
,127,137,525,525,stimuli/own/bathroom/127_bat.jpg,stimuli/own/bathroom/137_bat.jpg,,,,,,,,,0,137,137,524,1947.760325,,,,,,,,,,,1948.044895708,1948.210029916,1948.210029916,1948.210029916,1948.210029916,1948.210029916,1948.210029916,1948.210029916,1948.210029916,1948.210029916,1957.4422391250002,7,-7,3,4.0,5.917006708000372,5.0,9.081624750000174,1947.758465916,1947.760325,1948.210029916,1948.044875541,,,,,,,,1947.7549928330002,1947.7584186249999,None,,,,,,,,,,,205,bathroom,1,2024-03-14_15h57.40.505,image_similarity_rating,2023.2.3,None,2024-03-14 15h57.51.416612 +0100,
,104,127,118,118,stimuli/own/bathroom/104_bat.jpg,stimuli/own/bathroom/127_bat.jpg,,,,,,,,,0,138,138,117,1957.4480462909999,,,,,,,,,,,1957.73256625,1957.9012903750001,1957.9012903750001,1957.9012903750001,1957.9012903750001,1957.9012903750001,1957.9012903750001,1957.9012903750001,1957.9012903750001,1957.9012903750001,1967.499953916,7,-7,3,5.0,5.3601740409999366,2.0,9.374761457999739,1957.446094791,1957.4480462909999,1957.9012903750001,1957.7325521660002,,,,,,,,1957.4424591660002,1957.4460475409999,None,,,,,,,,,,,205,bathroom,1,2024-03-14_15h57.40.505,image_similarity_rating,2023.2.3,None,2024-03-14 15h57.51.416612 +0100,
,113,141,295,295,stimuli/own/bathroom/113_bat.jpg,stimuli/own/bathroom/141_bat.jpg,,,,,,,,,0,139,139,294,1967.510382625,,,,,,,,,,,1967.794939958,1967.966550208,1967.966550208,1967.966550208,1967.966550208,1967.966550208,1967.966550208,1967.966550208,1967.966550208,1967.966550208,1982.2174453330001,7,-7,3,5.0,8.904134040999907,5.0,13.600047459000052,1967.5038444580002,1967.510382625,1967.966550208,1967.7949193750003,,,,,,,,1967.5001731660002,1967.5037947910002,None,,,,,,,,,,,205,bathroom,1,2024-03-14_15h57.40.505,image_similarity_rating,2023.2.3,None,2024-03-14 15h57.51.416612 +0100,
,106,136,184,184,stimuli/own/bathroom/106_bat.jpg,stimuli/own/bathroom/136_bat.jpg,,,,,,,,,0,140,140,183,1982.226743416,,,,,,,,,,,1982.511535125,1982.6813063750003,1982.6813063750003,1982.6813063750003,1982.6813063750003,1982.6813063750003,1982.6813063750003,1982.6813063750003,1982.6813063750003,1982.6813063750003,1994.5792870000002,-7,7,3,4.0,9.25889799999959,2.0,11.261819124999874,1982.2211117080003,1982.226743416,1982.6813063750003,1982.511512375,,,,,,,,1982.217667791,1982.2210644160002,None,,,,,,,,,,,205,bathroom,1,2024-03-14_15h57.40.505,image_similarity_rating,2023.2.3,None,2024-03-14 15h57.51.416612 +0100,
,114,118,298,298,stimuli/own/bathroom/114_bat.jpg,stimuli/own/bathroom/118_bat.jpg,,,,,,,,,0,141,141,297,1994.5848763330002,,,,,,,,,,,1994.878098208,1995.043009583,1995.043009583,1995.043009583,1995.043009583,1995.043009583,1995.043009583,1995.043009583,1995.043009583,1995.043009583,2008.9135885829999,-7,7,3,5.0,11.261069624999891,1.0,13.632211790999918,1994.582940166,1994.5848763330002,1995.043009583,1994.8780826250002,,,,,,,,1994.5795042500001,1994.582893125,None,,,,,,,,,,,205,bathroom,1,2024-03-14_15h57.40.505,image_similarity_rating,2023.2.3,None,2024-03-14 15h57.51.416612 +0100,
,101,138,31,31,stimuli/own/bathroom/101_bat.jpg,stimuli/own/bathroom/138_bat.jpg,,,,,,,,,0,142,142,30,2008.91922125,,,,,,,,,,,2009.2113890000003,2009.3801255,2009.3801255,2009.3801255,2009.3801255,2009.3801255,2009.3801255,2009.3801255,2009.3801255,2009.3801255,2018.3921644580003,-7,7,3,5.0,6.83434545900036,2.0,8.275339708000047,2008.917278875,2008.91922125,2009.3801255,2009.211373625,,,,,,,,2008.9138105,2008.917231791,None,,,,,,,,,,,205,bathroom,1,2024-03-14_15h57.40.505,image_similarity_rating,2023.2.3,None,2024-03-14 15h57.51.416612 +0100,
,106,111,162,162,stimuli/own/bathroom/106_bat.jpg,stimuli/own/bathroom/111_bat.jpg,,,,,,,,,0,143,143,161,2018.3978198749999,,,,,,,,,,,2018.682406708,2018.850806583,2018.850806583,2018.850806583,2018.850806583,2018.850806583,2018.850806583,2018.850806583,2018.850806583,2018.850806583,2031.842400333,-7,7,3,2.0,7.01935204099982,4.0,11.835363374999815,2018.3958853750003,2018.3978198749999,2018.850806583,2018.6823931249999,,,,,,,,2018.392392333,2018.395837291,None,,,,,,,,,,,205,bathroom,1,2024-03-14_15h57.40.505,image_similarity_rating,2023.2.3,None,2024-03-14 15h57.51.416612 +0100,
,104,106,101,101,stimuli/own/bathroom/104_bat.jpg,stimuli/own/bathroom/106_bat.jpg,,,,,,,,,0,144,144,100,2031.8479157909999,,,,,,,,,,,2032.1323170829999,2032.303006041,2032.303006041,2032.303006041,2032.303006041,2032.303006041,2032.303006041,2032.303006041,2032.303006041,2032.303006041,2041.0086085,-7,7,3,2.0,8.416536042000189,1.0,3.2263929579999058,2031.8461117909999,2031.8479157909999,2032.303006041,2032.1323032500002,,,,,,,,2031.8426258750003,2031.8460641660001,None,,,,,,,,,,,205,bathroom,1,2024-03-14_15h57.40.505,image_similarity_rating,2023.2.3,None,2024-03-14 15h57.51.416612 +0100,
,112,139,268,268,stimuli/own/bathroom/112_bat.jpg,stimuli/own/bathroom/139_bat.jpg,,,,,,,,,0,145,145,267,2041.014378,,,,,,,,,,,2041.298934833,2041.469015416,2041.469015416,2041.469015416,2041.469015416,2041.469015416,2041.469015416,2041.469015416,2041.469015416,2041.469015416,2049.9795397079997,-7,7,3,5.0,4.78960112499999,4.0,7.111518416999843,2041.012420833,2041.014378,2041.469015416,2041.2989206660002,,,,,,,,2041.008832625,2041.012372541,None,,,,,,,,,,,205,bathroom,1,2024-03-14_15h57.40.505,image_similarity_rating,2023.2.3,None,2024-03-14 15h57.51.416612 +0100,
,122,131,450,450,stimuli/own/bathroom/122_bat.jpg,stimuli/own/bathroom/131_bat.jpg,,,,,,,,,0,146,146,449,2049.985124375,,,,,,,,,,,2050.277885083,2050.448804375,2050.448804375,2050.448804375,2050.448804375,2050.448804375,2050.448804375,2050.448804375,2050.448804375,2050.448804375,2060.412421166,-7,7,3,4.0,7.094407167000099,1.0,9.289832124999975,2049.983203666,2049.985124375,2050.448804375,2050.277868833,,,,,,,,2049.9797595830005,2049.983156083,None,,,,,,,,,,,205,bathroom,1,2024-03-14_15h57.40.505,image_similarity_rating,2023.2.3,None,2024-03-14 15h57.51.416612 +0100,
,113,122,278,278,stimuli/own/bathroom/113_bat.jpg,stimuli/own/bathroom/122_bat.jpg,,,,,,,,,0,147,147,277,2060.4179818330003,,,,,,,,,,,2060.7112909160005,2060.8801247500005,2060.8801247500005,2060.8801247500005,2060.8801247500005,2060.8801247500005,2060.8801247500005,2060.8801247500005,2060.8801247500005,2060.8801247500005,2074.39195225,-7,7,3,2.0,10.798351667000134,1.0,13.01050479200012,2060.416207708,2060.4179818330003,2060.8801247500005,2060.711274958,,,,,,,,2060.4126425410004,2060.416160125,None,,,,,,,,,,,205,bathroom,1,2024-03-14_15h57.40.505,image_similarity_rating,2023.2.3,None,2024-03-14 15h57.51.416612 +0100,
,116,122,325,325,stimuli/own/bathroom/116_bat.jpg,stimuli/own/bathroom/122_bat.jpg,,,,,,,,,0,148,148,324,2074.3977170830003,,,,,,,,,,,2074.6818608330004,2074.8467245829997,2074.8467245829997,2074.8467245829997,2074.8467245829997,2074.8467245829997,2074.8467245829997,2074.8467245829997,2074.8467245829997,2074.8467245829997,2084.2043183329997,-7,7,3,4.0,6.984734374999789,2.0,8.572644374999982,2074.395711958,2074.3977170830003,2074.8467245829997,2074.6818498330003,,,,,,,,2074.3921919160002,2074.3956641249997,None,,,,,,,,,,,205,bathroom,1,2024-03-14_15h57.40.505,image_similarity_rating,2023.2.3,None,2024-03-14 15h57.51.416612 +0100,
,116,130,332,332,stimuli/own/bathroom/116_bat.jpg,stimuli/own/bathroom/130_bat.jpg,,,,,,,,,0,149,149,331,2084.226943416,,,,,,,,,,,2084.5106305,2084.6795615,2084.6795615,2084.6795615,2084.6795615,2084.6795615,2084.6795615,2084.6795615,2084.6795615,2084.6795615,2095.4590054580003,-7,7,3,5.0,8.534726208999928,2.0,10.467197582999688,2084.2080936250004,2084.226943416,,2084.510610083,,,,,,,,2084.2045396250005,2084.208045833,None,,,,,,,,,,,205,bathroom,1,2024-03-14_15h57.40.505,image_similarity_rating,2023.2.3,None,2024-03-14 15h57.51.416612 +0100,
,114,140,318,318,stimuli/own/bathroom/114_bat.jpg,stimuli/own/bathroom/140_bat.jpg,,,,,,,,,0,150,150,317,2095.4647542499997,,,,,,,,,,,2095.748627291,2095.914857291,2095.914857291,2095.914857291,2095.914857291,2095.914857291,2095.914857291,2095.914857291,2095.914857291,2095.914857291,2105.2039506660003,7,-7,3,3.0,6.492073666999659,4.0,8.826965499999915,2095.4628465000005,2095.4647542499997,2095.914857291,2095.7486147910004,,,,,,,,2095.4592252909997,2095.4627988330003,None,,,,,,,,,,,205,bathroom,1,2024-03-14_15h57.40.505,image_similarity_rating,2023.2.3,None,2024-03-14 15h57.51.416612 +0100,
,132,135,561,561,stimuli/own/bathroom/132_bat.jpg,stimuli/own/bathroom/135_bat.jpg,,,,,,,,,0,151,151,560,2105.209403375,,,,,,,,,,,2105.4943772080005,2105.6584967500003,2105.6584967500003,2105.6584967500003,2105.6584967500003,2105.6584967500003,2105.6584967500003,2105.6584967500003,2105.6584967500003,2105.6584967500003,2124.3374967910004,7,-7,3,3.0,13.467130832999828,5.0,18.391463292000026,2105.2076289160004,2105.209403375,2105.6584967500003,2105.4943632080003,,,,,,,,2105.20417,2105.2075814580003,None,,,,,,,,,,,205,bathroom,1,2024-03-14_15h57.40.505,image_similarity_rating,2023.2.3,None,2024-03-14 15h57.51.416612 +0100,
,102,123,51,51,stimuli/own/bathroom/102_bat.jpg,stimuli/own/bathroom/123_bat.jpg,,,,,,,,,0,152,152,50,2124.343005083,,,,,,,,,,,2124.627542041,2124.7940179160005,2124.7940179160005,2124.7940179160005,2124.7940179160005,2124.7940179160005,2124.7940179160005,2124.7940179160005,2124.7940179160005,2124.7940179160005,2135.94210775,7,-7,3,6.0,7.052106500000264,3.0,9.979673249999905,2124.341180833,2124.343005083,2124.7940179160005,2124.6275261660003,,,,,,,,2124.3377178749997,2124.341133166,None,,,,,,,,,,,205,bathroom,1,2024-03-14_15h57.40.505,image_similarity_rating,2023.2.3,None,2024-03-14 15h57.51.416612 +0100,
