sub_num,trial,block,task,is_practice,category,image,texture,duration,mask_dur,jitter,stim_time,time_of_resp,trial_response,mask_time,fix_time,jit_onset,trial_end,trial_accuracy,RT
114,1,1,categorization,0,kitchen,SHINEd_sun_aenotlpyftoioydp.tif,82,0.0666666666666667,0.0666666666666667,1.23333333333333,27950.099538,27950.867068417,9,27950.16199525,27950.22230775,27950.874128042,27952.100855167,1,0.767530417000671
114,2,1,categorization,0,bathroom,SHINEd_sun_aunuadmjocsddsrl.tif,52,0.0666666666666667,0.0666666666666667,0.783333333333333,27952.117012292,27953.0556245,9,27952.18356125,27952.250429,27953.07237625,27953.849086667,0,0.93861220799954
114,3,1,categorization,0,bathroom,SHINEd_sun_anhioqovhscjqqwb.tif,38,0.0666666666666667,0.0666666666666667,0.75,27953.865702375,27954.5316695,13,27953.928434083,27953.988442167,27954.540297208,27955.283636458,1,0.665967125001771
114,4,1,categorization,0,bathroom,SHINEd_sun_akiytfaagpdsphgz.tif,31,0.0666666666666667,0.0666666666666667,1.23333333333333,27955.2885915,27956.123487667,13,27955.350290375,27955.411278083,27956.130035958,27957.356742583,1,0.834896166998078
114,5,1,categorization,0,kitchen,SHINEd_sun_adgqasybjyktddhj.tif,78,0.0666666666666667,0.0666666666666667,1.13333333333333,27957.372847583,27958.116452625,9,27957.439737125,27957.505243042,27958.145055167,27959.271769292,1,0.743605042000127
114,6,1,categorization,0,kitchen,SHINEd_sun_ahdycvpopffkzzsu.tif,90,0.0666666666666667,0.0666666666666667,0.95,27959.281477,27960.10118425,9,27959.347043875,27959.414078792,27960.120732917,27961.064114667,1,0.819707250000647
114,7,1,categorization,0,kitchen,SHINEd_sun_auticobqsbwgoppi.tif,104,0.0666666666666667,0.0666666666666667,0.733333333333333,27961.082010583,27961.851758125,13,27961.14913925,27961.214899833,27961.866731083,27962.593402583,0,0.769747542002733
114,8,1,categorization,0,bathroom,SHINEd_sun_agrwbmhcpmfuwmsg.tif,24,0.0666666666666667,0.0666666666666667,1.31666666666667,27962.599128083,27963.531319375,13,27962.660732375,27962.721932542,27963.540442833,27964.850499917,1,0.932191292002244
114,9,1,categorization,0,bathroom,SHINEd_sun_agyqfjcfkdcydepw.tif,25,0.0666666666666667,0.0666666666666667,0.8,27964.865320333,27965.755502875,9,27964.932142083,27964.997661583,27965.770018667,27966.563389917,0,0.89018254199982
114,10,1,categorization,0,kitchen,SHINEd_sun_avszsnwsbuqfgzbn.tif,105,0.0666666666666667,0.0666666666666667,0.716666666666667,27966.582999,27967.379598917,9,27966.645685875,27966.705665625,27967.391159083,27968.101162667,1,0.796599917001004
114,11,1,categorization,0,bathroom,SHINEd_sun_ausgutylgojavyoq.tif,53,0.0666666666666667,0.0666666666666667,0.916666666666667,27968.106035125,27968.811279625,13,27968.167670167,27968.228717125,27968.830757083,27969.740760667,1,0.705244499997207
114,12,1,categorization,0,bathroom,SHINEd_sun_acegryoqftbzowsg.tif,17,0.0666666666666667,0.0666666666666667,0.95,27969.747103292,27970.587563,9,27969.808936042,27969.869989042,27970.605253375,27971.548592208,0,0.840459708000708
114,13,1,categorization,0,kitchen,SHINEd_sun_ahywdevtimnqcsln.tif,94,0.0666666666666667,0.0666666666666667,0.833333333333333,27971.553621,27972.362843583,9,27971.615298042,27971.676368417,27972.37877475,27973.20544675,1,0.809222583000519
114,14,1,categorization,0,kitchen,SHINEd_sun_acwjdupvyjsugpay.tif,76,0.0666666666666667,0.0666666666666667,0.75,27973.21036025,27974.107413375,9,27973.272133625,27973.333119625,27974.118564167,27974.861901125,1,0.897053125001548
114,15,1,categorization,0,bathroom,SHINEd_labelme_sfxiulhjbhlyiyt.tif,11,0.0666666666666667,0.0666666666666667,1.53333333333333,27974.866755375,27975.563467542,13,27974.928459167,27974.989366083,27975.5745755,27977.101279458,1,0.696712167002261
114,16,1,categorization,0,kitchen,SHINEd_sun_acfmftudsenhrfhy.tif,74,0.0666666666666667,0.0666666666666667,1.05,27977.115344333,27978.14980725,9,27977.182250083,27977.247993667,27978.171197667,27979.214581792,1,1.03446291699947
114,17,1,categorization,0,bathroom,SHINEd_sun_ahijqszoswveeyji.tif,28,0.0666666666666667,0.0666666666666667,0.9,27979.226651333,27980.3043635,9,27979.290928667,27979.357728167,27980.331084875,27981.22446025,0,1.07771216699985
114,18,1,categorization,0,bathroom,SHINEd_sun_atstyziqcmkahyxk.tif,51,0.0666666666666667,0.0666666666666667,1.18333333333333,27981.236072875,27982.115472167,13,27981.297999917,27981.358656583,27982.127339417,27983.304048542,1,0.879399292000016
114,19,1,categorization,0,bathroom,SHINEd_sun_afcoljnjfoxjtgja.tif,20,0.0666666666666667,0.0666666666666667,0.9,27983.3134265,27984.313331958,9,27983.3801965,27983.445878083,27984.335109458,27985.228447958,0,0.999905458000285
114,20,1,categorization,0,kitchen,SHINEd_sun_acxkpeoqbwcxfvip.tif,77,0.0666666666666667,0.0666666666666667,1.66666666666667,27985.233426083,27986.123651583,9,27985.295191708,27985.356130292,27986.141321792,27987.801357833,1,0.89022549999936
114,21,1,categorization,0,bathroom,SHINEd_sun_auzqhkafidnkrwmo.tif,54,0.0666666666666667,0.0666666666666667,1.13333333333333,27987.819097042,27988.598816958,9,27987.885726542,27987.952066583,27988.624407,27989.751114625,0,0.779719916001341
114,22,1,categorization,0,kitchen,SHINEd_sun_amjjdeyrggfqgmom.tif,100,0.0666666666666667,0.0666666666666667,1.3,27989.759916625,27990.938771833,9,27989.824795333,27989.892585625,27990.965865625,27992.259257833,1,1.17885520799973
114,23,1,categorization,0,bathroom,SHINEd_sun_ajlawzvmubibwbpy.tif,30,0.0666666666666667,0.0666666666666667,1.93333333333333,27992.276117333,27993.133179875,9,27992.342809958,27992.408957167,27993.148203208,27995.074916208,0,0.857062541999767
114,24,1,categorization,0,kitchen,SHINEd_sun_ahpczsiumwwocjkv.tif,92,0.0666666666666667,0.0666666666666667,1,27995.094313958,27995.994904167,9,27995.16053125,27995.226655167,27996.016516583,27997.009855292,1,0.900590208999347
114,25,1,categorization,0,bathroom,SHINEd_sun_azqyogdvyhahyram.tif,60,0.0666666666666667,0.0666666666666667,0.883333333333333,27997.014807667,27997.931269417,9,27997.076463792,27997.1374705,27997.939244667,27998.815917,0,0.916461749999144
114,26,1,categorization,0,kitchen,SHINEd_sun_auaiucuqpdausiva.tif,102,0.0666666666666667,0.0666666666666667,1.95,27998.82082675,27999.84339825,9,27998.882455917,27998.943712167,27999.862342042,28001.8057115,1,1.02257149999787
114,27,1,categorization,0,bathroom,SHINEd_sun_axldvoqbuvuggfmq.tif,57,0.0666666666666667,0.0666666666666667,1.25,28001.823338458,28002.592762417,9,28001.890005625,28001.955777583,28002.612065792,28003.855454292,0,0.769423958998232
114,28,1,categorization,0,kitchen,SHINEd_sun_ajkqhtgcbgpcwrwn.tif,97,0.0666666666666667,0.0666666666666667,1.95,28003.875038917,28004.811084417,9,28003.941999625,28004.007608583,28004.830395208,28006.773782333,1,0.936045499998727
114,29,1,categorization,0,bathroom,SHINEd_sun_apkruvsevgegsdwp.tif,44,0.0666666666666667,0.0666666666666667,1.91666666666667,28006.791441917,28007.728944625,9,28006.857848292,28006.924459042,28007.746126667,28009.656185958,0,0.937502707998647
114,30,1,categorization,0,kitchen,SHINEd_labelme_kxvouciolcpqplr.tif,62,0.0666666666666667,0.0666666666666667,1.41666666666667,28009.67330275,28010.502478833,9,28009.739926375,28009.806608458,28010.529319625,28011.939355792,1,0.829176082999766
114,31,1,categorization,0,kitchen,SHINEd_sun_aixorpehvfykdynp.tif,95,0.0666666666666667,0.0666666666666667,0.716666666666667,28011.958099667,28012.813349083,9,28012.024842167,28012.090836083,28012.829716708,28013.539772667,1,0.855249415999424
114,32,1,categorization,0,bathroom,SHINEd_sun_agguqiubmwhqqunb.tif,22,0.0666666666666667,0.0666666666666667,1.28333333333333,28013.552672542,28014.64298325,9,28013.615569625,28013.675467417,28014.661841333,28015.938550375,0,1.0903107080012
114,33,1,categorization,0,bathroom,SHINEd_sun_aggnnqpdorgxpvce.tif,21,0.0666666666666667,0.0666666666666667,0.9,28015.957015417,28016.884310542,9,28016.023757125,28016.08939325,28016.912693583,28017.806032875,0,0.927295124998636
114,34,1,categorization,0,bathroom,SHINEd_sun_anryaplzeujmzfkd.tif,39,0.0666666666666667,0.0666666666666667,0.8,28017.813701417,28019.0027325,9,28017.875422708,28017.936392833,28019.022254167,28019.8155905,0,1.18903108300219
114,35,1,categorization,0,kitchen,SHINEd_sun_aunzlwrbjumxhwdj.tif,103,0.0666666666666667,0.0666666666666667,1.01666666666667,28019.820097167,28021.4754335,9,28019.8818045,28019.942809042,28021.495092625,28022.505134,1,1.65533633299856
114,36,1,categorization,0,kitchen,SHINEd_sun_aapllqyqlykszopd.tif,66,0.0666666666666667,0.0666666666666667,0.85,28022.515098,28024.014548792,9,28022.579286292,28022.645959458,28024.03918275,28024.8825195,1,1.49945079200188
114,37,1,categorization,0,bathroom,SHINEd_sun_acduarbnmmoglmiv.tif,16,0.0666666666666667,0.0666666666666667,1.51666666666667,28024.887363083,28026.347491167,9,28024.949032167,28025.010095125,28026.362610375,28027.872646625,0,1.46012808399973
114,38,1,categorization,0,bathroom,SHINEd_sun_avhrdrntsqrjzccq.tif,55,0.0666666666666667,0.0666666666666667,1.83333333333333,28027.889985833,28029.176673,13,28027.958320208,28028.022624333,28029.198605083,28031.025309125,1,1.28668716700122
114,39,1,categorization,0,kitchen,SHINEd_sun_aeqdocilnnpuvuhx.tif,83,0.0666666666666667,0.0666666666666667,0.716666666666667,28031.042879875,28032.475237667,9,28031.109598792,28031.175440917,28032.494576792,28033.20458175,1,1.4323577920004
114,40,1,categorization,0,kitchen,SHINEd_sun_aqeaevwwwjoqhzvl.tif,101,0.0666666666666667,0.0666666666666667,0.9,28033.209093208,28034.067241125,9,28033.270817292,28033.3317315,28034.083953667,28034.977291958,1,0.858147917002498
114,41,1,categorization,0,kitchen,SHINEd_sun_aexklacwqwezaorf.tif,84,0.0666666666666667,0.0666666666666667,0.916666666666667,28034.982222042,28035.875162417,9,28035.044007333,28035.104836125,28035.889969458,28036.799974083,1,0.892940375000762
114,42,1,categorization,0,bathroom,SHINEd_sun_apeeialkgkuxddgh.tif,42,0.0666666666666667,0.0666666666666667,0.816666666666667,28036.8050025,28037.579115,13,28036.866737042,28036.928009292,28037.596174917,28038.40618025,1,0.774112499999319
114,43,1,categorization,0,kitchen,SHINEd_sun_aggjlwcdjsjcaemh.tif,86,0.0666666666666667,0.0666666666666667,1.88333333333333,28038.413607125,28039.386597958,9,28038.475404042,28038.536252875,28039.404985083,28041.281690375,1,0.972990833000949
114,44,1,categorization,0,bathroom,SHINEd_sun_apjevzvycyhuqghb.tif,43,0.0666666666666667,0.0666666666666667,0.9,28041.298804583,28042.058198875,9,28041.365356625,28041.431121042,28042.087363917,28042.980702417,0,0.759394291999342
114,45,1,categorization,0,bathroom,SHINEd_sun_ahcvzmoyaycdoftf.tif,27,0.0666666666666667,0.0666666666666667,1,28042.985725667,28043.755008792,13,28043.0472975,28043.108405292,28043.760266125,28044.753603,1,0.769283124998765
114,46,1,categorization,0,bathroom,SHINEd_sun_ambriybtogmepttm.tif,36,0.0666666666666667,0.0666666666666667,0.733333333333333,28044.75838425,28045.714634,9,28044.820016958,28044.881044958,28045.732872333,28046.459544625,0,0.956249750001007
114,47,1,categorization,0,kitchen,SHINEd_sun_afuyedyxivkhecmu.tif,85,0.0666666666666667,0.0666666666666667,0.883333333333333,28046.46443125,28047.386662875,9,28046.526190625,28046.5872735,28047.40628375,28048.28295575,1,0.922231625001587
114,48,1,categorization,0,bathroom,SHINEd_sun_apkxzenqapsujocq.tif,45,0.0666666666666667,0.0666666666666667,1.73333333333333,28048.287923833,28048.9625705,13,28048.349698375,28048.410637792,28048.979494708,28050.706211,1,0.67464666700107
114,49,1,categorization,0,kitchen,SHINEd_sun_abftihopvusyfakt.tif,71,0.0666666666666667,0.0666666666666667,1.91666666666667,28050.723648625,28051.482321417,9,28050.790442958,28050.856679667,28051.495498958,28053.405533,1,0.758672791998833
114,50,1,categorization,0,kitchen,SHINEd_sun_acgtpgfybqjmzeyw.tif,75,0.0666666666666667,0.0666666666666667,1.35,28053.42036075,28054.162116833,9,28053.487219292,28053.552955875,28054.173990417,28055.517365042,1,0.741756082999927
