sub_num,trial,block,task,is_practice,category,image,texture,duration,mask_dur,jitter,stim_time,time_of_resp,trial_response,mask_time,fix_time,jit_onset,trial_end,trial_accuracy,RT
124,1,0,familiarity,1,bathroom,bathroom_practice1.tif,221,1.5,0,0.916666666666667,5550.532779542,5565.076491708,5,NaN,5565.082837458,5565.101143583,5566.011147417,NaN,NaN
124,2,0,familiarity,1,bathroom,bathroom_practice2.tif,222,1.5,0,0.85,5566.015660833,5571.580594583,1,NaN,5571.586360042,5571.604669917,5572.4480095,NaN,NaN
124,3,0,familiarity,1,bathroom,bathroom_practice3.tif,223,1.5,0,0.883333333333333,5572.453300792,5575.467223667,2,NaN,5575.487592542,5575.507642708,5576.384313375,NaN,NaN
124,4,0,familiarity,1,bathroom,bathroom_practice5.tif,225,1.5,0,1.43333333333333,5576.389058542,5581.948491333,6,NaN,5581.953981417,5581.972305167,5583.399024625,NaN,NaN
124,5,0,familiarity,1,bathroom,bathroom_practice4.tif,224,1.5,0,1.53333333333333,5583.412505583,5587.484437875,6,NaN,5587.49038725,5587.508866708,5589.035591292,NaN,NaN
124,1,1,familiarity,0,bathroom,sun_ahcvzmoyaycdoftf.tif,137,1.5,0,1.26666666666667,5599.503968625,5616.796621667,5,NaN,5616.802342083,5616.820599042,5618.080639375,NaN,NaN
124,2,1,familiarity,0,bathroom,sun_aggnnqpdorgxpvce.tif,131,1.5,0,1.76666666666667,5618.097630333,5622.012626375,1,NaN,5622.018468208,5622.036712083,5623.796767667,NaN,NaN
124,3,1,familiarity,0,bathroom,sun_aclfzgynxzxlbepz.tif,129,1.5,0,1.46666666666667,5623.811035958,5628.003596375,2,NaN,5628.009796417,5628.028099583,5629.488153625,NaN,NaN
124,4,1,familiarity,0,bathroom,sun_apmqjbnwghzuhhzh.tif,156,1.5,0,1.28333333333333,5629.504195542,5633.987543625,6,NaN,5633.993646792,5634.011965583,5635.288666125,NaN,NaN
124,5,1,familiarity,0,bathroom,sun_acegryoqftbzowsg.tif,127,1.5,0,0.966666666666667,5635.299187583,5639.172418583,2,NaN,5639.177973417,5639.196399542,5640.15640525,NaN,NaN
124,6,1,familiarity,0,bathroom,sun_alkosphxlxwjwgjd.tif,144,1.5,0,0.783333333333333,5640.161071917,5654.995548458,3,NaN,5655.001711667,5655.0199575,5655.796628333,NaN,NaN
124,7,1,familiarity,0,bathroom,sun_acgyywnybuveqsro.tif,128,1.5,0,1.21666666666667,5655.80144875,5659.26012675,1,NaN,5659.265636667,5659.283911125,5660.493967167,NaN,NaN
124,8,1,familiarity,0,bathroom,sun_anhioqovhscjqqwb.tif,148,1.5,0,1.4,5660.510199625,5669.163741917,4,NaN,5669.170438458,5669.188988875,5670.582367792,NaN,NaN
124,9,1,familiarity,0,bathroom,sun_aspsyogrekjtfozg.tif,160,1.5,0,1.3,5670.599730042,5686.876259208,4,NaN,5686.881861833,5686.900284542,5688.193670125,NaN,NaN
124,10,1,familiarity,0,bathroom,sun_ahqjwnzgolcaoidx.tif,139,1.5,0,0.95,5688.211155625,5692.067584208,5,NaN,5692.073377042,5692.091621625,5693.034959625,NaN,NaN
124,11,1,familiarity,0,bathroom,sun_ausgutylgojavyoq.tif,163,1.5,0,1.96666666666667,5693.040132208,5698.579369417,2,NaN,5698.585382792,5698.603591208,5700.563643833,NaN,NaN
124,12,1,familiarity,0,bathroom,sun_axyrejkiiaqiurjk.tif,169,1.5,0,1.13333333333333,5700.580835708,5703.397095917,1,NaN,5703.421849458,5703.444902042,5704.571612417,NaN,NaN
124,13,1,familiarity,0,bathroom,sun_agrwbmhcpmfuwmsg.tif,134,1.5,0,0.933333333333333,5704.580682625,5708.403301708,6,NaN,5708.4091005,5708.427437,5709.354108458,NaN,NaN
124,14,1,familiarity,0,bathroom,sun_axxbkopsgyouuebh.tif,168,1.5,0,1.6,5709.358851083,5712.883727667,6,NaN,5712.889314958,5712.907606667,5714.500974833,NaN,NaN
124,15,1,familiarity,0,bathroom,sun_akiytfaagpdsphgz.tif,141,1.5,0,1.38333333333333,5714.5205915,5720.483348458,5,NaN,5720.489090792,5720.507541958,5721.884251667,NaN,NaN
124,16,1,familiarity,0,bathroom,sun_aavhrsfjbserjtht.tif,123,1.5,0,1.58333333333333,5721.903200833,5726.531338125,3,NaN,5726.537446542,5726.555917542,5728.132641125,NaN,NaN
124,17,1,familiarity,0,bathroom,sun_auzqhkafidnkrwmo.tif,164,1.5,0,0.966666666666667,5728.146989208,5732.212179333,1,NaN,5732.217786208,5732.236005833,5733.196010208,NaN,NaN
124,18,1,familiarity,0,bathroom,sun_amzlamotzwfkwjco.tif,147,1.5,0,0.983333333333333,5733.201119167,5736.491408292,2,NaN,5736.497107708,5736.515531875,5737.492204375,NaN,NaN
124,19,1,familiarity,0,bathroom,sun_asfwthctfqerjvxr.tif,159,1.5,0,0.8,5737.497030708,5742.780029542,1,NaN,5742.785551458,5742.803904333,5743.597243208,NaN,NaN
124,20,1,familiarity,0,bathroom,sun_apkxzenqapsujocq.tif,155,1.5,0,0.7,5743.602181917,5746.197089042,7,NaN,5746.220042833,5746.24326375,5746.936601583,NaN,NaN
124,21,1,familiarity,0,bathroom,sun_anryaplzeujmzfkd.tif,149,1.5,0,0.716666666666667,5746.94192725,5751.475177333,4,NaN,5751.481183458,5751.499914417,5752.2099185,NaN,NaN
124,22,1,familiarity,0,bathroom,sun_atstyziqcmkahyxk.tif,161,1.5,0,1.76666666666667,5752.215799958,5754.927347292,7,NaN,5754.948499083,5754.96972425,5756.729770583,NaN,NaN
124,23,1,familiarity,0,bathroom,sun_ajlawzvmubibwbpy.tif,140,1.5,0,1.7,5756.742857083,5760.387970083,5,NaN,5760.39359375,5760.4118955,5762.105281375,NaN,NaN
124,24,1,familiarity,0,bathroom,sun_aljolscmmzydegqp.tif,143,1.5,0,1.38333333333333,5762.122204125,5766.795775875,2,NaN,5766.801527625,5766.81985,5768.196559333,NaN,NaN
124,25,1,familiarity,0,bathroom,sun_afcoljnjfoxjtgja.tif,130,1.5,0,0.766666666666667,5768.214970875,5772.963536917,3,NaN,5772.969706208,5772.988024958,5773.748029125,NaN,NaN
124,1,2,familiarity,0,bathroom,sun_azqyogdvyhahyram.tif,170,1.5,0,0.85,5803.303720958,5807.450897208,5,NaN,5807.457154875,5807.47554625,5808.318883125,NaN,NaN
124,2,2,familiarity,0,bathroom,sun_agguqiubmwhqqunb.tif,132,1.5,0,1.53333333333333,5808.323178208,5811.723730083,3,NaN,5811.729188625,5811.747411,5813.274135875,NaN,NaN
124,3,2,familiarity,0,bathroom,sun_avhrdrntsqrjzccq.tif,165,1.5,0,0.7,5813.284968958,5816.899275708,1,NaN,5816.905782917,5816.924110167,5817.617447708,NaN,NaN
124,4,2,familiarity,0,bathroom,sun_aunuadmjocsddsrl.tif,162,1.5,0,1.36666666666667,5817.622591875,5821.267135792,6,NaN,5821.272957417,5821.291285333,5822.65133125,NaN,NaN
124,5,2,familiarity,0,bathroom,sun_abapwbhyhkfixyex.tif,124,1.5,0,0.716666666666667,5822.6692775,5826.739810958,3,NaN,5826.745417,5826.763903917,5827.473909208,NaN,NaN
124,6,2,familiarity,0,bathroom,sun_alotolagknyrgtsk.tif,145,1.5,0,1.38333333333333,5827.478829458,5830.555726542,1,NaN,5830.56545725,5830.585028042,5831.961740792,NaN,NaN
124,7,2,familiarity,0,bathroom,labelme_sfxiulhjbhlyiyt.tif,121,1.5,0,0.916666666666667,5831.978894458,5836.083740875,6,NaN,5836.089128708,5836.107508042,5837.017514833,NaN,NaN
124,8,2,familiarity,0,bathroom,sun_aqrpegblszgcoujh.tif,158,1.5,0,1.58333333333333,5837.022606292,5841.618741,3,NaN,5841.624740667,5841.643036917,5843.219745042,NaN,NaN
124,9,2,familiarity,0,bathroom,sun_ahijqszoswveeyji.tif,138,1.5,0,1.25,5843.229645125,5847.907433375,4,NaN,5847.912790833,5847.931166,5849.174532542,NaN,NaN
124,10,2,familiarity,0,bathroom,sun_axldvoqbuvuggfmq.tif,167,1.5,0,0.95,5849.191777833,5854.091340083,5,NaN,5854.096863625,5854.115169625,5855.058508458,NaN,NaN
124,11,2,familiarity,0,bathroom,sun_ahaulkltgpkeeemi.tif,136,1.5,0,1.4,5855.063633875,5858.765517917,5,NaN,5858.782281375,5858.80059725,5860.193978833,NaN,NaN
124,12,2,familiarity,0,bathroom,sun_aghyqhbptboemmoq.tif,133,1.5,0,0.766666666666667,5860.2117785,5866.915724458,4,NaN,5866.921312125,5866.939703792,5867.699708083,NaN,NaN
124,13,2,familiarity,0,bathroom,sun_apynckhmoftszqoq.tif,157,1.5,0,0.733333333333333,5867.705046958,5874.450630333,4,NaN,5874.456491167,5874.474716542,5875.201386833,NaN,NaN
124,14,2,familiarity,0,bathroom,sun_apeeialkgkuxddgh.tif,152,1.5,0,1.06666666666667,5875.205686958,5878.41087975,6,NaN,5878.416427667,5878.43459425,5879.494647708,NaN,NaN
124,15,2,familiarity,0,bathroom,sun_agyqfjcfkdcydepw.tif,135,1.5,0,1.33333333333333,5879.503738958,5882.571452,2,NaN,5882.576873833,5882.595324333,5883.922027417,NaN,NaN
124,16,2,familiarity,0,bathroom,sun_aleqenyvunhactkl.tif,142,1.5,0,1.41666666666667,5883.934683958,5897.41077225,2,NaN,5897.416644625,5897.434868333,5898.844901167,NaN,NaN
124,17,2,familiarity,0,bathroom,sun_aapitsgbtktqubfy.tif,122,1.5,0,1.95,5898.863398208,5903.24311275,6,NaN,5903.248875708,5903.267055125,5905.210450458,NaN,NaN
124,18,2,familiarity,0,bathroom,sun_ambriybtogmepttm.tif,146,1.5,0,0.866666666666667,5905.220484,5909.72298325,3,NaN,5909.728662292,5909.747019625,5910.607024208,NaN,NaN
124,19,2,familiarity,0,bathroom,sun_apkruvsevgegsdwp.tif,154,1.5,0,0.983333333333333,5910.615510917,5914.787478542,7,NaN,5914.792880625,5914.811239708,5915.787910292,NaN,NaN
124,20,2,familiarity,0,bathroom,sun_awnqiikzaispgmwo.tif,166,1.5,0,0.983333333333333,5915.792939208,5920.227378417,3,NaN,5920.232859167,5920.251128583,5921.22780025,NaN,NaN
124,21,2,familiarity,0,bathroom,sun_abjtwfukuwddzted.tif,125,1.5,0,0.766666666666667,5921.233988542,5928.354895042,3,NaN,5928.360561167,5928.378957583,5929.138961167,NaN,NaN
124,22,2,familiarity,0,bathroom,sun_acduarbnmmoglmiv.tif,126,1.5,0,0.833333333333333,5929.143329042,5932.715273542,5,NaN,5932.720697875,5932.73901325,5933.565683417,NaN,NaN
124,23,2,familiarity,0,bathroom,sun_apjevzvycyhuqghb.tif,153,1.5,0,0.833333333333333,5933.570330667,5938.986869333,3,NaN,5938.992522958,5939.011135667,5939.837806542,NaN,NaN
124,24,2,familiarity,0,bathroom,sun_aofnryafpsjimzsb.tif,150,1.5,0,0.716666666666667,5939.842802458,5943.539480667,2,NaN,5943.544964333,5943.5633105,5944.27331675,NaN,NaN
124,25,2,familiarity,0,bathroom,sun_aoybiabnpadelefl.tif,151,1.5,0,1.71666666666667,5944.278455708,5947.098497458,1,NaN,5947.12761175,5947.151060875,5948.861118083,NaN,NaN
