sub_num,trial,block,task,is_practice,category,image,texture,duration,mask_dur,jitter,stim_time,time_of_resp,trial_response,mask_time,fix_time,jit_onset,trial_end,trial_accuracy,RT
135,1,0,categorization,1,kitchen,SHINEd_kitchen_practice1.tif,116,0.0666666666666667,0.0666666666666667,1.21666666666667,633.041096291,635.575646916,9,633.1071315,633.167647166,635.605214083,636.815519291,1,2.53455062499995
135,2,0,categorization,1,kitchen,SHINEd_kitchen_practice2.tif,117,0.0666666666666667,0.0666666666666667,1.36666666666667,636.874439041,638.59245175,9,636.94649925,637.007534958,638.6351475,639.995439625,1,1.71801270900005
135,3,0,categorization,1,kitchen,SHINEd_kitchen_practice4.tif,119,0.0666666666666667,0.0666666666666667,1.85,640.04740525,640.859883208,9,640.252053541,640.27551675,640.888311875,642.731931125,1,0.812477958000045
135,4,0,categorization,1,bathroom,SHINEd_bathroom_practice3.tif,113,0.0666666666666667,0.0666666666666667,1.55,642.7581655,643.415044083,13,642.82824,642.891463166,643.450961375,644.994582208,1,0.65687858299998
135,5,0,categorization,1,kitchen,SHINEd_kitchen_practice5.tif,120,0.0666666666666667,0.0666666666666667,1.48333333333333,645.026495708,646.291451666,13,645.099606833,645.160550583,646.342972958,647.820792625,0,1.26495595799997
135,6,0,categorization,1,bathroom,SHINEd_bathroom_practice1.tif,111,0.0666666666666667,0.0666666666666667,1.15,647.848176333,648.632593083,13,647.916830833,647.981521166,648.656861333,649.800383875,1,0.784416749999991
135,7,0,categorization,1,bathroom,SHINEd_bathroom_practice4.tif,114,0.0666666666666667,0.0666666666666667,0.733333333333333,649.811092291,651.170195708,13,649.878009041,649.945184791,651.18730775,651.9140155,1,1.35910341700003
135,8,0,categorization,1,bathroom,SHINEd_bathroom_practice2.tif,112,0.0666666666666667,0.0666666666666667,1.6,651.921158958,653.583278666,9,651.983050208,652.043802833,653.595760666,655.189140333,0,1.66211970799998
135,9,0,categorization,1,kitchen,SHINEd_kitchen_practice3.tif,118,0.0666666666666667,0.0666666666666667,0.716666666666667,655.206342458,657.238920666,9,655.272880708,655.338403416,657.257662958,657.967667041,1,2.03257820800002
135,10,0,categorization,1,bathroom,SHINEd_bathroom_practice5.tif,115,0.0666666666666667,0.0666666666666667,1.21666666666667,657.972470333,659.15883825,13,658.034333291,658.095540833,659.163914208,660.373955291,1,1.18636791699998
135,1,1,categorization,0,bathroom,SHINEd_sun_agyqfjcfkdcydepw.tif,25,0.0666666666666667,0.0666666666666667,1.23333333333333,703.078830833,704.790486333,9,703.14134825,703.201571541,704.803972625,706.030683166,0,1.71165550000001
135,2,1,categorization,0,kitchen,SHINEd_sun_ajcbwwvdlsvjyzje.tif,96,0.0666666666666667,0.0666666666666667,0.783333333333333,706.046703916,707.395176541,13,706.113972375,706.179071708,707.421326,708.197997541,0,1.348472625
135,3,1,categorization,0,bathroom,SHINEd_sun_ahqjwnzgolcaoidx.tif,29,0.0666666666666667,0.0666666666666667,0.75,708.203841416,709.278357166,13,708.265680166,708.32645925,709.295103291,710.038440625,1,1.07451574999993
135,4,1,categorization,0,bathroom,SHINEd_sun_amzlamotzwfkwjco.tif,37,0.0666666666666667,0.0666666666666667,1.23333333333333,710.043256583,711.175251375,9,710.105058,710.165907541,711.184471,712.411187041,0,1.131994792
135,5,1,categorization,0,bathroom,SHINEd_sun_apkxzenqapsujocq.tif,45,0.0666666666666667,0.0666666666666667,1.13333333333333,712.427790708,713.779057125,13,712.494394833,712.560060541,713.802338166,714.929057416,1,1.35126641700003
135,6,1,categorization,0,bathroom,SHINEd_sun_awnqiikzaispgmwo.tif,56,0.0666666666666667,0.0666666666666667,0.95,714.938777041,716.112644041,13,715.003912666,715.071131208,716.126785166,717.070122041,1,1.17386699999997
135,7,1,categorization,0,bathroom,SHINEd_sun_aclfzgynxzxlbepz.tif,19,0.0666666666666667,0.0666666666666667,0.733333333333333,717.075074541,718.622851625,9,717.136852958,717.197558916,718.633606166,719.36027825,0,1.5477770839999
135,8,1,categorization,0,bathroom,SHINEd_sun_axldvoqbuvuggfmq.tif,57,0.0666666666666667,0.0666666666666667,1.31666666666667,719.364875875,720.190465333,13,719.426605875,719.487433958,720.20657475,721.51660875,1,0.825589457999968
135,9,1,categorization,0,kitchen,SHINEd_sun_ajkqhtgcbgpcwrwn.tif,97,0.0666666666666667,0.0666666666666667,0.8,721.534030958,723.31934875,13,721.597990333,721.66292025,723.3320935,724.125431875,0,1.785317792
135,10,1,categorization,0,bathroom,SHINEd_sun_agguqiubmwhqqunb.tif,22,0.0666666666666667,0.0666666666666667,0.716666666666667,724.130328125,726.278334791,9,724.191999875,724.25300425,726.288732583,726.998736041,0,2.14800666600001
135,11,1,categorization,0,bathroom,SHINEd_sun_apeeialkgkuxddgh.tif,42,0.0666666666666667,0.0666666666666667,0.916666666666667,727.004047583,727.758999208,13,727.06571275,727.126695708,727.778533,728.688537333,1,0.75495162499999
135,12,1,categorization,0,kitchen,SHINEd_sun_aggjlwcdjsjcaemh.tif,86,0.0666666666666667,0.0666666666666667,0.95,728.6938855,729.990978708,9,728.755581208,728.816686541,730.002112875,730.945452208,1,1.29709320799998
135,13,1,categorization,0,bathroom,SHINEd_sun_acduarbnmmoglmiv.tif,16,0.0666666666666667,0.0666666666666667,0.833333333333333,730.949877375,732.038819125,9,731.011576375,731.07247675,732.058230916,732.884902875,0,1.08894175
135,14,1,categorization,0,bathroom,SHINEd_sun_aleqenyvunhactkl.tif,32,0.0666666666666667,0.0666666666666667,0.75,732.890136166,734.502671458,9,732.951916708,733.01274525,734.515001583,735.258342041,0,1.61253529199996
135,15,1,categorization,0,bathroom,SHINEd_sun_agrwbmhcpmfuwmsg.tif,24,0.0666666666666667,0.0666666666666667,1.53333333333333,735.263604916,736.454941291,9,735.325462958,735.386157208,736.472111666,737.998812708,0,1.19133637499999
135,16,1,categorization,0,kitchen,SHINEd_sun_acwjdupvyjsugpay.tif,76,0.0666666666666667,0.0666666666666667,1.05,738.015935666,739.226652666,13,738.0825475,738.147975541,739.253040333,740.2964225,0,1.21071699999993
135,17,1,categorization,0,bathroom,SHINEd_sun_aavhrsfjbserjtht.tif,13,0.0666666666666667,0.0666666666666667,0.9,740.305474833,741.407569791,13,740.370122041,740.436503375,741.429361625,742.322705583,1,1.10209495800007
135,18,1,categorization,0,kitchen,SHINEd_sun_aexklacwqwezaorf.tif,84,0.0666666666666667,0.0666666666666667,1.18333333333333,742.328338458,744.078712583,9,742.390041291,742.450961083,744.086293791,745.263002541,1,1.75037412500001
135,19,1,categorization,0,kitchen,SHINEd_sun_aqeaevwwwjoqhzvl.tif,101,0.0666666666666667,0.0666666666666667,0.9,745.272985875,746.747386791,9,745.339533666,745.405176833,746.761868583,747.655206083,1,1.47440091600004
135,20,1,categorization,0,bathroom,SHINEd_sun_akiytfaagpdsphgz.tif,31,0.0666666666666667,0.0666666666666667,1.66666666666667,747.660069333,748.598902708,13,747.721763583,747.782683291,748.61787475,750.277932291,1,0.938833374999945
135,21,1,categorization,0,kitchen,SHINEd_sun_aenotlpyftoioydp.tif,82,0.0666666666666667,0.0666666666666667,1.13333333333333,750.294639291,751.155396916,9,750.361573541,750.426849041,751.183961166,752.310677125,1,0.860757625000019
135,22,1,categorization,0,kitchen,SHINEd_sun_avszsnwsbuqfgzbn.tif,105,0.0666666666666667,0.0666666666666667,1.3,752.321043791,753.240097833,9,752.386472291,752.453217166,753.259930166,754.553301875,1,0.919054042000084
135,23,1,categorization,0,kitchen,SHINEd_sun_axyyrmzcupyhlivc.tif,107,0.0666666666666667,0.0666666666666667,1.93333333333333,754.572156166,755.402171833,9,754.639038125,754.704601333,755.428047125,757.354754333,1,0.830015666999998
135,24,1,categorization,0,kitchen,SHINEd_sun_aaxxjlsuzvqlgylf.tif,68,0.0666666666666667,0.0666666666666667,1,757.37335925,759.19817,13,757.440390791,757.5057535,759.2079675,760.201308708,0,1.82481074999998
135,25,1,categorization,0,bathroom,SHINEd_sun_axyrejkiiaqiurjk.tif,59,0.0666666666666667,0.0666666666666667,0.883333333333333,760.206656833,760.927062833,9,760.268336416,760.329291875,760.931623,761.80829575,0,0.720406000000025
135,26,1,categorization,0,bathroom,SHINEd_sun_aljolscmmzydegqp.tif,33,0.0666666666666667,0.0666666666666667,1.95,761.812992875,763.334412166,9,761.874594125,761.935669833,763.33800775,765.281387708,0,1.52141929100003
135,27,1,categorization,0,kitchen,SHINEd_sun_akcjzhbbjlbogpdi.tif,99,0.0666666666666667,0.0666666666666667,1.25,765.297677458,766.1926685,9,765.365816083,765.430109791,766.220494958,767.463873458,1,0.894991042000015
135,28,1,categorization,0,bathroom,SHINEd_sun_aapitsgbtktqubfy.tif,12,0.0666666666666667,0.0666666666666667,1.95,767.482340375,768.6020025,9,767.548291125,767.613258541,768.618851291,770.562225666,0,1.11966212499999
135,29,1,categorization,0,bathroom,SHINEd_sun_ausgutylgojavyoq.tif,53,0.0666666666666667,0.0666666666666667,1.91666666666667,770.577773666,771.280309791,13,770.646150208,770.710547625,771.299213875,773.209268458,1,0.702536125000051
135,30,1,categorization,0,bathroom,SHINEd_sun_apmqjbnwghzuhhzh.tif,46,0.0666666666666667,0.0666666666666667,1.41666666666667,773.227658083,774.275996041,13,773.294672875,773.360461125,774.300886708,775.710926,1,1.04833795799993
135,31,1,categorization,0,bathroom,SHINEd_sun_aggnnqpdorgxpvce.tif,21,0.0666666666666667,0.0666666666666667,0.716666666666667,775.729026083,776.695044875,9,775.796081958,775.861342833,776.718378541,777.428388083,0,0.966018792
135,32,1,categorization,0,bathroom,SHINEd_sun_aghyqhbptboemmoq.tif,23,0.0666666666666667,0.0666666666666667,1.28333333333333,777.434462291,778.342417083,13,777.496241541,777.557178958,778.359010625,779.635731416,1,0.907954791999941
135,33,1,categorization,0,kitchen,SHINEd_sun_aixorpehvfykdynp.tif,95,0.0666666666666667,0.0666666666666667,0.9,779.645690416,780.959577541,9,779.712106583,779.777913958,780.9852505,781.878587625,1,1.31388712500006
135,34,1,categorization,0,bathroom,SHINEd_sun_auzqhkafidnkrwmo.tif,54,0.0666666666666667,0.0666666666666667,0.8,781.883494,783.3983325,9,781.945153583,782.0062165,783.408277166,784.201614583,0,1.5148385
135,35,1,categorization,0,kitchen,SHINEd_sun_aarfiyshqohlwkmo.tif,67,0.0666666666666667,0.0666666666666667,1.01666666666667,784.206249041,785.486350458,9,784.268122791,784.328855666,785.497985833,786.508039041,1,1.28010141699997
135,36,1,categorization,0,kitchen,SHINEd_sun_amjjdeyrggfqgmom.tif,100,0.0666666666666667,0.0666666666666667,0.85,786.515419791,787.37532825,9,786.579897666,786.645802833,787.402850125,788.246227333,1,0.859908459000053
135,37,1,categorization,0,kitchen,SHINEd_sun_ahywdevtimnqcsln.tif,94,0.0666666666666667,0.0666666666666667,1.51666666666667,788.262057958,789.022130875,13,788.328729625,788.394164791,789.029742291,790.539782583,0,0.760072917000002
135,38,1,categorization,0,kitchen,SHINEd_labelme_kxvouciolcpqplr.tif,62,0.0666666666666667,0.0666666666666667,1.83333333333333,790.55503425,791.231400166,13,790.621986666,790.687454708,791.260510458,793.087230291,0,0.676365916000009
135,39,1,categorization,0,kitchen,SHINEd_sun_abdxkyyxwfskuaqb.tif,70,0.0666666666666667,0.0666666666666667,0.716666666666667,793.105286791,794.312087333,9,793.172060625,793.237629125,794.327055125,795.037060208,1,1.206800542
135,40,1,categorization,0,kitchen,SHINEd_sun_admlmbcdswaszruo.tif,79,0.0666666666666667,0.0666666666666667,0.9,795.041670208,795.806888416,9,795.103338541,795.164230791,795.816038333,796.709377875,1,0.765218207999965
135,41,1,categorization,0,bathroom,SHINEd_sun_acegryoqftbzowsg.tif,17,0.0666666666666667,0.0666666666666667,0.916666666666667,796.714102208,797.414620291,13,796.775784833,796.836680583,797.421927833,798.331932916,1,0.70051808300002
135,42,1,categorization,0,kitchen,SHINEd_sun_aeqdocilnnpuvuhx.tif,83,0.0666666666666667,0.0666666666666667,0.816666666666667,798.336903166,799.030323041,13,798.398692375,798.459550125,799.045220166,799.855225208,0,0.693419875000018
135,43,1,categorization,0,bathroom,SHINEd_sun_apjevzvycyhuqghb.tif,43,0.0666666666666667,0.0666666666666667,1.88333333333333,799.860133541,800.862773041,13,799.922215583,799.982798416,800.868049958,802.744766041,1,1.00263949999999
135,44,1,categorization,0,kitchen,SHINEd_sun_aamedkxepzlwuxes.tif,65,0.0666666666666667,0.0666666666666667,0.9,802.761305833,804.278726583,9,802.8280015,802.893614375,804.295810041,805.189149458,1,1.51742074999993
135,45,1,categorization,0,kitchen,SHINEd_sun_abpwyqmlzafvklqo.tif,72,0.0666666666666667,0.0666666666666667,1,805.194679791,805.998106,9,805.256343458,805.3172145,806.002408125,806.995747125,1,0.803426209000008
135,46,1,categorization,0,kitchen,SHINEd_sun_auticobqsbwgoppi.tif,104,0.0666666666666667,0.0666666666666667,0.733333333333333,807.000347125,807.942073875,13,807.062116166,807.122965416,807.958174208,808.684845125,0,0.941726750000043
135,47,1,categorization,0,bathroom,SHINEd_sun_aqrpegblszgcoujh.tif,48,0.0666666666666667,0.0666666666666667,0.883333333333333,808.689515791,809.958587916,13,808.751308416,808.811993041,809.964249916,810.840922375,1,1.26907212500009
135,48,1,categorization,0,bathroom,SHINEd_sun_alotolagknyrgtsk.tif,35,0.0666666666666667,0.0666666666666667,1.73333333333333,810.846064625,811.566664833,13,810.907695,810.968603083,811.570201125,813.296927083,1,0.720600207999951
135,49,1,categorization,0,bathroom,SHINEd_sun_avhrdrntsqrjzccq.tif,55,0.0666666666666667,0.0666666666666667,1.91666666666667,813.314069916,815.166033583,13,813.380368416,813.445975083,815.181574958,817.091619083,1,1.85196366699995
135,50,1,categorization,0,kitchen,SHINEd_sun_acxkpeoqbwcxfvip.tif,77,0.0666666666666667,0.0666666666666667,1.35,817.10872275,817.857011541,9,817.17551825,817.240935708,817.879754833,819.223139333,1,0.74828879100005
135,1,2,categorization,0,kitchen,SHINEd_sun_aehawpgmrlhlvcow.tif,81,0.0666666666666667,0.0666666666666667,0.95,850.050383875,851.398195708,9,850.112977666,850.173030791,851.408967708,852.352307333,1,1.34781183300004
135,2,2,categorization,0,bathroom,SHINEd_sun_ambriybtogmepttm.tif,36,0.0666666666666667,0.0666666666666667,0.75,852.357730541,853.381952583,9,852.419416,852.480358333,853.399538208,854.1428775,0,1.02422204200002
135,3,2,categorization,0,bathroom,SHINEd_sun_aunuadmjocsddsrl.tif,52,0.0666666666666667,0.0666666666666667,1.68333333333333,854.148372416,855.566707041,9,854.210044,854.270979,855.572804,857.249516,0,1.41833462499994
135,4,2,categorization,0,kitchen,SHINEd_sun_afuyedyxivkhecmu.tif,85,0.0666666666666667,0.0666666666666667,0.816666666666667,857.266556,858.066303833,9,857.3332595,857.398584666,858.088653375,858.898658208,1,0.799747832999969
135,5,2,categorization,0,kitchen,SHINEd_sun_auaiucuqpdausiva.tif,102,0.0666666666666667,0.0666666666666667,0.916666666666667,858.904242791,859.814159208,13,858.96594025,859.0268355,859.828608791,860.738614375,0,0.909916416999977
135,6,2,categorization,0,bathroom,SHINEd_sun_ahaulkltgpkeeemi.tif,26,0.0666666666666667,0.0666666666666667,1.21666666666667,860.744037041,861.909878416,13,860.805732625,860.867027458,861.918862125,863.128904041,1,1.16584137500001
135,7,2,categorization,0,kitchen,SHINEd_labelme_brsyyvweiuaazfr.tif,61,0.0666666666666667,0.0666666666666667,0.9,863.144880291,863.901317666,9,863.211430083,863.277261458,863.914592625,864.807968541,1,0.756437374999905
135,8,2,categorization,0,kitchen,SHINEd_sun_aunzlwrbjumxhwdj.tif,103,0.0666666666666667,0.0666666666666667,1.65,864.823502916,865.7985855,9,864.890488708,864.955602041,865.807565125,867.450936416,1,0.975082583999892
135,9,2,categorization,0,bathroom,SHINEd_sun_anryaplzeujmzfkd.tif,39,0.0666666666666667,0.0666666666666667,1.15,867.467819041,868.262943041,9,867.534143291,867.595234291,868.284715625,869.428103833,0,0.795123999999987
135,10,2,categorization,0,kitchen,SHINEd_sun_ahljzhgcdpomplvg.tif,91,0.0666666666666667,0.0666666666666667,1.13333333333333,869.437095416,870.498543916,9,869.503785125,869.56757875,870.524216375,871.650925333,1,1.06144849999998
135,11,2,categorization,0,bathroom,SHINEd_labelme_sfxiulhjbhlyiyt.tif,11,0.0666666666666667,0.0666666666666667,1.76666666666667,871.661106291,872.408890333,13,871.725928625,871.792561833,872.432102791,874.192160083,1,0.747784042000035
135,12,2,categorization,0,bathroom,SHINEd_sun_azqyogdvyhahyram.tif,60,0.0666666666666667,0.0666666666666667,1.8,874.209698416,875.064634208,13,874.276604666,874.341756833,875.081255,876.874627958,1,0.854935791999992
135,13,2,categorization,0,kitchen,SHINEd_labelme_rykdqxenmhulbdn.tif,63,0.0666666666666667,0.0666666666666667,0.9,876.890946375,878.032954416,9,876.957768625,877.023573375,878.063589708,878.956927791,1,1.14200804100005
135,14,2,categorization,0,bathroom,SHINEd_sun_ahijqszoswveeyji.tif,28,0.0666666666666667,0.0666666666666667,0.716666666666667,878.962476583,879.774315458,9,879.024211625,879.085132666,879.786972708,880.4969785,0,0.811838875000035
135,15,2,categorization,0,kitchen,SHINEd_sun_aymvwlarqodbwuoc.tif,108,0.0666666666666667,0.0666666666666667,1.36666666666667,880.503293416,881.293534291,9,880.564958333,880.625843041,881.311312583,882.671346375,1,0.790240874999995
135,16,2,categorization,0,bathroom,SHINEd_sun_axxbkopsgyouuebh.tif,58,0.0666666666666667,0.0666666666666667,0.916666666666667,882.688522625,883.360680333,13,882.754964833,882.820677875,883.376427875,884.286483791,1,0.672157707999986
135,17,2,categorization,0,kitchen,SHINEd_sun_ahdycvpopffkzzsu.tif,90,0.0666666666666667,0.0666666666666667,0.716666666666667,884.299787833,884.901992458,13,884.363924791,884.423538833,884.908562708,885.618569208,0,0.602204625000013
135,18,2,categorization,0,bathroom,SHINEd_sun_ajlawzvmubibwbpy.tif,30,0.0666666666666667,0.0666666666666667,0.766666666666667,885.623168708,886.517600666,13,885.684872708,885.745816958,886.531496041,887.291500875,1,0.894431958000041
135,19,2,categorization,0,bathroom,SHINEd_sun_abjtwfukuwddzted.tif,15,0.0666666666666667,0.0666666666666667,1.06666666666667,887.296867291,888.142288541,13,887.358442625,887.419440583,888.154938041,889.214983166,1,0.845421249999958
135,20,2,categorization,0,kitchen,SHINEd_sun_agubuxuukhzyzpdp.tif,88,0.0666666666666667,0.0666666666666667,0.8,889.224073708,890.032044416,9,889.288656083,889.353425625,890.060112791,890.853494541,1,0.807970707999971
135,21,2,categorization,0,kitchen,SHINEd_sun_agzzivivdpnawacl.tif,89,0.0666666666666667,0.0666666666666667,0.866666666666667,890.871131875,892.334150666,9,890.938009791,891.003262708,892.338968125,893.198972208,1,1.46301879100008
135,22,2,categorization,0,kitchen,SHINEd_sun_ahspylgoovwmwvgk.tif,93,0.0666666666666667,0.0666666666666667,1.48333333333333,893.203874541,893.96597325,9,893.265573125,893.326408958,893.978210791,895.454917083,1,0.762098709000043
135,23,2,categorization,0,bathroom,SHINEd_sun_aspsyogrekjtfozg.tif,50,0.0666666666666667,0.0666666666666667,1.1,895.471454916,896.311018375,9,895.537730541,895.601842541,896.323861916,897.417252125,0,0.839563459000033
135,24,2,categorization,0,bathroom,SHINEd_sun_atstyziqcmkahyxk.tif,51,0.0666666666666667,0.0666666666666667,0.783333333333333,897.427073666,898.479017,13,897.491980666,897.555409208,898.494739958,899.271446625,1,1.05194333400004
135,25,2,categorization,0,kitchen,SHINEd_sun_aypmqwcualkenuoe.tif,109,0.0666666666666667,0.0666666666666667,0.866666666666667,899.287687583,900.605921125,9,899.354162958,899.419759416,900.622420916,901.482427083,1,1.31823354200003
135,26,2,categorization,0,bathroom,SHINEd_sun_anhioqovhscjqqwb.tif,38,0.0666666666666667,0.0666666666666667,1.83333333333333,901.48758225,902.765649208,13,901.5494195,901.610224916,902.779108333,904.605823458,1,1.27806695800007
135,27,2,categorization,0,kitchen,SHINEd_sun_akchetnepxlcxhsu.tif,98,0.0666666666666667,0.0666666666666667,0.7,904.62361025,905.479962333,13,904.690126625,904.755959625,905.495339041,906.188677958,0,0.856352083000047
135,28,2,categorization,0,kitchen,SHINEd_sun_acgtpgfybqjmzeyw.tif,75,0.0666666666666667,0.0666666666666667,1.33333333333333,906.19432275,907.757363208,9,906.255992958,906.317065416,907.769172416,909.095883958,1,1.56304045800005
135,29,2,categorization,0,kitchen,SHINEd_sun_ahpczsiumwwocjkv.tif,92,0.0666666666666667,0.0666666666666667,1.33333333333333,909.112461958,909.920918416,9,909.178769125,909.244734583,909.933020291,911.259741583,1,0.80845645799991
135,30,2,categorization,0,kitchen,SHINEd_sun_aapllqyqlykszopd.tif,66,0.0666666666666667,0.0666666666666667,1.38333333333333,911.276772125,912.274680833,9,911.343619,911.40911675,912.29880475,913.67549875,1,0.997908708000068
135,31,2,categorization,0,kitchen,SHINEd_sun_abftihopvusyfakt.tif,71,0.0666666666666667,0.0666666666666667,1.25,913.689481125,915.167354833,9,913.756111916,913.822213291,915.197453541,916.440826416,1,1.47787370799995
135,32,2,categorization,0,bathroom,SHINEd_sun_abapwbhyhkfixyex.tif,14,0.0666666666666667,0.0666666666666667,1.55,916.45709675,918.079237875,9,916.523758875,916.589683666,918.0984195,919.641797541,0,1.62214112499998
135,33,2,categorization,0,kitchen,SHINEd_sun_abrcnpqqhmjwekyf.tif,73,0.0666666666666667,0.0666666666666667,1.61666666666667,919.653705208,920.296813625,13,919.720380708,919.785813625,920.32582525,921.9358755,0,0.643108417000008
135,34,2,categorization,0,kitchen,SHINEd_sun_aadbddgrdsjugojn.tif,64,0.0666666666666667,0.0666666666666667,1.33333333333333,921.954602083,922.765644375,13,922.021370291,922.086937125,922.793629083,924.120334166,0,0.811042291999911
135,35,2,categorization,0,bathroom,SHINEd_sun_asfwthctfqerjvxr.tif,49,0.0666666666666667,0.0666666666666667,0.833333333333333,924.138132666,925.032587625,13,924.204775541,924.270525875,925.06059575,925.887275208,1,0.894454958999972
135,36,2,categorization,0,kitchen,SHINEd_sun_aegoxogugdkwpmpj.tif,80,0.0666666666666667,0.0666666666666667,1.45,925.893239625,926.886212541,9,925.954959541,926.015795375,926.901122541,928.344493625,1,0.992972915999985
135,37,2,categorization,0,kitchen,SHINEd_sun_awcpdzzznmweyyhv.tif,106,0.0666666666666667,0.0666666666666667,0.933333333333333,928.362047958,929.729719458,9,928.428698,928.494492916,929.753299291,930.679971375,1,1.36767150000003
135,38,2,categorization,0,kitchen,SHINEd_sun_adgqasybjyktddhj.tif,78,0.0666666666666667,0.0666666666666667,1.65,930.686032041,931.510192,9,930.747765916,930.808624125,931.527628958,933.171014708,1,0.824159958999985
135,39,2,categorization,0,bathroom,SHINEd_sun_alkosphxlxwjwgjd.tif,34,0.0666666666666667,0.0666666666666667,1.23333333333333,933.18854975,934.019051833,9,933.255281875,933.320509458,934.043697916,935.270404666,0,0.830502083000056
135,40,2,categorization,0,kitchen,SHINEd_sun_azmutvzbxypaceni.tif,110,0.0666666666666667,0.0666666666666667,0.766666666666667,935.287807208,936.638086125,9,935.354340041,935.420234958,936.661136291,937.421142,1,1.35027891699997
135,41,2,categorization,0,bathroom,SHINEd_sun_afcoljnjfoxjtgja.tif,20,0.0666666666666667,0.0666666666666667,1.78333333333333,937.4260895,938.6222245,9,937.488079791,937.548756041,938.633970583,940.410693708,0,1.19613500000003
135,42,2,categorization,0,bathroom,SHINEd_sun_apkruvsevgegsdwp.tif,44,0.0666666666666667,0.0666666666666667,1.11666666666667,940.4277985,941.551668,13,940.496536125,940.561081416,941.566059791,942.676110708,1,1.12386949999996
135,43,2,categorization,0,bathroom,SHINEd_sun_apynckhmoftszqoq.tif,47,0.0666666666666667,0.0666666666666667,1.85,942.687671625,943.655804625,13,942.753197,942.820118416,943.676150875,945.519538041,1,0.968132999999966
135,44,2,categorization,0,bathroom,SHINEd_sun_aoybiabnpadelefl.tif,41,0.0666666666666667,0.0666666666666667,0.733333333333333,945.537226166,946.893431458,9,945.602752458,945.668189,946.904192583,947.630862875,0,1.35620529200003
135,45,2,categorization,0,bathroom,SHINEd_sun_acgyywnybuveqsro.tif,18,0.0666666666666667,0.0666666666666667,0.783333333333333,947.635771291,948.621556041,13,947.697513458,947.758430333,948.627154916,949.403827666,1,0.985784749999993
135,46,2,categorization,0,kitchen,SHINEd_sun_acfmftudsenhrfhy.tif,74,0.0666666666666667,0.0666666666666667,1.5,949.409102958,950.581959666,9,949.470889916,949.531684,950.601103875,952.094477041,1,1.17285670800004
135,47,2,categorization,0,kitchen,SHINEd_sun_abdenxonkemggwsq.tif,69,0.0666666666666667,0.0666666666666667,0.733333333333333,952.110721791,953.279355541,9,952.178816708,952.243237083,953.298484791,954.025156916,1,1.16863375000003
135,48,2,categorization,0,bathroom,SHINEd_sun_aofnryafpsjimzsb.tif,40,0.0666666666666667,0.0666666666666667,1.1,954.030739125,955.189522333,13,954.0923665,954.153310083,955.205298708,956.298673333,1,1.15878320800005
135,49,2,categorization,0,kitchen,SHINEd_sun_agorklincwxrdtga.tif,87,0.0666666666666667,0.0666666666666667,1.6,956.30783875,957.79156825,13,956.37324175,956.440206333,957.813722625,959.40711175,0,1.48372949999998
135,50,2,categorization,0,bathroom,SHINEd_sun_ahcvzmoyaycdoftf.tif,27,0.0666666666666667,0.0666666666666667,1.06666666666667,959.424579458,960.338129791,9,959.491468666,959.552303375,960.358732708,961.418768375,0,0.913550332999989
135,1,3,categorization,0,kitchen,SHINEd_sun_ajkqhtgcbgpcwrwn.tif,97,0.0666666666666667,0.0666666666666667,0.85,988.276017958,989.397263,9,988.3387475,988.39876175,989.400373,990.243711791,1,1.12124504199994
135,2,3,categorization,0,kitchen,SHINEd_sun_aenotlpyftoioydp.tif,82,0.0666666666666667,0.0666666666666667,1.65,990.249131541,991.325393416,9,990.310805291,990.371737833,991.340182416,992.983548791,1,1.076261875
135,3,3,categorization,0,bathroom,SHINEd_sun_aspsyogrekjtfozg.tif,50,0.0666666666666667,0.0666666666666667,0.783333333333333,992.999955416,993.775616541,13,993.066067583,993.1296935,993.802782666,994.57945575,1,0.775661124999942
135,4,3,categorization,0,bathroom,SHINEd_sun_agguqiubmwhqqunb.tif,22,0.0666666666666667,0.0666666666666667,0.933333333333333,994.586308875,995.469798958,13,994.648055875,994.708857875,995.477538041,996.404211833,1,0.88349008299997
135,5,3,categorization,0,bathroom,SHINEd_sun_ahqjwnzgolcaoidx.tif,29,0.0666666666666667,0.0666666666666667,0.866666666666667,996.4099235,997.453757583,13,996.471577208,996.532692083,997.467951,998.327955916,1,1.04383408299998
135,6,3,categorization,0,bathroom,SHINEd_sun_aavhrsfjbserjtht.tif,13,0.0666666666666667,0.0666666666666667,1.11666666666667,998.333315791,999.268984208,13,998.394978041,998.455918333,999.274595791,1000.384633875,1,0.935668416999988
135,7,3,categorization,0,kitchen,SHINEd_sun_axyyrmzcupyhlivc.tif,107,0.0666666666666667,0.0666666666666667,0.966666666666667,1000.393428125,1001.337735041,9,1000.458023208,1000.526039333,1001.366102958,1002.326156416,1,0.94430691599996
135,8,3,categorization,0,kitchen,SHINEd_sun_aymvwlarqodbwuoc.tif,108,0.0666666666666667,0.0666666666666667,1.78333333333333,1002.343356208,1003.645947541,9,1002.406159916,1002.46599625,1003.651554083,1005.42827425,1,1.30259133300001
135,9,3,categorization,0,kitchen,SHINEd_sun_avszsnwsbuqfgzbn.tif,105,0.0666666666666667,0.0666666666666667,1.55,1005.446019666,1006.402117083,13,1005.512036083,1005.576203583,1006.415195833,1007.958563333,0,0.956097417000024
135,10,3,categorization,0,bathroom,SHINEd_sun_asfwthctfqerjvxr.tif,49,0.0666666666666667,0.0666666666666667,1.41666666666667,1007.976613833,1009.25742875,9,1008.043138583,1008.10920675,1009.284642291,1010.694699333,0,1.28081491700004
135,11,3,categorization,0,bathroom,SHINEd_sun_alotolagknyrgtsk.tif,35,0.0666666666666667,0.0666666666666667,0.8,1010.711775208,1012.063582208,13,1010.778483416,1010.843916541,1012.085625625,1012.878962791,1,1.35180700000001
135,12,3,categorization,0,bathroom,SHINEd_sun_ahcvzmoyaycdoftf.tif,27,0.0666666666666667,0.0666666666666667,1.28333333333333,1012.885962583,1014.32548125,13,1012.947641,1013.008638291,1014.34446475,1015.621177416,1,1.43951866700002
135,13,3,categorization,0,bathroom,SHINEd_sun_akiytfaagpdsphgz.tif,31,0.0666666666666667,0.0666666666666667,1.66666666666667,1015.631368458,1016.9290375,9,1015.6982855,1015.763615,1016.957020625,1018.617073791,0,1.29766904200005
135,14,3,categorization,0,bathroom,SHINEd_sun_azqyogdvyhahyram.tif,60,0.0666666666666667,0.0666666666666667,1.81666666666667,1018.635136416,1019.576254291,13,1018.702711333,1018.767386125,1019.588411541,1021.398465333,1,0.941117875000032
135,15,3,categorization,0,bathroom,SHINEd_sun_atstyziqcmkahyxk.tif,51,0.0666666666666667,0.0666666666666667,1.35,1021.417631125,1022.33827575,13,1021.484760083,1021.548044375,1022.354497708,1023.697882,1,0.920644625000023
135,16,3,categorization,0,kitchen,SHINEd_sun_abdxkyyxwfskuaqb.tif,70,0.0666666666666667,0.0666666666666667,0.916666666666667,1023.715913708,1024.465548208,9,1023.782504208,1023.848062625,1024.488454541,1025.398512958,1,0.749634499999956
135,17,3,categorization,0,bathroom,SHINEd_sun_axxbkopsgyouuebh.tif,58,0.0666666666666667,0.0666666666666667,0.916666666666667,1025.4070165,1026.221212125,13,1025.468891541,1025.529641125,1026.231910875,1027.141915666,1,0.814195624999911
135,18,3,categorization,0,kitchen,SHINEd_sun_aehawpgmrlhlvcow.tif,81,0.0666666666666667,0.0666666666666667,1.31666666666667,1027.146668125,1027.8371835,9,1027.208260583,1027.269318166,1027.854409416,1029.164461291,1,0.690515375000132
135,19,3,categorization,0,bathroom,SHINEd_sun_afcoljnjfoxjtgja.tif,20,0.0666666666666667,0.0666666666666667,1.45,1029.181072333,1030.894181666,9,1029.247464,1029.313497416,1030.921625333,1032.36499725,0,1.71310933299992
135,20,3,categorization,0,kitchen,SHINEd_sun_abpwyqmlzafvklqo.tif,72,0.0666666666666667,0.0666666666666667,0.95,1032.382008083,1033.2181425,9,1032.448845833,1032.513953541,1033.236542083,1034.179881916,1,0.836134417000039
135,21,3,categorization,0,kitchen,SHINEd_sun_auticobqsbwgoppi.tif,104,0.0666666666666667,0.0666666666666667,1.38333333333333,1034.185554458,1035.781471791,13,1034.247309625,1034.30818025,1035.793675333,1037.170396625,0,1.59591733299999
135,22,3,categorization,0,kitchen,SHINEd_sun_ahspylgoovwmwvgk.tif,93,0.0666666666666667,0.0666666666666667,1.16666666666667,1037.187899208,1039.093753875,9,1037.254372708,1037.320490875,1039.106455833,1040.266507375,1,1.90585466699986
135,23,3,categorization,0,bathroom,SHINEd_sun_auzqhkafidnkrwmo.tif,54,0.0666666666666667,0.0666666666666667,1.61666666666667,1040.275713375,1041.956941041,9,1040.342647958,1040.407803916,1041.983903208,1043.593952291,0,1.68122766600004
135,24,3,categorization,0,bathroom,SHINEd_sun_aghyqhbptboemmoq.tif,23,0.0666666666666667,0.0666666666666667,1.38333333333333,1043.603475291,1044.574239625,9,1043.668314166,1043.736086875,1044.592680208,1045.96939025,0,0.970764334000023
135,25,3,categorization,0,kitchen,SHINEd_sun_acfmftudsenhrfhy.tif,74,0.0666666666666667,0.0666666666666667,1.78333333333333,1045.987240416,1046.962789875,13,1046.053991083,1046.119556,1046.992970083,1048.769685958,0,0.975549458999922
135,26,3,categorization,0,bathroom,SHINEd_sun_apjevzvycyhuqghb.tif,43,0.0666666666666667,0.0666666666666667,0.783333333333333,1048.788372208,1050.157252416,13,1048.855809791,1048.920634083,1050.172876916,1050.949549958,1,1.36888020799984
135,27,3,categorization,0,bathroom,SHINEd_labelme_sfxiulhjbhlyiyt.tif,11,0.0666666666666667,0.0666666666666667,1.65,1050.954692291,1051.637378291,13,1051.01642275,1051.077300291,1051.645719833,1053.289102708,1,0.682686000000103
135,28,3,categorization,0,bathroom,SHINEd_sun_awnqiikzaispgmwo.tif,56,0.0666666666666667,0.0666666666666667,1.86666666666667,1053.306218125,1054.041812666,9,1053.372682708,1053.439012916,1054.061906375,1055.92195175,0,0.735594540999955
135,29,3,categorization,0,bathroom,SHINEd_sun_abapwbhyhkfixyex.tif,14,0.0666666666666667,0.0666666666666667,1.23333333333333,1055.938405041,1057.477597083,13,1056.005208958,1056.070879958,1057.489973458,1058.716679083,1,1.5391920420002
135,30,3,categorization,0,bathroom,SHINEd_sun_acegryoqftbzowsg.tif,17,0.0666666666666667,0.0666666666666667,0.7,1058.73228175,1059.880030791,13,1058.799865083,1058.865239666,1059.905269333,1060.59860875,1,1.147749041
135,31,3,categorization,0,bathroom,SHINEd_sun_avhrdrntsqrjzccq.tif,55,0.0666666666666667,0.0666666666666667,0.716666666666667,1060.603926625,1061.565622125,9,1060.665651375,1060.726561916,1061.578382708,1062.288388166,0,0.961695499999905
135,32,3,categorization,0,kitchen,SHINEd_sun_aexklacwqwezaorf.tif,84,0.0666666666666667,0.0666666666666667,1.05,1062.293043041,1063.661432458,9,1062.3547445,1062.41566575,1063.667598583,1064.710963208,1,1.36838941700012
135,33,3,categorization,0,bathroom,SHINEd_sun_apeeialkgkuxddgh.tif,42,0.0666666666666667,0.0666666666666667,1.1,1064.720224791,1065.583120375,13,1064.78446225,1064.848862333,1065.603640458,1066.697024833,1,0.862895583999943
135,34,3,categorization,0,kitchen,SHINEd_sun_acgtpgfybqjmzeyw.tif,75,0.0666666666666667,0.0666666666666667,1.13333333333333,1066.71219575,1067.7415245,13,1066.778538833,1066.836204291,1067.754631291,1068.881335833,0,1.02932874999988
135,35,3,categorization,0,kitchen,SHINEd_sun_auaiucuqpdausiva.tif,102,0.0666666666666667,0.0666666666666667,1.38333333333333,1068.891243458,1069.992020125,9,1068.955785125,1069.021437,1070.01103925,1071.387749166,1,1.10077666699999
135,36,3,categorization,0,kitchen,SHINEd_sun_aegoxogugdkwpmpj.tif,80,0.0666666666666667,0.0666666666666667,1.5,1071.404792958,1072.358012375,9,1071.47169025,1071.537112666,1072.376935958,1073.870316833,1,0.953219417000128
135,37,3,categorization,0,bathroom,SHINEd_sun_acgyywnybuveqsro.tif,18,0.0666666666666667,0.0666666666666667,1.61666666666667,1073.887437916,1074.903492583,13,1073.954095625,1074.019653166,1074.926346083,1076.536397208,1,1.01605466699993
135,38,3,categorization,0,bathroom,SHINEd_sun_ambriybtogmepttm.tif,36,0.0666666666666667,0.0666666666666667,0.983333333333333,1076.554887125,1077.45357175,13,1076.621841791,1076.687088833,1077.477167041,1078.453838,1,0.898684624999987
135,39,3,categorization,0,bathroom,SHINEd_sun_anhioqovhscjqqwb.tif,38,0.0666666666666667,0.0666666666666667,1.3,1078.459210791,1079.565247958,9,1078.520780333,1078.581828041,1079.583895625,1080.877269125,0,1.10603716700007
135,40,3,categorization,0,kitchen,SHINEd_sun_ajcbwwvdlsvjyzje.tif,96,0.0666666666666667,0.0666666666666667,1.03333333333333,1080.89347375,1082.788650541,9,1080.959749791,1081.025632041,1082.794708916,1083.821414041,1,1.89517679099981
135,41,3,categorization,0,kitchen,SHINEd_sun_ahpczsiumwwocjkv.tif,92,0.0666666666666667,0.0666666666666667,1.45,1083.83025875,1084.674107458,9,1083.894763583,1083.961133333,1084.701101625,1086.144487,1,0.843848707999996
135,42,3,categorization,0,bathroom,SHINEd_sun_apkxzenqapsujocq.tif,45,0.0666666666666667,0.0666666666666667,1.23333333333333,1086.16280575,1086.881960708,13,1086.229393833,1086.295442541,1086.901767333,1088.128469458,1,0.71915495799999
135,43,3,categorization,0,kitchen,SHINEd_sun_adgqasybjyktddhj.tif,78,0.0666666666666667,0.0666666666666667,1.26666666666667,1088.139766666,1089.316735375,13,1088.2065455,1088.271965333,1089.344894,1090.604927791,0,1.17696870899999
135,44,3,categorization,0,kitchen,SHINEd_sun_agzzivivdpnawacl.tif,89,0.0666666666666667,0.0666666666666667,1.03333333333333,1090.6224955,1091.384768375,13,1090.689220833,1090.754808875,1091.411777625,1092.438490291,0,0.762272875000008
135,45,3,categorization,0,bathroom,SHINEd_sun_alkosphxlxwjwgjd.tif,34,0.0666666666666667,0.0666666666666667,1.31666666666667,1092.455900208,1094.293033416,13,1092.51878375,1092.578624458,1094.297575958,1095.607613833,1,1.83713320800007
135,46,3,categorization,0,kitchen,SHINEd_sun_agorklincwxrdtga.tif,87,0.0666666666666667,0.0666666666666667,1.7,1095.616095125,1096.609338791,9,1095.6816015,1095.748143458,1096.637912375,1098.331285625,1,0.993243666000126
135,47,3,categorization,0,bathroom,SHINEd_sun_apmqjbnwghzuhhzh.tif,46,0.0666666666666667,0.0666666666666667,1.35,1098.343820791,1098.975478541,13,1098.41090875,1098.47629475,1098.998272958,1100.341655458,1,0.631657749999931
135,48,3,categorization,0,kitchen,SHINEd_sun_aaxxjlsuzvqlgylf.tif,68,0.0666666666666667,0.0666666666666667,0.8,1100.357238875,1101.293037916,9,1100.424011333,1100.489224625,1101.312238791,1102.105580416,1,0.935799041000109
135,49,3,categorization,0,kitchen,SHINEd_sun_aqeaevwwwjoqhzvl.tif,101,0.0666666666666667,0.0666666666666667,0.766666666666667,1102.111421625,1102.917248291,13,1102.173169458,1102.233991666,1102.936023541,1103.696028916,0,0.80582666600003
135,50,3,categorization,0,kitchen,SHINEd_sun_aggjlwcdjsjcaemh.tif,86,0.0666666666666667,0.0666666666666667,1.38333333333333,1103.701527666,1104.756905791,13,1103.763270333,1103.824363291,1104.776739041,1106.153459833,0,1.05537812500006
135,1,4,categorization,0,bathroom,SHINEd_sun_abjtwfukuwddzted.tif,15,0.0666666666666667,0.0666666666666667,1,1150.65580025,1152.16428325,13,1150.71810975,1150.778478958,1152.180586458,1153.173924625,1,1.50848299999984
135,2,4,categorization,0,bathroom,SHINEd_sun_aoybiabnpadelefl.tif,41,0.0666666666666667,0.0666666666666667,0.966666666666667,1153.178596625,1153.980642375,9,1153.240216291,1153.301218666,1153.986255291,1154.946261208,0,0.802045749999934
135,3,4,categorization,0,bathroom,SHINEd_sun_aclfzgynxzxlbepz.tif,19,0.0666666666666667,0.0666666666666667,1.75,1154.951819708,1155.781191125,13,1155.013590166,1155.074325625,1155.792855458,1157.536223666,1,0.829371417000175
135,4,4,categorization,0,kitchen,SHINEd_sun_ahywdevtimnqcsln.tif,94,0.0666666666666667,0.0666666666666667,1.68333333333333,1157.549256291,1159.197032708,13,1157.613865333,1157.679674541,1159.215384083,1160.892087708,0,1.64777641700016
135,5,4,categorization,0,kitchen,SHINEd_sun_akcjzhbbjlbogpdi.tif,99,0.0666666666666667,0.0666666666666667,1.58333333333333,1160.908497791,1161.615922875,9,1160.97651575,1161.039995916,1161.627381125,1163.204087791,1,0.707425084000079
135,6,4,categorization,0,kitchen,SHINEd_sun_abdenxonkemggwsq.tif,69,0.0666666666666667,0.0666666666666667,1,1163.221722583,1164.2736225,9,1163.287737833,1163.353921291,1164.294225208,1165.287562833,1,1.05189991700013
135,7,4,categorization,0,kitchen,SHINEd_sun_aypmqwcualkenuoe.tif,109,0.0666666666666667,0.0666666666666667,1.33333333333333,1165.292460916,1166.38107325,13,1165.354083583,1165.415202083,1166.401186083,1167.727910083,0,1.08861233400012
135,8,4,categorization,0,kitchen,SHINEd_sun_awcpdzzznmweyyhv.tif,106,0.0666666666666667,0.0666666666666667,1.26666666666667,1167.745023291,1168.664461541,13,1167.813123541,1167.877351916,1168.683800125,1169.9438555,0,0.919438249999985
135,9,4,categorization,0,kitchen,SHINEd_labelme_rykdqxenmhulbdn.tif,63,0.0666666666666667,0.0666666666666667,0.883333333333333,1169.9621855,1170.973393875,9,1170.030219833,1170.094387375,1171.00113125,1171.877802666,1,1.01120837500002
135,10,4,categorization,0,bathroom,SHINEd_sun_anryaplzeujmzfkd.tif,39,0.0666666666666667,0.0666666666666667,1.26666666666667,1171.882893083,1172.700809583,9,1171.944572625,1172.005601333,1172.707379083,1173.96743575,0,0.81791649999991
135,11,4,categorization,0,bathroom,SHINEd_sun_ahijqszoswveeyji.tif,28,0.0666666666666667,0.0666666666666667,2,1173.980999416,1175.646955041,9,1174.047836333,1174.112896708,1175.668917916,1177.66229325,0,1.66595562499992
135,12,4,categorization,0,kitchen,SHINEd_sun_akchetnepxlcxhsu.tif,98,0.0666666666666667,0.0666666666666667,0.733333333333333,1177.673028,1178.39139175,13,1177.739847,1177.805517958,1178.411631791,1179.138301916,0,0.71836374999998
135,13,4,categorization,0,bathroom,SHINEd_sun_ajlawzvmubibwbpy.tif,30,0.0666666666666667,0.0666666666666667,0.883333333333333,1179.143193208,1179.781058625,13,1179.204802375,1179.265941875,1179.784373916,1180.661045208,1,0.637865417000057
135,14,4,categorization,0,kitchen,SHINEd_sun_aixorpehvfykdynp.tif,95,0.0666666666666667,0.0666666666666667,0.983333333333333,1180.665602,1181.428206416,9,1180.727316208,1180.78816825,1181.440576375,1182.41724775,1,0.762604415999931
135,15,4,categorization,0,bathroom,SHINEd_sun_agrwbmhcpmfuwmsg.tif,24,0.0666666666666667,0.0666666666666667,1.56666666666667,1182.42196325,1182.996787208,13,1182.483588125,1182.544519333,1183.013198583,1184.57323625,1,0.574823957999797
135,16,4,categorization,0,bathroom,SHINEd_sun_aggnnqpdorgxpvce.tif,21,0.0666666666666667,0.0666666666666667,1.08333333333333,1184.59086975,1185.302545791,9,1184.657544125,1184.723246583,1185.329721208,1186.406426333,0,0.711676041000146
135,17,4,categorization,0,bathroom,SHINEd_sun_aunuadmjocsddsrl.tif,52,0.0666666666666667,0.0666666666666667,0.75,1186.419892458,1187.417421125,9,1186.484446333,1186.550100208,1187.44006425,1188.183442,0,0.99752866699987
135,18,4,categorization,0,kitchen,SHINEd_sun_ahljzhgcdpomplvg.tif,91,0.0666666666666667,0.0666666666666667,0.966666666666667,1188.199631375,1188.95682875,9,1188.266058083,1188.332109333,1188.968020958,1189.928026833,1,0.757197375000032
135,19,4,categorization,0,bathroom,SHINEd_sun_aqrpegblszgcoujh.tif,48,0.0666666666666667,0.0666666666666667,1.63333333333333,1189.93277025,1190.717091625,13,1189.994410791,1190.055385208,1190.723822916,1192.350546,1,0.78432137499999
135,20,4,categorization,0,kitchen,SHINEd_sun_acxkpeoqbwcxfvip.tif,77,0.0666666666666667,0.0666666666666667,1.46666666666667,1192.367254666,1193.151127625,9,1192.433548333,1192.499354666,1193.172576958,1194.632629958,1,0.783872959000064
135,21,4,categorization,0,kitchen,SHINEd_sun_aarfiyshqohlwkmo.tif,67,0.0666666666666667,0.0666666666666667,0.933333333333333,1194.649881541,1195.462244166,9,1194.715892416,1194.7819545,1195.488429166,1196.415101416,1,0.812362624999878
135,22,4,categorization,0,kitchen,SHINEd_sun_admlmbcdswaszruo.tif,79,0.0666666666666667,0.0666666666666667,1.45,1196.420253291,1197.372663375,9,1196.482108625,1196.543047125,1197.378727375,1198.822105583,1,0.952410083999894
135,23,4,categorization,0,bathroom,SHINEd_sun_axyrejkiiaqiurjk.tif,59,0.0666666666666667,0.0666666666666667,0.966666666666667,1198.838174625,1199.797907583,13,1198.904590791,1198.970247083,1199.827107375,1200.787110958,1,0.959732958000131
135,24,4,categorization,0,kitchen,SHINEd_sun_azmutvzbxypaceni.tif,110,0.0666666666666667,0.0666666666666667,0.816666666666667,1200.791999541,1201.716177125,9,1200.853738291,1200.914508791,1201.733002833,1202.543006791,1,0.924177584000063
135,25,4,categorization,0,kitchen,SHINEd_sun_aapllqyqlykszopd.tif,66,0.0666666666666667,0.0666666666666667,1.96666666666667,1202.547648083,1203.308371291,9,1202.609338041,1202.670203208,1203.322279125,1205.282315041,1,0.760723207999945
135,26,4,categorization,0,bathroom,SHINEd_sun_agyqfjcfkdcydepw.tif,25,0.0666666666666667,0.0666666666666667,0.916666666666667,1205.299769041,1206.264678916,13,1205.366416625,1205.43290525,1206.290060375,1207.200064875,1,0.964909875000103
135,27,4,categorization,0,bathroom,SHINEd_sun_apynckhmoftszqoq.tif,47,0.0666666666666667,0.0666666666666667,1.28333333333333,1207.204915958,1208.180896375,13,1207.266728958,1207.327543333,1208.196069833,1209.472791041,1,0.975980417000073
135,28,4,categorization,0,kitchen,SHINEd_sun_agubuxuukhzyzpdp.tif,88,0.0666666666666667,0.0666666666666667,1.8,1209.489453,1210.404427875,13,1209.55406825,1209.619769666,1210.426158375,1212.219539541,0,0.914974875000098
135,29,4,categorization,0,kitchen,SHINEd_sun_aunzlwrbjumxhwdj.tif,103,0.0666666666666667,0.0666666666666667,1.33333333333333,1212.236588666,1213.021280625,9,1212.30308625,1212.369018541,1213.04254925,1214.369252,1,0.784691958999929
135,30,4,categorization,0,bathroom,SHINEd_sun_aleqenyvunhactkl.tif,32,0.0666666666666667,0.0666666666666667,1.06666666666667,1214.386862625,1215.220236208,13,1214.453528708,1214.519726625,1215.243318625,1216.303350958,1,0.833373582999911
135,31,4,categorization,0,kitchen,SHINEd_sun_aamedkxepzlwuxes.tif,65,0.0666666666666667,0.0666666666666667,1.03333333333333,1216.312097833,1217.590348041,9,1216.377140208,1216.442789375,1217.615892208,1218.642604333,1,1.27825020799992
135,32,4,categorization,0,bathroom,SHINEd_sun_axldvoqbuvuggfmq.tif,57,0.0666666666666667,0.0666666666666667,0.733333333333333,1218.65261875,1219.541689541,13,1218.71684175,1218.783668,1219.55445575,1220.28116325,1,0.889070790999995
135,33,4,categorization,0,kitchen,SHINEd_sun_abftihopvusyfakt.tif,71,0.0666666666666667,0.0666666666666667,0.766666666666667,1220.296940041,1221.428426625,9,1220.363347583,1220.429324916,1221.448252333,1222.208256958,1,1.13148658399996
135,34,4,categorization,0,bathroom,SHINEd_sun_ahaulkltgpkeeemi.tif,26,0.0666666666666667,0.0666666666666667,1.1,1222.212877833,1223.116938125,13,1222.274634833,1222.335421375,1223.121128875,1224.214509375,1,0.90406029199994
135,35,4,categorization,0,bathroom,SHINEd_sun_aapitsgbtktqubfy.tif,12,0.0666666666666667,0.0666666666666667,1.81666666666667,1224.222586541,1225.101874125,13,1224.287258375,1224.354711458,1225.12775525,1226.937810791,1,0.87928758399994
135,36,4,categorization,0,kitchen,SHINEd_sun_ahdycvpopffkzzsu.tif,90,0.0666666666666667,0.0666666666666667,0.883333333333333,1226.951949416,1227.885492708,9,1227.018405875,1227.084073333,1227.906684458,1228.783356583,1,0.933543291999968
135,37,4,categorization,0,kitchen,SHINEd_sun_amjjdeyrggfqgmom.tif,100,0.0666666666666667,0.0666666666666667,1.7,1228.788180041,1229.6205725,9,1228.84997525,1228.910784166,1229.629260791,1231.322640833,1,0.832392458999948
135,38,4,categorization,0,bathroom,SHINEd_sun_ausgutylgojavyoq.tif,53,0.0666666666666667,0.0666666666666667,1.58333333333333,1231.339073541,1232.045586958,9,1231.405553416,1231.471893208,1232.060886875,1233.637596875,0,0.706513416999996
135,39,4,categorization,0,bathroom,SHINEd_sun_apkruvsevgegsdwp.tif,44,0.0666666666666667,0.0666666666666667,0.833333333333333,1233.646795958,1234.478557708,13,1233.713363333,1233.778814916,1234.502099083,1235.328769,1,0.831761749999941
135,40,4,categorization,0,kitchen,SHINEd_labelme_kxvouciolcpqplr.tif,62,0.0666666666666667,0.0666666666666667,0.95,1235.334792875,1236.244122291,13,1235.396529375,1235.457741083,1236.259590083,1237.202929083,0,0.909329415999991
135,41,4,categorization,0,kitchen,SHINEd_sun_acwjdupvyjsugpay.tif,76,0.0666666666666667,0.0666666666666667,1.06666666666667,1237.20772225,1238.075929291,13,1237.269317375,1237.330256541,1238.082285333,1239.14232975,0,0.868207041000005
135,42,4,categorization,0,kitchen,SHINEd_sun_aadbddgrdsjugojn.tif,64,0.0666666666666667,0.0666666666666667,1.68333333333333,1239.152897708,1240.1118675,9,1239.217410708,1239.28164625,1240.137850333,1241.814574,1,0.958969792000062
135,43,4,categorization,0,kitchen,SHINEd_sun_abrcnpqqhmjwekyf.tif,73,0.0666666666666667,0.0666666666666667,1.31666666666667,1241.832739791,1242.646140166,9,1241.899084916,1241.96529625,1242.672181333,1243.982229291,1,0.813400374999901
135,44,4,categorization,0,bathroom,SHINEd_sun_aofnryafpsjimzsb.tif,40,0.0666666666666667,0.0666666666666667,1.61666666666667,1244.000259916,1244.8794455,13,1244.0671345,1244.133260541,1244.906777375,1246.51682025,1,0.87918558399997
135,45,4,categorization,0,kitchen,SHINEd_sun_afuyedyxivkhecmu.tif,85,0.0666666666666667,0.0666666666666667,1.15,1246.536308416,1247.255854333,9,1246.60309975,1246.668507958,1247.274905583,1248.418283291,1,0.719545916999778
135,46,4,categorization,0,kitchen,SHINEd_labelme_brsyyvweiuaazfr.tif,61,0.0666666666666667,0.0666666666666667,1.25,1248.428055541,1249.22582725,9,1248.494859791,1248.560303583,1249.250327791,1250.493706208,1,0.797771709000017
135,47,4,categorization,0,bathroom,SHINEd_sun_acduarbnmmoglmiv.tif,16,0.0666666666666667,0.0666666666666667,1.1,1250.507979916,1251.767449708,9,1250.574920291,1250.640643,1251.79902425,1252.892412916,0,1.25946979199989
135,48,4,categorization,0,bathroom,SHINEd_sun_amzlamotzwfkwjco.tif,37,0.0666666666666667,0.0666666666666667,0.9,1252.902983208,1253.905940083,13,1252.96787075,1253.035322833,1253.925418416,1254.81878725,1,1.00295687499988
135,49,4,categorization,0,bathroom,SHINEd_sun_aljolscmmzydegqp.tif,33,0.0666666666666667,0.0666666666666667,1.3,1254.827425125,1255.82842675,13,1254.889662125,1254.950084916,1255.835307833,1257.128698875,1,1.00100162500007
135,50,4,categorization,0,kitchen,SHINEd_sun_aeqdocilnnpuvuhx.tif,83,0.0666666666666667,0.0666666666666667,1.25,1257.144192625,1258.125885708,13,1257.211504125,1257.276144541,1258.14943125,1259.392816625,0,0.981693082999982
135,1,5,categorization,0,bathroom,SHINEd_sun_alkosphxlxwjwgjd.tif,34,0.0666666666666667,0.0666666666666667,1.7,1291.745253125,1292.972479666,9,1291.807698666,1291.86784025,1292.986471125,1294.679849333,0,1.22722654099994
135,2,5,categorization,0,kitchen,SHINEd_sun_aegoxogugdkwpmpj.tif,80,0.0666666666666667,0.0666666666666667,1.81666666666667,1294.696779416,1295.468625125,9,1294.763224,1294.82780225,1295.482561333,1297.292601666,1,0.77184570899999
135,3,5,categorization,0,kitchen,SHINEd_sun_ahywdevtimnqcsln.tif,94,0.0666666666666667,0.0666666666666667,1.23333333333333,1297.310543541,1298.000604041,9,1297.377493791,1297.44073175,1298.030764125,1299.257463625,1,0.690060500000072
135,4,5,categorization,0,kitchen,SHINEd_sun_ahspylgoovwmwvgk.tif,93,0.0666666666666667,0.0666666666666667,1.4,1299.2754545,1300.367004041,13,1299.342198541,1299.40633275,1300.396288,1301.789663666,0,1.09154954099995
135,5,5,categorization,0,bathroom,SHINEd_sun_ahqjwnzgolcaoidx.tif,29,0.0666666666666667,0.0666666666666667,1.03333333333333,1301.806127125,1302.488984291,13,1301.872723583,1301.937768291,1302.5108215,1303.537540125,1,0.682857165999849
135,6,5,categorization,0,bathroom,SHINEd_sun_awnqiikzaispgmwo.tif,56,0.0666666666666667,0.0666666666666667,1.38333333333333,1303.547642625,1304.510825208,13,1303.612290083,1303.677977875,1304.534526416,1305.911246208,1,0.963182582999934
135,7,5,categorization,0,kitchen,SHINEd_sun_azmutvzbxypaceni.tif,110,0.0666666666666667,0.0666666666666667,2,1305.923801375,1306.860082833,13,1305.990281291,1306.055239541,1306.878288208,1308.8716615,0,0.936281457999939
135,8,5,categorization,0,kitchen,SHINEd_sun_aypmqwcualkenuoe.tif,109,0.0666666666666667,0.0666666666666667,1.85,1308.888338208,1310.044224958,9,1308.955178291,1309.020917708,1310.056356416,1311.899722791,1,1.15588675000004
135,9,5,categorization,0,bathroom,SHINEd_sun_anryaplzeujmzfkd.tif,39,0.0666666666666667,0.0666666666666667,0.816666666666667,1311.914660125,1313.103658166,9,1311.981138708,1312.047527208,1313.120127375,1313.930132458,0,1.1889980410001
135,10,5,categorization,0,bathroom,SHINEd_sun_akiytfaagpdsphgz.tif,31,0.0666666666666667,0.0666666666666667,1.85,1313.93475575,1315.067994583,9,1313.996417166,1314.0573985,1315.0761385,1316.919526583,0,1.13323883299995
135,11,5,categorization,0,bathroom,SHINEd_sun_apkxzenqapsujocq.tif,45,0.0666666666666667,0.0666666666666667,0.733333333333333,1316.937567375,1317.877819291,13,1317.004521833,1317.069607125,1317.89215025,1318.618821625,1,0.940251915999852
135,12,5,categorization,0,bathroom,SHINEd_sun_apkruvsevgegsdwp.tif,44,0.0666666666666667,0.0666666666666667,0.716666666666667,1318.623628375,1319.788378375,13,1318.685379583,1318.746187375,1319.798146125,1320.508151208,1,1.16475000000014
135,13,5,categorization,0,bathroom,SHINEd_sun_anhioqovhscjqqwb.tif,38,0.0666666666666667,0.0666666666666667,0.833333333333333,1320.512657875,1321.14800375,13,1320.574304791,1320.635188,1321.153762458,1321.980433375,1,0.635345874999985
135,14,5,categorization,0,bathroom,SHINEd_sun_abapwbhyhkfixyex.tif,14,0.0666666666666667,0.0666666666666667,0.95,1321.985283208,1322.787666333,13,1322.047112958,1322.107851458,1322.793159625,1323.736498625,1,0.802383125000006
135,15,5,categorization,0,bathroom,SHINEd_sun_aqrpegblszgcoujh.tif,48,0.0666666666666667,0.0666666666666667,1.96666666666667,1323.741228958,1324.763541041,9,1323.802912041,1323.863842625,1324.782396083,1326.742429833,0,1.02231208300009
135,16,5,categorization,0,bathroom,SHINEd_sun_acgyywnybuveqsro.tif,18,0.0666666666666667,0.0666666666666667,1.86666666666667,1326.756117208,1327.939775583,9,1326.823490125,1326.888190125,1327.957282166,1329.817334541,0,1.18365837500005
135,17,5,categorization,0,kitchen,SHINEd_sun_ahljzhgcdpomplvg.tif,91,0.0666666666666667,0.0666666666666667,1.51666666666667,1329.837488958,1330.949168833,9,1329.904182083,1329.969757,1330.976345083,1332.486392458,1,1.11167987499994
135,18,5,categorization,0,bathroom,SHINEd_sun_ahcvzmoyaycdoftf.tif,27,0.0666666666666667,0.0666666666666667,1.3,1332.503341791,1334.032752291,9,1332.570380708,1332.635270916,1334.061376791,1335.35476025,0,1.52941050000004
135,19,5,categorization,0,kitchen,SHINEd_sun_abftihopvusyfakt.tif,71,0.0666666666666667,0.0666666666666667,1.91666666666667,1335.370406375,1336.119975958,13,1335.43691525,1335.502942083,1336.143049041,1338.053099833,0,0.749569583000039
135,20,5,categorization,0,bathroom,SHINEd_sun_azqyogdvyhahyram.tif,60,0.0666666666666667,0.0666666666666667,1.23333333333333,1338.069802166,1338.743864,13,1338.136649041,1338.202392041,1338.757848291,1339.984562708,1,0.674061833999986
135,21,5,categorization,0,bathroom,SHINEd_sun_agyqfjcfkdcydepw.tif,25,0.0666666666666667,0.0666666666666667,0.866666666666667,1340.002614333,1341.073154333,13,1340.0695465,1340.135246875,1341.091568875,1341.951572791,1,1.07053999999994
135,22,5,categorization,0,bathroom,SHINEd_sun_aoybiabnpadelefl.tif,41,0.0666666666666667,0.0666666666666667,0.8,1341.956910458,1342.89160675,13,1342.018637,1342.079507333,1342.898186791,1343.6915255,1,0.934696291999899
135,23,5,categorization,0,bathroom,SHINEd_sun_acduarbnmmoglmiv.tif,16,0.0666666666666667,0.0666666666666667,1.51666666666667,1343.696185083,1344.747418083,13,1343.757798333,1343.818816541,1344.753993,1346.264051416,1,1.05123299999991
135,24,5,categorization,0,kitchen,SHINEd_sun_ahpczsiumwwocjkv.tif,92,0.0666666666666667,0.0666666666666667,1.18333333333333,1346.281140125,1346.952028,9,1346.347722875,1346.413075416,1346.968921958,1348.145613083,1,0.670887874999835
135,25,5,categorization,0,kitchen,SHINEd_sun_akcjzhbbjlbogpdi.tif,99,0.0666666666666667,0.0666666666666667,1.6,1348.156380166,1348.872140708,9,1348.223383416,1348.288723166,1348.895367666,1350.488757458,1,0.715760541999998
135,26,5,categorization,0,kitchen,SHINEd_sun_axyyrmzcupyhlivc.tif,107,0.0666666666666667,0.0666666666666667,1.56666666666667,1350.503887,1351.2920445,9,1350.570720458,1350.636235416,1351.308634666,1352.868673958,1,0.788157499999897
135,27,5,categorization,0,kitchen,SHINEd_sun_adgqasybjyktddhj.tif,78,0.0666666666666667,0.0666666666666667,1.36666666666667,1352.88124025,1353.484475458,9,1352.947359291,1353.013375125,1353.502403166,1354.862447708,1,0.603235207999887
135,28,5,categorization,0,bathroom,SHINEd_sun_ahaulkltgpkeeemi.tif,26,0.0666666666666667,0.0666666666666667,1.53333333333333,1354.879457041,1355.88753675,13,1354.946237125,1355.011857,1355.900626833,1357.427337666,1,1.00807970899996
135,29,5,categorization,0,kitchen,SHINEd_sun_aarfiyshqohlwkmo.tif,67,0.0666666666666667,0.0666666666666667,1.4,1357.44442525,1358.438690416,9,1357.511957333,1357.575196,1358.465243041,1359.858623708,1,0.994265166000105
135,30,5,categorization,0,kitchen,SHINEd_sun_afuyedyxivkhecmu.tif,85,0.0666666666666667,0.0666666666666667,1.06666666666667,1359.87627075,1361.060753458,13,1359.944525333,1360.008691833,1361.082086208,1362.142139458,0,1.1844827079999
135,31,5,categorization,0,kitchen,SHINEd_sun_abrcnpqqhmjwekyf.tif,73,0.0666666666666667,0.0666666666666667,1.63333333333333,1362.151901666,1362.997686583,9,1362.21662375,1362.28283125,1363.023011083,1364.649711625,1,0.845784916999946
135,32,5,categorization,0,bathroom,SHINEd_sun_axyrejkiiaqiurjk.tif,59,0.0666666666666667,0.0666666666666667,1.8,1364.668983125,1365.795343541,9,1364.735763791,1364.801833875,1365.825552,1367.618944291,0,1.1263604159999
135,33,5,categorization,0,bathroom,SHINEd_sun_ahijqszoswveeyji.tif,28,0.0666666666666667,0.0666666666666667,1.53333333333333,1367.628296125,1368.432245833,13,1367.694301083,1367.760803083,1368.450366416,1369.977076416,1,0.803949708000118
135,34,5,categorization,0,bathroom,SHINEd_sun_aofnryafpsjimzsb.tif,40,0.0666666666666667,0.0666666666666667,0.766666666666667,1369.993370125,1370.573855791,13,1370.060564916,1370.126250083,1370.599823416,1371.359859291,1,0.580485665999959
135,35,5,categorization,0,bathroom,SHINEd_sun_axldvoqbuvuggfmq.tif,57,0.0666666666666667,0.0666666666666667,1.86666666666667,1371.376921791,1371.955492875,13,1371.443480791,1371.509549291,1371.961549625,1373.821606041,1,0.578571083999805
135,36,5,categorization,0,bathroom,SHINEd_sun_agrwbmhcpmfuwmsg.tif,24,0.0666666666666667,0.0666666666666667,1.13333333333333,1373.838265666,1374.447495166,13,1373.904718,1373.97059575,1374.47722375,1375.603937333,1,0.609229499999856
135,37,5,categorization,0,bathroom,SHINEd_sun_abjtwfukuwddzted.tif,15,0.0666666666666667,0.0666666666666667,1.73333333333333,1375.612248041,1376.524906416,13,1375.6769015,1375.742746333,1376.549559583,1378.276264041,1,0.912658375000092
135,38,5,categorization,0,kitchen,SHINEd_sun_akchetnepxlcxhsu.tif,98,0.0666666666666667,0.0666666666666667,0.766666666666667,1378.293572291,1379.035937416,9,1378.360050791,1378.424481166,1379.064441583,1379.824447666,1,0.742365125000106
135,39,5,categorization,0,bathroom,SHINEd_sun_auzqhkafidnkrwmo.tif,54,0.0666666666666667,0.0666666666666667,1.85,1379.82923,1380.707984875,13,1379.890929041,1379.951769541,1380.720557458,1382.563931458,1,0.878754874999913
135,40,5,categorization,0,bathroom,SHINEd_sun_ambriybtogmepttm.tif,36,0.0666666666666667,0.0666666666666667,0.966666666666667,1382.581207166,1383.353620958,9,1382.647388416,1382.713478291,1383.369676208,1384.329681,0,0.772413791999952
135,41,5,categorization,0,kitchen,SHINEd_sun_aunzlwrbjumxhwdj.tif,103,0.0666666666666667,0.0666666666666667,1.06666666666667,1384.334532708,1385.468137208,13,1384.396205375,1384.45708075,1385.4754565,1386.535496125,0,1.13360449999982
135,42,5,categorization,0,bathroom,SHINEd_sun_aapitsgbtktqubfy.tif,12,0.0666666666666667,0.0666666666666667,1.38333333333333,1386.543628833,1387.720932208,13,1386.608418875,1386.673633166,1387.746995625,1389.123712166,1,1.17730337500006
135,43,5,categorization,0,kitchen,SHINEd_sun_awcpdzzznmweyyhv.tif,106,0.0666666666666667,0.0666666666666667,0.766666666666667,1389.140540666,1389.815833333,9,1389.2073655,1389.272805,1389.846096,1390.606137791,1,0.675292666999894
135,44,5,categorization,0,bathroom,SHINEd_sun_aleqenyvunhactkl.tif,32,0.0666666666666667,0.0666666666666667,0.866666666666667,1390.621877708,1391.547385166,13,1390.68859525,1390.754167666,1391.55633825,1392.416342416,1,0.925507457999856
135,45,5,categorization,0,bathroom,SHINEd_sun_aunuadmjocsddsrl.tif,52,0.0666666666666667,0.0666666666666667,1.25,1392.421162541,1393.067530375,9,1392.48282125,1392.543977416,1393.079018041,1394.3224,0,0.646367833999875
135,46,5,categorization,0,kitchen,SHINEd_sun_agubuxuukhzyzpdp.tif,88,0.0666666666666667,0.0666666666666667,1.03333333333333,1394.338286833,1395.033193958,9,1394.404714291,1394.47083475,1395.060195625,1396.086915666,1,0.6949071250001
135,47,5,categorization,0,bathroom,SHINEd_sun_amzlamotzwfkwjco.tif,37,0.0666666666666667,0.0666666666666667,0.783333333333333,1396.102730041,1396.659685625,9,1396.165337166,1396.225347583,1396.677015,1397.453685708,0,0.556955583999979
135,48,5,categorization,0,bathroom,SHINEd_sun_avhrdrntsqrjzccq.tif,55,0.0666666666666667,0.0666666666666667,0.7,1397.458272916,1398.323340333,13,1397.519968791,1397.580889375,1398.332891458,1399.026230958,1,0.865067417000091
135,49,5,categorization,0,bathroom,SHINEd_sun_aclfzgynxzxlbepz.tif,19,0.0666666666666667,0.0666666666666667,1.75,1399.031481166,1399.731945375,9,1399.093371916,1399.154034375,1399.739286625,1401.482674,0,0.700464208999847
135,50,5,categorization,0,kitchen,SHINEd_labelme_brsyyvweiuaazfr.tif,61,0.0666666666666667,0.0666666666666667,1.36666666666667,1401.498822958,1402.286961416,9,1401.563415875,1401.629404458,1402.301549291,1403.661601125,1,0.788138458000049
135,1,6,categorization,0,bathroom,SHINEd_sun_ajlawzvmubibwbpy.tif,30,0.0666666666666667,0.0666666666666667,0.966666666666667,1431.47398225,1432.491844083,9,1431.536535166,1431.596702208,1432.498585375,1433.458589708,0,1.01786183299987
135,2,6,categorization,0,kitchen,SHINEd_sun_agzzivivdpnawacl.tif,89,0.0666666666666667,0.0666666666666667,1.73333333333333,1433.463208083,1434.21923325,9,1433.524821708,1433.585760958,1434.237890625,1435.964591666,1,0.756025166999962
135,3,6,categorization,0,kitchen,SHINEd_sun_aexklacwqwezaorf.tif,84,0.0666666666666667,0.0666666666666667,1.91666666666667,1435.981544625,1436.761009083,9,1436.047607166,1436.113405958,1436.786520958,1438.696566,1,0.77946445800012
135,4,6,categorization,0,kitchen,SHINEd_sun_abpwyqmlzafvklqo.tif,72,0.0666666666666667,0.0666666666666667,0.766666666666667,1438.71259975,1439.801031333,13,1438.779270291,1438.844556083,1439.817418583,1440.577422458,0,1.0884315830001
135,5,6,categorization,0,kitchen,SHINEd_sun_aeqdocilnnpuvuhx.tif,83,0.0666666666666667,0.0666666666666667,0.916666666666667,1440.583273208,1441.403301958,9,1440.64507825,1440.705960375,1441.408259791,1442.318263458,1,0.820028749999892
135,6,6,categorization,0,kitchen,SHINEd_sun_aapllqyqlykszopd.tif,66,0.0666666666666667,0.0666666666666667,1.18333333333333,1442.323028375,1443.03593325,13,1442.384671416,1442.445605291,1443.047549583,1444.224276,0,0.712904875000049
135,7,6,categorization,0,kitchen,SHINEd_sun_acwjdupvyjsugpay.tif,76,0.0666666666666667,0.0666666666666667,1.8,1444.235204958,1445.683303625,9,1444.3017885,1444.367679791,1445.710612916,1447.503982416,1,1.44809866700007
135,8,6,categorization,0,kitchen,SHINEd_sun_aggjlwcdjsjcaemh.tif,86,0.0666666666666667,0.0666666666666667,0.883333333333333,1447.520539625,1448.86776225,9,1447.585599041,1447.651461958,1448.887300541,1449.763972041,1,1.34722262499986
135,9,6,categorization,0,kitchen,SHINEd_sun_admlmbcdswaszruo.tif,79,0.0666666666666667,0.0666666666666667,1.83333333333333,1449.768569541,1450.475751625,9,1449.830233041,1449.89114975,1450.493057458,1452.319764458,1,0.707182083999896
135,10,6,categorization,0,bathroom,SHINEd_sun_aspsyogrekjtfozg.tif,50,0.0666666666666667,0.0666666666666667,1.76666666666667,1452.337182666,1453.435447375,13,1452.403899833,1452.469437833,1453.459347333,1455.219398166,1,1.09826470899998
135,11,6,categorization,0,kitchen,SHINEd_labelme_kxvouciolcpqplr.tif,62,0.0666666666666667,0.0666666666666667,0.983333333333333,1455.236373291,1456.134674291,13,1455.302717833,1455.368539291,1456.158794291,1457.135467,0,0.898300999999947
135,12,6,categorization,0,kitchen,SHINEd_sun_auticobqsbwgoppi.tif,104,0.0666666666666667,0.0666666666666667,0.883333333333333,1457.140466541,1457.85998,9,1457.202159583,1457.263109458,1457.86490075,1458.741571625,1,0.719513458999927
135,13,6,categorization,0,kitchen,SHINEd_sun_ahdycvpopffkzzsu.tif,90,0.0666666666666667,0.0666666666666667,0.85,1458.746227166,1459.658942166,13,1458.807945291,1458.868765458,1459.670670458,1460.514007541,0,0.912715000000162
135,14,6,categorization,0,kitchen,SHINEd_sun_aehawpgmrlhlvcow.tif,81,0.0666666666666667,0.0666666666666667,0.733333333333333,1460.518751,1461.659360625,9,1460.580292958,1460.641358416,1461.676711666,1462.403381958,1,1.14060962500002
135,15,6,categorization,0,bathroom,SHINEd_sun_aavhrsfjbserjtht.tif,13,0.0666666666666667,0.0666666666666667,1.88333333333333,1462.407984833,1463.835020208,9,1462.469718833,1462.530599833,1463.849410791,1465.726136,0,1.42703537500006
135,16,6,categorization,0,bathroom,SHINEd_sun_asfwthctfqerjvxr.tif,49,0.0666666666666667,0.0666666666666667,0.816666666666667,1465.738305166,1466.538874291,13,1465.806236333,1465.870707208,1466.560340208,1467.370345708,1,0.800569125000038
135,17,6,categorization,0,kitchen,SHINEd_sun_aymvwlarqodbwuoc.tif,108,0.0666666666666667,0.0666666666666667,1.9,1467.375082708,1468.299616708,9,1467.436725375,1467.497694083,1468.316764541,1470.210145666,1,0.924533999999994
135,18,6,categorization,0,kitchen,SHINEd_sun_auaiucuqpdausiva.tif,102,0.0666666666666667,0.0666666666666667,0.983333333333333,1470.227042875,1470.871986583,13,1470.293670958,1470.359520333,1470.899072625,1471.87574375,0,0.644943708000028
135,19,6,categorization,0,kitchen,SHINEd_sun_acfmftudsenhrfhy.tif,74,0.0666666666666667,0.0666666666666667,0.75,1471.88056425,1473.547283416,13,1471.942240125,1472.0033665,1473.555692333,1474.299031625,0,1.66671916600012
135,20,6,categorization,0,bathroom,SHINEd_sun_apmqjbnwghzuhhzh.tif,46,0.0666666666666667,0.0666666666666667,1.6,1474.303509083,1475.010997458,13,1474.365246791,1474.426096958,1475.027926041,1476.621292333,1,0.707488374999912
135,21,6,categorization,0,bathroom,SHINEd_sun_apjevzvycyhuqghb.tif,43,0.0666666666666667,0.0666666666666667,1.58333333333333,1476.638119333,1477.396979166,9,1476.70463875,1476.77055875,1477.427065625,1479.003783458,0,0.75885983299986
135,22,6,categorization,0,kitchen,SHINEd_sun_aadbddgrdsjugojn.tif,64,0.0666666666666667,0.0666666666666667,1.11666666666667,1479.02130625,1479.869780916,9,1479.08757225,1479.153644875,1479.893665666,1481.0037115,1,0.848474666000129
135,23,6,categorization,0,kitchen,SHINEd_sun_aenotlpyftoioydp.tif,82,0.0666666666666667,0.0666666666666667,1.53333333333333,1481.012022291,1481.803895791,9,1481.076693875,1481.144349916,1481.834381083,1483.361092208,1,0.791873500000065
135,24,6,categorization,0,bathroom,SHINEd_sun_apynckhmoftszqoq.tif,47,0.0666666666666667,0.0666666666666667,1.48333333333333,1483.379227416,1484.160125,13,1483.44565225,1483.511185458,1484.183352875,1485.660051166,1,0.780897584000058
135,25,6,categorization,0,kitchen,SHINEd_sun_aaxxjlsuzvqlgylf.tif,68,0.0666666666666667,0.0666666666666667,1.1,1485.67151575,1486.691387166,13,1485.738206166,1485.803861541,1486.710242625,1487.803620041,0,1.01987141599989
135,26,6,categorization,0,bathroom,SHINEd_sun_atstyziqcmkahyxk.tif,51,0.0666666666666667,0.0666666666666667,0.933333333333333,1487.812366833,1488.693816583,13,1487.877503791,1487.944685333,1488.71833775,1489.645050208,1,0.881449750000002
135,27,6,categorization,0,bathroom,SHINEd_sun_apeeialkgkuxddgh.tif,42,0.0666666666666667,0.0666666666666667,0.816666666666667,1489.654954416,1490.299203583,13,1489.721866083,1489.787359125,1490.305989833,1491.115994708,1,0.644249166999998
135,28,6,categorization,0,bathroom,SHINEd_sun_aljolscmmzydegqp.tif,33,0.0666666666666667,0.0666666666666667,1.78333333333333,1491.120628125,1491.811011791,13,1491.182221291,1491.24329525,1491.828538208,1493.605240958,1,0.690383666000116
135,29,6,categorization,0,bathroom,SHINEd_sun_aggnnqpdorgxpvce.tif,21,0.0666666666666667,0.0666666666666667,0.766666666666667,1493.616587625,1494.106874291,9,1493.681892458,1493.748738375,1494.120836041,1494.880843833,0,0.490286665999975
135,30,6,categorization,0,kitchen,SHINEd_sun_aixorpehvfykdynp.tif,95,0.0666666666666667,0.0666666666666667,1.45,1494.886598333,1495.315449583,9,1494.948386166,1495.009195916,1495.327715666,1496.771105958,1,0.42885124999998
135,31,6,categorization,0,bathroom,SHINEd_sun_agguqiubmwhqqunb.tif,22,0.0666666666666667,0.0666666666666667,0.75,1496.786125375,1497.176964375,9,1496.852774708,1496.918231458,1497.1905735,1497.933951791,0,0.390838999999914
135,32,6,categorization,0,kitchen,SHINEd_sun_acxkpeoqbwcxfvip.tif,77,0.0666666666666667,0.0666666666666667,1.36666666666667,1497.948363458,1498.835456166,9,1498.014408625,1498.080715458,1498.84964675,1500.20970375,1,0.887092708000182
135,33,6,categorization,0,kitchen,SHINEd_sun_ajkqhtgcbgpcwrwn.tif,97,0.0666666666666667,0.0666666666666667,0.75,1500.226158958,1501.156184083,9,1500.2927475,1500.358500375,1501.182191083,1501.925531791,1,0.930025124999929
135,34,6,categorization,0,kitchen,SHINEd_sun_ajcbwwvdlsvjyzje.tif,96,0.0666666666666667,0.0666666666666667,0.783333333333333,1501.934122833,1502.563559375,13,1501.99586925,1502.056711333,1502.575090208,1503.351762208,0,0.629436542000121
135,35,6,categorization,0,kitchen,SHINEd_sun_amjjdeyrggfqgmom.tif,100,0.0666666666666667,0.0666666666666667,1.11666666666667,1503.356926708,1504.259136333,9,1503.418693041,1503.479472916,1504.265207333,1505.375261083,1,0.902209625000069
135,36,6,categorization,0,kitchen,SHINEd_sun_avszsnwsbuqfgzbn.tif,105,0.0666666666666667,0.0666666666666667,0.766666666666667,1505.383595666,1506.152037333,9,1505.447322166,1505.51576975,1506.171918916,1506.931965375,1,0.768441666999934
135,37,6,categorization,0,kitchen,SHINEd_sun_agorklincwxrdtga.tif,87,0.0666666666666667,0.0666666666666667,0.716666666666667,1506.947057666,1507.682976375,13,1507.013087125,1507.078782541,1507.697312458,1508.407316291,0,0.735918708999861
135,38,6,categorization,0,kitchen,SHINEd_sun_abdenxonkemggwsq.tif,69,0.0666666666666667,0.0666666666666667,1.33333333333333,1508.412042958,1509.963151666,13,1508.473708041,1508.53462725,1509.970010125,1511.296729416,0,1.5511087079999
135,39,6,categorization,0,kitchen,SHINEd_labelme_rykdqxenmhulbdn.tif,63,0.0666666666666667,0.0666666666666667,1.75,1511.313737,1512.951283208,9,1511.38102825,1511.445965875,1512.971614833,1514.715001041,1,1.637546208
135,40,6,categorization,0,bathroom,SHINEd_sun_ausgutylgojavyoq.tif,53,0.0666666666666667,0.0666666666666667,1.13333333333333,1514.729539666,1515.454676375,13,1514.796313458,1514.861565708,1515.485004833,1516.611724333,1,0.725136709000026
135,41,6,categorization,0,kitchen,SHINEd_sun_acgtpgfybqjmzeyw.tif,75,0.0666666666666667,0.0666666666666667,1.63333333333333,1516.6205545,1517.471406958,9,1516.685894375,1516.752949333,1517.492982666,1519.119696041,1,0.850852457999963
135,42,6,categorization,0,bathroom,SHINEd_sun_aghyqhbptboemmoq.tif,23,0.0666666666666667,0.0666666666666667,1.43333333333333,1519.137299083,1519.906450583,13,1519.204410333,1519.270195333,1519.92699325,1521.353695125,1,0.769151499999907
135,43,6,categorization,0,bathroom,SHINEd_sun_axxbkopsgyouuebh.tif,58,0.0666666666666667,0.0666666666666667,1.83333333333333,1521.371495416,1522.14255675,13,1521.438358833,1521.504619083,1522.161141583,1523.98786175,1,0.771061334000024
135,44,6,categorization,0,bathroom,SHINEd_sun_acegryoqftbzowsg.tif,17,0.0666666666666667,0.0666666666666667,1.93333333333333,1524.006185833,1524.762586583,13,1524.073048916,1524.138870958,1524.77759175,1526.704309333,1,0.756400750000012
135,45,6,categorization,0,bathroom,SHINEd_sun_afcoljnjfoxjtgja.tif,20,0.0666666666666667,0.0666666666666667,1.26666666666667,1526.721722416,1527.334998375,9,1526.788401583,1526.854658166,1527.361518625,1528.621555791,0,0.613275959000021
135,46,6,categorization,0,bathroom,SHINEd_sun_alotolagknyrgtsk.tif,35,0.0666666666666667,0.0666666666666667,1.86666666666667,1528.639743625,1530.333981791,9,1528.70672475,1528.772302,1530.36521,1532.225268958,0,1.6942381660001
135,47,6,categorization,0,kitchen,SHINEd_sun_aqeaevwwwjoqhzvl.tif,101,0.0666666666666667,0.0666666666666667,1.41666666666667,1532.243915083,1533.389107958,13,1532.311404125,1532.376458583,1533.416707708,1534.826747916,0,1.14519287500002
135,48,6,categorization,0,kitchen,SHINEd_sun_aamedkxepzlwuxes.tif,65,0.0666666666666667,0.0666666666666667,1.11666666666667,1534.84436475,1535.941461708,13,1534.911437791,1534.976869916,1535.967562125,1537.077603916,0,1.09709695799984
135,49,6,categorization,0,bathroom,SHINEd_labelme_sfxiulhjbhlyiyt.tif,11,0.0666666666666667,0.0666666666666667,1.8,1537.086061083,1538.572902,13,1537.152051833,1537.218610875,1538.594249541,1540.387633916,1,1.48684091700011
135,50,6,categorization,0,kitchen,SHINEd_sun_abdxkyyxwfskuaqb.tif,70,0.0666666666666667,0.0666666666666667,1.25,1540.405881208,1541.383821583,9,1540.474043291,1540.538556041,1541.412666833,1542.656033916,1,0.977940375000117
135,1,7,categorization,0,kitchen,SHINEd_labelme_brsyyvweiuaazfr.tif,61,0.0666666666666667,0.0666666666666667,0.883333333333333,1558.671408875,1559.859051625,13,1558.733901625,1558.794087625,1559.862624375,1560.739295875,0,1.1876427499999
135,2,7,categorization,0,bathroom,SHINEd_sun_azqyogdvyhahyram.tif,60,0.0666666666666667,0.0666666666666667,1.03333333333333,1560.743839916,1561.547122,13,1560.805505791,1560.866422291,1561.551521416,1562.578219833,1,0.803282083999875
135,3,7,categorization,0,kitchen,SHINEd_sun_aqeaevwwwjoqhzvl.tif,101,0.0666666666666667,0.0666666666666667,1.06666666666667,1562.587446625,1563.8517975,13,1562.651740958,1562.718877583,1563.8752585,1564.935302958,0,1.26435087499999
135,4,7,categorization,0,kitchen,SHINEd_sun_aarfiyshqohlwkmo.tif,67,0.0666666666666667,0.0666666666666667,0.833333333333333,1564.944569291,1565.685010291,9,1565.010046958,1565.074148875,1565.695808916,1566.522528125,1,0.740440999999919
135,5,7,categorization,0,bathroom,SHINEd_sun_acegryoqftbzowsg.tif,17,0.0666666666666667,0.0666666666666667,0.716666666666667,1566.538694916,1567.13095625,9,1566.605654916,1566.670756916,1567.139628791,1567.849633,0,0.592261334000113
135,6,7,categorization,0,bathroom,SHINEd_sun_aoybiabnpadelefl.tif,41,0.0666666666666667,0.0666666666666667,0.733333333333333,1567.854495791,1568.80277875,9,1567.916138,1567.977080083,1568.812497958,1569.539168583,0,0.948282958999926
135,7,7,categorization,0,kitchen,SHINEd_sun_aypmqwcualkenuoe.tif,109,0.0666666666666667,0.0666666666666667,1.38333333333333,1569.543881958,1570.290815875,9,1569.605459791,1569.666493958,1570.301580375,1571.678297916,1,0.746933916999978
135,8,7,categorization,0,kitchen,SHINEd_sun_akchetnepxlcxhsu.tif,98,0.0666666666666667,0.0666666666666667,0.9,1571.694456458,1572.316156916,13,1571.762044958,1571.826528791,1572.332314666,1573.225685291,0,0.62170045799985
135,9,7,categorization,0,bathroom,SHINEd_sun_aggnnqpdorgxpvce.tif,21,0.0666666666666667,0.0666666666666667,0.816666666666667,1573.240950083,1573.994645333,13,1573.307313875,1573.365367625,1574.000682833,1574.810687333,1,0.753695250000192
135,10,7,categorization,0,bathroom,SHINEd_sun_akiytfaagpdsphgz.tif,31,0.0666666666666667,0.0666666666666667,0.85,1574.8158635,1575.651231416,9,1574.877606333,1574.938485791,1575.656907916,1576.500246583,0,0.835367915999996
135,11,7,categorization,0,bathroom,SHINEd_sun_abapwbhyhkfixyex.tif,14,0.0666666666666667,0.0666666666666667,1.6,1576.504917625,1577.306585916,9,1576.5665765,1576.627427541,1577.312553666,1578.905940333,0,0.801668290999942
135,12,7,categorization,0,kitchen,SHINEd_sun_axyyrmzcupyhlivc.tif,107,0.0666666666666667,0.0666666666666667,1.75,1578.922920541,1579.963715666,13,1578.989343708,1579.055267625,1579.977609708,1581.720997333,0,1.04079512500016
135,13,7,categorization,0,kitchen,SHINEd_sun_acfmftudsenhrfhy.tif,74,0.0666666666666667,0.0666666666666667,1.1,1581.73912575,1583.099002208,13,1581.806003208,1581.871689625,1583.107686458,1584.201076458,0,1.35987645799992
135,14,7,categorization,0,bathroom,SHINEd_sun_auzqhkafidnkrwmo.tif,54,0.0666666666666667,0.0666666666666667,1.46666666666667,1584.209129125,1584.930496208,13,1584.273982916,1584.34241925,1584.948669583,1586.408707375,1,0.721367083000132
135,15,7,categorization,0,bathroom,SHINEd_sun_anryaplzeujmzfkd.tif,39,0.0666666666666667,0.0666666666666667,1.25,1586.426156166,1587.495369916,13,1586.4928095,1586.55821375,1587.514412791,1588.757777708,1,1.06921375000002
135,16,7,categorization,0,kitchen,SHINEd_sun_abdxkyyxwfskuaqb.tif,70,0.0666666666666667,0.0666666666666667,1.13333333333333,1588.775246333,1589.410654083,9,1588.842042583,1588.907278208,1589.430265041,1590.556968041,1,0.635407750000013
135,17,7,categorization,0,bathroom,SHINEd_sun_axyrejkiiaqiurjk.tif,59,0.0666666666666667,0.0666666666666667,1.33333333333333,1590.572748208,1591.5708555,9,1590.635113541,1590.695371583,1591.580470208,1592.907185833,0,0.998107292000213
135,18,7,categorization,0,kitchen,SHINEd_sun_admlmbcdswaszruo.tif,79,0.0666666666666667,0.0666666666666667,1.86666666666667,1592.923559875,1594.156109291,9,1592.990338708,1593.055550916,1594.181275291,1596.041316125,1,1.23254941599998
135,19,7,categorization,0,kitchen,SHINEd_sun_abrcnpqqhmjwekyf.tif,73,0.0666666666666667,0.0666666666666667,1.58333333333333,1596.058118125,1597.003916416,9,1596.124652916,1596.190100458,1597.030022375,1598.606726833,1,0.945798291000074
135,20,7,categorization,0,kitchen,SHINEd_sun_agubuxuukhzyzpdp.tif,88,0.0666666666666667,0.0666666666666667,1.05,1598.62493775,1599.499267375,9,1598.69169925,1598.757305958,1599.513420416,1600.556790875,1,0.874329624999973
135,21,7,categorization,0,bathroom,SHINEd_sun_aspsyogrekjtfozg.tif,50,0.0666666666666667,0.0666666666666667,0.9,1600.565857833,1601.247142958,13,1600.630361666,1600.696000458,1601.26910525,1602.162478875,1,0.681285124999931
135,22,7,categorization,0,kitchen,SHINEd_labelme_kxvouciolcpqplr.tif,62,0.0666666666666667,0.0666666666666667,0.7,1602.176619,1603.010620458,13,1602.243814333,1602.309077791,1603.028101,1603.721439208,0,0.834001457999875
135,23,7,categorization,0,kitchen,SHINEd_sun_abdenxonkemggwsq.tif,69,0.0666666666666667,0.0666666666666667,0.933333333333333,1603.726110083,1604.650688791,13,1603.787828833,1603.848675791,1604.667540291,1605.594211458,0,0.924578707999899
135,24,7,categorization,0,bathroom,SHINEd_sun_asfwthctfqerjvxr.tif,49,0.0666666666666667,0.0666666666666667,1.95,1605.599057125,1606.45898575,13,1605.660914916,1605.721633583,1606.473378791,1608.416747375,1,0.859928625000066
135,25,7,categorization,0,bathroom,SHINEd_sun_aunuadmjocsddsrl.tif,52,0.0666666666666667,0.0666666666666667,1.06666666666667,1608.434394166,1609.331810916,9,1608.501281333,1608.566761416,1609.356888333,1610.41692275,0,0.897416750000048
135,26,7,categorization,0,kitchen,SHINEd_sun_akcjzhbbjlbogpdi.tif,99,0.0666666666666667,0.0666666666666667,1.2,1610.425497708,1611.332796583,9,1610.489835625,1610.556334041,1611.363126125,1612.55651225,1,0.907298874999924
135,27,7,categorization,0,bathroom,SHINEd_sun_axldvoqbuvuggfmq.tif,57,0.0666666666666667,0.0666666666666667,0.75,1612.5668355,1613.258397833,9,1612.633621291,1612.699057625,1613.288960833,1614.032350041,0,0.691562332999865
135,28,7,categorization,0,bathroom,SHINEd_sun_aapitsgbtktqubfy.tif,12,0.0666666666666667,0.0666666666666667,0.816666666666667,1614.04803275,1615.347088083,13,1614.114241958,1614.180088625,1615.365828416,1616.17583475,1,1.29905533300007
135,29,7,categorization,0,kitchen,SHINEd_labelme_rykdqxenmhulbdn.tif,63,0.0666666666666667,0.0666666666666667,1.96666666666667,1616.182942125,1617.067102791,13,1616.244607875,1616.3055255,1617.073957958,1619.033988458,0,0.884160666000071
135,30,7,categorization,0,bathroom,SHINEd_sun_aleqenyvunhactkl.tif,32,0.0666666666666667,0.0666666666666667,1.2,1619.051756416,1620.210302583,13,1619.118167208,1619.183735125,1620.219611708,1621.413005291,1,1.15854616699994
135,31,7,categorization,0,kitchen,SHINEd_sun_acxkpeoqbwcxfvip.tif,77,0.0666666666666667,0.0666666666666667,0.883333333333333,1621.425158291,1622.303345875,9,1621.492577041,1621.554447416,1622.327486208,1623.204189958,1,0.878187584000216
135,32,7,categorization,0,bathroom,SHINEd_sun_avhrdrntsqrjzccq.tif,55,0.0666666666666667,0.0666666666666667,1.33333333333333,1623.219641291,1624.131064625,9,1623.286077875,1623.343467333,1624.145427333,1625.47213125,0,0.911423333999892
135,33,7,categorization,0,bathroom,SHINEd_sun_ambriybtogmepttm.tif,36,0.0666666666666667,0.0666666666666667,1.45,1625.485815666,1626.230046,9,1625.550131875,1625.614943583,1626.254647666,1627.698020166,0,0.744230333999894
135,34,7,categorization,0,kitchen,SHINEd_sun_aehawpgmrlhlvcow.tif,81,0.0666666666666667,0.0666666666666667,1.15,1627.71557475,1628.934977041,13,1627.783967166,1627.847839375,1628.954149166,1630.09752325,0,1.21940229099982
135,35,7,categorization,0,kitchen,SHINEd_sun_ahdycvpopffkzzsu.tif,90,0.0666666666666667,0.0666666666666667,0.966666666666667,1630.106478958,1631.238958625,13,1630.173298333,1630.238381875,1631.262468208,1632.222473166,0,1.13247966699987
135,36,7,categorization,0,bathroom,SHINEd_sun_apkruvsevgegsdwp.tif,44,0.0666666666666667,0.0666666666666667,1.45,1632.227196083,1633.098688208,13,1632.28887325,1632.349801708,1633.101421083,1634.544814208,1,0.871492125000032
135,37,7,categorization,0,kitchen,SHINEd_sun_agzzivivdpnawacl.tif,89,0.0666666666666667,0.0666666666666667,0.8,1634.561341166,1635.959393541,9,1634.627902666,1634.693492125,1635.986391666,1636.779729083,1,1.39805237500013
135,38,7,categorization,0,kitchen,SHINEd_sun_aenotlpyftoioydp.tif,82,0.0666666666666667,0.0666666666666667,1.45,1636.78441475,1637.610849708,9,1636.846371833,1636.906983583,1637.625445541,1639.0688365,1,0.826434957999936
135,39,7,categorization,0,kitchen,SHINEd_sun_auticobqsbwgoppi.tif,104,0.0666666666666667,0.0666666666666667,1.1,1639.0860145,1639.818458333,9,1639.152525583,1639.218269083,1639.841179125,1640.93456525,1,0.732443833000161
135,40,7,categorization,0,bathroom,SHINEd_sun_aljolscmmzydegqp.tif,33,0.0666666666666667,0.0666666666666667,1.16666666666667,1640.943035791,1641.620671,13,1641.007761958,1641.075030875,1641.64664775,1642.806681125,1,0.677635208999845
135,41,7,categorization,0,kitchen,SHINEd_sun_ajkqhtgcbgpcwrwn.tif,97,0.0666666666666667,0.0666666666666667,1.31666666666667,1642.822613416,1643.650773916,9,1642.889280541,1642.952988791,1643.65491675,1644.96496175,1,0.828160499999967
135,42,7,categorization,0,kitchen,SHINEd_sun_afuyedyxivkhecmu.tif,85,0.0666666666666667,0.0666666666666667,1.68333333333333,1644.978300875,1645.686274291,9,1645.044453666,1645.110356875,1645.699185,1647.375893833,1,0.707973415999959
135,43,7,categorization,0,kitchen,SHINEd_sun_aeqdocilnnpuvuhx.tif,83,0.0666666666666667,0.0666666666666667,0.966666666666667,1647.3921555,1648.115717333,13,1647.45865175,1647.524106625,1648.13016,1649.090168333,0,0.723561833000076
135,44,7,categorization,0,bathroom,SHINEd_sun_aghyqhbptboemmoq.tif,23,0.0666666666666667,0.0666666666666667,1.4,1649.095886916,1650.035173375,13,1649.157575083,1649.218476458,1650.053991041,1651.447360541,1,0.939286459000186
135,45,7,categorization,0,bathroom,SHINEd_sun_ahaulkltgpkeeemi.tif,26,0.0666666666666667,0.0666666666666667,0.783333333333333,1651.46472025,1653.148653416,9,1651.531162791,1651.594982791,1653.165672333,1653.942344416,0,1.68393316599986
135,46,7,categorization,0,kitchen,SHINEd_sun_auaiucuqpdausiva.tif,102,0.0666666666666667,0.0666666666666667,1.08333333333333,1653.947108583,1655.202352458,13,1654.008820666,1654.0697005,1655.22184325,1656.298562041,0,1.25524387499991
135,47,7,categorization,0,kitchen,SHINEd_sun_acwjdupvyjsugpay.tif,76,0.0666666666666667,0.0666666666666667,1.43333333333333,1656.306597916,1657.038074166,9,1656.371042583,1656.438732875,1657.062204791,1658.488902916,1,0.731476249999787
135,48,7,categorization,0,bathroom,SHINEd_sun_aavhrsfjbserjtht.tif,13,0.0666666666666667,0.0666666666666667,1.75,1658.503948375,1659.278132958,9,1658.570368875,1658.635829083,1659.291360916,1661.034730041,0,0.774184583000078
135,49,7,categorization,0,bathroom,SHINEd_sun_amzlamotzwfkwjco.tif,37,0.0666666666666667,0.0666666666666667,1.21666666666667,1661.051141208,1661.87395875,13,1661.117642083,1661.183213916,1661.888906333,1663.0989545,1,0.822817541999939
135,50,7,categorization,0,bathroom,SHINEd_sun_acgyywnybuveqsro.tif,18,0.0666666666666667,0.0666666666666667,1.31666666666667,1663.117093791,1663.956520708,13,1663.183630708,1663.249232375,1663.971835708,1665.281876791,1,0.839426917000083
135,1,8,categorization,0,bathroom,SHINEd_sun_axxbkopsgyouuebh.tif,58,0.0666666666666667,0.0666666666666667,1.18333333333333,1704.749608291,1705.666414791,13,1704.812051166,1704.872176083,1705.673968416,1706.8506725,1,0.916806500000121
135,2,8,categorization,0,bathroom,SHINEd_sun_agguqiubmwhqqunb.tif,22,0.0666666666666667,0.0666666666666667,0.983333333333333,1706.861715291,1707.77300675,9,1706.928332125,1706.992864458,1707.799514083,1708.776187125,0,0.911291458999813
135,3,8,categorization,0,kitchen,SHINEd_sun_aamedkxepzlwuxes.tif,65,0.0666666666666667,0.0666666666666667,1.65,1708.781981541,1709.522120958,9,1708.843664416,1708.904637208,1709.539931708,1711.183311625,1,0.740139416999909
135,4,8,categorization,0,kitchen,SHINEd_sun_aexklacwqwezaorf.tif,84,0.0666666666666667,0.0666666666666667,1.23333333333333,1711.200550458,1712.495601916,9,1711.26696925,1711.3322935,1712.524812333,1713.751518458,1,1.29505145799999
135,5,8,categorization,0,kitchen,SHINEd_sun_ahspylgoovwmwvgk.tif,93,0.0666666666666667,0.0666666666666667,0.916666666666667,1713.7620315,1714.660548416,13,1713.828690875,1713.894083416,1714.684410291,1715.594435666,0,0.898516916000062
135,6,8,categorization,0,bathroom,SHINEd_labelme_sfxiulhjbhlyiyt.tif,11,0.0666666666666667,0.0666666666666667,1.56666666666667,1715.603543166,1716.32238325,13,1715.666322208,1715.726287875,1716.328326708,1717.888380083,1,0.718840084000021
135,7,8,categorization,0,bathroom,SHINEd_sun_apeeialkgkuxddgh.tif,42,0.0666666666666667,0.0666666666666667,1.63333333333333,1717.9058035,1718.701155291,13,1717.972257375,1718.037977291,1718.7276525,1720.354366041,1,0.79535179100003
135,8,8,categorization,0,kitchen,SHINEd_sun_ahpczsiumwwocjkv.tif,92,0.0666666666666667,0.0666666666666667,1.1,1720.372188583,1721.093066166,9,1720.438492416,1720.504586333,1721.110536958,1722.203917291,1,0.720877582999947
135,9,8,categorization,0,kitchen,SHINEd_sun_ahywdevtimnqcsln.tif,94,0.0666666666666667,0.0666666666666667,1.38333333333333,1722.21342075,1723.003767583,13,1722.278543625,1722.346016416,1723.018302625,1724.39501,0,0.79034683299983
135,10,8,categorization,0,bathroom,SHINEd_sun_ausgutylgojavyoq.tif,53,0.0666666666666667,0.0666666666666667,0.766666666666667,1724.4112255,1725.092814833,13,1724.477590916,1724.543460375,1725.116607041,1725.876659333,1,0.68158933299992
135,11,8,categorization,0,kitchen,SHINEd_sun_ahljzhgcdpomplvg.tif,91,0.0666666666666667,0.0666666666666667,1.45,1725.887755,1726.722649708,9,1725.954203291,1726.019700333,1726.7386755,1728.182050333,1,0.834894708000093
135,12,8,categorization,0,kitchen,SHINEd_sun_amjjdeyrggfqgmom.tif,100,0.0666666666666667,0.0666666666666667,0.983333333333333,1728.200359208,1728.894881083,13,1728.266881208,1728.33239325,1728.922285125,1729.898956666,0,0.694521874999964
135,13,8,categorization,0,kitchen,SHINEd_sun_agorklincwxrdtga.tif,87,0.0666666666666667,0.0666666666666667,0.716666666666667,1729.904541083,1730.618040208,9,1729.96622625,1730.027119666,1730.629497458,1731.339501875,1,0.713499124999998
135,14,8,categorization,0,kitchen,SHINEd_sun_adgqasybjyktddhj.tif,78,0.0666666666666667,0.0666666666666667,1.41666666666667,1731.344463875,1732.186041333,9,1731.406239625,1731.467018916,1732.202495416,1733.612526541,1,0.841577458000074
135,15,8,categorization,0,bathroom,SHINEd_sun_afcoljnjfoxjtgja.tif,20,0.0666666666666667,0.0666666666666667,1.21666666666667,1733.621316083,1734.62081925,9,1733.686209375,1733.753384,1734.642971625,1735.853024333,0,0.999503167000057
135,16,8,categorization,0,kitchen,SHINEd_sun_aggjlwcdjsjcaemh.tif,86,0.0666666666666667,0.0666666666666667,1.61666666666667,1735.869457875,1736.502462041,13,1735.936066291,1736.002480708,1736.525873791,1738.135919125,0,0.633004165999864
135,17,8,categorization,0,bathroom,SHINEd_sun_aofnryafpsjimzsb.tif,40,0.0666666666666667,0.0666666666666667,0.783333333333333,1738.153343125,1739.659239041,9,1738.219885625,1738.286064333,1739.675870291,1740.452542416,0,1.5058959160001
135,18,8,categorization,0,bathroom,SHINEd_sun_awnqiikzaispgmwo.tif,56,0.0666666666666667,0.0666666666666667,1.98333333333333,1740.458030791,1741.2982295,13,1740.519781333,1740.580622,1741.316325291,1743.293034333,1,0.840198708999878
135,19,8,categorization,0,kitchen,SHINEd_sun_aadbddgrdsjugojn.tif,64,0.0666666666666667,0.0666666666666667,0.983333333333333,1743.310669875,1744.271867875,9,1743.376810333,1743.442945,1744.299434916,1745.276104958,1,0.961197999999968
135,20,8,categorization,0,bathroom,SHINEd_sun_abjtwfukuwddzted.tif,15,0.0666666666666667,0.0666666666666667,0.8,1745.282173958,1746.050396583,9,1745.34391275,1745.404701208,1746.05653075,1746.849869666,0,0.768222625000135
135,21,8,categorization,0,kitchen,SHINEd_sun_aapllqyqlykszopd.tif,66,0.0666666666666667,0.0666666666666667,0.733333333333333,1746.854646625,1747.762541083,9,1746.916267208,1746.977156083,1747.778976208,1748.505649541,1,0.907894458000101
135,22,8,categorization,0,bathroom,SHINEd_sun_agrwbmhcpmfuwmsg.tif,24,0.0666666666666667,0.0666666666666667,0.966666666666667,1748.511094416,1749.090433541,13,1748.572710291,1748.6337885,1749.10225325,1750.062258208,1,0.579339124999933
135,23,8,categorization,0,kitchen,SHINEd_sun_aaxxjlsuzvqlgylf.tif,68,0.0666666666666667,0.0666666666666667,0.866666666666667,1750.067299416,1750.89806275,13,1750.12897375,1750.189918791,1750.908437541,1751.768441541,0,0.830763334000039
135,24,8,categorization,0,bathroom,SHINEd_sun_aqrpegblszgcoujh.tif,48,0.0666666666666667,0.0666666666666667,1.23333333333333,1751.773145791,1753.105793958,9,1751.834797291,1751.89578325,1753.1146985,1754.341417625,0,1.33264816700012
135,25,8,categorization,0,kitchen,SHINEd_sun_aegoxogugdkwpmpj.tif,80,0.0666666666666667,0.0666666666666667,1.9,1754.358559041,1755.602902958,9,1754.424745541,1754.490678,1755.630934333,1757.524316416,1,1.24434391699992
135,26,8,categorization,0,kitchen,SHINEd_sun_abpwyqmlzafvklqo.tif,72,0.0666666666666667,0.0666666666666667,0.866666666666667,1757.540873375,1758.305499791,9,1757.605291833,1757.671838958,1758.328379541,1759.188383708,1,0.764626416000056
135,27,8,categorization,0,bathroom,SHINEd_sun_apmqjbnwghzuhhzh.tif,46,0.0666666666666667,0.0666666666666667,0.966666666666667,1759.193816625,1760.049982333,13,1759.255410375,1759.316455958,1760.068584041,1761.028589416,1,0.856165707999935
135,28,8,categorization,0,kitchen,SHINEd_sun_awcpdzzznmweyyhv.tif,106,0.0666666666666667,0.0666666666666667,0.916666666666667,1761.033903833,1762.138302375,9,1761.095529875,1761.156475083,1762.141828041,1763.051831375,1,1.1043985419999
135,29,8,categorization,0,kitchen,SHINEd_sun_abftihopvusyfakt.tif,71,0.0666666666666667,0.0666666666666667,0.916666666666667,1763.056978166,1764.297823166,9,1763.118676375,1763.179582666,1764.31559675,1765.225600708,1,1.24084500000004
135,30,8,categorization,0,bathroom,SHINEd_sun_atstyziqcmkahyxk.tif,51,0.0666666666666667,0.0666666666666667,1.4,1765.231813416,1766.409970875,13,1765.293530125,1765.35438725,1766.423266833,1767.8166375,1,1.17815745899998
135,31,8,categorization,0,bathroom,SHINEd_sun_agyqfjcfkdcydepw.tif,25,0.0666666666666667,0.0666666666666667,1.75,1767.834478291,1769.380879166,13,1767.901116625,1767.966798875,1769.410145583,1771.153529458,1,1.54640087500002
135,32,8,categorization,0,kitchen,SHINEd_sun_azmutvzbxypaceni.tif,110,0.0666666666666667,0.0666666666666667,1.25,1771.170118541,1772.068292791,13,1771.236870208,1771.303136041,1772.092351375,1773.335727291,0,0.898174250000011
135,33,8,categorization,0,bathroom,SHINEd_sun_ahcvzmoyaycdoftf.tif,27,0.0666666666666667,0.0666666666666667,1.05,1773.352259833,1774.1004705,13,1773.419020333,1773.484560083,1774.124953583,1775.168328125,1,0.748210666999967
135,34,8,categorization,0,kitchen,SHINEd_sun_aixorpehvfykdynp.tif,95,0.0666666666666667,0.0666666666666667,1.06666666666667,1775.183730166,1775.897859333,9,1775.246558791,1775.306315666,1775.908089583,1776.968121791,1,0.71412916700001
135,35,8,categorization,0,kitchen,SHINEd_sun_acgtpgfybqjmzeyw.tif,75,0.0666666666666667,0.0666666666666667,1.21666666666667,1776.978654375,1777.603122541,9,1777.043067,1777.109067833,1777.612861083,1778.822919375,1,0.624468166000042
135,36,8,categorization,0,kitchen,SHINEd_sun_aymvwlarqodbwuoc.tif,108,0.0666666666666667,0.0666666666666667,0.95,1778.840291291,1780.274177083,9,1778.90676325,1778.971784291,1780.290641541,1781.233979,1,1.43388579199996
135,37,8,categorization,0,bathroom,SHINEd_sun_apjevzvycyhuqghb.tif,43,0.0666666666666667,0.0666666666666667,0.9,1781.239410291,1782.01764975,13,1781.301193375,1781.361924333,1782.030681,1782.924019833,1,0.778239458999906
135,38,8,categorization,0,bathroom,SHINEd_sun_ahijqszoswveeyji.tif,28,0.0666666666666667,0.0666666666666667,1.78333333333333,1782.929530458,1783.753745541,9,1782.991219791,1783.052245333,1783.770798375,1785.547481291,0,0.824215082999899
135,39,8,categorization,0,bathroom,SHINEd_sun_alkosphxlxwjwgjd.tif,34,0.0666666666666667,0.0666666666666667,1.16666666666667,1785.5564605,1786.723986916,13,1785.621312958,1785.686401333,1786.742563666,1787.90260775,1,1.1675264160001
135,40,8,categorization,0,bathroom,SHINEd_sun_apynckhmoftszqoq.tif,47,0.0666666666666667,0.0666666666666667,0.783333333333333,1787.911395583,1788.63581025,13,1787.978035416,1788.043538083,1788.648916625,1789.425642791,1,0.724414667000019
135,41,8,categorization,0,bathroom,SHINEd_sun_acduarbnmmoglmiv.tif,16,0.0666666666666667,0.0666666666666667,1.23333333333333,1789.441104,1790.329726458,9,1789.50768025,1789.568898041,1790.337538333,1791.564233375,0,0.8886224580001
135,42,8,categorization,0,bathroom,SHINEd_sun_aclfzgynxzxlbepz.tif,19,0.0666666666666667,0.0666666666666667,0.9,1791.57305,1792.381934791,13,1791.636918791,1791.703107875,1792.410220958,1793.3035965,1,0.808884791000082
135,43,8,categorization,0,kitchen,SHINEd_sun_aunzlwrbjumxhwdj.tif,103,0.0666666666666667,0.0666666666666667,0.7,1793.319043583,1794.3624785,13,1793.385570291,1793.449279875,1794.367670708,1795.061009375,0,1.04343491700001
135,44,8,categorization,0,kitchen,SHINEd_sun_avszsnwsbuqfgzbn.tif,105,0.0666666666666667,0.0666666666666667,1.23333333333333,1795.066245125,1795.666584416,9,1795.127976416,1795.189186416,1795.674379333,1796.901097958,1,0.600339290999955
135,45,8,categorization,0,kitchen,SHINEd_sun_ajcbwwvdlsvjyzje.tif,96,0.0666666666666667,0.0666666666666667,1,1796.917351875,1798.062849458,13,1796.983727416,1797.04970925,1798.089496416,1799.082835208,0,1.14549758300018
135,46,8,categorization,0,bathroom,SHINEd_sun_apkxzenqapsujocq.tif,45,0.0666666666666667,0.0666666666666667,1.38333333333333,1799.087918125,1799.761685916,13,1799.149646083,1799.21065225,1799.779189,1801.155908,1,0.673767791000046
135,47,8,categorization,0,bathroom,SHINEd_sun_alotolagknyrgtsk.tif,35,0.0666666666666667,0.0666666666666667,1.3,1801.171921458,1801.813605625,9,1801.238443208,1801.303969458,1801.825951458,1803.11933325,0,0.641684166999994
135,48,8,categorization,0,bathroom,SHINEd_sun_ahqjwnzgolcaoidx.tif,29,0.0666666666666667,0.0666666666666667,0.833333333333333,1803.135536083,1804.1635455,13,1803.2020315,1803.267710666,1804.190889583,1805.017608458,1,1.02800941700002
135,49,8,categorization,0,bathroom,SHINEd_sun_anhioqovhscjqqwb.tif,38,0.0666666666666667,0.0666666666666667,0.95,1805.025362583,1805.738107958,13,1805.087112833,1805.148068333,1805.749833666,1806.693170791,1,0.71274537499994
135,50,8,categorization,0,bathroom,SHINEd_sun_ajlawzvmubibwbpy.tif,30,0.0666666666666667,0.0666666666666667,1.43333333333333,1806.698655,1807.441750875,9,1806.76040325,1806.82128875,1807.456333625,1808.883038291,0,0.743095875000108
135,1,9,categorization,0,bathroom,SHINEd_sun_abjtwfukuwddzted.tif,15,0.0666666666666667,0.0666666666666667,1.08333333333333,1854.638740333,1855.833569625,13,1854.7012025,1854.761303541,1855.846565125,1856.923274083,1,1.19482929200012
135,2,9,categorization,0,bathroom,SHINEd_sun_aleqenyvunhactkl.tif,32,0.0666666666666667,0.0666666666666667,0.8,1856.933745125,1857.635176375,13,1856.998507541,1857.064349333,1857.652335666,1858.445723916,1,0.701431249999814
135,3,9,categorization,0,bathroom,SHINEd_sun_aqrpegblszgcoujh.tif,48,0.0666666666666667,0.0666666666666667,0.833333333333333,1858.461234666,1859.426081083,13,1858.527540958,1858.593108333,1859.445459083,1860.272132666,1,0.96484641699999
135,4,9,categorization,0,kitchen,SHINEd_sun_auticobqsbwgoppi.tif,104,0.0666666666666667,0.0666666666666667,1.45,1860.277718333,1860.986181083,13,1860.339432458,1860.40073825,1861.003100291,1862.446489291,0,0.708462750000081
135,5,9,categorization,0,bathroom,SHINEd_sun_acegryoqftbzowsg.tif,17,0.0666666666666667,0.0666666666666667,1.3,1862.467036791,1863.243886041,9,1862.53348225,1862.598971125,1863.272030875,1864.565409375,0,0.776849249999941
135,6,9,categorization,0,kitchen,SHINEd_sun_auaiucuqpdausiva.tif,102,0.0666666666666667,0.0666666666666667,1.21666666666667,1864.583115833,1865.6757475,9,1864.649754375,1864.715351666,1865.686446375,1866.896505333,1,1.09263166699998
135,7,9,categorization,0,kitchen,SHINEd_sun_amjjdeyrggfqgmom.tif,100,0.0666666666666667,0.0666666666666667,0.733333333333333,1866.913724041,1867.754899416,9,1866.981454958,1867.045965541,1867.768496375,1868.495200291,1,0.841175374999921
135,8,9,categorization,0,bathroom,SHINEd_sun_afcoljnjfoxjtgja.tif,20,0.0666666666666667,0.0666666666666667,1.03333333333333,1868.510850625,1869.545872541,9,1868.577361208,1868.642977916,1869.562083833,1870.588804666,0,1.03502191600001
135,9,9,categorization,0,kitchen,SHINEd_sun_azmutvzbxypaceni.tif,110,0.0666666666666667,0.0666666666666667,1.1,1870.599538916,1872.474831958,13,1870.664487,1870.730503125,1872.487545791,1873.580936375,0,1.87529304200007
135,10,9,categorization,0,bathroom,SHINEd_sun_awnqiikzaispgmwo.tif,56,0.0666666666666667,0.0666666666666667,1.25,1873.589581083,1874.308849291,13,1873.654458916,1873.720385666,1874.326102,1875.569485666,1,0.719268207999903
135,11,9,categorization,0,bathroom,SHINEd_sun_aavhrsfjbserjtht.tif,13,0.0666666666666667,0.0666666666666667,1.4,1875.578987125,1876.387288291,13,1875.643724583,1875.709881625,1876.416275166,1877.809649625,1,0.808301166000092
135,12,9,categorization,0,bathroom,SHINEd_sun_axxbkopsgyouuebh.tif,58,0.0666666666666667,0.0666666666666667,1.43333333333333,1877.827507958,1878.508778166,13,1877.894032333,1877.959480416,1878.532825416,1879.959534666,1,0.681270207999887
135,13,9,categorization,0,bathroom,SHINEd_sun_aljolscmmzydegqp.tif,33,0.0666666666666667,0.0666666666666667,1.26666666666667,1879.977464791,1880.6022775,9,1880.043840958,1880.109961375,1880.615030375,1881.875067291,0,0.624812708999798
135,14,9,categorization,0,bathroom,SHINEd_sun_auzqhkafidnkrwmo.tif,54,0.0666666666666667,0.0666666666666667,0.916666666666667,1881.892170416,1883.347371916,9,1881.95881625,1882.024425041,1883.364673333,1884.274677541,0,1.45520149999993
135,15,9,categorization,0,bathroom,SHINEd_sun_apkruvsevgegsdwp.tif,44,0.0666666666666667,0.0666666666666667,1.05,1884.28139725,1885.041647875,13,1884.343188458,1884.404008208,1885.0560785,1886.099459416,1,0.760250625000026
135,16,9,categorization,0,bathroom,SHINEd_sun_ahqjwnzgolcaoidx.tif,29,0.0666666666666667,0.0666666666666667,1.53333333333333,1886.108547083,1886.941215541,13,1886.173190625,1886.239640625,1886.963127833,1888.489837375,1,0.832668457999944
135,17,9,categorization,0,kitchen,SHINEd_sun_aarfiyshqohlwkmo.tif,67,0.0666666666666667,0.0666666666666667,1.11666666666667,1888.506841208,1889.251402,9,1888.573003625,1888.63883975,1889.278728541,1890.388779125,1,0.744560792000129
135,18,9,categorization,0,bathroom,SHINEd_sun_ahcvzmoyaycdoftf.tif,27,0.0666666666666667,0.0666666666666667,1.05,1890.398742958,1891.143062666,13,1890.465693833,1890.530889541,1891.1708975,1892.214274708,1,0.744319708000148
135,19,9,categorization,0,kitchen,SHINEd_sun_ahywdevtimnqcsln.tif,94,0.0666666666666667,0.0666666666666667,1.66666666666667,1892.229943666,1893.241912708,13,1892.296286916,1892.362227666,1893.24808825,1894.908148083,0,1.01196904199992
135,20,9,categorization,0,bathroom,SHINEd_sun_aunuadmjocsddsrl.tif,52,0.0666666666666667,0.0666666666666667,1.98333333333333,1894.924570541,1895.683893083,9,1894.991642458,1895.056623833,1895.6945555,1897.671274291,0,0.759322541999836
135,21,9,categorization,0,kitchen,SHINEd_sun_aehawpgmrlhlvcow.tif,81,0.0666666666666667,0.0666666666666667,1.06666666666667,1897.682836,1898.309868416,9,1897.749373208,1897.81503125,1898.3383175,1899.398367041,1,0.62703241600002
135,22,9,categorization,0,kitchen,SHINEd_sun_acwjdupvyjsugpay.tif,76,0.0666666666666667,0.0666666666666667,1.31666666666667,1899.406822875,1900.56293625,9,1899.471436791,1899.537462291,1900.576424666,1901.886478291,1,1.1561133749999
135,23,9,categorization,0,kitchen,SHINEd_sun_abpwyqmlzafvklqo.tif,72,0.0666666666666667,0.0666666666666667,1.78333333333333,1901.904164041,1902.54245225,9,1901.971326,1902.036584,1902.559848,1904.3365635,1,0.638288208999938
135,24,9,categorization,0,kitchen,SHINEd_sun_agubuxuukhzyzpdp.tif,88,0.0666666666666667,0.0666666666666667,0.816666666666667,1904.353585791,1905.109831958,9,1904.420228083,1904.485789833,1905.124995958,1905.935002666,1,0.756246167000199
135,25,9,categorization,0,bathroom,SHINEd_sun_alotolagknyrgtsk.tif,35,0.0666666666666667,0.0666666666666667,0.933333333333333,1905.940421916,1906.977933166,9,1906.00206,1906.063120083,1906.981903833,1907.908574458,0,1.03751124999985
