sub_num,trial,block,task,is_practice,category,image,texture,duration,mask_dur,jitter,stim_time,time_of_resp,trial_response,mask_time,fix_time,jit_onset,trial_end,trial_accuracy,RT
135,1,1,categorization,0,bathroom,SHINEd_sun_agyqfjcfkdcydepw.tif,25,0.0666666666666667,0.0666666666666667,1.23333333333333,703.078830833,704.790486333,9,703.14134825,703.201571541,704.803972625,706.030683166,0,1.71165550000001
135,2,1,categorization,0,kitchen,SHINEd_sun_ajcbwwvdlsvjyzje.tif,96,0.0666666666666667,0.0666666666666667,0.783333333333333,706.046703916,707.395176541,13,706.113972375,706.179071708,707.421326,708.197997541,0,1.348472625
135,3,1,categorization,0,bathroom,SHINEd_sun_ahqjwnzgolcaoidx.tif,29,0.0666666666666667,0.0666666666666667,0.75,708.203841416,709.278357166,13,708.265680166,708.32645925,709.295103291,710.038440625,1,1.07451574999993
135,4,1,categorization,0,bathroom,SHINEd_sun_amzlamotzwfkwjco.tif,37,0.0666666666666667,0.0666666666666667,1.23333333333333,710.043256583,711.175251375,9,710.105058,710.165907541,711.184471,712.411187041,0,1.131994792
135,5,1,categorization,0,bathroom,SHINEd_sun_apkxzenqapsujocq.tif,45,0.0666666666666667,0.0666666666666667,1.13333333333333,712.427790708,713.779057125,13,712.494394833,712.560060541,713.802338166,714.929057416,1,1.35126641700003
135,6,1,categorization,0,bathroom,SHINEd_sun_awnqiikzaispgmwo.tif,56,0.0666666666666667,0.0666666666666667,0.95,714.938777041,716.112644041,13,715.003912666,715.071131208,716.126785166,717.070122041,1,1.17386699999997
135,7,1,categorization,0,bathroom,SHINEd_sun_aclfzgynxzxlbepz.tif,19,0.0666666666666667,0.0666666666666667,0.733333333333333,717.075074541,718.622851625,9,717.136852958,717.197558916,718.633606166,719.36027825,0,1.5477770839999
135,8,1,categorization,0,bathroom,SHINEd_sun_axldvoqbuvuggfmq.tif,57,0.0666666666666667,0.0666666666666667,1.31666666666667,719.364875875,720.190465333,13,719.426605875,719.487433958,720.20657475,721.51660875,1,0.825589457999968
135,9,1,categorization,0,kitchen,SHINEd_sun_ajkqhtgcbgpcwrwn.tif,97,0.0666666666666667,0.0666666666666667,0.8,721.534030958,723.31934875,13,721.597990333,721.66292025,723.3320935,724.125431875,0,1.785317792
135,10,1,categorization,0,bathroom,SHINEd_sun_agguqiubmwhqqunb.tif,22,0.0666666666666667,0.0666666666666667,0.716666666666667,724.130328125,726.278334791,9,724.191999875,724.25300425,726.288732583,726.998736041,0,2.14800666600001
135,11,1,categorization,0,bathroom,SHINEd_sun_apeeialkgkuxddgh.tif,42,0.0666666666666667,0.0666666666666667,0.916666666666667,727.004047583,727.758999208,13,727.06571275,727.126695708,727.778533,728.688537333,1,0.75495162499999
135,12,1,categorization,0,kitchen,SHINEd_sun_aggjlwcdjsjcaemh.tif,86,0.0666666666666667,0.0666666666666667,0.95,728.6938855,729.990978708,9,728.755581208,728.816686541,730.002112875,730.945452208,1,1.29709320799998
135,13,1,categorization,0,bathroom,SHINEd_sun_acduarbnmmoglmiv.tif,16,0.0666666666666667,0.0666666666666667,0.833333333333333,730.949877375,732.038819125,9,731.011576375,731.07247675,732.058230916,732.884902875,0,1.08894175
135,14,1,categorization,0,bathroom,SHINEd_sun_aleqenyvunhactkl.tif,32,0.0666666666666667,0.0666666666666667,0.75,732.890136166,734.502671458,9,732.951916708,733.01274525,734.515001583,735.258342041,0,1.61253529199996
135,15,1,categorization,0,bathroom,SHINEd_sun_agrwbmhcpmfuwmsg.tif,24,0.0666666666666667,0.0666666666666667,1.53333333333333,735.263604916,736.454941291,9,735.325462958,735.386157208,736.472111666,737.998812708,0,1.19133637499999
135,16,1,categorization,0,kitchen,SHINEd_sun_acwjdupvyjsugpay.tif,76,0.0666666666666667,0.0666666666666667,1.05,738.015935666,739.226652666,13,738.0825475,738.147975541,739.253040333,740.2964225,0,1.21071699999993
135,17,1,categorization,0,bathroom,SHINEd_sun_aavhrsfjbserjtht.tif,13,0.0666666666666667,0.0666666666666667,0.9,740.305474833,741.407569791,13,740.370122041,740.436503375,741.429361625,742.322705583,1,1.10209495800007
135,18,1,categorization,0,kitchen,SHINEd_sun_aexklacwqwezaorf.tif,84,0.0666666666666667,0.0666666666666667,1.18333333333333,742.328338458,744.078712583,9,742.390041291,742.450961083,744.086293791,745.263002541,1,1.75037412500001
135,19,1,categorization,0,kitchen,SHINEd_sun_aqeaevwwwjoqhzvl.tif,101,0.0666666666666667,0.0666666666666667,0.9,745.272985875,746.747386791,9,745.339533666,745.405176833,746.761868583,747.655206083,1,1.47440091600004
135,20,1,categorization,0,bathroom,SHINEd_sun_akiytfaagpdsphgz.tif,31,0.0666666666666667,0.0666666666666667,1.66666666666667,747.660069333,748.598902708,13,747.721763583,747.782683291,748.61787475,750.277932291,1,0.938833374999945
135,21,1,categorization,0,kitchen,SHINEd_sun_aenotlpyftoioydp.tif,82,0.0666666666666667,0.0666666666666667,1.13333333333333,750.294639291,751.155396916,9,750.361573541,750.426849041,751.183961166,752.310677125,1,0.860757625000019
135,22,1,categorization,0,kitchen,SHINEd_sun_avszsnwsbuqfgzbn.tif,105,0.0666666666666667,0.0666666666666667,1.3,752.321043791,753.240097833,9,752.386472291,752.453217166,753.259930166,754.553301875,1,0.919054042000084
135,23,1,categorization,0,kitchen,SHINEd_sun_axyyrmzcupyhlivc.tif,107,0.0666666666666667,0.0666666666666667,1.93333333333333,754.572156166,755.402171833,9,754.639038125,754.704601333,755.428047125,757.354754333,1,0.830015666999998
135,24,1,categorization,0,kitchen,SHINEd_sun_aaxxjlsuzvqlgylf.tif,68,0.0666666666666667,0.0666666666666667,1,757.37335925,759.19817,13,757.440390791,757.5057535,759.2079675,760.201308708,0,1.82481074999998
135,25,1,categorization,0,bathroom,SHINEd_sun_axyrejkiiaqiurjk.tif,59,0.0666666666666667,0.0666666666666667,0.883333333333333,760.206656833,760.927062833,9,760.268336416,760.329291875,760.931623,761.80829575,0,0.720406000000025
135,26,1,categorization,0,bathroom,SHINEd_sun_aljolscmmzydegqp.tif,33,0.0666666666666667,0.0666666666666667,1.95,761.812992875,763.334412166,9,761.874594125,761.935669833,763.33800775,765.281387708,0,1.52141929100003
135,27,1,categorization,0,kitchen,SHINEd_sun_akcjzhbbjlbogpdi.tif,99,0.0666666666666667,0.0666666666666667,1.25,765.297677458,766.1926685,9,765.365816083,765.430109791,766.220494958,767.463873458,1,0.894991042000015
135,28,1,categorization,0,bathroom,SHINEd_sun_aapitsgbtktqubfy.tif,12,0.0666666666666667,0.0666666666666667,1.95,767.482340375,768.6020025,9,767.548291125,767.613258541,768.618851291,770.562225666,0,1.11966212499999
135,29,1,categorization,0,bathroom,SHINEd_sun_ausgutylgojavyoq.tif,53,0.0666666666666667,0.0666666666666667,1.91666666666667,770.577773666,771.280309791,13,770.646150208,770.710547625,771.299213875,773.209268458,1,0.702536125000051
135,30,1,categorization,0,bathroom,SHINEd_sun_apmqjbnwghzuhhzh.tif,46,0.0666666666666667,0.0666666666666667,1.41666666666667,773.227658083,774.275996041,13,773.294672875,773.360461125,774.300886708,775.710926,1,1.04833795799993
135,31,1,categorization,0,bathroom,SHINEd_sun_aggnnqpdorgxpvce.tif,21,0.0666666666666667,0.0666666666666667,0.716666666666667,775.729026083,776.695044875,9,775.796081958,775.861342833,776.718378541,777.428388083,0,0.966018792
135,32,1,categorization,0,bathroom,SHINEd_sun_aghyqhbptboemmoq.tif,23,0.0666666666666667,0.0666666666666667,1.28333333333333,777.434462291,778.342417083,13,777.496241541,777.557178958,778.359010625,779.635731416,1,0.907954791999941
135,33,1,categorization,0,kitchen,SHINEd_sun_aixorpehvfykdynp.tif,95,0.0666666666666667,0.0666666666666667,0.9,779.645690416,780.959577541,9,779.712106583,779.777913958,780.9852505,781.878587625,1,1.31388712500006
135,34,1,categorization,0,bathroom,SHINEd_sun_auzqhkafidnkrwmo.tif,54,0.0666666666666667,0.0666666666666667,0.8,781.883494,783.3983325,9,781.945153583,782.0062165,783.408277166,784.201614583,0,1.5148385
135,35,1,categorization,0,kitchen,SHINEd_sun_aarfiyshqohlwkmo.tif,67,0.0666666666666667,0.0666666666666667,1.01666666666667,784.206249041,785.486350458,9,784.268122791,784.328855666,785.497985833,786.508039041,1,1.28010141699997
135,36,1,categorization,0,kitchen,SHINEd_sun_amjjdeyrggfqgmom.tif,100,0.0666666666666667,0.0666666666666667,0.85,786.515419791,787.37532825,9,786.579897666,786.645802833,787.402850125,788.246227333,1,0.859908459000053
135,37,1,categorization,0,kitchen,SHINEd_sun_ahywdevtimnqcsln.tif,94,0.0666666666666667,0.0666666666666667,1.51666666666667,788.262057958,789.022130875,13,788.328729625,788.394164791,789.029742291,790.539782583,0,0.760072917000002
135,38,1,categorization,0,kitchen,SHINEd_labelme_kxvouciolcpqplr.tif,62,0.0666666666666667,0.0666666666666667,1.83333333333333,790.55503425,791.231400166,13,790.621986666,790.687454708,791.260510458,793.087230291,0,0.676365916000009
135,39,1,categorization,0,kitchen,SHINEd_sun_abdxkyyxwfskuaqb.tif,70,0.0666666666666667,0.0666666666666667,0.716666666666667,793.105286791,794.312087333,9,793.172060625,793.237629125,794.327055125,795.037060208,1,1.206800542
135,40,1,categorization,0,kitchen,SHINEd_sun_admlmbcdswaszruo.tif,79,0.0666666666666667,0.0666666666666667,0.9,795.041670208,795.806888416,9,795.103338541,795.164230791,795.816038333,796.709377875,1,0.765218207999965
135,41,1,categorization,0,bathroom,SHINEd_sun_acegryoqftbzowsg.tif,17,0.0666666666666667,0.0666666666666667,0.916666666666667,796.714102208,797.414620291,13,796.775784833,796.836680583,797.421927833,798.331932916,1,0.70051808300002
135,42,1,categorization,0,kitchen,SHINEd_sun_aeqdocilnnpuvuhx.tif,83,0.0666666666666667,0.0666666666666667,0.816666666666667,798.336903166,799.030323041,13,798.398692375,798.459550125,799.045220166,799.855225208,0,0.693419875000018
135,43,1,categorization,0,bathroom,SHINEd_sun_apjevzvycyhuqghb.tif,43,0.0666666666666667,0.0666666666666667,1.88333333333333,799.860133541,800.862773041,13,799.922215583,799.982798416,800.868049958,802.744766041,1,1.00263949999999
135,44,1,categorization,0,kitchen,SHINEd_sun_aamedkxepzlwuxes.tif,65,0.0666666666666667,0.0666666666666667,0.9,802.761305833,804.278726583,9,802.8280015,802.893614375,804.295810041,805.189149458,1,1.51742074999993
135,45,1,categorization,0,kitchen,SHINEd_sun_abpwyqmlzafvklqo.tif,72,0.0666666666666667,0.0666666666666667,1,805.194679791,805.998106,9,805.256343458,805.3172145,806.002408125,806.995747125,1,0.803426209000008
135,46,1,categorization,0,kitchen,SHINEd_sun_auticobqsbwgoppi.tif,104,0.0666666666666667,0.0666666666666667,0.733333333333333,807.000347125,807.942073875,13,807.062116166,807.122965416,807.958174208,808.684845125,0,0.941726750000043
135,47,1,categorization,0,bathroom,SHINEd_sun_aqrpegblszgcoujh.tif,48,0.0666666666666667,0.0666666666666667,0.883333333333333,808.689515791,809.958587916,13,808.751308416,808.811993041,809.964249916,810.840922375,1,1.26907212500009
135,48,1,categorization,0,bathroom,SHINEd_sun_alotolagknyrgtsk.tif,35,0.0666666666666667,0.0666666666666667,1.73333333333333,810.846064625,811.566664833,13,810.907695,810.968603083,811.570201125,813.296927083,1,0.720600207999951
135,49,1,categorization,0,bathroom,SHINEd_sun_avhrdrntsqrjzccq.tif,55,0.0666666666666667,0.0666666666666667,1.91666666666667,813.314069916,815.166033583,13,813.380368416,813.445975083,815.181574958,817.091619083,1,1.85196366699995
135,50,1,categorization,0,kitchen,SHINEd_sun_acxkpeoqbwcxfvip.tif,77,0.0666666666666667,0.0666666666666667,1.35,817.10872275,817.857011541,9,817.17551825,817.240935708,817.879754833,819.223139333,1,0.74828879100005
