sub_num,trial,block,task,is_practice,category,image,texture,duration,mask_dur,jitter,stim_time,time_of_resp,trial_response,mask_time,fix_time,jit_onset,trial_end,trial_accuracy,RT
125,1,15,categorization,0,kitchen,SHINEd_sun_agorklincwxrdtga.tif,87,0.0666666666666667,0.0666666666666667,1.3,7972.228726625,7973.217349459,9,7972.291266584,7972.3514435,7973.2367525,7974.530122542,1,0.988622834000125
125,2,15,categorization,0,bathroom,SHINEd_sun_auzqhkafidnkrwmo.tif,54,0.0666666666666667,0.0666666666666667,1.25,7974.547961,7975.219075459,13,7974.616009959,7974.68064975,7975.236782209,7976.4801655,1,0.671114458999909
125,3,15,categorization,0,kitchen,SHINEd_labelme_brsyyvweiuaazfr.tif,61,0.0666666666666667,0.0666666666666667,0.816666666666667,7976.497537292,7977.082468667,9,7976.564208542,7976.630081292,7977.101587875,7977.911627292,1,0.584931375000451
125,4,15,categorization,0,bathroom,SHINEd_sun_axldvoqbuvuggfmq.tif,57,0.0666666666666667,0.0666666666666667,0.85,7977.927398042,7978.64892875,9,7977.99403,7978.060016709,7978.662324167,7979.505660875,0,0.721530707999591
125,5,15,categorization,0,bathroom,SHINEd_sun_aunuadmjocsddsrl.tif,52,0.0666666666666667,0.0666666666666667,1.06666666666667,7979.511013209,7980.25690975,13,7979.572605292,7979.633672625,7980.2691315,7981.329178417,1,0.745896540999638
125,6,15,categorization,0,kitchen,SHINEd_sun_afuyedyxivkhecmu.tif,85,0.0666666666666667,0.0666666666666667,0.733333333333333,7981.339291834,7982.026118209,9,7981.404255459,7981.4704045,7982.042970042,7982.769678042,1,0.686826375000237
125,7,15,categorization,0,kitchen,SHINEd_sun_ahspylgoovwmwvgk.tif,93,0.0666666666666667,0.0666666666666667,1.83333333333333,7982.78594475,7983.792377792,9,7982.852453667,7982.917919917,7983.804077209,7985.630786709,1,1.00643304199912
125,8,15,categorization,0,kitchen,SHINEd_sun_aenotlpyftoioydp.tif,82,0.0666666666666667,0.0666666666666667,0.733333333333333,7985.647869334,7987.057270959,9,7985.714878709,7985.780841209,7987.067004542,7987.793675834,1,1.4094016250001
125,9,15,categorization,0,bathroom,SHINEd_sun_aclfzgynxzxlbepz.tif,19,0.0666666666666667,0.0666666666666667,1.56666666666667,7987.799117417,7988.617290875,13,7987.860860209,7987.921889542,7988.624098959,7990.184133584,1,0.818173458000274
125,10,15,categorization,0,kitchen,SHINEd_sun_aymvwlarqodbwuoc.tif,108,0.0666666666666667,0.0666666666666667,1.93333333333333,7990.201519584,7990.973880625,9,7990.268150084,7990.333880292,7990.989768125,7992.916472042,1,0.772361040999385
125,11,15,categorization,0,kitchen,SHINEd_sun_amjjdeyrggfqgmom.tif,100,0.0666666666666667,0.0666666666666667,1.48333333333333,7992.933995292,7993.995426459,9,7993.000587834,7993.066675167,7994.02325825,7995.499959292,1,1.06143116699968
125,12,15,categorization,0,bathroom,SHINEd_sun_ausgutylgojavyoq.tif,53,0.0666666666666667,0.0666666666666667,0.916666666666667,7995.516922375,7996.274022709,13,7995.583718417,7995.649276334,7996.287768042,7997.197773459,1,0.757100333999915
125,13,15,categorization,0,kitchen,SHINEd_sun_acfmftudsenhrfhy.tif,74,0.0666666666666667,0.0666666666666667,1.5,7997.205693292,7999.104958625,9,7997.267479209,7997.32840425,7999.113980209,8000.607350667,1,1.89926533299968
125,14,15,categorization,0,bathroom,SHINEd_sun_awnqiikzaispgmwo.tif,56,0.0666666666666667,0.0666666666666667,1.1,8000.624643667,8001.292166375,13,8000.69128975,8000.757496,8001.312259167,8002.405627875,1,0.667522708000433
125,15,15,categorization,0,kitchen,SHINEd_sun_ahljzhgcdpomplvg.tif,91,0.0666666666666667,0.0666666666666667,0.983333333333333,8002.416276792,8003.329341125,9,8002.480968292,8002.548506459,8003.353833709,8004.330544917,1,0.913064332999966
125,16,15,categorization,0,bathroom,SHINEd_sun_acduarbnmmoglmiv.tif,16,0.0666666666666667,0.0666666666666667,1.7,8004.343982792,8005.344226334,13,8004.406406,8004.466732125,8005.351943375,8007.045306209,1,1.00024354200013
125,17,15,categorization,0,kitchen,SHINEd_sun_aeqdocilnnpuvuhx.tif,83,0.0666666666666667,0.0666666666666667,1.58333333333333,8007.063412375,8008.392328875,9,8007.128446375,8007.196054792,8008.418313417,8009.995023709,1,1.32891650000056
125,18,15,categorization,0,kitchen,SHINEd_sun_aypmqwcualkenuoe.tif,109,0.0666666666666667,0.0666666666666667,0.933333333333333,8010.014137959,8010.749810792,9,8010.0810485,8010.146862417,8010.769867292,8011.696539542,1,0.735672832999626
125,19,15,categorization,0,bathroom,SHINEd_sun_alkosphxlxwjwgjd.tif,34,0.0666666666666667,0.0666666666666667,0.916666666666667,8011.702413167,8012.441154792,13,8011.764223084,8011.825151834,8012.460649,8013.370652709,1,0.73874162500033
125,20,15,categorization,0,bathroom,SHINEd_sun_apjevzvycyhuqghb.tif,43,0.0666666666666667,0.0666666666666667,1.08333333333333,8013.375485709,8014.065083959,9,8013.437133917,8013.498273292,8014.08350275,8015.160205542,0,0.689598250000017
125,21,15,categorization,0,kitchen,SHINEd_sun_aggjlwcdjsjcaemh.tif,86,0.0666666666666667,0.0666666666666667,0.783333333333333,8015.169320584,8015.908661417,9,8015.233892875,8015.297956709,8015.938008709,8016.714712334,1,0.739340832999915
125,22,15,categorization,0,bathroom,SHINEd_sun_acegryoqftbzowsg.tif,17,0.0666666666666667,0.0666666666666667,1.01666666666667,8016.73132775,8017.681154334,9,8016.798137917,8016.863456959,8017.698928917,8018.708974792,0,0.94982658400022
125,23,15,categorization,0,kitchen,SHINEd_sun_aunzlwrbjumxhwdj.tif,103,0.0666666666666667,0.0666666666666667,1.15,8018.723216459,8019.498609917,9,8018.787974542,8018.854316209,8019.527167167,8020.670534667,1,0.775393458000508
125,24,15,categorization,0,bathroom,SHINEd_sun_aggnnqpdorgxpvce.tif,21,0.0666666666666667,0.0666666666666667,1.38333333333333,8020.688279292,8021.480238209,9,8020.75119325,8020.811236167,8021.496432042,8022.873140334,0,0.791958917000557
125,25,15,categorization,0,kitchen,SHINEd_sun_acwjdupvyjsugpay.tif,76,0.0666666666666667,0.0666666666666667,0.75,8022.890444167,8023.705067875,9,8022.957003792,8023.022993292,8023.729095209,8024.472466292,1,0.814623707999999
125,26,15,categorization,0,bathroom,SHINEd_sun_ahaulkltgpkeeemi.tif,26,0.0666666666666667,0.0666666666666667,0.816666666666667,8024.490706709,8025.576640375,13,8024.553293125,8024.613436292,8025.582147959,8026.392152834,1,1.08593366600053
125,27,15,categorization,0,bathroom,SHINEd_sun_axyrejkiiaqiurjk.tif,59,0.0666666666666667,0.0666666666666667,1.01666666666667,8026.397748084,8027.13690675,9,8026.459445042,8026.520513084,8027.155718875,8028.165754042,0,0.739158665999639
125,28,15,categorization,0,bathroom,SHINEd_labelme_sfxiulhjbhlyiyt.tif,11,0.0666666666666667,0.0666666666666667,1.11666666666667,8028.178126334,8029.076443917,13,8028.242664625,8028.309455792,8029.097602167,8030.207640917,1,0.89831758299988
125,29,15,categorization,0,kitchen,SHINEd_sun_awcpdzzznmweyyhv.tif,106,0.0666666666666667,0.0666666666666667,1.9,8030.216701042,8030.993089459,9,8030.281629959,8030.349146667,8031.022374375,8032.915737584,1,0.776388416999907
125,30,15,categorization,0,bathroom,SHINEd_sun_apmqjbnwghzuhhzh.tif,46,0.0666666666666667,0.0666666666666667,1.75,8032.933057167,8033.667891542,13,8032.9995825,8033.065601584,8033.688933834,8035.432314792,1,0.734834374999991
125,31,15,categorization,0,kitchen,SHINEd_sun_aixorpehvfykdynp.tif,95,0.0666666666666667,0.0666666666666667,1.31666666666667,8035.450058,8036.124241792,9,8035.514943459,8035.58269825,8036.138236792,8037.448267167,1,0.674183791999894
125,32,15,categorization,0,kitchen,SHINEd_sun_agzzivivdpnawacl.tif,89,0.0666666666666667,0.0666666666666667,1.58333333333333,8037.465854334,8038.433570709,13,8037.532433417,8037.597653167,8038.454061792,8040.030775084,0,0.967716375000236
125,33,15,categorization,0,kitchen,SHINEd_sun_aegoxogugdkwpmpj.tif,80,0.0666666666666667,0.0666666666666667,0.716666666666667,8040.049215834,8040.845430584,9,8040.115897625,8040.181433709,8040.871419959,8041.581427792,1,0.796214749999308
125,34,15,categorization,0,kitchen,SHINEd_sun_ahdycvpopffkzzsu.tif,90,0.0666666666666667,0.0666666666666667,1.05,8041.588752709,8043.384136625,9,8041.650439709,8041.711449792,8043.397241917,8044.440607375,1,1.79538391599999
125,35,15,categorization,0,bathroom,SHINEd_sun_apkxzenqapsujocq.tif,45,0.0666666666666667,0.0666666666666667,1.81666666666667,8044.450888042,8045.533659917,13,8044.515782125,8044.582275875,8045.555997209,8047.366025292,1,1.08277187499971
125,36,15,categorization,0,bathroom,SHINEd_sun_aapitsgbtktqubfy.tif,12,0.0666666666666667,0.0666666666666667,1.25,8047.37670675,8048.237397917,13,8047.443595417,8047.509193875,8048.26532175,8049.50870275,1,0.860691166999459
125,37,15,categorization,0,kitchen,SHINEd_labelme_kxvouciolcpqplr.tif,62,0.0666666666666667,0.0666666666666667,0.733333333333333,8049.526071667,8050.130498709,9,8049.592551334,8049.658659375,8050.147967959,8050.874688125,1,0.60442704199977
125,38,15,categorization,0,kitchen,SHINEd_sun_aapllqyqlykszopd.tif,66,0.0666666666666667,0.0666666666666667,1.31666666666667,8050.890161375,8051.575963917,9,8050.956904667,8051.022834792,8051.5921685,8052.902207042,1,0.685802541999692
125,39,15,categorization,0,bathroom,SHINEd_sun_aspsyogrekjtfozg.tif,50,0.0666666666666667,0.0666666666666667,1,8052.919614334,8053.613884042,13,8052.985765292,8053.052304792,8053.643310375,8054.636656917,1,0.69426970800032
125,40,15,categorization,0,bathroom,SHINEd_sun_aofnryafpsjimzsb.tif,40,0.0666666666666667,0.0666666666666667,1.16666666666667,8054.643574292,8056.024822292,13,8054.705397917,8054.766272875,8056.0358,8057.195834459,1,1.38124799999969
125,41,15,categorization,0,kitchen,SHINEd_sun_aadbddgrdsjugojn.tif,64,0.0666666666666667,0.0666666666666667,0.916666666666667,8057.206149542,8057.885969125,9,8057.272601459,8057.334212542,8057.907562084,8058.817611209,1,0.679819582999698
125,42,15,categorization,0,kitchen,SHINEd_sun_aexklacwqwezaorf.tif,84,0.0666666666666667,0.0666666666666667,0.8,8058.834814709,8059.560003875,9,8058.901458584,8058.967178417,8059.569192084,8060.362529167,1,0.725189165999836
125,43,15,categorization,0,kitchen,SHINEd_sun_abpwyqmlzafvklqo.tif,72,0.0666666666666667,0.0666666666666667,1,8060.367454334,8061.176782459,9,8060.429373334,8060.49008975,8061.191854,8062.185193959,1,0.809328124999411
125,44,15,categorization,0,bathroom,SHINEd_sun_asfwthctfqerjvxr.tif,49,0.0666666666666667,0.0666666666666667,0.766666666666667,8062.19071175,8063.024407709,9,8062.252428917,8062.313343375,8063.032154459,8063.792158667,0,0.83369595899967
125,45,15,categorization,0,bathroom,SHINEd_sun_aoybiabnpadelefl.tif,41,0.0666666666666667,0.0666666666666667,1.03333333333333,8063.798057,8064.504585834,9,8063.859687917,8063.920846084,8064.522620417,8065.549324084,0,0.706528833999982
125,46,15,categorization,0,bathroom,SHINEd_sun_abapwbhyhkfixyex.tif,14,0.0666666666666667,0.0666666666666667,1.81666666666667,8065.5607185,8066.460405625,9,8065.625294792,8065.692148875,8066.482788,8068.292840334,0,0.899687125000128
125,47,15,categorization,0,kitchen,SHINEd_sun_aaxxjlsuzvqlgylf.tif,68,0.0666666666666667,0.0666666666666667,1.21666666666667,8068.31084975,8069.02029275,9,8068.377822042,8068.443943625,8069.050948834,8070.260983,1,0.709443000000647
125,48,15,categorization,0,bathroom,SHINEd_sun_akiytfaagpdsphgz.tif,31,0.0666666666666667,0.0666666666666667,0.866666666666667,8070.278427,8070.946123542,9,8070.345695667,8070.411260917,8070.968132834,8071.828166292,0,0.667696542000158
125,49,15,categorization,0,bathroom,SHINEd_sun_acgyywnybuveqsro.tif,18,0.0666666666666667,0.0666666666666667,1.46666666666667,8071.845347417,8072.600308,13,8071.912449917,8071.978207125,8072.613898834,8074.073943375,1,0.754960582999956
125,50,15,categorization,0,kitchen,SHINEd_sun_ahpczsiumwwocjkv.tif,92,0.0666666666666667,0.0666666666666667,1.46666666666667,8074.090695709,8074.856910417,9,8074.157522375,8074.223352709,8074.88002425,8076.3400615,1,0.766214708000007
