sub_num,trial,block,task,is_practice,category,image,texture,duration,mask_dur,jitter,stim_time,time_of_resp,trial_response,mask_time,fix_time,jit_onset,trial_end,trial_accuracy,RT
125,1,0,categorization,1,bathroom,SHINEd_bathroom_practice2.tif,112,0.0666666666666667,0.0666666666666667,1.21666666666667,6169.800289209,6171.744333584,13,6169.86622125,6169.926112834,6171.763824792,6172.974011459,1,1.94404437499998
125,2,0,categorization,1,kitchen,SHINEd_kitchen_practice3.tif,118,0.0666666666666667,0.0666666666666667,1.36666666666667,6173.024627084,6175.104433459,9,6173.094956709,6173.1555665,6175.125046167,6176.485206542,1,2.07980637499986
125,3,0,categorization,1,bathroom,SHINEd_bathroom_practice4.tif,114,0.0666666666666667,0.0666666666666667,1.85,6176.5375705,6177.624971042,13,6176.611594792,6176.67211925,6177.654083667,6179.497595459,1,1.08740054200007
125,4,0,categorization,1,kitchen,SHINEd_kitchen_practice2.tif,117,0.0666666666666667,0.0666666666666667,1.55,6179.522742792,6180.594797167,9,6179.592501125,6179.65568475,6180.632030417,6182.175535334,1,1.07205437500033
125,5,0,categorization,1,bathroom,SHINEd_bathroom_practice3.tif,113,0.0666666666666667,0.0666666666666667,1.48333333333333,6182.2055405,6184.072154084,13,6182.278426,6182.33994925,6184.093450959,6185.570934417,1,1.86661358400033
125,6,0,categorization,1,kitchen,SHINEd_kitchen_practice1.tif,116,0.0666666666666667,0.0666666666666667,1.15,6185.600632209,6187.256365417,9,6185.668473917,6185.734283875,6187.2711705,6188.414678667,1,1.65573320800013
125,7,0,categorization,1,kitchen,SHINEd_kitchen_practice5.tif,120,0.0666666666666667,0.0666666666666667,0.733333333333333,6188.424856459,6189.70192475,9,6188.491968042,6188.558517709,6189.733756584,6190.46042825,1,1.27706829100043
125,8,0,categorization,1,kitchen,SHINEd_kitchen_practice4.tif,119,0.0666666666666667,0.0666666666666667,1.6,6190.465963959,6191.736434209,9,6190.527817375,6190.588756667,6191.740664334,6193.334018917,1,1.27047025000047
125,9,0,categorization,1,bathroom,SHINEd_bathroom_practice1.tif,111,0.0666666666666667,0.0666666666666667,0.716666666666667,6193.34837775,6194.320617917,13,6193.415208209,6193.481771209,6194.337813542,6195.047817042,1,0.972240167000564
125,10,0,categorization,1,bathroom,SHINEd_bathroom_practice5.tif,115,0.0666666666666667,0.0666666666666667,1.21666666666667,6195.052972875,6196.360196084,9,6195.1147945,6195.175735459,6196.378246167,6197.588276667,0,1.30722320899986
125,1,1,categorization,0,bathroom,SHINEd_sun_apkxzenqapsujocq.tif,45,0.0666666666666667,0.0666666666666667,1.23333333333333,6256.849307542,6258.583467875,13,6256.911694167,6256.972310959,6258.591585334,6259.818290959,1,1.73416033299964
125,2,1,categorization,0,bathroom,SHINEd_sun_apeeialkgkuxddgh.tif,42,0.0666666666666667,0.0666666666666667,0.783333333333333,6259.835361875,6260.987721709,9,6259.902208167,6259.968335709,6261.008242584,6261.78491425,0,1.15235983399998
125,3,1,categorization,0,bathroom,SHINEd_sun_aofnryafpsjimzsb.tif,40,0.0666666666666667,0.0666666666666667,0.75,6261.789596625,6262.951709667,9,6261.851457459,6261.912340209,6262.964642917,6263.70797975,0,1.16211304199987
125,4,1,categorization,0,kitchen,SHINEd_sun_aehawpgmrlhlvcow.tif,81,0.0666666666666667,0.0666666666666667,1.23333333333333,6263.713760292,6265.152182292,9,6263.7755965,6263.836550125,6265.17193325,6266.398644625,1,1.43842200000017
125,5,1,categorization,0,bathroom,SHINEd_sun_aapitsgbtktqubfy.tif,12,0.0666666666666667,0.0666666666666667,1.13333333333333,6266.41670825,6267.5698805,9,6266.483420709,6266.549450417,6267.589139209,6268.715860459,0,1.15317225000035
125,6,1,categorization,0,bathroom,SHINEd_sun_agrwbmhcpmfuwmsg.tif,24,0.0666666666666667,0.0666666666666667,0.95,6268.72445925,6269.76981575,9,6268.790088,6268.85703875,6269.796997584,6270.740339584,0,1.0453564999998
125,7,1,categorization,0,kitchen,SHINEd_labelme_kxvouciolcpqplr.tif,62,0.0666666666666667,0.0666666666666667,0.733333333333333,6270.746727917,6272.06344975,9,6270.808386959,6270.869507542,6272.071957292,6272.798628167,1,1.31672183299997
125,8,1,categorization,0,bathroom,SHINEd_sun_atstyziqcmkahyxk.tif,51,0.0666666666666667,0.0666666666666667,1.31666666666667,6272.803319,6273.791743417,13,6272.86511025,6272.926064584,6273.811601459,6275.121642834,1,0.988424417000715
125,9,1,categorization,0,bathroom,SHINEd_sun_apmqjbnwghzuhhzh.tif,46,0.0666666666666667,0.0666666666666667,0.8,6275.132147834,6276.220108209,13,6275.198877542,6275.264995334,6276.237844959,6277.03118375,1,1.08796037499997
125,10,1,categorization,0,kitchen,SHINEd_sun_acwjdupvyjsugpay.tif,76,0.0666666666666667,0.0666666666666667,0.716666666666667,6277.036126042,6278.087998459,9,6277.098083959,6277.15892375,6278.09446225,6278.804466417,1,1.05187241699969
125,11,1,categorization,0,bathroom,SHINEd_sun_abjtwfukuwddzted.tif,15,0.0666666666666667,0.0666666666666667,0.916666666666667,6278.809334709,6280.735673417,9,6278.871081042,6278.932153125,6280.751083834,6281.661088542,0,1.926338708
125,12,1,categorization,0,bathroom,SHINEd_sun_abapwbhyhkfixyex.tif,14,0.0666666666666667,0.0666666666666667,0.95,6281.666054542,6282.942965792,9,6281.72797675,6281.788759209,6282.958105959,6283.901443542,0,1.27691125000001
125,13,1,categorization,0,bathroom,SHINEd_sun_agguqiubmwhqqunb.tif,22,0.0666666666666667,0.0666666666666667,0.833333333333333,6283.906162125,6285.135634042,9,6283.967781042,6284.028844375,6285.147577125,6285.974248917,0,1.2294719169995
125,14,1,categorization,0,bathroom,SHINEd_sun_axxbkopsgyouuebh.tif,58,0.0666666666666667,0.0666666666666667,0.75,6285.979396792,6287.039379584,13,6286.041099375,6286.102195459,6287.054267375,6287.797604375,1,1.05998279199957
125,15,1,categorization,0,bathroom,SHINEd_sun_ahqjwnzgolcaoidx.tif,29,0.0666666666666667,0.0666666666666667,1.53333333333333,6287.802387584,6289.359607542,13,6287.864198792,6287.925093584,6289.377470334,6290.904181667,1,1.55721995800013
125,16,1,categorization,0,bathroom,SHINEd_sun_azqyogdvyhahyram.tif,60,0.0666666666666667,0.0666666666666667,1.05,6290.922010084,6292.496660084,9,6290.9902785,6291.054658417,6292.507656334,6293.551025584,0,1.57464999999956
125,17,1,categorization,0,kitchen,SHINEd_sun_abdenxonkemggwsq.tif,69,0.0666666666666667,0.0666666666666667,0.9,6293.561159584,6294.592809125,9,6293.626290209,6293.691951084,6294.614189125,6295.507565292,1,1.03164954099975
125,18,1,categorization,0,kitchen,SHINEd_sun_aapllqyqlykszopd.tif,66,0.0666666666666667,0.0666666666666667,1.18333333333333,6295.523316375,6296.959629542,9,6295.590018292,6295.64769425,6296.966903125,6298.143603625,1,1.43631316699975
125,19,1,categorization,0,bathroom,SHINEd_sun_apjevzvycyhuqghb.tif,43,0.0666666666666667,0.0666666666666667,0.9,6298.153653167,6299.405647459,9,6298.22059175,6298.286368667,6299.4289805,6300.322317875,0,1.25199429199984
125,20,1,categorization,0,kitchen,SHINEd_sun_aarfiyshqohlwkmo.tif,67,0.0666666666666667,0.0666666666666667,1.66666666666667,6300.327076834,6302.207652917,9,6300.388899084,6300.449841667,6302.219056209,6303.87911325,1,1.88057608300005
125,21,1,categorization,0,kitchen,SHINEd_sun_aaxxjlsuzvqlgylf.tif,68,0.0666666666666667,0.0666666666666667,1.13333333333333,6303.9004805,6305.583477375,9,6303.968465709,6304.033226375,6305.60289075,6306.72960075,1,1.68299687499984
125,22,1,categorization,0,kitchen,SHINEd_sun_aqeaevwwwjoqhzvl.tif,101,0.0666666666666667,0.0666666666666667,1.3,6306.73864175,6307.664708667,9,6306.803515625,6306.871279667,6307.694623584,6308.987995917,1,0.926066916999844
125,23,1,categorization,0,kitchen,SHINEd_sun_agorklincwxrdtga.tif,87,0.0666666666666667,0.0666666666666667,1.93333333333333,6309.006929834,6310.0249155,9,6309.073546459,6309.138406625,6310.044790125,6311.971510084,1,1.01798566599973
125,24,1,categorization,0,kitchen,SHINEd_labelme_brsyyvweiuaazfr.tif,61,0.0666666666666667,0.0666666666666667,1,6311.990219042,6313.255582125,9,6312.057178042,6312.122993459,6313.275807959,6314.269146167,1,1.26536308300001
125,25,1,categorization,0,kitchen,SHINEd_sun_ajcbwwvdlsvjyzje.tif,96,0.0666666666666667,0.0666666666666667,0.883333333333333,6314.274375667,6315.191194709,9,6314.336145209,6314.397199125,6315.199168334,6316.075840834,1,0.916819042000498
125,26,1,categorization,0,bathroom,SHINEd_sun_ausgutylgojavyoq.tif,53,0.0666666666666667,0.0666666666666667,1.95,6316.080704709,6317.167062334,13,6316.142458875,6316.20347175,6317.172005292,6319.115390417,1,1.08635762499944
125,27,1,categorization,0,kitchen,SHINEd_sun_abpwyqmlzafvklqo.tif,72,0.0666666666666667,0.0666666666666667,1.25,6319.125862875,6320.147810792,9,6319.192642042,6319.258339084,6320.164330459,6321.407720417,1,1.02194791700003
125,28,1,categorization,0,bathroom,SHINEd_sun_ajlawzvmubibwbpy.tif,30,0.0666666666666667,0.0666666666666667,1.95,6321.4245205,6322.55656225,9,6321.491540084,6321.557285667,6322.58057875,6324.523956,0,1.1320417500001
125,29,1,categorization,0,bathroom,SHINEd_sun_axldvoqbuvuggfmq.tif,57,0.0666666666666667,0.0666666666666667,1.91666666666667,6324.540798209,6325.513316875,9,6324.607732834,6324.674088584,6325.530306709,6327.440337375,0,0.972518665999814
125,30,1,categorization,0,bathroom,SHINEd_sun_alkosphxlxwjwgjd.tif,34,0.0666666666666667,0.0666666666666667,1.41666666666667,6327.459234625,6328.91158275,13,6327.527492042,6327.592197,6328.928439667,6330.3384915,1,1.45234812499984
125,31,1,categorization,0,kitchen,SHINEd_sun_aexklacwqwezaorf.tif,84,0.0666666666666667,0.0666666666666667,0.716666666666667,6330.357893084,6331.675880542,9,6330.424389875,6330.490579042,6331.701550542,6332.411555042,1,1.31798745800006
125,32,1,categorization,0,bathroom,SHINEd_sun_aggnnqpdorgxpvce.tif,21,0.0666666666666667,0.0666666666666667,1.28333333333333,6332.416247167,6333.511622167,13,6332.47807375,6332.539070792,6333.524370667,6334.801077667,1,1.09537499999988
125,33,1,categorization,0,kitchen,SHINEd_sun_auticobqsbwgoppi.tif,104,0.0666666666666667,0.0666666666666667,0.9,6334.821890542,6335.633596334,9,6334.889598375,6334.95454125,6335.660948042,6336.55432625,1,0.811705791999884
125,34,1,categorization,0,kitchen,SHINEd_sun_aeqdocilnnpuvuhx.tif,83,0.0666666666666667,0.0666666666666667,0.8,6336.571043292,6337.447747042,9,6336.636053334,6336.694901209,6337.463295209,6338.256634667,1,0.876703750000161
125,35,1,categorization,0,bathroom,SHINEd_sun_anhioqovhscjqqwb.tif,38,0.0666666666666667,0.0666666666666667,1.01666666666667,6338.263432584,6339.303068334,13,6338.325302209,6338.386199709,6339.321076417,6340.331114625,1,1.03963575000034
125,36,1,categorization,0,kitchen,SHINEd_sun_abdxkyyxwfskuaqb.tif,70,0.0666666666666667,0.0666666666666667,0.85,6340.342169917,6341.434978209,9,6340.407150459,6340.473052667,6341.4629775,6342.306363459,1,1.09280829199997
125,37,1,categorization,0,kitchen,SHINEd_sun_aunzlwrbjumxhwdj.tif,103,0.0666666666666667,0.0666666666666667,1.51666666666667,6342.321643334,6343.88707,9,6342.388431334,6342.446720584,6343.899044875,6345.409092375,1,1.56542666599944
125,38,1,categorization,0,bathroom,SHINEd_sun_ambriybtogmepttm.tif,36,0.0666666666666667,0.0666666666666667,1.83333333333333,6345.423790209,6346.358716125,9,6345.49083775,6345.556579375,6346.379546042,6348.206248875,0,0.934925915999884
125,39,1,categorization,0,bathroom,SHINEd_sun_anryaplzeujmzfkd.tif,39,0.0666666666666667,0.0666666666666667,0.716666666666667,6348.222239834,6349.081088667,9,6348.288714125,6348.355100417,6349.092542084,6349.80254725,0,0.858848832999684
125,40,1,categorization,0,bathroom,SHINEd_sun_acgyywnybuveqsro.tif,18,0.0666666666666667,0.0666666666666667,0.9,6349.807511625,6351.230782,9,6349.869104209,6349.930293042,6351.249283542,6352.142621709,0,1.42327037499945
125,41,1,categorization,0,kitchen,SHINEd_sun_ahdycvpopffkzzsu.tif,90,0.0666666666666667,0.0666666666666667,0.916666666666667,6352.14759525,6353.343360917,9,6352.209323959,6352.270388125,6353.355913875,6354.265918709,1,1.19576566699925
125,42,1,categorization,0,kitchen,SHINEd_sun_akcjzhbbjlbogpdi.tif,99,0.0666666666666667,0.0666666666666667,0.816666666666667,6354.270669084,6355.134844334,13,6354.332483459,6354.393380042,6355.145455959,6355.955460792,0,0.864175250000699
125,43,1,categorization,0,bathroom,SHINEd_sun_alotolagknyrgtsk.tif,35,0.0666666666666667,0.0666666666666667,1.88333333333333,6355.960207542,6357.599537375,9,6356.022009,6356.08295625,6357.61880875,6359.495525875,0,1.63932983300037
125,44,1,categorization,0,kitchen,SHINEd_sun_aadbddgrdsjugojn.tif,64,0.0666666666666667,0.0666666666666667,0.9,6359.517233125,6360.493046084,9,6359.583815667,6359.650176917,6360.522648417,6361.41598575,1,0.975812958999995
125,45,1,categorization,0,bathroom,SHINEd_sun_aspsyogrekjtfozg.tif,50,0.0666666666666667,0.0666666666666667,1,6361.420986167,6362.567616875,13,6361.482876542,6361.543848209,6362.579689375,6363.573028459,1,1.14663070799998
125,46,1,categorization,0,bathroom,SHINEd_sun_axyrejkiiaqiurjk.tif,59,0.0666666666666667,0.0666666666666667,0.733333333333333,6363.577664042,6364.550863167,9,6363.639404375,6363.700406459,6364.568819917,6365.295490917,0,0.973199125000065
125,47,1,categorization,0,bathroom,SHINEd_sun_afcoljnjfoxjtgja.tif,20,0.0666666666666667,0.0666666666666667,0.883333333333333,6365.300330625,6367.191512334,9,6365.362051417,6365.423153,6367.20870425,6368.085375084,0,1.89118170900019
125,48,1,categorization,0,kitchen,SHINEd_sun_ahljzhgcdpomplvg.tif,91,0.0666666666666667,0.0666666666666667,1.73333333333333,6368.09047225,6369.295002542,9,6368.15219775,6368.213240709,6369.298524959,6371.02523475,1,1.20453029199962
125,49,1,categorization,0,kitchen,SHINEd_sun_agubuxuukhzyzpdp.tif,88,0.0666666666666667,0.0666666666666667,1.91666666666667,6371.042598167,6372.463378417,9,6371.107443125,6371.1751315,6372.47777975,6374.387816917,1,1.42078025000046
125,50,1,categorization,0,bathroom,SHINEd_sun_acegryoqftbzowsg.tif,17,0.0666666666666667,0.0666666666666667,1.35,6374.405853625,6375.248605,9,6374.472727584,6374.538568292,6375.278552042,6376.621920334,0,0.842751374999352
125,1,2,categorization,0,bathroom,SHINEd_labelme_sfxiulhjbhlyiyt.tif,11,0.0666666666666667,0.0666666666666667,0.95,6383.066231792,6385.087104209,9,6383.128076459,6383.188939709,6385.0909475,6386.034285125,0,2.02087241700065
125,2,2,categorization,0,kitchen,SHINEd_sun_ahywdevtimnqcsln.tif,94,0.0666666666666667,0.0666666666666667,0.75,6386.039075167,6387.582555375,9,6386.100983959,6386.161795,6387.597508917,6388.340846917,1,1.54348020799989
125,3,2,categorization,0,bathroom,SHINEd_sun_aunuadmjocsddsrl.tif,52,0.0666666666666667,0.0666666666666667,1.68333333333333,6388.346505875,6389.214773584,13,6388.408257375,6388.469236167,6389.221023375,6390.89772775,1,0.868267709000065
125,4,2,categorization,0,bathroom,SHINEd_sun_ahaulkltgpkeeemi.tif,26,0.0666666666666667,0.0666666666666667,0.816666666666667,6390.915126209,6392.211244709,13,6390.981541584,6391.048040042,6392.241133167,6393.051137584,1,1.29611850000038
125,5,2,categorization,0,kitchen,SHINEd_sun_aenotlpyftoioydp.tif,82,0.0666666666666667,0.0666666666666667,0.916666666666667,6393.0560085,6394.615125334,9,6393.117945125,6393.178832667,6394.631196167,6395.541200625,1,1.55911683400063
125,6,2,categorization,0,bathroom,SHINEd_sun_ahcvzmoyaycdoftf.tif,27,0.0666666666666667,0.0666666666666667,1.21666666666667,6395.545989709,6397.030702959,9,6395.607810959,6395.668642167,6397.037696,6398.247746459,0,1.48471324999991
125,7,2,categorization,0,bathroom,SHINEd_sun_asfwthctfqerjvxr.tif,49,0.0666666666666667,0.0666666666666667,0.9,6398.265912084,6399.367566667,9,6398.332655,6398.398672667,6399.3873225,6400.280662209,0,1.1016545829998
125,8,2,categorization,0,kitchen,SHINEd_sun_aegoxogugdkwpmpj.tif,80,0.0666666666666667,0.0666666666666667,1.65,6400.285376709,6401.919517209,9,6400.347064667,6400.408299917,6401.927481334,6403.570866334,1,1.63414050000029
125,9,2,categorization,0,bathroom,SHINEd_sun_aclfzgynxzxlbepz.tif,19,0.0666666666666667,0.0666666666666667,1.15,6403.588499417,6405.319233459,9,6403.656702709,6403.721638875,6405.324087209,6406.467468917,0,1.73073404200022
125,10,2,categorization,0,kitchen,SHINEd_sun_awcpdzzznmweyyhv.tif,106,0.0666666666666667,0.0666666666666667,1.13333333333333,6406.477094584,6407.4647875,9,6406.543728584,6406.610278084,6407.483020459,6408.609719167,1,0.987692916000015
125,11,2,categorization,0,kitchen,SHINEd_sun_aypmqwcualkenuoe.tif,109,0.0666666666666667,0.0666666666666667,1.76666666666667,6408.62067925,6410.051793084,13,6408.687338292,6408.753372625,6410.079992292,6411.8400235,0,1.43111383399992
125,12,2,categorization,0,kitchen,SHINEd_sun_afuyedyxivkhecmu.tif,85,0.0666666666666667,0.0666666666666667,1.8,6411.858039792,6412.873060375,9,6411.924772834,6411.990743167,6412.897616959,6414.690998792,1,1.01502058299957
125,13,2,categorization,0,kitchen,SHINEd_sun_azmutvzbxypaceni.tif,110,0.0666666666666667,0.0666666666666667,0.9,6414.709575959,6415.55055775,9,6414.776500667,6414.842395167,6415.565237667,6416.458575584,1,0.840981790999649
125,14,2,categorization,0,kitchen,SHINEd_sun_amjjdeyrggfqgmom.tif,100,0.0666666666666667,0.0666666666666667,0.716666666666667,6416.4638565,6417.806639625,9,6416.525484917,6416.586645125,6417.822221834,6418.532226292,1,1.3427831250001
125,15,2,categorization,0,bathroom,SHINEd_sun_apynckhmoftszqoq.tif,47,0.0666666666666667,0.0666666666666667,1.36666666666667,6418.536992209,6419.47868575,13,6418.598938209,6418.659790667,6419.495160667,6420.85521425,1,0.94169354099995
125,16,2,categorization,0,bathroom,SHINEd_sun_aavhrsfjbserjtht.tif,13,0.0666666666666667,0.0666666666666667,0.916666666666667,6420.87338525,6421.817894084,9,6420.9400395,6421.00616975,6421.846227792,6422.756233084,0,0.944508833999862
125,17,2,categorization,0,kitchen,SHINEd_sun_acgtpgfybqjmzeyw.tif,75,0.0666666666666667,0.0666666666666667,0.716666666666667,6422.7633005,6423.958963417,9,6422.824985167,6422.886017417,6423.971655542,6424.681659334,1,1.19566291699994
125,18,2,categorization,0,bathroom,SHINEd_sun_aoybiabnpadelefl.tif,41,0.0666666666666667,0.0666666666666667,0.766666666666667,6424.686291959,6426.406661959,9,6424.748002,6424.809050292,6426.411760042,6427.171763959,0,1.72037
125,19,2,categorization,0,kitchen,SHINEd_sun_aixorpehvfykdynp.tif,95,0.0666666666666667,0.0666666666666667,1.06666666666667,6427.176634417,6428.446857292,9,6427.238379125,6427.299449167,6428.451698334,6429.511737625,1,1.27022287499949
125,20,2,categorization,0,bathroom,SHINEd_sun_awnqiikzaispgmwo.tif,56,0.0666666666666667,0.0666666666666667,0.8,6429.521613375,6430.277045417,13,6429.586162917,6429.652868167,6430.2919005,6431.085265,1,0.755432042000393
125,21,2,categorization,0,bathroom,SHINEd_sun_auzqhkafidnkrwmo.tif,54,0.0666666666666667,0.0666666666666667,0.866666666666667,6431.097751,6432.07032675,13,6431.164731375,6431.230577125,6432.083136542,6432.943142375,1,0.972575750000033
125,22,2,categorization,0,kitchen,SHINEd_sun_aymvwlarqodbwuoc.tif,108,0.0666666666666667,0.0666666666666667,1.48333333333333,6432.94801,6433.82284575,9,6433.009891625,6433.070711459,6433.839393875,6435.316094167,1,0.874835749999875
125,23,2,categorization,0,kitchen,SHINEd_sun_avszsnwsbuqfgzbn.tif,105,0.0666666666666667,0.0666666666666667,1.1,6435.326329042,6436.641235292,9,6435.392854709,6435.458943375,6436.667773417,6437.761150584,1,1.31490624999969
125,24,2,categorization,0,kitchen,SHINEd_sun_aamedkxepzlwuxes.tif,65,0.0666666666666667,0.0666666666666667,0.783333333333333,6437.771347292,6438.889271667,9,6437.836810209,6437.904521042,6438.911671834,6439.688371959,1,1.11792437499935
125,25,2,categorization,0,kitchen,SHINEd_sun_auaiucuqpdausiva.tif,102,0.0666666666666667,0.0666666666666667,0.866666666666667,6439.703607667,6440.911379084,9,6439.77065925,6439.828053875,6440.930511667,6441.790516292,1,1.207771417
125,26,2,categorization,0,kitchen,SHINEd_sun_ahpczsiumwwocjkv.tif,92,0.0666666666666667,0.0666666666666667,1.83333333333333,6441.796108292,6443.166974625,9,6441.857779,6441.918840917,6443.171316,6444.998014709,1,1.37086633299987
125,27,2,categorization,0,kitchen,SHINEd_sun_ahspylgoovwmwvgk.tif,93,0.0666666666666667,0.0666666666666667,0.7,6445.01694875,6446.718419375,9,6445.082297042,6445.149335292,6446.735742459,6447.429079917,1,1.70147062500018
125,28,2,categorization,0,kitchen,SHINEd_sun_adgqasybjyktddhj.tif,78,0.0666666666666667,0.0666666666666667,1.33333333333333,6447.433790917,6448.566972625,9,6447.495519542,6447.556570292,6448.575072084,6449.901771875,1,1.13318170799994
125,29,2,categorization,0,bathroom,SHINEd_sun_acduarbnmmoglmiv.tif,16,0.0666666666666667,0.0666666666666667,1.33333333333333,6449.920859334,6451.251706292,13,6449.987530459,6450.053797709,6451.27714,6452.603839917,1,1.33084695799971
125,30,2,categorization,0,kitchen,SHINEd_sun_admlmbcdswaszruo.tif,79,0.0666666666666667,0.0666666666666667,1.38333333333333,6452.621957292,6453.512102459,9,6452.690486917,6452.7547455,6453.527259834,6454.903982584,1,0.890145166999901
125,31,2,categorization,0,bathroom,SHINEd_sun_akiytfaagpdsphgz.tif,31,0.0666666666666667,0.0666666666666667,1.25,6454.923208792,6456.466675292,9,6454.990334334,6455.056135584,6456.480407959,6457.723780042,0,1.54346650000025
125,32,2,categorization,0,kitchen,SHINEd_sun_ajkqhtgcbgpcwrwn.tif,97,0.0666666666666667,0.0666666666666667,1.55,6457.741595667,6458.726246,9,6457.810190709,6457.874928792,6458.747830584,6460.291209667,1,0.98465033299999
125,33,2,categorization,0,kitchen,SHINEd_sun_aggjlwcdjsjcaemh.tif,86,0.0666666666666667,0.0666666666666667,1.61666666666667,6460.308381209,6461.600391709,9,6460.376091209,6460.441376584,6461.614400292,6463.22443475,1,1.29201050000029
125,34,2,categorization,0,kitchen,SHINEd_sun_agzzivivdpnawacl.tif,89,0.0666666666666667,0.0666666666666667,1.33333333333333,6463.242159584,6464.234487375,9,6463.307462667,6463.372169917,6464.262487125,6465.589195167,1,0.992327791000207
125,35,2,categorization,0,kitchen,SHINEd_sun_axyyrmzcupyhlivc.tif,107,0.0666666666666667,0.0666666666666667,0.833333333333333,6465.606191834,6466.648469209,9,6465.672835084,6465.739103709,6466.679221167,6467.505891709,1,1.04227737499968
125,36,2,categorization,0,bathroom,SHINEd_sun_agyqfjcfkdcydepw.tif,25,0.0666666666666667,0.0666666666666667,1.45,6467.5128815,6469.502701709,9,6467.574762875,6467.635748417,6469.521314792,6470.964692,0,1.98982020899984
125,37,2,categorization,0,bathroom,SHINEd_sun_ahijqszoswveeyji.tif,28,0.0666666666666667,0.0666666666666667,0.933333333333333,6470.983012584,6472.170445417,13,6471.049945334,6471.114474667,6472.187119375,6473.113790625,1,1.18743283300046
125,38,2,categorization,0,kitchen,SHINEd_sun_acxkpeoqbwcxfvip.tif,77,0.0666666666666667,0.0666666666666667,1.65,6473.118455375,6473.998482209,9,6473.1803175,6473.24115225,6474.0099235,6475.653291167,1,0.880026834000091
125,39,2,categorization,0,kitchen,SHINEd_sun_akchetnepxlcxhsu.tif,98,0.0666666666666667,0.0666666666666667,1.23333333333333,6475.671933959,6476.834284667,13,6475.738706834,6475.804840959,6476.861376959,6478.08808025,0,1.1623507080003
125,40,2,categorization,0,bathroom,SHINEd_sun_amzlamotzwfkwjco.tif,37,0.0666666666666667,0.0666666666666667,0.766666666666667,6478.106287792,6479.559146625,9,6478.173414417,6478.239325959,6479.581417917,6480.341423292,0,1.45285883299948
125,41,2,categorization,0,bathroom,SHINEd_sun_apkruvsevgegsdwp.tif,44,0.0666666666666667,0.0666666666666667,1.78333333333333,6480.346430917,6481.678430625,9,6480.408270917,6480.469275959,6481.6882925,6483.464996875,0,1.33199970799978
125,42,2,categorization,0,bathroom,SHINEd_sun_aghyqhbptboemmoq.tif,23,0.0666666666666667,0.0666666666666667,1.11666666666667,6483.483427792,6484.545858834,13,6483.550170084,6483.616494417,6484.573376792,6485.683428209,1,1.06243104199984
125,43,2,categorization,0,kitchen,SHINEd_sun_acfmftudsenhrfhy.tif,74,0.0666666666666667,0.0666666666666667,1.85,6485.692207292,6487.488074709,9,6485.757116042,6485.826058959,6487.518673042,6489.362044584,1,1.79586741700041
125,44,2,categorization,0,kitchen,SHINEd_labelme_rykdqxenmhulbdn.tif,63,0.0666666666666667,0.0666666666666667,0.733333333333333,6489.38199425,6490.862103084,9,6489.448979417,6489.514999417,6490.867449,6491.594120709,1,1.48010883400002
125,45,2,categorization,0,bathroom,SHINEd_sun_aljolscmmzydegqp.tif,33,0.0666666666666667,0.0666666666666667,0.783333333333333,6491.598791209,6493.254603334,9,6491.660649834,6491.721611,6493.273808417,6494.050480292,0,1.65581212500001
125,46,2,categorization,0,bathroom,SHINEd_sun_aleqenyvunhactkl.tif,32,0.0666666666666667,0.0666666666666667,1.5,6494.055166209,6494.782466167,13,6494.116929042,6494.177931875,6494.796783167,6496.2901525,1,0.727299958000003
125,47,2,categorization,0,kitchen,SHINEd_sun_abrcnpqqhmjwekyf.tif,73,0.0666666666666667,0.0666666666666667,0.733333333333333,6496.304735042,6497.450258542,9,6496.371671334,6496.437865709,6497.476418959,6498.203091084,1,1.1455234999994
125,48,2,categorization,0,kitchen,SHINEd_sun_abftihopvusyfakt.tif,71,0.0666666666666667,0.0666666666666667,1.1,6498.207897459,6499.374204709,9,6498.269709042,6498.330718375,6499.382811292,6500.476188125,1,1.16630724999959
125,49,2,categorization,0,bathroom,SHINEd_sun_avhrdrntsqrjzccq.tif,55,0.0666666666666667,0.0666666666666667,1.6,6500.484824167,6502.1130975,9,6500.549751417,6500.617645417,6502.143151375,6503.736533792,0,1.62827333299992
125,50,2,categorization,0,bathroom,SHINEd_sun_aqrpegblszgcoujh.tif,48,0.0666666666666667,0.0666666666666667,1.06666666666667,6503.7517535,6505.035353,9,6503.818920584,6503.884652542,6505.059591792,6506.119633125,0,1.28359950000049
125,1,3,categorization,0,bathroom,SHINEd_sun_abapwbhyhkfixyex.tif,14,0.0666666666666667,0.0666666666666667,0.85,6513.817773167,6514.806174625,9,6513.880184625,6513.940537875,6514.825855042,6515.669193792,0,0.988401457999316
125,2,3,categorization,0,kitchen,SHINEd_sun_auaiucuqpdausiva.tif,102,0.0666666666666667,0.0666666666666667,1.65,6515.67413975,6516.670240625,9,6515.736252417,6515.796931459,6516.6826805,6518.326067125,1,0.996100874999684
125,3,3,categorization,0,bathroom,SHINEd_sun_aghyqhbptboemmoq.tif,23,0.0666666666666667,0.0666666666666667,0.783333333333333,6518.344928292,6519.168527084,9,6518.412098625,6518.478110417,6519.184468625,6519.961139042,0,0.823598791999757
125,4,3,categorization,0,bathroom,SHINEd_sun_ausgutylgojavyoq.tif,53,0.0666666666666667,0.0666666666666667,0.933333333333333,6519.966260209,6521.718450334,9,6520.028059,6520.088985334,6521.724771667,6522.65144325,0,1.7521901250002
125,5,3,categorization,0,bathroom,SHINEd_sun_ambriybtogmepttm.tif,36,0.0666666666666667,0.0666666666666667,0.866666666666667,6522.656376625,6523.894994459,9,6522.718164917,6522.779069834,6523.914300542,6524.774305292,0,1.23861783400025
125,6,3,categorization,0,bathroom,SHINEd_sun_axyrejkiiaqiurjk.tif,59,0.0666666666666667,0.0666666666666667,1.11666666666667,6524.778621209,6525.97495825,9,6524.840530292,6524.901313792,6525.986597709,6527.096638667,0,1.19633704099942
125,7,3,categorization,0,bathroom,SHINEd_sun_acgyywnybuveqsro.tif,18,0.0666666666666667,0.0666666666666667,0.966666666666667,6527.1062995,6528.34985025,9,6527.171324709,6527.23884475,6528.382198542,6529.342203084,0,1.24355074999949
125,8,3,categorization,0,bathroom,SHINEd_sun_aapitsgbtktqubfy.tif,12,0.0666666666666667,0.0666666666666667,1.78333333333333,6529.347187167,6530.78298175,9,6529.409144542,6529.470008709,6530.789159917,6532.565860459,0,1.43579458299973
125,9,3,categorization,0,kitchen,SHINEd_sun_aeqdocilnnpuvuhx.tif,83,0.0666666666666667,0.0666666666666667,1.55,6532.583164417,6534.030511084,9,6532.650057375,6532.716295792,6534.03570375,6535.579092709,1,1.44734666699969
125,10,3,categorization,0,bathroom,SHINEd_sun_acegryoqftbzowsg.tif,17,0.0666666666666667,0.0666666666666667,1.41666666666667,6535.598787167,6536.578177292,9,6535.665744,6535.731526125,6536.604666584,6538.01471,0,0.979390124999554
125,11,3,categorization,0,bathroom,SHINEd_sun_ahcvzmoyaycdoftf.tif,27,0.0666666666666667,0.0666666666666667,0.8,6538.030046334,6539.033728917,13,6538.096731375,6538.163011292,6539.052465417,6539.845802875,1,1.00368258300023
125,12,3,categorization,0,kitchen,SHINEd_sun_aypmqwcualkenuoe.tif,109,0.0666666666666667,0.0666666666666667,1.28333333333333,6539.850730042,6540.943007084,9,6539.912519417,6539.973519542,6540.958633542,6542.235349334,1,1.09227704200021
125,13,3,categorization,0,kitchen,SHINEd_sun_aixorpehvfykdynp.tif,95,0.0666666666666667,0.0666666666666667,1.66666666666667,6542.25121225,6543.251627375,9,6542.319890875,6542.384160792,6543.274788167,6544.934837334,1,1.00041512499956
125,14,3,categorization,0,bathroom,SHINEd_sun_aoybiabnpadelefl.tif,41,0.0666666666666667,0.0666666666666667,1.81666666666667,6544.953856292,6546.311307584,9,6545.020806209,6545.084983334,6546.321437917,6548.131484667,0,1.35745129200041
125,15,3,categorization,0,bathroom,SHINEd_sun_alotolagknyrgtsk.tif,35,0.0666666666666667,0.0666666666666667,1.35,6548.151237292,6550.558474084,9,6548.218599375,6548.284847417,6550.570953667,6551.914334542,0,2.40723679200073
125,16,3,categorization,0,kitchen,SHINEd_sun_avszsnwsbuqfgzbn.tif,105,0.0666666666666667,0.0666666666666667,0.916666666666667,6551.930547959,6552.768356417,9,6551.997576917,6552.063576334,6552.786748375,6553.696753959,1,0.837808457999927
125,17,3,categorization,0,bathroom,SHINEd_sun_awnqiikzaispgmwo.tif,56,0.0666666666666667,0.0666666666666667,0.916666666666667,6553.7019455,6554.526151542,13,6553.763679917,6553.824708125,6554.543293709,6555.453298625,1,0.824206041999787
125,18,3,categorization,0,kitchen,SHINEd_sun_aegoxogugdkwpmpj.tif,80,0.0666666666666667,0.0666666666666667,1.31666666666667,6555.458218042,6556.278249375,9,6555.519928084,6555.58104525,6556.283129584,6557.593161209,1,0.820031332999861
125,19,3,categorization,0,kitchen,SHINEd_sun_ajcbwwvdlsvjyzje.tif,96,0.0666666666666667,0.0666666666666667,1.45,6557.611084334,6558.5881755,13,6557.677287417,6557.744019417,6558.617513125,6560.060898375,0,0.977091165999809
125,20,3,categorization,0,bathroom,SHINEd_sun_aggnnqpdorgxpvce.tif,21,0.0666666666666667,0.0666666666666667,0.95,6560.080786625,6561.258266959,9,6560.147469375,6560.21421525,6561.268283459,6562.211623042,0,1.17748033400039
125,21,3,categorization,0,kitchen,SHINEd_sun_aarfiyshqohlwkmo.tif,67,0.0666666666666667,0.0666666666666667,1.38333333333333,6562.216416084,6563.302391209,9,6562.278221042,6562.339376292,6563.30775325,6564.684458209,1,1.085975125
125,22,3,categorization,0,bathroom,SHINEd_sun_auzqhkafidnkrwmo.tif,54,0.0666666666666667,0.0666666666666667,1.16666666666667,6564.701692209,6566.079607709,13,6564.768408792,6564.835050084,6566.111982292,6567.272032834,1,1.3779155000002
125,23,3,categorization,0,bathroom,SHINEd_labelme_sfxiulhjbhlyiyt.tif,11,0.0666666666666667,0.0666666666666667,1.61666666666667,6567.281796542,6568.209926542,13,6567.347013125,6567.414742125,6568.237882125,6569.847930917,1,0.928130000000237
125,24,3,categorization,0,kitchen,SHINEd_sun_admlmbcdswaszruo.tif,79,0.0666666666666667,0.0666666666666667,1.38333333333333,6569.866932834,6570.689315834,9,6569.933660875,6570.000225,6570.706274125,6572.082988584,1,0.822382999999718
125,25,3,categorization,0,kitchen,SHINEd_sun_ahywdevtimnqcsln.tif,94,0.0666666666666667,0.0666666666666667,1.78333333333333,6572.10018175,6574.3986285,9,6572.167268,6572.23353375,6574.402738209,6576.179454834,1,2.29844675000004
125,26,3,categorization,0,kitchen,SHINEd_sun_aaxxjlsuzvqlgylf.tif,68,0.0666666666666667,0.0666666666666667,0.783333333333333,6576.199010834,6577.958533375,9,6576.2658755,6576.332158709,6577.9682175,6578.744890375,1,1.75952254100048
125,27,3,categorization,0,bathroom,SHINEd_sun_asfwthctfqerjvxr.tif,49,0.0666666666666667,0.0666666666666667,1.65,6578.749863459,6581.126561667,13,6578.81156075,6578.872532459,6581.14169375,6582.785073375,1,2.37669820799965
125,28,3,categorization,0,bathroom,SHINEd_sun_apkxzenqapsujocq.tif,45,0.0666666666666667,0.0666666666666667,1.86666666666667,6582.802623792,6583.673294542,13,6582.871054209,6582.935507834,6583.691783125,6585.551827875,1,0.87067074999959
125,29,3,categorization,0,kitchen,SHINEd_sun_ahpczsiumwwocjkv.tif,92,0.0666666666666667,0.0666666666666667,1.23333333333333,6585.570378459,6586.291102209,9,6585.637547667,6585.703295959,6586.309725584,6587.5364325,1,0.720723750000616
125,30,3,categorization,0,kitchen,SHINEd_labelme_kxvouciolcpqplr.tif,62,0.0666666666666667,0.0666666666666667,0.7,6587.55348225,6588.540433959,9,6587.620557084,6587.687057792,6588.560270292,6589.253644917,1,0.986951709000095
125,31,3,categorization,0,kitchen,SHINEd_sun_aexklacwqwezaorf.tif,84,0.0666666666666667,0.0666666666666667,0.716666666666667,6589.270684167,6590.510029834,9,6589.334885334,6589.393939667,6590.529184,6591.239188709,1,1.23934566700063
125,32,3,categorization,0,bathroom,SHINEd_sun_azqyogdvyhahyram.tif,60,0.0666666666666667,0.0666666666666667,1.05,6591.244775,6592.278744209,13,6591.306506875,6591.367598959,6592.28627825,6593.329660625,1,1.03396920900013
125,33,3,categorization,0,bathroom,SHINEd_sun_axxbkopsgyouuebh.tif,58,0.0666666666666667,0.0666666666666667,1.1,6593.339301875,6594.170899542,13,6593.403655875,6593.470166709,6594.193801334,6595.287170917,1,0.831597667000096
125,34,3,categorization,0,bathroom,SHINEd_sun_acduarbnmmoglmiv.tif,16,0.0666666666666667,0.0666666666666667,1.13333333333333,6595.299706584,6596.197919917,13,6595.367004667,6595.424599209,6596.209860292,6597.336565917,1,0.898213333000058
125,35,3,categorization,0,bathroom,SHINEd_sun_apjevzvycyhuqghb.tif,43,0.0666666666666667,0.0666666666666667,1.38333333333333,6597.345861625,6598.257245834,9,6597.41103325,6597.4788915,6598.2854515,6599.662164584,0,0.911384209000062
125,36,3,categorization,0,bathroom,SHINEd_sun_apkruvsevgegsdwp.tif,44,0.0666666666666667,0.0666666666666667,1.5,6599.680753417,6600.843738084,13,6599.746986375,6599.813494834,6600.869536625,6602.362900459,1,1.16298466699936
125,37,3,categorization,0,bathroom,SHINEd_sun_ahijqszoswveeyji.tif,28,0.0666666666666667,0.0666666666666667,1.61666666666667,6602.38236475,6603.193626292,13,6602.448801667,6602.515423959,6603.222187459,6604.832240292,1,0.811261541999556
125,38,3,categorization,0,bathroom,SHINEd_sun_apmqjbnwghzuhhzh.tif,46,0.0666666666666667,0.0666666666666667,0.983333333333333,6604.85010925,6605.608142875,13,6604.917151584,6604.983368,6605.622746542,6606.599417209,1,0.75803362500028
125,39,3,categorization,0,kitchen,SHINEd_sun_akchetnepxlcxhsu.tif,98,0.0666666666666667,0.0666666666666667,1.3,6606.604565584,6607.80630325,13,6606.666219125,6606.727345125,6607.812626,6609.105996292,0,1.20173766600055
125,40,3,categorization,0,kitchen,SHINEd_sun_azmutvzbxypaceni.tif,110,0.0666666666666667,0.0666666666666667,1.03333333333333,6609.115504,6609.890171417,9,6609.18357125,6609.248487084,6609.902872709,6610.929576292,1,0.774667416999364
125,41,3,categorization,0,bathroom,SHINEd_sun_anhioqovhscjqqwb.tif,38,0.0666666666666667,0.0666666666666667,1.45,6610.939285334,6611.718475625,13,6611.003843667,6611.0723435,6611.746086167,6613.189470542,1,0.779190291000305
125,42,3,categorization,0,kitchen,SHINEd_labelme_rykdqxenmhulbdn.tif,63,0.0666666666666667,0.0666666666666667,1.23333333333333,6613.207162292,6614.344703292,9,6613.273890584,6613.336427042,6614.359360917,6615.586074209,1,1.13754100000006
125,43,3,categorization,0,bathroom,SHINEd_sun_avhrdrntsqrjzccq.tif,55,0.0666666666666667,0.0666666666666667,1.26666666666667,6615.603520417,6617.103439042,9,6615.670385292,6615.736744709,6617.127784959,6618.387825417,0,1.49991862499974
125,44,3,categorization,0,bathroom,SHINEd_sun_apeeialkgkuxddgh.tif,42,0.0666666666666667,0.0666666666666667,1.03333333333333,6618.405256,6619.200304834,13,6618.473279959,6618.538403667,6619.228295375,6620.25500825,1,0.795048834000227
125,45,3,categorization,0,kitchen,SHINEd_sun_adgqasybjyktddhj.tif,78,0.0666666666666667,0.0666666666666667,1.31666666666667,6620.266052917,6621.571410209,9,6620.330802792,6620.39888325,6621.59247575,6622.902514334,1,1.30535729199983
125,46,3,categorization,0,kitchen,SHINEd_sun_aehawpgmrlhlvcow.tif,81,0.0666666666666667,0.0666666666666667,1.7,6622.920013209,6623.890772667,9,6622.987187417,6623.053432334,6623.910510667,6625.603884,1,0.97075945800043
125,47,3,categorization,0,kitchen,SHINEd_sun_awcpdzzznmweyyhv.tif,106,0.0666666666666667,0.0666666666666667,1.35,6625.614527959,6626.919496584,13,6625.679291584,6625.74766925,6626.9399855,6628.283374375,0,1.30496862499967
125,48,3,categorization,0,bathroom,SHINEd_sun_ahqjwnzgolcaoidx.tif,29,0.0666666666666667,0.0666666666666667,0.8,6628.302618417,6634.49739325,13,6628.369908959,6628.435507667,6634.5216055,6635.314942625,1,6.19477483299943
125,49,3,categorization,0,bathroom,SHINEd_sun_aavhrsfjbserjtht.tif,13,0.0666666666666667,0.0666666666666667,0.766666666666667,6635.319151709,6637.253498292,13,6635.380921667,6635.441929959,6637.260974334,6638.02097925,1,1.93434658299975
125,50,3,categorization,0,kitchen,SHINEd_sun_abdxkyyxwfskuaqb.tif,70,0.0666666666666667,0.0666666666666667,1.38333333333333,6638.025898334,6639.094507,9,6638.087613084,6638.148708167,6639.1005345,6640.47723975,1,1.06860866599982
125,1,4,categorization,0,bathroom,SHINEd_sun_anryaplzeujmzfkd.tif,39,0.0666666666666667,0.0666666666666667,1,6647.197062375,6649.702027292,9,6647.259440125,6647.319912167,6649.722299792,6650.715638417,0,2.5049649169996
125,2,4,categorization,0,kitchen,SHINEd_sun_acgtpgfybqjmzeyw.tif,75,0.0666666666666667,0.0666666666666667,0.966666666666667,6650.720474542,6651.5895565,9,6650.782148209,6650.843257625,6651.595240584,6652.555247,1,0.869081957999697
125,3,4,categorization,0,kitchen,SHINEd_sun_aenotlpyftoioydp.tif,82,0.0666666666666667,0.0666666666666667,1.75,6652.561849584,6653.718019709,9,6652.6236445,6652.684564542,6653.736502959,6655.479868625,1,1.15617012500024
125,4,4,categorization,0,kitchen,SHINEd_sun_abrcnpqqhmjwekyf.tif,73,0.0666666666666667,0.0666666666666667,1.68333333333333,6655.498637584,6656.562387167,9,6655.5652635,6655.631585209,6656.587988292,6658.264701042,1,1.06374958300057
125,5,4,categorization,0,kitchen,SHINEd_sun_ahdycvpopffkzzsu.tif,90,0.0666666666666667,0.0666666666666667,1.58333333333333,6658.282660334,6659.602544084,9,6658.349330167,6658.415389875,6659.624579042,6661.201297667,1,1.31988375000037
125,6,4,categorization,0,bathroom,SHINEd_sun_apynckhmoftszqoq.tif,47,0.0666666666666667,0.0666666666666667,1,6661.217754417,6661.974232,13,6661.284878667,6661.348105875,6662.004603084,6662.997943459,1,0.756477582999651
125,7,4,categorization,0,kitchen,SHINEd_sun_agubuxuukhzyzpdp.tif,88,0.0666666666666667,0.0666666666666667,1.33333333333333,6663.003896625,6665.349634334,9,6663.065600417,6663.126667125,6665.362253334,6666.688970084,1,2.34573770899988
125,8,4,categorization,0,bathroom,SHINEd_sun_axldvoqbuvuggfmq.tif,57,0.0666666666666667,0.0666666666666667,1.26666666666667,6666.707230167,6668.094309834,9,6666.774568167,6666.839924084,6668.11641,6669.376439125,0,1.38707966700076
125,9,4,categorization,0,kitchen,SHINEd_sun_akcjzhbbjlbogpdi.tif,99,0.0666666666666667,0.0666666666666667,0.883333333333333,6669.388173584,6670.546854459,9,6669.455915959,6669.521300375,6670.560654417,6671.43732475,1,1.15868087500075
125,10,4,categorization,0,bathroom,SHINEd_sun_agrwbmhcpmfuwmsg.tif,24,0.0666666666666667,0.0666666666666667,1.26666666666667,6671.442215875,6674.077549542,9,6671.504206375,6671.564841209,6674.083978709,6675.344022584,0,2.63533366699994
125,11,4,categorization,0,kitchen,SHINEd_sun_agzzivivdpnawacl.tif,89,0.0666666666666667,0.0666666666666667,2,6675.354971125,6676.945425334,9,6675.421865417,6675.4876225,6676.963505667,6678.95687275,1,1.5904542090002
125,12,4,categorization,0,bathroom,SHINEd_sun_aleqenyvunhactkl.tif,32,0.0666666666666667,0.0666666666666667,0.733333333333333,6678.971721917,6679.744418334,13,6679.038575917,6679.103018959,6679.759044917,6680.485716334,1,0.772696417000589
125,13,4,categorization,0,bathroom,SHINEd_sun_akiytfaagpdsphgz.tif,31,0.0666666666666667,0.0666666666666667,0.883333333333333,6680.490857417,6681.485925875,9,6680.552738042,6680.613835209,6681.499097,6682.375769167,0,0.995068457999878
125,14,4,categorization,0,kitchen,SHINEd_sun_aggjlwcdjsjcaemh.tif,86,0.0666666666666667,0.0666666666666667,0.983333333333333,6682.381025292,6683.326058292,9,6682.442922084,6682.503752542,6683.338782459,6684.315453625,1,0.945032999999967
125,15,4,categorization,0,kitchen,SHINEd_sun_amjjdeyrggfqgmom.tif,100,0.0666666666666667,0.0666666666666667,1.56666666666667,6684.320802125,6685.613641125,9,6684.38255025,6684.4435895,6685.629242625,6687.189283,1,1.29283899999973
125,16,4,categorization,0,bathroom,SHINEd_sun_agyqfjcfkdcydepw.tif,25,0.0666666666666667,0.0666666666666667,1.08333333333333,6687.20734125,6687.946925417,9,6687.273546125,6687.338389834,6687.960245792,6689.036963834,0,0.739584166999521
125,17,4,categorization,0,kitchen,SHINEd_sun_afuyedyxivkhecmu.tif,85,0.0666666666666667,0.0666666666666667,0.75,6689.048622875,6689.837223792,9,6689.113390709,6689.180119,6689.851980792,6690.595364167,1,0.788600917000622
125,18,4,categorization,0,kitchen,SHINEd_labelme_brsyyvweiuaazfr.tif,61,0.0666666666666667,0.0666666666666667,0.966666666666667,6690.606875542,6691.765910209,9,6690.673552125,6690.739470667,6691.774998042,6692.735002334,1,1.15903466700001
125,19,4,categorization,0,kitchen,SHINEd_sun_aymvwlarqodbwuoc.tif,108,0.0666666666666667,0.0666666666666667,1.63333333333333,6692.7398645,6693.886042209,9,6692.801805125,6692.862629375,6693.897866542,6695.524571042,1,1.14617770899986
125,20,4,categorization,0,kitchen,SHINEd_sun_axyyrmzcupyhlivc.tif,107,0.0666666666666667,0.0666666666666667,1.46666666666667,6695.543561542,6696.433645084,9,6695.610231334,6695.676447584,6696.447822209,6697.907873834,1,0.890083541999957
125,21,4,categorization,0,kitchen,SHINEd_sun_aqeaevwwwjoqhzvl.tif,101,0.0666666666666667,0.0666666666666667,0.933333333333333,6697.926937875,6698.825998709,9,6697.993873292,6698.059878459,6698.850133292,6699.776804792,1,0.899060834000011
125,22,4,categorization,0,bathroom,SHINEd_sun_agguqiubmwhqqunb.tif,22,0.0666666666666667,0.0666666666666667,1.45,6699.782900709,6700.765595625,9,6699.844666625,6699.905717292,6700.774219167,6702.21758725,0,0.982694915999673
125,23,4,categorization,0,bathroom,SHINEd_sun_aofnryafpsjimzsb.tif,40,0.0666666666666667,0.0666666666666667,0.966666666666667,6702.235713292,6703.517969292,9,6702.302583584,6702.36851525,6703.545150792,6704.505156125,0,1.28225600000042
125,24,4,categorization,0,kitchen,SHINEd_sun_acwjdupvyjsugpay.tif,76,0.0666666666666667,0.0666666666666667,0.816666666666667,6704.511649375,6705.70132925,9,6704.573383,6704.634376417,6705.719644042,6706.529648292,1,1.18967987499946
125,25,4,categorization,0,kitchen,SHINEd_sun_aapllqyqlykszopd.tif,66,0.0666666666666667,0.0666666666666667,1.96666666666667,6706.534311709,6707.33400025,9,6706.596052667,6706.657079917,6707.342360667,6709.302392959,1,0.799688541000251
125,26,4,categorization,0,bathroom,SHINEd_sun_ajlawzvmubibwbpy.tif,30,0.0666666666666667,0.0666666666666667,0.916666666666667,6709.312522542,6710.208097959,9,6709.377757084,6709.445404542,6710.235347709,6711.145353375,0,0.895575417000146
125,27,4,categorization,0,kitchen,SHINEd_sun_auticobqsbwgoppi.tif,104,0.0666666666666667,0.0666666666666667,1.28333333333333,6711.15041025,6712.189177959,9,6711.212004917,6711.273155459,6712.208806959,6713.4855155,1,1.03876770899933
125,28,4,categorization,0,kitchen,SHINEd_sun_ahljzhgcdpomplvg.tif,91,0.0666666666666667,0.0666666666666667,1.8,6713.504246125,6714.359409542,9,6713.570565917,6713.637154,6714.376510125,6716.169886125,1,0.855163417000767
125,29,4,categorization,0,kitchen,SHINEd_sun_abdenxonkemggwsq.tif,69,0.0666666666666667,0.0666666666666667,1.33333333333333,6716.188945709,6717.011785084,9,6716.255716667,6716.321725667,6717.027625167,6718.354337209,1,0.822839374999603
125,30,4,categorization,0,bathroom,SHINEd_sun_aunuadmjocsddsrl.tif,52,0.0666666666666667,0.0666666666666667,1.06666666666667,6718.371449584,6719.104549,9,6718.438027625,6718.504623209,6719.12630875,6720.186347375,0,0.733099415999277
125,31,4,categorization,0,kitchen,SHINEd_sun_aadbddgrdsjugojn.tif,64,0.0666666666666667,0.0666666666666667,1.03333333333333,6720.197271209,6721.2102955,9,6720.261978709,6720.330054084,6721.236998834,6722.263703542,1,1.01302429099997
125,32,4,categorization,0,kitchen,SHINEd_sun_acxkpeoqbwcxfvip.tif,77,0.0666666666666667,0.0666666666666667,0.733333333333333,6722.276365667,6723.390252959,9,6722.341357125,6722.408408709,6723.413336292,6724.140031417,1,1.11388729199916
125,33,4,categorization,0,kitchen,SHINEd_sun_agorklincwxrdtga.tif,87,0.0666666666666667,0.0666666666666667,0.766666666666667,6724.155471125,6725.42228225,9,6724.222348209,6724.288336417,6725.440335334,6726.200341167,1,1.26681112499955
125,34,4,categorization,0,bathroom,SHINEd_sun_atstyziqcmkahyxk.tif,51,0.0666666666666667,0.0666666666666667,1.1,6726.205094959,6727.134183417,13,6726.266871167,6726.32793725,6727.146496334,6728.23987625,1,0.929088457999569
125,35,4,categorization,0,bathroom,SHINEd_sun_afcoljnjfoxjtgja.tif,20,0.0666666666666667,0.0666666666666667,1.81666666666667,6728.250309542,6729.523647625,9,6728.315284875,6728.383112834,6729.540958167,6731.350997667,0,1.27333808300045
125,36,4,categorization,0,bathroom,SHINEd_sun_abjtwfukuwddzted.tif,15,0.0666666666666667,0.0666666666666667,0.883333333333333,6731.36847475,6734.792673917,9,6731.435618042,6731.501322834,6734.809257042,6735.685929292,0,3.42419916699964
125,37,4,categorization,0,bathroom,SHINEd_sun_aclfzgynxzxlbepz.tif,19,0.0666666666666667,0.0666666666666667,1.7,6735.690392834,6736.661648334,9,6735.752100959,6735.813252709,6736.665195834,6738.358577584,0,0.971255500000552
125,38,4,categorization,0,kitchen,SHINEd_sun_ahspylgoovwmwvgk.tif,93,0.0666666666666667,0.0666666666666667,1.58333333333333,6738.376447917,6739.203661709,9,6738.443184709,6738.50956425,6739.2328475,6740.809550959,1,0.827213791999384
125,39,4,categorization,0,bathroom,SHINEd_sun_aqrpegblszgcoujh.tif,48,0.0666666666666667,0.0666666666666667,0.833333333333333,6740.825374542,6741.712219209,13,6740.891755709,6740.958267459,6741.72942775,6742.556100917,1,0.886844667000332
125,40,4,categorization,0,kitchen,SHINEd_sun_abftihopvusyfakt.tif,71,0.0666666666666667,0.0666666666666667,0.95,6742.562180334,6743.453257667,9,6742.623918667,6742.685345625,6743.470543584,6744.413883875,1,0.891077332999885
125,41,4,categorization,0,kitchen,SHINEd_sun_aamedkxepzlwuxes.tif,65,0.0666666666666667,0.0666666666666667,1.06666666666667,6744.419557584,6745.558202917,9,6744.481290209,6744.542440209,6745.577716709,6746.637757709,1,1.13864533299966
125,42,4,categorization,0,kitchen,SHINEd_sun_abpwyqmlzafvklqo.tif,72,0.0666666666666667,0.0666666666666667,1.68333333333333,6746.650070875,6747.361970125,9,6746.714425459,6746.781383084,6747.3879775,6749.064687375,1,0.711899249999988
125,43,4,categorization,0,kitchen,SHINEd_sun_acfmftudsenhrfhy.tif,74,0.0666666666666667,0.0666666666666667,1.31666666666667,6749.080395875,6750.133832667,9,6749.147125125,6749.213305709,6750.153077125,6751.463111584,1,1.05343679199996
125,44,4,categorization,0,kitchen,SHINEd_sun_ajkqhtgcbgpcwrwn.tif,97,0.0666666666666667,0.0666666666666667,1.61666666666667,6751.481176584,6752.533801709,9,6751.548074042,6751.613314,6752.553073667,6754.163123625,1,1.05262512499939
125,45,4,categorization,0,bathroom,SHINEd_sun_aspsyogrekjtfozg.tif,50,0.0666666666666667,0.0666666666666667,1.15,6754.181521459,6754.963563042,9,6754.248450625,6754.314398167,6754.9877435,6756.131131584,0,0.782041583000137
125,46,4,categorization,0,bathroom,SHINEd_sun_aljolscmmzydegqp.tif,33,0.0666666666666667,0.0666666666666667,1.25,6756.140778667,6757.02272375,9,6756.206423417,6756.273723459,6757.046735875,6758.290104084,0,0.881945083000574
125,47,4,categorization,0,bathroom,SHINEd_sun_alkosphxlxwjwgjd.tif,34,0.0666666666666667,0.0666666666666667,1.1,6758.309337542,6759.453399875,13,6758.375871167,6758.442238709,6759.483760959,6760.577144125,1,1.14406233299997
125,48,4,categorization,0,bathroom,SHINEd_sun_ahaulkltgpkeeemi.tif,26,0.0666666666666667,0.0666666666666667,0.9,6760.5870355,6761.462411334,13,6760.652131875,6760.719785375,6761.4932485,6762.386626709,1,0.875375833999897
125,49,4,categorization,0,kitchen,SHINEd_sun_aunzlwrbjumxhwdj.tif,103,0.0666666666666667,0.0666666666666667,1.3,6762.403779125,6763.4541335,9,6762.470238209,6762.529437542,6763.464756709,6764.758133,1,1.0503543750001
125,50,4,categorization,0,bathroom,SHINEd_sun_amzlamotzwfkwjco.tif,37,0.0666666666666667,0.0666666666666667,1.25,6764.776508875,6765.874599,9,6764.842783459,6764.909341459,6765.899271167,6767.142644667,0,1.09809012499954
125,1,5,categorization,0,kitchen,SHINEd_sun_aaxxjlsuzvqlgylf.tif,68,0.0666666666666667,0.0666666666666667,1.7,6773.996670167,6774.773123917,9,6774.058920209,6774.119457042,6774.788447875,6776.48183475,1,0.776453749999746
125,2,5,categorization,0,kitchen,SHINEd_sun_awcpdzzznmweyyhv.tif,106,0.0666666666666667,0.0666666666666667,1.81666666666667,6776.499433625,6777.677280417,9,6776.566089959,6776.63226075,6777.705423834,6779.515463834,1,1.1778467919994
125,3,5,categorization,0,kitchen,SHINEd_labelme_kxvouciolcpqplr.tif,62,0.0666666666666667,0.0666666666666667,1.23333333333333,6779.534295125,6780.699177125,9,6779.601095167,6779.6671605,6780.723891,6781.950597834,1,1.16488199999912
125,4,5,categorization,0,bathroom,SHINEd_sun_ajlawzvmubibwbpy.tif,30,0.0666666666666667,0.0666666666666667,1.4,6781.967729917,6782.818164334,9,6782.03612725,6782.100731667,6782.840755292,6784.234132084,0,0.850434417000542
125,5,5,categorization,0,kitchen,SHINEd_sun_amjjdeyrggfqgmom.tif,100,0.0666666666666667,0.0666666666666667,1.03333333333333,6784.252640459,6785.088324,9,6784.319550417,6784.385989625,6785.108075542,6786.134781917,1,0.835683541000435
125,6,5,categorization,0,kitchen,SHINEd_sun_aadbddgrdsjugojn.tif,64,0.0666666666666667,0.0666666666666667,1.38333333333333,6786.145851209,6787.016774125,9,6786.2106175,6786.2772795,6787.033149292,6788.409847834,1,0.870922915999472
125,7,5,categorization,0,bathroom,SHINEd_sun_axxbkopsgyouuebh.tif,58,0.0666666666666667,0.0666666666666667,2,6788.42960575,6789.549106084,13,6788.49656025,6788.562475292,6789.568836334,6791.562202959,1,1.1195003340008
125,8,5,categorization,0,bathroom,SHINEd_sun_abjtwfukuwddzted.tif,15,0.0666666666666667,0.0666666666666667,1.85,6791.581291917,6792.643574667,9,6791.648562459,6791.714162,6792.668913959,6794.512296209,0,1.06228275000012
125,9,5,categorization,0,bathroom,SHINEd_sun_auzqhkafidnkrwmo.tif,54,0.0666666666666667,0.0666666666666667,0.816666666666667,6794.529336334,6795.421078292,13,6794.5961035,6794.662021584,6795.452141042,6796.262146292,1,0.891741958000239
125,10,5,categorization,0,bathroom,SHINEd_sun_alotolagknyrgtsk.tif,35,0.0666666666666667,0.0666666666666667,1.85,6796.267519584,6797.173495459,9,6796.329178584,6796.390414209,6797.192270542,6799.03564275,0,0.905975874999967
125,11,5,categorization,0,kitchen,SHINEd_sun_ahpczsiumwwocjkv.tif,92,0.0666666666666667,0.0666666666666667,0.733333333333333,6799.053608625,6800.324981459,9,6799.1185595,6799.1863065,6800.338935417,6801.065605625,1,1.27137283399952
125,12,5,categorization,0,kitchen,SHINEd_sun_akcjzhbbjlbogpdi.tif,99,0.0666666666666667,0.0666666666666667,0.716666666666667,6801.070321875,6802.014014042,9,6801.132051084,6801.193104417,6802.028784042,6802.738789542,1,0.943692166999426
125,13,5,categorization,0,kitchen,SHINEd_sun_aeqdocilnnpuvuhx.tif,83,0.0666666666666667,0.0666666666666667,0.833333333333333,6802.744410667,6803.869489834,9,6802.806100709,6802.867143584,6803.886053084,6804.712725417,1,1.12507916699997
125,14,5,categorization,0,kitchen,SHINEd_sun_auaiucuqpdausiva.tif,102,0.0666666666666667,0.0666666666666667,0.95,6804.717408375,6805.81389275,9,6804.779171584,6804.84009,6805.82670325,6806.770040625,1,1.09648437500073
125,15,5,categorization,0,bathroom,SHINEd_sun_aggnnqpdorgxpvce.tif,21,0.0666666666666667,0.0666666666666667,1.96666666666667,6806.774906,6807.580936334,9,6806.8366685,6806.897615959,6807.599607792,6809.559651375,0,0.806030334000752
125,16,5,categorization,0,bathroom,SHINEd_sun_apjevzvycyhuqghb.tif,43,0.0666666666666667,0.0666666666666667,1.86666666666667,6809.581838917,6810.351404959,9,6809.648497042,6809.714567584,6810.370801209,6812.230852542,0,0.769566042000406
125,17,5,categorization,0,kitchen,SHINEd_sun_ahspylgoovwmwvgk.tif,93,0.0666666666666667,0.0666666666666667,1.51666666666667,6812.248137292,6813.071933834,9,6812.314934875,6812.381056584,6813.0848765,6814.594915167,1,0.823796542000309
125,18,5,categorization,0,kitchen,SHINEd_sun_ahljzhgcdpomplvg.tif,91,0.0666666666666667,0.0666666666666667,1.3,6814.612712334,6815.639051334,9,6814.679150042,6814.74562925,6815.6690835,6816.962461625,1,1.02633900000001
125,19,5,categorization,0,bathroom,SHINEd_sun_aspsyogrekjtfozg.tif,50,0.0666666666666667,0.0666666666666667,1.91666666666667,6816.980658084,6818.036874209,9,6817.047823917,6817.11134175,6818.06820625,6819.978236709,0,1.05621612499999
125,20,5,categorization,0,kitchen,SHINEd_sun_aamedkxepzlwuxes.tif,65,0.0666666666666667,0.0666666666666667,1.23333333333333,6819.997423417,6820.749579917,9,6820.064229334,6820.130439,6820.769235,6821.995950375,1,0.752156499999728
125,21,5,categorization,0,bathroom,SHINEd_sun_ambriybtogmepttm.tif,36,0.0666666666666667,0.0666666666666667,0.866666666666667,6822.013021167,6822.716534459,9,6822.079743209,6822.145907375,6822.735712875,6823.595757542,0,0.703513292000025
125,22,5,categorization,0,kitchen,SHINEd_sun_aarfiyshqohlwkmo.tif,67,0.0666666666666667,0.0666666666666667,0.8,6823.612906542,6824.445228334,9,6823.679801084,6823.745764875,6824.464935375,6825.258273625,1,0.832321791999675
125,23,5,categorization,0,bathroom,SHINEd_sun_aqrpegblszgcoujh.tif,48,0.0666666666666667,0.0666666666666667,1.51666666666667,6825.26310525,6826.08506475,13,6825.324813334,6825.385869667,6826.104693459,6827.614735584,1,0.821959500000048
125,24,5,categorization,0,bathroom,SHINEd_sun_axldvoqbuvuggfmq.tif,57,0.0666666666666667,0.0666666666666667,1.18333333333333,6827.631927417,6828.472507084,9,6827.6987505,6827.764834209,6828.487294334,6829.663995542,0,0.840579667000384
125,25,5,categorization,0,bathroom,SHINEd_sun_ahijqszoswveeyji.tif,28,0.0666666666666667,0.0666666666666667,1.6,6829.6740595,6831.304757334,9,6829.740684584,6829.806658959,6831.329530292,6832.922910917,0,1.63069783399988
125,26,5,categorization,0,kitchen,SHINEd_sun_acwjdupvyjsugpay.tif,76,0.0666666666666667,0.0666666666666667,1.56666666666667,6832.940760084,6833.711624667,9,6833.007418667,6833.073347042,6833.729177084,6835.289232667,1,0.77086458299982
125,27,5,categorization,0,kitchen,SHINEd_sun_acxkpeoqbwcxfvip.tif,77,0.0666666666666667,0.0666666666666667,1.36666666666667,6835.303478,6836.429432375,9,6835.368680625,6835.43623825,6836.442681459,6837.802719584,1,1.12595437500022
125,28,5,categorization,0,bathroom,SHINEd_sun_anhioqovhscjqqwb.tif,38,0.0666666666666667,0.0666666666666667,1.53333333333333,6837.820344917,6838.692726584,9,6837.886746709,6837.9532305,6838.709296209,6840.236015542,0,0.872381667000809
125,29,5,categorization,0,kitchen,SHINEd_sun_abrcnpqqhmjwekyf.tif,73,0.0666666666666667,0.0666666666666667,1.4,6840.254482625,6841.088013209,9,6840.321325042,6840.387151084,6841.109116417,6842.502492709,1,0.833530584000073
125,30,5,categorization,0,kitchen,SHINEd_sun_aixorpehvfykdynp.tif,95,0.0666666666666667,0.0666666666666667,1.06666666666667,6842.52095,6843.800489917,9,6842.58770375,6842.654071542,6843.830692417,6844.890730459,1,1.27953991699997
125,31,5,categorization,0,bathroom,SHINEd_sun_acduarbnmmoglmiv.tif,16,0.0666666666666667,0.0666666666666667,1.63333333333333,6844.905416042,6845.7651275,13,6844.970448875,6845.036774625,6845.792995,6847.419700917,1,0.859711457999765
125,32,5,categorization,0,bathroom,SHINEd_sun_ahcvzmoyaycdoftf.tif,27,0.0666666666666667,0.0666666666666667,1.8,6847.437693292,6848.234425334,13,6847.5051935,6847.571181292,6848.261832375,6850.055214584,1,0.796732041999348
125,33,5,categorization,0,kitchen,SHINEd_sun_aymvwlarqodbwuoc.tif,108,0.0666666666666667,0.0666666666666667,1.53333333333333,6850.074703917,6850.920671375,9,6850.141205959,6850.207379917,6850.948501042,6852.475213125,1,0.845967457999905
125,34,5,categorization,0,bathroom,SHINEd_sun_azqyogdvyhahyram.tif,60,0.0666666666666667,0.0666666666666667,0.766666666666667,6852.490292084,6853.658125667,9,6852.557726875,6852.622895625,6853.680756209,6854.440764917,0,1.16783358299926
125,35,5,categorization,0,bathroom,SHINEd_sun_axyrejkiiaqiurjk.tif,59,0.0666666666666667,0.0666666666666667,1.86666666666667,6854.44633125,6856.324663917,9,6854.508375334,6854.569186542,6856.338383625,6858.198424459,0,1.878332667
125,36,5,categorization,0,kitchen,SHINEd_sun_abdenxonkemggwsq.tif,69,0.0666666666666667,0.0666666666666667,1.13333333333333,6858.217715334,6859.086880167,9,6858.284982334,6858.350683625,6859.10569775,6860.232416917,1,0.869164833000468
125,37,5,categorization,0,bathroom,SHINEd_sun_aapitsgbtktqubfy.tif,12,0.0666666666666667,0.0666666666666667,1.73333333333333,6860.242134875,6860.898603,13,6860.307509459,6860.37485625,6860.913969084,6862.640683292,1,0.656468124999265
125,38,5,categorization,0,kitchen,SHINEd_sun_abdxkyyxwfskuaqb.tif,70,0.0666666666666667,0.0666666666666667,0.766666666666667,6862.659355917,6863.553253459,9,6862.726044709,6862.792344667,6863.58249025,6864.3424975,1,0.893897542000559
125,39,5,categorization,0,bathroom,SHINEd_sun_apeeialkgkuxddgh.tif,42,0.0666666666666667,0.0666666666666667,1.85,6864.348413834,6865.181568042,13,6864.41011375,6864.471225709,6865.189613084,6867.03299725,1,0.833154208000451
125,40,5,categorization,0,kitchen,SHINEd_sun_aexklacwqwezaorf.tif,84,0.0666666666666667,0.0666666666666667,0.966666666666667,6867.051054209,6868.042831167,9,6867.116048584,6867.183830542,6868.056241167,6869.016246584,1,0.991776958000628
125,41,5,categorization,0,bathroom,SHINEd_sun_aunuadmjocsddsrl.tif,52,0.0666666666666667,0.0666666666666667,1.06666666666667,6869.021960959,6869.949240792,13,6869.083601875,6869.144960709,6869.963870625,6871.023917709,1,0.927279832999375
125,42,5,categorization,0,bathroom,SHINEd_sun_agyqfjcfkdcydepw.tif,25,0.0666666666666667,0.0666666666666667,1.38333333333333,6871.036047417,6871.821643667,9,6871.100746709,6871.16682225,6871.83960325,6873.216322709,0,0.785596249999799
125,43,5,categorization,0,kitchen,SHINEd_sun_admlmbcdswaszruo.tif,79,0.0666666666666667,0.0666666666666667,0.766666666666667,6873.234879167,6873.94984975,9,6873.299927334,6873.366085292,6873.973031167,6874.733073042,1,0.71497058299974
125,44,5,categorization,0,kitchen,SHINEd_sun_agzzivivdpnawacl.tif,89,0.0666666666666667,0.0666666666666667,0.866666666666667,6874.748827667,6875.644884167,13,6874.815096,6874.881482125,6875.650096875,6876.510101334,0,0.896056499999759
125,45,5,categorization,0,bathroom,SHINEd_sun_alkosphxlxwjwgjd.tif,34,0.0666666666666667,0.0666666666666667,1.25,6876.515034,6877.668819834,13,6876.576686209,6876.637852875,6877.673243667,6878.916608917,1,1.15378583399979
125,46,5,categorization,0,bathroom,SHINEd_sun_afcoljnjfoxjtgja.tif,20,0.0666666666666667,0.0666666666666667,1.03333333333333,6878.933150834,6879.686174167,9,6878.999798,6879.066076125,6879.705220542,6880.731930167,0,0.753023332999874
125,47,5,categorization,0,bathroom,SHINEd_sun_abapwbhyhkfixyex.tif,14,0.0666666666666667,0.0666666666666667,0.783333333333333,6880.747466917,6881.757667875,9,6880.810094459,6880.870260625,6881.772366875,6882.54903725,0,1.0102009580005
125,48,5,categorization,0,bathroom,SHINEd_sun_aavhrsfjbserjtht.tif,13,0.0666666666666667,0.0666666666666667,0.7,6882.554256417,6883.349312084,13,6882.616277084,6882.677039584,6883.362190875,6884.055529292,1,0.79505566700027
125,49,5,categorization,0,bathroom,SHINEd_sun_akiytfaagpdsphgz.tif,31,0.0666666666666667,0.0666666666666667,1.75,6884.060510042,6885.069275334,9,6884.122320459,6884.183429875,6885.085044625,6886.828417875,0,1.00876529200013
125,50,5,categorization,0,bathroom,SHINEd_sun_aghyqhbptboemmoq.tif,23,0.0666666666666667,0.0666666666666667,1.36666666666667,6886.84571275,6888.509629417,13,6886.911411959,6886.9782525,6888.514292042,6889.874338417,1,1.66391666700019
125,1,6,categorization,0,bathroom,SHINEd_sun_apkruvsevgegsdwp.tif,44,0.0666666666666667,0.0666666666666667,0.966666666666667,6895.394845584,6896.909561209,13,6895.457502334,6895.51769275,6896.920144209,6897.880149709,1,1.51471562499955
125,2,6,categorization,0,kitchen,SHINEd_sun_ajkqhtgcbgpcwrwn.tif,97,0.0666666666666667,0.0666666666666667,1.73333333333333,6897.885098834,6899.0048,9,6897.946909292,6898.007988834,6899.009836959,6900.736542417,1,1.11970116599969
125,3,6,categorization,0,kitchen,SHINEd_sun_abpwyqmlzafvklqo.tif,72,0.0666666666666667,0.0666666666666667,1.91666666666667,6900.755080584,6902.008368334,9,6900.82211425,6900.887726334,6902.027074334,6903.93711175,1,1.2532877499998
125,4,6,categorization,0,bathroom,SHINEd_sun_agguqiubmwhqqunb.tif,22,0.0666666666666667,0.0666666666666667,0.766666666666667,6903.954477792,6904.758717792,13,6904.02150025,6904.087599917,6904.777903667,6905.537909125,1,0.804240000000391
125,5,6,categorization,0,kitchen,SHINEd_labelme_rykdqxenmhulbdn.tif,63,0.0666666666666667,0.0666666666666667,0.916666666666667,6905.543939334,6906.645165917,9,6905.605759959,6905.666745375,6906.651816542,6907.561820959,1,1.10122658299952
125,6,6,categorization,0,bathroom,SHINEd_sun_ahaulkltgpkeeemi.tif,26,0.0666666666666667,0.0666666666666667,1.18333333333333,6907.5666295,6908.356767792,13,6907.628388042,6907.689426667,6908.374758209,6909.551457084,1,0.790138291999938
125,7,6,categorization,0,bathroom,SHINEd_sun_apkxzenqapsujocq.tif,45,0.0666666666666667,0.0666666666666667,1.8,6909.563018209,6910.284670292,13,6909.629802584,6909.696166959,6910.3020255,6912.095401834,1,0.721652082999753
125,8,6,categorization,0,bathroom,SHINEd_sun_aoybiabnpadelefl.tif,41,0.0666666666666667,0.0666666666666667,0.883333333333333,6912.110896459,6913.023645417,9,6912.17755625,6912.243560375,6913.049908542,6913.926580042,0,0.912748957999611
125,9,6,categorization,0,kitchen,SHINEd_sun_agorklincwxrdtga.tif,87,0.0666666666666667,0.0666666666666667,1.83333333333333,6913.932315084,6914.661316,9,6913.99401925,6914.05511075,6914.673874042,6916.500578792,1,0.729000915999677
125,10,6,categorization,0,bathroom,SHINEd_sun_ahqjwnzgolcaoidx.tif,29,0.0666666666666667,0.0666666666666667,1.76666666666667,6916.518601417,6917.361208209,13,6916.585168709,6916.651436417,6917.390736292,6919.150791167,1,0.84260679199997
125,11,6,categorization,0,kitchen,SHINEd_sun_azmutvzbxypaceni.tif,110,0.0666666666666667,0.0666666666666667,0.983333333333333,6919.1697155,6920.877244584,9,6919.236633,6919.301133917,6920.887407209,6921.864079834,1,1.70752908400027
125,12,6,categorization,0,kitchen,SHINEd_sun_akchetnepxlcxhsu.tif,98,0.0666666666666667,0.0666666666666667,0.883333333333333,6921.869071125,6922.549118167,13,6921.930698542,6921.991834917,6922.560378292,6923.437050334,0,0.680047042000297
125,13,6,categorization,0,bathroom,SHINEd_sun_ausgutylgojavyoq.tif,53,0.0666666666666667,0.0666666666666667,0.85,6923.443855209,6924.236793875,13,6923.505861459,6923.566624417,6924.252043042,6925.095381542,1,0.792938666000737
125,14,6,categorization,0,kitchen,SHINEd_sun_aunzlwrbjumxhwdj.tif,103,0.0666666666666667,0.0666666666666667,0.733333333333333,6925.100454209,6925.900668917,9,6925.162098375,6925.223296375,6925.908836125,6926.635506542,1,0.800214707999658
125,15,6,categorization,0,kitchen,SHINEd_sun_aggjlwcdjsjcaemh.tif,86,0.0666666666666667,0.0666666666666667,1.88333333333333,6926.640210167,6927.525007584,9,6926.701961584,6926.7629745,6927.531484,6929.408190709,1,0.8847974170003
125,16,6,categorization,0,bathroom,SHINEd_sun_amzlamotzwfkwjco.tif,37,0.0666666666666667,0.0666666666666667,0.816666666666667,6929.423306417,6930.142051417,9,6929.489842,6929.555929667,6930.162044292,6930.972048834,0,0.718745000000126
125,17,6,categorization,0,kitchen,SHINEd_sun_afuyedyxivkhecmu.tif,85,0.0666666666666667,0.0666666666666667,1.9,6930.977487375,6931.668483875,9,6931.039222667,6931.100267792,6931.685518334,6933.578906167,1,0.690996499999528
125,18,6,categorization,0,bathroom,SHINEd_sun_asfwthctfqerjvxr.tif,49,0.0666666666666667,0.0666666666666667,0.983333333333333,6933.596138084,6934.39389125,9,6933.662639542,6933.728576,6934.418524334,6935.395194792,0,0.797753165999893
125,19,6,categorization,0,bathroom,SHINEd_sun_acgyywnybuveqsro.tif,18,0.0666666666666667,0.0666666666666667,0.75,6935.400442917,6936.269266792,13,6935.462262125,6935.523185167,6936.27538425,6937.01872125,1,0.868823875000089
125,20,6,categorization,0,kitchen,SHINEd_labelme_brsyyvweiuaazfr.tif,61,0.0666666666666667,0.0666666666666667,1.6,6937.0235395,6937.804397584,9,6937.085162,6937.146304792,6937.814907125,6939.408279834,1,0.780858084000101
125,21,6,categorization,0,bathroom,SHINEd_sun_aclfzgynxzxlbepz.tif,19,0.0666666666666667,0.0666666666666667,1.58333333333333,6939.429261042,6940.08983075,13,6939.4958985,6939.562121709,6940.118856417,6941.695566834,1,0.660569708000367
125,22,6,categorization,0,kitchen,SHINEd_sun_axyyrmzcupyhlivc.tif,107,0.0666666666666667,0.0666666666666667,1.11666666666667,6941.712676667,6942.646382917,9,6941.779556042,6941.845163917,6942.6683135,6943.778345042,1,0.933706249999886
125,23,6,categorization,0,kitchen,SHINEd_sun_ahywdevtimnqcsln.tif,94,0.0666666666666667,0.0666666666666667,1.53333333333333,6943.787995709,6944.94223875,9,6943.852320917,6943.920988209,6944.960061584,6946.486782792,1,1.15424304099997
125,24,6,categorization,0,kitchen,SHINEd_sun_acgtpgfybqjmzeyw.tif,75,0.0666666666666667,0.0666666666666667,1.48333333333333,6946.5035305,6947.134284917,9,6946.570348167,6946.636582417,6947.158574834,6948.635293875,1,0.63075441699948
125,25,6,categorization,0,kitchen,SHINEd_sun_aqeaevwwwjoqhzvl.tif,101,0.0666666666666667,0.0666666666666667,1.1,6948.652416334,6949.528790375,9,6948.71944625,6948.784936125,6949.558437459,6950.651821334,1,0.876374041000417
125,26,6,categorization,0,bathroom,SHINEd_sun_anryaplzeujmzfkd.tif,39,0.0666666666666667,0.0666666666666667,0.933333333333333,6950.662423459,6951.639345084,9,6950.727539792,6950.795123209,6951.668631209,6952.595305167,0,0.976921624999704
125,27,6,categorization,0,bathroom,SHINEd_sun_agrwbmhcpmfuwmsg.tif,24,0.0666666666666667,0.0666666666666667,0.816666666666667,6952.601572459,6953.4852315,9,6952.663389834,6952.724381334,6953.493009667,6954.30301575,0,0.883659041000101
125,28,6,categorization,0,bathroom,SHINEd_sun_aofnryafpsjimzsb.tif,40,0.0666666666666667,0.0666666666666667,1.78333333333333,6954.31024775,6955.14853975,9,6954.3719895,6954.433029792,6955.168286209,6956.944994584,0,0.838292000000365
125,29,6,categorization,0,bathroom,SHINEd_sun_atstyziqcmkahyxk.tif,51,0.0666666666666667,0.0666666666666667,0.766666666666667,6956.964006584,6957.687944959,9,6957.03090275,6957.094944834,6957.718612709,6958.478617917,0,0.723938374999307
125,30,6,categorization,0,kitchen,SHINEd_sun_aypmqwcualkenuoe.tif,109,0.0666666666666667,0.0666666666666667,1.45,6958.483841334,6959.301055417,9,6958.545636709,6958.606671459,6959.308539334,6960.751910459,1,0.817214082999271
125,31,6,categorization,0,bathroom,SHINEd_sun_apmqjbnwghzuhhzh.tif,46,0.0666666666666667,0.0666666666666667,0.75,6960.769315,6961.413815917,13,6960.835855459,6960.901931125,6961.44185775,6962.185222292,1,0.644500917000187
125,32,6,categorization,0,kitchen,SHINEd_sun_aegoxogugdkwpmpj.tif,80,0.0666666666666667,0.0666666666666667,1.36666666666667,6962.201892209,6962.997164209,9,6962.268439917,6962.33450175,6963.003434084,6964.363480042,1,0.795272000000296
125,33,6,categorization,0,kitchen,SHINEd_sun_aenotlpyftoioydp.tif,82,0.0666666666666667,0.0666666666666667,0.75,6964.380494959,6965.485339625,9,6964.447167709,6964.513722084,6965.503072334,6966.246411334,1,1.10484466599974
125,34,6,categorization,0,kitchen,SHINEd_sun_ajcbwwvdlsvjyzje.tif,96,0.0666666666666667,0.0666666666666667,0.783333333333333,6966.251991459,6968.061113417,9,6966.313805834,6966.374912417,6968.077684,6968.854355334,1,1.80912195800011
125,35,6,categorization,0,kitchen,SHINEd_sun_agubuxuukhzyzpdp.tif,88,0.0666666666666667,0.0666666666666667,1.11666666666667,6968.860411959,6969.772559584,9,6968.922100375,6968.983158167,6969.785391,6970.895443167,1,0.912147625000216
125,36,6,categorization,0,kitchen,SHINEd_sun_adgqasybjyktddhj.tif,78,0.0666666666666667,0.0666666666666667,0.766666666666667,6970.905368042,6971.8173,9,6970.9700505,6971.0368325,6971.843143625,6972.603177834,1,0.911931957999514
125,37,6,categorization,0,bathroom,SHINEd_sun_aljolscmmzydegqp.tif,33,0.0666666666666667,0.0666666666666667,0.716666666666667,6972.619292459,6973.380945709,13,6972.685945042,6972.751991209,6973.387219417,6974.097223959,1,0.761653250000563
125,38,6,categorization,0,bathroom,SHINEd_sun_aleqenyvunhactkl.tif,32,0.0666666666666667,0.0666666666666667,1.33333333333333,6974.102238417,6974.876644542,13,6974.163908459,6974.224945084,6974.893985959,6976.220701542,1,0.774406124999587
125,39,6,categorization,0,bathroom,SHINEd_sun_acegryoqftbzowsg.tif,17,0.0666666666666667,0.0666666666666667,1.75,6976.239487209,6977.213829417,9,6976.30599375,6976.371974625,6977.227776042,6978.97114075,0,0.974342208000053
125,40,6,categorization,0,bathroom,SHINEd_sun_awnqiikzaispgmwo.tif,56,0.0666666666666667,0.0666666666666667,1.13333333333333,6978.989550584,6979.953651542,13,6979.055914875,6979.120794459,6979.977488125,6981.104201209,1,0.964100958000017
125,41,6,categorization,0,bathroom,SHINEd_sun_apynckhmoftszqoq.tif,47,0.0666666666666667,0.0666666666666667,1.63333333333333,6981.114128292,6981.832859709,13,6981.178992,6981.247205042,6981.854466875,6983.481168375,1,0.718731417000527
125,42,6,categorization,0,bathroom,SHINEd_labelme_sfxiulhjbhlyiyt.tif,11,0.0666666666666667,0.0666666666666667,1.43333333333333,6983.497286334,6984.087682042,13,6983.564052792,6983.630398334,6984.102920292,6985.529622125,1,0.59039570799996
125,43,6,categorization,0,kitchen,SHINEd_sun_avszsnwsbuqfgzbn.tif,105,0.0666666666666667,0.0666666666666667,1.83333333333333,6985.547243,6986.294223334,9,6985.6140925,6985.680553292,6986.320766625,6988.147468375,1,0.746980334
125,44,6,categorization,0,kitchen,SHINEd_sun_aehawpgmrlhlvcow.tif,81,0.0666666666666667,0.0666666666666667,1.93333333333333,6988.165536084,6989.205581959,9,6988.232582375,6988.298455584,6989.221435792,6991.148136584,1,1.04004587499912
125,45,6,categorization,0,kitchen,SHINEd_sun_auticobqsbwgoppi.tif,104,0.0666666666666667,0.0666666666666667,1.26666666666667,6991.162456542,6991.822756167,9,6991.229664375,6991.293572042,6991.850489334,6993.110524584,1,0.660299625000334
125,46,6,categorization,0,kitchen,SHINEd_sun_aapllqyqlykszopd.tif,66,0.0666666666666667,0.0666666666666667,1.86666666666667,6993.120352459,6993.771798292,9,6993.187185375,6993.253139125,6993.792658417,6995.652708459,1,0.651445833000253
125,47,6,categorization,0,kitchen,SHINEd_sun_ahdycvpopffkzzsu.tif,90,0.0666666666666667,0.0666666666666667,1.41666666666667,6995.670511625,6996.3571585,9,6995.737582375,6995.8036805,6996.376950209,6997.786986709,1,0.686646875000406
125,48,6,categorization,0,kitchen,SHINEd_sun_acfmftudsenhrfhy.tif,74,0.0666666666666667,0.0666666666666667,1.11666666666667,6997.805756042,6998.541185625,9,6997.872552209,6997.938720917,6998.561658459,6999.671695542,1,0.735429583000041
125,49,6,categorization,0,bathroom,SHINEd_sun_avhrdrntsqrjzccq.tif,55,0.0666666666666667,0.0666666666666667,1.8,6999.682577625,7000.98342775,9,6999.747344167,6999.815438334,7001.00715575,7002.800533875,0,1.30085012500058
125,50,6,categorization,0,kitchen,SHINEd_sun_abftihopvusyfakt.tif,71,0.0666666666666667,0.0666666666666667,1.25,7002.818427084,7003.476149542,9,7002.885561417,7002.951676292,7003.491039042,7004.734425209,1,0.657722457999625
125,1,7,categorization,0,bathroom,SHINEd_sun_asfwthctfqerjvxr.tif,49,0.0666666666666667,0.0666666666666667,0.883333333333333,7010.254446417,7011.092536625,9,7010.316963959,7010.377280584,7011.095542542,7011.972214584,0,0.838090208000722
125,2,7,categorization,0,bathroom,SHINEd_sun_anhioqovhscjqqwb.tif,38,0.0666666666666667,0.0666666666666667,1.03333333333333,7011.977140625,7012.812900917,13,7012.038688792,7012.099852834,7012.818776292,7013.845488459,1,0.835760291999577
125,3,7,categorization,0,kitchen,SHINEd_sun_auaiucuqpdausiva.tif,102,0.0666666666666667,0.0666666666666667,1.06666666666667,7013.858890459,7014.524475125,9,7013.923631459,7013.990309042,7014.547214584,7015.607254917,1,0.665584666000541
125,4,7,categorization,0,bathroom,SHINEd_sun_aqrpegblszgcoujh.tif,48,0.0666666666666667,0.0666666666666667,0.833333333333333,7015.62361575,7016.556905209,13,7015.690282042,7015.756235292,7016.574847417,7017.401519125,1,0.933289459000662
125,5,7,categorization,0,kitchen,SHINEd_sun_admlmbcdswaszruo.tif,79,0.0666666666666667,0.0666666666666667,0.716666666666667,7017.406480834,7018.164539917,9,7017.468241542,7017.529277792,7018.181550042,7018.891556417,1,0.758059083000262
125,6,7,categorization,0,kitchen,SHINEd_sun_ahljzhgcdpomplvg.tif,91,0.0666666666666667,0.0666666666666667,0.733333333333333,7018.896957792,7019.628777084,9,7018.958676959,7019.019701292,7019.638441584,7020.365113375,1,0.731819292000182
125,7,7,categorization,0,kitchen,SHINEd_sun_aarfiyshqohlwkmo.tif,67,0.0666666666666667,0.0666666666666667,1.38333333333333,7020.370478959,7021.404462167,9,7020.432254292,7020.493197667,7021.411788042,7022.788496459,1,1.03398320799988
125,8,7,categorization,0,bathroom,SHINEd_sun_abapwbhyhkfixyex.tif,14,0.0666666666666667,0.0666666666666667,0.9,7022.805901375,7023.624605917,9,7022.873831,7022.938378334,7023.645026125,7024.538367334,0,0.818704541999978
125,9,7,categorization,0,bathroom,SHINEd_labelme_sfxiulhjbhlyiyt.tif,11,0.0666666666666667,0.0666666666666667,0.816666666666667,7024.544150125,7025.428742209,13,7024.605782542,7024.667004292,7025.435590084,7026.245595334,1,0.88459208400036
125,10,7,categorization,0,kitchen,SHINEd_sun_aypmqwcualkenuoe.tif,109,0.0666666666666667,0.0666666666666667,0.85,7026.251290917,7027.092541834,9,7026.313013542,7026.374088292,7027.109372834,7027.95271075,1,0.841250917000252
125,11,7,categorization,0,bathroom,SHINEd_sun_anryaplzeujmzfkd.tif,39,0.0666666666666667,0.0666666666666667,1.6,7027.96013625,7029.26108025,9,7028.021926334,7028.082920167,7029.268280792,7030.861655375,0,1.30094400000053
125,12,7,categorization,0,bathroom,SHINEd_sun_aljolscmmzydegqp.tif,33,0.0666666666666667,0.0666666666666667,1.75,7030.877513875,7031.497440667,13,7030.944292334,7031.010627,7031.517518625,7033.260907125,1,0.619926792000115
125,13,7,categorization,0,kitchen,SHINEd_sun_aqeaevwwwjoqhzvl.tif,101,0.0666666666666667,0.0666666666666667,1.1,7033.278421959,7034.00639625,9,7033.343545542,7033.4112555,7034.034679709,7035.128048209,1,0.727974290999555
125,14,7,categorization,0,kitchen,SHINEd_sun_aapllqyqlykszopd.tif,66,0.0666666666666667,0.0666666666666667,1.46666666666667,7035.138172542,7036.196648625,9,7035.20320075,7035.270971375,7036.209942,7037.669981667,1,1.05847608300064
125,15,7,categorization,0,bathroom,SHINEd_sun_acgyywnybuveqsro.tif,18,0.0666666666666667,0.0666666666666667,1.25,7037.681535834,7038.417290417,9,7037.74851175,7037.814965417,7038.438059042,7039.681427292,0,0.735754583000016
125,16,7,categorization,0,bathroom,SHINEd_sun_apkruvsevgegsdwp.tif,44,0.0666666666666667,0.0666666666666667,1.13333333333333,7039.700215459,7040.762561625,9,7039.767448709,7039.83336075,7040.790179209,7041.916893834,0,1.06234616599977
125,17,7,categorization,0,bathroom,SHINEd_sun_ahqjwnzgolcaoidx.tif,29,0.0666666666666667,0.0666666666666667,1.33333333333333,7041.926187542,7042.685292709,13,7041.991206959,7042.059005459,7042.715842167,7044.0425545,1,0.759105167000598
125,18,7,categorization,0,kitchen,SHINEd_sun_akchetnepxlcxhsu.tif,98,0.0666666666666667,0.0666666666666667,1.86666666666667,7044.056778667,7044.894382167,13,7044.123318042,7044.189298625,7044.912074042,7046.772107834,0,0.837603500000114
125,19,7,categorization,0,bathroom,SHINEd_sun_atstyziqcmkahyxk.tif,51,0.0666666666666667,0.0666666666666667,1.58333333333333,7046.789635709,7047.415095834,13,7046.856270042,7046.922315459,7047.428245709,7049.00494375,1,0.625460124999336
125,20,7,categorization,0,bathroom,SHINEd_sun_avhrdrntsqrjzccq.tif,55,0.0666666666666667,0.0666666666666667,1.05,7049.022762292,7049.8771945,9,7049.087552834,7049.155096292,7049.894256709,7050.937639084,0,0.854432207999707
125,21,7,categorization,0,bathroom,SHINEd_sun_axldvoqbuvuggfmq.tif,57,0.0666666666666667,0.0666666666666667,0.9,7050.953172875,7051.863504709,9,7051.01806075,7051.080857584,7051.888375375,7052.781741834,0,0.910331834000317
125,22,7,categorization,0,kitchen,SHINEd_sun_aehawpgmrlhlvcow.tif,81,0.0666666666666667,0.0666666666666667,0.7,7052.795874959,7053.572774959,9,7052.862953209,7052.9296645,7053.582091334,7054.27542925,1,0.776899999999841
125,23,7,categorization,0,bathroom,SHINEd_sun_amzlamotzwfkwjco.tif,37,0.0666666666666667,0.0666666666666667,0.933333333333333,7054.280506125,7055.380636959,9,7054.342187959,7054.403338834,7055.3885255,7056.315198292,0,1.10013083400008
125,24,7,categorization,0,kitchen,SHINEd_sun_agorklincwxrdtga.tif,87,0.0666666666666667,0.0666666666666667,1.95,7056.320388875,7057.140152417,9,7056.382298167,7056.443125,7057.144793709,7059.088172834,1,0.819763541999237
125,25,7,categorization,0,kitchen,SHINEd_sun_azmutvzbxypaceni.tif,110,0.0666666666666667,0.0666666666666667,1.06666666666667,7059.097712417,7059.968837167,9,7059.163928917,7059.230475625,7059.986004209,7061.046040125,1,0.871124749999581
125,26,7,categorization,0,kitchen,SHINEd_sun_aunzlwrbjumxhwdj.tif,103,0.0666666666666667,0.0666666666666667,1.2,7061.057782917,7061.757003084,9,7061.122261709,7061.189004459,7061.778928959,7062.972298167,1,0.699220167000021
125,27,7,categorization,0,kitchen,SHINEd_sun_afuyedyxivkhecmu.tif,85,0.0666666666666667,0.0666666666666667,0.75,7062.99012,7064.484604709,9,7063.05656475,7063.119398042,7064.488821084,7065.232159875,1,1.49448470900006
125,28,7,categorization,0,bathroom,SHINEd_sun_azqyogdvyhahyram.tif,60,0.0666666666666667,0.0666666666666667,0.816666666666667,7065.237044167,7065.932527917,13,7065.298861709,7065.359838125,7065.945324459,7066.755329167,1,0.695483749999767
125,29,7,categorization,0,kitchen,SHINEd_sun_abftihopvusyfakt.tif,71,0.0666666666666667,0.0666666666666667,1.96666666666667,7066.76049075,7067.588228292,9,7066.822287042,7066.883231709,7067.601813917,7069.561863,1,0.82773754200025
125,30,7,categorization,0,kitchen,SHINEd_sun_abpwyqmlzafvklqo.tif,72,0.0666666666666667,0.0666666666666667,1.2,7069.576776709,7070.42033625,9,7069.64340925,7069.70956625,7070.449538375,7071.64291675,1,0.843559541000104
125,31,7,categorization,0,kitchen,SHINEd_sun_aixorpehvfykdynp.tif,95,0.0666666666666667,0.0666666666666667,0.883333333333333,7071.653619125,7073.043840625,9,7071.72046025,7071.786630292,7073.061679542,7073.938352959,1,1.39022149999983
125,32,7,categorization,0,bathroom,SHINEd_sun_aspsyogrekjtfozg.tif,50,0.0666666666666667,0.0666666666666667,1.33333333333333,7073.944097792,7074.64426075,13,7074.005935459,7074.06694825,7074.652032792,7075.97875,1,0.700162957999964
125,33,7,categorization,0,bathroom,SHINEd_sun_aapitsgbtktqubfy.tif,12,0.0666666666666667,0.0666666666666667,1.45,7075.994218542,7077.030347167,13,7076.060835459,7076.127187959,7077.050234584,7078.493608584,1,1.03612862499995
125,34,7,categorization,0,bathroom,SHINEd_sun_ahijqszoswveeyji.tif,28,0.0666666666666667,0.0666666666666667,1.15,7078.511323459,7079.435877417,9,7078.57811,7078.644036667,7079.44983975,7080.593206375,0,0.924553957999706
125,35,7,categorization,0,kitchen,SHINEd_sun_aeqdocilnnpuvuhx.tif,83,0.0666666666666667,0.0666666666666667,0.966666666666667,7080.602891125,7081.38109425,9,7080.66955575,7080.735421292,7081.408568084,7082.368623417,1,0.7782031250008
125,36,7,categorization,0,kitchen,SHINEd_sun_aymvwlarqodbwuoc.tif,108,0.0666666666666667,0.0666666666666667,1.45,7082.380705542,7083.092002917,9,7082.447418209,7082.513598125,7083.098795875,7084.542159167,1,0.711297374999958
125,37,7,categorization,0,bathroom,SHINEd_sun_apkxzenqapsujocq.tif,45,0.0666666666666667,0.0666666666666667,0.8,7084.561227667,7085.384917334,13,7084.628039292,7084.694007292,7085.400258625,7086.193601667,1,0.823689667000508
125,38,7,categorization,0,bathroom,SHINEd_sun_ausgutylgojavyoq.tif,53,0.0666666666666667,0.0666666666666667,1.45,7086.199565084,7086.948174792,13,7086.261274209,7086.322355,7086.957698834,7088.4010725,1,0.748609708000004
125,39,7,categorization,0,kitchen,SHINEd_sun_axyyrmzcupyhlivc.tif,107,0.0666666666666667,0.0666666666666667,1.1,7088.418500125,7089.110334084,9,7088.485073709,7088.551368167,7089.122502959,7090.215868375,1,0.691833959000178
125,40,7,categorization,0,kitchen,SHINEd_sun_aenotlpyftoioydp.tif,82,0.0666666666666667,0.0666666666666667,1.16666666666667,7090.226713209,7091.053235959,9,7090.290851167,7090.35961975,7091.082590667,7092.242628042,1,0.82652274999964
125,41,7,categorization,0,bathroom,SHINEd_sun_ahaulkltgpkeeemi.tif,26,0.0666666666666667,0.0666666666666667,1.31666666666667,7092.252428459,7092.940178292,13,7092.317365667,7092.385100209,7092.957396292,7094.267431917,1,0.687749833000453
125,42,7,categorization,0,bathroom,SHINEd_sun_apmqjbnwghzuhhzh.tif,46,0.0666666666666667,0.0666666666666667,1.68333333333333,7094.278764,7095.019743625,13,7094.344404542,7094.403024,7095.038190375,7096.71490225,1,0.740979625000364
125,43,7,categorization,0,bathroom,SHINEd_sun_acegryoqftbzowsg.tif,17,0.0666666666666667,0.0666666666666667,0.966666666666667,7096.732487959,7097.4470585,9,7096.79912375,7096.86529025,7097.472390292,7098.432395667,0,0.714570541000285
125,44,7,categorization,0,kitchen,SHINEd_sun_aexklacwqwezaorf.tif,84,0.0666666666666667,0.0666666666666667,1.4,7098.438253709,7099.436191375,9,7098.499982709,7098.561026584,7099.4463,7100.839676459,1,0.997937666000325
125,45,7,categorization,0,kitchen,SHINEd_labelme_brsyyvweiuaazfr.tif,61,0.0666666666666667,0.0666666666666667,0.783333333333333,7100.856993459,7101.535375042,9,7100.923529875,7100.989547625,7101.562730542,7102.339451209,1,0.678381583000373
125,46,7,categorization,0,kitchen,SHINEd_sun_aadbddgrdsjugojn.tif,64,0.0666666666666667,0.0666666666666667,1.08333333333333,7102.352480459,7103.1484475,9,7102.418919459,7102.485013917,7103.153717584,7104.230435334,1,0.79596704100004
125,47,7,categorization,0,bathroom,SHINEd_sun_alkosphxlxwjwgjd.tif,34,0.0666666666666667,0.0666666666666667,1.43333333333333,7104.240416375,7105.647066042,13,7104.305105459,7104.371898584,7105.662009625,7107.088722584,1,1.40664966700024
125,48,7,categorization,0,kitchen,SHINEd_sun_acwjdupvyjsugpay.tif,76,0.0666666666666667,0.0666666666666667,1.75,7107.09787975,7107.713465417,9,7107.164617875,7107.230660542,7107.737315,7109.480692084,1,0.615585667000232
125,49,7,categorization,0,kitchen,SHINEd_sun_akcjzhbbjlbogpdi.tif,99,0.0666666666666667,0.0666666666666667,1.21666666666667,7109.49896025,7110.189714375,9,7109.565672209,7109.631799875,7110.203676542,7111.4137245,1,0.69075412500024
125,50,7,categorization,0,kitchen,SHINEd_sun_adgqasybjyktddhj.tif,78,0.0666666666666667,0.0666666666666667,1.31666666666667,7111.426329667,7112.056143792,9,7111.493450125,7111.55856525,7112.081987,7113.392038709,1,0.629814124999939
125,1,8,categorization,0,bathroom,SHINEd_sun_ajlawzvmubibwbpy.tif,30,0.0666666666666667,0.0666666666666667,1.18333333333333,7118.410057042,7119.563870334,9,7118.472856167,7118.532794125,7119.568002917,7120.744688,0,1.15381329200045
125,2,8,categorization,0,bathroom,SHINEd_sun_agrwbmhcpmfuwmsg.tif,24,0.0666666666666667,0.0666666666666667,0.983333333333333,7120.753853875,7121.325399792,9,7120.82149875,7120.886504292,7121.340599542,7122.317316959,0,0.571545917000549
125,3,8,categorization,0,bathroom,SHINEd_sun_ambriybtogmepttm.tif,36,0.0666666666666667,0.0666666666666667,1.65,7122.33517725,7123.196321042,9,7122.402530667,7122.46804475,7123.203640292,7124.847028417,0,0.861143791999893
125,4,8,categorization,0,kitchen,SHINEd_sun_ahspylgoovwmwvgk.tif,93,0.0666666666666667,0.0666666666666667,1.23333333333333,7124.864893042,7125.489443875,9,7124.931888209,7124.997870584,7125.503776375,7126.73047875,1,0.624550832999375
125,5,8,categorization,0,bathroom,SHINEd_sun_aoybiabnpadelefl.tif,41,0.0666666666666667,0.0666666666666667,0.916666666666667,7126.7481055,7127.372328584,9,7126.814998709,7126.881340084,7127.38770325,7128.297754084,0,0.624223083999823
125,6,8,categorization,0,bathroom,SHINEd_sun_aclfzgynxzxlbepz.tif,19,0.0666666666666667,0.0666666666666667,1.56666666666667,7128.314048792,7129.092451875,13,7128.381001667,7128.446952,7129.0990805,7130.659133375,1,0.77840308299983
125,7,8,categorization,0,bathroom,SHINEd_sun_ahcvzmoyaycdoftf.tif,27,0.0666666666666667,0.0666666666666667,1.63333333333333,7130.67771325,7131.422761875,13,7130.744926667,7130.810698417,7131.450498417,7133.077215209,1,0.745048624999981
125,8,8,categorization,0,kitchen,SHINEd_sun_acgtpgfybqjmzeyw.tif,75,0.0666666666666667,0.0666666666666667,1.1,7133.104576542,7133.700838042,9,7133.168886084,7133.237904209,7133.7277575,7134.821138542,1,0.596261499999855
125,9,8,categorization,0,bathroom,SHINEd_sun_aavhrsfjbserjtht.tif,13,0.0666666666666667,0.0666666666666667,1.38333333333333,7134.831001042,7135.9014305,13,7134.896381417,7134.963990417,7135.918110834,7137.294825917,1,1.07042945800004
125,10,8,categorization,0,kitchen,SHINEd_sun_agzzivivdpnawacl.tif,89,0.0666666666666667,0.0666666666666667,0.766666666666667,7137.306256875,7138.302347959,13,7137.369916125,7137.436164625,7138.32639075,7139.086417084,0,0.996091084
125,11,8,categorization,0,bathroom,SHINEd_sun_aleqenyvunhactkl.tif,32,0.0666666666666667,0.0666666666666667,1.45,7139.09640575,7139.892519584,13,7139.162615125,7139.226572334,7139.912089917,7141.355467459,1,0.796113834000607
125,12,8,categorization,0,bathroom,SHINEd_sun_aunuadmjocsddsrl.tif,52,0.0666666666666667,0.0666666666666667,0.983333333333333,7141.368871667,7142.136297917,9,7141.437894167,7141.501811709,7142.158858334,7143.135530959,0,0.767426249999517
125,13,8,categorization,0,kitchen,SHINEd_labelme_kxvouciolcpqplr.tif,62,0.0666666666666667,0.0666666666666667,0.716666666666667,7143.143012209,7143.940411,9,7143.20490725,7143.2659255,7143.951128667,7144.661134709,1,0.797398790999978
125,14,8,categorization,0,bathroom,SHINEd_sun_auzqhkafidnkrwmo.tif,54,0.0666666666666667,0.0666666666666667,1.41666666666667,7144.66670525,7145.404177167,13,7144.728497542,7144.789387792,7145.407878667,7146.817916334,1,0.737471917000221
125,15,8,categorization,0,bathroom,SHINEd_sun_agyqfjcfkdcydepw.tif,25,0.0666666666666667,0.0666666666666667,1.21666666666667,7146.83493525,7147.809849417,9,7146.901274625,7146.967651875,7147.823314792,7149.033347375,0,0.974914166999952
125,16,8,categorization,0,kitchen,SHINEd_sun_aaxxjlsuzvqlgylf.tif,68,0.0666666666666667,0.0666666666666667,1.61666666666667,7149.050036292,7149.752352042,9,7149.115004125,7149.18314425,7149.773211459,7151.383244042,1,0.702315749999798
125,17,8,categorization,0,bathroom,SHINEd_sun_axyrejkiiaqiurjk.tif,59,0.0666666666666667,0.0666666666666667,0.783333333333333,7151.397711875,7152.501663917,9,7151.46571175,7151.530689542,7152.520930667,7153.297603375,0,1.10395204199995
125,18,8,categorization,0,kitchen,SHINEd_sun_aegoxogugdkwpmpj.tif,80,0.0666666666666667,0.0666666666666667,1.98333333333333,7153.303386125,7154.236392,9,7153.365218084,7153.426153209,7154.245239292,7156.221956459,1,0.933005875000163
125,19,8,categorization,0,kitchen,SHINEd_sun_avszsnwsbuqfgzbn.tif,105,0.0666666666666667,0.0666666666666667,0.983333333333333,7156.23996425,7156.928406167,9,7156.306944417,7156.372811917,7156.94560675,7157.922279542,1,0.688441916999182
125,20,8,categorization,0,bathroom,SHINEd_sun_acduarbnmmoglmiv.tif,16,0.0666666666666667,0.0666666666666667,0.8,7157.928066834,7159.291960375,13,7157.98967075,7158.050762167,7159.302817167,7160.096155167,1,1.36389354099992
125,21,8,categorization,0,kitchen,SHINEd_sun_ahywdevtimnqcsln.tif,94,0.0666666666666667,0.0666666666666667,0.733333333333333,7160.101552792,7160.867989959,9,7160.163226042,7160.224229042,7160.876573209,7161.603247,1,0.766437166999822
125,22,8,categorization,0,kitchen,SHINEd_labelme_rykdqxenmhulbdn.tif,63,0.0666666666666667,0.0666666666666667,0.966666666666667,7161.609159917,7162.723520042,9,7161.6710275,7161.731894417,7162.733752834,7163.693758875,1,1.11436012499962
125,23,8,categorization,0,kitchen,SHINEd_sun_amjjdeyrggfqgmom.tif,100,0.0666666666666667,0.0666666666666667,0.866666666666667,7163.69921275,7164.564571209,9,7163.760987375,7163.822212584,7164.574359125,7165.434363875,1,0.865358459000163
125,24,8,categorization,0,kitchen,SHINEd_sun_aamedkxepzlwuxes.tif,65,0.0666666666666667,0.0666666666666667,1.23333333333333,7165.439367709,7166.1963785,9,7165.501174917,7165.562082625,7166.214602792,7167.441304792,1,0.75701079099963
125,25,8,categorization,0,kitchen,SHINEd_sun_ahpczsiumwwocjkv.tif,92,0.0666666666666667,0.0666666666666667,1.9,7167.456180584,7168.118340125,9,7167.522922584,7167.584950917,7168.141793625,7170.035166917,1,0.66215954099971
125,26,8,categorization,0,kitchen,SHINEd_sun_acxkpeoqbwcxfvip.tif,77,0.0666666666666667,0.0666666666666667,0.866666666666667,7170.053457709,7170.869473042,9,7170.120689667,7170.186137542,7170.892840042,7171.752846584,1,0.816015332999996
125,27,8,categorization,0,kitchen,SHINEd_sun_awcpdzzznmweyyhv.tif,106,0.0666666666666667,0.0666666666666667,0.966666666666667,7171.759303209,7173.115744167,9,7171.8211065,7171.881956209,7173.1342915,7174.094299625,1,1.35644095800035
125,28,8,categorization,0,bathroom,SHINEd_sun_abjtwfukuwddzted.tif,15,0.0666666666666667,0.0666666666666667,0.916666666666667,7174.099905917,7175.387450709,13,7174.161554209,7174.222631584,7175.3914125,7176.30141925,1,1.28754479200052
125,29,8,categorization,0,kitchen,SHINEd_sun_auticobqsbwgoppi.tif,104,0.0666666666666667,0.0666666666666667,0.916666666666667,7176.306727375,7177.019955667,9,7176.368414584,7176.429480542,7177.031670417,7177.941676834,1,0.713228292000167
125,30,8,categorization,0,bathroom,SHINEd_sun_apynckhmoftszqoq.tif,47,0.0666666666666667,0.0666666666666667,1.4,7177.947291959,7178.884067292,13,7178.008962125,7178.07000025,7178.8890255,7180.282412625,1,0.936775332999787
125,31,8,categorization,0,kitchen,SHINEd_sun_agubuxuukhzyzpdp.tif,88,0.0666666666666667,0.0666666666666667,1.75,7180.299765167,7180.926515375,9,7180.367788042,7180.432361834,7180.955695792,7182.699072084,1,0.626750207999976
125,32,8,categorization,0,bathroom,SHINEd_sun_axxbkopsgyouuebh.tif,58,0.0666666666666667,0.0666666666666667,1.25,7182.7117895,7183.449052875,13,7182.778497084,7182.844348209,7183.466642417,7184.710023625,1,0.737263375000111
125,33,8,categorization,0,bathroom,SHINEd_sun_aggnnqpdorgxpvce.tif,21,0.0666666666666667,0.0666666666666667,1.05,7184.727770167,7185.446721125,9,7184.794425625,7184.860668959,7185.466351209,7186.509727667,0,0.718950958000278
125,34,8,categorization,0,bathroom,SHINEd_sun_afcoljnjfoxjtgja.tif,20,0.0666666666666667,0.0666666666666667,1.06666666666667,7186.524249917,7187.331940875,9,7186.587174459,7186.647820459,7187.349693792,7188.409728959,0,0.807690958000421
125,35,8,categorization,0,bathroom,SHINEd_sun_alotolagknyrgtsk.tif,35,0.0666666666666667,0.0666666666666667,1.21666666666667,7188.420728959,7189.119163375,9,7188.485459084,7188.550975292,7189.138954792,7190.349007292,0,0.698434416000055
125,36,8,categorization,0,kitchen,SHINEd_sun_acfmftudsenhrfhy.tif,74,0.0666666666666667,0.0666666666666667,0.95,7190.364000209,7191.060002334,9,7190.430714417,7190.489817959,7191.075176709,7192.01851675,1,0.696002125000632
125,37,8,categorization,0,kitchen,SHINEd_sun_ajkqhtgcbgpcwrwn.tif,97,0.0666666666666667,0.0666666666666667,0.9,7192.026496917,7193.108070667,9,7192.088230042,7192.149423792,7193.117947834,7194.011287167,1,1.08157374999973
125,38,8,categorization,0,kitchen,SHINEd_sun_abrcnpqqhmjwekyf.tif,73,0.0666666666666667,0.0666666666666667,1.78333333333333,7194.017074417,7194.740263417,9,7194.078880292,7194.13990125,7194.758364417,7196.535064875,1,0.723189000000275
125,39,8,categorization,0,bathroom,SHINEd_sun_apjevzvycyhuqghb.tif,43,0.0666666666666667,0.0666666666666667,1.16666666666667,7196.553013625,7197.462935625,9,7196.619668209,7196.685538042,7197.491946167,7198.651998875,0,0.909921999999824
125,40,8,categorization,0,bathroom,SHINEd_sun_aofnryafpsjimzsb.tif,40,0.0666666666666667,0.0666666666666667,0.783333333333333,7198.663699209,7199.646979417,13,7198.730228667,7198.796278667,7199.670092334,7200.446815792,1,0.983280207999996
125,41,8,categorization,0,bathroom,SHINEd_sun_agguqiubmwhqqunb.tif,22,0.0666666666666667,0.0666666666666667,1.23333333333333,7200.463057,7201.348117459,9,7200.529625167,7200.587333792,7201.356071,7202.582778834,0,0.88506045899976
125,42,8,categorization,0,kitchen,SHINEd_sun_ahdycvpopffkzzsu.tif,90,0.0666666666666667,0.0666666666666667,0.9,7202.599542875,7203.760040625,9,7202.666368209,7202.732147625,7203.788294667,7204.681634834,1,1.1604977500001
125,43,8,categorization,0,kitchen,SHINEd_sun_abdenxonkemggwsq.tif,69,0.0666666666666667,0.0666666666666667,0.7,7204.687117334,7206.37169275,9,7204.748889667,7204.809794,7206.379338375,7207.072676792,1,1.68457541600037
125,44,8,categorization,0,bathroom,SHINEd_sun_akiytfaagpdsphgz.tif,31,0.0666666666666667,0.0666666666666667,1.23333333333333,7207.078263084,7207.963554334,9,7207.140125542,7207.200980167,7207.96976025,7209.196467417,0,0.885291249999682
125,45,8,categorization,0,kitchen,SHINEd_sun_aggjlwcdjsjcaemh.tif,86,0.0666666666666667,0.0666666666666667,1,7209.213326417,7210.639345875,9,7209.279867875,7209.341723125,7210.667596209,7211.660935167,1,1.42601945800016
125,46,8,categorization,0,bathroom,SHINEd_sun_awnqiikzaispgmwo.tif,56,0.0666666666666667,0.0666666666666667,1.38333333333333,7211.666720542,7212.692209542,13,7211.728320292,7211.789552792,7212.70866825,7214.085376792,1,1.02548899999965
125,47,8,categorization,0,bathroom,SHINEd_sun_aghyqhbptboemmoq.tif,23,0.0666666666666667,0.0666666666666667,1.3,7214.10172925,7214.94696375,13,7214.169234,7214.234400292,7214.974825792,7216.268212417,1,0.845234499999606
125,48,8,categorization,0,bathroom,SHINEd_sun_apeeialkgkuxddgh.tif,42,0.0666666666666667,0.0666666666666667,0.833333333333333,7216.28598525,7217.024019,13,7216.352448917,7216.41873075,7217.041155084,7217.867864792,1,0.738033750000795
125,49,8,categorization,0,kitchen,SHINEd_sun_abdxkyyxwfskuaqb.tif,70,0.0666666666666667,0.0666666666666667,0.95,7217.885514167,7218.58820925,9,7217.952278959,7218.017020584,7218.602638542,7219.545978792,1,0.702695082999526
125,50,8,categorization,0,kitchen,SHINEd_sun_ajcbwwvdlsvjyzje.tif,96,0.0666666666666667,0.0666666666666667,1.43333333333333,7219.551561792,7220.348091042,13,7219.613291167,7219.674319209,7220.359690709,7221.786407167,0,0.796529250000276
125,1,9,categorization,0,kitchen,SHINEd_sun_aarfiyshqohlwkmo.tif,67,0.0666666666666667,0.0666666666666667,1.08333333333333,7226.416893959,7227.307766042,9,7226.479315875,7226.539781292,7227.324841167,7228.401544459,1,0.890872083000431
125,2,9,categorization,0,kitchen,SHINEd_sun_agzzivivdpnawacl.tif,89,0.0666666666666667,0.0666666666666667,0.8,7228.413007584,7229.166499959,13,7228.477984,7228.544998834,7229.183924917,7229.977298792,0,0.753492374999951
125,3,9,categorization,0,kitchen,SHINEd_sun_aqeaevwwwjoqhzvl.tif,101,0.0666666666666667,0.0666666666666667,0.833333333333333,7229.993870709,7230.731682792,9,7230.0603235,7230.126582459,7230.745804834,7231.572476875,1,0.73781208300079
125,4,9,categorization,0,bathroom,SHINEd_sun_apmqjbnwghzuhhzh.tif,46,0.0666666666666667,0.0666666666666667,1.45,7231.577557834,7232.267702459,13,7231.639297875,7231.700195709,7232.285425459,7233.728803917,1,0.690144625000357
125,5,9,categorization,0,kitchen,SHINEd_sun_aggjlwcdjsjcaemh.tif,86,0.0666666666666667,0.0666666666666667,1.3,7233.745577792,7234.413424292,9,7233.812411709,7233.878079334,7234.434367375,7235.727751167,1,0.667846499999541
125,6,9,categorization,0,bathroom,SHINEd_sun_anryaplzeujmzfkd.tif,39,0.0666666666666667,0.0666666666666667,1.21666666666667,7235.746177584,7237.264667,13,7235.813111667,7235.878933917,7237.288003167,7238.4980385,1,1.51848941600019
125,7,9,categorization,0,bathroom,SHINEd_sun_apjevzvycyhuqghb.tif,43,0.0666666666666667,0.0666666666666667,0.733333333333333,7238.513976167,7239.35707975,9,7238.580468084,7238.647217,7239.368247584,7240.094961834,0,0.843103582999902
125,8,9,categorization,0,kitchen,SHINEd_sun_aypmqwcualkenuoe.tif,109,0.0666666666666667,0.0666666666666667,1.03333333333333,7240.110948042,7240.820075042,9,7240.177230834,7240.243878917,7240.829435709,7241.856145625,1,0.70912700000008
125,9,9,categorization,0,kitchen,SHINEd_sun_akchetnepxlcxhsu.tif,98,0.0666666666666667,0.0666666666666667,1.1,7241.868112084,7242.975581667,9,7241.932293834,7241.999716167,7242.987624167,7244.080989459,1,1.10746958300024
125,10,9,categorization,0,bathroom,SHINEd_sun_aspsyogrekjtfozg.tif,50,0.0666666666666667,0.0666666666666667,1.25,7244.092848792,7244.815440917,13,7244.15777225,7244.225424209,7244.8307775,7246.074160417,1,0.722592125000119
125,11,9,categorization,0,bathroom,SHINEd_sun_agguqiubmwhqqunb.tif,22,0.0666666666666667,0.0666666666666667,1.4,7246.088332292,7246.866942584,9,7246.155049459,7246.220761542,7246.894189167,7248.287558792,0,0.778610291999939
125,12,9,categorization,0,kitchen,SHINEd_sun_aehawpgmrlhlvcow.tif,81,0.0666666666666667,0.0666666666666667,1.43333333333333,7248.304666334,7249.004615417,9,7248.372432209,7248.437264917,7249.02730225,7250.454009084,1,0.69994908300032
125,13,9,categorization,0,bathroom,SHINEd_sun_apynckhmoftszqoq.tif,47,0.0666666666666667,0.0666666666666667,1.26666666666667,7250.471090959,7251.141246042,13,7250.538156209,7250.60423425,7251.160100334,7252.420154292,1,0.670155082999372
125,14,9,categorization,0,bathroom,SHINEd_sun_aoybiabnpadelefl.tif,41,0.0666666666666667,0.0666666666666667,0.916666666666667,7252.437993,7253.099160959,9,7252.500665834,7252.560779834,7253.1125625,7254.022568,0,0.661167959000522
125,15,9,categorization,0,bathroom,SHINEd_sun_alkosphxlxwjwgjd.tif,34,0.0666666666666667,0.0666666666666667,1.05,7254.028307375,7254.90760625,13,7254.090238792,7254.150996042,7254.919651292,7255.963028959,1,0.879298875000131
125,16,9,categorization,0,bathroom,SHINEd_sun_axyrejkiiaqiurjk.tif,59,0.0666666666666667,0.0666666666666667,1.53333333333333,7255.975816459,7256.908421792,9,7256.041136459,7256.1069195,7256.929942292,7258.456643709,0,0.932605332999628
125,17,9,categorization,0,kitchen,SHINEd_sun_ahljzhgcdpomplvg.tif,91,0.0666666666666667,0.0666666666666667,1.11666666666667,7258.47451575,7259.377324959,9,7258.541235417,7258.607125334,7259.396534625,7260.506579584,1,0.902809209000225
125,18,9,categorization,0,bathroom,SHINEd_sun_abjtwfukuwddzted.tif,15,0.0666666666666667,0.0666666666666667,1.05,7260.516652667,7261.3505735,13,7260.581364875,7260.649344417,7261.370691459,7262.414072542,1,0.833920832999866
125,19,9,categorization,0,bathroom,SHINEd_sun_ahijqszoswveeyji.tif,28,0.0666666666666667,0.0666666666666667,1.66666666666667,7262.422009542,7263.652050459,9,7262.483815042,7262.544737875,7263.663307,7265.323362667,0,1.23004091700022
125,20,9,categorization,0,bathroom,SHINEd_sun_avhrdrntsqrjzccq.tif,55,0.0666666666666667,0.0666666666666667,1.98333333333333,7265.332976042,7266.243474625,9,7265.399746667,7265.46583575,7266.272282834,7268.248994292,0,0.910498582999935
125,21,9,categorization,0,kitchen,SHINEd_sun_agubuxuukhzyzpdp.tif,88,0.0666666666666667,0.0666666666666667,1.06666666666667,7268.265911417,7268.973632,9,7268.332316167,7268.398732167,7268.987234709,7270.047275209,1,0.707720583000082
125,22,9,categorization,0,kitchen,SHINEd_sun_ahpczsiumwwocjkv.tif,92,0.0666666666666667,0.0666666666666667,1.31666666666667,7270.059353334,7270.813147542,9,7270.124570625,7270.190402209,7270.82970875,7272.139743834,1,0.753794207999817
125,23,9,categorization,0,kitchen,SHINEd_sun_auaiucuqpdausiva.tif,102,0.0666666666666667,0.0666666666666667,1.78333333333333,7272.151554375,7272.810752292,9,7272.216479167,7272.283146917,7272.839653084,7274.616353417,1,0.659197916999801
