sub_num,trial,block,task,is_practice,category,image,texture,duration,mask_dur,jitter,stim_time,time_of_resp,trial_response,mask_time,fix_time,jit_onset,trial_end,trial_accuracy,RT
101,1,10,categorization,0,bathroom,SHINEd_sun_ahqjwnzgolcaoidx.tif,29,0.0833333333333333,0.0666666666666667,1.61666666666667,1705.381352625,1706.18859,13,1705.460649583,1705.520821625,1706.205915791,1707.815953666,NaN,NaN
101,2,10,categorization,0,bathroom,SHINEd_sun_aghyqhbptboemmoq.tif,23,0.0833333333333333,0.0666666666666667,0.833333333333333,1707.833344125,1708.401740208,13,1707.916438708,1707.978908041,1708.418151333,1709.244865625,NaN,NaN
101,3,10,categorization,0,bathroom,SHINEd_sun_apkxzenqapsujocq.tif,45,0.0833333333333333,0.0666666666666667,0.916666666666667,1709.260817875,1709.86958425,13,1709.339949458,1709.400216541,1709.885200875,1710.795206875,NaN,NaN
101,4,10,categorization,0,kitchen,SHINEd_sun_abrcnpqqhmjwekyf.tif,73,0.0833333333333333,0.0666666666666667,1.58333333333333,1710.800661958,1711.31761875,13,1710.879034833,1710.940011666,1711.325103916,1712.90181975,NaN,NaN
101,5,10,categorization,0,kitchen,SHINEd_sun_aenotlpyftoioydp.tif,82,0.0833333333333333,0.0666666666666667,1.38333333333333,1712.918483041,1713.5817,9,1713.00154125,1713.067628958,1713.607203875,1714.983904458,NaN,NaN
101,6,10,categorization,0,kitchen,SHINEd_sun_akchetnepxlcxhsu.tif,98,0.0833333333333333,0.0666666666666667,1.53333333333333,1714.997123208,1715.750381041,13,1715.080380125,1715.146340833,1715.769022541,1717.295724958,NaN,NaN
101,7,10,categorization,0,bathroom,SHINEd_sun_axxbkopsgyouuebh.tif,58,0.0833333333333333,0.0666666666666667,0.833333333333333,1717.309078083,1717.829450708,13,1717.392167041,1717.458749375,1717.847654041,1718.674367125,NaN,NaN
101,8,10,categorization,0,bathroom,SHINEd_sun_aleqenyvunhactkl.tif,32,0.0833333333333333,0.0666666666666667,1.88333333333333,1718.689743041,1719.228541958,13,1718.7728225,1718.838934208,1719.241019333,1721.117736583,NaN,NaN
101,9,10,categorization,0,bathroom,SHINEd_sun_aljolscmmzydegqp.tif,33,0.0833333333333333,0.0666666666666667,0.833333333333333,1721.133812125,1721.665489833,13,1721.216637791,1721.283088375,1721.689392958,1722.516069291,NaN,NaN
101,10,10,categorization,0,bathroom,SHINEd_sun_agguqiubmwhqqunb.tif,22,0.0833333333333333,0.0666666666666667,1.4,1722.521849166,1723.076814083,13,1722.600164291,1722.661265791,1723.09630975,1724.48969575,NaN,NaN
101,11,10,categorization,0,kitchen,SHINEd_sun_abdxkyyxwfskuaqb.tif,70,0.0833333333333333,0.0666666666666667,0.95,1724.50714875,1725.248336208,9,1724.590213875,1724.656345125,1725.261849416,1726.205191916,NaN,NaN
101,12,10,categorization,0,bathroom,SHINEd_sun_aofnryafpsjimzsb.tif,40,0.0833333333333333,0.0666666666666667,1.16666666666667,1726.211060958,1726.83678675,13,1726.289461708,1726.350595166,1726.852336583,1728.012378416,NaN,NaN
101,13,10,categorization,0,bathroom,SHINEd_sun_aqrpegblszgcoujh.tif,48,0.0833333333333333,0.0666666666666667,1.8,1728.022987083,1728.721609916,13,1728.105964458,1728.171942791,1728.744859708,1730.538231291,NaN,NaN
101,14,10,categorization,0,kitchen,SHINEd_sun_ajcbwwvdlsvjyzje.tif,96,0.0833333333333333,0.0666666666666667,1.53333333333333,1730.553559875,1731.37525725,13,1730.636611125,1730.702954458,1731.392135833,1732.918838291,NaN,NaN
101,15,10,categorization,0,kitchen,SHINEd_sun_agorklincwxrdtga.tif,87,0.0833333333333333,0.0666666666666667,1.48333333333333,1732.933410625,1733.493014416,9,1733.01621625,1733.082479708,1733.522149083,1734.998847041,NaN,NaN
101,16,10,categorization,0,kitchen,SHINEd_sun_adgqasybjyktddhj.tif,78,0.0833333333333333,0.0666666666666667,0.783333333333333,1735.015481416,1735.588363416,9,1735.098752375,1735.1648315,1735.603897625,1736.380614833,NaN,NaN
101,17,10,categorization,0,bathroom,SHINEd_sun_aclfzgynxzxlbepz.tif,19,0.0833333333333333,0.0666666666666667,1.8,1736.398292291,1737.133435833,13,1736.481355833,1736.547496916,1737.150058958,1738.943430375,NaN,NaN
101,18,10,categorization,0,kitchen,SHINEd_sun_azmutvzbxypaceni.tif,110,0.0833333333333333,0.0666666666666667,1.76666666666667,1738.960868375,1739.684648291,9,1739.043735166,1739.109999083,1739.698634125,1741.458680125,NaN,NaN
101,19,10,categorization,0,bathroom,SHINEd_sun_apynckhmoftszqoq.tif,47,0.0833333333333333,0.0666666666666667,1.96666666666667,1741.473345375,1742.085327083,13,1741.556675791,1741.622653958,1742.112203833,1744.072240458,NaN,NaN
101,20,10,categorization,0,bathroom,SHINEd_labelme_sfxiulhjbhlyiyt.tif,11,0.0833333333333333,0.0666666666666667,0.783333333333333,1744.089839041,1744.680594416,13,1744.173196625,1744.239067625,1744.694543541,1745.471216833,NaN,NaN
101,21,10,categorization,0,kitchen,SHINEd_sun_axyyrmzcupyhlivc.tif,107,0.0833333333333333,0.0666666666666667,1.03333333333333,1745.476774083,1746.012828458,13,1745.555190708,1745.616112041,1746.01783525,1747.044534833,NaN,NaN
101,22,10,categorization,0,kitchen,SHINEd_sun_avszsnwsbuqfgzbn.tif,105,0.0833333333333333,0.0666666666666667,0.916666666666667,1747.056040208,1747.737405041,9,1747.1372615,1747.203705833,1747.760330541,1748.670373875,NaN,NaN
101,23,10,categorization,0,kitchen,SHINEd_sun_acxkpeoqbwcxfvip.tif,77,0.0833333333333333,0.0666666666666667,1.66666666666667,1748.685582291,1749.341123541,9,1748.768821375,1748.834610375,1749.353671375,1751.013709833,NaN,NaN
101,24,10,categorization,0,kitchen,SHINEd_sun_awcpdzzznmweyyhv.tif,106,0.0833333333333333,0.0666666666666667,1.76666666666667,1751.031315375,1751.865815083,9,1751.114151583,1751.180540958,1751.887017791,1753.647073291,NaN,NaN
101,25,10,categorization,0,kitchen,SHINEd_sun_ahywdevtimnqcsln.tif,94,0.0833333333333333,0.0666666666666667,1.15,1753.664729625,1754.498760875,9,1753.74787325,1753.814012833,1754.520142625,1755.663530791,NaN,NaN
101,26,10,categorization,0,bathroom,SHINEd_sun_acduarbnmmoglmiv.tif,16,0.0833333333333333,0.0666666666666667,0.883333333333333,1755.673055208,1756.466815291,13,1755.7560655,1755.822514125,1756.495907333,1757.372631208,NaN,NaN
101,27,10,categorization,0,kitchen,SHINEd_sun_ahljzhgcdpomplvg.tif,91,0.0833333333333333,0.0666666666666667,0.733333333333333,1757.388215708,1758.101397625,9,1757.4716195,1757.537435416,1758.106189166,1758.83286125,NaN,NaN
101,28,10,categorization,0,kitchen,SHINEd_sun_ajkqhtgcbgpcwrwn.tif,97,0.0833333333333333,0.0666666666666667,1.71666666666667,1758.838535958,1759.605057833,9,1758.916854291,1758.977868666,1759.613618125,1761.323671958,NaN,NaN
101,29,10,categorization,0,kitchen,SHINEd_sun_aamedkxepzlwuxes.tif,65,0.0833333333333333,0.0666666666666667,1.86666666666667,1761.3361195,1762.34434625,9,1761.419357958,1761.485844666,1762.35787675,1764.21792575,NaN,NaN
101,30,10,categorization,0,kitchen,SHINEd_sun_acgtpgfybqjmzeyw.tif,75,0.0833333333333333,0.0666666666666667,1.5,1764.23344275,1764.85709625,9,1764.317340875,1764.383061625,1764.872710458,1766.366096083,NaN,NaN
101,31,10,categorization,0,kitchen,SHINEd_sun_aymvwlarqodbwuoc.tif,108,0.0833333333333333,0.0666666666666667,1.61666666666667,1766.381683375,1767.008936166,9,1766.465008583,1766.531715791,1767.038319,1768.648368458,NaN,NaN
101,32,10,categorization,0,bathroom,SHINEd_sun_amzlamotzwfkwjco.tif,37,0.0833333333333333,0.0666666666666667,0.95,1768.666436541,1769.241012083,9,1768.750129041,1768.815138875,1769.2541555,1770.197495791,NaN,NaN
101,33,10,categorization,0,bathroom,SHINEd_sun_agrwbmhcpmfuwmsg.tif,24,0.0833333333333333,0.0666666666666667,0.8,1770.20321475,1770.844780125,13,1770.281580541,1770.342600083,1770.861151208,1771.65448825,NaN,NaN
101,34,10,categorization,0,bathroom,SHINEd_sun_azqyogdvyhahyram.tif,60,0.0833333333333333,0.0666666666666667,0.783333333333333,1771.659958083,1772.301194916,13,1771.738382375,1771.799332833,1772.317980666,1773.094651333,NaN,NaN
101,35,10,categorization,0,kitchen,SHINEd_sun_amjjdeyrggfqgmom.tif,100,0.0833333333333333,0.0666666666666667,1.36666666666667,1773.100174083,1773.765101041,9,1773.178489791,1773.239492416,1773.775104708,1775.135147916,NaN,NaN
101,36,10,categorization,0,bathroom,SHINEd_sun_ahcvzmoyaycdoftf.tif,27,0.0833333333333333,0.0666666666666667,0.816666666666667,1775.150993333,1775.711612458,13,1775.234478375,1775.300485333,1775.740024041,1776.550067666,NaN,NaN
101,37,10,categorization,0,bathroom,SHINEd_sun_ahijqszoswveeyji.tif,28,0.0833333333333333,0.0666666666666667,1.81666666666667,1776.565272875,1777.485437083,9,1776.648365541,1776.714330333,1777.500165208,1779.310203458,NaN,NaN
101,38,10,categorization,0,bathroom,SHINEd_sun_aspsyogrekjtfozg.tif,50,0.0833333333333333,0.0666666666666667,0.9,1779.32707175,1779.897347208,13,1779.410029375,1779.475869875,1779.915168208,1780.808508458,NaN,NaN
101,39,10,categorization,0,kitchen,SHINEd_sun_agzzivivdpnawacl.tif,89,0.0833333333333333,0.0666666666666667,1.48333333333333,1780.8141505,1781.532425416,13,1780.892556,1780.953507208,1781.538938708,1783.015651583,NaN,NaN
101,40,10,categorization,0,kitchen,SHINEd_sun_ahdycvpopffkzzsu.tif,90,0.0833333333333333,0.0666666666666667,1.28333333333333,1783.032072916,1783.682171875,9,1783.115260416,1783.181849416,1783.704914583,1784.981612833,NaN,NaN
101,41,10,categorization,0,bathroom,SHINEd_sun_auzqhkafidnkrwmo.tif,54,0.0833333333333333,0.0666666666666667,0.983333333333333,1784.994004291,1785.548335125,13,1785.077536791,1785.140520916,1785.56164375,1786.5383475,NaN,NaN
101,42,10,categorization,0,bathroom,SHINEd_sun_anryaplzeujmzfkd.tif,39,0.0833333333333333,0.0666666666666667,1.31666666666667,1786.556039875,1787.220684208,9,1786.639112708,1786.702282291,1787.237636458,1788.547675708,NaN,NaN
101,43,10,categorization,0,bathroom,SHINEd_sun_awnqiikzaispgmwo.tif,56,0.0833333333333333,0.0666666666666667,0.716666666666667,1788.56779875,1789.105349708,13,1788.650978166,1788.717336458,1789.123154291,1789.833191666,NaN,NaN
101,44,10,categorization,0,kitchen,SHINEd_sun_aeqdocilnnpuvuhx.tif,83,0.0833333333333333,0.0666666666666667,1.51666666666667,1789.848345416,1790.868986166,13,1789.931639,1789.996511083,1790.882416916,1792.392460333,NaN,NaN
101,45,10,categorization,0,kitchen,SHINEd_labelme_kxvouciolcpqplr.tif,62,0.0833333333333333,0.0666666666666667,0.833333333333333,1792.408317708,1793.013584875,9,1792.492272541,1792.557338416,1793.029883791,1793.856592958,NaN,NaN
101,46,10,categorization,0,kitchen,SHINEd_sun_aqeaevwwwjoqhzvl.tif,101,0.0833333333333333,0.0666666666666667,1.28333333333333,1793.872353916,1794.580716875,9,1793.954281291,1794.01492875,1794.600745875,1795.877447291,NaN,NaN
101,47,10,categorization,0,kitchen,SHINEd_sun_aunzlwrbjumxhwdj.tif,103,0.0833333333333333,0.0666666666666667,0.783333333333333,1795.894473791,1796.93544325,9,1795.976474791,1796.043910083,1796.949214166,1797.725889375,NaN,NaN
101,48,10,categorization,0,bathroom,SHINEd_sun_abjtwfukuwddzted.tif,15,0.0833333333333333,0.0666666666666667,1.23333333333333,1797.731695958,1798.325071,13,1797.81029275,1797.871083583,1798.33956025,1799.566277875,NaN,NaN
101,49,10,categorization,0,kitchen,SHINEd_sun_ahpczsiumwwocjkv.tif,92,0.0833333333333333,0.0666666666666667,1.46666666666667,1799.579915125,1800.269756291,9,1799.663253875,1799.729148166,1800.284589708,1801.7446225,NaN,NaN
101,50,10,categorization,0,bathroom,SHINEd_sun_aggnnqpdorgxpvce.tif,21,0.0833333333333333,0.0666666666666667,1.56666666666667,1801.76199775,1802.306542,13,1801.845009833,1801.911292333,1802.334416541,1803.894465458,NaN,NaN
