sub_num,trial,block,task,is_practice,category,image,texture,duration,mask_dur,jitter,stim_time,time_of_resp,trial_response,mask_time,fix_time,jit_onset,trial_end,trial_accuracy,RT
135,1,0,usability,1,bathroom,bathroom_practice3.tif,223,1.5,0,0.983333333333333,6711.939420458,6718.29958275,4,NaN,6718.305950833,6718.324714041,6719.3014465,NaN,NaN
135,2,0,usability,1,bathroom,bathroom_practice4.tif,224,1.5,0,1.78333333333333,6719.307373,6724.332110208,5,NaN,6724.337732458,6724.356118833,6726.132957791,NaN,NaN
135,3,0,usability,1,bathroom,bathroom_practice5.tif,225,1.5,0,1.78333333333333,6726.152353666,6730.556080958,2,NaN,6730.563177458,6730.581594541,6732.358308791,NaN,NaN
135,4,0,usability,1,bathroom,bathroom_practice2.tif,222,1.5,0,1.26666666666667,6732.37418175,6737.931647958,3,NaN,6737.937267666,6737.9556465,6739.215681875,NaN,NaN
135,5,0,usability,1,bathroom,bathroom_practice1.tif,221,1.5,0,1.05,6739.232591,6743.691822916,1,NaN,6743.69742975,6743.715804,6744.759173041,NaN,NaN
135,1,1,usability,0,bathroom,sun_apynckhmoftszqoq.tif,157,1.5,0,1.01666666666667,6752.560006083,6757.059446083,3,NaN,6757.065076375,6757.083350875,6758.093396708,NaN,NaN
135,2,1,usability,0,bathroom,sun_avhrdrntsqrjzccq.tif,165,1.5,0,1.61666666666667,6758.102368708,6760.467305041,7,NaN,6760.4730165,6760.49150875,6762.10154825,NaN,NaN
135,3,1,usability,0,bathroom,sun_apkxzenqapsujocq.tif,155,1.5,0,1.16666666666667,6762.118273791,6765.931334083,1,NaN,6765.937055,6765.955471166,6767.115528666,NaN,NaN
135,4,1,usability,0,bathroom,sun_aoybiabnpadelefl.tif,151,1.5,0,0.983333333333333,6767.124956333,6771.627310625,7,NaN,6771.633480541,6771.651921791,6772.628595958,NaN,NaN
135,5,1,usability,0,bathroom,sun_aggnnqpdorgxpvce.tif,131,1.5,0,0.783333333333333,6772.634073333,6776.011848416,6,NaN,6776.017528833,6776.036010375,6776.812683166,NaN,NaN
135,6,1,usability,0,bathroom,sun_ambriybtogmepttm.tif,146,1.5,0,0.816666666666667,6776.824017375,6780.947540625,3,NaN,6780.953150875,6780.971552833,6781.7815585,NaN,NaN
135,7,1,usability,0,bathroom,sun_agrwbmhcpmfuwmsg.tif,134,1.5,0,1.1,6781.786883458,6785.49974775,5,NaN,6785.505256583,6785.523619041,6786.617009333,NaN,NaN
135,8,1,usability,0,bathroom,sun_amzlamotzwfkwjco.tif,147,1.5,0,1.65,6786.627397125,6790.146971416,4,NaN,6790.152975208,6790.171322833,6791.814696708,NaN,NaN
135,9,1,usability,0,bathroom,sun_afcoljnjfoxjtgja.tif,130,1.5,0,1.13333333333333,6791.831391458,6795.803412041,6,NaN,6795.809004625,6795.827365791,6796.954075708,NaN,NaN
135,10,1,usability,0,bathroom,sun_aofnryafpsjimzsb.tif,150,1.5,0,0.766666666666667,6796.962513166,6800.155535041,6,NaN,6800.161008333,6800.179423041,6800.93942925,NaN,NaN
135,11,1,usability,0,bathroom,sun_apeeialkgkuxddgh.tif,152,1.5,0,1.25,6800.944528833,6805.283697166,2,NaN,6805.289311541,6805.307904625,6806.551270708,NaN,NaN
135,12,1,usability,0,bathroom,sun_aavhrsfjbserjtht.tif,123,1.5,0,1.5,6806.575363708,6810.34735675,3,NaN,6810.353391666,6810.371921333,6811.865293958,NaN,NaN
135,13,1,usability,0,bathroom,labelme_sfxiulhjbhlyiyt.tif,121,1.5,0,1.56666666666667,6811.88309175,6816.651347166,2,NaN,6816.657268541,6816.675595208,6818.235632708,NaN,NaN
135,14,1,usability,0,bathroom,sun_alkosphxlxwjwgjd.tif,144,1.5,0,1.45,6818.254745583,6823.090966041,4,NaN,6823.097952291,6823.116326958,6824.559712958,NaN,NaN
135,15,1,usability,0,bathroom,sun_atstyziqcmkahyxk.tif,161,1.5,0,1.53333333333333,6824.578287125,6828.027558083,1,NaN,6828.033303416,6828.051742083,6829.578449916,NaN,NaN
135,16,1,usability,0,bathroom,sun_aleqenyvunhactkl.tif,142,1.5,0,0.8,6829.596950083,6835.954726541,3,NaN,6835.9610905,6835.979405875,6836.772744583,NaN,NaN
135,17,1,usability,0,bathroom,sun_ahaulkltgpkeeemi.tif,136,1.5,0,0.933333333333333,6836.77802475,6846.099210333,3,NaN,6846.105285416,6846.123895916,6847.050568375,NaN,NaN
135,18,1,usability,0,bathroom,sun_aljolscmmzydegqp.tif,143,1.5,0,1.75,6847.056273333,6851.115475625,4,NaN,6851.121747541,6851.139979166,6852.883345708,NaN,NaN
135,19,1,usability,0,bathroom,sun_ahijqszoswveeyji.tif,138,1.5,0,1.48333333333333,6852.900672791,6856.787117958,5,NaN,6856.794353833,6856.812620958,6858.28933025,NaN,NaN
135,20,1,usability,0,bathroom,sun_aclfzgynxzxlbepz.tif,129,1.5,0,1.03333333333333,6858.304103791,6862.867649125,5,NaN,6862.873739083,6862.8924625,6863.919177541,NaN,NaN
135,21,1,usability,0,bathroom,sun_alotolagknyrgtsk.tif,145,1.5,0,1.23333333333333,6863.929506458,6867.651272416,1,NaN,6867.657180416,6867.675352291,6868.9020605,NaN,NaN
135,22,1,usability,0,bathroom,sun_axxbkopsgyouuebh.tif,168,1.5,0,1.28333333333333,6868.921326583,6876.843272375,2,NaN,6876.849473833,6876.868192416,6878.144903541,NaN,NaN
135,23,1,usability,0,bathroom,sun_ahcvzmoyaycdoftf.tif,137,1.5,0,1.66666666666667,6878.162661833,6882.194857166,4,NaN,6882.200587541,6882.218917916,6883.878958708,NaN,NaN
135,24,1,usability,0,bathroom,sun_aghyqhbptboemmoq.tif,133,1.5,0,1.26666666666667,6883.897170791,6888.3949635,4,NaN,6888.400562833,6888.418957958,6889.678992333,NaN,NaN
135,25,1,usability,0,bathroom,sun_awnqiikzaispgmwo.tif,166,1.5,0,1.4,6889.696282625,6893.80356725,2,NaN,6893.809186916,6893.827503125,6895.220879166,NaN,NaN
135,1,2,usability,0,bathroom,sun_abjtwfukuwddzted.tif,125,1.5,0,1.66666666666667,6899.564174041,6902.786785125,2,NaN,6902.79381125,6902.812144416,6904.472193666,NaN,NaN
135,2,2,usability,0,bathroom,sun_aqrpegblszgcoujh.tif,158,1.5,0,1.85,6904.496189416,6908.178687416,6,NaN,6908.184480291,6908.202804666,6910.046173416,NaN,NaN
135,3,2,usability,0,bathroom,sun_acgyywnybuveqsro.tif,128,1.5,0,1.65,6910.065827125,6913.086646291,7,NaN,6913.116386208,6913.139979125,6914.783356291,NaN,NaN
135,4,2,usability,0,bathroom,sun_azqyogdvyhahyram.tif,170,1.5,0,0.95,6914.802706958,6917.838385208,1,NaN,6917.867668375,6917.891125541,6918.83446325,NaN,NaN
135,5,2,usability,0,bathroom,sun_apmqjbnwghzuhhzh.tif,156,1.5,0,0.783333333333333,6918.842246041,6921.775693833,3,NaN,6921.804536041,6921.827938833,6922.604611041,NaN,NaN
135,6,2,usability,0,bathroom,sun_ajlawzvmubibwbpy.tif,140,1.5,0,1.13333333333333,6922.60947325,6925.411219458,6,NaN,6925.434151416,6925.4593195,6926.586023416,NaN,NaN
135,7,2,usability,0,bathroom,sun_akiytfaagpdsphgz.tif,141,1.5,0,1.63333333333333,6926.594686375,6929.39499825,7,NaN,6929.400507916,6929.418977666,6931.045687833,NaN,NaN
135,8,2,usability,0,bathroom,sun_acduarbnmmoglmiv.tif,126,1.5,0,1.2,6931.0608605,6934.110380916,2,NaN,6934.139823958,6934.163225458,6935.356575875,NaN,NaN
135,9,2,usability,0,bathroom,sun_ahqjwnzgolcaoidx.tif,139,1.5,0,1.71666666666667,6935.365601416,6938.155054083,2,NaN,6938.160714541,6938.1790475,6939.889090666,NaN,NaN
135,10,2,usability,0,bathroom,sun_asfwthctfqerjvxr.tif,159,1.5,0,0.9,6939.903900916,6943.254478291,3,NaN,6943.280344375,6943.302261791,6944.195600291,NaN,NaN
135,11,2,usability,0,bathroom,sun_apjevzvycyhuqghb.tif,153,1.5,0,0.9,6944.206570666,6947.963037791,4,NaN,6947.968480083,6947.986806291,6948.88014375,NaN,NaN
135,12,2,usability,0,bathroom,sun_agguqiubmwhqqunb.tif,132,1.5,0,0.766666666666667,6948.884937291,6953.314448708,4,NaN,6953.320370916,6953.3386635,6954.098667458,NaN,NaN
135,13,2,usability,0,bathroom,sun_acegryoqftbzowsg.tif,127,1.5,0,0.966666666666667,6954.102996833,6958.123018583,5,NaN,6958.128605583,6958.146875916,6959.106880833,NaN,NaN
135,14,2,usability,0,bathroom,sun_apkruvsevgegsdwp.tif,154,1.5,0,0.7,6959.111195083,6962.290599916,2,NaN,6962.297622,6962.31586825,6963.009207458,NaN,NaN
135,15,2,usability,0,bathroom,sun_aunuadmjocsddsrl.tif,162,1.5,0,1.1,6963.013883708,6965.564114041,1,NaN,6965.5901995,6965.612912083,6966.706271083,NaN,NaN
135,16,2,usability,0,bathroom,sun_axyrejkiiaqiurjk.tif,169,1.5,0,1.33333333333333,6966.7247875,6970.531244708,6,NaN,6970.536774,6970.555181791,6971.881893,NaN,NaN
135,17,2,usability,0,bathroom,sun_ausgutylgojavyoq.tif,163,1.5,0,1.15,6971.897964583,6974.642471666,1,NaN,6974.648111291,6974.666354666,6975.809745791,NaN,NaN
135,18,2,usability,0,bathroom,sun_aapitsgbtktqubfy.tif,122,1.5,0,1.28333333333333,6975.819226041,6979.562532291,5,NaN,6979.568239375,6979.586656583,6980.863346958,NaN,NaN
135,19,2,usability,0,bathroom,sun_agyqfjcfkdcydepw.tif,135,1.5,0,1.35,6980.875285416,6985.46646625,6,NaN,6985.472774375,6985.492505708,6986.835889,NaN,NaN
135,20,2,usability,0,bathroom,sun_abapwbhyhkfixyex.tif,124,1.5,0,1.43333333333333,6986.854260625,6990.090390125,4,NaN,6990.096192333,6990.114511666,6991.541222,NaN,NaN
135,21,2,usability,0,bathroom,sun_auzqhkafidnkrwmo.tif,164,1.5,0,0.916666666666667,6991.551587291,6994.802348083,4,NaN,6994.808111875,6994.826486916,6995.736490416,NaN,NaN
135,22,2,usability,0,bathroom,sun_anryaplzeujmzfkd.tif,149,1.5,0,0.766666666666667,6995.74125325,7000.306769291,3,NaN,7000.312308916,7000.330662125,7001.090670208,NaN,NaN
135,23,2,usability,0,bathroom,sun_anhioqovhscjqqwb.tif,148,1.5,0,0.866666666666667,7001.095842125,7003.895106583,5,NaN,7003.922395666,7003.945715,7004.805721125,NaN,NaN
135,24,2,usability,0,bathroom,sun_axldvoqbuvuggfmq.tif,167,1.5,0,0.833333333333333,7004.822927958,7008.002061541,2,NaN,7008.008435208,7008.026814791,7008.853485458,NaN,NaN
135,25,2,usability,0,bathroom,sun_aspsyogrekjtfozg.tif,160,1.5,0,0.75,7008.858004875,7011.418506208,4,NaN,7011.443429583,7011.467202541,7012.21054425,NaN,NaN
