sub_num,trial,block,task,is_practice,category,image,texture,duration,mask_dur,jitter,stim_time,time_of_resp,trial_response,mask_time,fix_time,jit_onset,trial_end,trial_accuracy,RT
124,1,18,categorization,0,kitchen,SHINEd_sun_ahywdevtimnqcsln.tif,94,0.0666666666666667,0.0666666666666667,0.75,3401.199589833,3403.594074416,9,3401.262140875,3401.322338041,3403.6079705,3404.351308125,1,2.39448458299967
124,2,18,categorization,0,bathroom,SHINEd_sun_ahaulkltgpkeeemi.tif,26,0.0666666666666667,0.0666666666666667,1.05,3404.356167666,3405.009665,13,3404.417943875,3404.478765291,3405.013817291,3406.057193958,1,0.653497333999894
124,3,18,categorization,0,bathroom,SHINEd_sun_ausgutylgojavyoq.tif,53,0.0666666666666667,0.0666666666666667,1.08333333333333,3406.068811708,3406.916843166,13,3406.133592541,3406.1985025,3406.936913708,3408.013640208,1,0.84803145800015
124,4,18,categorization,0,kitchen,SHINEd_sun_aenotlpyftoioydp.tif,82,0.0666666666666667,0.0666666666666667,1.78333333333333,3408.026747166,3409.042558666,9,3408.093154791,3408.150828791,3409.052749833,3410.829475708,1,1.01581149999993
124,5,18,categorization,0,bathroom,SHINEd_sun_aleqenyvunhactkl.tif,32,0.0666666666666667,0.0666666666666667,0.733333333333333,3410.846202125,3412.433556666,13,3410.911335083,3410.973624,3412.442658541,3413.169330125,1,1.58735454099997
124,6,18,categorization,0,kitchen,SHINEd_sun_abdenxonkemggwsq.tif,69,0.0666666666666667,0.0666666666666667,0.716666666666667,3413.175551291,3414.521623541,9,3413.237364791,3413.298206583,3414.533846916,3415.243853291,1,1.34607224999991
124,7,18,categorization,0,bathroom,SHINEd_sun_agyqfjcfkdcydepw.tif,25,0.0666666666666667,0.0666666666666667,1.76666666666667,3415.2483615,3416.394125375,13,3415.310156416,3415.370943958,3416.406068125,3418.166107041,1,1.14576387499983
124,8,18,categorization,0,bathroom,SHINEd_sun_aoybiabnpadelefl.tif,41,0.0666666666666667,0.0666666666666667,1.11666666666667,3418.183763416,3419.061658708,9,3418.251863375,3418.316279458,3419.089657,3420.199707125,0,0.877895291999721
124,9,18,categorization,0,kitchen,SHINEd_sun_agubuxuukhzyzpdp.tif,88,0.0666666666666667,0.0666666666666667,0.8,3420.209948666,3420.924538125,9,3420.274859791,3420.3424755,3420.947810791,3421.741186333,1,0.714589458999853
124,10,18,categorization,0,bathroom,SHINEd_sun_azqyogdvyhahyram.tif,60,0.0666666666666667,0.0666666666666667,1.53333333333333,3421.758415083,3422.945946958,13,3421.825293458,3421.891357458,3422.960501375,3424.48721525,1,1.18753187500033
124,11,18,categorization,0,kitchen,SHINEd_sun_aymvwlarqodbwuoc.tif,108,0.0666666666666667,0.0666666666666667,0.966666666666667,3424.505337541,3425.473834833,13,3424.5720485,3424.637448708,3425.4938475,3426.453852791,0,0.968497292000393
124,12,18,categorization,0,kitchen,SHINEd_sun_abpwyqmlzafvklqo.tif,72,0.0666666666666667,0.0666666666666667,1.31666666666667,3426.459512333,3427.866363625,9,3426.521354208,3426.582009,3427.884551875,3429.194603833,1,1.40685129199983
124,13,18,categorization,0,bathroom,SHINEd_sun_amzlamotzwfkwjco.tif,37,0.0666666666666667,0.0666666666666667,1.25,3429.213058,3430.439060333,9,3429.279889458,3429.345670125,3430.472268916,3431.715649166,0,1.226002333
124,14,18,categorization,0,bathroom,SHINEd_sun_axxbkopsgyouuebh.tif,58,0.0666666666666667,0.0666666666666667,0.85,3431.733686125,3432.72330925,13,3431.800898458,3431.86613825,3432.738690083,3433.58203475,1,0.98962312499998
124,15,18,categorization,0,kitchen,SHINEd_sun_aggjlwcdjsjcaemh.tif,86,0.0666666666666667,0.0666666666666667,1.68333333333333,3433.588171458,3434.961752458,9,3433.64992575,3433.710936,3434.979855,3436.656567833,1,1.37358099999983
124,16,18,categorization,0,kitchen,SHINEd_sun_abdxkyyxwfskuaqb.tif,70,0.0666666666666667,0.0666666666666667,1.06666666666667,3436.674182583,3437.758015958,9,3436.741089416,3436.805650958,3437.778853291,3438.83890425,1,1.08383337500027
124,17,18,categorization,0,bathroom,SHINEd_sun_ambriybtogmepttm.tif,36,0.0666666666666667,0.0666666666666667,1.48333333333333,3438.849909416,3439.757489541,9,3438.913861958,3438.980816583,3439.787429125,3441.264141791,0,0.90758012499964
124,18,18,categorization,0,bathroom,SHINEd_sun_apkxzenqapsujocq.tif,45,0.0666666666666667,0.0666666666666667,1.81666666666667,3441.281901041,3441.9807145,13,3441.34893475,3441.41418325,3442.00422475,3443.814259875,1,0.698813459000121
124,19,18,categorization,0,kitchen,SHINEd_sun_auaiucuqpdausiva.tif,102,0.0666666666666667,0.0666666666666667,0.966666666666667,3443.833342958,3445.433445583,9,3443.900465791,3443.965857666,3445.452032125,3446.412036291,1,1.60010262500009
124,20,18,categorization,0,bathroom,SHINEd_sun_auzqhkafidnkrwmo.tif,54,0.0666666666666667,0.0666666666666667,1.6,3446.41683125,3447.265376583,13,3446.478563958,3446.539547,3447.274894041,3448.86826275,1,0.848545332999947
124,21,18,categorization,0,kitchen,SHINEd_sun_awcpdzzznmweyyhv.tif,106,0.0666666666666667,0.0666666666666667,1.28333333333333,3448.886785541,3449.515767916,13,3448.951939583,3449.018942041,3449.542350958,3450.819069916,0,0.628982375000305
124,22,18,categorization,0,kitchen,SHINEd_sun_akcjzhbbjlbogpdi.tif,99,0.0666666666666667,0.0666666666666667,0.9,3450.833344166,3451.580188875,9,3450.900397291,3450.96403675,3451.604395,3452.497765375,1,0.746844709000015
124,23,18,categorization,0,bathroom,SHINEd_sun_aspsyogrekjtfozg.tif,50,0.0666666666666667,0.0666666666666667,1.41666666666667,3452.513909833,3453.26548825,13,3452.578010375,3452.636953416,3453.272243375,3454.682293958,1,0.751578417000019
124,24,18,categorization,0,bathroom,SHINEd_sun_apeeialkgkuxddgh.tif,42,0.0666666666666667,0.0666666666666667,0.8,3454.69434,3455.427202916,13,3454.761099375,3454.826305791,3455.448383166,3456.241766958,1,0.732862916000158
124,25,18,categorization,0,kitchen,SHINEd_sun_ahspylgoovwmwvgk.tif,93,0.0666666666666667,0.0666666666666667,1.05,3456.2586395,3458.409711208,9,3456.325365458,3456.38293575,3458.418585916,3459.461968791,1,2.15107170800002
124,26,18,categorization,0,bathroom,SHINEd_sun_aggnnqpdorgxpvce.tif,21,0.0666666666666667,0.0666666666666667,0.766666666666667,3459.473466083,3460.454399583,9,3459.538435791,3459.604148791,3460.477929083,3461.237992041,0,0.980933499999992
124,27,18,categorization,0,kitchen,SHINEd_sun_aexklacwqwezaorf.tif,84,0.0666666666666667,0.0666666666666667,0.816666666666667,3461.255678333,3462.273578583,9,3461.322757166,3461.387690708,3462.28996,3463.099965083,1,1.01790024999991
124,28,18,categorization,0,bathroom,SHINEd_sun_afcoljnjfoxjtgja.tif,20,0.0666666666666667,0.0666666666666667,0.95,3463.104857541,3464.266069291,9,3463.166671375,3463.227520125,3464.27953925,3465.222877875,0,1.16121174999989
124,29,18,categorization,0,kitchen,SHINEd_sun_acxkpeoqbwcxfvip.tif,77,0.0666666666666667,0.0666666666666667,1.46666666666667,3465.228219291,3466.306319208,9,3465.2901805,3465.350897958,3466.320096083,3467.780155833,1,1.07809991699969
124,30,18,categorization,0,bathroom,SHINEd_sun_apjevzvycyhuqghb.tif,43,0.0666666666666667,0.0666666666666667,0.8,3467.7962695,3468.933340791,9,3467.863210625,3467.928685,3468.950855083,3469.744198,0,1.13707129099976
124,31,18,categorization,0,bathroom,SHINEd_sun_alkosphxlxwjwgjd.tif,34,0.0666666666666667,0.0666666666666667,1.88333333333333,3469.749616416,3470.465555041,13,3469.811398375,3469.872255083,3470.474215166,3472.350921,1,0.71593862499958
124,32,18,categorization,0,bathroom,SHINEd_sun_axldvoqbuvuggfmq.tif,57,0.0666666666666667,0.0666666666666667,1.03333333333333,3472.368704083,3473.221070625,13,3472.435575,3472.501315708,3473.241045041,3474.267748208,1,0.8523665419998
124,33,18,categorization,0,bathroom,SHINEd_sun_aofnryafpsjimzsb.tif,40,0.0666666666666667,0.0666666666666667,0.916666666666667,3474.280849708,3475.46561725,9,3474.345686916,3474.411630291,3475.486361166,3476.396369416,0,1.18476754199992
124,34,18,categorization,0,kitchen,SHINEd_sun_amjjdeyrggfqgmom.tif,100,0.0666666666666667,0.0666666666666667,0.883333333333333,3476.402068291,3477.266280708,9,3476.463762583,3476.524718166,3477.276587916,3478.153259666,1,0.86421241700009
124,35,18,categorization,0,kitchen,SHINEd_sun_aehawpgmrlhlvcow.tif,81,0.0666666666666667,0.0666666666666667,0.983333333333333,3478.1590905,3479.12160175,9,3478.22079925,3478.281682291,3479.133480625,3480.110153416,1,0.962511250000261
124,36,18,categorization,0,kitchen,SHINEd_sun_acwjdupvyjsugpay.tif,76,0.0666666666666667,0.0666666666666667,0.933333333333333,3480.115072041,3481.2175625,9,3480.176819458,3480.237638375,3481.224216291,3482.150887833,1,1.10249045899991
124,37,18,categorization,0,kitchen,SHINEd_sun_afuyedyxivkhecmu.tif,85,0.0666666666666667,0.0666666666666667,0.783333333333333,3482.1563275,3483.161749541,9,3482.218079083,3482.278884333,3483.180677833,3483.957350041,1,1.0054220410002
124,38,18,categorization,0,bathroom,SHINEd_sun_aghyqhbptboemmoq.tif,23,0.0666666666666667,0.0666666666666667,0.85,3483.963035083,3484.634166625,13,3484.02463175,3484.085649333,3484.637837208,3485.481176875,1,0.671131542000239
124,39,18,categorization,0,bathroom,SHINEd_sun_apkruvsevgegsdwp.tif,44,0.0666666666666667,0.0666666666666667,1.7,3485.486994083,3486.033457166,13,3485.548707375,3485.60954975,3486.04502325,3487.73839675,1,0.546463083000162
124,40,18,categorization,0,kitchen,SHINEd_sun_adgqasybjyktddhj.tif,78,0.0666666666666667,0.0666666666666667,1.31666666666667,3487.757705083,3488.6010885,9,3487.824819125,3487.88988475,3488.63013075,3489.940171625,1,0.843383417000041
124,41,18,categorization,0,kitchen,SHINEd_sun_ajkqhtgcbgpcwrwn.tif,97,0.0666666666666667,0.0666666666666667,0.9,3489.960764208,3491.670902875,13,3490.027172875,3490.0931565,3491.702423875,3492.595763833,0,1.71013866700014
124,42,18,categorization,0,bathroom,SHINEd_sun_awnqiikzaispgmwo.tif,56,0.0666666666666667,0.0666666666666667,1.75,3492.601485416,3493.202018958,13,3492.663322541,3492.724071,3493.209266958,3494.952634875,1,0.600533541999994
124,43,18,categorization,0,bathroom,SHINEd_sun_apmqjbnwghzuhhzh.tif,46,0.0666666666666667,0.0666666666666667,1.41666666666667,3494.964592583,3495.687058375,13,3495.031283375,3495.096953833,3495.7030705,3497.1131265,1,0.722465792000094
124,44,18,categorization,0,kitchen,SHINEd_sun_agorklincwxrdtga.tif,87,0.0666666666666667,0.0666666666666667,1.01666666666667,3497.128434708,3498.1014385,9,3497.195281583,3497.260849,3498.116787958,3499.126792333,1,0.973003791999872
124,45,18,categorization,0,kitchen,SHINEd_sun_ahdycvpopffkzzsu.tif,90,0.0666666666666667,0.0666666666666667,1.95,3499.132354666,3500.097888958,9,3499.194146291,3499.255011583,3500.107027916,3502.050412458,1,0.965534292000029
124,46,18,categorization,0,bathroom,SHINEd_sun_agguqiubmwhqqunb.tif,22,0.0666666666666667,0.0666666666666667,0.916666666666667,3502.069168708,3503.194066041,9,3502.136124458,3502.201431041,3503.203991375,3504.113997291,0,1.12489733300026
124,47,18,categorization,0,kitchen,SHINEd_sun_acfmftudsenhrfhy.tif,74,0.0666666666666667,0.0666666666666667,1.08333333333333,3504.11924975,3504.849484166,9,3504.181164291,3504.241684,3504.860173333,3505.936896583,1,0.730234415999803
124,48,18,categorization,0,kitchen,SHINEd_sun_aapllqyqlykszopd.tif,66,0.0666666666666667,0.0666666666666667,1.16666666666667,3505.947558041,3508.185335083,9,3506.013027458,3506.079221708,3508.198399458,3509.3584375,1,2.23777704200029
124,49,18,categorization,0,kitchen,SHINEd_sun_avszsnwsbuqfgzbn.tif,105,0.0666666666666667,0.0666666666666667,1.78333333333333,3509.368673916,3510.267858541,9,3509.435638458,3509.501130541,3510.291368625,3512.068077375,1,0.899184625000089
124,50,18,categorization,0,bathroom,SHINEd_labelme_sfxiulhjbhlyiyt.tif,11,0.0666666666666667,0.0666666666666667,1.2,3512.079587958,3512.650124208,13,3512.146876916,3512.211795125,3512.668032666,3513.8614195,1,0.570536249999805
