sub_num,trial,block,task,is_practice,category,image,texture,duration,mask_dur,jitter,stim_time,time_of_resp,trial_response,mask_time,fix_time,jit_onset,trial_end,trial_accuracy,RT
133,6,0,aesthetic,1,kitchen,kitchen_practice2.tif,227,1.5,0,1.08333333333333,3049.58212625,3053.408473875,2,NaN,3053.413977916,3053.432324541,3054.509068458,NaN,NaN
133,7,0,aesthetic,1,kitchen,kitchen_practice1.tif,226,1.5,0,1.06666666666667,3054.517060708,3057.216628083,1,NaN,3057.222126833,3057.2404905,3058.300574708,NaN,NaN
133,8,0,aesthetic,1,kitchen,kitchen_practice4.tif,229,1.5,0,1.11666666666667,3058.309353416,3060.879578375,5,NaN,3060.885498125,3060.90385275,3062.013911583,NaN,NaN
133,9,0,aesthetic,1,kitchen,kitchen_practice3.tif,228,1.5,0,0.95,3062.022087916,3065.296600041,6,NaN,3065.30209175,3065.320426958,3066.263771083,NaN,NaN
133,10,0,aesthetic,1,kitchen,kitchen_practice5.tif,230,1.5,0,0.9,3066.268222541,3069.015441666,2,NaN,3069.046665291,3069.07035875,3069.963701375,NaN,NaN
133,1,1,aesthetic,0,kitchen,sun_ahljzhgcdpomplvg.tif,201,1.5,0,1.48333333333333,3073.763551583,3076.627479,3,NaN,3076.657134833,3076.680485333,3078.157215916,NaN,NaN
133,2,1,aesthetic,0,kitchen,sun_afuyedyxivkhecmu.tif,195,1.5,0,1.46666666666667,3078.172692875,3080.888043666,5,NaN,3080.893703041,3080.912003,3082.372077166,NaN,NaN
133,3,1,aesthetic,0,kitchen,sun_adgqasybjyktddhj.tif,188,1.5,0,0.766666666666667,3082.381807333,3084.856398583,3,NaN,3084.861914916,3084.880158833,3085.640165,NaN,NaN
133,4,1,aesthetic,0,kitchen,sun_ahpczsiumwwocjkv.tif,202,1.5,0,1.16666666666667,3085.645085125,3088.651308166,6,NaN,3088.676904583,3088.70020725,3089.860296875,NaN,NaN
133,5,1,aesthetic,0,kitchen,sun_agorklincwxrdtga.tif,197,1.5,0,1.6,3089.869889708,3092.320537166,4,NaN,3092.326138666,3092.344401291,3093.937827291,NaN,NaN
133,6,1,aesthetic,0,kitchen,sun_auaiucuqpdausiva.tif,212,1.5,0,1.68333333333333,3093.957502791,3097.687411708,3,NaN,3097.693488541,3097.711904541,3099.388635708,NaN,NaN
133,7,1,aesthetic,0,kitchen,sun_aapllqyqlykszopd.tif,176,1.5,0,1.5,3099.40276525,3103.076951875,2,NaN,3103.093394791,3103.111658125,3104.605068208,NaN,NaN
133,8,1,aesthetic,0,kitchen,sun_awcpdzzznmweyyhv.tif,216,1.5,0,0.833333333333333,3104.624067291,3107.488115416,4,NaN,3107.493668125,3107.512047083,3108.338720875,NaN,NaN
133,9,1,aesthetic,0,kitchen,sun_aadbddgrdsjugojn.tif,174,1.5,0,0.9,3108.343076,3111.000479166,3,NaN,3111.030430041,3111.053380208,3111.946720083,NaN,NaN
133,10,1,aesthetic,0,kitchen,sun_aegoxogugdkwpmpj.tif,190,1.5,0,0.933333333333333,3111.951614916,3116.040463625,1,NaN,3116.046022458,3116.064327541,3116.991001083,NaN,NaN
133,11,1,aesthetic,0,kitchen,sun_abrcnpqqhmjwekyf.tif,183,1.5,0,0.9,3116.995326583,3119.672108833,2,NaN,3119.701212583,3119.724631958,3120.617976,NaN,NaN
133,12,1,aesthetic,0,kitchen,sun_avszsnwsbuqfgzbn.tif,215,1.5,0,0.85,3120.622662375,3122.8952705,4,NaN,3122.92456275,3122.94811475,3123.791455375,NaN,NaN
133,13,1,aesthetic,0,kitchen,labelme_kxvouciolcpqplr.tif,172,1.5,0,1.83333333333333,3123.796168291,3126.354885083,2,NaN,3126.380328125,3126.401963875,3128.228687166,NaN,NaN
133,14,1,aesthetic,0,kitchen,sun_agzzivivdpnawacl.tif,199,1.5,0,0.733333333333333,3128.246346333,3131.152136083,2,NaN,3131.182356125,3131.206411083,3131.933085875,NaN,NaN
133,15,1,aesthetic,0,kitchen,sun_aunzlwrbjumxhwdj.tif,213,1.5,0,1.63333333333333,3131.93783275,3134.700246208,3,NaN,3134.726625541,3134.74943925,3136.376176458,NaN,NaN
133,16,1,aesthetic,0,kitchen,sun_aymvwlarqodbwuoc.tif,218,1.5,0,0.766666666666667,3136.3862655,3139.142888583,3,NaN,3139.172725,3139.196260875,3139.956272416,NaN,NaN
133,17,1,aesthetic,0,kitchen,sun_abpwyqmlzafvklqo.tif,182,1.5,0,1.71666666666667,3139.961426,3142.808308166,3,NaN,3142.838458458,3142.862230791,3144.572306833,NaN,NaN
133,18,1,aesthetic,0,kitchen,sun_abdxkyyxwfskuaqb.tif,180,1.5,0,1.51666666666667,3144.59175725,3147.187570791,4,NaN,3147.216892166,3147.240209208,3148.750275291,NaN,NaN
133,19,1,aesthetic,0,kitchen,sun_aaxxjlsuzvqlgylf.tif,178,1.5,0,1.25,3148.770301666,3151.327360208,6,NaN,3151.333350416,3151.351823583,3152.595228,NaN,NaN
133,20,1,aesthetic,0,kitchen,sun_azmutvzbxypaceni.tif,220,1.5,0,1.41666666666667,3152.613872166,3155.119492041,4,NaN,3155.125214,3155.143801416,3156.553887291,NaN,NaN
133,21,1,aesthetic,0,kitchen,sun_axyyrmzcupyhlivc.tif,217,1.5,0,1.1,3156.572974708,3159.223706583,3,NaN,3159.229309458,3159.247868875,3160.34127575,NaN,NaN
133,22,1,aesthetic,0,kitchen,sun_ajkqhtgcbgpcwrwn.tif,207,1.5,0,0.95,3160.350423625,3163.76822875,3,NaN,3163.773788875,3163.791992541,3164.73533275,NaN,NaN
133,23,1,aesthetic,0,kitchen,sun_aamedkxepzlwuxes.tif,175,1.5,0,1.45,3164.739557041,3167.447247916,2,NaN,3167.471604208,3167.495104166,3168.938496791,NaN,NaN
133,24,1,aesthetic,0,kitchen,sun_akcjzhbbjlbogpdi.tif,209,1.5,0,0.883333333333333,3168.956868,3172.03937525,3,NaN,3172.04533975,3172.063694333,3172.940371958,NaN,NaN
133,25,1,aesthetic,0,kitchen,sun_ahywdevtimnqcsln.tif,204,1.5,0,1.23333333333333,3172.944859,3175.795311916,3,NaN,3175.824769,3175.848019916,3177.074752041,NaN,NaN
133,1,2,aesthetic,0,kitchen,sun_aeqdocilnnpuvuhx.tif,193,1.5,0,1.78333333333333,3181.036163875,3183.615401375,3,NaN,3183.640305875,3183.663611875,3185.440333375,NaN,NaN
133,2,2,aesthetic,0,kitchen,sun_aggjlwcdjsjcaemh.tif,196,1.5,0,1.8,3185.453784083,3187.979003958,2,NaN,3188.0084915,3188.031637791,3189.825052625,NaN,NaN
133,3,2,aesthetic,0,kitchen,sun_aixorpehvfykdynp.tif,205,1.5,0,0.8,3189.847429916,3192.343497458,3,NaN,3192.366172791,3192.386322,3193.179737083,NaN,NaN
133,4,2,aesthetic,0,kitchen,sun_acfmftudsenhrfhy.tif,184,1.5,0,1.01666666666667,3193.196263125,3195.891417,3,NaN,3195.91828075,3195.942530875,3196.952540375,NaN,NaN
133,5,2,aesthetic,0,kitchen,sun_acxkpeoqbwcxfvip.tif,187,1.5,0,0.85,3196.959735625,3199.47924975,4,NaN,3199.485040708,3199.503508791,3200.346853583,NaN,NaN
133,6,2,aesthetic,0,kitchen,sun_admlmbcdswaszruo.tif,189,1.5,0,1.83333333333333,3200.350987625,3203.005265708,5,NaN,3203.034663916,3203.057954166,3204.884706416,NaN,NaN
133,7,2,aesthetic,0,kitchen,sun_aexklacwqwezaorf.tif,194,1.5,0,1.11666666666667,3204.903537625,3207.489472625,4,NaN,3207.519681791,3207.543919791,3208.654006833,NaN,NaN
133,8,2,aesthetic,0,kitchen,sun_agubuxuukhzyzpdp.tif,198,1.5,0,1.88333333333333,3208.662486,3211.28014325,4,NaN,3211.285749125,3211.304087083,3213.180847375,NaN,NaN
133,9,2,aesthetic,0,kitchen,sun_aypmqwcualkenuoe.tif,219,1.5,0,0.916666666666667,3213.201046166,3215.734363583,3,NaN,3215.76265375,3215.786734041,3216.696743583,NaN,NaN
133,10,2,aesthetic,0,kitchen,labelme_rykdqxenmhulbdn.tif,173,1.5,0,1.05,3216.701534166,3219.446513,3,NaN,3219.475776333,3219.498698416,3220.542100583,NaN,NaN
133,11,2,aesthetic,0,kitchen,sun_aqeaevwwwjoqhzvl.tif,211,1.5,0,1.35,3220.550387875,3223.135792416,3,NaN,3223.141303208,3223.160199375,3224.503590958,NaN,NaN
133,12,2,aesthetic,0,kitchen,sun_ahspylgoovwmwvgk.tif,203,1.5,0,1.01666666666667,3224.517150666,3226.759320125,5,NaN,3226.764958,3226.783275625,3227.793333458,NaN,NaN
133,13,2,aesthetic,0,kitchen,sun_aehawpgmrlhlvcow.tif,191,1.5,0,2,3227.801625875,3231.527260166,5,NaN,3231.532981125,3231.551296833,3233.544697666,NaN,NaN
133,14,2,aesthetic,0,kitchen,sun_ahdycvpopffkzzsu.tif,200,1.5,0,0.9,3233.563413166,3236.059223625,1,NaN,3236.085643583,3236.109233958,3237.002574083,NaN,NaN
133,15,2,aesthetic,0,kitchen,sun_akchetnepxlcxhsu.tif,208,1.5,0,1.15,3237.007282916,3239.467855541,3,NaN,3239.492280291,3239.515164041,3240.658567458,NaN,NaN
133,16,2,aesthetic,0,kitchen,sun_abdenxonkemggwsq.tif,179,1.5,0,1.23333333333333,3240.6687895,3243.199185833,3,NaN,3243.20492725,3243.223261958,3244.449984583,NaN,NaN
133,17,2,aesthetic,0,kitchen,sun_ajcbwwvdlsvjyzje.tif,206,1.5,0,1.03333333333333,3244.4614845,3246.879339833,4,NaN,3246.884980625,3246.903309666,3247.930053,NaN,NaN
133,18,2,aesthetic,0,kitchen,sun_acgtpgfybqjmzeyw.tif,185,1.5,0,0.783333333333333,3247.937978625,3250.935876458,2,NaN,3250.941458833,3250.960035333,3251.736711708,NaN,NaN
133,19,2,aesthetic,0,kitchen,sun_acwjdupvyjsugpay.tif,186,1.5,0,0.766666666666667,3251.740961041,3255.215867,4,NaN,3255.221396416,3255.239776333,3255.999787916,NaN,NaN
133,20,2,aesthetic,0,kitchen,sun_auticobqsbwgoppi.tif,214,1.5,0,1.18333333333333,3256.004107291,3258.715787625,2,NaN,3258.741769,3258.765239333,3259.941994375,NaN,NaN
133,21,2,aesthetic,0,kitchen,sun_aenotlpyftoioydp.tif,192,1.5,0,0.7,3259.953558541,3262.895696208,1,NaN,3262.901182791,3262.91951,3263.61285075,NaN,NaN
133,22,2,aesthetic,0,kitchen,labelme_brsyyvweiuaazfr.tif,171,1.5,0,0.7,3263.617121875,3265.867467791,2,NaN,3265.897051833,3265.920896708,3266.6143145,NaN,NaN
133,23,2,aesthetic,0,kitchen,sun_abftihopvusyfakt.tif,181,1.5,0,1.55,3266.628238375,3269.134751458,4,NaN,3269.16596475,3269.188996875,3270.732674416,NaN,NaN
133,24,2,aesthetic,0,kitchen,sun_aarfiyshqohlwkmo.tif,177,1.5,0,1.16666666666667,3270.747284916,3273.335205833,3,NaN,3273.363327875,3273.387020166,3274.547069291,NaN,NaN
133,25,2,aesthetic,0,kitchen,sun_amjjdeyrggfqgmom.tif,210,1.5,0,1.68333333333333,3274.562179416,3276.975500708,5,NaN,3276.980996833,3276.999319125,3278.676072375,NaN,NaN
