slide,sub1,sub2,pairID,trialID,stim1,stim2,instructionsLoop.thisRepN,instructionsLoop.thisTrialN,instructionsLoop.thisN,instructionsLoop.thisIndex,practice.thisRepN,practice.thisTrialN,practice.thisN,practice.thisIndex,trials.thisRepN,trials.thisTrialN,trials.thisN,trials.thisIndex,thisRow.t,notes,preparation.started,preparation.stopped,instructions.started,startResponse.started,slide_img.started,instructions.stopped,startResponse.keys,startResponse.rt,startResponse.duration,trial.started,polygon.started,polygon_2.started,image1.started,image2.started,rating_1.started,question.started,rating_2.started,question_2.started,trial.stopped,stim1pos,stim2pos,block,rating_1.response,rating_1.rt,rating_2.response,rating_2.rt,ITI.started,text.started,text.stopped,ITI.stopped,practice_over.started,text_2.started,space_practice_over.started,practice_over.stopped,space_practice_over.keys,space_practice_over.rt,space_practice_over.duration,breakBlocks.started,breakBlocks.stopped,startBlock.keys,startBlock.started,startBlock.rt,startBlock.duration,end.started,message_end.started,key_resp.started,end.stopped,key_resp.keys,key_resp.rt,key_resp.duration,participant,session,session_number,date,expName,psychopyVersion,frameRate,expStart,
instructions/Slide1.jpg,,,,,,,0,0,0,0,,,,,,,,,0.025438041000029443,,0.0020112079999989874,0.002120750000017324,0.009052666000002318,0.025438041000029443,0.025438041000029443,28.02021037499992,space,27.99456904200008,None,,,,,,,,,,,,,,,,,,,,,,,,,,,,,,,,,,,,,,,,,,202,kitchen,1,2024-03-12_13h09.40.223,image_similarity_rating,2023.2.3,None,2024-03-12 13h09.56.484524 +0100,
instructions/Slide3.jpg,,,,,,,0,1,1,1,,,,,,,,,28.046016624999993,,,,28.02100704099996,28.046016624999993,28.046016624999993,39.441010124999934,space,11.39480516599997,None,,,,,,,,,,,,,,,,,,,,,,,,,,,,,,,,,,,,,,,,,,202,kitchen,1,2024-03-12_13h09.40.223,image_similarity_rating,2023.2.3,None,2024-03-12 13h09.56.484524 +0100,
instructions/Slide4.jpg,,,,,,,0,2,2,2,,,,,,,,,39.46043924999992,,,,39.441511332999994,39.46043924999992,39.46043924999992,39.97564945800002,space,0.5146115830000326,None,,,,,,,,,,,,,,,,,,,,,,,,,,,,,,,,,,,,,,,,,,202,kitchen,1,2024-03-12_13h09.40.223,image_similarity_rating,2023.2.3,None,2024-03-12 13h09.56.484524 +0100,
instructions/Slide5.jpg,,,,,,,0,3,3,3,,,,,,,,,40.00060879099999,,,,39.97716762499999,40.00060879099999,40.00060879099999,63.87788987499994,space,23.877027957999985,None,,,,,,,,,,,,,,,,,,,,,,,,,,,,,,,,,,,,,,,,,,202,kitchen,1,2024-03-12_13h09.40.223,image_similarity_rating,2023.2.3,None,2024-03-12 13h09.56.484524 +0100,
,108,110,practice,8,stimuli/own/kitchen/108_kit.jpg,stimuli/own/kitchen/110_kit.jpg,,,,,0,0,0,7,,,,,64.07780474999993,,,,,,,,,,,63.902674040999955,64.07780474999993,64.07780474999993,64.07780474999993,64.07780474999993,64.07780474999993,64.07780474999993,64.07780474999993,64.07780474999993,93.834140875,7,-7,0,4.0,16.07070525000006,6.0,24.73692608300007,93.83437312499996,93.83671483299997,94.28715629099997,94.11967870799992,,,,,,,,,,,,,,,,,,,,,202,kitchen,1,2024-03-12_13h09.40.223,image_similarity_rating,2023.2.3,None,2024-03-12 13h09.56.484524 +0100,
,110,107,practice,4,stimuli/own/kitchen/110_kit.jpg,stimuli/own/kitchen/107_kit.jpg,,,,,0,1,1,3,,,,,94.28715629099997,,,,,,,,,,,94.12014120799995,94.28715629099997,94.28715629099997,94.28715629099997,94.28715629099997,94.28715629099997,94.28715629099997,94.28715629099997,94.28715629099997,127.95781191599997,-7,7,0,3.0,24.76932245799992,6.0,32.96367016600004,127.95795162499996,127.968695916,128.41749066599994,128.25298354099994,,,,,,,,,,,,,,,,,,,,,202,kitchen,1,2024-03-12_13h09.40.223,image_similarity_rating,2023.2.3,None,2024-03-12 13h09.56.484524 +0100,
,128,108,practice,3,stimuli/own/kitchen/128_kit.jpg,stimuli/own/kitchen/108_kit.jpg,,,,,0,2,2,2,,,,,128.41749066599994,,,,,,,,,,,128.25340362499992,128.41749066599994,128.41749066599994,128.41749066599994,128.41749066599994,128.41749066599994,128.41749066599994,128.41749066599994,128.41749066599994,148.233470333,7,-7,0,3.0,12.41173208300006,4.0,19.0537425,148.23362050000003,148.23638900000003,148.68593054099995,148.520108875,,,,,,,,,,,,,,,,,,,,,202,kitchen,1,2024-03-12_13h09.40.223,image_similarity_rating,2023.2.3,None,2024-03-12 13h09.56.484524 +0100,
,110,133,practice,1,stimuli/own/kitchen/110_kit.jpg,stimuli/own/kitchen/133_kit.jpg,,,,,0,3,3,0,,,,,148.68593054099995,,,,,,,,,,,148.52052737500003,148.68593054099995,148.68593054099995,148.68593054099995,148.68593054099995,148.68593054099995,148.68593054099995,148.68593054099995,148.68593054099995,181.98324074999994,7,-7,0,2.0,27.531499415999974,2.0,32.435159333000115,181.98339099999987,181.98587866600008,182.43609891599988,182.26923345800003,,,,,,,,,,,,,,,,,,,,,202,kitchen,1,2024-03-12_13h09.40.223,image_similarity_rating,2023.2.3,None,2024-03-12 13h09.56.484524 +0100,
,108,133,practice,10,stimuli/own/kitchen/108_kit.jpg,stimuli/own/kitchen/133_kit.jpg,,,,,0,4,4,9,,,,,182.43609891599988,,,,,,,,,,,182.26970612499997,182.43609891599988,182.43609891599988,182.43609891599988,182.43609891599988,182.43609891599988,182.43609891599988,182.43609891599988,182.43609891599988,197.428353291,7,-7,0,3.0,7.805855207999912,2.0,14.137917750000042,197.4284945830001,197.43449225000006,197.88915566599997,197.71919241600006,,,,,,,,,,,,,,,,,,,,,202,kitchen,1,2024-03-12_13h09.40.223,image_similarity_rating,2023.2.3,None,2024-03-12 13h09.56.484524 +0100,
,128,133,practice,6,stimuli/own/kitchen/128_kit.jpg,stimuli/own/kitchen/133_kit.jpg,,,,,0,5,5,5,,,,,197.88915566599997,,,,,,,,,,,197.71969608300003,197.88915566599997,197.88915566599997,197.88915566599997,197.88915566599997,197.88915566599997,197.88915566599997,197.88915566599997,197.88915566599997,216.74032825000006,7,-7,0,5.0,12.975247125000124,3.0,18.043274500000052,216.74047154099992,216.75127529100007,217.20072208299996,217.03556175000006,,,,,,,,,,,,,,,,,,,,,202,kitchen,1,2024-03-12_13h09.40.223,image_similarity_rating,2023.2.3,None,2024-03-12 13h09.56.484524 +0100,
,107,128,practice,7,stimuli/own/kitchen/107_kit.jpg,stimuli/own/kitchen/128_kit.jpg,,,,,0,6,6,6,,,,,217.20072208299996,,,,,,,,,,,217.03598454099995,217.20072208299996,217.20072208299996,217.20072208299996,217.20072208299996,217.20072208299996,217.20072208299996,217.20072208299996,217.20072208299996,233.73781300000007,-7,7,0,5.0,11.836792375000186,4.0,16.200025458000027,233.73795870800006,233.73987612500002,234.18978212500008,234.02321779099987,,,,,,,,,,,,,,,,,,,,,202,kitchen,1,2024-03-12_13h09.40.223,image_similarity_rating,2023.2.3,None,2024-03-12 13h09.56.484524 +0100,
,107,133,practice,9,stimuli/own/kitchen/107_kit.jpg,stimuli/own/kitchen/133_kit.jpg,,,,,0,7,7,8,,,,,234.18978212500008,,,,,,,,,,,234.02363583299996,234.18978212500008,234.18978212500008,234.18978212500008,234.18978212500008,234.18978212500008,234.18978212500008,234.18978212500008,234.18978212500008,342.1113234159999,-7,7,0,5.0,103.94720312499999,2.0,107.78597450000007,342.1114655,342.1171785,342.5747725,342.40174170800003,,,,,,,,,,,,,,,,,,,,,202,kitchen,1,2024-03-12_13h09.40.223,image_similarity_rating,2023.2.3,None,2024-03-12 13h09.56.484524 +0100,
,107,108,practice,5,stimuli/own/kitchen/107_kit.jpg,stimuli/own/kitchen/108_kit.jpg,,,,,0,8,8,4,,,,,342.5747725,,,,,,,,,,,342.40224583299994,342.5747725,342.5747725,342.5747725,342.5747725,342.5747725,342.5747725,342.5747725,342.5747725,358.3613225,7,-7,0,3.0,8.683389292000129,4.0,15.537303957999939,358.36146420800003,358.36745237499997,358.8169772499999,358.651612708,,,,,,,,,,,,,,,,,,,,,202,kitchen,1,2024-03-12_13h09.40.223,image_similarity_rating,2023.2.3,None,2024-03-12 13h09.56.484524 +0100,
,110,128,practice,2,stimuli/own/kitchen/110_kit.jpg,stimuli/own/kitchen/128_kit.jpg,,,,,0,9,9,1,,,,,358.8169772499999,,,,,,,,,,,358.6520676659999,358.8169772499999,358.8169772499999,358.8169772499999,358.8169772499999,358.8169772499999,358.8169772499999,358.8169772499999,358.8169772499999,374.502837333,-7,7,0,2.0,12.642987249999805,5.0,15.550110874999973,374.502979083,374.50488870800007,374.80113295800004,374.78883862500004,,,,,,,,,,,,,,,,,,,,,202,kitchen,1,2024-03-12_13h09.40.223,image_similarity_rating,2023.2.3,None,2024-03-12 13h09.56.484524 +0100,
,,,,,,,,,,,,,,,,,,,,,,,,,,,,,,,,,,,,,,,,,,,,,,,,,,,374.78892474999986,374.80113295800004,374.80113295800004,376.3203285829999,space,1.518880916999933,None,,,,,,,,,,,,,,202,kitchen,1,2024-03-12_13h09.40.223,image_similarity_rating,2023.2.3,None,2024-03-12 13h09.56.484524 +0100,
,104,112,104,104,stimuli/own/kitchen/104_kit.jpg,stimuli/own/kitchen/112_kit.jpg,,,,,,,,,0,0,0,103,376.369396916,,,,,,,,,,,376.65529416599986,376.819293208,376.819293208,376.819293208,376.819293208,376.819293208,376.819293208,376.819293208,376.819293208,416.619150291,-7,7,1,6.0,35.146670833999906,2.0,39.55058691699992,376.36719170799995,376.369396916,376.819293208,376.6552807500001,,,,,,,,376.354723541,376.36689016599996,None,,,,,,,,,,,202,kitchen,1,2024-03-12_13h09.40.223,image_similarity_rating,2023.2.3,None,2024-03-12 13h09.56.484524 +0100,
,103,109,71,71,stimuli/own/kitchen/103_kit.jpg,stimuli/own/kitchen/109_kit.jpg,,,,,,,,,0,1,1,70,416.62505287500005,,,,,,,,,,,416.9181565,417.08455504100004,417.08455504100004,417.08455504100004,417.08455504100004,417.08455504100004,417.08455504100004,417.08455504100004,417.08455504100004,444.59389675,7,-7,1,1.0,11.499028624999937,1.0,27.31339416700007,416.623282333,416.62505287500005,417.08455504100004,416.91814116600005,,,,,,,,416.61972475000005,416.62323466600003,None,,,,,,,,,,,202,kitchen,1,2024-03-12_13h09.40.223,image_similarity_rating,2023.2.3,None,2024-03-12 13h09.56.484524 +0100,
,134,135,568,568,stimuli/own/kitchen/134_kit.jpg,stimuli/own/kitchen/135_kit.jpg,,,,,,,,,0,2,2,567,444.59978349999994,,,,,,,,,,,444.88471808299994,445.050655333,445.050655333,445.050655333,445.050655333,445.050655333,445.050655333,445.050655333,445.050655333,460.6607393329999,-7,7,1,2.0,8.16309970799989,4.0,14.97455600000012,444.597124,444.59978349999994,445.050655333,444.88470395799993,,,,,,,,444.5941188329999,444.5970767499999,None,,,,,,,,,,,202,kitchen,1,2024-03-12_13h09.40.223,image_similarity_rating,2023.2.3,None,2024-03-12 13h09.56.484524 +0100,
,122,140,458,458,stimuli/own/kitchen/122_kit.jpg,stimuli/own/kitchen/140_kit.jpg,,,,,,,,,0,3,3,457,460.6663474159999,,,,,,,,,,,460.95136412499994,461.11914074999993,461.11914074999993,461.11914074999993,461.11914074999993,461.11914074999993,461.11914074999993,461.11914074999993,461.11914074999993,473.406321583,7,-7,1,6.0,8.812922625000056,5.0,12.087608374999945,460.6639725409999,460.6663474159999,461.11914074999993,460.9513472079999,,,,,,,,460.6609621659999,460.66392541599987,None,,,,,,,,,,,202,kitchen,1,2024-03-12_13h09.40.223,image_similarity_rating,2023.2.3,None,2024-03-12 13h09.56.484524 +0100,
,132,137,563,563,stimuli/own/kitchen/132_kit.jpg,stimuli/own/kitchen/137_kit.jpg,,,,,,,,,0,4,4,562,473.41655883300007,,,,,,,,,,,473.701156125,473.86611933300003,473.86611933300003,473.86611933300003,473.86611933300003,473.86611933300003,473.86611933300003,473.86611933300003,473.86611933300003,487.885568583,-7,7,1,2.0,11.283674291999887,1.0,13.833230292000053,473.40953879100005,473.41655883300007,473.86611933300003,473.701142583,,,,,,,,473.40654125000003,473.4094913749999,None,,,,,,,,,,,202,kitchen,1,2024-03-12_13h09.40.223,image_similarity_rating,2023.2.3,None,2024-03-12 13h09.56.484524 +0100,
,125,138,501,501,stimuli/own/kitchen/125_kit.jpg,stimuli/own/kitchen/138_kit.jpg,,,,,,,,,0,5,5,500,487.89070845799995,,,,,,,,,,,488.184419458,488.350224333,488.350224333,488.350224333,488.350224333,488.350224333,488.350224333,488.350224333,488.350224333,499.5366350830001,7,-7,1,4.0,6.82444866600008,5.0,10.762163041000122,487.88878858300006,487.89070845799995,488.350224333,488.1844058749999,,,,,,,,487.88578904100007,487.88874158300007,None,,,,,,,,,,,202,kitchen,1,2024-03-12_13h09.40.223,image_similarity_rating,2023.2.3,None,2024-03-12 13h09.56.484524 +0100,
,114,135,313,313,stimuli/own/kitchen/114_kit.jpg,stimuli/own/kitchen/135_kit.jpg,,,,,,,,,0,6,6,312,499.54197287499994,,,,,,,,,,,499.8345270409999,500.00228283299987,500.00228283299987,500.00228283299987,500.00228283299987,500.00228283299987,500.00228283299987,500.00228283299987,500.00228283299987,523.4022887079999,-7,7,1,2.0,21.225532292000025,5.0,23.37794541700009,499.53997404099994,499.54197287499994,500.00228283299987,499.834509333,,,,,,,,499.536859125,499.5399269159999,None,,,,,,,,,,,202,kitchen,1,2024-03-12_13h09.40.223,image_similarity_rating,2023.2.3,None,2024-03-12 13h09.56.484524 +0100,
,120,126,411,411,stimuli/own/kitchen/120_kit.jpg,stimuli/own/kitchen/126_kit.jpg,,,,,,,,,0,7,7,410,523.407405458,,,,,,,,,,,523.7006083749999,523.870355875,523.870355875,523.870355875,523.870355875,523.870355875,523.870355875,523.870355875,523.870355875,549.743981041,7,-7,1,5.0,5.397711374999972,3.0,25.57407537500012,523.4054932079999,523.407405458,523.870355875,523.7005929159999,,,,,,,,523.4025095410001,523.4054460409999,None,,,,,,,,,,,202,kitchen,1,2024-03-12_13h09.40.223,image_similarity_rating,2023.2.3,None,2024-03-12 13h09.56.484524 +0100,
,129,141,540,540,stimuli/own/kitchen/129_kit.jpg,stimuli/own/kitchen/141_kit.jpg,,,,,,,,,0,8,8,539,549.7491878750001,,,,,,,,,,,550.0346016249999,550.199861083,550.199861083,550.199861083,550.199861083,550.199861083,550.199861083,550.199861083,550.199861083,562.681637583,7,-7,1,1.0,3.5512356660001387,1.0,11.648150083000019,549.7471986249999,549.7491878750001,550.199861083,550.034587708,,,,,,,,549.7442097499999,549.74715175,None,,,,,,,,,,,202,kitchen,1,2024-03-12_13h09.40.223,image_similarity_rating,2023.2.3,None,2024-03-12 13h09.56.484524 +0100,
,116,137,338,338,stimuli/own/kitchen/116_kit.jpg,stimuli/own/kitchen/137_kit.jpg,,,,,,,,,0,9,9,337,562.686866291,,,,,,,,,,,562.97194325,563.14211825,563.14211825,563.14211825,563.14211825,563.14211825,563.14211825,563.14211825,563.14211825,575.826487791,-7,7,1,4.0,8.212898332999885,3.0,12.585907458000065,562.6849215829999,562.686866291,563.14211825,562.9719282909999,,,,,,,,562.6818877909999,562.6848739999999,None,,,,,,,,,,,202,kitchen,1,2024-03-12_13h09.40.223,image_similarity_rating,2023.2.3,None,2024-03-12 13h09.56.484524 +0100,
,120,125,410,410,stimuli/own/kitchen/120_kit.jpg,stimuli/own/kitchen/125_kit.jpg,,,,,,,,,0,10,10,409,575.832421125,,,,,,,,,,,576.117680041,576.2831869579999,576.2831869579999,576.2831869579999,576.2831869579999,576.2831869579999,576.2831869579999,576.2831869579999,576.2831869579999,592.7718248329999,7,-7,1,5.0,6.706258375000061,5.0,16.371967291000146,575.8298021659999,575.832421125,576.2831869579999,576.1176657909999,,,,,,,,575.8267124580001,575.829754583,None,,,,,,,,,,,202,kitchen,1,2024-03-12_13h09.40.223,image_similarity_rating,2023.2.3,None,2024-03-12 13h09.56.484524 +0100,
,121,139,440,440,stimuli/own/kitchen/121_kit.jpg,stimuli/own/kitchen/139_kit.jpg,,,,,,,,,0,11,11,439,592.7827176249999,,,,,,,,,,,593.0673385409999,593.2335668750001,593.2335668750001,593.2335668750001,593.2335668750001,593.2335668750001,593.2335668750001,593.2335668750001,593.2335668750001,607.8553980830001,-7,7,1,4.0,10.276462209000101,4.0,14.42197029099998,592.7750616659999,592.7827176249999,593.2335668750001,593.067323208,,,,,,,,592.77205025,592.775013625,None,,,,,,,,,,,202,kitchen,1,2024-03-12_13h09.40.223,image_similarity_rating,2023.2.3,None,2024-03-12 13h09.56.484524 +0100,
,104,124,115,115,stimuli/own/kitchen/104_kit.jpg,stimuli/own/kitchen/124_kit.jpg,,,,,,,,,0,12,12,114,607.866045291,,,,,,,,,,,608.150577083,608.317624166,608.317624166,608.317624166,608.317624166,608.317624166,608.317624166,608.317624166,608.317624166,621.4017883749999,7,-7,1,6.0,11.34018466700013,2.0,12.949676124999996,607.8586201659999,607.866045291,608.317624166,608.1505566659999,,,,,,,,607.855620708,607.8585729580001,None,,,,,,,,,,,202,kitchen,1,2024-03-12_13h09.40.223,image_similarity_rating,2023.2.3,None,2024-03-12 13h09.56.484524 +0100,
,117,124,349,349,stimuli/own/kitchen/117_kit.jpg,stimuli/own/kitchen/124_kit.jpg,,,,,,,,,0,13,13,348,621.4070097079999,,,,,,,,,,,621.700396291,621.86494725,621.86494725,621.86494725,621.86494725,621.86494725,621.86494725,621.86494725,621.86494725,629.905091166,-7,7,1,4.0,4.4576467079998565,6.0,7.790667624999969,621.4050075829999,621.4070097079999,621.86494725,621.7003820829999,,,,,,,,621.402010791,621.4049596660001,None,,,,,,,,,,,202,kitchen,1,2024-03-12_13h09.40.223,image_similarity_rating,2023.2.3,None,2024-03-12 13h09.56.484524 +0100,
,103,114,75,75,stimuli/own/kitchen/103_kit.jpg,stimuli/own/kitchen/114_kit.jpg,,,,,,,,,0,14,14,74,629.9158408750001,,,,,,,,,,,630.2004773749999,630.3652604999999,630.3652604999999,630.3652604999999,630.3652604999999,630.3652604999999,630.3652604999999,630.3652604999999,630.3652604999999,647.081161833,7,-7,1,3.0,14.366636083000003,2.0,16.653764291000016,629.9083838749999,629.9158408750001,630.3652604999999,630.2004619159999,,,,,,,,629.9053130829999,629.9083366660001,None,,,,,,,,,,,202,kitchen,1,2024-03-12_13h09.40.223,image_similarity_rating,2023.2.3,None,2024-03-12 13h09.56.484524 +0100,
,111,119,224,224,stimuli/own/kitchen/111_kit.jpg,stimuli/own/kitchen/119_kit.jpg,,,,,,,,,0,15,15,223,647.0863504580001,,,,,,,,,,,647.371395,647.5403425000001,647.5403425000001,647.5403425000001,647.5403425000001,647.5403425000001,647.5403425000001,647.5403425000001,647.5403425000001,655.1525067910001,-7,7,1,3.0,5.274281542000153,4.0,7.398208375000195,647.0844303749999,647.0863504580001,647.5403425000001,647.371379625,,,,,,,,647.0813945829999,647.084382833,None,,,,,,,,,,,202,kitchen,1,2024-03-12_13h09.40.223,image_similarity_rating,2023.2.3,None,2024-03-12 13h09.56.484524 +0100,
,112,139,268,268,stimuli/own/kitchen/112_kit.jpg,stimuli/own/kitchen/139_kit.jpg,,,,,,,,,0,16,16,267,655.1575034159999,,,,,,,,,,,655.4505531660001,655.6226532499999,655.6226532499999,655.6226532499999,655.6226532499999,655.6226532499999,655.6226532499999,655.6226532499999,655.6226532499999,663.0679915,7,-7,1,2.0,4.396441916999947,1.0,6.665682958000161,655.1557342909999,655.1575034159999,655.6226532499999,655.450531458,,,,,,,,655.1527307079999,655.1556870410001,None,,,,,,,,,,,202,kitchen,1,2024-03-12_13h09.40.223,image_similarity_rating,2023.2.3,None,2024-03-12 13h09.56.484524 +0100,
,118,124,370,370,stimuli/own/kitchen/118_kit.jpg,stimuli/own/kitchen/124_kit.jpg,,,,,,,,,0,17,17,369,663.0730284580001,,,,,,,,,,,663.367010541,663.538494625,663.538494625,663.538494625,663.538494625,663.538494625,663.538494625,663.538494625,663.538494625,683.871514375,7,-7,1,4.0,17.484548124999947,2.0,20.216444750000164,663.07120875,663.0730284580001,663.538494625,663.366993083,,,,,,,,663.068215833,663.0711621249999,None,,,,,,,,,,,202,kitchen,1,2024-03-12_13h09.40.223,image_similarity_rating,2023.2.3,None,2024-03-12 13h09.56.484524 +0100,
,112,134,263,263,stimuli/own/kitchen/112_kit.jpg,stimuli/own/kitchen/134_kit.jpg,,,,,,,,,0,18,18,262,683.88222125,,,,,,,,,,,684.166850208,684.3325101249999,684.3325101249999,684.3325101249999,684.3325101249999,684.3325101249999,684.3325101249999,684.3325101249999,684.3325101249999,693.342500375,7,-7,1,3.0,6.244074916999807,3.0,8.66395650000004,683.874749708,683.88222125,684.3325101249999,684.1668357909999,,,,,,,,683.871738916,683.8747029580001,None,,,,,,,,,,,202,kitchen,1,2024-03-12_13h09.40.223,image_similarity_rating,2023.2.3,None,2024-03-12 13h09.56.484524 +0100,
,118,132,377,377,stimuli/own/kitchen/118_kit.jpg,stimuli/own/kitchen/132_kit.jpg,,,,,,,,,0,19,19,376,693.3485285830001,,,,,,,,,,,693.633409125,693.7978967079999,693.7978967079999,693.7978967079999,693.7978967079999,693.7978967079999,693.7978967079999,693.7978967079999,693.7978967079999,713.897573958,-7,7,1,7.0,13.16994862499996,5.0,19.086802416999944,693.345734375,693.3485285830001,693.7978967079999,693.633395,,,,,,,,693.342724791,693.3456875410001,None,,,,,,,,,,,202,kitchen,1,2024-03-12_13h09.40.223,image_similarity_rating,2023.2.3,None,2024-03-12 13h09.56.484524 +0100,
,136,139,583,600,stimuli/own/kitchen/136_kit.jpg,stimuli/own/kitchen/139_kit.jpg,,,,,,,,,0,20,20,599,713.902744916,,,,,,,,,,,714.1877672080001,714.3548741660001,714.3548741660001,714.3548741660001,714.3548741660001,714.3548741660001,714.3548741660001,714.3548741660001,714.3548741660001,723.122111708,-7,7,1,5.0,6.2023655830000735,5.0,8.499761791000083,713.9009253329999,713.902744916,714.3548741660001,714.1877538329999,,,,,,,,713.8978202909999,713.9008777079999,None,,,,,,,,,,,202,kitchen,1,2024-03-12_13h09.40.223,image_similarity_rating,2023.2.3,None,2024-03-12 13h09.56.484524 +0100,
,131,138,556,556,stimuli/own/kitchen/131_kit.jpg,stimuli/own/kitchen/138_kit.jpg,,,,,,,,,0,21,21,555,723.132477666,,,,,,,,,,,723.417171833,723.5831267079999,723.5831267079999,723.5831267079999,723.5831267079999,723.5831267079999,723.5831267079999,723.5831267079999,723.5831267079999,731.8808472909999,-7,7,1,3.0,3.4909857919999467,4.0,8.011632541999916,723.1253395,723.132477666,723.5831267079999,723.417157625,,,,,,,,723.12233275,723.125291666,None,,,,,,,,,,,202,kitchen,1,2024-03-12_13h09.40.223,image_similarity_rating,2023.2.3,None,2024-03-12 13h09.56.484524 +0100,
,109,132,209,209,stimuli/own/kitchen/109_kit.jpg,stimuli/own/kitchen/132_kit.jpg,,,,,,,,,0,22,22,208,731.8859537079999,,,,,,,,,,,732.1691977909999,732.330259875,732.330259875,732.330259875,732.330259875,732.330259875,732.330259875,732.330259875,732.330259875,740.0221335,-7,7,1,2.0,4.210460916999864,3.0,7.2836057909999,731.8841368750001,731.8859537079999,732.330259875,732.1691872079999,,,,,,,,731.881088125,731.8840859579999,None,,,,,,,,,,,202,kitchen,1,2024-03-12_13h09.40.223,image_similarity_rating,2023.2.3,None,2024-03-12 13h09.56.484524 +0100,
,101,117,12,12,stimuli/own/kitchen/101_kit.jpg,stimuli/own/kitchen/117_kit.jpg,,,,,,,,,0,23,23,11,740.032015916,,,,,,,,,,,740.3172162909999,740.4832245409999,740.4832245409999,740.4832245409999,740.4832245409999,740.4832245409999,740.4832245409999,740.4832245409999,740.4832245409999,751.864040666,7,-7,1,5.0,3.599298792000127,4.0,8.73163062499998,740.0253724579999,740.032015916,740.4832245409999,740.3172016249999,,,,,,,,740.022353208,740.025323708,None,,,,,,,,,,,202,kitchen,1,2024-03-12_13h09.40.223,image_similarity_rating,2023.2.3,None,2024-03-12 13h09.56.484524 +0100,
,105,121,142,142,stimuli/own/kitchen/105_kit.jpg,stimuli/own/kitchen/121_kit.jpg,,,,,,,,,0,24,24,141,751.8692607080001,,,,,,,,,,,752.1541455,752.322521166,752.322521166,752.322521166,752.322521166,752.322521166,752.322521166,752.322521166,752.322521166,762.072268583,7,-7,1,5.0,6.331072957999822,4.0,9.50126433399987,751.86734175,751.8692607080001,752.322521166,752.154129416,,,,,,,,751.8642899580001,751.8672948750001,None,,,,,,,,,,,202,kitchen,1,2024-03-12_13h09.40.223,image_similarity_rating,2023.2.3,None,2024-03-12 13h09.56.484524 +0100,
,101,120,15,15,stimuli/own/kitchen/101_kit.jpg,stimuli/own/kitchen/120_kit.jpg,,,,,,,,,0,25,25,14,762.0819350410001,,,,,,,,,,,762.3672551660001,762.532897083,762.532897083,762.532897083,762.532897083,762.532897083,762.532897083,762.532897083,762.532897083,779.0175272079999,7,-7,1,3.0,6.690258249999943,4.0,14.363943500000005,762.0755725,762.0819350410001,762.532897083,762.367235,,,,,,,,762.072492333,762.075525541,None,,,,,,,,,,,202,kitchen,1,2024-03-12_13h09.40.223,image_similarity_rating,2023.2.3,None,2024-03-12 13h09.56.484524 +0100,
,126,134,510,510,stimuli/own/kitchen/126_kit.jpg,stimuli/own/kitchen/134_kit.jpg,,,,,,,,,0,26,26,509,779.0225131660001,,,,,,,,,,,779.3165654159999,779.483975166,779.483975166,779.483975166,779.483975166,779.483975166,779.483975166,779.483975166,779.483975166,789.254757458,-7,7,1,2.0,5.352871958000151,7.0,8.91198904199996,779.0207545,779.0225131660001,779.483975166,779.316549,,,,,,,,779.0177513329999,779.0207067079999,None,,,,,,,,,,,202,kitchen,1,2024-03-12_13h09.40.223,image_similarity_rating,2023.2.3,None,2024-03-12 13h09.56.484524 +0100,
,101,132,26,26,stimuli/own/kitchen/101_kit.jpg,stimuli/own/kitchen/132_kit.jpg,,,,,,,,,0,27,27,25,789.265048291,,,,,,,,,,,789.5497892499999,789.7188755409999,789.7188755409999,789.7188755409999,789.7188755409999,789.7188755409999,789.7188755409999,789.7188755409999,789.7188755409999,795.7214143749999,7,-7,1,3.0,3.4850337919999674,6.0,5.816343540999924,789.2580025829999,789.265048291,789.7188755409999,789.5497717909999,,,,,,,,789.2549890829999,789.257955166,None,,,,,,,,,,,202,kitchen,1,2024-03-12_13h09.40.223,image_similarity_rating,2023.2.3,None,2024-03-12 13h09.56.484524 +0100,
,111,126,231,231,stimuli/own/kitchen/111_kit.jpg,stimuli/own/kitchen/126_kit.jpg,,,,,,,,,0,28,28,230,795.731786708,,,,,,,,,,,796.0164617500001,796.183513333,796.183513333,796.183513333,796.183513333,796.183513333,796.183513333,796.183513333,796.183513333,803.3843611660001,-7,7,1,5.0,4.078823915999919,6.0,6.7017579579999165,795.7247034579999,795.731786708,796.183513333,796.016442041,,,,,,,,795.7216347499999,795.7246564579999,None,,,,,,,,,,,202,kitchen,1,2024-03-12_13h09.40.223,image_similarity_rating,2023.2.3,None,2024-03-12 13h09.56.484524 +0100,
,122,130,449,449,stimuli/own/kitchen/122_kit.jpg,stimuli/own/kitchen/130_kit.jpg,,,,,,,,,0,29,29,448,803.389517708,,,,,,,,,,,803.6830241659999,803.8488249579999,803.8488249579999,803.8488249579999,803.8488249579999,803.8488249579999,803.8488249579999,803.8488249579999,803.8488249579999,813.7421229579999,7,-7,1,3.0,5.924416041000086,3.0,9.133271041999933,803.387577541,803.389517708,803.8488249579999,803.6830087909999,,,,,,,,803.3845830829999,803.387529791,None,,,,,,,,,,,202,kitchen,1,2024-03-12_13h09.40.223,image_similarity_rating,2023.2.3,None,2024-03-12 13h09.56.484524 +0100,
,111,138,241,241,stimuli/own/kitchen/111_kit.jpg,stimuli/own/kitchen/138_kit.jpg,,,,,,,,,0,30,30,240,813.7480897080001,,,,,,,,,,,814.0328382910001,814.1973799579999,814.1973799579999,814.1973799579999,814.1973799579999,814.1973799579999,814.1973799579999,814.1973799579999,814.1973799579999,820.970918333,-7,7,1,5.0,3.9199707089999265,6.0,6.361891624999998,813.7454577079999,813.7480897080001,814.1973799579999,814.0328245,,,,,,,,813.742351041,813.7454107909999,None,,,,,,,,,,,202,kitchen,1,2024-03-12_13h09.40.223,image_similarity_rating,2023.2.3,None,2024-03-12 13h09.56.484524 +0100,
,119,130,395,395,stimuli/own/kitchen/119_kit.jpg,stimuli/own/kitchen/130_kit.jpg,,,,,,,,,0,31,31,394,820.981786666,,,,,,,,,,,821.2662225,821.4356912499999,821.4356912499999,821.4356912499999,821.4356912499999,821.4356912499999,821.4356912499999,821.4356912499999,821.4356912499999,849.025353916,-7,7,1,2.0,21.088875833000202,3.0,25.984606084000006,820.974249708,820.981786666,821.4356912499999,821.2661945409999,,,,,,,,820.9711424999999,820.974201958,None,,,,,,,,,,,202,kitchen,1,2024-03-12_13h09.40.223,image_similarity_rating,2023.2.3,None,2024-03-12 13h09.56.484524 +0100,
,125,140,503,503,stimuli/own/kitchen/125_kit.jpg,stimuli/own/kitchen/140_kit.jpg,,,,,,,,,0,32,32,502,849.031179041,,,,,,,,,,,849.316102375,849.486011291,849.486011291,849.486011291,849.486011291,849.486011291,849.486011291,849.486011291,849.486011291,856.691593916,-7,7,1,3.0,4.527845417000208,5.0,6.844868417000043,849.028588666,849.031179041,849.486011291,849.3160819159999,,,,,,,,849.025581,849.028540791,None,,,,,,,,,,,202,kitchen,1,2024-03-12_13h09.40.223,image_similarity_rating,2023.2.3,None,2024-03-12 13h09.56.484524 +0100,
,130,140,549,549,stimuli/own/kitchen/130_kit.jpg,stimuli/own/kitchen/140_kit.jpg,,,,,,,,,0,33,33,548,856.6978435,,,,,,,,,,,856.9827955,857.148664208,857.148664208,857.148664208,857.148664208,857.148664208,857.148664208,857.148664208,857.148664208,866.4882256249999,-7,7,1,6.0,4.1358662499999355,3.0,9.041435207999939,856.694897,856.6978435,857.148664208,856.9827806249999,,,,,,,,856.691814375,856.694849958,None,,,,,,,,,,,202,kitchen,1,2024-03-12_13h09.40.223,image_similarity_rating,2023.2.3,None,2024-03-12 13h09.56.484524 +0100,
,105,126,147,147,stimuli/own/kitchen/105_kit.jpg,stimuli/own/kitchen/126_kit.jpg,,,,,,,,,0,34,34,146,866.498067375,,,,,,,,,,,866.782750041,866.947405041,866.947405041,866.947405041,866.947405041,866.947405041,866.947405041,866.947405041,866.947405041,878.6337702079999,7,-7,1,4.0,6.900002291999954,6.0,11.175826291000021,866.491469791,866.498067375,866.947405041,866.7827356249999,,,,,,,,866.4884511249999,866.491422791,None,,,,,,,,,,,202,kitchen,1,2024-03-12_13h09.40.223,image_similarity_rating,2023.2.3,None,2024-03-12 13h09.56.484524 +0100,
,135,140,579,579,stimuli/own/kitchen/135_kit.jpg,stimuli/own/kitchen/140_kit.jpg,,,,,,,,,0,35,35,578,878.638938083,,,,,,,,,,,878.9328987499999,879.0983625,879.0983625,879.0983625,879.0983625,879.0983625,879.0983625,879.0983625,879.0983625,887.7593378749999,7,-7,1,4.0,6.244331999999986,6.0,8.17658224999991,878.637006416,878.638938083,879.0983625,878.932885541,,,,,,,,878.6339953749999,878.6369586659999,None,,,,,,,,,,,202,kitchen,1,2024-03-12_13h09.40.223,image_similarity_rating,2023.2.3,None,2024-03-12 13h09.56.484524 +0100,
,120,131,415,415,stimuli/own/kitchen/120_kit.jpg,stimuli/own/kitchen/131_kit.jpg,,,,,,,,,0,36,36,414,887.764527958,,,,,,,,,,,888.0489925830001,888.2131115829999,888.2131115829999,888.2131115829999,888.2131115829999,888.2131115829999,888.2131115829999,888.2131115829999,888.2131115829999,892.8141589579999,-7,7,1,2.0,2.781060499999967,5.0,4.507198541999969,887.762620958,887.764527958,888.2131115829999,888.0489785000001,,,,,,,,887.7595714160001,887.7625731249999,None,,,,,,,,,,,202,kitchen,1,2024-03-12_13h09.40.223,image_similarity_rating,2023.2.3,None,2024-03-12 13h09.56.484524 +0100,
,117,137,360,360,stimuli/own/kitchen/117_kit.jpg,stimuli/own/kitchen/137_kit.jpg,,,,,,,,,0,37,37,359,892.819554583,,,,,,,,,,,893.1035627079999,893.2709492079999,893.2709492079999,893.2709492079999,893.2709492079999,893.2709492079999,893.2709492079999,893.2709492079999,893.2709492079999,899.9299218749999,-7,7,1,5.0,4.248229249999895,6.0,5.81625070799987,892.8174393749999,892.819554583,893.2709492079999,893.10354875,,,,,,,,892.8143813749999,892.8173903329999,None,,,,,,,,,,,202,kitchen,1,2024-03-12_13h09.40.223,image_similarity_rating,2023.2.3,None,2024-03-12 13h09.56.484524 +0100,
,106,116,166,166,stimuli/own/kitchen/106_kit.jpg,stimuli/own/kitchen/116_kit.jpg,,,,,,,,,0,38,38,165,899.9353535409999,,,,,,,,,,,900.219763916,900.3845197080001,900.3845197080001,900.3845197080001,900.3845197080001,900.3845197080001,900.3845197080001,900.3845197080001,900.3845197080001,909.291633333,-7,7,1,6.0,5.660768707999978,5.0,7.697033874999988,899.9332121250001,899.9353535409999,900.3845197080001,900.219753625,,,,,,,,899.930143833,899.9331647079999,None,,,,,,,,,,,202,kitchen,1,2024-03-12_13h09.40.223,image_similarity_rating,2023.2.3,None,2024-03-12 13h09.56.484524 +0100,
,127,136,524,524,stimuli/own/kitchen/127_kit.jpg,stimuli/own/kitchen/136_kit.jpg,,,,,,,,,0,39,39,523,909.2975177079999,,,,,,,,,,,909.5825438329999,909.751564,909.751564,909.751564,909.751564,909.751564,909.751564,909.751564,909.751564,917.3207592079999,-7,7,1,2.0,2.954487332999861,5.0,6.92286850000005,909.2948620829999,909.2975177079999,909.751564,909.582527125,,,,,,,,909.291854958,909.2948142910001,None,,,,,,,,,,,202,kitchen,1,2024-03-12_13h09.40.223,image_similarity_rating,2023.2.3,None,2024-03-12 13h09.56.484524 +0100,
,131,139,557,557,stimuli/own/kitchen/131_kit.jpg,stimuli/own/kitchen/139_kit.jpg,,,,,,,,,0,40,40,556,917.3313360000001,,,,,,,,,,,917.6157624159999,917.784687,917.784687,917.784687,917.784687,917.784687,917.784687,917.784687,917.784687,923.417935416,7,-7,1,2.0,3.355434500000001,6.0,5.372304875000054,917.323979458,917.3313360000001,917.784687,917.6157340000001,,,,,,,,917.320982541,917.323932208,None,,,,,,,,,,,202,kitchen,1,2024-03-12_13h09.40.223,image_similarity_rating,2023.2.3,None,2024-03-12 13h09.56.484524 +0100,
,109,114,193,193,stimuli/own/kitchen/109_kit.jpg,stimuli/own/kitchen/114_kit.jpg,,,,,,,,,0,41,41,192,923.423191791,,,,,,,,,,,923.7157435830001,923.880228416,923.880228416,923.880228416,923.880228416,923.880228416,923.880228416,923.880228416,923.880228416,931.6501574160001,7,-7,1,2.0,4.580393292000053,3.0,6.672865709000007,923.421247375,923.423191791,923.880228416,923.7157297499999,,,,,,,,923.41816175,923.4212005,None,,,,,,,,,,,202,kitchen,1,2024-03-12_13h09.40.223,image_similarity_rating,2023.2.3,None,2024-03-12 13h09.56.484524 +0100,
,117,125,350,350,stimuli/own/kitchen/117_kit.jpg,stimuli/own/kitchen/125_kit.jpg,,,,,,,,,0,42,42,349,931.655230666,,,,,,,,,,,931.9491521659999,932.117776208,932.117776208,932.117776208,932.117776208,932.117776208,932.117776208,932.117776208,932.117776208,940.463446958,7,-7,1,5.0,3.569384750000154,3.0,7.402958165999962,931.6534594999999,931.655230666,932.117776208,931.949135833,,,,,,,,931.650378875,931.6534110409999,None,,,,,,,,,,,202,kitchen,1,2024-03-12_13h09.40.223,image_similarity_rating,2023.2.3,None,2024-03-12 13h09.56.484524 +0100,
,120,136,419,419,stimuli/own/kitchen/120_kit.jpg,stimuli/own/kitchen/136_kit.jpg,,,,,,,,,0,43,43,418,940.4686648329999,,,,,,,,,,,940.753270458,940.9218385830001,940.9218385830001,940.9218385830001,940.9218385830001,940.9218385830001,940.9218385830001,940.9218385830001,940.9218385830001,946.7463085830001,7,-7,1,6.0,2.1644053330001043,4.0,5.487716666000097,940.4667302909999,940.4686648329999,940.9218385830001,940.7532553330001,,,,,,,,940.4636805829999,940.466681791,None,,,,,,,,,,,202,kitchen,1,2024-03-12_13h09.40.223,image_similarity_rating,2023.2.3,None,2024-03-12 13h09.56.484524 +0100,
,103,126,86,86,stimuli/own/kitchen/103_kit.jpg,stimuli/own/kitchen/126_kit.jpg,,,,,,,,,0,44,44,85,946.751520875,,,,,,,,,,,947.036490625,947.20446675,947.20446675,947.20446675,947.20446675,947.20446675,947.20446675,947.20446675,947.20446675,954.7042621659999,7,-7,1,6.0,3.0194957920000434,4.0,7.163268625000001,946.749588083,946.751520875,947.20446675,947.0364772500001,,,,,,,,946.746533208,946.7495377500001,None,,,,,,,,,,,202,kitchen,1,2024-03-12_13h09.40.223,image_similarity_rating,2023.2.3,None,2024-03-12 13h09.56.484524 +0100,
,117,132,356,356,stimuli/own/kitchen/117_kit.jpg,stimuli/own/kitchen/132_kit.jpg,,,,,,,,,0,45,45,355,954.7143911249999,,,,,,,,,,,954.998915125,955.1657758329999,955.1657758329999,955.1657758329999,955.1657758329999,955.1657758329999,955.1657758329999,955.1657758329999,955.1657758329999,963.246325083,7,-7,1,3.0,3.8702694999999494,6.0,7.858073417000014,954.707479458,954.7143911249999,955.1657758329999,954.9988992499999,,,,,,,,954.704482125,954.707432541,None,,,,,,,,,,,202,kitchen,1,2024-03-12_13h09.40.223,image_similarity_rating,2023.2.3,None,2024-03-12 13h09.56.484524 +0100,
,103,138,96,96,stimuli/own/kitchen/103_kit.jpg,stimuli/own/kitchen/138_kit.jpg,,,,,,,,,0,46,46,95,963.2515305829999,,,,,,,,,,,963.5362839579999,963.700455,963.700455,963.700455,963.700455,963.700455,963.700455,963.700455,963.700455,980.6011468329999,-7,7,1,7.0,6.670814083999858,6.0,16.089182291000043,963.2495944159999,963.2515305829999,963.700455,963.5362704159999,,,,,,,,963.2465510410001,963.249546958,None,,,,,,,,,,,202,kitchen,1,2024-03-12_13h09.40.223,image_similarity_rating,2023.2.3,None,2024-03-12 13h09.56.484524 +0100,
,105,117,138,596,stimuli/own/kitchen/105_kit.jpg,stimuli/own/kitchen/117_kit.jpg,,,,,,,,,0,47,47,595,980.6063627079999,,,,,,,,,,,980.898971791,981.064072041,981.064072041,981.064072041,981.064072041,981.064072041,981.064072041,981.064072041,981.064072041,990.9584960409999,7,-7,1,3.0,4.897353458999987,6.0,9.796155959000089,980.604361458,980.6063627079999,981.064072041,980.8989568329999,,,,,,,,980.6013743330001,980.604314375,None,,,,,,,,,,,202,kitchen,1,2024-03-12_13h09.40.223,image_similarity_rating,2023.2.3,None,2024-03-12 13h09.56.484524 +0100,
,127,140,528,528,stimuli/own/kitchen/127_kit.jpg,stimuli/own/kitchen/140_kit.jpg,,,,,,,,,0,48,48,527,990.963961458,,,,,,,,,,,991.2487634579999,991.413649166,991.413649166,991.413649166,991.413649166,991.413649166,991.413649166,991.413649166,991.413649166,1019.3871930829999,7,-7,1,5.0,22.237093125,3.0,27.15076787499993,990.961716333,990.963961458,991.413649166,991.2487459999999,,,,,,,,990.9587177499999,990.9616669159999,None,,,,,,,,,,,202,kitchen,1,2024-03-12_13h09.40.223,image_similarity_rating,2023.2.3,None,2024-03-12 13h09.56.484524 +0100,
,105,111,133,133,stimuli/own/kitchen/105_kit.jpg,stimuli/own/kitchen/111_kit.jpg,,,,,,,,,0,49,49,132,1019.397442291,,,,,,,,,,,1019.6820978750001,1019.8479840829999,1019.8479840829999,1019.8479840829999,1019.8479840829999,1019.8479840829999,1019.8479840829999,1019.8479840829999,1019.8479840829999,1038.087165541,7,-7,1,5.0,12.864055375000135,5.0,17.34116595799992,1019.3905377909999,1019.397442291,1019.8479840829999,1019.6820817910001,,,,,,,,1019.387414958,1019.3904907079999,None,,,,,,,,,,,202,kitchen,1,2024-03-12_13h09.40.223,image_similarity_rating,2023.2.3,None,2024-03-12 13h09.56.484524 +0100,
,127,139,527,527,stimuli/own/kitchen/127_kit.jpg,stimuli/own/kitchen/139_kit.jpg,,,,,,,,,0,50,50,526,1038.097280083,,,,,,,,,,,1038.3819235,1038.547049791,1038.547049791,1038.547049791,1038.547049791,1038.547049791,1038.547049791,1038.547049791,1038.547049791,1046.39151575,7,-7,1,3.0,3.0200720840000486,6.0,6.172610792000114,1038.090389375,1038.097280083,1038.547049791,1038.3819090410002,,,,,,,,1038.0873889579998,1038.0903416659999,None,,,,,,,,,,,202,kitchen,1,2024-03-12_13h09.40.223,image_similarity_rating,2023.2.3,None,2024-03-12 13h09.56.484524 +0100,
,102,106,38,38,stimuli/own/kitchen/102_kit.jpg,stimuli/own/kitchen/106_kit.jpg,,,,,,,,,0,51,51,37,1046.3970907500002,,,,,,,,,,,1046.6818481659998,1046.851977666,1046.851977666,1046.851977666,1046.851977666,1046.851977666,1046.851977666,1046.851977666,1046.851977666,1052.7078744579999,-7,7,1,5.0,2.691308000000163,3.0,4.245049207999955,1046.394816333,1046.3970907500002,1046.851977666,1046.6818309579999,,,,,,,,1046.39173725,1046.394769333,None,,,,,,,,,,,202,kitchen,1,2024-03-12_13h09.40.223,image_similarity_rating,2023.2.3,None,2024-03-12 13h09.56.484524 +0100,
,103,123,83,83,stimuli/own/kitchen/103_kit.jpg,stimuli/own/kitchen/123_kit.jpg,,,,,,,,,0,52,52,82,1052.713554416,,,,,,,,,,,1052.998499416,1053.1650897499999,1053.1650897499999,1053.1650897499999,1053.1650897499999,1053.1650897499999,1053.1650897499999,1053.1650897499999,1053.1650897499999,1064.479441416,-7,7,1,5.0,6.920839666999882,3.0,10.430104625000013,1052.7110750000002,1052.713554416,1053.1650897499999,1052.9984843749999,,,,,,,,1052.7080943750002,1052.711027708,None,,,,,,,,,,,202,kitchen,1,2024-03-12_13h09.40.223,image_similarity_rating,2023.2.3,None,2024-03-12 13h09.56.484524 +0100,
,101,104,3,3,stimuli/own/kitchen/101_kit.jpg,stimuli/own/kitchen/104_kit.jpg,,,,,,,,,0,53,53,2,1064.484618291,,,,,,,,,,,1064.7699292910002,1064.9350734999998,1064.9350734999998,1064.9350734999998,1064.9350734999998,1064.9350734999998,1064.9350734999998,1064.9350734999998,1064.9350734999998,1074.2496352080002,7,-7,1,5.0,6.302684125000042,3.0,8.092601125000101,1064.4826833749999,1064.484618291,1064.9350734999998,1064.7699155,,,,,,,,1064.4796902909998,1064.4826359160002,None,,,,,,,,,,,202,kitchen,1,2024-03-12_13h09.40.223,image_similarity_rating,2023.2.3,None,2024-03-12 13h09.56.484524 +0100,
,109,122,200,200,stimuli/own/kitchen/109_kit.jpg,stimuli/own/kitchen/122_kit.jpg,,,,,,,,,0,54,54,199,1074.25478475,,,,,,,,,,,1074.5484032499999,1074.713586666,1074.713586666,1074.713586666,1074.713586666,1074.713586666,1074.713586666,1074.713586666,1074.713586666,1083.303438083,7,-7,1,3.0,2.696880833000023,5.0,6.067103707999877,1074.252862291,1074.25478475,1074.713586666,1074.5483894160002,,,,,,,,1074.2498569999998,1074.2528151249999,None,,,,,,,,,,,202,kitchen,1,2024-03-12_13h09.40.223,image_similarity_rating,2023.2.3,None,2024-03-12 13h09.56.484524 +0100,
,127,132,521,521,stimuli/own/kitchen/127_kit.jpg,stimuli/own/kitchen/132_kit.jpg,,,,,,,,,0,55,55,520,1083.3137482500001,,,,,,,,,,,1083.598364291,1083.7641088750001,1083.7641088750001,1083.7641088750001,1083.7641088750001,1083.7641088750001,1083.7641088750001,1083.7641088750001,1083.7641088750001,1097.0246040000002,7,-7,1,2.0,2.960911957999997,3.0,7.2353424170000835,1083.306807208,1083.3137482500001,1083.7641088750001,1083.5983488749998,,,,,,,,1083.303661333,1083.3067575,None,,,,,,,,,,,202,kitchen,1,2024-03-12_13h09.40.223,image_similarity_rating,2023.2.3,None,2024-03-12 13h09.56.484524 +0100,
,109,124,202,202,stimuli/own/kitchen/109_kit.jpg,stimuli/own/kitchen/124_kit.jpg,,,,,,,,,0,56,56,201,1097.030199416,,,,,,,,,,,1097.3149748750002,1097.4801068329998,1097.4801068329998,1097.4801068329998,1097.4801068329998,1097.4801068329998,1097.4801068329998,1097.4801068329998,1097.4801068329998,1104.9292840829999,-7,7,1,2.0,3.2545220829999835,5.0,5.100629540999989,1097.027820375,1097.030199416,1097.4801068329998,1097.3149603749998,,,,,,,,1097.0248286659998,1097.0277735,None,,,,,,,,,,,202,kitchen,1,2024-03-12_13h09.40.223,image_similarity_rating,2023.2.3,None,2024-03-12 13h09.56.484524 +0100,
,102,138,64,64,stimuli/own/kitchen/102_kit.jpg,stimuli/own/kitchen/138_kit.jpg,,,,,,,,,0,57,57,63,1104.9346637909998,,,,,,,,,,,1105.219318208,1105.3870298749998,1105.3870298749998,1105.3870298749998,1105.3870298749998,1105.3870298749998,1105.3870298749998,1105.3870298749998,1105.3870298749998,1117.524004291,-7,7,1,5.0,4.332402666000007,3.0,11.682528375000174,1104.932566041,1104.9346637909998,1105.3870298749998,1105.2193025000001,,,,,,,,1104.929538208,1104.9325186659999,None,,,,,,,,,,,202,kitchen,1,2024-03-12_13h09.40.223,image_similarity_rating,2023.2.3,None,2024-03-12 13h09.56.484524 +0100,
,134,137,570,570,stimuli/own/kitchen/134_kit.jpg,stimuli/own/kitchen/137_kit.jpg,,,,,,,,,0,58,58,569,1117.5299971660002,,,,,,,,,,,1117.8149682909998,1117.980588416,1117.980588416,1117.980588416,1117.980588416,1117.980588416,1117.980588416,1117.980588416,1117.980588416,1129.595745958,-7,7,1,3.0,4.686499500000082,5.0,9.842112625000027,1117.5272112500002,1117.5299971660002,1117.980588416,1117.8149522499998,,,,,,,,1117.524228916,1117.527163833,None,,,,,,,,,,,202,kitchen,1,2024-03-12_13h09.40.223,image_similarity_rating,2023.2.3,None,2024-03-12 13h09.56.484524 +0100,
,126,135,511,511,stimuli/own/kitchen/126_kit.jpg,stimuli/own/kitchen/135_kit.jpg,,,,,,,,,0,59,59,510,1129.6009374999999,,,,,,,,,,,1129.8856222079999,1130.05221325,1130.05221325,1130.05221325,1130.05221325,1130.05221325,1130.05221325,1130.05221325,1130.05221325,1136.71252675,7,-7,1,2.0,1.9657918340001288,2.0,5.575913166999953,1129.599011708,1129.6009374999999,1130.05221325,1129.8856085829998,,,,,,,,1129.5959942079999,1129.598964375,None,,,,,,,,,,,202,kitchen,1,2024-03-12_13h09.40.223,image_similarity_rating,2023.2.3,None,2024-03-12 13h09.56.484524 +0100,
,123,124,460,460,stimuli/own/kitchen/123_kit.jpg,stimuli/own/kitchen/124_kit.jpg,,,,,,,,,0,60,60,459,1136.7177499999998,,,,,,,,,,,1137.0024675,1137.170606666,1137.170606666,1137.170606666,1137.170606666,1137.170606666,1137.170606666,1137.170606666,1137.170606666,1147.519313791,7,-7,1,5.0,4.747934166999812,7.0,9.59029499999997,1136.7158172499999,1136.7177499999998,1137.170606666,1137.0024515,,,,,,,,1136.712775,1136.7157697080002,None,,,,,,,,,,,202,kitchen,1,2024-03-12_13h09.40.223,image_similarity_rating,2023.2.3,None,2024-03-12 13h09.56.484524 +0100,
,119,129,394,394,stimuli/own/kitchen/119_kit.jpg,stimuli/own/kitchen/129_kit.jpg,,,,,,,,,0,61,61,393,1147.5305305000002,,,,,,,,,,,1147.8147816249998,1147.9839460409999,1147.9839460409999,1147.9839460409999,1147.9839460409999,1147.9839460409999,1147.9839460409999,1147.9839460409999,1147.9839460409999,1156.1502800829999,7,-7,1,7.0,2.9852001660001406,5.0,6.343560499999967,1147.522517458,1147.5305305000002,1147.9839460409999,1147.814761916,,,,,,,,1147.5195362499999,1147.522470291,None,,,,,,,,,,,202,kitchen,1,2024-03-12_13h09.40.223,image_similarity_rating,2023.2.3,None,2024-03-12 13h09.56.484524 +0100,
,116,127,330,330,stimuli/own/kitchen/116_kit.jpg,stimuli/own/kitchen/127_kit.jpg,,,,,,,,,0,62,62,329,1156.1554059159998,,,,,,,,,,,1156.4480416249999,1156.619012833,1156.619012833,1156.619012833,1156.619012833,1156.619012833,1156.619012833,1156.619012833,1156.619012833,1169.8249283750001,-7,7,1,2.0,2.5142175420000967,5.0,5.1085583340000085,1156.1534873330002,1156.1554059159998,1156.619012833,1156.448024666,,,,,,,,1156.1505029579998,1156.153440166,None,,,,,,,,,,,202,kitchen,1,2024-03-12_13h09.40.223,image_similarity_rating,2023.2.3,None,2024-03-12 13h09.56.484524 +0100,
,122,131,450,450,stimuli/own/kitchen/122_kit.jpg,stimuli/own/kitchen/131_kit.jpg,,,,,,,,,0,63,63,449,1169.8469594160001,,,,,,,,,,,1182.7815553750002,1182.953777958,1182.953777958,1182.953777958,1182.953777958,1182.953777958,1182.953777958,1182.953777958,1182.953777958,1193.3618298749998,7,-7,2,2.0,6.353054458000088,5.0,8.923374958000068,1182.485632375,1182.4891899999998,1182.953777958,1182.7815352080002,,,,,,,,1169.8251501250002,1182.4837244579999,space,1169.8469594160001,12.63653166600011,None,,,,,,,,202,kitchen,1,2024-03-12_13h09.40.223,image_similarity_rating,2023.2.3,None,2024-03-12 13h09.56.484524 +0100,
,104,131,121,615,stimuli/own/kitchen/104_kit.jpg,stimuli/own/kitchen/131_kit.jpg,,,,,,,,,0,64,64,614,1193.3679523750002,,,,,,,,,,,1193.653089375,1193.822736916,1193.822736916,1193.822736916,1193.822736916,1193.822736916,1193.822736916,1193.822736916,1193.822736916,1202.1356739579996,-7,7,2,2.0,2.783066250000047,2.0,5.24090850000016,1193.3660236659998,1193.3679523750002,1193.822736916,1193.6530740829999,,,,,,,,1193.3620497910001,1193.365972,None,,,,,,,,,,,202,kitchen,1,2024-03-12_13h09.40.223,image_similarity_rating,2023.2.3,None,2024-03-12 13h09.56.484524 +0100,
,120,129,413,413,stimuli/own/kitchen/120_kit.jpg,stimuli/own/kitchen/129_kit.jpg,,,,,,,,,0,65,65,412,1202.1467654999997,,,,,,,,,,,1202.431242916,1202.5973531659997,1202.5973531659997,1202.5973531659997,1202.5973531659997,1202.5973531659997,1202.5973531659997,1202.5973531659997,1202.5973531659997,1212.0360688329997,7,-7,2,2.0,4.01918250000017,4.0,6.977740915999675,1202.1388978749997,1202.1467654999997,1202.5973531659997,1202.4312272499997,,,,,,,,1202.1358972499997,1202.1388508749997,None,,,,,,,,,,,202,kitchen,1,2024-03-12_13h09.40.223,image_similarity_rating,2023.2.3,None,2024-03-12 13h09.56.484524 +0100,
,127,141,529,529,stimuli/own/kitchen/127_kit.jpg,stimuli/own/kitchen/141_kit.jpg,,,,,,,,,0,66,66,528,1212.0467490829997,,,,,,,,,,,1212.3310835829998,1212.4975717499997,1212.4975717499997,1212.4975717499997,1212.4975717499997,1212.4975717499997,1212.4975717499997,1212.4975717499997,1212.4975717499997,1223.9193505409999,-7,7,2,4.0,6.369228416000169,5.0,8.224776707999808,1212.039267958,1212.0467490829997,1212.4975717499997,1212.3310686249997,,,,,,,,1212.0362903329997,1212.039221125,None,,,,,,,,,,,202,kitchen,1,2024-03-12_13h09.40.223,image_similarity_rating,2023.2.3,None,2024-03-12 13h09.56.484524 +0100,
,102,121,49,49,stimuli/own/kitchen/102_kit.jpg,stimuli/own/kitchen/121_kit.jpg,,,,,,,,,0,67,67,48,1223.9298681659998,,,,,,,,,,,1224.2145247499998,1224.3830846249998,1224.3830846249998,1224.3830846249998,1224.3830846249998,1224.3830846249998,1224.3830846249998,1224.3830846249998,1224.3830846249998,1231.086005875,-7,7,2,3.0,4.7343922079999174,5.0,6.45307237499992,1223.9226438749997,1223.9298681659998,1224.3830846249998,1224.2145073749998,,,,,,,,1223.9195732909998,1223.9225969999998,None,,,,,,,,,,,202,kitchen,1,2024-03-12_13h09.40.223,image_similarity_rating,2023.2.3,None,2024-03-12 13h09.56.484524 +0100,
,116,139,340,340,stimuli/own/kitchen/116_kit.jpg,stimuli/own/kitchen/139_kit.jpg,,,,,,,,,0,68,68,339,1231.096480625,,,,,,,,,,,1231.381144208,1231.5510949999998,1231.5510949999998,1231.5510949999998,1231.5510949999998,1231.5510949999998,1231.5510949999998,1231.5510949999998,1231.5510949999998,1237.8120142909997,-7,7,2,2.0,3.7386639170003946,4.0,5.819156583000222,1231.0892172499998,1231.096480625,1231.5510949999998,1231.3811272499997,,,,,,,,1231.086224958,1231.089170916,None,,,,,,,,,,,202,kitchen,1,2024-03-12_13h09.40.223,image_similarity_rating,2023.2.3,None,2024-03-12 13h09.56.484524 +0100,
,113,118,274,274,stimuli/own/kitchen/113_kit.jpg,stimuli/own/kitchen/118_kit.jpg,,,,,,,,,0,69,69,273,1237.817287583,,,,,,,,,,,1238.101640291,1238.266462125,1238.266462125,1238.266462125,1238.266462125,1238.266462125,1238.266462125,1238.266462125,1238.266462125,1248.482137,-7,7,2,5.0,4.03317162500025,4.0,6.741127750000032,1237.815358583,1237.817287583,1238.266462125,1238.101628,,,,,,,,1237.8122629579998,1237.8153117909997,None,,,,,,,,,,,202,kitchen,1,2024-03-12_13h09.40.223,image_similarity_rating,2023.2.3,None,2024-03-12 13h09.56.484524 +0100,
,105,116,137,137,stimuli/own/kitchen/105_kit.jpg,stimuli/own/kitchen/116_kit.jpg,,,,,,,,,0,70,70,136,1248.487284333,,,,,,,,,,,1248.7812572909997,1248.9494278329998,1248.9494278329998,1248.9494278329998,1248.9494278329998,1248.9494278329998,1248.9494278329998,1248.9494278329998,1248.9494278329998,1257.8288132499997,-7,7,2,4.0,3.0987052079999557,6.0,8.230853833999845,1248.4853439999997,1248.487284333,1248.9494278329998,1248.7812396659997,,,,,,,,1248.4823604159997,1248.4852975,None,,,,,,,,,,,202,kitchen,1,2024-03-12_13h09.40.223,image_similarity_rating,2023.2.3,None,2024-03-12 13h09.56.484524 +0100,
,126,127,505,505,stimuli/own/kitchen/126_kit.jpg,stimuli/own/kitchen/127_kit.jpg,,,,,,,,,0,71,71,504,1257.833803083,,,,,,,,,,,1258.118303875,1258.2851326249997,1258.2851326249997,1258.2851326249997,1258.2851326249997,1258.2851326249997,1258.2851326249997,1258.2851326249997,1258.2851326249997,1268.5022289579997,7,-7,2,3.0,4.715571000000182,5.0,9.145049958000072,1257.8320325,1257.833803083,1258.2851326249997,1258.1182912909999,,,,,,,,1257.829032958,1257.83198575,None,,,,,,,,,,,202,kitchen,1,2024-03-12_13h09.40.223,image_similarity_rating,2023.2.3,None,2024-03-12 13h09.56.484524 +0100,
,102,111,40,40,stimuli/own/kitchen/102_kit.jpg,stimuli/own/kitchen/111_kit.jpg,,,,,,,,,0,72,72,39,1268.512991083,,,,,,,,,,,1268.7984713329997,1268.9636774159999,1268.9636774159999,1268.9636774159999,1268.9636774159999,1268.9636774159999,1268.9636774159999,1268.9636774159999,1268.9636774159999,1282.507206916,7,-7,2,5.0,2.9328821669996614,6.0,13.382370375000392,1268.505424,1268.512991083,1268.9636774159999,1268.7984579159997,,,,,,,,1268.5024494579998,1268.505377333,None,,,,,,,,,,,202,kitchen,1,2024-03-12_13h09.40.223,image_similarity_rating,2023.2.3,None,2024-03-12 13h09.56.484524 +0100,
,134,136,569,569,stimuli/own/kitchen/134_kit.jpg,stimuli/own/kitchen/136_kit.jpg,,,,,,,,,0,73,73,568,1282.512831,,,,,,,,,,,1282.797590916,1282.965288125,1282.965288125,1282.965288125,1282.965288125,1282.965288125,1282.965288125,1282.965288125,1282.965288125,1295.4403026659998,-7,7,2,4.0,4.718075875000068,4.0,9.890447499999937,1282.510396666,1282.512831,1282.965288125,1282.7975737909996,,,,,,,,1282.5074279159999,1282.51034975,None,,,,,,,,,,,202,kitchen,1,2024-03-12_13h09.40.223,image_similarity_rating,2023.2.3,None,2024-03-12 13h09.56.484524 +0100,
,104,126,117,117,stimuli/own/kitchen/104_kit.jpg,stimuli/own/kitchen/126_kit.jpg,,,,,,,,,0,74,74,116,1295.4459110409998,,,,,,,,,,,1295.731395333,1295.896531125,1295.896531125,1295.896531125,1295.896531125,1295.896531125,1295.896531125,1295.896531125,1295.896531125,1307.3738886249998,7,-7,2,6.0,6.1535803749998195,4.0,10.592192083999635,1295.443605375,1295.4459110409998,1295.896531125,1295.7313815829998,,,,,,,,1295.4405258329998,1295.44355925,None,,,,,,,,,,,202,kitchen,1,2024-03-12_13h09.40.223,image_similarity_rating,2023.2.3,None,2024-03-12 13h09.56.484524 +0100,
,114,138,316,316,stimuli/own/kitchen/114_kit.jpg,stimuli/own/kitchen/138_kit.jpg,,,,,,,,,0,75,75,315,1307.379457208,,,,,,,,,,,1307.6640228329998,1307.8294189579997,1307.8294189579997,1307.8294189579997,1307.8294189579997,1307.8294189579997,1307.8294189579997,1307.8294189579997,1307.8294189579997,1317.518856833,-7,7,2,5.0,3.8544527089998155,3.0,7.8920302090000405,1307.3771028749998,1307.379457208,1307.8294189579997,1307.6640096659999,,,,,,,,1307.3741128749998,1307.3770561659999,None,,,,,,,,,,,202,kitchen,1,2024-03-12_13h09.40.223,image_similarity_rating,2023.2.3,None,2024-03-12 13h09.56.484524 +0100,
,112,123,254,254,stimuli/own/kitchen/112_kit.jpg,stimuli/own/kitchen/123_kit.jpg,,,,,,,,,0,76,76,253,1317.5298995409998,,,,,,,,,,,1317.8140130409997,1317.9791773749998,1317.9791773749998,1317.9791773749998,1317.9791773749998,1317.9791773749998,1317.9791773749998,1317.9791773749998,1317.9791773749998,1329.4151975,7,-7,2,2.0,2.719976833000146,3.0,9.761520416000167,1317.5220582079996,1317.5298995409998,1317.9791773749998,1317.8139969999997,,,,,,,,1317.5190791249997,1317.5220113329997,None,,,,,,,,,,,202,kitchen,1,2024-03-12_13h09.40.223,image_similarity_rating,2023.2.3,None,2024-03-12 13h09.56.484524 +0100,
,104,137,126,126,stimuli/own/kitchen/104_kit.jpg,stimuli/own/kitchen/137_kit.jpg,,,,,,,,,0,77,77,125,1329.4204259579997,,,,,,,,,,,1329.7140004999997,1329.8800017499998,1329.8800017499998,1329.8800017499998,1329.8800017499998,1329.8800017499998,1329.8800017499998,1329.8800017499998,1329.8800017499998,1339.2518932909998,-7,7,2,4.0,3.7771833330002664,5.0,8.561151249999966,1329.4185024579997,1329.4204259579997,1329.8800017499998,1329.7139859579997,,,,,,,,1329.4154196249997,1329.4184555829997,None,,,,,,,,,,,202,kitchen,1,2024-03-12_13h09.40.223,image_similarity_rating,2023.2.3,None,2024-03-12 13h09.56.484524 +0100,
,106,129,178,178,stimuli/own/kitchen/106_kit.jpg,stimuli/own/kitchen/129_kit.jpg,,,,,,,,,0,78,78,177,1339.262861583,,,,,,,,,,,1339.5473859999997,1339.7195429159997,1339.7195429159997,1339.7195429159997,1339.7195429159997,1339.7195429159997,1339.7195429159997,1339.7195429159997,1339.7195429159997,1351.919889583,7,-7,2,7.0,4.4844328340000175,4.0,11.026994917000138,1339.2550971249998,1339.262861583,1339.7195429159997,1339.547365041,,,,,,,,1339.252113041,1339.2550500409998,None,,,,,,,,,,,202,kitchen,1,2024-03-12_13h09.40.223,image_similarity_rating,2023.2.3,None,2024-03-12 13h09.56.484524 +0100,
,105,135,154,154,stimuli/own/kitchen/105_kit.jpg,stimuli/own/kitchen/135_kit.jpg,,,,,,,,,0,79,79,153,1351.9293051249997,,,,,,,,,,,1352.2146244159999,1352.3792760829997,1352.3792760829997,1352.3792760829997,1352.3792760829997,1352.3792760829997,1352.3792760829997,1352.3792760829997,1352.3792760829997,1365.273241583,-7,7,2,4.0,2.4876473750000514,5.0,10.848593166000228,1351.923097625,1351.9293051249997,1352.3792760829997,1352.2146109159999,,,,,,,,1351.9201093749998,1351.9230511659998,None,,,,,,,,,,,202,kitchen,1,2024-03-12_13h09.40.223,image_similarity_rating,2023.2.3,None,2024-03-12 13h09.56.484524 +0100,
,120,124,409,409,stimuli/own/kitchen/120_kit.jpg,stimuli/own/kitchen/124_kit.jpg,,,,,,,,,0,80,80,408,1365.2789895829997,,,,,,,,,,,1365.5638467909998,1365.731067708,1365.731067708,1365.731067708,1365.731067708,1365.731067708,1365.731067708,1365.731067708,1365.731067708,1375.081676791,-7,7,2,2.0,4.196964165999816,6.0,8.089798417000111,1365.2764459999999,1365.2789895829997,1365.731067708,1365.5638316249997,,,,,,,,1365.273462875,1365.276399583,None,,,,,,,,,,,202,kitchen,1,2024-03-12_13h09.40.223,image_similarity_rating,2023.2.3,None,2024-03-12 13h09.56.484524 +0100,
,116,130,332,332,stimuli/own/kitchen/116_kit.jpg,stimuli/own/kitchen/130_kit.jpg,,,,,,,,,0,81,81,331,1375.086803625,,,,,,,,,,,1375.3805830829997,1375.548840041,1375.548840041,1375.548840041,1375.548840041,1375.548840041,1375.548840041,1375.548840041,1375.548840041,1386.1816277079997,-7,7,2,6.0,3.685417791999953,4.0,9.772427749999679,1375.0848793749997,1375.086803625,1375.548840041,1375.3805621249999,,,,,,,,1375.0818965409999,1375.0848325409997,None,,,,,,,,,,,202,kitchen,1,2024-03-12_13h09.40.223,image_similarity_rating,2023.2.3,None,2024-03-12 13h09.56.484524 +0100,
,104,131,121,121,stimuli/own/kitchen/104_kit.jpg,stimuli/own/kitchen/131_kit.jpg,,,,,,,,,0,82,82,120,1386.186762625,,,,,,,,,,,1386.4814509999997,1386.6462177499998,1386.6462177499998,1386.6462177499998,1386.6462177499998,1386.6462177499998,1386.6462177499998,1386.6462177499998,1386.6462177499998,1398.4563629579998,7,-7,2,3.0,4.304656416999933,5.0,9.575781832999837,1386.184825625,1386.186762625,1386.6462177499998,1386.481437333,,,,,,,,1386.1818467079997,1386.1847789579997,None,,,,,,,,,,,202,kitchen,1,2024-03-12_13h09.40.223,image_similarity_rating,2023.2.3,None,2024-03-12 13h09.56.484524 +0100,
,105,123,144,144,stimuli/own/kitchen/105_kit.jpg,stimuli/own/kitchen/123_kit.jpg,,,,,,,,,0,83,83,143,1398.462210666,,,,,,,,,,,1398.747107666,1398.9120230409999,1398.9120230409999,1398.9120230409999,1398.9120230409999,1398.9120230409999,1398.9120230409999,1398.9120230409999,1398.9120230409999,1408.414835916,7,-7,2,2.0,2.4237997089999226,6.0,7.3420277919999535,1398.4596972079999,1398.462210666,1398.9120230409999,1398.747093125,,,,,,,,1398.4565834159998,1398.459650541,None,,,,,,,,,,,202,kitchen,1,2024-03-12_13h09.40.223,image_similarity_rating,2023.2.3,None,2024-03-12 13h09.56.484524 +0100,
,114,123,303,303,stimuli/own/kitchen/114_kit.jpg,stimuli/own/kitchen/123_kit.jpg,,,,,,,,,0,84,84,302,1408.419964583,,,,,,,,,,,1408.713673958,1408.885347291,1408.885347291,1408.885347291,1408.885347291,1408.885347291,1408.885347291,1408.885347291,1408.885347291,1422.640078291,7,-7,2,6.0,4.979902000000038,3.0,11.19333558299968,1408.4180365829998,1408.419964583,1408.885347291,1408.7136572079999,,,,,,,,1408.415055416,1408.417989958,None,,,,,,,,,,,202,kitchen,1,2024-03-12_13h09.40.223,image_similarity_rating,2023.2.3,None,2024-03-12 13h09.56.484524 +0100,
,129,138,537,537,stimuli/own/kitchen/129_kit.jpg,stimuli/own/kitchen/138_kit.jpg,,,,,,,,,0,85,85,536,1422.6455954579997,,,,,,,,,,,1422.9302466249997,1423.09503575,1423.09503575,1423.09503575,1423.09503575,1423.09503575,1423.09503575,1423.09503575,1423.09503575,1440.5897193749997,7,-7,2,3.0,4.396949124999992,4.0,14.3951795830003,1422.6432893329998,1422.6455954579997,1423.09503575,1422.930229083,,,,,,,,1422.640301041,1422.643242708,None,,,,,,,,,,,202,kitchen,1,2024-03-12_13h09.40.223,image_similarity_rating,2023.2.3,None,2024-03-12 13h09.56.484524 +0100,
,122,141,459,459,stimuli/own/kitchen/122_kit.jpg,stimuli/own/kitchen/141_kit.jpg,,,,,,,,,0,86,86,458,1440.595339333,,,,,,,,,,,1440.88045475,1441.045435041,1441.045435041,1441.045435041,1441.045435041,1441.045435041,1441.045435041,1441.045435041,1441.045435041,1450.389892916,-7,7,2,4.0,3.074866375000056,3.0,8.819803082999897,1440.5929349159996,1440.595339333,1441.045435041,1440.880439,,,,,,,,1440.5899448329997,1440.5928882909998,None,,,,,,,,,,,202,kitchen,1,2024-03-12_13h09.40.223,image_similarity_rating,2023.2.3,None,2024-03-12 13h09.56.484524 +0100,
,111,123,228,228,stimuli/own/kitchen/111_kit.jpg,stimuli/own/kitchen/123_kit.jpg,,,,,,,,,0,87,87,227,1450.3952960829997,,,,,,,,,,,1450.680066375,1450.8459443329998,1450.8459443329998,1450.8459443329998,1450.8459443329998,1450.8459443329998,1450.8459443329998,1450.8459443329998,1450.8459443329998,1463.3894015,-7,7,2,4.0,3.582653500000106,6.0,11.768929874999685,1450.393178416,1450.3952960829997,1450.8459443329998,1450.680051583,,,,,,,,1450.390112083,1450.3931323749998,None,,,,,,,,,,,202,kitchen,1,2024-03-12_13h09.40.223,image_similarity_rating,2023.2.3,None,2024-03-12 13h09.56.484524 +0100,
,122,135,453,453,stimuli/own/kitchen/122_kit.jpg,stimuli/own/kitchen/135_kit.jpg,,,,,,,,,0,88,88,452,1463.3951695829996,,,,,,,,,,,1463.680149375,1463.846331833,1463.846331833,1463.846331833,1463.846331833,1463.846331833,1463.846331833,1463.846331833,1463.846331833,1474.127568541,-7,7,2,3.0,3.5997262500000033,3.0,6.532242750000023,1463.3926448329998,1463.3951695829996,1463.846331833,1463.680133583,,,,,,,,1463.3896262079998,1463.392598458,None,,,,,,,,,,,202,kitchen,1,2024-03-12_13h09.40.223,image_similarity_rating,2023.2.3,None,2024-03-12 13h09.56.484524 +0100,
,113,117,273,273,stimuli/own/kitchen/113_kit.jpg,stimuli/own/kitchen/117_kit.jpg,,,,,,,,,0,89,89,272,1474.132598875,,,,,,,,,,,1474.417722833,1474.5857206659998,1474.5857206659998,1474.5857206659998,1474.5857206659998,1474.5857206659998,1474.5857206659998,1474.5857206659998,1474.5857206659998,1487.0479207079998,-7,7,2,6.0,3.4327208340000652,4.0,10.162908457999947,1474.130822833,1474.132598875,1474.5857206659998,1474.4177062909998,,,,,,,,1474.127815416,1474.130775875,None,,,,,,,,,,,202,kitchen,1,2024-03-12_13h09.40.223,image_similarity_rating,2023.2.3,None,2024-03-12 13h09.56.484524 +0100,
,103,139,97,97,stimuli/own/kitchen/103_kit.jpg,stimuli/own/kitchen/139_kit.jpg,,,,,,,,,0,90,90,96,1487.0532224999997,,,,,,,,,,,1487.3465716659998,1487.5129043329998,1487.5129043329998,1487.5129043329998,1487.5129043329998,1487.5129043329998,1487.5129043329998,1487.5129043329998,1487.5129043329998,1495.4400570829998,7,-7,2,5.0,3.0471964160001335,2.0,7.2026810000002115,1487.0511217909998,1487.0532224999997,1487.5129043329998,1487.34655625,,,,,,,,1487.0481464159998,1487.0510744579997,None,,,,,,,,,,,202,kitchen,1,2024-03-12_13h09.40.223,image_similarity_rating,2023.2.3,None,2024-03-12 13h09.56.484524 +0100,
,112,114,246,246,stimuli/own/kitchen/112_kit.jpg,stimuli/own/kitchen/114_kit.jpg,,,,,,,,,0,91,91,245,1495.44504,,,,,,,,,,,1495.729973125,1495.902722625,1495.902722625,1495.902722625,1495.902722625,1495.902722625,1495.902722625,1495.902722625,1495.902722625,1507.0230189159997,-7,7,2,6.0,3.112999707999734,7.0,10.181902124999851,1495.443271833,1495.44504,1495.902722625,1495.7299559579997,,,,,,,,1495.4402768329996,1495.443225083,None,,,,,,,,,,,202,kitchen,1,2024-03-12_13h09.40.223,image_similarity_rating,2023.2.3,None,2024-03-12 13h09.56.484524 +0100,
,111,118,223,223,stimuli/own/kitchen/111_kit.jpg,stimuli/own/kitchen/118_kit.jpg,,,,,,,,,0,92,92,222,1507.0284257079998,,,,,,,,,,,1507.3132305,1507.4823740829997,1507.4823740829997,1507.4823740829997,1507.4823740829997,1507.4823740829997,1507.4823740829997,1507.4823740829997,1507.4823740829997,1516.9442222499997,-7,7,2,7.0,2.9694018750001305,5.0,8.279698709000058,1507.0263627499999,1507.0284257079998,1507.4823740829997,1507.3132139999998,,,,,,,,1507.0232431659997,1507.0263164159996,None,,,,,,,,,,,202,kitchen,1,2024-03-12_13h09.40.223,image_similarity_rating,2023.2.3,None,2024-03-12 13h09.56.484524 +0100,
,125,127,492,492,stimuli/own/kitchen/125_kit.jpg,stimuli/own/kitchen/127_kit.jpg,,,,,,,,,0,93,93,491,1516.9495545,,,,,,,,,,,1517.2337963329996,1517.398651333,1517.398651333,1517.398651333,1517.398651333,1517.398651333,1517.398651333,1517.398651333,1517.398651333,1525.2605612909997,-7,7,2,6.0,3.213938459000019,4.0,6.769233540999721,1516.9476112499997,1516.9495545,1517.398651333,1517.233784041,,,,,,,,1516.9444641249997,1516.947563791,None,,,,,,,,,,,202,kitchen,1,2024-03-12_13h09.40.223,image_similarity_rating,2023.2.3,None,2024-03-12 13h09.56.484524 +0100,
,112,132,262,262,stimuli/own/kitchen/112_kit.jpg,stimuli/own/kitchen/132_kit.jpg,,,,,,,,,0,94,94,261,1525.265741625,,,,,,,,,,,1525.5504557079998,1525.7160060409997,1525.7160060409997,1525.7160060409997,1525.7160060409997,1525.7160060409997,1525.7160060409997,1525.7160060409997,1525.7160060409997,1534.9984602499999,7,-7,2,5.0,3.6936534579999716,4.0,6.960677624999789,1525.2638135829998,1525.265741625,1525.7160060409997,1525.5504436659999,,,,,,,,1525.260786291,1525.263767208,None,,,,,,,,,,,202,kitchen,1,2024-03-12_13h09.40.223,image_similarity_rating,2023.2.3,None,2024-03-12 13h09.56.484524 +0100,
,120,137,420,420,stimuli/own/kitchen/120_kit.jpg,stimuli/own/kitchen/137_kit.jpg,,,,,,,,,0,95,95,419,1535.0037137499999,,,,,,,,,,,1535.2964619999998,1535.468015333,1535.468015333,1535.468015333,1535.468015333,1535.468015333,1535.468015333,1535.468015333,1535.468015333,1549.626997208,7,-7,2,4.0,4.613532374999977,3.0,8.521933125000032,1535.0017937499997,1535.0037137499999,1535.468015333,1535.2964442079997,,,,,,,,1534.998683625,1535.001746125,None,,,,,,,,,,,202,kitchen,1,2024-03-12_13h09.40.223,image_similarity_rating,2023.2.3,None,2024-03-12 13h09.56.484524 +0100,
,106,118,168,168,stimuli/own/kitchen/106_kit.jpg,stimuli/own/kitchen/118_kit.jpg,,,,,,,,,0,96,96,167,1549.632364875,,,,,,,,,,,1549.9170866249997,1550.0808270409998,1550.0808270409998,1550.0808270409998,1550.0808270409998,1550.0808270409998,1550.0808270409998,1550.0808270409998,1550.0808270409998,1565.2474995829998,-7,7,2,5.0,8.9638198749999,3.0,14.81985450000002,1549.630252208,1549.632364875,1550.0808270409998,1549.9170761659998,,,,,,,,1549.627220416,1549.630205416,None,,,,,,,,,,,202,kitchen,1,2024-03-12_13h09.40.223,image_similarity_rating,2023.2.3,None,2024-03-12 13h09.56.484524 +0100,
,116,123,326,326,stimuli/own/kitchen/116_kit.jpg,stimuli/own/kitchen/123_kit.jpg,,,,,,,,,0,97,97,325,1565.25248225,,,,,,,,,,,1565.5462170409996,1565.711363208,1565.711363208,1565.711363208,1565.711363208,1565.711363208,1565.711363208,1565.711363208,1565.711363208,1582.9223615,7,-7,2,2.0,6.919488167000054,3.0,11.764218750000055,1565.2507263329999,1565.25248225,1565.711363208,1565.5462029159999,,,,,,,,1565.2477319579998,1565.250679875,None,,,,,,,,,,,202,kitchen,1,2024-03-12_13h09.40.223,image_similarity_rating,2023.2.3,None,2024-03-12 13h09.56.484524 +0100,
,124,137,486,486,stimuli/own/kitchen/124_kit.jpg,stimuli/own/kitchen/137_kit.jpg,,,,,,,,,0,98,98,485,1582.928077958,,,,,,,,,,,1583.2130282909998,1583.3825550409997,1583.3825550409997,1583.3825550409997,1583.3825550409997,1583.3825550409997,1583.3825550409997,1583.3825550409997,1583.3825550409997,1595.547623166,-7,7,2,4.0,7.5113662919998205,3.0,10.928451332999884,1582.925663,1582.928077958,1583.3825550409997,1583.213011666,,,,,,,,1582.922585375,1582.9256167499998,None,,,,,,,,,,,202,kitchen,1,2024-03-12_13h09.40.223,image_similarity_rating,2023.2.3,None,2024-03-12 13h09.56.484524 +0100,
,102,139,65,604,stimuli/own/kitchen/102_kit.jpg,stimuli/own/kitchen/139_kit.jpg,,,,,,,,,0,99,99,603,1595.5527715409999,,,,,,,,,,,1595.846207958,1596.0126250829999,1596.0126250829999,1596.0126250829999,1596.0126250829999,1596.0126250829999,1596.0126250829999,1596.0126250829999,1596.0126250829999,1605.860609291,7,-7,2,3.0,3.9442612500001815,6.0,8.236723832999814,1595.550838833,1595.5527715409999,1596.0126250829999,1595.84618425,,,,,,,,1595.547843458,1595.550791958,None,,,,,,,,,,,202,kitchen,1,2024-03-12_13h09.40.223,image_similarity_rating,2023.2.3,None,2024-03-12 13h09.56.484524 +0100,
,104,116,107,107,stimuli/own/kitchen/104_kit.jpg,stimuli/own/kitchen/116_kit.jpg,,,,,,,,,0,100,100,106,1605.8657666659997,,,,,,,,,,,1606.150745125,1606.3188060409998,1606.3188060409998,1606.3188060409998,1606.3188060409998,1606.3188060409998,1606.3188060409998,1606.3188060409998,1606.3188060409998,1623.222238416,7,-7,2,3.0,11.713823875000344,4.0,16.006964791999962,1605.8638356659999,1605.8657666659997,1606.3188060409998,1606.150730416,,,,,,,,1605.8608328329997,1605.8637884159998,None,,,,,,,,,,,202,kitchen,1,2024-03-12_13h09.40.223,image_similarity_rating,2023.2.3,None,2024-03-12 13h09.56.484524 +0100,
,112,136,265,265,stimuli/own/kitchen/112_kit.jpg,stimuli/own/kitchen/136_kit.jpg,,,,,,,,,0,101,101,264,1623.2277723329998,,,,,,,,,,,1623.51295075,1623.6790833329997,1623.6790833329997,1623.6790833329997,1623.6790833329997,1623.6790833329997,1623.6790833329997,1623.6790833329997,1623.6790833329997,1634.233974833,-7,7,2,3.0,4.936029667000184,4.0,6.557621333000043,1623.225444916,1623.2277723329998,1623.6790833329997,1623.512934166,,,,,,,,1623.222457416,1623.225397875,None,,,,,,,,,,,202,kitchen,1,2024-03-12_13h09.40.223,image_similarity_rating,2023.2.3,None,2024-03-12 13h09.56.484524 +0100,
,129,130,530,530,stimuli/own/kitchen/129_kit.jpg,stimuli/own/kitchen/130_kit.jpg,,,,,,,,,0,102,102,529,1634.244657666,,,,,,,,,,,1634.5293662499998,1634.697209375,1634.697209375,1634.697209375,1634.697209375,1634.697209375,1634.697209375,1634.697209375,1634.697209375,1647.2315388749998,-7,7,2,1.0,7.692822459000126,2.0,11.736358707999898,1634.2371885409998,1634.244657666,1634.697209375,1634.5293484999997,,,,,,,,1634.234196125,1634.23714225,None,,,,,,,,,,,202,kitchen,1,2024-03-12_13h09.40.223,image_similarity_rating,2023.2.3,None,2024-03-12 13h09.56.484524 +0100,
,103,129,88,88,stimuli/own/kitchen/103_kit.jpg,stimuli/own/kitchen/129_kit.jpg,,,,,,,,,0,103,103,87,1647.23667575,,,,,,,,,,,1647.5293166659999,1647.7011024999997,1647.7011024999997,1647.7011024999997,1647.7011024999997,1647.7011024999997,1647.7011024999997,1647.7011024999997,1647.7011024999997,1658.6007730829997,-7,7,2,1.0,4.55001537499993,5.0,10.653496915999767,1647.234748166,1647.23667575,1647.7011024999997,1647.5292995,,,,,,,,1647.2317655829997,1647.2347018329997,None,,,,,,,,,,,202,kitchen,1,2024-03-12_13h09.40.223,image_similarity_rating,2023.2.3,None,2024-03-12 13h09.56.484524 +0100,
,132,135,561,561,stimuli/own/kitchen/132_kit.jpg,stimuli/own/kitchen/135_kit.jpg,,,,,,,,,0,104,104,560,1658.611273,,,,,,,,,,,1658.8959896659999,1659.0639433329998,1659.0639433329998,1659.0639433329998,1659.0639433329998,1659.0639433329998,1659.0639433329998,1659.0639433329998,1659.0639433329998,1666.5673472909998,7,-7,2,1.0,3.4186509999999544,4.0,7.195518500000162,1658.60397375,1658.611273,1659.0639433329998,1658.895972708,,,,,,,,1658.600993083,1658.6039269159996,None,,,,,,,,,,,202,kitchen,1,2024-03-12_13h09.40.223,image_similarity_rating,2023.2.3,None,2024-03-12 13h09.56.484524 +0100,
,101,123,18,18,stimuli/own/kitchen/101_kit.jpg,stimuli/own/kitchen/123_kit.jpg,,,,,,,,,0,105,105,17,1666.5779539579999,,,,,,,,,,,1666.8626477499997,1667.0343537079998,1667.0343537079998,1667.0343537079998,1667.0343537079998,1667.0343537079998,1667.0343537079998,1667.0343537079998,1667.0343537079998,1683.600267708,7,-7,2,4.0,10.837773584000388,7.0,6.695083249999698,1666.5706316249998,1666.5779539579999,1667.0343537079998,1666.862630958,,,,,,,,1666.567566791,1666.5705847909999,None,,,,,,,,,,,202,kitchen,1,2024-03-12_13h09.40.223,image_similarity_rating,2023.2.3,None,2024-03-12 13h09.56.484524 +0100,
,104,111,103,103,stimuli/own/kitchen/104_kit.jpg,stimuli/own/kitchen/111_kit.jpg,,,,,,,,,0,106,106,102,1683.6111821249997,,,,,,,,,,,1683.895802083,1684.0620357079997,1684.0620357079997,1684.0620357079997,1684.0620357079997,1684.0620357079997,1684.0620357079997,1684.0620357079997,1684.0620357079997,1693.6468986659997,7,-7,2,5.0,3.418931500000326,7.0,8.524600792000001,1683.603488875,1683.6111821249997,1684.0620357079997,1683.8957754159997,,,,,,,,1683.6004908329996,1683.603441958,None,,,,,,,,,,,202,kitchen,1,2024-03-12_13h09.40.223,image_similarity_rating,2023.2.3,None,2024-03-12 13h09.56.484524 +0100,
,116,131,333,333,stimuli/own/kitchen/116_kit.jpg,stimuli/own/kitchen/131_kit.jpg,,,,,,,,,0,107,107,332,1693.651857166,,,,,,,,,,,1693.9457901659998,1694.112252458,1694.112252458,1694.112252458,1694.112252458,1694.112252458,1694.112252458,1694.112252458,1694.112252458,1703.34997175,7,-7,2,4.0,6.857601958000032,2.0,8.451751375000185,1693.6500940829997,1693.651857166,1694.112252458,1693.9457749579997,,,,,,,,1693.6471229999997,1693.6500471659997,None,,,,,,,,,,,202,kitchen,1,2024-03-12_13h09.40.223,image_similarity_rating,2023.2.3,None,2024-03-12 13h09.56.484524 +0100,
,105,117,138,598,stimuli/own/kitchen/105_kit.jpg,stimuli/own/kitchen/117_kit.jpg,,,,,,,,,0,108,108,597,1703.361129458,,,,,,,,,,,1703.645830291,1703.8107097909997,1703.8107097909997,1703.8107097909997,1703.8107097909997,1703.8107097909997,1703.8107097909997,1703.8107097909997,1703.8107097909997,1714.7599207499998,-7,7,2,6.0,4.603656958999636,7.0,9.861757084000146,1703.3532919159998,1703.361129458,1703.8107097909997,1703.645814041,,,,,,,,1703.3501983329998,1703.35324575,None,,,,,,,,,,,202,kitchen,1,2024-03-12_13h09.40.223,image_similarity_rating,2023.2.3,None,2024-03-12 13h09.56.484524 +0100,
,104,122,113,113,stimuli/own/kitchen/104_kit.jpg,stimuli/own/kitchen/122_kit.jpg,,,,,,,,,0,109,109,112,1714.7652022499997,,,,,,,,,,,1715.0499300829997,1715.2170513329997,1715.2170513329997,1715.2170513329997,1715.2170513329997,1715.2170513329997,1715.2170513329997,1715.2170513329997,1715.2170513329997,1744.0969959999998,7,-7,2,3.0,21.77547133400003,4.0,27.568861500000367,1714.763275791,1714.7652022499997,1715.2170513329997,1715.04991625,,,,,,,,1714.760168708,1714.7632279999998,None,,,,,,,,,,,202,kitchen,1,2024-03-12_13h09.40.223,image_similarity_rating,2023.2.3,None,2024-03-12 13h09.56.484524 +0100,
,130,138,547,547,stimuli/own/kitchen/130_kit.jpg,stimuli/own/kitchen/138_kit.jpg,,,,,,,,,0,110,110,546,1744.102122583,,,,,,,,,,,1744.395615166,1744.5651270829999,1744.5651270829999,1744.5651270829999,1744.5651270829999,1744.5651270829999,1744.5651270829999,1744.5651270829999,1744.5651270829999,1761.0218292499999,-7,7,2,4.0,9.041573374999643,5.0,12.196201416999884,1744.100184,1744.102122583,1744.5651270829999,1744.3955970409997,,,,,,,,1744.0972202909998,1744.100137291,None,,,,,,,,,,,202,kitchen,1,2024-03-12_13h09.40.223,image_similarity_rating,2023.2.3,None,2024-03-12 13h09.56.484524 +0100,
,103,135,93,93,stimuli/own/kitchen/103_kit.jpg,stimuli/own/kitchen/135_kit.jpg,,,,,,,,,0,111,111,92,1761.0274411249998,,,,,,,,,,,1761.312227375,1761.4781511249998,1761.4781511249998,1761.4781511249998,1761.4781511249998,1761.4781511249998,1761.4781511249998,1761.4781511249998,1761.4781511249998,1770.9547027079998,-7,7,2,5.0,4.916209417000118,5.0,8.290001125000344,1761.0252782909997,1761.0274411249998,1761.4781511249998,1761.3122121659999,,,,,,,,1761.022049916,1761.0252285409997,None,,,,,,,,,,,202,kitchen,1,2024-03-12_13h09.40.223,image_similarity_rating,2023.2.3,None,2024-03-12 13h09.56.484524 +0100,
,127,138,526,526,stimuli/own/kitchen/127_kit.jpg,stimuli/own/kitchen/138_kit.jpg,,,,,,,,,0,112,112,525,1770.9606535829998,,,,,,,,,,,1771.2455826659998,1771.4128676249998,1771.4128676249998,1771.4128676249998,1771.4128676249998,1771.4128676249998,1771.4128676249998,1771.4128676249998,1771.4128676249998,1783.3429207909999,-7,7,2,4.0,8.38194137499977,2.0,10.245023417000084,1770.9582890409997,1770.9606535829998,1771.4128676249998,1771.24556575,,,,,,,,1770.954927625,1770.958238916,None,,,,,,,,,,,202,kitchen,1,2024-03-12_13h09.40.223,image_similarity_rating,2023.2.3,None,2024-03-12 13h09.56.484524 +0100,
,120,138,421,421,stimuli/own/kitchen/120_kit.jpg,stimuli/own/kitchen/138_kit.jpg,,,,,,,,,0,113,113,420,1783.3480233749997,,,,,,,,,,,1783.632898708,1783.801192041,1783.801192041,1783.801192041,1783.801192041,1783.801192041,1783.801192041,1783.801192041,1783.801192041,1794.7664353329997,7,-7,2,3.0,5.0357460840000385,4.0,7.91628424999999,1783.346259208,1783.3480233749997,1783.801192041,1783.632885041,,,,,,,,1783.3431632909997,1783.346212125,None,,,,,,,,,,,202,kitchen,1,2024-03-12_13h09.40.223,image_similarity_rating,2023.2.3,None,2024-03-12 13h09.56.484524 +0100,
,127,137,525,525,stimuli/own/kitchen/127_kit.jpg,stimuli/own/kitchen/137_kit.jpg,,,,,,,,,0,114,114,524,1794.77748625,,,,,,,,,,,1795.0620534999998,1795.2337591659998,1795.2337591659998,1795.2337591659998,1795.2337591659998,1795.2337591659998,1795.2337591659998,1795.2337591659998,1795.2337591659998,1810.242819083,-7,7,2,3.0,12.05494412500002,5.0,14.71032358299999,1794.769653291,1794.77748625,1795.2337591659998,1795.0620360409998,,,,,,,,1794.7666609159996,1794.769606416,None,,,,,,,,,,,202,kitchen,1,2024-03-12_13h09.40.223,image_similarity_rating,2023.2.3,None,2024-03-12 13h09.56.484524 +0100,
,109,118,196,196,stimuli/own/kitchen/109_kit.jpg,stimuli/own/kitchen/118_kit.jpg,,,,,,,,,0,115,115,195,1810.24788,,,,,,,,,,,1810.532412041,1810.6967810409997,1810.6967810409997,1810.6967810409997,1810.6967810409997,1810.6967810409997,1810.6967810409997,1810.6967810409997,1810.6967810409997,1825.129877208,7,-7,2,4.0,5.574471749999702,4.0,11.508559375000004,1810.2460659159997,1810.24788,1810.6967810409997,1810.532400083,,,,,,,,1810.2430669159999,1810.2460194159999,None,,,,,,,,,,,202,kitchen,1,2024-03-12_13h09.40.223,image_similarity_rating,2023.2.3,None,2024-03-12 13h09.56.484524 +0100,
,103,121,81,81,stimuli/own/kitchen/103_kit.jpg,stimuli/own/kitchen/121_kit.jpg,,,,,,,,,0,116,116,80,1825.134914625,,,,,,,,,,,1825.4285610409997,1825.5994637499998,1825.5994637499998,1825.5994637499998,1825.5994637499998,1825.5994637499998,1825.5994637499998,1825.5994637499998,1825.5994637499998,1841.042398916,7,-7,2,5.0,9.17767079100031,4.0,14.119926333999956,1825.1331757909998,1825.134914625,1825.5994637499998,1825.4285433749997,,,,,,,,1825.130101458,1825.133129541,None,,,,,,,,,,,202,kitchen,1,2024-03-12_13h09.40.223,image_similarity_rating,2023.2.3,None,2024-03-12 13h09.56.484524 +0100,
,103,104,68,68,stimuli/own/kitchen/103_kit.jpg,stimuli/own/kitchen/104_kit.jpg,,,,,,,,,0,117,117,67,1841.0477474999998,,,,,,,,,,,1841.3328162079997,1841.5004669579998,1841.5004669579998,1841.5004669579998,1841.5004669579998,1841.5004669579998,1841.5004669579998,1841.5004669579998,1841.5004669579998,1855.526000208,-7,7,2,4.0,8.111687332999736,5.0,12.649447834000057,1841.0456505409998,1841.0477474999998,1841.5004669579998,1841.332801125,,,,,,,,1841.04262075,1841.0456036249998,None,,,,,,,,,,,202,kitchen,1,2024-03-12_13h09.40.223,image_similarity_rating,2023.2.3,None,2024-03-12 13h09.56.484524 +0100,
,119,120,386,386,stimuli/own/kitchen/119_kit.jpg,stimuli/own/kitchen/120_kit.jpg,,,,,,,,,0,118,118,385,1855.531197375,,,,,,,,,,,1855.8157609579998,1855.9811999159997,1855.9811999159997,1855.9811999159997,1855.9811999159997,1855.9811999159997,1855.9811999159997,1855.9811999159997,1855.9811999159997,1865.804634791,-7,7,2,5.0,4.067011916999945,7.0,8.787840957999833,1855.5292574159998,1855.531197375,1855.9811999159997,1855.8157472499997,,,,,,,,1855.5262508749997,1855.529210625,None,,,,,,,,,,,202,kitchen,1,2024-03-12_13h09.40.223,image_similarity_rating,2023.2.3,None,2024-03-12 13h09.56.484524 +0100,
,137,138,586,586,stimuli/own/kitchen/137_kit.jpg,stimuli/own/kitchen/138_kit.jpg,,,,,,,,,0,119,119,585,1865.810176041,,,,,,,,,,,1866.095268916,1866.260423833,1866.260423833,1866.260423833,1866.260423833,1866.260423833,1866.260423833,1866.260423833,1866.260423833,1896.0714883749997,-7,7,2,3.0,4.014226166000299,3.0,29.261375374999716,1865.8078367499998,1865.810176041,1866.260423833,1866.095249166,,,,,,,,1865.804858333,1865.807790708,None,,,,,,,,,,,202,kitchen,1,2024-03-12_13h09.40.223,image_similarity_rating,2023.2.3,None,2024-03-12 13h09.56.484524 +0100,
,116,126,329,329,stimuli/own/kitchen/116_kit.jpg,stimuli/own/kitchen/126_kit.jpg,,,,,,,,,0,120,120,328,1896.076626083,,,,,,,,,,,1896.3616039579997,1896.5322972079998,1896.5322972079998,1896.5322972079998,1896.5322972079998,1896.5322972079998,1896.5322972079998,1896.5322972079998,1896.5322972079998,1909.204408916,7,-7,2,4.0,3.9639019589999407,3.0,11.636269707999872,1896.07467675,1896.076626083,1896.5322972079998,1896.361584875,,,,,,,,1896.071709708,1896.0746305409998,None,,,,,,,,,,,202,kitchen,1,2024-03-12_13h09.40.223,image_similarity_rating,2023.2.3,None,2024-03-12 13h09.56.484524 +0100,
,109,120,198,198,stimuli/own/kitchen/109_kit.jpg,stimuli/own/kitchen/120_kit.jpg,,,,,,,,,0,121,121,197,1909.209966458,,,,,,,,,,,1909.4949124159998,1909.665765625,1909.665765625,1909.665765625,1909.665765625,1909.665765625,1909.665765625,1909.665765625,1909.665765625,1916.125658375,-7,7,2,2.0,2.968276375000187,5.0,5.57543004199988,1909.207611375,1909.209966458,1909.665765625,1909.49489525,,,,,,,,1909.2046324999997,1909.207564666,None,,,,,,,,,,,202,kitchen,1,2024-03-12_13h09.40.223,image_similarity_rating,2023.2.3,None,2024-03-12 13h09.56.484524 +0100,
,118,141,385,385,stimuli/own/kitchen/118_kit.jpg,stimuli/own/kitchen/141_kit.jpg,,,,,,,,,0,122,122,384,1916.130815,,,,,,,,,,,1916.4152100409997,1916.579323125,1916.579323125,1916.579323125,1916.579323125,1916.579323125,1916.579323125,1916.579323125,1916.579323125,1924.8303219159998,-7,7,2,4.0,3.3781306249998124,7.0,7.251946083999883,1916.128895166,1916.130815,1916.579323125,1916.4151969999998,,,,,,,,1916.1258900409998,1916.128848583,None,,,,,,,,,,,202,kitchen,1,2024-03-12_13h09.40.223,image_similarity_rating,2023.2.3,None,2024-03-12 13h09.56.484524 +0100,
,117,127,352,352,stimuli/own/kitchen/117_kit.jpg,stimuli/own/kitchen/127_kit.jpg,,,,,,,,,0,123,123,351,1924.8352880409998,,,,,,,,,,,1925.128135,1925.293097666,1925.293097666,1925.293097666,1925.293097666,1925.293097666,1925.293097666,1925.293097666,1925.293097666,1933.7921716659998,7,-7,2,4.0,4.767279542000324,6.0,7.475628499999857,1924.833523791,1924.8352880409998,1925.293097666,1925.128116083,,,,,,,,1924.830543083,1924.8334773329998,None,,,,,,,,,,,202,kitchen,1,2024-03-12_13h09.40.223,image_similarity_rating,2023.2.3,None,2024-03-12 13h09.56.484524 +0100,
,112,129,259,259,stimuli/own/kitchen/112_kit.jpg,stimuli/own/kitchen/129_kit.jpg,,,,,,,,,0,124,124,258,1933.7973280409997,,,,,,,,,,,1934.0821058749998,1934.2470102079997,1934.2470102079997,1934.2470102079997,1934.2470102079997,1934.2470102079997,1934.2470102079997,1934.2470102079997,1934.2470102079997,1946.2379555409998,7,-7,2,4.0,3.1797661249997873,4.0,11.47928016600008,1933.7954126659997,1933.7973280409997,1934.2470102079997,1934.082093041,,,,,,,,1933.792396666,1933.795366208,None,,,,,,,,,,,202,kitchen,1,2024-03-12_13h09.40.223,image_similarity_rating,2023.2.3,None,2024-03-12 13h09.56.484524 +0100,
,112,137,266,266,stimuli/own/kitchen/112_kit.jpg,stimuli/own/kitchen/137_kit.jpg,,,,,,,,,0,125,125,265,1946.2432856249998,,,,,,,,,,,1946.5278772909996,1946.69385225,1946.69385225,1946.69385225,1946.69385225,1946.69385225,1946.69385225,1946.69385225,1946.69385225,1955.1420132909998,-7,7,2,3.0,3.884089416000279,5.0,8.287687416000153,1946.241155625,1946.2432856249998,1946.69385225,1946.5278588329998,,,,,,,,1946.238176541,1946.2411094579998,None,,,,,,,,,,,202,kitchen,1,2024-03-12_13h09.40.223,image_similarity_rating,2023.2.3,None,2024-03-12 13h09.56.484524 +0100,
,101,125,20,20,stimuli/own/kitchen/101_kit.jpg,stimuli/own/kitchen/125_kit.jpg,,,,,,,,,0,126,126,19,1955.1473596249998,,,,,,,,,,,1972.1156515829998,1972.2879954999999,1972.2879954999999,1972.2879954999999,1972.2879954999999,1972.2879954999999,1972.2879954999999,1972.2879954999999,1972.2879954999999,1992.063476291,-7,7,3,5.0,13.03737612499981,4.0,19.200237916999868,1971.8284722499998,1971.832106333,1972.2879954999999,1972.1156363749997,,,,,,,,1955.1422311659999,1971.828032041,space,1955.1473596249998,16.680453750000197,None,,,,,,,,202,kitchen,1,2024-03-12_13h09.40.223,image_similarity_rating,2023.2.3,None,2024-03-12 13h09.56.484524 +0100,
,117,129,353,353,stimuli/own/kitchen/117_kit.jpg,stimuli/own/kitchen/129_kit.jpg,,,,,,,,,0,127,127,352,1992.0692140409997,,,,,,,,,,,1992.3610038749998,1992.5259166659998,1992.5259166659998,1992.5259166659998,1992.5259166659998,1992.5259166659998,1992.5259166659998,1992.5259166659998,1992.5259166659998,2002.491978,7,-7,3,2.0,2.411501916999896,6.0,9.142307125000116,1992.067204041,1992.0692140409997,1992.5259166659998,1992.3609900829997,,,,,,,,1992.063701083,1992.067157,None,,,,,,,,,,,202,kitchen,1,2024-03-12_13h09.40.223,image_similarity_rating,2023.2.3,None,2024-03-12 13h09.56.484524 +0100,
,135,136,575,575,stimuli/own/kitchen/135_kit.jpg,stimuli/own/kitchen/136_kit.jpg,,,,,,,,,0,128,128,574,2002.4971661249997,,,,,,,,,,,2002.7821173749999,2002.9495872909997,2002.9495872909997,2002.9495872909997,2002.9495872909997,2002.9495872909997,2002.9495872909997,2002.9495872909997,2002.9495872909997,2012.6955936659997,-7,7,3,3.0,4.741934082999705,5.0,9.374262625000028,2002.495220291,2002.4971661249997,2002.9495872909997,2002.7821038329998,,,,,,,,2002.492223666,2002.495173541,None,,,,,,,,,,,202,kitchen,1,2024-03-12_13h09.40.223,image_similarity_rating,2023.2.3,None,2024-03-12 13h09.56.484524 +0100,
,114,141,319,319,stimuli/own/kitchen/114_kit.jpg,stimuli/own/kitchen/141_kit.jpg,,,,,,,,,0,129,129,318,2012.7008605409997,,,,,,,,,,,2012.9944208329998,2013.1620751659998,2013.1620751659998,2013.1620751659998,2013.1620751659998,2013.1620751659998,2013.1620751659998,2013.1620751659998,2013.1620751659998,2020.437405708,-7,7,3,2.0,2.682751499999995,5.0,7.078654958999778,2012.698786333,2012.7008605409997,2013.1620751659998,2012.994403625,,,,,,,,2012.6958140409997,2012.6987401249999,None,,,,,,,,,,,202,kitchen,1,2024-03-12_13h09.40.223,image_similarity_rating,2023.2.3,None,2024-03-12 13h09.56.484524 +0100,
,116,138,339,339,stimuli/own/kitchen/116_kit.jpg,stimuli/own/kitchen/138_kit.jpg,,,,,,,,,0,130,130,338,2020.442876791,,,,,,,,,,,2020.7276300409999,2020.891718208,2020.891718208,2020.891718208,2020.891718208,2020.891718208,2020.891718208,2020.891718208,2020.891718208,2028.196495791,7,-7,3,4.0,3.4208075000001372,3.0,6.531848457999786,2020.440604458,2020.442876791,2020.891718208,2020.727612791,,,,,,,,2020.437626416,2020.440558666,None,,,,,,,,,,,202,kitchen,1,2024-03-12_13h09.40.223,image_similarity_rating,2023.2.3,None,2024-03-12 13h09.56.484524 +0100,
,124,131,481,481,stimuli/own/kitchen/124_kit.jpg,stimuli/own/kitchen/131_kit.jpg,,,,,,,,,0,131,131,480,2028.2016292079998,,,,,,,,,,,2028.4942928749997,2028.660863,2028.660863,2028.660863,2028.660863,2028.660863,2028.660863,2028.660863,2028.660863,2040.1124050409999,-7,7,3,5.0,8.766094916999918,3.0,10.61612441599982,2028.199700875,2028.2016292079998,2028.660863,2028.494269375,,,,,,,,2028.1967193749997,2028.19965525,None,,,,,,,,,,,202,kitchen,1,2024-03-12_13h09.40.223,image_similarity_rating,2023.2.3,None,2024-03-12 13h09.56.484524 +0100,
,102,130,57,57,stimuli/own/kitchen/102_kit.jpg,stimuli/own/kitchen/130_kit.jpg,,,,,,,,,0,132,132,56,2040.117450916,,,,,,,,,,,2040.41096475,2040.5771406659997,2040.5771406659997,2040.5771406659997,2040.5771406659997,2040.5771406659997,2040.5771406659997,2040.5771406659997,2040.5771406659997,2055.653911375,-7,7,3,2.0,10.785848290999638,3.0,13.630055375000211,2040.115693666,2040.117450916,2040.5771406659997,2040.410949916,,,,,,,,2040.112624583,2040.1156472079997,None,,,,,,,,,,,202,kitchen,1,2024-03-12_13h09.40.223,image_similarity_rating,2023.2.3,None,2024-03-12 13h09.56.484524 +0100,
,105,138,157,157,stimuli/own/kitchen/105_kit.jpg,stimuli/own/kitchen/138_kit.jpg,,,,,,,,,0,133,133,156,2055.659473541,,,,,,,,,,,2055.944177375,2056.110372916,2056.110372916,2056.110372916,2056.110372916,2056.110372916,2056.110372916,2056.110372916,2056.110372916,2068.063469958,-7,7,3,4.0,6.957124415999715,4.0,9.879880500000127,2055.6571398329997,2055.659473541,2056.110372916,2055.9441618749997,,,,,,,,2055.654134333,2055.657093416,None,,,,,,,,,,,202,kitchen,1,2024-03-12_13h09.40.223,image_similarity_rating,2023.2.3,None,2024-03-12 13h09.56.484524 +0100,
,103,122,82,82,stimuli/own/kitchen/103_kit.jpg,stimuli/own/kitchen/122_kit.jpg,,,,,,,,,0,134,134,81,2068.0685934579997,,,,,,,,,,,2068.360548791,2068.532448333,2068.532448333,2068.532448333,2068.532448333,2068.532448333,2068.532448333,2068.532448333,2068.532448333,2077.0453160409998,-7,7,3,3.0,2.628702333000092,5.0,8.22684987499997,2068.0666645829997,2068.0685934579997,2068.532448333,2068.3605279159997,,,,,,,,2068.06369675,2068.066619291,None,,,,,,,,,,,202,kitchen,1,2024-03-12_13h09.40.223,image_similarity_rating,2023.2.3,None,2024-03-12 13h09.56.484524 +0100,
,101,116,11,11,stimuli/own/kitchen/101_kit.jpg,stimuli/own/kitchen/116_kit.jpg,,,,,,,,,0,135,135,10,2077.050424833,,,,,,,,,,,2077.3453097909996,2077.51068425,2077.51068425,2077.51068425,2077.51068425,2077.51068425,2077.51068425,2077.51068425,2077.51068425,2086.698612625,-7,7,3,4.0,2.83313729099973,5.0,7.902369625000119,2077.0484941249997,2077.050424833,2077.51068425,2077.345296291,,,,,,,,2077.0455346659996,2077.048448666,None,,,,,,,,,,,202,kitchen,1,2024-03-12_13h09.40.223,image_similarity_rating,2023.2.3,None,2024-03-12 13h09.56.484524 +0100,
,119,127,393,393,stimuli/own/kitchen/119_kit.jpg,stimuli/own/kitchen/127_kit.jpg,,,,,,,,,0,136,136,392,2086.709611541,,,,,,,,,,,2086.994113791,2087.161545041,2087.161545041,2087.161545041,2087.161545041,2087.161545041,2087.161545041,2087.161545041,2087.161545041,2096.5033950409997,-7,7,3,4.0,5.887987667000289,5.0,7.995742458999757,2086.701817541,2086.709611541,2087.161545041,2086.9940981249997,,,,,,,,2086.698831708,2086.7017714159997,None,,,,,,,,,,,202,kitchen,1,2024-03-12_13h09.40.223,image_similarity_rating,2023.2.3,None,2024-03-12 13h09.56.484524 +0100,
,118,136,380,380,stimuli/own/kitchen/118_kit.jpg,stimuli/own/kitchen/136_kit.jpg,,,,,,,,,0,137,137,379,2096.5091125,,,,,,,,,,,2096.794056708,2096.95946275,2096.95946275,2096.95946275,2096.95946275,2096.95946275,2096.95946275,2096.95946275,2096.95946275,2104.5451411249996,7,-7,3,5.0,3.9620532920002915,3.0,7.050688792000074,2096.506698541,2096.5091125,2096.95946275,2096.7940412909998,,,,,,,,2096.503616,2096.506652041,None,,,,,,,,,,,202,kitchen,1,2024-03-12_13h09.40.223,image_similarity_rating,2023.2.3,None,2024-03-12 13h09.56.484524 +0100,
,139,141,594,594,stimuli/own/kitchen/139_kit.jpg,stimuli/own/kitchen/141_kit.jpg,,,,,,,,,0,138,138,593,2104.550411666,,,,,,,,,,,2104.844109583,2105.012509416,2105.012509416,2105.012509416,2105.012509416,2105.012509416,2105.012509416,2105.012509416,2105.012509416,2181.479493625,7,-7,3,3.0,71.70130458299991,3.0,76.28190587499967,2104.548336625,2104.550411666,2105.012509416,2104.844092125,,,,,,,,2104.5453590409998,2104.548290166,None,,,,,,,,,,,202,kitchen,1,2024-03-12_13h09.40.223,image_similarity_rating,2023.2.3,None,2024-03-12 13h09.56.484524 +0100,
,119,122,388,388,stimuli/own/kitchen/119_kit.jpg,stimuli/own/kitchen/122_kit.jpg,,,,,,,,,0,139,139,387,2181.484761833,,,,,,,,,,,2181.777678333,2181.9432887079997,2181.9432887079997,2181.9432887079997,2181.9432887079997,2181.9432887079997,2181.9432887079997,2181.9432887079997,2181.9432887079997,2189.7827835,7,-7,3,4.0,5.75744316600003,5.0,7.703266833000271,2181.482931125,2181.484761833,2181.9432887079997,2181.777660166,,,,,,,,2181.479716083,2181.482882208,None,,,,,,,,,,,202,kitchen,1,2024-03-12_13h09.40.223,image_similarity_rating,2023.2.3,None,2024-03-12 13h09.56.484524 +0100,
,105,139,158,158,stimuli/own/kitchen/105_kit.jpg,stimuli/own/kitchen/139_kit.jpg,,,,,,,,,0,140,140,157,2189.7923352909997,,,,,,,,,,,2190.07703375,2190.2458659159997,2190.2458659159997,2190.2458659159997,2190.2458659159997,2190.2458659159997,2190.2458659159997,2190.2458659159997,2190.2458659159997,2199.986355958,-7,7,3,5.0,4.565257916000064,4.0,8.047578417000295,2189.786083958,2189.7923352909997,2190.2458659159997,2190.077016833,,,,,,,,2189.78300925,2189.7860378749997,None,,,,,,,,,,,202,kitchen,1,2024-03-12_13h09.40.223,image_similarity_rating,2023.2.3,None,2024-03-12 13h09.56.484524 +0100,
,119,131,396,396,stimuli/own/kitchen/119_kit.jpg,stimuli/own/kitchen/131_kit.jpg,,,,,,,,,0,141,141,395,2199.992067791,,,,,,,,,,,2200.277041416,2200.444886125,2200.444886125,2200.444886125,2200.444886125,2200.444886125,2200.444886125,2200.444886125,2200.444886125,2211.7645066249997,-7,7,3,2.0,8.085154041999886,5.0,11.21181470900001,2199.9895390829997,2199.992067791,2200.444886125,2200.2770151659997,,,,,,,,2199.9865755409996,2199.989493041,None,,,,,,,,,,,202,kitchen,1,2024-03-12_13h09.40.223,image_similarity_rating,2023.2.3,None,2024-03-12 13h09.56.484524 +0100,
,136,139,583,583,stimuli/own/kitchen/136_kit.jpg,stimuli/own/kitchen/139_kit.jpg,,,,,,,,,0,142,142,582,2211.775597375,,,,,,,,,,,2212.060291458,2212.226146208,2212.226146208,2212.226146208,2212.226146208,2212.226146208,2212.226146208,2212.226146208,2212.226146208,2222.894778416,7,-7,3,4.0,5.590925334000076,2.0,10.395440624999992,2211.767689416,2211.775597375,2212.226146208,2212.060275416,,,,,,,,2211.764731166,2211.767643708,None,,,,,,,,,,,202,kitchen,1,2024-03-12_13h09.40.223,image_similarity_rating,2023.2.3,None,2024-03-12 13h09.56.484524 +0100,
,114,136,314,314,stimuli/own/kitchen/114_kit.jpg,stimuli/own/kitchen/136_kit.jpg,,,,,,,,,0,143,143,313,2222.8998791659997,,,,,,,,,,,2223.1942680409998,2223.3590985829996,2223.3590985829996,2223.3590985829996,2223.3590985829996,2223.3590985829996,2223.3590985829996,2223.3590985829996,2223.3590985829996,2234.786934375,-7,7,3,4.0,5.32085833300016,3.0,11.178558749999866,2222.897970166,2222.8998791659997,2223.3590985829996,2223.194252,,,,,,,,2222.894996208,2222.8979246659997,None,,,,,,,,,,,202,kitchen,1,2024-03-12_13h09.40.223,image_similarity_rating,2023.2.3,None,2024-03-12 13h09.56.484524 +0100,
,109,138,214,214,stimuli/own/kitchen/109_kit.jpg,stimuli/own/kitchen/138_kit.jpg,,,,,,,,,0,144,144,213,2234.792118333,,,,,,,,,,,2235.076544208,2235.247100708,2235.247100708,2235.247100708,2235.247100708,2235.247100708,2235.247100708,2235.247100708,2235.247100708,2255.2534393749997,7,-7,3,5.0,3.521399041999757,3.0,19.859690541999953,2234.790137791,2234.792118333,2235.247100708,2235.0765229159997,,,,,,,,2234.78716675,2234.790092166,None,,,,,,,,,,,202,kitchen,1,2024-03-12_13h09.40.223,image_similarity_rating,2023.2.3,None,2024-03-12 13h09.56.484524 +0100,
,103,134,92,92,stimuli/own/kitchen/103_kit.jpg,stimuli/own/kitchen/134_kit.jpg,,,,,,,,,0,145,145,91,2255.258598166,,,,,,,,,,,2255.5435064159997,2255.7109448329998,2255.7109448329998,2255.7109448329998,2255.7109448329998,2255.7109448329998,2255.7109448329998,2255.7109448329998,2255.7109448329998,2264.8622056249997,7,-7,3,6.0,5.166113708000012,5.0,8.776623875000041,2255.256629291,2255.258598166,2255.7109448329998,2255.543489333,,,,,,,,2255.253657875,2255.256583625,None,,,,,,,,,,,202,kitchen,1,2024-03-12_13h09.40.223,image_similarity_rating,2023.2.3,None,2024-03-12 13h09.56.484524 +0100,
,119,134,398,398,stimuli/own/kitchen/119_kit.jpg,stimuli/own/kitchen/134_kit.jpg,,,,,,,,,0,146,146,397,2264.867344708,,,,,,,,,,,2265.1601823329997,2265.329446833,2265.329446833,2265.329446833,2265.329446833,2265.329446833,2265.329446833,2265.329446833,2265.329446833,2274.294512416,-7,7,3,4.0,5.285133249999944,3.0,7.615571791000093,2264.865413083,2264.867344708,2265.329446833,2265.1601647079997,,,,,,,,2264.8624286249997,2264.865367208,None,,,,,,,,,,,202,kitchen,1,2024-03-12_13h09.40.223,image_similarity_rating,2023.2.3,None,2024-03-12 13h09.56.484524 +0100,
,123,131,466,466,stimuli/own/kitchen/123_kit.jpg,stimuli/own/kitchen/131_kit.jpg,,,,,,,,,0,147,147,465,2274.2996225409997,,,,,,,,,,,2274.593353583,2274.75931,2274.75931,2274.75931,2274.75931,2274.75931,2274.75931,2274.75931,2274.75931,2286.0742784579998,7,-7,3,3.0,6.120088041000145,2.0,10.666422000000239,2274.297705291,2274.2996225409997,2274.75931,2274.593338625,,,,,,,,2274.2947325,2274.297659,None,,,,,,,,,,,202,kitchen,1,2024-03-12_13h09.40.223,image_similarity_rating,2023.2.3,None,2024-03-12 13h09.56.484524 +0100,
,113,114,271,271,stimuli/own/kitchen/113_kit.jpg,stimuli/own/kitchen/114_kit.jpg,,,,,,,,,0,148,148,270,2286.079318875,,,,,,,,,,,2286.3767145829997,2286.541802875,2286.541802875,2286.541802875,2286.541802875,2286.541802875,2286.541802875,2286.541802875,2286.541802875,2294.836535041,-7,7,3,2.0,4.043808333000015,5.0,8.088836082999933,2286.077520708,2286.079318875,2286.541802875,2286.376700125,,,,,,,,2286.074515666,2286.0774752499997,None,,,,,,,,,,,202,kitchen,1,2024-03-12_13h09.40.223,image_similarity_rating,2023.2.3,None,2024-03-12 13h09.56.484524 +0100,
,123,141,475,475,stimuli/own/kitchen/123_kit.jpg,stimuli/own/kitchen/141_kit.jpg,,,,,,,,,0,149,149,474,2294.841794166,,,,,,,,,,,2295.1264352499998,2295.297269916,2295.297269916,2295.297269916,2295.297269916,2295.297269916,2295.297269916,2295.297269916,2295.297269916,2303.807427333,7,-7,3,2.0,6.500206959000025,3.0,8.336467916999936,2294.83986275,2294.841794166,2295.297269916,2295.126417333,,,,,,,,2294.8367565,2294.839816708,None,,,,,,,,,,,202,kitchen,1,2024-03-12_13h09.40.223,image_similarity_rating,2023.2.3,None,2024-03-12 13h09.56.484524 +0100,
,118,120,366,366,stimuli/own/kitchen/118_kit.jpg,stimuli/own/kitchen/120_kit.jpg,,,,,,,,,0,150,150,365,2303.813133458,,,,,,,,,,,2304.097309875,2304.2629054159997,2304.2629054159997,2304.2629054159997,2304.2629054159997,2304.2629054159997,2304.2629054159997,2304.2629054159997,2304.2629054159997,2317.9857010829996,-7,7,3,3.0,8.148910832999718,4.0,13.518878291999954,2303.8108145409997,2303.813133458,2304.2629054159997,2304.0972980829997,,,,,,,,2303.8076755409998,2303.8107685,None,,,,,,,,,,,202,kitchen,1,2024-03-12_13h09.40.223,image_similarity_rating,2023.2.3,None,2024-03-12 13h09.56.484524 +0100,
,131,141,559,559,stimuli/own/kitchen/131_kit.jpg,stimuli/own/kitchen/141_kit.jpg,,,,,,,,,0,151,151,558,2317.9915349159996,,,,,,,,,,,2318.276427041,2318.444822041,2318.444822041,2318.444822041,2318.444822041,2318.444822041,2318.444822041,2318.444822041,2318.444822041,2331.661918458,7,-7,3,5.0,10.392914208000093,6.0,12.856198292000045,2317.9888942499997,2317.9915349159996,2318.444822041,2318.2764092909997,,,,,,,,2317.985916875,2317.988848333,None,,,,,,,,,,,202,kitchen,1,2024-03-12_13h09.40.223,image_similarity_rating,2023.2.3,None,2024-03-12 13h09.56.484524 +0100,
,113,123,279,279,stimuli/own/kitchen/113_kit.jpg,stimuli/own/kitchen/123_kit.jpg,,,,,,,,,0,152,152,278,2331.667059458,,,,,,,,,,,2331.959729916,2332.124633166,2332.124633166,2332.124633166,2332.124633166,2332.124633166,2332.124633166,2332.124633166,2332.124633166,2346.061973083,-7,7,3,4.0,6.455276457999844,3.0,13.187249542000245,2331.665135833,2331.667059458,2332.124633166,2331.95971125,,,,,,,,2331.662144208,2331.6650907499998,None,,,,,,,,,,,202,kitchen,1,2024-03-12_13h09.40.223,image_similarity_rating,2023.2.3,None,2024-03-12 13h09.56.484524 +0100,
,105,136,155,155,stimuli/own/kitchen/105_kit.jpg,stimuli/own/kitchen/136_kit.jpg,,,,,,,,,0,153,153,154,2346.067069291,,,,,,,,,,,2346.359672916,2346.5256491249997,2346.5256491249997,2346.5256491249997,2346.5256491249997,2346.5256491249997,2346.5256491249997,2346.5256491249997,2346.5256491249997,2364.057358125,7,-7,3,4.0,12.146585750000213,4.0,17.343585707999864,2346.0652543329998,2346.067069291,2346.5256491249997,2346.359657125,,,,,,,,2346.062196208,2346.0652085829997,None,,,,,,,,,,,202,kitchen,1,2024-03-12_13h09.40.223,image_similarity_rating,2023.2.3,None,2024-03-12 13h09.56.484524 +0100,
,113,134,288,288,stimuli/own/kitchen/113_kit.jpg,stimuli/own/kitchen/134_kit.jpg,,,,,,,,,0,154,154,287,2364.0626456659998,,,,,,,,,,,2364.347427583,2364.515613,2364.515613,2364.515613,2364.515613,2364.515613,2364.515613,2364.515613,2364.515613,2382.218997083,7,-7,3,3.0,6.897331457999826,4.0,17.242753874999835,2364.060727916,2364.0626456659998,2364.515613,2364.347413041,,,,,,,,2364.057581916,2364.060681916,None,,,,,,,,,,,202,kitchen,1,2024-03-12_13h09.40.223,image_similarity_rating,2023.2.3,None,2024-03-12 13h09.56.484524 +0100,
,131,135,553,553,stimuli/own/kitchen/131_kit.jpg,stimuli/own/kitchen/135_kit.jpg,,,,,,,,,0,155,155,552,2382.224723375,,,,,,,,,,,2382.5096664999996,2382.680825375,2382.680825375,2382.680825375,2382.680825375,2382.680825375,2382.680825375,2382.680825375,2382.680825375,2398.973681,7,-7,3,3.0,6.697123207999994,6.0,15.807973708999725,2382.222292416,2382.224723375,2382.680825375,2382.50964875,,,,,,,,2382.219214166,2382.2222457909998,None,,,,,,,,,,,202,kitchen,1,2024-03-12_13h09.40.223,image_similarity_rating,2023.2.3,None,2024-03-12 13h09.56.484524 +0100,
,126,131,508,508,stimuli/own/kitchen/126_kit.jpg,stimuli/own/kitchen/131_kit.jpg,,,,,,,,,0,156,156,507,2398.978778291,,,,,,,,,,,2399.26342675,2399.4273424159996,2399.4273424159996,2399.4273424159996,2399.4273424159996,2399.4273424159996,2399.4273424159996,2399.4273424159996,2399.4273424159996,2412.860501541,7,-7,3,4.0,2.902230208000219,6.0,13.211977792000198,2398.97701275,2398.978778291,2399.4273424159996,2399.263416375,,,,,,,,2398.973928041,2398.976967041,None,,,,,,,,,,,202,kitchen,1,2024-03-12_13h09.40.223,image_similarity_rating,2023.2.3,None,2024-03-12 13h09.56.484524 +0100,
,122,125,445,445,stimuli/own/kitchen/122_kit.jpg,stimuli/own/kitchen/125_kit.jpg,,,,,,,,,0,157,157,444,2412.8656257909997,,,,,,,,,,,2413.15941575,2413.323761375,2413.323761375,2413.323761375,2413.323761375,2413.323761375,2413.323761375,2413.323761375,2413.323761375,2428.0900052909997,7,-7,3,2.0,6.734613000000081,5.0,14.279808875000072,2412.863692125,2412.8656257909997,2413.323761375,2413.159405416,,,,,,,,2412.86071825,2412.86364625,None,,,,,,,,,,,202,kitchen,1,2024-03-12_13h09.40.223,image_similarity_rating,2023.2.3,None,2024-03-12 13h09.56.484524 +0100,
