sub_num,trial,block,task,is_practice,category,image,texture,duration,mask_dur,jitter,stim_time,time_of_resp,trial_response,mask_time,fix_time,jit_onset,trial_end,trial_accuracy,RT
101,1,1,familiarity,0,kitchen,sun_acxkpeoqbwcxfvip.tif,187,1.5,0,0.866666666666667,3622.973284166,NaN,NaN,NaN,NaN,NaN,NaN,NaN,NaN
101,2,1,familiarity,0,kitchen,sun_aggjlwcdjsjcaemh.tif,196,1.5,0,1.01666666666667,NaN,NaN,NaN,NaN,NaN,NaN,NaN,NaN,NaN
101,3,1,familiarity,0,kitchen,sun_agorklincwxrdtga.tif,197,1.5,0,1.78333333333333,NaN,NaN,NaN,NaN,NaN,NaN,NaN,NaN,NaN
101,4,1,familiarity,0,kitchen,sun_aadbddgrdsjugojn.tif,174,1.5,0,1.85,NaN,NaN,NaN,NaN,NaN,NaN,NaN,NaN,NaN
101,5,1,familiarity,0,kitchen,sun_ahdycvpopffkzzsu.tif,200,1.5,0,1.83333333333333,NaN,NaN,NaN,NaN,NaN,NaN,NaN,NaN,NaN
101,6,1,familiarity,0,kitchen,sun_ahljzhgcdpomplvg.tif,201,1.5,0,1.56666666666667,NaN,NaN,NaN,NaN,NaN,NaN,NaN,NaN,NaN
101,7,1,familiarity,0,kitchen,sun_agzzivivdpnawacl.tif,199,1.5,0,1.31666666666667,NaN,NaN,NaN,NaN,NaN,NaN,NaN,NaN,NaN
101,8,1,familiarity,0,kitchen,sun_ahspylgoovwmwvgk.tif,203,1.5,0,1.75,NaN,NaN,NaN,NaN,NaN,NaN,NaN,NaN,NaN
101,9,1,familiarity,0,kitchen,sun_azmutvzbxypaceni.tif,220,1.5,0,1.9,NaN,NaN,NaN,NaN,NaN,NaN,NaN,NaN,NaN
101,10,1,familiarity,0,kitchen,sun_agubuxuukhzyzpdp.tif,198,1.5,0,1.76666666666667,NaN,NaN,NaN,NaN,NaN,NaN,NaN,NaN,NaN
101,11,1,familiarity,0,kitchen,labelme_kxvouciolcpqplr.tif,172,1.5,0,1.05,NaN,NaN,NaN,NaN,NaN,NaN,NaN,NaN,NaN
101,12,1,familiarity,0,kitchen,labelme_brsyyvweiuaazfr.tif,171,1.5,0,1.58333333333333,NaN,NaN,NaN,NaN,NaN,NaN,NaN,NaN,NaN
101,13,1,familiarity,0,kitchen,sun_aegoxogugdkwpmpj.tif,190,1.5,0,0.983333333333333,NaN,NaN,NaN,NaN,NaN,NaN,NaN,NaN,NaN
101,14,1,familiarity,0,kitchen,sun_adgqasybjyktddhj.tif,188,1.5,0,0.733333333333333,NaN,NaN,NaN,NaN,NaN,NaN,NaN,NaN,NaN
101,15,1,familiarity,0,kitchen,sun_akchetnepxlcxhsu.tif,208,1.5,0,1.13333333333333,NaN,NaN,NaN,NaN,NaN,NaN,NaN,NaN,NaN
101,16,1,familiarity,0,kitchen,sun_acgtpgfybqjmzeyw.tif,185,1.5,0,1.58333333333333,NaN,NaN,NaN,NaN,NaN,NaN,NaN,NaN,NaN
101,17,1,familiarity,0,kitchen,sun_abrcnpqqhmjwekyf.tif,183,1.5,0,0.783333333333333,NaN,NaN,NaN,NaN,NaN,NaN,NaN,NaN,NaN
101,18,1,familiarity,0,kitchen,sun_aapllqyqlykszopd.tif,176,1.5,0,0.8,NaN,NaN,NaN,NaN,NaN,NaN,NaN,NaN,NaN
101,19,1,familiarity,0,kitchen,sun_aymvwlarqodbwuoc.tif,218,1.5,0,1.7,NaN,NaN,NaN,NaN,NaN,NaN,NaN,NaN,NaN
101,20,1,familiarity,0,kitchen,sun_abftihopvusyfakt.tif,181,1.5,0,1.48333333333333,NaN,NaN,NaN,NaN,NaN,NaN,NaN,NaN,NaN
101,21,1,familiarity,0,kitchen,sun_acwjdupvyjsugpay.tif,186,1.5,0,0.966666666666667,NaN,NaN,NaN,NaN,NaN,NaN,NaN,NaN,NaN
101,22,1,familiarity,0,kitchen,sun_aexklacwqwezaorf.tif,194,1.5,0,1.28333333333333,NaN,NaN,NaN,NaN,NaN,NaN,NaN,NaN,NaN
101,23,1,familiarity,0,kitchen,sun_auaiucuqpdausiva.tif,212,1.5,0,0.783333333333333,NaN,NaN,NaN,NaN,NaN,NaN,NaN,NaN,NaN
101,24,1,familiarity,0,kitchen,sun_aamedkxepzlwuxes.tif,175,1.5,0,1.36666666666667,NaN,NaN,NaN,NaN,NaN,NaN,NaN,NaN,NaN
101,25,1,familiarity,0,kitchen,labelme_rykdqxenmhulbdn.tif,173,1.5,0,1.45,NaN,NaN,NaN,NaN,NaN,NaN,NaN,NaN,NaN
