sub_num,trial,block,task,is_practice,category,image,texture,duration,mask_dur,jitter,stim_time,time_of_resp,trial_response,mask_time,fix_time,jit_onset,trial_end,trial_accuracy,RT
103,6,0,familiarity,1,kitchen,kitchen_practice2.tif,227,1.5,0,0.733333333333333,3076.672133041,3079.997318708,1,NaN,3080.002938916,3080.021262791,3080.747939458,NaN,NaN
103,7,0,familiarity,1,kitchen,kitchen_practice3.tif,228,1.5,0,1.3,3080.753088958,3085.172972416,4,NaN,3085.178846458,3085.197213125,3086.490637333,NaN,NaN
103,8,0,familiarity,1,kitchen,kitchen_practice1.tif,226,1.5,0,2,3086.507555583,3090.25272375,1,NaN,3090.258769125,3090.277242375,3092.270672125,NaN,NaN
103,9,0,familiarity,1,kitchen,kitchen_practice5.tif,230,1.5,0,1.81666666666667,3092.289024041,3096.828767458,3,NaN,3096.834796583,3096.853113041,3098.66318525,NaN,NaN
103,10,0,familiarity,1,kitchen,kitchen_practice4.tif,229,1.5,0,0.75,3098.682398708,3102.853211375,4,NaN,3102.858775208,3102.877205,3103.620545041,NaN,NaN
103,1,1,familiarity,0,kitchen,sun_acxkpeoqbwcxfvip.tif,187,1.5,0,0.866666666666667,3107.898315666,3113.909134208,2,NaN,3113.915536708,3113.934296416,3114.794373833,NaN,NaN
103,2,1,familiarity,0,kitchen,sun_aggjlwcdjsjcaemh.tif,196,1.5,0,1.01666666666667,3114.79931875,3118.028945666,5,NaN,3118.03499425,3118.053422,3119.063601041,NaN,NaN
103,3,1,familiarity,0,kitchen,sun_agorklincwxrdtga.tif,197,1.5,0,1.78333333333333,3119.071844625,3122.828648708,2,NaN,3122.834722625,3122.85478925,3124.631679583,NaN,NaN
103,4,1,familiarity,0,kitchen,sun_aadbddgrdsjugojn.tif,174,1.5,0,1.85,3124.647816291,3128.645667541,5,NaN,3128.65117275,3128.669754916,3130.513167625,NaN,NaN
103,5,1,familiarity,0,kitchen,sun_ahdycvpopffkzzsu.tif,200,1.5,0,1.83333333333333,3130.530931541,3136.980907083,6,NaN,3136.986665166,3137.004965291,3138.831716541,NaN,NaN
103,6,1,familiarity,0,kitchen,sun_ahljzhgcdpomplvg.tif,201,1.5,0,1.56666666666667,3138.849185666,3142.230071541,3,NaN,3142.2423475,3142.261641958,3143.821718208,NaN,NaN
103,7,1,familiarity,0,kitchen,sun_agzzivivdpnawacl.tif,199,1.5,0,1.31666666666667,3143.83943925,3149.172721125,3,NaN,3149.178562291,3149.196964333,3150.507031041,NaN,NaN
103,8,1,familiarity,0,kitchen,sun_ahspylgoovwmwvgk.tif,203,1.5,0,1.75,3150.525233,3153.868782083,1,NaN,3153.874431416,3153.892841291,3155.63623425,NaN,NaN
103,9,1,familiarity,0,kitchen,sun_azmutvzbxypaceni.tif,220,1.5,0,1.9,3155.65576225,3158.946458291,6,NaN,3158.975412,3158.99865475,3160.89204575,NaN,NaN
103,10,1,familiarity,0,kitchen,sun_agubuxuukhzyzpdp.tif,198,1.5,0,1.76666666666667,3160.911440625,3164.525113125,2,NaN,3164.530616791,3164.548997041,3166.309087791,NaN,NaN
103,11,1,familiarity,0,kitchen,labelme_kxvouciolcpqplr.tif,172,1.5,0,1.05,3166.325584,3170.780723916,6,NaN,3170.786413375,3170.80472725,3171.848160833,NaN,NaN
103,12,1,familiarity,0,kitchen,labelme_brsyyvweiuaazfr.tif,171,1.5,0,1.58333333333333,3171.857582708,3175.0285475,4,NaN,3175.034683625,3175.053007583,3176.62975775,NaN,NaN
103,13,1,familiarity,0,kitchen,sun_aegoxogugdkwpmpj.tif,190,1.5,0,0.983333333333333,3176.64811225,3179.389448166,2,NaN,3179.394956625,3179.413290041,3180.389966375,NaN,NaN
103,14,1,familiarity,0,kitchen,sun_adgqasybjyktddhj.tif,188,1.5,0,0.733333333333333,3180.394365708,3183.628509125,6,NaN,3183.634442583,3183.652890083,3184.379567,NaN,NaN
103,15,1,familiarity,0,kitchen,sun_akchetnepxlcxhsu.tif,208,1.5,0,1.13333333333333,3184.383833583,3188.18108225,6,NaN,3188.186622916,3188.204910125,3189.331676125,NaN,NaN
103,16,1,familiarity,0,kitchen,sun_acgtpgfybqjmzeyw.tif,185,1.5,0,1.58333333333333,3189.340411041,3192.524548291,5,NaN,3192.530422333,3192.548774916,3194.125536291,NaN,NaN
103,17,1,familiarity,0,kitchen,sun_abrcnpqqhmjwekyf.tif,183,1.5,0,0.783333333333333,3194.137078791,3196.92511,7,NaN,3196.930712458,3196.94912,3197.725797666,NaN,NaN
103,18,1,familiarity,0,kitchen,sun_aapllqyqlykszopd.tif,176,1.5,0,0.8,3197.730007,3202.03698025,3,NaN,3202.042569625,3202.060844166,3202.854185833,NaN,NaN
103,19,1,familiarity,0,kitchen,sun_aymvwlarqodbwuoc.tif,218,1.5,0,1.7,3202.858346666,3205.744177083,2,NaN,3205.773185833,3205.795919958,3207.489318625,NaN,NaN
103,20,1,familiarity,0,kitchen,sun_abftihopvusyfakt.tif,181,1.5,0,1.48333333333333,3207.506203708,3213.556805416,4,NaN,3213.562436875,3213.580713958,3215.05745025,NaN,NaN
103,21,1,familiarity,0,kitchen,sun_acwjdupvyjsugpay.tif,186,1.5,0,0.966666666666667,3215.076743333,3218.18937475,6,NaN,3218.194997958,3218.213311541,3219.173318958,NaN,NaN
103,22,1,familiarity,0,kitchen,sun_aexklacwqwezaorf.tif,194,1.5,0,1.28333333333333,3219.177857833,3222.200112875,3,NaN,3222.229102916,3222.252592583,3223.529321625,NaN,NaN
103,23,1,familiarity,0,kitchen,sun_auaiucuqpdausiva.tif,212,1.5,0,0.783333333333333,3223.545653541,3226.652489708,2,NaN,3226.65805225,3226.67642475,3227.453098916,NaN,NaN
103,24,1,familiarity,0,kitchen,sun_aamedkxepzlwuxes.tif,175,1.5,0,1.36666666666667,3227.457339458,3232.4285635,2,NaN,3232.434399125,3232.452653583,3233.812740791,NaN,NaN
103,25,1,familiarity,0,kitchen,labelme_rykdqxenmhulbdn.tif,173,1.5,0,1.45,3233.832042833,3236.500414958,1,NaN,3236.506173125,3236.524555666,3237.967986458,NaN,NaN
103,1,2,familiarity,0,kitchen,sun_ajcbwwvdlsvjyzje.tif,206,1.5,0,1.81666666666667,3242.023191875,3246.196484833,4,NaN,3246.202192791,3246.220378875,3248.030469208,NaN,NaN
103,2,2,familiarity,0,kitchen,sun_aypmqwcualkenuoe.tif,219,1.5,0,0.816666666666667,3248.046015583,3251.548522458,3,NaN,3251.554981958,3251.573257708,3252.383264791,NaN,NaN
103,3,2,familiarity,0,kitchen,sun_ahpczsiumwwocjkv.tif,202,1.5,0,0.9,3252.388167791,3254.8765745,2,NaN,3254.905216666,3254.928453208,3255.821794916,NaN,NaN
103,4,2,familiarity,0,kitchen,sun_acfmftudsenhrfhy.tif,184,1.5,0,0.933333333333333,3255.826590041,3259.253024291,6,NaN,3259.2586355,3259.277021083,3260.203694958,NaN,NaN
103,5,2,familiarity,0,kitchen,sun_afuyedyxivkhecmu.tif,195,1.5,0,1.48333333333333,3260.208418833,3262.8057385,1,NaN,3262.8333025,3262.855838875,3264.332574958,NaN,NaN
103,6,2,familiarity,0,kitchen,sun_axyyrmzcupyhlivc.tif,217,1.5,0,1.48333333333333,3264.350270791,3267.628868666,6,NaN,3267.634436875,3267.652574375,3269.12933175,NaN,NaN
103,7,2,familiarity,0,kitchen,sun_aenotlpyftoioydp.tif,192,1.5,0,1.43333333333333,3269.146999291,3272.276751708,3,NaN,3272.28225225,3272.300684916,3273.727461666,NaN,NaN
103,8,2,familiarity,0,kitchen,sun_avszsnwsbuqfgzbn.tif,215,1.5,0,0.733333333333333,3273.744795708,3276.260870833,1,NaN,3276.266381875,3276.284763333,3277.01143725,NaN,NaN
103,9,2,familiarity,0,kitchen,sun_abpwyqmlzafvklqo.tif,182,1.5,0,0.966666666666667,3277.015724875,3280.140705333,4,NaN,3280.146702666,3280.164948833,3281.124960833,NaN,NaN
103,10,2,familiarity,0,kitchen,sun_aixorpehvfykdynp.tif,205,1.5,0,0.916666666666667,3281.129603958,3283.72463925,6,NaN,3283.753461583,3283.77608,3284.686087583,NaN,NaN
103,11,2,familiarity,0,kitchen,sun_abdxkyyxwfskuaqb.tif,180,1.5,0,1.03333333333333,3284.690932166,3287.72458225,1,NaN,3287.736745833,3287.755156083,3288.781902833,NaN,NaN
103,12,2,familiarity,0,kitchen,sun_abdenxonkemggwsq.tif,179,1.5,0,0.733333333333333,3288.789716708,3291.364159375,2,NaN,3291.369908291,3291.388242875,3292.114916041,NaN,NaN
103,13,2,familiarity,0,kitchen,sun_aehawpgmrlhlvcow.tif,191,1.5,0,1.13333333333333,3292.119271583,3295.024212583,2,NaN,3295.053329375,3295.075837916,3296.202609916,NaN,NaN
103,14,2,familiarity,0,kitchen,sun_ajkqhtgcbgpcwrwn.tif,207,1.5,0,0.883333333333333,3296.213931583,3299.499928,5,NaN,3299.505866958,3299.52417175,3300.40084675,NaN,NaN
103,15,2,familiarity,0,kitchen,sun_aarfiyshqohlwkmo.tif,177,1.5,0,1.85,3300.405152958,3303.6046975,3,NaN,3303.610684666,3303.628987125,3305.472424875,NaN,NaN
103,16,2,familiarity,0,kitchen,sun_aeqdocilnnpuvuhx.tif,193,1.5,0,0.733333333333333,3305.490552,3308.495538166,1,NaN,3308.524848625,3308.547973666,3309.2746505,NaN,NaN
103,17,2,familiarity,0,kitchen,sun_aqeaevwwwjoqhzvl.tif,211,1.5,0,1.95,3309.27939725,3312.044956833,1,NaN,3312.065567541,3312.086973833,3314.030406958,NaN,NaN
103,18,2,familiarity,0,kitchen,sun_auticobqsbwgoppi.tif,214,1.5,0,1.1,3314.045771666,3319.5318075,5,NaN,3319.537873875,3319.556368541,3320.649789791,NaN,NaN
103,19,2,familiarity,0,kitchen,sun_aaxxjlsuzvqlgylf.tif,178,1.5,0,1.31666666666667,3320.659777833,3324.076286916,3,NaN,3324.082306541,3324.101021333,3325.411095875,NaN,NaN
103,20,2,familiarity,0,kitchen,sun_amjjdeyrggfqgmom.tif,210,1.5,0,1.78333333333333,3325.427021791,3328.0364975,1,NaN,3328.041986541,3328.060282583,3329.837029333,NaN,NaN
103,21,2,familiarity,0,kitchen,sun_aunzlwrbjumxhwdj.tif,213,1.5,0,1.33333333333333,3329.856277375,3332.592894458,1,NaN,3332.621777666,3332.645010958,3333.971784833,NaN,NaN
103,22,2,familiarity,0,kitchen,sun_awcpdzzznmweyyhv.tif,216,1.5,0,0.95,3333.989826,3337.115947208,3,NaN,3337.121849625,3337.140199666,3338.083544833,NaN,NaN
103,23,2,familiarity,0,kitchen,sun_akcjzhbbjlbogpdi.tif,209,1.5,0,1.93333333333333,3338.087925583,3341.212579166,4,NaN,3341.219806625,3341.238244125,3343.165006041,NaN,NaN
103,24,2,familiarity,0,kitchen,sun_ahywdevtimnqcsln.tif,204,1.5,0,1.28333333333333,3343.183714375,3346.524306541,4,NaN,3346.5313135,3346.549608708,3347.826348208,NaN,NaN
103,25,2,familiarity,0,kitchen,sun_admlmbcdswaszruo.tif,189,1.5,0,1.43333333333333,3347.846578416,3351.132041458,6,NaN,3351.137895833,3351.156426083,3352.583188041,NaN,NaN
