sub_num,trial,block,task,is_practice,category,image,texture,duration,mask_dur,jitter,stim_time,time_of_resp,trial_response,mask_time,fix_time,jit_onset,trial_end,trial_accuracy,RT
125,1,0,typicality,1,bathroom,bathroom_practice2.tif,222,1.5,0,1.48333333333333,456.898278583,468.536517,3,NaN,468.559218375,468.579676291,470.056655166,NaN,NaN
125,2,0,typicality,1,bathroom,bathroom_practice4.tif,224,1.5,0,0.75,470.122749458,476.104391666,6,NaN,476.114476333,476.133892875,476.877255583,NaN,NaN
125,3,0,typicality,1,bathroom,bathroom_practice1.tif,221,1.5,0,1.93333333333333,476.884047,483.288267125,6,NaN,483.295772958,483.314622416,485.241479208,NaN,NaN
125,4,0,typicality,1,bathroom,bathroom_practice5.tif,225,1.5,0,0.983333333333333,485.275982083,494.056978916,2,NaN,494.064964416,494.083805416,495.060488666,NaN,NaN
125,5,0,typicality,1,bathroom,bathroom_practice3.tif,223,1.5,0,0.883333333333333,495.06943325,501.008544333,3,NaN,501.018551958,501.038027208,501.91477175,NaN,NaN
125,1,1,typicality,0,bathroom,sun_aapitsgbtktqubfy.tif,122,1.5,0,0.866666666666667,509.768530041,515.288143958,4,NaN,515.29462975,515.313137541,516.17315875,NaN,NaN
125,2,1,typicality,0,bathroom,sun_aleqenyvunhactkl.tif,142,1.5,0,1.03333333333333,516.178559916,520.4881505,3,NaN,520.494312958,520.512680875,521.539394125,NaN,NaN
125,3,1,typicality,0,bathroom,sun_ajlawzvmubibwbpy.tif,140,1.5,0,0.866666666666667,521.551522458,526.352087083,2,NaN,526.3579905,526.376365041,527.236370375,NaN,NaN
125,4,1,typicality,0,bathroom,sun_alkosphxlxwjwgjd.tif,144,1.5,0,1.61666666666667,527.241408541,531.320025125,1,NaN,531.326365833,531.344772541,532.954831333,NaN,NaN
125,5,1,typicality,0,bathroom,sun_anhioqovhscjqqwb.tif,148,1.5,0,0.883333333333333,532.973209666,538.751871458,2,NaN,538.757851375,538.776176458,539.652848958,NaN,NaN
125,6,1,typicality,0,bathroom,sun_alotolagknyrgtsk.tif,145,1.5,0,0.933333333333333,539.658359666,544.512365958,2,NaN,544.518047708,544.53639925,545.463070083,NaN,NaN
125,7,1,typicality,0,bathroom,sun_aghyqhbptboemmoq.tif,133,1.5,0,1.5,545.468334208,549.2405015,6,NaN,549.246061166,549.264371375,550.75775625,NaN,NaN
125,8,1,typicality,0,bathroom,sun_asfwthctfqerjvxr.tif,159,1.5,0,1.36666666666667,550.775061666,553.983841125,1,NaN,553.989803,554.008112041,555.368166041,NaN,NaN
125,9,1,typicality,0,bathroom,sun_agyqfjcfkdcydepw.tif,135,1.5,0,0.85,555.3859055,559.296473833,1,NaN,559.302018166,559.320648,560.163985458,NaN,NaN
125,10,1,typicality,0,bathroom,sun_apeeialkgkuxddgh.tif,152,1.5,0,1.81666666666667,560.182162291,565.528047666,4,NaN,565.533893208,565.552200875,567.362248291,NaN,NaN
125,11,1,typicality,0,bathroom,sun_acegryoqftbzowsg.tif,127,1.5,0,1.28333333333333,567.380478375,574.271834791,3,NaN,574.27759175,574.295986791,575.572692833,NaN,NaN
125,12,1,typicality,0,bathroom,sun_anryaplzeujmzfkd.tif,149,1.5,0,1.23333333333333,575.588692291,583.016451125,5,NaN,583.022094833,583.040520583,584.267210791,NaN,NaN
125,13,1,typicality,0,bathroom,sun_amzlamotzwfkwjco.tif,147,1.5,0,0.883333333333333,584.277627541,589.103627208,3,NaN,589.109636916,589.127971041,590.004642666,NaN,NaN
125,14,1,typicality,0,bathroom,sun_afcoljnjfoxjtgja.tif,130,1.5,0,0.866666666666667,590.009012458,595.615915083,2,NaN,595.622169291,595.640467791,596.50047325,NaN,NaN
125,15,1,typicality,0,bathroom,sun_aclfzgynxzxlbepz.tif,129,1.5,0,1.36666666666667,596.505997458,600.816434333,7,NaN,600.821939625,600.840312791,602.2003595,NaN,NaN
125,16,1,typicality,0,bathroom,sun_acduarbnmmoglmiv.tif,126,1.5,0,1.05,602.219184541,606.608592958,4,NaN,606.614346458,606.632688,607.67606825,NaN,NaN
125,17,1,typicality,0,bathroom,sun_auzqhkafidnkrwmo.tif,164,1.5,0,1.21666666666667,607.686573625,613.5355545,2,NaN,613.541514833,613.559861916,614.769905666,NaN,NaN
125,18,1,typicality,0,bathroom,sun_aofnryafpsjimzsb.tif,150,1.5,0,0.816666666666667,614.7869245,619.064055416,3,NaN,619.069903333,619.088204666,619.898209708,NaN,NaN
125,19,1,typicality,0,bathroom,sun_apmqjbnwghzuhhzh.tif,156,1.5,0,1,619.903444833,624.16837075,5,NaN,624.1739695,624.192575166,625.185913625,NaN,NaN
125,20,1,typicality,0,bathroom,sun_abjtwfukuwddzted.tif,125,1.5,0,1.21666666666667,625.191121708,629.063573,6,NaN,629.069354083,629.08770125,630.297756166,NaN,NaN
125,21,1,typicality,0,bathroom,sun_awnqiikzaispgmwo.tif,166,1.5,0,1.46666666666667,630.314531875,633.3916295,7,NaN,633.3975255,633.415922833,634.875976,NaN,NaN
125,22,1,typicality,0,bathroom,sun_aljolscmmzydegqp.tif,143,1.5,0,1.4,634.893443125,639.29614825,4,NaN,639.301719541,639.320108458,640.713488458,NaN,NaN
125,23,1,typicality,0,bathroom,sun_abapwbhyhkfixyex.tif,124,1.5,0,0.783333333333333,640.730367375,646.232180875,3,NaN,646.237776,646.256191333,647.032863875,NaN,NaN
125,24,1,typicality,0,bathroom,labelme_sfxiulhjbhlyiyt.tif,121,1.5,0,1.21666666666667,647.038187166,650.984136375,6,NaN,650.989753375,651.008175041,652.218210291,NaN,NaN
125,25,1,typicality,0,bathroom,sun_axldvoqbuvuggfmq.tif,167,1.5,0,1.35,652.233359041,656.015823458,7,NaN,656.022189791,656.040737041,657.384114333,NaN,NaN
125,1,2,typicality,0,bathroom,sun_aoybiabnpadelefl.tif,151,1.5,0,1.65,663.679473458,666.559626833,1,NaN,666.588555583,666.611594166,668.254977583,NaN,NaN
125,2,2,typicality,0,bathroom,sun_apkruvsevgegsdwp.tif,154,1.5,0,1.01666666666667,668.271820916,671.243262333,7,NaN,671.268045958,671.291048916,672.301055625,NaN,NaN
125,3,2,typicality,0,bathroom,sun_ahijqszoswveeyji.tif,138,1.5,0,1.58333333333333,672.30649675,677.120292458,3,NaN,677.126144083,677.144604833,678.721304625,NaN,NaN
125,4,2,typicality,0,bathroom,sun_aunuadmjocsddsrl.tif,162,1.5,0,0.7,678.735651666,681.819791708,6,NaN,681.844322125,681.867645708,682.560984875,NaN,NaN
125,5,2,typicality,0,bathroom,sun_apkxzenqapsujocq.tif,155,1.5,0,1.23333333333333,682.566562208,686.83981125,7,NaN,686.845508833,686.863973791,688.09069125,NaN,NaN
125,6,2,typicality,0,bathroom,sun_akiytfaagpdsphgz.tif,141,1.5,0,0.816666666666667,688.1065985,692.0162075,4,NaN,692.021741708,692.04009925,692.850104,NaN,NaN
125,7,2,typicality,0,bathroom,sun_agrwbmhcpmfuwmsg.tif,134,1.5,0,0.733333333333333,692.855193625,698.351644416,4,NaN,698.357403416,698.375729125,699.102400416,NaN,NaN
125,8,2,typicality,0,bathroom,sun_agguqiubmwhqqunb.tif,132,1.5,0,1.15,699.107844125,702.808180416,5,NaN,702.813819458,702.832425125,703.975803,NaN,NaN
125,9,2,typicality,0,bathroom,sun_axyrejkiiaqiurjk.tif,169,1.5,0,0.933333333333333,703.985473291,707.56807275,2,NaN,707.573621916,707.592021,708.518693041,NaN,NaN
125,10,2,typicality,0,bathroom,sun_aavhrsfjbserjtht.tif,123,1.5,0,0.916666666666667,708.523349041,712.8078205,4,NaN,712.813461125,712.831865583,713.741872791,NaN,NaN
125,11,2,typicality,0,bathroom,sun_avhrdrntsqrjzccq.tif,165,1.5,0,1.26666666666667,713.747032541,717.743325416,1,NaN,717.749207333,717.7674265,719.027463958,NaN,NaN
125,12,2,typicality,0,bathroom,sun_aqrpegblszgcoujh.tif,158,1.5,0,0.933333333333333,719.043153791,723.615924333,5,NaN,723.621518583,723.639804208,724.5664775,NaN,NaN
125,13,2,typicality,0,bathroom,sun_ambriybtogmepttm.tif,146,1.5,0,1,724.571755333,730.720020625,1,NaN,730.725832958,730.744667875,731.738006833,NaN,NaN
125,14,2,typicality,0,bathroom,sun_acgyywnybuveqsro.tif,128,1.5,0,1,731.74346525,735.279579625,6,NaN,735.285278375,735.303648583,736.296988541,NaN,NaN
125,15,2,typicality,0,bathroom,sun_aggnnqpdorgxpvce.tif,131,1.5,0,1.21666666666667,736.302345791,740.97612625,7,NaN,740.982489333,741.000767,742.21080625,NaN,NaN
125,16,2,typicality,0,bathroom,sun_apjevzvycyhuqghb.tif,153,1.5,0,1.85,742.227836833,745.735197208,6,NaN,745.741130958,745.759416916,747.6027925,NaN,NaN
125,17,2,typicality,0,bathroom,sun_aspsyogrekjtfozg.tif,160,1.5,0,0.766666666666667,747.619826458,751.871254041,6,NaN,751.878298583,751.896725666,752.656731625,NaN,NaN
125,18,2,typicality,0,bathroom,sun_axxbkopsgyouuebh.tif,168,1.5,0,0.966666666666667,752.661447166,756.919985375,7,NaN,756.9266575,756.945089791,757.90509575,NaN,NaN
125,19,2,typicality,0,bathroom,sun_ahaulkltgpkeeemi.tif,136,1.5,0,1.4,757.910537666,761.031414,7,NaN,761.040333375,761.058713833,762.452095916,NaN,NaN
125,20,2,typicality,0,bathroom,sun_apynckhmoftszqoq.tif,157,1.5,0,0.933333333333333,762.468705833,766.527305291,6,NaN,766.5330845,766.551347708,767.478019,NaN,NaN
125,21,2,typicality,0,bathroom,sun_ahqjwnzgolcaoidx.tif,139,1.5,0,1.7,767.483299666,771.735211208,5,NaN,771.741054875,771.759521166,773.452898666,NaN,NaN
125,22,2,typicality,0,bathroom,sun_ahcvzmoyaycdoftf.tif,137,1.5,0,0.916666666666667,773.469704833,779.279970791,6,NaN,779.285652666,779.30390675,780.2139115,NaN,NaN
125,23,2,typicality,0,bathroom,sun_ausgutylgojavyoq.tif,163,1.5,0,0.833333333333333,780.219357416,784.279078291,3,NaN,784.284947541,784.303222666,785.129895583,NaN,NaN
125,24,2,typicality,0,bathroom,sun_azqyogdvyhahyram.tif,170,1.5,0,0.783333333333333,785.134906333,788.767952208,7,NaN,788.77355125,788.791962583,789.568635166,NaN,NaN
125,25,2,typicality,0,bathroom,sun_atstyziqcmkahyxk.tif,161,1.5,0,1.4,789.573755708,792.775222,7,NaN,792.783119875,792.80140275,794.194787125,NaN,NaN
