sub_num,trial,block,task,is_practice,category,image,texture,duration,mask_dur,jitter,stim_time,time_of_resp,trial_response,mask_time,fix_time,jit_onset,trial_end,trial_accuracy,RT
119,1,1,categorization,0,kitchen,SHINEd_sun_admlmbcdswaszruo.tif,79,0.0666666666666667,0.0666666666666667,1.23333333333333,14720.87283775,14721.884797542,9,14720.934781667,14720.9955765,14721.897995334,14723.12471175,1,1.0119597920002
119,2,1,categorization,0,kitchen,SHINEd_sun_acxkpeoqbwcxfvip.tif,77,0.0666666666666667,0.0666666666666667,0.783333333333333,14723.1383985,14724.205538959,9,14723.20653625,14723.27095075,14724.227339709,14725.004037834,1,1.06714045900117
119,3,1,categorization,0,kitchen,SHINEd_sun_ahljzhgcdpomplvg.tif,91,0.0666666666666667,0.0666666666666667,0.75,14725.020026292,14726.308733917,9,14725.082560334,14725.14264775,14726.328119375,14727.071456542,1,1.28870762499901
119,4,1,categorization,0,bathroom,SHINEd_sun_apkxzenqapsujocq.tif,45,0.0666666666666667,0.0666666666666667,1.23333333333333,14727.078161875,14727.884505459,13,14727.139847292,14727.200899417,14727.902803959,14729.129512292,1,0.806343583999478
119,5,1,categorization,0,bathroom,SHINEd_sun_aofnryafpsjimzsb.tif,40,0.0666666666666667,0.0666666666666667,1.13333333333333,14729.147107667,14730.261857667,9,14729.213500042,14729.279536209,14730.284445959,14731.41116025,0,1.11474999999882
119,6,1,categorization,0,bathroom,SHINEd_sun_acegryoqftbzowsg.tif,17,0.0666666666666667,0.0666666666666667,0.95,14731.421696375,14732.850553042,13,14731.48748,14731.554147042,14732.877014542,14733.820353375,1,1.42885666700022
119,7,1,categorization,0,bathroom,SHINEd_sun_ahaulkltgpkeeemi.tif,26,0.0666666666666667,0.0666666666666667,0.733333333333333,14733.82799025,14735.51703575,9,14733.8897375,14733.950559375,14735.535886417,14736.262559209,0,1.68904549999934
119,8,1,categorization,0,bathroom,SHINEd_sun_acduarbnmmoglmiv.tif,16,0.0666666666666667,0.0666666666666667,1.31666666666667,14736.267435084,14737.684828959,13,14736.329185,14736.390274625,14737.692423125,14739.00245575,1,1.41739387499911
119,9,1,categorization,0,bathroom,SHINEd_sun_asfwthctfqerjvxr.tif,49,0.0666666666666667,0.0666666666666667,0.8,14739.020588,14739.930095959,13,14739.087456209,14739.152519834,14739.959245209,14740.752631459,1,0.909507959000621
119,10,1,categorization,0,bathroom,SHINEd_sun_afcoljnjfoxjtgja.tif,20,0.0666666666666667,0.0666666666666667,0.716666666666667,14740.764188,14741.908950375,13,14740.826696709,14740.886889,14741.9223455,14742.632350792,1,1.14476237500094
119,11,1,categorization,0,kitchen,SHINEd_sun_aadbddgrdsjugojn.tif,64,0.0666666666666667,0.0666666666666667,0.916666666666667,14742.637231959,14743.844764959,13,14742.698969209,14742.759892959,14743.862149334,14744.77215275,0,1.20753300000069
119,12,1,categorization,0,kitchen,SHINEd_sun_afuyedyxivkhecmu.tif,85,0.0666666666666667,0.0666666666666667,0.95,14744.778279084,14746.332951917,13,14744.8399805,14744.900860875,14746.336155584,14747.279494459,0,1.55467283300095
119,13,1,categorization,0,kitchen,SHINEd_sun_abdenxonkemggwsq.tif,69,0.0666666666666667,0.0666666666666667,0.833333333333333,14747.284397584,14748.1731885,13,14747.346169417,14747.406922834,14748.192381625,14749.019053292,0,0.888790916000289
119,14,1,categorization,0,kitchen,SHINEd_sun_aegoxogugdkwpmpj.tif,80,0.0666666666666667,0.0666666666666667,0.75,14749.023920084,14750.580871542,13,14749.085779375,14749.146546375,14750.599004084,14751.342342209,0,1.55695145800019
119,15,1,categorization,0,kitchen,SHINEd_labelme_kxvouciolcpqplr.tif,62,0.0666666666666667,0.0666666666666667,1.53333333333333,14751.3479475,14752.557199917,13,14751.409739209,14751.470574875,14752.572397917,14754.099121459,0,1.20925241700024
119,16,1,categorization,0,kitchen,SHINEd_sun_aaxxjlsuzvqlgylf.tif,68,0.0666666666666667,0.0666666666666667,1.05,14754.117600625,14754.984989625,9,14754.183801667,14754.246577625,14755.0020435,14756.045413542,1,0.867388999999093
119,17,1,categorization,0,kitchen,SHINEd_sun_ajcbwwvdlsvjyzje.tif,96,0.0666666666666667,0.0666666666666667,0.9,14756.054931417,14757.360493042,9,14756.119753209,14756.18658325,14757.376372334,14758.269709792,1,1.30556162500034
119,18,1,categorization,0,bathroom,SHINEd_sun_aggnnqpdorgxpvce.tif,21,0.0666666666666667,0.0666666666666667,1.18333333333333,14758.274707292,14759.228506667,9,14758.336431709,14758.397542709,14759.232802209,14760.409522417,0,0.953799375000017
119,19,1,categorization,0,bathroom,SHINEd_sun_azqyogdvyhahyram.tif,60,0.0666666666666667,0.0666666666666667,0.9,14760.419928834,14762.348750292,13,14760.488173375,14760.552112042,14762.355218375,14763.24855525,1,1.92882145799922
119,20,1,categorization,0,bathroom,SHINEd_sun_anhioqovhscjqqwb.tif,38,0.0666666666666667,0.0666666666666667,1.66666666666667,14763.253539792,14764.156174209,13,14763.315337917,14763.376226417,14764.161586209,14765.821625042,1,0.902634416999717
119,21,1,categorization,0,kitchen,SHINEd_sun_aexklacwqwezaorf.tif,84,0.0666666666666667,0.0666666666666667,1.13333333333333,14765.834797667,14766.559586709,9,14765.901221334,14765.968028959,14766.572692917,14767.699406125,1,0.724789042000339
119,22,1,categorization,0,kitchen,SHINEd_sun_aenotlpyftoioydp.tif,82,0.0666666666666667,0.0666666666666667,1.3,14767.713327417,14768.409040542,9,14767.778327459,14767.845573209,14768.435220959,14769.728599667,1,0.695713125000111
119,23,1,categorization,0,kitchen,SHINEd_sun_ahdycvpopffkzzsu.tif,90,0.0666666666666667,0.0666666666666667,1.93333333333333,14769.747825625,14770.94109825,13,14769.814181042,14769.880011542,14770.969916584,14772.896636542,0,1.19327262499974
119,24,1,categorization,0,kitchen,SHINEd_sun_aehawpgmrlhlvcow.tif,81,0.0666666666666667,0.0666666666666667,1,14772.912941084,14774.612624459,13,14772.979554459,14773.045487667,14774.631246292,14775.624584875,0,1.69968337499995
119,25,1,categorization,0,kitchen,SHINEd_sun_akcjzhbbjlbogpdi.tif,99,0.0666666666666667,0.0666666666666667,0.883333333333333,14775.629358625,14776.645049792,9,14775.691013792,14775.751958875,14776.653948125,14777.530619125,1,1.01569116700011
119,26,1,categorization,0,bathroom,SHINEd_sun_aavhrsfjbserjtht.tif,13,0.0666666666666667,0.0666666666666667,1.95,14777.535708959,14778.580445459,9,14777.597586584,14777.658346542,14778.5934505,14780.53681725,0,1.0447365
119,27,1,categorization,0,bathroom,SHINEd_sun_axyrejkiiaqiurjk.tif,59,0.0666666666666667,0.0666666666666667,1.25,14780.553542667,14781.599174,9,14780.621344667,14780.686017292,14781.625862334,14782.86923875,0,1.04563133300144
119,28,1,categorization,0,kitchen,SHINEd_sun_ajkqhtgcbgpcwrwn.tif,97,0.0666666666666667,0.0666666666666667,1.95,14782.886622375,14784.344633375,9,14782.95309975,14783.018954625,14784.358485542,14786.301856625,1,1.45801100000062
119,29,1,categorization,0,kitchen,SHINEd_sun_aamedkxepzlwuxes.tif,65,0.0666666666666667,0.0666666666666667,1.91666666666667,14786.312354834,14787.501177542,9,14786.380095334,14786.44484,14787.514186209,14789.424242292,1,1.18882270799986
119,30,1,categorization,0,bathroom,SHINEd_sun_awnqiikzaispgmwo.tif,56,0.0666666666666667,0.0666666666666667,1.41666666666667,14789.439023625,14790.520551334,13,14789.505854584,14789.571446167,14790.545127542,14791.955183,1,1.08152770900051
119,31,1,categorization,0,bathroom,SHINEd_sun_ambriybtogmepttm.tif,36,0.0666666666666667,0.0666666666666667,0.716666666666667,14791.973101667,14793.29998775,13,14792.039514334,14792.105414167,14793.328533417,14794.038539459,1,1.32688608300123
119,32,1,categorization,0,bathroom,SHINEd_sun_apeeialkgkuxddgh.tif,42,0.0666666666666667,0.0666666666666667,1.28333333333333,14794.044385,14794.884419792,13,14794.106137625,14794.167150625,14794.902585167,14796.179299792,1,0.840034792001461
119,33,1,categorization,0,kitchen,SHINEd_sun_abpwyqmlzafvklqo.tif,72,0.0666666666666667,0.0666666666666667,0.9,14796.197027125,14797.588135292,13,14796.261707125,14796.325714834,14797.618136167,14798.511473584,0,1.39110816700122
119,34,1,categorization,0,bathroom,SHINEd_sun_apynckhmoftszqoq.tif,47,0.0666666666666667,0.0666666666666667,0.8,14798.51654225,14799.692329167,13,14798.578485292,14798.639217459,14799.707905625,14800.501244042,1,1.17578691699964
119,35,1,categorization,0,kitchen,SHINEd_sun_adgqasybjyktddhj.tif,78,0.0666666666666667,0.0666666666666667,1.01666666666667,14800.5060165,14801.772665917,9,14800.567815834,14800.628695292,14801.781426584,14802.791458667,1,1.26664941700074
119,36,1,categorization,0,bathroom,SHINEd_sun_agyqfjcfkdcydepw.tif,25,0.0666666666666667,0.0666666666666667,0.85,14802.800420959,14803.885247542,9,14802.864422542,14802.93091475,14803.904681417,14804.748060125,0,1.0848265830009
119,37,1,categorization,0,kitchen,SHINEd_sun_ahywdevtimnqcsln.tif,94,0.0666666666666667,0.0666666666666667,1.51666666666667,14804.763703834,14806.084230959,9,14804.830481042,14804.888582709,14806.090885792,14807.600951834,1,1.32052712500081
119,38,1,categorization,0,bathroom,SHINEd_sun_auzqhkafidnkrwmo.tif,54,0.0666666666666667,0.0666666666666667,1.83333333333333,14807.617600417,14809.836408792,9,14807.684355625,14807.751145042,14809.853566709,14811.680285167,0,2.21880837500066
119,39,1,categorization,0,bathroom,SHINEd_sun_ahcvzmoyaycdoftf.tif,27,0.0666666666666667,0.0666666666666667,0.716666666666667,14811.697539292,14813.068365792,13,14811.764012125,14811.829938042,14813.082910625,14813.792914875,1,1.37082650000048
119,40,1,categorization,0,bathroom,SHINEd_sun_avhrdrntsqrjzccq.tif,55,0.0666666666666667,0.0666666666666667,0.9,14813.797750167,14815.292495417,9,14813.859449542,14813.920398542,14815.306097667,14816.199435334,0,1.49474525000005
119,41,1,categorization,0,kitchen,SHINEd_sun_ahspylgoovwmwvgk.tif,93,0.0666666666666667,0.0666666666666667,0.916666666666667,14816.204223709,14817.9482265,9,14816.266136334,14816.326876167,14817.962765292,14818.872769375,1,1.74400279099973
119,42,1,categorization,0,bathroom,SHINEd_sun_agrwbmhcpmfuwmsg.tif,24,0.0666666666666667,0.0666666666666667,0.816666666666667,14818.877714792,14820.964625625,9,14818.939347459,14819.000487292,14820.969377042,14821.779382792,0,2.08691083300073
119,43,1,categorization,0,bathroom,SHINEd_sun_apmqjbnwghzuhhzh.tif,46,0.0666666666666667,0.0666666666666667,1.88333333333333,14821.784882875,14823.324132417,13,14821.846616667,14821.907484667,14823.343257875,14825.2199815,1,1.53924954200011
119,44,1,categorization,0,bathroom,SHINEd_sun_atstyziqcmkahyxk.tif,51,0.0666666666666667,0.0666666666666667,0.9,14825.237635625,14826.732326917,9,14825.305306042,14825.370448209,14826.73956625,14827.632904084,0,1.49469129199861
119,45,1,categorization,0,bathroom,SHINEd_sun_acgyywnybuveqsro.tif,18,0.0666666666666667,0.0666666666666667,1,14827.63858525,14828.891929375,13,14827.700376834,14827.761237834,14828.896845917,14829.890184584,1,1.25334412499978
119,46,1,categorization,0,kitchen,SHINEd_sun_agorklincwxrdtga.tif,87,0.0666666666666667,0.0666666666666667,0.733333333333333,14829.895228,14830.860672042,9,14829.956892,14830.017835125,14830.869747417,14831.59641925,1,0.965444041999945
119,47,1,categorization,0,bathroom,SHINEd_sun_aapitsgbtktqubfy.tif,12,0.0666666666666667,0.0666666666666667,0.883333333333333,14831.602190417,14832.804743625,13,14831.664024375,14831.724824875,14832.810272209,14833.686941792,1,1.20255320800061
119,48,1,categorization,0,bathroom,SHINEd_sun_aspsyogrekjtfozg.tif,50,0.0666666666666667,0.0666666666666667,1.73333333333333,14833.691800084,14834.867992042,9,14833.753483209,14833.814427042,14834.883387459,14836.610108084,0,1.17619195800035
119,49,1,categorization,0,kitchen,SHINEd_sun_acgtpgfybqjmzeyw.tif,75,0.0666666666666667,0.0666666666666667,1.91666666666667,14836.626479334,14837.603889167,9,14836.694413125,14836.758860542,14837.631289167,14839.541344,1,0.977409832999911
119,50,1,categorization,0,kitchen,SHINEd_labelme_brsyyvweiuaazfr.tif,61,0.0666666666666667,0.0666666666666667,1.35,14839.558696042,14842.100733709,13,14839.624779334,14839.691232334,14842.110233125,14843.453606875,0,2.54203766699902
