sub_num,trial,block,task,is_practice,category,image,texture,duration,mask_dur,jitter,stim_time,time_of_resp,trial_response,mask_time,fix_time,jit_onset,trial_end,trial_accuracy,RT
119,1,23,categorization,0,bathroom,SHINEd_sun_aapitsgbtktqubfy.tif,12,0.0666666666666667,0.0666666666666667,0.916666666666667,17492.809213417,17493.801914834,13,17492.871320375,17492.931854334,17493.817358167,17494.727363375,1,0.992701416998898
119,2,23,categorization,0,kitchen,SHINEd_labelme_kxvouciolcpqplr.tif,62,0.0666666666666667,0.0666666666666667,1.61666666666667,17494.732275209,17495.353460084,13,17494.793965125,17494.854872,17495.35652675,17496.966571375,0,0.621184874999017
119,3,23,categorization,0,bathroom,SHINEd_sun_apjevzvycyhuqghb.tif,43,0.0666666666666667,0.0666666666666667,1.05,17496.985359334,17497.78767975,13,17497.050923459,17497.117008167,17497.806612209,17498.849992417,1,0.802320415998111
119,4,23,categorization,0,bathroom,SHINEd_sun_abjtwfukuwddzted.tif,15,0.0666666666666667,0.0666666666666667,1.76666666666667,17498.858210792,17499.469117625,13,17498.922664584,17498.989215709,17499.495401792,17501.255446375,1,0.610906833000627
119,5,23,categorization,0,kitchen,SHINEd_sun_admlmbcdswaszruo.tif,79,0.0666666666666667,0.0666666666666667,0.816666666666667,17501.272195417,17501.921623542,9,17501.338611417,17501.403556584,17501.943225167,17502.753259875,1,0.649428124997939
119,6,23,categorization,0,kitchen,SHINEd_sun_azmutvzbxypaceni.tif,110,0.0666666666666667,0.0666666666666667,1.65,17502.768233542,17503.345456167,9,17502.834555584,17502.900378375,17503.352720667,17504.996107584,1,0.577222625001014
119,7,23,categorization,0,kitchen,SHINEd_sun_abpwyqmlzafvklqo.tif,72,0.0666666666666667,0.0666666666666667,1.65,17505.012299584,17505.614907917,9,17505.078478125,17505.145685,17505.635478,17507.278865875,1,0.602608332999807
119,8,23,categorization,0,bathroom,SHINEd_sun_aavhrsfjbserjtht.tif,13,0.0666666666666667,0.0666666666666667,1.21666666666667,17507.295986834,17507.928812209,13,17507.3621935,17507.428608542,17507.951647709,17509.161691417,1,0.632825374999811
119,9,23,categorization,0,bathroom,SHINEd_sun_aofnryafpsjimzsb.tif,40,0.0666666666666667,0.0666666666666667,0.933333333333333,17509.178885875,17509.842366584,13,17509.245203625,17509.311108834,17509.867310292,17510.7940095,1,0.663480708997668
119,10,23,categorization,0,kitchen,SHINEd_sun_aehawpgmrlhlvcow.tif,81,0.0666666666666667,0.0666666666666667,0.933333333333333,17510.809484542,17511.505137292,13,17510.875823834,17510.9417885,17511.510858834,17512.437531042,0,0.69565275000059
119,11,23,categorization,0,kitchen,SHINEd_sun_amjjdeyrggfqgmom.tif,100,0.0666666666666667,0.0666666666666667,0.983333333333333,17512.442318167,17513.057203292,9,17512.503964584,17512.564995292,17513.066813917,17514.043484917,1,0.614885125000001
119,12,23,categorization,0,bathroom,SHINEd_sun_awnqiikzaispgmwo.tif,56,0.0666666666666667,0.0666666666666667,1.03333333333333,17514.0486235,17514.75333775,13,17514.11024275,17514.1712025,17514.756443292,17515.78314925,1,0.704714250001416
119,13,23,categorization,0,kitchen,SHINEd_sun_aixorpehvfykdynp.tif,95,0.0666666666666667,0.0666666666666667,1.35,17515.792191542,17516.381069625,9,17515.856332667,17515.923361042,17516.395456875,17517.738826709,1,0.588878082999145
119,14,23,categorization,0,bathroom,SHINEd_sun_aleqenyvunhactkl.tif,32,0.0666666666666667,0.0666666666666667,0.95,17517.753092875,17518.40193525,9,17517.815635,17517.875731875,17518.410929209,17519.3542665,0,0.64884237500155
119,15,23,categorization,0,kitchen,SHINEd_sun_ahljzhgcdpomplvg.tif,91,0.0666666666666667,0.0666666666666667,1.58333333333333,17519.35919025,17520.017637959,9,17519.420791334,17519.481795584,17520.033755042,17521.610475542,1,0.658447709000029
119,16,23,categorization,0,bathroom,SHINEd_sun_aqrpegblszgcoujh.tif,48,0.0666666666666667,0.0666666666666667,0.766666666666667,17521.627833084,17522.170650125,13,17521.694241959,17521.759959875,17522.199813834,17522.959848834,1,0.542817041001399
119,17,23,categorization,0,bathroom,SHINEd_sun_azqyogdvyhahyram.tif,60,0.0666666666666667,0.0666666666666667,1.8,17522.9753305,17523.569508834,13,17523.04164525,17523.100476292,17523.585552625,17525.378941709,1,0.59417833399857
119,18,23,categorization,0,bathroom,SHINEd_sun_agyqfjcfkdcydepw.tif,25,0.0666666666666667,0.0666666666666667,0.95,17525.396029792,17526.030296625,9,17525.462104917,17525.528315709,17526.050956625,17526.994295375,0,0.634266832999856
119,19,23,categorization,0,bathroom,SHINEd_sun_apynckhmoftszqoq.tif,47,0.0666666666666667,0.0666666666666667,1.45,17526.999352084,17527.609140875,9,17527.061051792,17527.12210725,17527.624207875,17529.067585084,0,0.609788791000028
119,20,23,categorization,0,kitchen,SHINEd_sun_aunzlwrbjumxhwdj.tif,103,0.0666666666666667,0.0666666666666667,1.15,17529.084857334,17529.9659355,13,17529.151243542,17529.217588667,17529.990506709,17531.13387475,0,0.881078165999497
119,21,23,categorization,0,bathroom,SHINEd_sun_amzlamotzwfkwjco.tif,37,0.0666666666666667,0.0666666666666667,0.733333333333333,17531.143002125,17531.941560375,13,17531.209489542,17531.275325792,17531.965075792,17532.691800584,1,0.798558249996859
119,22,23,categorization,0,kitchen,SHINEd_sun_aadbddgrdsjugojn.tif,64,0.0666666666666667,0.0666666666666667,0.933333333333333,17532.707071125,17533.329788917,9,17532.773262875,17532.839189667,17533.341496375,17534.268167875,1,0.622717791997275
119,23,23,categorization,0,kitchen,SHINEd_sun_aarfiyshqohlwkmo.tif,67,0.0666666666666667,0.0666666666666667,1.33333333333333,17534.272903667,17535.697446917,9,17534.334563,17534.395582125,17535.715017334,17537.041741875,1,1.4245432500029
119,24,23,categorization,0,bathroom,SHINEd_sun_asfwthctfqerjvxr.tif,49,0.0666666666666667,0.0666666666666667,1.91666666666667,17537.058879042,17537.873705625,13,17537.126674875,17537.190958959,17537.897235584,17539.807294084,1,0.814826582998649
119,25,23,categorization,0,bathroom,SHINEd_sun_afcoljnjfoxjtgja.tif,20,0.0666666666666667,0.0666666666666667,1.6,17539.824231959,17540.715407042,13,17539.891084542,17539.956289709,17540.728599084,17542.321973292,1,0.891175083001144
119,26,23,categorization,0,bathroom,SHINEd_sun_ahcvzmoyaycdoftf.tif,27,0.0666666666666667,0.0666666666666667,2,17542.33299525,17543.008987459,13,17542.399680959,17542.465097167,17543.038283084,17545.031667125,1,0.675992209002288
119,27,23,categorization,0,kitchen,SHINEd_sun_aegoxogugdkwpmpj.tif,80,0.0666666666666667,0.0666666666666667,1.06666666666667,17545.050518417,17545.82517175,13,17545.116805667,17545.182548167,17545.837689875,17546.897738542,0,0.774653332999151
119,28,23,categorization,0,kitchen,SHINEd_sun_aggjlwcdjsjcaemh.tif,86,0.0666666666666667,0.0666666666666667,1.28333333333333,17546.906080375,17547.523459542,9,17546.970443417,17547.036360167,17547.542085417,17548.818794,1,0.617379167000763
119,29,23,categorization,0,bathroom,SHINEd_sun_ajlawzvmubibwbpy.tif,30,0.0666666666666667,0.0666666666666667,0.95,17548.835792334,17549.553560709,13,17548.899235459,17548.958658084,17549.560478,17550.503815459,1,0.717768374997831
119,30,23,categorization,0,kitchen,SHINEd_sun_aamedkxepzlwuxes.tif,65,0.0666666666666667,0.0666666666666667,0.9,17550.508607542,17551.105105459,9,17550.570173209,17550.631603084,17551.117159292,17552.010497875,1,0.596497916998487
119,31,23,categorization,0,kitchen,SHINEd_sun_aeqdocilnnpuvuhx.tif,83,0.0666666666666667,0.0666666666666667,0.716666666666667,17552.015291667,17552.769132042,9,17552.076989709,17552.137928917,17552.773233125,17553.483238417,1,0.753840375000436
119,32,23,categorization,0,bathroom,SHINEd_sun_akiytfaagpdsphgz.tif,31,0.0666666666666667,0.0666666666666667,0.866666666666667,17553.48835425,17554.29787075,13,17553.550000084,17553.611047792,17554.312843459,17555.172848292,1,0.809516500001337
119,33,23,categorization,0,kitchen,SHINEd_sun_avszsnwsbuqfgzbn.tif,105,0.0666666666666667,0.0666666666666667,1.11666666666667,17555.17762275,17556.265537375,9,17555.239403209,17555.300182125,17556.268586084,17557.378635209,1,1.08791462499721
119,34,23,categorization,0,kitchen,SHINEd_sun_agubuxuukhzyzpdp.tif,88,0.0666666666666667,0.0666666666666667,0.866666666666667,17557.387696709,17558.072956042,9,17557.452194,17557.519800292,17558.09260825,17558.952661209,1,0.685259333000431
119,35,23,categorization,0,kitchen,SHINEd_sun_aaxxjlsuzvqlgylf.tif,68,0.0666666666666667,0.0666666666666667,1.83333333333333,17558.96765575,17559.841945667,9,17559.033730167,17559.099771459,17559.852358584,17561.679073834,1,0.874289917002898
119,36,23,categorization,0,bathroom,SHINEd_sun_acegryoqftbzowsg.tif,17,0.0666666666666667,0.0666666666666667,0.85,17561.695403792,17562.393316,13,17561.761416,17561.828523625,17562.418369625,17563.261707334,1,0.697912208001071
119,37,23,categorization,0,bathroom,SHINEd_sun_apkxzenqapsujocq.tif,45,0.0666666666666667,0.0666666666666667,1.76666666666667,17563.266710542,17564.113061375,9,17563.328446292,17563.389376959,17564.124677917,17565.884714417,0,0.846350832998723
119,38,23,categorization,0,bathroom,SHINEd_sun_acgyywnybuveqsro.tif,18,0.0666666666666667,0.0666666666666667,1.9,17565.902000167,17566.747472042,13,17565.968245875,17566.034273792,17566.773866042,17568.667246334,1,0.84547187499993
119,39,23,categorization,0,bathroom,SHINEd_sun_ahqjwnzgolcaoidx.tif,29,0.0666666666666667,0.0666666666666667,1.61666666666667,17568.684461209,17569.398947209,9,17568.750781417,17568.816767209,17569.423048542,17571.0330935,0,0.714486000000761
119,40,23,categorization,0,kitchen,SHINEd_sun_aypmqwcualkenuoe.tif,109,0.0666666666666667,0.0666666666666667,1.21666666666667,17571.050913667,17571.932181792,13,17571.117290334,17571.183064125,17571.956162084,17573.1662095,0,0.881268124998314
119,41,23,categorization,0,kitchen,SHINEd_sun_aqeaevwwwjoqhzvl.tif,101,0.0666666666666667,0.0666666666666667,1.2,17573.184877959,17573.842722167,9,17573.251380959,17573.317323167,17573.855953209,17575.049324125,1,0.657844207999005
119,42,23,categorization,0,kitchen,SHINEd_sun_abdenxonkemggwsq.tif,69,0.0666666666666667,0.0666666666666667,1.05,17575.066823375,17575.945664625,13,17575.129409375,17575.189573042,17575.957941709,17577.001328084,0,0.878841249999823
119,43,23,categorization,0,kitchen,SHINEd_sun_ahpczsiumwwocjkv.tif,92,0.0666666666666667,0.0666666666666667,1.01666666666667,17577.010139459,17577.722847084,13,17577.074544834,17577.141348459,17577.747529792,17578.757561459,0,0.712707624999894
119,44,23,categorization,0,kitchen,SHINEd_sun_agzzivivdpnawacl.tif,89,0.0666666666666667,0.0666666666666667,1.43333333333333,17578.773130667,17579.497012709,9,17578.841072292,17578.905284209,17579.507647375,17580.934350375,1,0.723882041998877
119,45,23,categorization,0,kitchen,SHINEd_sun_abftihopvusyfakt.tif,71,0.0666666666666667,0.0666666666666667,1.5,17580.951887834,17581.575048875,9,17581.018444667,17581.084064459,17581.589561042,17583.082939917,1,0.623161041003186
119,46,23,categorization,0,bathroom,SHINEd_sun_aspsyogrekjtfozg.tif,50,0.0666666666666667,0.0666666666666667,1.21666666666667,17583.1008615,17583.702159667,9,17583.16728,17583.23297375,17583.722406334,17584.932458459,0,0.601298166999186
119,47,23,categorization,0,kitchen,SHINEd_sun_aapllqyqlykszopd.tif,66,0.0666666666666667,0.0666666666666667,0.916666666666667,17584.951065584,17585.80459525,9,17585.017730209,17585.083420834,17585.822350709,17586.732384334,1,0.853529666001123
119,48,23,categorization,0,kitchen,SHINEd_sun_akchetnepxlcxhsu.tif,98,0.0666666666666667,0.0666666666666667,0.716666666666667,17586.74879575,17587.369695542,9,17586.8117215,17586.871579,17587.373405834,17588.083410542,1,0.620899791996635
119,49,23,categorization,0,bathroom,SHINEd_sun_axyrejkiiaqiurjk.tif,59,0.0666666666666667,0.0666666666666667,1.18333333333333,17588.08836,17588.905116959,9,17588.150063125,17588.211224167,17588.913330834,17590.0900365,0,0.816756958996848
119,50,23,categorization,0,kitchen,SHINEd_sun_aymvwlarqodbwuoc.tif,108,0.0666666666666667,0.0666666666666667,0.766666666666667,17590.099363167,17590.749625667,9,17590.166816542,17590.231386709,17590.771061375,17591.531092209,1,0.650262499999371
