sub_num,trial,block,task,is_practice,category,image,texture,duration,mask_dur,jitter,stim_time,time_of_resp,trial_response,mask_time,fix_time,jit_onset,trial_end,trial_accuracy,RT
119,1,5,categorization,0,bathroom,SHINEd_sun_auzqhkafidnkrwmo.tif,54,0.0666666666666667,0.0666666666666667,1.7,15264.433276542,15265.666829667,13,15264.495747625,15264.555880084,15265.674898084,15267.368283125,1,1.23355312499916
119,2,5,categorization,0,kitchen,SHINEd_sun_agorklincwxrdtga.tif,87,0.0666666666666667,0.0666666666666667,1.81666666666667,15267.386023459,15268.046566417,9,15267.45236275,15267.518384,15268.074831209,15269.884883,1,0.660542958001315
119,3,5,categorization,0,bathroom,SHINEd_sun_abapwbhyhkfixyex.tif,14,0.0666666666666667,0.0666666666666667,1.23333333333333,15269.902520334,15270.998044417,9,15269.968949084,15270.034920084,15271.022666625,15272.249361584,0,1.09552408299896
119,4,5,categorization,0,kitchen,SHINEd_sun_akchetnepxlcxhsu.tif,98,0.0666666666666667,0.0666666666666667,1.4,15272.259914292,15272.875838667,13,15272.325427334,15272.39233975,15272.899703375,15274.293058,0,0.61592437499894
119,5,5,categorization,0,kitchen,SHINEd_sun_aamedkxepzlwuxes.tif,65,0.0666666666666667,0.0666666666666667,1.03333333333333,15274.302999625,15275.039139875,9,15274.371035375,15274.435501625,15275.060001209,15276.086702084,1,0.736140249999153
119,6,5,categorization,0,bathroom,SHINEd_sun_aclfzgynxzxlbepz.tif,19,0.0666666666666667,0.0666666666666667,1.38333333333333,15276.099786334,15276.763021834,13,15276.166985417,15276.232528667,15276.768466459,15278.145178042,1,0.663235500000155
119,7,5,categorization,0,bathroom,SHINEd_sun_axldvoqbuvuggfmq.tif,57,0.0666666666666667,0.0666666666666667,2,15278.161741834,15278.899321667,13,15278.228426334,15278.288513375,15278.92825375,15280.921620875,1,0.737579833001291
119,8,5,categorization,0,bathroom,SHINEd_sun_avhrdrntsqrjzccq.tif,55,0.0666666666666667,0.0666666666666667,1.85,15280.938650875,15281.82603475,13,15281.004615167,15281.071912542,15281.843257667,15283.686643125,1,0.887383875000523
119,9,5,categorization,0,kitchen,SHINEd_sun_aqeaevwwwjoqhzvl.tif,101,0.0666666666666667,0.0666666666666667,0.816666666666667,15283.70352075,15284.708539792,9,15283.771699417,15283.835826292,15284.724492959,15285.534496375,1,1.00501904200064
119,10,5,categorization,0,bathroom,SHINEd_sun_agyqfjcfkdcydepw.tif,25,0.0666666666666667,0.0666666666666667,1.85,15285.539653167,15287.442952167,9,15285.601326,15285.662308625,15287.44830075,15289.29168625,0,1.90329900000143
119,11,5,categorization,0,kitchen,SHINEd_sun_acgtpgfybqjmzeyw.tif,75,0.0666666666666667,0.0666666666666667,0.733333333333333,15289.310113917,15290.267791875,9,15289.376711792,15289.442292209,15290.280374417,15291.007045625,1,0.957677958000204
119,12,5,categorization,0,kitchen,SHINEd_sun_aadbddgrdsjugojn.tif,64,0.0666666666666667,0.0666666666666667,0.716666666666667,15291.011965959,15291.866202959,9,15291.073701292,15291.134618625,15291.869827834,15292.579832917,1,0.854236999999557
119,13,5,categorization,0,kitchen,SHINEd_sun_aeqdocilnnpuvuhx.tif,83,0.0666666666666667,0.0666666666666667,0.833333333333333,15292.584895459,15293.3305335,9,15292.646738292,15292.707566875,15293.342735459,15294.169405,1,0.745638041000348
119,14,5,categorization,0,kitchen,SHINEd_sun_aegoxogugdkwpmpj.tif,80,0.0666666666666667,0.0666666666666667,0.95,15294.174583167,15294.882205,9,15294.236399209,15294.297328459,15294.899446417,15295.842784209,1,0.707621833000303
119,15,5,categorization,0,bathroom,SHINEd_sun_acduarbnmmoglmiv.tif,16,0.0666666666666667,0.0666666666666667,1.96666666666667,15295.848055042,15297.098820334,13,15295.909652375,15295.970566709,15297.106461917,15299.066510125,1,1.25076529199941
119,16,5,categorization,0,bathroom,SHINEd_sun_axxbkopsgyouuebh.tif,58,0.0666666666666667,0.0666666666666667,1.86666666666667,15299.084484625,15299.775942292,13,15299.152242917,15299.21408,15299.803370292,15301.663409042,1,0.691457667000577
119,17,5,categorization,0,bathroom,SHINEd_sun_ahijqszoswveeyji.tif,28,0.0666666666666667,0.0666666666666667,1.51666666666667,15301.680906917,15302.727157542,13,15301.748850959,15301.813546959,15302.753230209,15304.263271,1,1.04625062500054
119,18,5,categorization,0,bathroom,SHINEd_sun_aggnnqpdorgxpvce.tif,21,0.0666666666666667,0.0666666666666667,1.3,15304.272698167,15306.586358042,13,15304.340685542,15304.40538475,15306.591048459,15307.884415375,1,2.31365987499885
119,19,5,categorization,0,kitchen,SHINEd_sun_abdxkyyxwfskuaqb.tif,70,0.0666666666666667,0.0666666666666667,1.91666666666667,15307.900411459,15308.627460084,9,15307.96837575,15308.032802375,15308.6555205,15310.565568209,1,0.727048624999952
119,20,5,categorization,0,kitchen,SHINEd_labelme_kxvouciolcpqplr.tif,62,0.0666666666666667,0.0666666666666667,1.23333333333333,15310.583204417,15311.555346084,13,15310.651043167,15310.715529292,15311.571324542,15312.798044959,0,0.97214166699996
119,21,5,categorization,0,kitchen,SHINEd_sun_aarfiyshqohlwkmo.tif,67,0.0666666666666667,0.0666666666666667,0.866666666666667,15312.814827459,15313.574616167,9,15312.882544084,15312.947629125,15313.603990917,15314.464024375,1,0.759788707999178
119,22,5,categorization,0,kitchen,SHINEd_sun_acwjdupvyjsugpay.tif,76,0.0666666666666667,0.0666666666666667,0.8,15314.479811459,15316.082844125,9,15314.546602375,15314.604900459,15316.090793959,15316.884132209,1,1.60303266600022
119,23,5,categorization,0,bathroom,SHINEd_sun_afcoljnjfoxjtgja.tif,20,0.0666666666666667,0.0666666666666667,1.51666666666667,15316.888933959,15318.258645417,9,15316.950608334,15317.011672709,15318.263811542,15319.773857084,0,1.36971145799907
119,24,5,categorization,0,kitchen,SHINEd_sun_ahdycvpopffkzzsu.tif,90,0.0666666666666667,0.0666666666666667,1.18333333333333,15319.791344334,15320.774031334,13,15319.859113875,15319.923907834,15320.797057542,15321.973767375,0,0.982686999999714
119,25,5,categorization,0,bathroom,SHINEd_sun_akiytfaagpdsphgz.tif,31,0.0666666666666667,0.0666666666666667,1.6,15321.982801792,15322.7888355,13,15322.050646,15322.115090459,15322.804168,15324.397555709,1,0.806033707998722
119,26,5,categorization,0,kitchen,SHINEd_sun_ajkqhtgcbgpcwrwn.tif,97,0.0666666666666667,0.0666666666666667,1.56666666666667,15324.414702667,15325.461925834,13,15324.481864209,15324.546736709,15325.486625542,15327.046660459,0,1.04722316700099
119,27,5,categorization,0,kitchen,SHINEd_sun_ahywdevtimnqcsln.tif,94,0.0666666666666667,0.0666666666666667,1.36666666666667,15327.061581542,15328.222832375,9,15327.128136584,15327.1939725,15328.248686292,15329.608722084,1,1.16125083299994
119,28,5,categorization,0,bathroom,SHINEd_sun_azqyogdvyhahyram.tif,60,0.0666666666666667,0.0666666666666667,1.53333333333333,15329.626719209,15330.860360792,13,15329.693502667,15329.759280709,15330.8841275,15332.41083725,1,1.23364158299955
119,29,5,categorization,0,kitchen,SHINEd_sun_afuyedyxivkhecmu.tif,85,0.0666666666666667,0.0666666666666667,1.4,15332.429496875,15333.317477917,9,15332.4961615,15332.561578834,15333.334719334,15334.7280875,1,0.88798104200032
119,30,5,categorization,0,bathroom,SHINEd_sun_awnqiikzaispgmwo.tif,56,0.0666666666666667,0.0666666666666667,1.06666666666667,15334.745062209,15335.655226875,13,15334.811692875,15334.877578209,15335.68427625,15336.744320625,1,0.910164666000128
119,31,5,categorization,0,kitchen,SHINEd_sun_awcpdzzznmweyyhv.tif,106,0.0666666666666667,0.0666666666666667,1.63333333333333,15336.754651959,15337.4757005,9,15336.81963325,15336.885801709,15337.491856875,15339.118570875,1,0.721048540999618
119,32,5,categorization,0,bathroom,SHINEd_sun_amzlamotzwfkwjco.tif,37,0.0666666666666667,0.0666666666666667,1.8,15339.137210834,15340.575472667,13,15339.203821209,15339.269619,15340.592946542,15342.386329959,1,1.43826183300007
119,33,5,categorization,0,bathroom,SHINEd_sun_acgyywnybuveqsro.tif,18,0.0666666666666667,0.0666666666666667,1.53333333333333,15342.403787792,15343.409888459,13,15342.470368459,15342.535943667,15343.425586667,15344.952302292,1,1.00610066700028
119,34,5,categorization,0,kitchen,SHINEd_sun_ahspylgoovwmwvgk.tif,93,0.0666666666666667,0.0666666666666667,0.766666666666667,15344.970551334,15345.826410292,9,15345.037421709,15345.102494292,15345.841896209,15346.601904375,1,0.855858958000681
119,35,5,categorization,0,kitchen,SHINEd_labelme_brsyyvweiuaazfr.tif,61,0.0666666666666667,0.0666666666666667,1.86666666666667,15346.608081542,15347.738557084,9,15346.669798709,15346.73073025,15347.749525042,15349.609563,1,1.13047554200057
119,36,5,categorization,0,kitchen,SHINEd_sun_agzzivivdpnawacl.tif,89,0.0666666666666667,0.0666666666666667,1.13333333333333,15349.627761625,15350.811658167,9,15349.694310917,15349.759947375,15350.830372584,15351.957078834,1,1.18389654199927
119,37,5,categorization,0,bathroom,SHINEd_sun_ambriybtogmepttm.tif,36,0.0666666666666667,0.0666666666666667,1.73333333333333,15351.9658625,15352.876528667,13,15352.030619084,15352.09813025,15352.885624667,15354.612330667,1,0.910666167001182
119,38,5,categorization,0,bathroom,SHINEd_sun_apkruvsevgegsdwp.tif,44,0.0666666666666667,0.0666666666666667,0.766666666666667,15354.630751584,15355.741862667,9,15354.69766825,15354.763551042,15355.7704355,15356.530440084,0,1.11111108300065
119,39,5,categorization,0,bathroom,SHINEd_sun_ausgutylgojavyoq.tif,53,0.0666666666666667,0.0666666666666667,1.85,15356.535580917,15357.24217025,13,15356.59729075,15356.6581955,15357.259850375,15359.103240334,1,0.706589333000011
119,40,5,categorization,0,bathroom,SHINEd_sun_anhioqovhscjqqwb.tif,38,0.0666666666666667,0.0666666666666667,0.966666666666667,15359.119887792,15359.919375084,13,15359.187730334,15359.252070292,15359.941632334,15360.901637917,1,0.799487292000777
119,41,5,categorization,0,kitchen,SHINEd_sun_aehawpgmrlhlvcow.tif,81,0.0666666666666667,0.0666666666666667,1.06666666666667,15360.908461334,15362.5617045,13,15360.970238542,15361.03114825,15362.566732917,15363.626768209,0,1.65324316599981
119,42,5,categorization,0,bathroom,SHINEd_labelme_sfxiulhjbhlyiyt.tif,11,0.0666666666666667,0.0666666666666667,1.38333333333333,15363.634896,15364.349495167,13,15363.699237584,15363.765861,15364.372268417,15365.748972125,1,0.714599167000415
119,43,5,categorization,0,bathroom,SHINEd_sun_apmqjbnwghzuhhzh.tif,46,0.0666666666666667,0.0666666666666667,0.766666666666667,15365.759269334,15366.729549917,13,15365.825324584,15365.89133,15366.747502,15367.507548959,1,0.970280583000203
119,44,5,categorization,0,kitchen,SHINEd_sun_ajcbwwvdlsvjyzje.tif,96,0.0666666666666667,0.0666666666666667,0.866666666666667,15367.523088459,15369.506111084,9,15367.58950375,15367.65527875,15369.524707292,15370.38471225,1,1.98302262499965
119,45,5,categorization,0,bathroom,SHINEd_sun_ahqjwnzgolcaoidx.tif,29,0.0666666666666667,0.0666666666666667,1.25,15370.39166675,15371.297663125,9,15370.453374709,15370.514258292,15371.316745334,15372.560120209,0,0.905996375000541
119,46,5,categorization,0,kitchen,SHINEd_sun_abftihopvusyfakt.tif,71,0.0666666666666667,0.0666666666666667,1.03333333333333,15372.57726425,15373.347658917,9,15372.64360575,15372.709812959,15373.365870417,15374.392596875,1,0.770394667000801
119,47,5,categorization,0,bathroom,SHINEd_sun_agrwbmhcpmfuwmsg.tif,24,0.0666666666666667,0.0666666666666667,0.783333333333333,15374.401423792,15375.685467042,13,15374.468006125,15374.533243959,15375.707617125,15376.484331625,1,1.28404324999974
119,48,5,categorization,0,bathroom,SHINEd_sun_ajlawzvmubibwbpy.tif,30,0.0666666666666667,0.0666666666666667,0.7,15376.493482042,15378.714581334,13,15376.555812042,15376.616159,15378.718314792,15379.411652917,1,2.22109929199905
119,49,5,categorization,0,bathroom,SHINEd_sun_alotolagknyrgtsk.tif,35,0.0666666666666667,0.0666666666666667,1.75,15379.416409667,15380.762298417,9,15379.478166625,15379.53911725,15380.774465875,15382.517834625,0,1.34588875000009
119,50,5,categorization,0,bathroom,SHINEd_sun_aoybiabnpadelefl.tif,41,0.0666666666666667,0.0666666666666667,1.36666666666667,15382.5271245,15383.537328917,9,15382.59132225,15382.659342042,15383.565976875,15384.926008292,0,1.01020441699984
