sub_num,trial,block,task,is_practice,category,image,texture,duration,mask_dur,jitter,stim_time,time_of_resp,trial_response,mask_time,fix_time,jit_onset,trial_end,trial_accuracy,RT
119,1,0,categorization,1,kitchen,SHINEd_kitchen_practice3.tif,118,0.0666666666666667,0.0666666666666667,1.21666666666667,14573.148004167,14580.276367709,13,14573.21424575,14573.273810042,14580.311264917,14581.521462667,0,7.12836354200044
119,2,0,categorization,1,kitchen,SHINEd_kitchen_practice5.tif,120,0.0666666666666667,0.0666666666666667,1.36666666666667,14581.572689459,14585.280908875,13,14581.645095917,14581.706912459,14585.30999175,14586.670186375,0,3.70821941599934
119,3,0,categorization,1,bathroom,SHINEd_bathroom_practice2.tif,112,0.0666666666666667,0.0666666666666667,1.85,14586.723336917,14589.749014209,13,14586.796794959,14586.852983542,14589.756094542,14591.599607917,1,3.02567729199836
119,4,0,categorization,1,kitchen,SHINEd_kitchen_practice4.tif,119,0.0666666666666667,0.0666666666666667,1.55,14591.617373417,14597.51017325,13,14591.686845792,14591.750707209,14597.52685375,14599.070376042,0,5.89279983300003
119,5,0,categorization,1,kitchen,SHINEd_kitchen_practice2.tif,117,0.0666666666666667,0.0666666666666667,1.48333333333333,14599.104629709,14601.301132709,9,14599.177509,14599.23910225,14601.309834375,14602.787350584,1,2.19650300000103
119,6,0,categorization,1,bathroom,SHINEd_bathroom_practice5.tif,115,0.0666666666666667,0.0666666666666667,1.15,14602.8154,14607.664439625,9,14602.883572917,14602.949103875,14607.685493917,14608.828993625,0,4.84903962499993
119,7,0,categorization,1,bathroom,SHINEd_bathroom_practice3.tif,113,0.0666666666666667,0.0666666666666667,0.733333333333333,14608.840001167,14611.749331334,13,14608.908386875,14608.973507084,14611.759723084,14612.486393292,1,2.90933016700001
119,8,0,categorization,1,kitchen,SHINEd_kitchen_practice1.tif,116,0.0666666666666667,0.0666666666666667,1.6,14612.491320625,14614.629194875,9,14612.553013125,14612.614114209,14614.633012084,14616.226405584,1,2.1378742500001
119,9,0,categorization,1,bathroom,SHINEd_bathroom_practice1.tif,111,0.0666666666666667,0.0666666666666667,0.716666666666667,14616.246001542,14617.532519625,13,14616.310605542,14616.378977792,14617.552035459,14618.262040209,1,1.28651808299946
119,10,0,categorization,1,bathroom,SHINEd_bathroom_practice4.tif,114,0.0666666666666667,0.0666666666666667,1.21666666666667,14618.26684825,14619.420997334,13,14618.328630125,14618.389612792,14619.424606959,14620.634640542,1,1.15414908400089
119,1,0,categorization,1,kitchen,SHINEd_kitchen_practice3.tif,118,0.0666666666666667,0.0666666666666667,1.21666666666667,14683.564088584,14685.716527292,13,14683.626014709,14683.686999,14685.722885709,14686.932936917,0,2.15243870799895
119,2,0,categorization,1,kitchen,SHINEd_kitchen_practice5.tif,120,0.0666666666666667,0.0666666666666667,1.36666666666667,14686.950151,14687.841503584,9,14687.016713292,14687.082925917,14687.855311625,14689.215351167,1,0.891352584001652
119,3,0,categorization,1,bathroom,SHINEd_bathroom_practice2.tif,112,0.0666666666666667,0.0666666666666667,1.85,14689.232728667,14690.150692209,13,14689.299444084,14689.365054667,14690.171480542,14692.014859042,1,0.917963541998688
119,4,0,categorization,1,kitchen,SHINEd_kitchen_practice4.tif,119,0.0666666666666667,0.0666666666666667,1.55,14692.033480209,14692.927803,13,14692.100437042,14692.165714375,14692.955129,14694.498519875,0,0.894322791000377
119,5,0,categorization,1,kitchen,SHINEd_kitchen_practice2.tif,117,0.0666666666666667,0.0666666666666667,1.48333333333333,14694.516752709,14695.743233667,13,14694.583115,14694.648950167,14695.773041167,14697.24975,0,1.22648095800105
119,6,0,categorization,1,bathroom,SHINEd_bathroom_practice5.tif,115,0.0666666666666667,0.0666666666666667,1.15,14697.266701042,14698.414914917,13,14697.333216584,14697.399216209,14698.4388125,14699.582202292,1,1.1482138750016
119,7,0,categorization,1,bathroom,SHINEd_bathroom_practice3.tif,113,0.0666666666666667,0.0666666666666667,0.733333333333333,14699.592693792,14700.773127,13,14699.658742792,14699.727848042,14700.801138584,14701.527861792,1,1.18043320800098
119,8,0,categorization,1,kitchen,SHINEd_kitchen_practice1.tif,116,0.0666666666666667,0.0666666666666667,1.6,14701.541544834,14702.548532625,13,14701.604296209,14701.664222959,14702.566136125,14704.159516375,0,1.00698779099912
119,9,0,categorization,1,bathroom,SHINEd_bathroom_practice1.tif,111,0.0666666666666667,0.0666666666666667,0.716666666666667,14704.176876209,14705.85291925,9,14704.244106334,14704.307159209,14705.859632292,14706.569635667,0,1.6760430409995
119,10,0,categorization,1,bathroom,SHINEd_bathroom_practice4.tif,114,0.0666666666666667,0.0666666666666667,1.21666666666667,14706.574617625,14708.205391167,9,14706.636372042,14706.697255834,14708.216813459,14709.426858209,0,1.63077354199959
119,1,1,categorization,0,kitchen,SHINEd_sun_admlmbcdswaszruo.tif,79,0.0666666666666667,0.0666666666666667,1.23333333333333,14720.87283775,14721.884797542,9,14720.934781667,14720.9955765,14721.897995334,14723.12471175,1,1.0119597920002
119,2,1,categorization,0,kitchen,SHINEd_sun_acxkpeoqbwcxfvip.tif,77,0.0666666666666667,0.0666666666666667,0.783333333333333,14723.1383985,14724.205538959,9,14723.20653625,14723.27095075,14724.227339709,14725.004037834,1,1.06714045900117
119,3,1,categorization,0,kitchen,SHINEd_sun_ahljzhgcdpomplvg.tif,91,0.0666666666666667,0.0666666666666667,0.75,14725.020026292,14726.308733917,9,14725.082560334,14725.14264775,14726.328119375,14727.071456542,1,1.28870762499901
119,4,1,categorization,0,bathroom,SHINEd_sun_apkxzenqapsujocq.tif,45,0.0666666666666667,0.0666666666666667,1.23333333333333,14727.078161875,14727.884505459,13,14727.139847292,14727.200899417,14727.902803959,14729.129512292,1,0.806343583999478
119,5,1,categorization,0,bathroom,SHINEd_sun_aofnryafpsjimzsb.tif,40,0.0666666666666667,0.0666666666666667,1.13333333333333,14729.147107667,14730.261857667,9,14729.213500042,14729.279536209,14730.284445959,14731.41116025,0,1.11474999999882
119,6,1,categorization,0,bathroom,SHINEd_sun_acegryoqftbzowsg.tif,17,0.0666666666666667,0.0666666666666667,0.95,14731.421696375,14732.850553042,13,14731.48748,14731.554147042,14732.877014542,14733.820353375,1,1.42885666700022
119,7,1,categorization,0,bathroom,SHINEd_sun_ahaulkltgpkeeemi.tif,26,0.0666666666666667,0.0666666666666667,0.733333333333333,14733.82799025,14735.51703575,9,14733.8897375,14733.950559375,14735.535886417,14736.262559209,0,1.68904549999934
119,8,1,categorization,0,bathroom,SHINEd_sun_acduarbnmmoglmiv.tif,16,0.0666666666666667,0.0666666666666667,1.31666666666667,14736.267435084,14737.684828959,13,14736.329185,14736.390274625,14737.692423125,14739.00245575,1,1.41739387499911
119,9,1,categorization,0,bathroom,SHINEd_sun_asfwthctfqerjvxr.tif,49,0.0666666666666667,0.0666666666666667,0.8,14739.020588,14739.930095959,13,14739.087456209,14739.152519834,14739.959245209,14740.752631459,1,0.909507959000621
119,10,1,categorization,0,bathroom,SHINEd_sun_afcoljnjfoxjtgja.tif,20,0.0666666666666667,0.0666666666666667,0.716666666666667,14740.764188,14741.908950375,13,14740.826696709,14740.886889,14741.9223455,14742.632350792,1,1.14476237500094
119,11,1,categorization,0,kitchen,SHINEd_sun_aadbddgrdsjugojn.tif,64,0.0666666666666667,0.0666666666666667,0.916666666666667,14742.637231959,14743.844764959,13,14742.698969209,14742.759892959,14743.862149334,14744.77215275,0,1.20753300000069
119,12,1,categorization,0,kitchen,SHINEd_sun_afuyedyxivkhecmu.tif,85,0.0666666666666667,0.0666666666666667,0.95,14744.778279084,14746.332951917,13,14744.8399805,14744.900860875,14746.336155584,14747.279494459,0,1.55467283300095
119,13,1,categorization,0,kitchen,SHINEd_sun_abdenxonkemggwsq.tif,69,0.0666666666666667,0.0666666666666667,0.833333333333333,14747.284397584,14748.1731885,13,14747.346169417,14747.406922834,14748.192381625,14749.019053292,0,0.888790916000289
119,14,1,categorization,0,kitchen,SHINEd_sun_aegoxogugdkwpmpj.tif,80,0.0666666666666667,0.0666666666666667,0.75,14749.023920084,14750.580871542,13,14749.085779375,14749.146546375,14750.599004084,14751.342342209,0,1.55695145800019
119,15,1,categorization,0,kitchen,SHINEd_labelme_kxvouciolcpqplr.tif,62,0.0666666666666667,0.0666666666666667,1.53333333333333,14751.3479475,14752.557199917,13,14751.409739209,14751.470574875,14752.572397917,14754.099121459,0,1.20925241700024
119,16,1,categorization,0,kitchen,SHINEd_sun_aaxxjlsuzvqlgylf.tif,68,0.0666666666666667,0.0666666666666667,1.05,14754.117600625,14754.984989625,9,14754.183801667,14754.246577625,14755.0020435,14756.045413542,1,0.867388999999093
119,17,1,categorization,0,kitchen,SHINEd_sun_ajcbwwvdlsvjyzje.tif,96,0.0666666666666667,0.0666666666666667,0.9,14756.054931417,14757.360493042,9,14756.119753209,14756.18658325,14757.376372334,14758.269709792,1,1.30556162500034
119,18,1,categorization,0,bathroom,SHINEd_sun_aggnnqpdorgxpvce.tif,21,0.0666666666666667,0.0666666666666667,1.18333333333333,14758.274707292,14759.228506667,9,14758.336431709,14758.397542709,14759.232802209,14760.409522417,0,0.953799375000017
119,19,1,categorization,0,bathroom,SHINEd_sun_azqyogdvyhahyram.tif,60,0.0666666666666667,0.0666666666666667,0.9,14760.419928834,14762.348750292,13,14760.488173375,14760.552112042,14762.355218375,14763.24855525,1,1.92882145799922
119,20,1,categorization,0,bathroom,SHINEd_sun_anhioqovhscjqqwb.tif,38,0.0666666666666667,0.0666666666666667,1.66666666666667,14763.253539792,14764.156174209,13,14763.315337917,14763.376226417,14764.161586209,14765.821625042,1,0.902634416999717
119,21,1,categorization,0,kitchen,SHINEd_sun_aexklacwqwezaorf.tif,84,0.0666666666666667,0.0666666666666667,1.13333333333333,14765.834797667,14766.559586709,9,14765.901221334,14765.968028959,14766.572692917,14767.699406125,1,0.724789042000339
119,22,1,categorization,0,kitchen,SHINEd_sun_aenotlpyftoioydp.tif,82,0.0666666666666667,0.0666666666666667,1.3,14767.713327417,14768.409040542,9,14767.778327459,14767.845573209,14768.435220959,14769.728599667,1,0.695713125000111
119,23,1,categorization,0,kitchen,SHINEd_sun_ahdycvpopffkzzsu.tif,90,0.0666666666666667,0.0666666666666667,1.93333333333333,14769.747825625,14770.94109825,13,14769.814181042,14769.880011542,14770.969916584,14772.896636542,0,1.19327262499974
119,24,1,categorization,0,kitchen,SHINEd_sun_aehawpgmrlhlvcow.tif,81,0.0666666666666667,0.0666666666666667,1,14772.912941084,14774.612624459,13,14772.979554459,14773.045487667,14774.631246292,14775.624584875,0,1.69968337499995
119,25,1,categorization,0,kitchen,SHINEd_sun_akcjzhbbjlbogpdi.tif,99,0.0666666666666667,0.0666666666666667,0.883333333333333,14775.629358625,14776.645049792,9,14775.691013792,14775.751958875,14776.653948125,14777.530619125,1,1.01569116700011
119,26,1,categorization,0,bathroom,SHINEd_sun_aavhrsfjbserjtht.tif,13,0.0666666666666667,0.0666666666666667,1.95,14777.535708959,14778.580445459,9,14777.597586584,14777.658346542,14778.5934505,14780.53681725,0,1.0447365
119,27,1,categorization,0,bathroom,SHINEd_sun_axyrejkiiaqiurjk.tif,59,0.0666666666666667,0.0666666666666667,1.25,14780.553542667,14781.599174,9,14780.621344667,14780.686017292,14781.625862334,14782.86923875,0,1.04563133300144
119,28,1,categorization,0,kitchen,SHINEd_sun_ajkqhtgcbgpcwrwn.tif,97,0.0666666666666667,0.0666666666666667,1.95,14782.886622375,14784.344633375,9,14782.95309975,14783.018954625,14784.358485542,14786.301856625,1,1.45801100000062
119,29,1,categorization,0,kitchen,SHINEd_sun_aamedkxepzlwuxes.tif,65,0.0666666666666667,0.0666666666666667,1.91666666666667,14786.312354834,14787.501177542,9,14786.380095334,14786.44484,14787.514186209,14789.424242292,1,1.18882270799986
119,30,1,categorization,0,bathroom,SHINEd_sun_awnqiikzaispgmwo.tif,56,0.0666666666666667,0.0666666666666667,1.41666666666667,14789.439023625,14790.520551334,13,14789.505854584,14789.571446167,14790.545127542,14791.955183,1,1.08152770900051
119,31,1,categorization,0,bathroom,SHINEd_sun_ambriybtogmepttm.tif,36,0.0666666666666667,0.0666666666666667,0.716666666666667,14791.973101667,14793.29998775,13,14792.039514334,14792.105414167,14793.328533417,14794.038539459,1,1.32688608300123
119,32,1,categorization,0,bathroom,SHINEd_sun_apeeialkgkuxddgh.tif,42,0.0666666666666667,0.0666666666666667,1.28333333333333,14794.044385,14794.884419792,13,14794.106137625,14794.167150625,14794.902585167,14796.179299792,1,0.840034792001461
119,33,1,categorization,0,kitchen,SHINEd_sun_abpwyqmlzafvklqo.tif,72,0.0666666666666667,0.0666666666666667,0.9,14796.197027125,14797.588135292,13,14796.261707125,14796.325714834,14797.618136167,14798.511473584,0,1.39110816700122
119,34,1,categorization,0,bathroom,SHINEd_sun_apynckhmoftszqoq.tif,47,0.0666666666666667,0.0666666666666667,0.8,14798.51654225,14799.692329167,13,14798.578485292,14798.639217459,14799.707905625,14800.501244042,1,1.17578691699964
119,35,1,categorization,0,kitchen,SHINEd_sun_adgqasybjyktddhj.tif,78,0.0666666666666667,0.0666666666666667,1.01666666666667,14800.5060165,14801.772665917,9,14800.567815834,14800.628695292,14801.781426584,14802.791458667,1,1.26664941700074
119,36,1,categorization,0,bathroom,SHINEd_sun_agyqfjcfkdcydepw.tif,25,0.0666666666666667,0.0666666666666667,0.85,14802.800420959,14803.885247542,9,14802.864422542,14802.93091475,14803.904681417,14804.748060125,0,1.0848265830009
119,37,1,categorization,0,kitchen,SHINEd_sun_ahywdevtimnqcsln.tif,94,0.0666666666666667,0.0666666666666667,1.51666666666667,14804.763703834,14806.084230959,9,14804.830481042,14804.888582709,14806.090885792,14807.600951834,1,1.32052712500081
119,38,1,categorization,0,bathroom,SHINEd_sun_auzqhkafidnkrwmo.tif,54,0.0666666666666667,0.0666666666666667,1.83333333333333,14807.617600417,14809.836408792,9,14807.684355625,14807.751145042,14809.853566709,14811.680285167,0,2.21880837500066
119,39,1,categorization,0,bathroom,SHINEd_sun_ahcvzmoyaycdoftf.tif,27,0.0666666666666667,0.0666666666666667,0.716666666666667,14811.697539292,14813.068365792,13,14811.764012125,14811.829938042,14813.082910625,14813.792914875,1,1.37082650000048
119,40,1,categorization,0,bathroom,SHINEd_sun_avhrdrntsqrjzccq.tif,55,0.0666666666666667,0.0666666666666667,0.9,14813.797750167,14815.292495417,9,14813.859449542,14813.920398542,14815.306097667,14816.199435334,0,1.49474525000005
119,41,1,categorization,0,kitchen,SHINEd_sun_ahspylgoovwmwvgk.tif,93,0.0666666666666667,0.0666666666666667,0.916666666666667,14816.204223709,14817.9482265,9,14816.266136334,14816.326876167,14817.962765292,14818.872769375,1,1.74400279099973
119,42,1,categorization,0,bathroom,SHINEd_sun_agrwbmhcpmfuwmsg.tif,24,0.0666666666666667,0.0666666666666667,0.816666666666667,14818.877714792,14820.964625625,9,14818.939347459,14819.000487292,14820.969377042,14821.779382792,0,2.08691083300073
119,43,1,categorization,0,bathroom,SHINEd_sun_apmqjbnwghzuhhzh.tif,46,0.0666666666666667,0.0666666666666667,1.88333333333333,14821.784882875,14823.324132417,13,14821.846616667,14821.907484667,14823.343257875,14825.2199815,1,1.53924954200011
119,44,1,categorization,0,bathroom,SHINEd_sun_atstyziqcmkahyxk.tif,51,0.0666666666666667,0.0666666666666667,0.9,14825.237635625,14826.732326917,9,14825.305306042,14825.370448209,14826.73956625,14827.632904084,0,1.49469129199861
119,45,1,categorization,0,bathroom,SHINEd_sun_acgyywnybuveqsro.tif,18,0.0666666666666667,0.0666666666666667,1,14827.63858525,14828.891929375,13,14827.700376834,14827.761237834,14828.896845917,14829.890184584,1,1.25334412499978
119,46,1,categorization,0,kitchen,SHINEd_sun_agorklincwxrdtga.tif,87,0.0666666666666667,0.0666666666666667,0.733333333333333,14829.895228,14830.860672042,9,14829.956892,14830.017835125,14830.869747417,14831.59641925,1,0.965444041999945
119,47,1,categorization,0,bathroom,SHINEd_sun_aapitsgbtktqubfy.tif,12,0.0666666666666667,0.0666666666666667,0.883333333333333,14831.602190417,14832.804743625,13,14831.664024375,14831.724824875,14832.810272209,14833.686941792,1,1.20255320800061
119,48,1,categorization,0,bathroom,SHINEd_sun_aspsyogrekjtfozg.tif,50,0.0666666666666667,0.0666666666666667,1.73333333333333,14833.691800084,14834.867992042,9,14833.753483209,14833.814427042,14834.883387459,14836.610108084,0,1.17619195800035
119,49,1,categorization,0,kitchen,SHINEd_sun_acgtpgfybqjmzeyw.tif,75,0.0666666666666667,0.0666666666666667,1.91666666666667,14836.626479334,14837.603889167,9,14836.694413125,14836.758860542,14837.631289167,14839.541344,1,0.977409832999911
119,50,1,categorization,0,kitchen,SHINEd_labelme_brsyyvweiuaazfr.tif,61,0.0666666666666667,0.0666666666666667,1.35,14839.558696042,14842.100733709,13,14839.624779334,14839.691232334,14842.110233125,14843.453606875,0,2.54203766699902
119,1,2,categorization,0,kitchen,SHINEd_sun_aarfiyshqohlwkmo.tif,67,0.0666666666666667,0.0666666666666667,0.95,14873.578825959,14874.66849375,9,14873.641481917,14873.701462167,14874.686611584,14875.629949709,1,1.08966779099865
119,2,2,categorization,0,kitchen,SHINEd_sun_agubuxuukhzyzpdp.tif,88,0.0666666666666667,0.0666666666666667,0.75,14875.634858792,14876.891800084,9,14875.696588042,14875.757418417,14876.91011,14877.653448334,1,1.25694129200019
119,3,2,categorization,0,bathroom,SHINEd_sun_axldvoqbuvuggfmq.tif,57,0.0666666666666667,0.0666666666666667,1.68333333333333,14877.658312834,14878.404548584,13,14877.7199395,14877.780942042,14878.416262625,14880.092985917,1,0.746235749998959
119,4,2,categorization,0,bathroom,SHINEd_sun_agguqiubmwhqqunb.tif,22,0.0666666666666667,0.0666666666666667,0.816666666666667,14880.114225542,14880.801118667,13,14880.179409167,14880.244762084,14880.8171875,14881.627192375,1,0.686893124999187
119,5,2,categorization,0,bathroom,SHINEd_sun_ahijqszoswveeyji.tif,28,0.0666666666666667,0.0666666666666667,0.916666666666667,14881.632959209,14882.61976125,13,14881.694592375,14881.755623667,14882.623924125,14883.53392875,1,0.986802040999464
119,6,2,categorization,0,bathroom,SHINEd_sun_ahqjwnzgolcaoidx.tif,29,0.0666666666666667,0.0666666666666667,1.21666666666667,14883.538817459,14884.419728125,13,14883.600559584,14883.66142125,14884.429883417,14885.639940584,1,0.880910665999181
119,7,2,categorization,0,bathroom,SHINEd_sun_akiytfaagpdsphgz.tif,31,0.0666666666666667,0.0666666666666667,0.9,14885.657598542,14886.549305709,13,14885.723786542,14885.788795042,14886.578535875,14887.471927042,1,0.891707167000277
119,8,2,categorization,0,bathroom,SHINEd_sun_anryaplzeujmzfkd.tif,39,0.0666666666666667,0.0666666666666667,1.65,14887.488094667,14888.740391042,13,14887.550432834,14887.610744375,14888.746046584,14890.389431209,1,1.25229637499979
119,9,2,categorization,0,bathroom,SHINEd_sun_amzlamotzwfkwjco.tif,37,0.0666666666666667,0.0666666666666667,1.15,14890.407092875,14891.264769125,9,14890.473615,14890.539321167,14891.27818025,14892.421567292,0,0.857676249999713
119,10,2,categorization,0,bathroom,SHINEd_sun_aleqenyvunhactkl.tif,32,0.0666666666666667,0.0666666666666667,1.13333333333333,14892.43107125,14893.172641375,13,14892.496061875,14892.56320925,14893.185552709,14894.312239875,1,0.74157012500109
119,11,2,categorization,0,kitchen,SHINEd_sun_abftihopvusyfakt.tif,71,0.0666666666666667,0.0666666666666667,1.76666666666667,14894.3216665,14895.115801917,9,14894.388379625,14894.4463895,14895.131778584,14896.891812875,1,0.794135416999779
119,12,2,categorization,0,kitchen,SHINEd_sun_aqeaevwwwjoqhzvl.tif,101,0.0666666666666667,0.0666666666666667,1.8,14896.914525167,14897.776127,9,14896.980862667,14897.04681625,14897.803257834,14899.596624834,1,0.86160183299944
119,13,2,categorization,0,kitchen,SHINEd_sun_abdxkyyxwfskuaqb.tif,70,0.0666666666666667,0.0666666666666667,0.9,14899.614573292,14901.068728542,9,14899.681394709,14899.747776334,14901.083858375,14901.977197,1,1.45415525000135
119,14,2,categorization,0,bathroom,SHINEd_sun_axxbkopsgyouuebh.tif,58,0.0666666666666667,0.0666666666666667,0.716666666666667,14901.982083375,14902.652290709,13,14902.043868834,14902.104741042,14902.656716042,14903.366720542,1,0.670207334000224
119,15,2,categorization,0,bathroom,SHINEd_sun_abjtwfukuwddzted.tif,15,0.0666666666666667,0.0666666666666667,1.36666666666667,14903.371479625,14904.259792125,13,14903.4330145,14903.49410525,14904.279152375,14905.639188292,1,0.888312499999302
119,16,2,categorization,0,bathroom,SHINEd_sun_ausgutylgojavyoq.tif,53,0.0666666666666667,0.0666666666666667,0.916666666666667,14905.657907792,14906.400939709,13,14905.724097042,14905.790232625,14906.429938209,14907.339983917,1,0.743031916999826
119,17,2,categorization,0,kitchen,SHINEd_sun_aixorpehvfykdynp.tif,95,0.0666666666666667,0.0666666666666667,0.716666666666667,14907.355434375,14908.539876834,13,14907.418059959,14907.478413792,14908.54690975,14909.256914667,0,1.18444245899991
119,18,2,categorization,0,kitchen,SHINEd_sun_aypmqwcualkenuoe.tif,109,0.0666666666666667,0.0666666666666667,0.766666666666667,14909.261858167,14909.916241125,9,14909.323496625,14909.384435417,14909.9197285,14910.679733917,1,0.654382958000497
119,19,2,categorization,0,kitchen,SHINEd_sun_aeqdocilnnpuvuhx.tif,83,0.0666666666666667,0.0666666666666667,1.06666666666667,14910.68457375,14911.603800417,9,14910.746377875,14910.807333584,14911.609267917,14912.669313834,1,0.919226666999748
119,20,2,categorization,0,bathroom,SHINEd_sun_aunuadmjocsddsrl.tif,52,0.0666666666666667,0.0666666666666667,0.8,14912.678857959,14913.341538875,13,14912.74348575,14912.806959584,14913.36321325,14914.156585625,1,0.662680916000681
119,21,2,categorization,0,bathroom,SHINEd_sun_ajlawzvmubibwbpy.tif,30,0.0666666666666667,0.0666666666666667,0.866666666666667,14914.1725345,14915.12394625,9,14914.238892334,14914.299626334,14915.135498625,14915.99550425,0,0.951411750000261
119,22,2,categorization,0,kitchen,SHINEd_sun_acwjdupvyjsugpay.tif,76,0.0666666666666667,0.0666666666666667,1.48333333333333,14916.000474042,14916.956305834,9,14916.062146584,14916.123120459,14916.975013917,14918.4517205,1,0.955831792000026
119,23,2,categorization,0,kitchen,SHINEd_sun_ahpczsiumwwocjkv.tif,92,0.0666666666666667,0.0666666666666667,1.1,14918.468415459,14920.116841834,9,14918.5363125,14918.600309042,14920.136471334,14921.22984575,1,1.64842637500078
119,24,2,categorization,0,bathroom,SHINEd_sun_abapwbhyhkfixyex.tif,14,0.0666666666666667,0.0666666666666667,0.783333333333333,14921.239280375,14921.868982667,9,14921.303948917,14921.37127475,14921.893112042,14922.669820834,0,0.62970229199891
119,25,2,categorization,0,kitchen,SHINEd_sun_aapllqyqlykszopd.tif,66,0.0666666666666667,0.0666666666666667,0.866666666666667,14922.686371042,14923.500504959,9,14922.752671584,14922.818388209,14923.504003709,14924.364008167,1,0.814133916999708
119,26,2,categorization,0,bathroom,SHINEd_sun_aqrpegblszgcoujh.tif,48,0.0666666666666667,0.0666666666666667,1.83333333333333,14924.368838167,14925.372521834,13,14924.430643042,14924.491614167,14925.376962417,14927.203680834,1,1.00368366700059
119,27,2,categorization,0,kitchen,SHINEd_sun_abrcnpqqhmjwekyf.tif,73,0.0666666666666667,0.0666666666666667,0.7,14927.221125625,14928.126441667,9,14927.287717167,14927.353435125,14928.142201167,14928.835538167,1,0.905316042000777
119,28,2,categorization,0,bathroom,SHINEd_sun_aljolscmmzydegqp.tif,33,0.0666666666666667,0.0666666666666667,1.33333333333333,14928.840529834,14929.892285292,9,14928.902235542,14928.963147,14929.898694625,14931.225437917,0,1.05175545800012
119,29,2,categorization,0,kitchen,SHINEd_sun_auticobqsbwgoppi.tif,104,0.0666666666666667,0.0666666666666667,1.33333333333333,14931.242848125,14932.470969709,13,14931.309250959,14931.375311792,14932.49814,14933.824853875,0,1.22812158399938
119,30,2,categorization,0,bathroom,SHINEd_sun_aghyqhbptboemmoq.tif,23,0.0666666666666667,0.0666666666666667,1.38333333333333,14933.841788334,14934.68485375,13,14933.908416,14933.974068417,14934.713795167,14936.09049575,1,0.843065415998353
119,31,2,categorization,0,bathroom,SHINEd_sun_alotolagknyrgtsk.tif,35,0.0666666666666667,0.0666666666666667,1.25,14936.106202542,14937.446695209,9,14936.172516834,14936.238400917,14937.461345667,14938.704724459,0,1.34049266700094
119,32,2,categorization,0,bathroom,SHINEd_sun_aoybiabnpadelefl.tif,41,0.0666666666666667,0.0666666666666667,1.55,14938.721796542,14939.870288834,9,14938.789817375,14938.854194834,14939.893995584,14941.437364375,0,1.14849229199899
119,33,2,categorization,0,bathroom,SHINEd_sun_apkruvsevgegsdwp.tif,44,0.0666666666666667,0.0666666666666667,1.61666666666667,14941.456062542,14942.917790667,9,14941.522382834,14941.5884395,14942.945771209,14944.555803417,0,1.46172812499935
119,34,2,categorization,0,kitchen,SHINEd_sun_amjjdeyrggfqgmom.tif,100,0.0666666666666667,0.0666666666666667,1.33333333333333,14944.57305275,14945.510043125,13,14944.639431334,14944.705211709,14945.52785325,14946.854566417,0,0.936990374999368
119,35,2,categorization,0,bathroom,SHINEd_labelme_sfxiulhjbhlyiyt.tif,11,0.0666666666666667,0.0666666666666667,0.833333333333333,14946.871603584,14947.8850025,13,14946.938112625,14947.003856417,14947.910499667,14948.737171417,1,1.01339891599855
119,36,2,categorization,0,kitchen,SHINEd_sun_avszsnwsbuqfgzbn.tif,105,0.0666666666666667,0.0666666666666667,1.45,14948.743392292,14950.724286709,13,14948.805104125,14948.86607375,14950.735133084,14952.178519917,0,1.98089441699994
119,37,2,categorization,0,kitchen,SHINEd_labelme_rykdqxenmhulbdn.tif,63,0.0666666666666667,0.0666666666666667,0.933333333333333,14952.196873417,14953.591779875,9,14952.260832709,14952.327762375,14953.61857625,14954.545247084,1,1.39490645799924
119,38,2,categorization,0,bathroom,SHINEd_sun_alkosphxlxwjwgjd.tif,34,0.0666666666666667,0.0666666666666667,1.65,14954.550315875,14955.651689834,13,14954.612039834,14954.672919542,14955.658083542,14957.301470084,1,1.10137395899983
119,39,2,categorization,0,kitchen,SHINEd_sun_acfmftudsenhrfhy.tif,74,0.0666666666666667,0.0666666666666667,1.23333333333333,14957.318897459,14958.438514584,9,14957.386701042,14957.45110175,14958.456376709,14959.683093,1,1.11961712500124
119,40,2,categorization,0,kitchen,SHINEd_sun_auaiucuqpdausiva.tif,102,0.0666666666666667,0.0666666666666667,0.766666666666667,14959.700571,14960.489432084,13,14959.767219417,14959.833075709,14960.505755292,14961.265809584,0,0.788861084000018
119,41,2,categorization,0,kitchen,SHINEd_sun_aymvwlarqodbwuoc.tif,108,0.0666666666666667,0.0666666666666667,1.78333333333333,14961.281172875,14963.268283042,9,14961.347082667,14961.413636959,14963.283056667,14965.059760125,1,1.98711016699963
119,42,2,categorization,0,kitchen,SHINEd_sun_akchetnepxlcxhsu.tif,98,0.0666666666666667,0.0666666666666667,1.11666666666667,14965.075558792,14965.937468292,13,14965.142062709,14965.209409875,14965.965922084,14967.075975084,0,0.861909500001275
119,43,2,categorization,0,kitchen,SHINEd_sun_aggjlwcdjsjcaemh.tif,86,0.0666666666666667,0.0666666666666667,1.85,14967.085768625,14967.956650042,9,14967.151360167,14967.218289792,14967.973585167,14969.81695875,1,0.870881417000419
119,44,2,categorization,0,kitchen,SHINEd_sun_awcpdzzznmweyyhv.tif,106,0.0666666666666667,0.0666666666666667,0.733333333333333,14969.834655334,14970.71215425,13,14969.9025315,14969.966683459,14970.739880709,14971.466552042,0,0.877498916001059
119,45,2,categorization,0,bathroom,SHINEd_sun_apjevzvycyhuqghb.tif,43,0.0666666666666667,0.0666666666666667,0.783333333333333,14971.472459667,14973.332231584,13,14971.534314959,14971.595250625,14973.347495625,14974.124167875,1,1.85977191699931
119,46,2,categorization,0,kitchen,SHINEd_sun_axyyrmzcupyhlivc.tif,107,0.0666666666666667,0.0666666666666667,1.5,14974.1290995,14974.987916417,9,14974.190761334,14974.25164525,14975.003724209,14976.497095709,1,0.858816916999785
119,47,2,categorization,0,kitchen,SHINEd_sun_azmutvzbxypaceni.tif,110,0.0666666666666667,0.0666666666666667,0.733333333333333,14976.5155535,14977.49401525,9,14976.58191125,14976.647853042,14977.521215167,14978.247887459,1,0.978461750000861
119,48,2,categorization,0,bathroom,SHINEd_sun_aclfzgynxzxlbepz.tif,19,0.0666666666666667,0.0666666666666667,1.1,14978.252808917,14979.267820542,13,14978.314625959,14978.375455334,14979.277369625,14980.370744125,1,1.01501162500062
119,49,2,categorization,0,kitchen,SHINEd_sun_aunzlwrbjumxhwdj.tif,103,0.0666666666666667,0.0666666666666667,1.6,14980.378968334,14982.724194167,9,14980.443509292,14980.510703917,14982.730011875,14984.323398959,1,2.34522583299986
119,50,2,categorization,0,kitchen,SHINEd_sun_agzzivivdpnawacl.tif,89,0.0666666666666667,0.0666666666666667,1.06666666666667,14984.333201334,14985.05976075,13,14984.399697334,14984.465449417,14985.088436709,14986.1484825,0,0.726559415999873
119,1,3,categorization,0,bathroom,SHINEd_sun_agrwbmhcpmfuwmsg.tif,24,0.0666666666666667,0.0666666666666667,0.85,14999.294654334,15000.435493084,13,14999.35652325,14999.417706792,15000.452846292,15001.296185167,1,1.1408387499996
119,2,3,categorization,0,kitchen,SHINEd_sun_abdxkyyxwfskuaqb.tif,70,0.0666666666666667,0.0666666666666667,1.65,15001.301675125,15002.091159167,9,15001.363430125,15001.424361959,15002.10969475,15003.753062709,1,0.789484041999458
119,3,3,categorization,0,bathroom,SHINEd_sun_acegryoqftbzowsg.tif,17,0.0666666666666667,0.0666666666666667,0.783333333333333,15003.770448292,15004.895204125,13,15003.838453375,15003.902195292,15004.925378834,15005.702050209,1,1.12475583299965
119,4,3,categorization,0,bathroom,SHINEd_sun_acduarbnmmoglmiv.tif,16,0.0666666666666667,0.0666666666666667,0.933333333333333,15005.710378167,15006.523288542,9,15005.772056917,15005.833141625,15006.534896042,15007.461567917,0,0.812910374999774
119,5,3,categorization,0,bathroom,SHINEd_sun_alkosphxlxwjwgjd.tif,34,0.0666666666666667,0.0666666666666667,0.866666666666667,15007.467391959,15008.219647209,13,15007.529192292,15007.589900334,15008.225072,15009.08507575,1,0.752255249999507
119,6,3,categorization,0,bathroom,SHINEd_sun_aggnnqpdorgxpvce.tif,21,0.0666666666666667,0.0666666666666667,1.11666666666667,15009.090402292,15009.843996584,9,15009.15212325,15009.212965084,15009.848328709,15010.958379542,0,0.753594292000344
119,7,3,categorization,0,bathroom,SHINEd_sun_apeeialkgkuxddgh.tif,42,0.0666666666666667,0.0666666666666667,0.966666666666667,15010.967783834,15011.708530709,13,15011.032214084,15011.100537417,15011.722493125,15012.682550375,1,0.740746875000696
119,8,3,categorization,0,bathroom,SHINEd_sun_agyqfjcfkdcydepw.tif,25,0.0666666666666667,0.0666666666666667,1.78333333333333,15012.698290834,15013.46767,9,15012.764703042,15012.830257209,15013.482816834,15015.25952575,0,0.769379166000363
119,9,3,categorization,0,bathroom,SHINEd_sun_aljolscmmzydegqp.tif,33,0.0666666666666667,0.0666666666666667,1.55,15015.276808209,15016.600115334,13,15015.343358667,15015.410411792,15016.614696834,15018.158086625,1,1.3233071249997
119,10,3,categorization,0,bathroom,SHINEd_sun_apkruvsevgegsdwp.tif,44,0.0666666666666667,0.0666666666666667,1.41666666666667,15018.179681625,15019.3995755,9,15018.246154459,15018.308500917,15019.414942917,15020.824976209,0,1.21989387499889
119,11,3,categorization,0,bathroom,SHINEd_sun_ajlawzvmubibwbpy.tif,30,0.0666666666666667,0.0666666666666667,0.8,15020.845081084,15021.673433209,9,15020.91226825,15020.978351334,15021.701893042,15022.495265375,0,0.828352124999583
119,12,3,categorization,0,kitchen,SHINEd_sun_akcjzhbbjlbogpdi.tif,99,0.0666666666666667,0.0666666666666667,1.28333333333333,15022.511840709,15023.300128542,9,15022.574556625,15022.634506959,15023.31982625,15024.596540792,1,0.78828783300014
119,13,3,categorization,0,bathroom,SHINEd_sun_aofnryafpsjimzsb.tif,40,0.0666666666666667,0.0666666666666667,1.66666666666667,15024.613401834,15025.584342875,13,15024.680242584,15024.746278459,15025.602752375,15027.2627875,1,0.970941040999605
119,14,3,categorization,0,bathroom,SHINEd_sun_aclfzgynxzxlbepz.tif,19,0.0666666666666667,0.0666666666666667,1.81666666666667,15027.280801125,15028.244055709,9,15027.347836917,15027.413304834,15028.267977334,15030.0780365,0,0.963254583999515
119,15,3,categorization,0,bathroom,SHINEd_sun_acgyywnybuveqsro.tif,18,0.0666666666666667,0.0666666666666667,1.35,15030.091848417,15031.379924,13,15030.158747084,15030.223979209,15031.393732334,15032.7371145,1,1.28807558300105
119,16,3,categorization,0,kitchen,SHINEd_sun_abrcnpqqhmjwekyf.tif,73,0.0666666666666667,0.0666666666666667,0.916666666666667,15032.749173709,15033.624473709,9,15032.8157165,15032.881863584,15033.637234834,15034.547240875,1,0.875299999999697
119,17,3,categorization,0,bathroom,SHINEd_sun_ahcvzmoyaycdoftf.tif,27,0.0666666666666667,0.0666666666666667,0.916666666666667,15034.553123917,15035.227167459,13,15034.614905834,15034.675779459,15035.24415175,15036.154157584,1,0.674043541999708
119,18,3,categorization,0,bathroom,SHINEd_sun_axyrejkiiaqiurjk.tif,59,0.0666666666666667,0.0666666666666667,1.31666666666667,15036.159873334,15037.115633625,9,15036.221619,15036.282551417,15037.134409334,15038.444465709,0,0.955760291000843
119,19,3,categorization,0,bathroom,SHINEd_sun_axxbkopsgyouuebh.tif,58,0.0666666666666667,0.0666666666666667,1.45,15038.46292775,15040.6194385,13,15038.529617292,15038.595273584,15040.630917834,15042.0743005,1,2.15651074999914
119,20,3,categorization,0,kitchen,SHINEd_sun_akchetnepxlcxhsu.tif,98,0.0666666666666667,0.0666666666666667,0.95,15042.09107125,15042.957961875,13,15042.157620375,15042.223536875,15042.980226334,15043.923564792,0,0.866890624998632
119,21,3,categorization,0,bathroom,SHINEd_sun_abjtwfukuwddzted.tif,15,0.0666666666666667,0.0666666666666667,1.38333333333333,15043.928776709,15044.947134459,9,15043.990650542,15044.051434917,15044.953344334,15046.330052292,0,1.01835774999927
119,22,3,categorization,0,kitchen,SHINEd_sun_agzzivivdpnawacl.tif,89,0.0666666666666667,0.0666666666666667,1.16666666666667,15046.344969292,15047.540068917,9,15046.411566042,15046.477419917,15047.567339417,15048.727390875,1,1.19509962499978
119,23,3,categorization,0,kitchen,SHINEd_sun_acgtpgfybqjmzeyw.tif,75,0.0666666666666667,0.0666666666666667,1.61666666666667,15048.738042959,15049.60473075,9,15048.804639375,15048.871627834,15049.627526709,15051.237572834,1,0.866687791000004
119,24,3,categorization,0,bathroom,SHINEd_sun_awnqiikzaispgmwo.tif,56,0.0666666666666667,0.0666666666666667,1.38333333333333,15051.255019042,15052.331478542,13,15051.323436542,15051.387024542,15052.360473459,15053.737189625,1,1.07645950000006
119,25,3,categorization,0,bathroom,SHINEd_sun_afcoljnjfoxjtgja.tif,20,0.0666666666666667,0.0666666666666667,1.78333333333333,15053.755011959,15054.77117175,9,15053.821674209,15053.887362209,15054.794141209,15056.570853292,0,1.01615979100097
119,26,3,categorization,0,kitchen,SHINEd_sun_ahywdevtimnqcsln.tif,94,0.0666666666666667,0.0666666666666667,0.783333333333333,15056.588981917,15057.86923325,9,15056.655849417,15056.721211375,15057.894057667,15058.6707305,1,1.28025133299889
119,27,3,categorization,0,bathroom,SHINEd_sun_ahqjwnzgolcaoidx.tif,29,0.0666666666666667,0.0666666666666667,1.65,15058.676004417,15059.739353667,13,15058.737910542,15058.798820875,15059.75055175,15061.393935084,1,1.0633492500001
119,28,3,categorization,0,kitchen,SHINEd_sun_aggjlwcdjsjcaemh.tif,86,0.0666666666666667,0.0666666666666667,1.86666666666667,15061.414000334,15062.309241584,9,15061.4808305,15061.546681125,15062.336633917,15064.196679167,1,0.895241250000254
119,29,3,categorization,0,kitchen,SHINEd_sun_aeqdocilnnpuvuhx.tif,83,0.0666666666666667,0.0666666666666667,1.23333333333333,15064.215689875,15065.060446917,9,15064.280930959,15064.348170959,15065.087022375,15066.313746959,1,0.844757041999401
119,30,3,categorization,0,kitchen,SHINEd_sun_abpwyqmlzafvklqo.tif,72,0.0666666666666667,0.0666666666666667,0.7,15066.323501375,15067.296679459,9,15066.390242875,15066.457569167,15067.3127375,15068.006115792,1,0.973178083999301
119,31,3,categorization,0,kitchen,SHINEd_sun_aexklacwqwezaorf.tif,84,0.0666666666666667,0.0666666666666667,0.716666666666667,15068.022679,15069.003287125,9,15068.089133417,15068.155158709,15069.007274542,15069.717277875,1,0.980608125000799
119,32,3,categorization,0,kitchen,SHINEd_labelme_rykdqxenmhulbdn.tif,63,0.0666666666666667,0.0666666666666667,1.05,15069.722193917,15071.379231,9,15069.784034792,15069.844960709,15071.397722292,15072.441096917,1,1.65703708300134
119,33,3,categorization,0,bathroom,SHINEd_sun_apjevzvycyhuqghb.tif,43,0.0666666666666667,0.0666666666666667,1.1,15072.44989525,15073.699364792,9,15072.514176375,15072.580767584,15073.721785709,15074.81515525,0,1.24946954200095
119,34,3,categorization,0,kitchen,SHINEd_sun_amjjdeyrggfqgmom.tif,100,0.0666666666666667,0.0666666666666667,1.13333333333333,15074.827112709,15075.749334334,9,15074.892320417,15074.958624459,15075.764733084,15076.891441959,1,0.92222162500002
119,35,3,categorization,0,bathroom,SHINEd_sun_aavhrsfjbserjtht.tif,13,0.0666666666666667,0.0666666666666667,1.38333333333333,15076.90720925,15077.770929042,13,15076.973875709,15077.041130459,15077.797687167,15079.17440675,1,0.863719792001575
119,36,3,categorization,0,kitchen,SHINEd_sun_ahspylgoovwmwvgk.tif,93,0.0666666666666667,0.0666666666666667,1.5,15079.192173834,15080.440738167,13,15079.259268125,15079.324462667,15080.466434875,15081.959805584,0,1.2485643330001
119,37,3,categorization,0,kitchen,SHINEd_sun_aegoxogugdkwpmpj.tif,80,0.0666666666666667,0.0666666666666667,1.61666666666667,15081.978987459,15082.781319042,13,15082.046030875,15082.111520875,15082.802129375,15084.41217175,0,0.802331582999614
119,38,3,categorization,0,bathroom,SHINEd_sun_axldvoqbuvuggfmq.tif,57,0.0666666666666667,0.0666666666666667,0.983333333333333,15084.430293875,15085.172986375,13,15084.497155959,15084.56276975,15085.202929084,15086.179600292,1,0.742692499999976
119,39,3,categorization,0,kitchen,SHINEd_sun_acwjdupvyjsugpay.tif,76,0.0666666666666667,0.0666666666666667,1.3,15086.185406792,15087.779355959,9,15086.247175625,15086.308080959,15087.793432459,15089.086806,1,1.59394916700148
119,40,3,categorization,0,bathroom,SHINEd_sun_atstyziqcmkahyxk.tif,51,0.0666666666666667,0.0666666666666667,1.03333333333333,15089.10354025,15090.085197125,13,15089.170368042,15089.236317792,15090.109552834,15091.136275334,1,0.981656874999317
119,41,3,categorization,0,kitchen,SHINEd_sun_agubuxuukhzyzpdp.tif,88,0.0666666666666667,0.0666666666666667,1.45,15091.147014042,15092.1336925,13,15091.212216584,15091.277929625,15092.149941459,15093.59332325,0,0.986678457999005
119,42,3,categorization,0,kitchen,SHINEd_sun_aymvwlarqodbwuoc.tif,108,0.0666666666666667,0.0666666666666667,1.23333333333333,15093.612278584,15094.781906792,13,15093.678825,15093.744393959,15094.800617125,15096.027333959,0,1.16962820800109
119,43,3,categorization,0,kitchen,SHINEd_sun_ajcbwwvdlsvjyzje.tif,96,0.0666666666666667,0.0666666666666667,1.26666666666667,15096.044644125,15097.669455625,13,15096.111403917,15096.176911542,15097.684311125,15098.944346709,0,1.62481149999985
119,44,3,categorization,0,kitchen,SHINEd_sun_aixorpehvfykdynp.tif,95,0.0666666666666667,0.0666666666666667,1.03333333333333,15098.962992667,15100.180091584,13,15099.029270084,15099.095269459,15100.202038584,15101.22875125,0,1.21709891699902
119,45,3,categorization,0,kitchen,SHINEd_labelme_brsyyvweiuaazfr.tif,61,0.0666666666666667,0.0666666666666667,1.31666666666667,15101.241019417,15102.388747792,9,15101.306161667,15101.371916417,15102.412204084,15103.722244375,1,1.14772837499913
119,46,3,categorization,0,bathroom,SHINEd_sun_azqyogdvyhahyram.tif,60,0.0666666666666667,0.0666666666666667,1.7,15103.739937167,15104.723222167,13,15103.807712667,15103.872096084,15104.745764584,15106.439130209,1,0.983285000000251
119,47,3,categorization,0,kitchen,SHINEd_sun_axyyrmzcupyhlivc.tif,107,0.0666666666666667,0.0666666666666667,1.35,15106.457619375,15107.686805709,13,15106.52423675,15106.590252334,15107.713191667,15109.056560917,0,1.22918633399968
119,48,3,categorization,0,kitchen,SHINEd_sun_aadbddgrdsjugojn.tif,64,0.0666666666666667,0.0666666666666667,0.8,15109.075132709,15109.944626875,9,15109.142238125,15109.207695959,15109.96412325,15110.757464417,1,0.86949416599964
119,49,3,categorization,0,kitchen,SHINEd_sun_aamedkxepzlwuxes.tif,65,0.0666666666666667,0.0666666666666667,0.766666666666667,15110.763606792,15111.947122584,9,15110.825351167,15110.886302542,15111.955428625,15112.715433875,1,1.18351579200134
119,50,3,categorization,0,kitchen,SHINEd_sun_awcpdzzznmweyyhv.tif,106,0.0666666666666667,0.0666666666666667,1.38333333333333,15112.720266875,15114.915418959,13,15112.782050334,15112.842873042,15114.928998542,15116.305697084,0,2.19515208400117
119,1,4,categorization,0,kitchen,SHINEd_sun_ahljzhgcdpomplvg.tif,91,0.0666666666666667,0.0666666666666667,1,15128.97641275,15130.626956459,13,15129.038206334,15129.099092375,15130.634724209,15131.628062209,0,1.65054370899998
119,2,4,categorization,0,kitchen,SHINEd_sun_acxkpeoqbwcxfvip.tif,77,0.0666666666666667,0.0666666666666667,0.966666666666667,15131.633724959,15132.483562084,9,15131.695330459,15131.756454959,15132.491673917,15133.451677417,1,0.849837125000704
119,3,4,categorization,0,bathroom,SHINEd_sun_amzlamotzwfkwjco.tif,37,0.0666666666666667,0.0666666666666667,1.75,15133.456646792,15134.602987709,9,15133.518409167,15133.579393875,15134.614633125,15136.358012667,0,1.146340917001
119,4,4,categorization,0,kitchen,SHINEd_sun_azmutvzbxypaceni.tif,110,0.0666666666666667,0.0666666666666667,1.68333333333333,15136.377732417,15137.462409667,9,15136.444802167,15136.5102855,15137.48282525,15139.159539667,1,1.084677249999
119,5,4,categorization,0,bathroom,SHINEd_sun_ambriybtogmepttm.tif,36,0.0666666666666667,0.0666666666666667,1.58333333333333,15139.179692875,15139.984653542,13,15139.2464695,15139.312132,15140.001800084,15141.578518125,1,0.804960667001069
119,6,4,categorization,0,kitchen,SHINEd_sun_aarfiyshqohlwkmo.tif,67,0.0666666666666667,0.0666666666666667,1,15141.59778975,15142.442569334,9,15141.664626834,15141.730402167,15142.470947875,15143.4642885,1,0.844779584000207
119,7,4,categorization,0,bathroom,SHINEd_sun_aqrpegblszgcoujh.tif,48,0.0666666666666667,0.0666666666666667,1.33333333333333,15143.47035,15144.54744425,13,15143.532071584,15143.592995334,15144.561486834,15145.888203834,1,1.0770942500003
119,8,4,categorization,0,kitchen,SHINEd_sun_avszsnwsbuqfgzbn.tif,105,0.0666666666666667,0.0666666666666667,1.26666666666667,15145.905519334,15146.619815625,9,15145.973399834,15146.03811775,15146.645131,15147.905188292,1,0.71429629100021
119,9,4,categorization,0,bathroom,SHINEd_sun_ausgutylgojavyoq.tif,53,0.0666666666666667,0.0666666666666667,0.883333333333333,15147.919217417,15149.762418334,13,15147.985772459,15148.051673584,15149.793080167,15150.6697525,1,1.84320091699919
119,10,4,categorization,0,kitchen,SHINEd_sun_aenotlpyftoioydp.tif,82,0.0666666666666667,0.0666666666666667,1.26666666666667,15150.675733334,15151.827385084,9,15150.737347084,15150.798430792,15151.833937334,15153.093993125,1,1.15165175000038
119,11,4,categorization,0,bathroom,SHINEd_labelme_sfxiulhjbhlyiyt.tif,11,0.0666666666666667,0.0666666666666667,2,15153.112172417,15153.810898167,13,15153.178820584,15153.24467425,15153.834569084,15155.827957,1,0.69872574999863
119,12,4,categorization,0,bathroom,SHINEd_sun_anryaplzeujmzfkd.tif,39,0.0666666666666667,0.0666666666666667,0.733333333333333,15155.84537425,15156.791170917,9,15155.911621542,15155.97755875,15156.817593917,15157.544265167,0,0.94579666699974
119,13,4,categorization,0,kitchen,SHINEd_sun_abdenxonkemggwsq.tif,69,0.0666666666666667,0.0666666666666667,0.883333333333333,15157.550035875,15158.362524375,9,15157.611895667,15157.672687709,15158.374601709,15159.251276042,1,0.812488499999745
119,14,4,categorization,0,bathroom,SHINEd_sun_akiytfaagpdsphgz.tif,31,0.0666666666666667,0.0666666666666667,0.983333333333333,15159.256826792,15160.762834792,13,15159.318556834,15159.379437917,15160.781661542,15161.758333209,1,1.50600800000029
119,15,4,categorization,0,bathroom,SHINEd_sun_aghyqhbptboemmoq.tif,23,0.0666666666666667,0.0666666666666667,1.56666666666667,15161.763739292,15162.642776042,13,15161.825249459,15161.886380917,15162.655177834,15164.215222375,1,0.879036749998704
119,16,4,categorization,0,kitchen,SHINEd_labelme_kxvouciolcpqplr.tif,62,0.0666666666666667,0.0666666666666667,1.08333333333333,15164.2322975,15166.027085042,9,15164.297437167,15164.365040292,15166.0345135,15167.111214834,1,1.79478754199954
119,17,4,categorization,0,kitchen,SHINEd_sun_ahpczsiumwwocjkv.tif,92,0.0666666666666667,0.0666666666666667,0.75,15167.120064834,15168.099832209,13,15167.184968625,15167.25236,15168.125637334,15168.86900875,0,0.979767374999938
119,18,4,categorization,0,kitchen,SHINEd_sun_ahdycvpopffkzzsu.tif,90,0.0666666666666667,0.0666666666666667,0.966666666666667,15168.884817459,15170.322505917,13,15168.951431459,15169.016989959,15170.335589375,15171.295593834,0,1.43768845799968
119,19,4,categorization,0,kitchen,SHINEd_sun_aypmqwcualkenuoe.tif,109,0.0666666666666667,0.0666666666666667,1.63333333333333,15171.30058925,15172.947056334,9,15171.362341917,15171.423396709,15172.959214,15174.585936709,1,1.6464670839996
119,20,4,categorization,0,kitchen,SHINEd_sun_aunzlwrbjumxhwdj.tif,103,0.0666666666666667,0.0666666666666667,1.46666666666667,15174.602601042,15175.907960875,9,15174.670152375,15174.735196875,15175.9261875,15177.38623975,1,1.30535983300069
119,21,4,categorization,0,kitchen,SHINEd_sun_aaxxjlsuzvqlgylf.tif,68,0.0666666666666667,0.0666666666666667,0.933333333333333,15177.400112542,15179.035139417,13,15177.467631625,15177.532553542,15179.052448292,15179.979121417,0,1.63502687499931
119,22,4,categorization,0,bathroom,SHINEd_sun_asfwthctfqerjvxr.tif,49,0.0666666666666667,0.0666666666666667,1.45,15179.984530209,15182.762935834,13,15180.046284,15180.107167375,15182.77621325,15184.219579834,1,2.77840562500023
119,23,4,categorization,0,bathroom,SHINEd_sun_apkxzenqapsujocq.tif,45,0.0666666666666667,0.0666666666666667,0.966666666666667,15184.235185125,15186.786560917,9,15184.300378959,15184.36740125,15186.803213584,15187.763218084,0,2.55137579199982
119,24,4,categorization,0,kitchen,SHINEd_sun_agorklincwxrdtga.tif,87,0.0666666666666667,0.0666666666666667,0.816666666666667,15187.768109834,15188.483476209,9,15187.829869292,15187.890858875,15188.492727584,15189.302731792,1,0.715366374999576
119,25,4,categorization,0,kitchen,SHINEd_sun_auaiucuqpdausiva.tif,102,0.0666666666666667,0.0666666666666667,1.96666666666667,15189.309149792,15190.33933975,13,15189.371120125,15189.431747125,15190.350354,15192.310386084,0,1.03018995800085
119,26,4,categorization,0,bathroom,SHINEd_sun_agguqiubmwhqqunb.tif,22,0.0666666666666667,0.0666666666666667,0.916666666666667,15192.321139959,15194.618805,13,15192.387546042,15192.453655917,15194.622508542,15195.532512334,1,2.29766504100007
119,27,4,categorization,0,kitchen,SHINEd_sun_admlmbcdswaszruo.tif,79,0.0666666666666667,0.0666666666666667,1.28333333333333,15195.5374515,15196.26652175,9,15195.599090292,15195.660036334,15196.278404167,15197.555124167,1,0.729070249999495
119,28,4,categorization,0,kitchen,SHINEd_sun_aapllqyqlykszopd.tif,66,0.0666666666666667,0.0666666666666667,1.8,15197.571785417,15199.738602042,13,15197.63949275,15197.703812709,15199.756873167,15201.550241709,0,2.16681662500014
119,29,4,categorization,0,bathroom,SHINEd_sun_abapwbhyhkfixyex.tif,14,0.0666666666666667,0.0666666666666667,1.33333333333333,15201.567284125,15202.716327209,9,15201.633334584,15201.699534542,15202.739280542,15204.066001417,0,1.14904308400037
119,30,4,categorization,0,bathroom,SHINEd_sun_alotolagknyrgtsk.tif,35,0.0666666666666667,0.0666666666666667,1.06666666666667,15204.081921792,15205.563389959,13,15204.147466042,15204.212027042,15205.586852917,15206.6469055,1,1.48146816699955
119,31,4,categorization,0,kitchen,SHINEd_sun_abftihopvusyfakt.tif,71,0.0666666666666667,0.0666666666666667,1.03333333333333,15206.658958542,15208.520057542,9,15206.724076125,15206.789815584,15208.549189959,15209.575911167,1,1.86109899999974
119,32,4,categorization,0,kitchen,SHINEd_sun_aehawpgmrlhlvcow.tif,81,0.0666666666666667,0.0666666666666667,0.733333333333333,15209.586472,15210.524911125,9,15209.651539875,15209.718479667,15210.541311084,15211.268020417,1,0.938439124998695
119,33,4,categorization,0,bathroom,SHINEd_sun_apynckhmoftszqoq.tif,47,0.0666666666666667,0.0666666666666667,0.766666666666667,15211.285449625,15213.034392125,13,15211.352097167,15211.417296084,15213.053344542,15213.813350417,1,1.74894250000034
119,34,4,categorization,0,kitchen,SHINEd_sun_aqeaevwwwjoqhzvl.tif,101,0.0666666666666667,0.0666666666666667,1.1,15213.818944,15215.818991125,13,15213.8806575,15213.94163825,15215.82779025,15216.921173,0,2.00004712499867
119,35,4,categorization,0,bathroom,SHINEd_sun_aspsyogrekjtfozg.tif,50,0.0666666666666667,0.0666666666666667,1.81666666666667,15216.929571667,15217.878212459,13,15216.994554875,15217.061703542,15217.901593,15219.7116365,1,0.948640791999424
119,36,4,categorization,0,kitchen,SHINEd_sun_acfmftudsenhrfhy.tif,74,0.0666666666666667,0.0666666666666667,0.883333333333333,15219.727208667,15220.480277167,9,15219.793664417,15219.859590042,15220.498370209,15221.375043,1,0.753068500000154
119,37,4,categorization,0,kitchen,SHINEd_sun_auticobqsbwgoppi.tif,104,0.0666666666666667,0.0666666666666667,1.7,15221.380792917,15222.154743917,9,15221.442434584,15221.503541542,15222.171972292,15223.865357459,1,0.773951000001034
119,38,4,categorization,0,bathroom,SHINEd_sun_apmqjbnwghzuhhzh.tif,46,0.0666666666666667,0.0666666666666667,1.58333333333333,15223.881621875,15224.828228167,13,15223.949273042,15224.014060084,15224.853868209,15226.43058825,1,0.94660629200007
119,39,4,categorization,0,bathroom,SHINEd_sun_avhrdrntsqrjzccq.tif,55,0.0666666666666667,0.0666666666666667,0.833333333333333,15226.446224875,15227.607950667,13,15226.512621834,15226.578545084,15227.635044875,15228.461715417,1,1.16172579199883
119,40,4,categorization,0,bathroom,SHINEd_sun_ahaulkltgpkeeemi.tif,26,0.0666666666666667,0.0666666666666667,0.95,15228.466811875,15229.339127084,13,15228.528733084,15228.589671209,15229.358156667,15230.301494042,1,0.87231520900059
119,41,4,categorization,0,kitchen,SHINEd_sun_adgqasybjyktddhj.tif,78,0.0666666666666667,0.0666666666666667,1.06666666666667,15230.306295125,15231.059038042,9,15230.3680205,15230.429044,15231.064344292,15232.124376792,1,0.752742917000432
119,42,4,categorization,0,bathroom,SHINEd_sun_aleqenyvunhactkl.tif,32,0.0666666666666667,0.0666666666666667,1.68333333333333,15232.133527917,15233.074238667,13,15232.198077459,15232.263837584,15233.103589959,15234.780296459,1,0.940710750001017
119,43,4,categorization,0,bathroom,SHINEd_sun_aapitsgbtktqubfy.tif,12,0.0666666666666667,0.0666666666666667,1.31666666666667,15234.79593025,15236.306999084,13,15234.862255959,15234.928213625,15236.313782042,15237.6238345,1,1.51106883399916
119,44,4,categorization,0,bathroom,SHINEd_sun_aoybiabnpadelefl.tif,41,0.0666666666666667,0.0666666666666667,1.61666666666667,15237.639144084,15238.627729709,9,15237.704979334,15237.772390417,15238.644974709,15240.255024459,0,0.988585625000269
119,45,4,categorization,0,kitchen,SHINEd_sun_ajkqhtgcbgpcwrwn.tif,97,0.0666666666666667,0.0666666666666667,1.15,15240.263866875,15241.419589709,13,15240.328839542,15240.396386625,15241.435530042,15242.578920292,0,1.15572283399888
119,46,4,categorization,0,bathroom,SHINEd_sun_anhioqovhscjqqwb.tif,38,0.0666666666666667,0.0666666666666667,1.25,15242.587495625,15243.475049292,13,15242.653838709,15242.719665292,15243.492140292,15244.735513917,1,0.887553666998429
119,47,4,categorization,0,bathroom,SHINEd_sun_auzqhkafidnkrwmo.tif,54,0.0666666666666667,0.0666666666666667,1.1,15244.750850375,15246.117955875,9,15244.817347959,15244.883564667,15246.140472917,15247.233848042,0,1.36710549999952
119,48,4,categorization,0,bathroom,SHINEd_sun_aunuadmjocsddsrl.tif,52,0.0666666666666667,0.0666666666666667,0.9,15247.244241834,15249.077821584,9,15247.309701709,15247.377702792,15249.102002959,15249.995341125,0,1.83357975000035
119,49,4,categorization,0,bathroom,SHINEd_sun_ahijqszoswveeyji.tif,28,0.0666666666666667,0.0666666666666667,1.3,15250.00124825,15251.186473792,13,15250.063014084,15250.124242125,15251.193331959,15252.486712292,1,1.1852255419999
119,50,4,categorization,0,kitchen,SHINEd_sun_afuyedyxivkhecmu.tif,85,0.0666666666666667,0.0666666666666667,1.25,15252.503244875,15254.092783,9,15252.571028417,15252.635316459,15254.109433417,15255.352821959,1,1.58953812499931
119,1,5,categorization,0,bathroom,SHINEd_sun_auzqhkafidnkrwmo.tif,54,0.0666666666666667,0.0666666666666667,1.7,15264.433276542,15265.666829667,13,15264.495747625,15264.555880084,15265.674898084,15267.368283125,1,1.23355312499916
119,2,5,categorization,0,kitchen,SHINEd_sun_agorklincwxrdtga.tif,87,0.0666666666666667,0.0666666666666667,1.81666666666667,15267.386023459,15268.046566417,9,15267.45236275,15267.518384,15268.074831209,15269.884883,1,0.660542958001315
119,3,5,categorization,0,bathroom,SHINEd_sun_abapwbhyhkfixyex.tif,14,0.0666666666666667,0.0666666666666667,1.23333333333333,15269.902520334,15270.998044417,9,15269.968949084,15270.034920084,15271.022666625,15272.249361584,0,1.09552408299896
119,4,5,categorization,0,kitchen,SHINEd_sun_akchetnepxlcxhsu.tif,98,0.0666666666666667,0.0666666666666667,1.4,15272.259914292,15272.875838667,13,15272.325427334,15272.39233975,15272.899703375,15274.293058,0,0.61592437499894
119,5,5,categorization,0,kitchen,SHINEd_sun_aamedkxepzlwuxes.tif,65,0.0666666666666667,0.0666666666666667,1.03333333333333,15274.302999625,15275.039139875,9,15274.371035375,15274.435501625,15275.060001209,15276.086702084,1,0.736140249999153
119,6,5,categorization,0,bathroom,SHINEd_sun_aclfzgynxzxlbepz.tif,19,0.0666666666666667,0.0666666666666667,1.38333333333333,15276.099786334,15276.763021834,13,15276.166985417,15276.232528667,15276.768466459,15278.145178042,1,0.663235500000155
119,7,5,categorization,0,bathroom,SHINEd_sun_axldvoqbuvuggfmq.tif,57,0.0666666666666667,0.0666666666666667,2,15278.161741834,15278.899321667,13,15278.228426334,15278.288513375,15278.92825375,15280.921620875,1,0.737579833001291
119,8,5,categorization,0,bathroom,SHINEd_sun_avhrdrntsqrjzccq.tif,55,0.0666666666666667,0.0666666666666667,1.85,15280.938650875,15281.82603475,13,15281.004615167,15281.071912542,15281.843257667,15283.686643125,1,0.887383875000523
119,9,5,categorization,0,kitchen,SHINEd_sun_aqeaevwwwjoqhzvl.tif,101,0.0666666666666667,0.0666666666666667,0.816666666666667,15283.70352075,15284.708539792,9,15283.771699417,15283.835826292,15284.724492959,15285.534496375,1,1.00501904200064
119,10,5,categorization,0,bathroom,SHINEd_sun_agyqfjcfkdcydepw.tif,25,0.0666666666666667,0.0666666666666667,1.85,15285.539653167,15287.442952167,9,15285.601326,15285.662308625,15287.44830075,15289.29168625,0,1.90329900000143
119,11,5,categorization,0,kitchen,SHINEd_sun_acgtpgfybqjmzeyw.tif,75,0.0666666666666667,0.0666666666666667,0.733333333333333,15289.310113917,15290.267791875,9,15289.376711792,15289.442292209,15290.280374417,15291.007045625,1,0.957677958000204
119,12,5,categorization,0,kitchen,SHINEd_sun_aadbddgrdsjugojn.tif,64,0.0666666666666667,0.0666666666666667,0.716666666666667,15291.011965959,15291.866202959,9,15291.073701292,15291.134618625,15291.869827834,15292.579832917,1,0.854236999999557
119,13,5,categorization,0,kitchen,SHINEd_sun_aeqdocilnnpuvuhx.tif,83,0.0666666666666667,0.0666666666666667,0.833333333333333,15292.584895459,15293.3305335,9,15292.646738292,15292.707566875,15293.342735459,15294.169405,1,0.745638041000348
119,14,5,categorization,0,kitchen,SHINEd_sun_aegoxogugdkwpmpj.tif,80,0.0666666666666667,0.0666666666666667,0.95,15294.174583167,15294.882205,9,15294.236399209,15294.297328459,15294.899446417,15295.842784209,1,0.707621833000303
119,15,5,categorization,0,bathroom,SHINEd_sun_acduarbnmmoglmiv.tif,16,0.0666666666666667,0.0666666666666667,1.96666666666667,15295.848055042,15297.098820334,13,15295.909652375,15295.970566709,15297.106461917,15299.066510125,1,1.25076529199941
119,16,5,categorization,0,bathroom,SHINEd_sun_axxbkopsgyouuebh.tif,58,0.0666666666666667,0.0666666666666667,1.86666666666667,15299.084484625,15299.775942292,13,15299.152242917,15299.21408,15299.803370292,15301.663409042,1,0.691457667000577
119,17,5,categorization,0,bathroom,SHINEd_sun_ahijqszoswveeyji.tif,28,0.0666666666666667,0.0666666666666667,1.51666666666667,15301.680906917,15302.727157542,13,15301.748850959,15301.813546959,15302.753230209,15304.263271,1,1.04625062500054
119,18,5,categorization,0,bathroom,SHINEd_sun_aggnnqpdorgxpvce.tif,21,0.0666666666666667,0.0666666666666667,1.3,15304.272698167,15306.586358042,13,15304.340685542,15304.40538475,15306.591048459,15307.884415375,1,2.31365987499885
119,19,5,categorization,0,kitchen,SHINEd_sun_abdxkyyxwfskuaqb.tif,70,0.0666666666666667,0.0666666666666667,1.91666666666667,15307.900411459,15308.627460084,9,15307.96837575,15308.032802375,15308.6555205,15310.565568209,1,0.727048624999952
119,20,5,categorization,0,kitchen,SHINEd_labelme_kxvouciolcpqplr.tif,62,0.0666666666666667,0.0666666666666667,1.23333333333333,15310.583204417,15311.555346084,13,15310.651043167,15310.715529292,15311.571324542,15312.798044959,0,0.97214166699996
119,21,5,categorization,0,kitchen,SHINEd_sun_aarfiyshqohlwkmo.tif,67,0.0666666666666667,0.0666666666666667,0.866666666666667,15312.814827459,15313.574616167,9,15312.882544084,15312.947629125,15313.603990917,15314.464024375,1,0.759788707999178
119,22,5,categorization,0,kitchen,SHINEd_sun_acwjdupvyjsugpay.tif,76,0.0666666666666667,0.0666666666666667,0.8,15314.479811459,15316.082844125,9,15314.546602375,15314.604900459,15316.090793959,15316.884132209,1,1.60303266600022
119,23,5,categorization,0,bathroom,SHINEd_sun_afcoljnjfoxjtgja.tif,20,0.0666666666666667,0.0666666666666667,1.51666666666667,15316.888933959,15318.258645417,9,15316.950608334,15317.011672709,15318.263811542,15319.773857084,0,1.36971145799907
119,24,5,categorization,0,kitchen,SHINEd_sun_ahdycvpopffkzzsu.tif,90,0.0666666666666667,0.0666666666666667,1.18333333333333,15319.791344334,15320.774031334,13,15319.859113875,15319.923907834,15320.797057542,15321.973767375,0,0.982686999999714
119,25,5,categorization,0,bathroom,SHINEd_sun_akiytfaagpdsphgz.tif,31,0.0666666666666667,0.0666666666666667,1.6,15321.982801792,15322.7888355,13,15322.050646,15322.115090459,15322.804168,15324.397555709,1,0.806033707998722
119,26,5,categorization,0,kitchen,SHINEd_sun_ajkqhtgcbgpcwrwn.tif,97,0.0666666666666667,0.0666666666666667,1.56666666666667,15324.414702667,15325.461925834,13,15324.481864209,15324.546736709,15325.486625542,15327.046660459,0,1.04722316700099
119,27,5,categorization,0,kitchen,SHINEd_sun_ahywdevtimnqcsln.tif,94,0.0666666666666667,0.0666666666666667,1.36666666666667,15327.061581542,15328.222832375,9,15327.128136584,15327.1939725,15328.248686292,15329.608722084,1,1.16125083299994
119,28,5,categorization,0,bathroom,SHINEd_sun_azqyogdvyhahyram.tif,60,0.0666666666666667,0.0666666666666667,1.53333333333333,15329.626719209,15330.860360792,13,15329.693502667,15329.759280709,15330.8841275,15332.41083725,1,1.23364158299955
119,29,5,categorization,0,kitchen,SHINEd_sun_afuyedyxivkhecmu.tif,85,0.0666666666666667,0.0666666666666667,1.4,15332.429496875,15333.317477917,9,15332.4961615,15332.561578834,15333.334719334,15334.7280875,1,0.88798104200032
119,30,5,categorization,0,bathroom,SHINEd_sun_awnqiikzaispgmwo.tif,56,0.0666666666666667,0.0666666666666667,1.06666666666667,15334.745062209,15335.655226875,13,15334.811692875,15334.877578209,15335.68427625,15336.744320625,1,0.910164666000128
119,31,5,categorization,0,kitchen,SHINEd_sun_awcpdzzznmweyyhv.tif,106,0.0666666666666667,0.0666666666666667,1.63333333333333,15336.754651959,15337.4757005,9,15336.81963325,15336.885801709,15337.491856875,15339.118570875,1,0.721048540999618
119,32,5,categorization,0,bathroom,SHINEd_sun_amzlamotzwfkwjco.tif,37,0.0666666666666667,0.0666666666666667,1.8,15339.137210834,15340.575472667,13,15339.203821209,15339.269619,15340.592946542,15342.386329959,1,1.43826183300007
119,33,5,categorization,0,bathroom,SHINEd_sun_acgyywnybuveqsro.tif,18,0.0666666666666667,0.0666666666666667,1.53333333333333,15342.403787792,15343.409888459,13,15342.470368459,15342.535943667,15343.425586667,15344.952302292,1,1.00610066700028
119,34,5,categorization,0,kitchen,SHINEd_sun_ahspylgoovwmwvgk.tif,93,0.0666666666666667,0.0666666666666667,0.766666666666667,15344.970551334,15345.826410292,9,15345.037421709,15345.102494292,15345.841896209,15346.601904375,1,0.855858958000681
119,35,5,categorization,0,kitchen,SHINEd_labelme_brsyyvweiuaazfr.tif,61,0.0666666666666667,0.0666666666666667,1.86666666666667,15346.608081542,15347.738557084,9,15346.669798709,15346.73073025,15347.749525042,15349.609563,1,1.13047554200057
119,36,5,categorization,0,kitchen,SHINEd_sun_agzzivivdpnawacl.tif,89,0.0666666666666667,0.0666666666666667,1.13333333333333,15349.627761625,15350.811658167,9,15349.694310917,15349.759947375,15350.830372584,15351.957078834,1,1.18389654199927
119,37,5,categorization,0,bathroom,SHINEd_sun_ambriybtogmepttm.tif,36,0.0666666666666667,0.0666666666666667,1.73333333333333,15351.9658625,15352.876528667,13,15352.030619084,15352.09813025,15352.885624667,15354.612330667,1,0.910666167001182
119,38,5,categorization,0,bathroom,SHINEd_sun_apkruvsevgegsdwp.tif,44,0.0666666666666667,0.0666666666666667,0.766666666666667,15354.630751584,15355.741862667,9,15354.69766825,15354.763551042,15355.7704355,15356.530440084,0,1.11111108300065
119,39,5,categorization,0,bathroom,SHINEd_sun_ausgutylgojavyoq.tif,53,0.0666666666666667,0.0666666666666667,1.85,15356.535580917,15357.24217025,13,15356.59729075,15356.6581955,15357.259850375,15359.103240334,1,0.706589333000011
119,40,5,categorization,0,bathroom,SHINEd_sun_anhioqovhscjqqwb.tif,38,0.0666666666666667,0.0666666666666667,0.966666666666667,15359.119887792,15359.919375084,13,15359.187730334,15359.252070292,15359.941632334,15360.901637917,1,0.799487292000777
119,41,5,categorization,0,kitchen,SHINEd_sun_aehawpgmrlhlvcow.tif,81,0.0666666666666667,0.0666666666666667,1.06666666666667,15360.908461334,15362.5617045,13,15360.970238542,15361.03114825,15362.566732917,15363.626768209,0,1.65324316599981
119,42,5,categorization,0,bathroom,SHINEd_labelme_sfxiulhjbhlyiyt.tif,11,0.0666666666666667,0.0666666666666667,1.38333333333333,15363.634896,15364.349495167,13,15363.699237584,15363.765861,15364.372268417,15365.748972125,1,0.714599167000415
119,43,5,categorization,0,bathroom,SHINEd_sun_apmqjbnwghzuhhzh.tif,46,0.0666666666666667,0.0666666666666667,0.766666666666667,15365.759269334,15366.729549917,13,15365.825324584,15365.89133,15366.747502,15367.507548959,1,0.970280583000203
119,44,5,categorization,0,kitchen,SHINEd_sun_ajcbwwvdlsvjyzje.tif,96,0.0666666666666667,0.0666666666666667,0.866666666666667,15367.523088459,15369.506111084,9,15367.58950375,15367.65527875,15369.524707292,15370.38471225,1,1.98302262499965
119,45,5,categorization,0,bathroom,SHINEd_sun_ahqjwnzgolcaoidx.tif,29,0.0666666666666667,0.0666666666666667,1.25,15370.39166675,15371.297663125,9,15370.453374709,15370.514258292,15371.316745334,15372.560120209,0,0.905996375000541
119,46,5,categorization,0,kitchen,SHINEd_sun_abftihopvusyfakt.tif,71,0.0666666666666667,0.0666666666666667,1.03333333333333,15372.57726425,15373.347658917,9,15372.64360575,15372.709812959,15373.365870417,15374.392596875,1,0.770394667000801
119,47,5,categorization,0,bathroom,SHINEd_sun_agrwbmhcpmfuwmsg.tif,24,0.0666666666666667,0.0666666666666667,0.783333333333333,15374.401423792,15375.685467042,13,15374.468006125,15374.533243959,15375.707617125,15376.484331625,1,1.28404324999974
119,48,5,categorization,0,bathroom,SHINEd_sun_ajlawzvmubibwbpy.tif,30,0.0666666666666667,0.0666666666666667,0.7,15376.493482042,15378.714581334,13,15376.555812042,15376.616159,15378.718314792,15379.411652917,1,2.22109929199905
119,49,5,categorization,0,bathroom,SHINEd_sun_alotolagknyrgtsk.tif,35,0.0666666666666667,0.0666666666666667,1.75,15379.416409667,15380.762298417,9,15379.478166625,15379.53911725,15380.774465875,15382.517834625,0,1.34588875000009
119,50,5,categorization,0,bathroom,SHINEd_sun_aoybiabnpadelefl.tif,41,0.0666666666666667,0.0666666666666667,1.36666666666667,15382.5271245,15383.537328917,9,15382.59132225,15382.659342042,15383.565976875,15384.926008292,0,1.01020441699984
119,1,6,categorization,0,bathroom,SHINEd_sun_atstyziqcmkahyxk.tif,51,0.0666666666666667,0.0666666666666667,0.966666666666667,15394.118413542,15395.041844917,13,15394.180548292,15394.241764,15395.060367542,15396.020373209,1,0.923431374998472
119,2,6,categorization,0,bathroom,SHINEd_sun_asfwthctfqerjvxr.tif,49,0.0666666666666667,0.0666666666666667,1.73333333333333,15396.025296417,15396.8819205,13,15396.086929042,15396.1479365,15396.899901667,15398.626617167,1,0.856624083000497
119,3,6,categorization,0,kitchen,SHINEd_sun_abdenxonkemggwsq.tif,69,0.0666666666666667,0.0666666666666667,1.91666666666667,15398.645382084,15399.669922084,13,15398.712244084,15398.777875709,15399.683422417,15401.593490167,0,1.02454000000034
119,4,6,categorization,0,bathroom,SHINEd_sun_ahaulkltgpkeeemi.tif,26,0.0666666666666667,0.0666666666666667,0.766666666666667,15401.610841875,15402.357149584,9,15401.6775295,15401.743446042,15402.383903542,15403.143909375,0,0.746307709001485
119,5,6,categorization,0,kitchen,SHINEd_sun_ahpczsiumwwocjkv.tif,92,0.0666666666666667,0.0666666666666667,0.916666666666667,15403.148967959,15404.074268875,9,15403.21068875,15403.271712334,15404.090704375,15405.000707834,1,0.925300916000197
119,6,6,categorization,0,kitchen,SHINEd_sun_acxkpeoqbwcxfvip.tif,77,0.0666666666666667,0.0666666666666667,1.18333333333333,15405.007940667,15406.082478375,13,15405.069610667,15405.130532417,15406.0993725,15407.276083625,0,1.07453770800021
119,7,6,categorization,0,bathroom,SHINEd_sun_aspsyogrekjtfozg.tif,50,0.0666666666666667,0.0666666666666667,1.8,15407.285659584,15408.166463625,13,15407.352275375,15407.418974459,15408.192299792,15409.985671667,1,0.880804041000374
119,8,6,categorization,0,kitchen,SHINEd_sun_abpwyqmlzafvklqo.tif,72,0.0666666666666667,0.0666666666666667,0.883333333333333,15410.002353625,15410.629650417,9,15410.068914667,15410.134913792,15410.657957084,15411.534629084,1,0.627296792001289
119,9,6,categorization,0,kitchen,SHINEd_sun_avszsnwsbuqfgzbn.tif,105,0.0666666666666667,0.0666666666666667,1.83333333333333,15411.541384625,15412.20975025,9,15411.603295417,15411.664089834,15412.216244709,15414.042952959,1,0.668365625000661
119,10,6,categorization,0,kitchen,SHINEd_sun_ahljzhgcdpomplvg.tif,91,0.0666666666666667,0.0666666666666667,1.76666666666667,15414.0610945,15414.7818065,9,15414.127604,15414.193391709,15414.799375792,15416.559420292,1,0.720711999998457
119,11,6,categorization,0,kitchen,SHINEd_sun_aapllqyqlykszopd.tif,66,0.0666666666666667,0.0666666666666667,0.983333333333333,15416.577546125,15417.525474209,13,15416.644094834,15416.709788125,15417.550091417,15418.526763334,0,0.947928084000523
119,12,6,categorization,0,kitchen,SHINEd_sun_aixorpehvfykdynp.tif,95,0.0666666666666667,0.0666666666666667,0.883333333333333,15418.531727834,15419.24249125,9,15418.593682792,15418.654549959,15419.25656975,15420.133240375,1,0.710763415998372
119,13,6,categorization,0,kitchen,SHINEd_sun_aggjlwcdjsjcaemh.tif,86,0.0666666666666667,0.0666666666666667,0.85,15420.138125459,15421.058059709,13,15420.199739584,15420.26088075,15421.062952,15421.906288667,0,0.919934249999642
119,14,6,categorization,0,bathroom,SHINEd_sun_aunuadmjocsddsrl.tif,52,0.0666666666666667,0.0666666666666667,0.733333333333333,15421.911300417,15423.050081459,9,15421.972972042,15422.033867125,15423.0693275,15423.795999417,0,1.13878104200012
119,15,6,categorization,0,bathroom,SHINEd_sun_aleqenyvunhactkl.tif,32,0.0666666666666667,0.0666666666666667,1.88333333333333,15423.800811375,15425.786305667,13,15423.862525792,15423.923406667,15425.792958375,15427.669668667,1,1.9854942919992
119,16,6,categorization,0,kitchen,SHINEd_sun_acfmftudsenhrfhy.tif,74,0.0666666666666667,0.0666666666666667,0.816666666666667,15427.686922209,15428.61576025,9,15427.753502042,15427.819169667,15428.642293,15429.452296792,1,0.928838040999835
119,17,6,categorization,0,kitchen,SHINEd_sun_akcjzhbbjlbogpdi.tif,99,0.0666666666666667,0.0666666666666667,1.9,15429.45770225,15430.338455584,9,15429.5195625,15429.580260084,15430.348688584,15432.242059584,1,0.880753334000474
119,18,6,categorization,0,bathroom,SHINEd_sun_acegryoqftbzowsg.tif,17,0.0666666666666667,0.0666666666666667,0.983333333333333,15432.250728084,15432.995063875,13,15432.315452334,15432.384075584,15433.023623042,15434.000293959,1,0.744335790999685
119,19,6,categorization,0,bathroom,SHINEd_sun_agguqiubmwhqqunb.tif,22,0.0666666666666667,0.0666666666666667,0.75,15434.005226667,15434.873716584,13,15434.066931792,15434.127799334,15434.879887625,15435.623225292,1,0.868489916998442
119,20,6,categorization,0,kitchen,SHINEd_sun_aaxxjlsuzvqlgylf.tif,68,0.0666666666666667,0.0666666666666667,1.6,15435.6280115,15436.385677584,9,15435.689660125,15435.750602,15436.402296,15437.995672875,1,0.757666083998629
119,21,6,categorization,0,kitchen,SHINEd_sun_aymvwlarqodbwuoc.tif,108,0.0666666666666667,0.0666666666666667,1.58333333333333,15438.012843667,15438.786515917,9,15438.078969584,15438.144936292,15438.800238917,15440.376950334,1,0.773672249999436
119,22,6,categorization,0,bathroom,SHINEd_sun_aljolscmmzydegqp.tif,33,0.0666666666666667,0.0666666666666667,1.11666666666667,15440.395075209,15441.270714042,13,15440.461400417,15440.527431084,15441.300359,15442.410412084,1,0.875638833000266
119,23,6,categorization,0,bathroom,SHINEd_sun_aapitsgbtktqubfy.tif,12,0.0666666666666667,0.0666666666666667,1.53333333333333,15442.41943075,15443.139575292,13,15442.484352334,15442.550081417,15443.155459125,15444.682168875,1,0.720144541999616
119,24,6,categorization,0,bathroom,SHINEd_sun_apjevzvycyhuqghb.tif,43,0.0666666666666667,0.0666666666666667,1.48333333333333,15444.697581042,15446.657575667,9,15444.764055459,15444.829799834,15446.66594975,15448.142660334,0,1.95999462500004
119,25,6,categorization,0,bathroom,SHINEd_sun_aghyqhbptboemmoq.tif,23,0.0666666666666667,0.0666666666666667,1.1,15448.159363542,15449.722029625,13,15448.225986084,15448.286068125,15449.745469834,15450.838849959,1,1.56266608300029
119,26,6,categorization,0,kitchen,SHINEd_sun_amjjdeyrggfqgmom.tif,100,0.0666666666666667,0.0666666666666667,0.933333333333333,15450.849229375,15451.884317875,9,15450.914172542,15450.981460542,15451.9038865,15452.830560459,1,1.03508849999889
119,27,6,categorization,0,kitchen,SHINEd_sun_auticobqsbwgoppi.tif,104,0.0666666666666667,0.0666666666666667,0.816666666666667,15452.836493542,15455.657645125,13,15452.898241667,15452.959152292,15455.66164725,15456.471651042,0,2.82115158300076
119,28,6,categorization,0,kitchen,SHINEd_sun_admlmbcdswaszruo.tif,79,0.0666666666666667,0.0666666666666667,1.78333333333333,15456.476539625,15457.242274917,9,15456.538217959,15456.599187625,15457.251114625,15459.027822667,1,0.76573529199959
119,29,6,categorization,0,kitchen,SHINEd_sun_agubuxuukhzyzpdp.tif,88,0.0666666666666667,0.0666666666666667,0.766666666666667,15459.0456345,15459.951456792,9,15459.112270667,15459.177847584,15459.966474,15460.726478292,1,0.905822291999357
119,30,6,categorization,0,kitchen,SHINEd_sun_aenotlpyftoioydp.tif,82,0.0666666666666667,0.0666666666666667,1.45,15460.73155625,15461.505917334,9,15460.793164209,15460.854158292,15461.523046167,15462.966434042,1,0.774361083998883
119,31,6,categorization,0,kitchen,SHINEd_labelme_rykdqxenmhulbdn.tif,63,0.0666666666666667,0.0666666666666667,0.75,15462.983260709,15463.841261375,9,15463.049561542,15463.115580084,15463.8543405,15464.597731292,1,0.858000666001317
119,32,6,categorization,0,kitchen,SHINEd_sun_aunzlwrbjumxhwdj.tif,103,0.0666666666666667,0.0666666666666667,1.36666666666667,15464.612951292,15465.61758125,13,15464.675381042,15464.735571042,15465.621153875,15466.981187167,0,1.00462995800081
119,33,6,categorization,0,bathroom,SHINEd_sun_axyrejkiiaqiurjk.tif,59,0.0666666666666667,0.0666666666666667,0.75,15466.997417959,15467.972349334,9,15467.064168667,15467.130951709,15467.986882417,15468.730221917,0,0.974931374999869
119,34,6,categorization,0,kitchen,SHINEd_sun_axyyrmzcupyhlivc.tif,107,0.0666666666666667,0.0666666666666667,0.783333333333333,15468.735953209,15469.5062705,13,15468.797673917,15468.858575959,15469.510348,15470.2870175,0,0.770317291000538
119,35,6,categorization,0,bathroom,SHINEd_sun_ahcvzmoyaycdoftf.tif,27,0.0666666666666667,0.0666666666666667,1.11666666666667,15470.291907084,15471.1301255,13,15470.353650459,15470.414540875,15471.149813084,15472.259855375,1,0.838218416000018
119,36,6,categorization,0,bathroom,SHINEd_sun_alkosphxlxwjwgjd.tif,34,0.0666666666666667,0.0666666666666667,0.766666666666667,15472.270057459,15472.996034292,13,15472.335239125,15472.399181959,15473.022194834,15473.78223875,1,0.725976833000459
119,37,6,categorization,0,bathroom,SHINEd_sun_abjtwfukuwddzted.tif,15,0.0666666666666667,0.0666666666666667,0.716666666666667,15473.797814875,15474.697713584,13,15473.864057584,15473.929974709,15474.715177875,15475.425183,1,0.899898708999899
119,38,6,categorization,0,bathroom,SHINEd_sun_apeeialkgkuxddgh.tif,42,0.0666666666666667,0.0666666666666667,1.33333333333333,15475.430083375,15476.353376334,13,15475.491887667,15475.552702042,15476.371194042,15477.697902334,1,0.923292958999809
119,39,6,categorization,0,kitchen,SHINEd_sun_auaiucuqpdausiva.tif,102,0.0666666666666667,0.0666666666666667,1.75,15477.71440225,15478.322581042,9,15477.782429542,15477.846551167,15478.334375042,15480.077757792,1,0.608178792001127
119,40,6,categorization,0,bathroom,SHINEd_sun_anryaplzeujmzfkd.tif,39,0.0666666666666667,0.0666666666666667,1.13333333333333,15480.09542375,15480.731827292,9,15480.161705917,15480.227842834,15480.75065375,15481.877372959,0,0.636403542001062
119,41,6,categorization,0,bathroom,SHINEd_sun_apkxzenqapsujocq.tif,45,0.0666666666666667,0.0666666666666667,1.63333333333333,15481.886694542,15483.694497792,13,15481.951909834,15482.020365459,15483.711748584,15485.33846575,1,1.80780324999978
119,42,6,categorization,0,kitchen,SHINEd_sun_aexklacwqwezaorf.tif,84,0.0666666666666667,0.0666666666666667,1.43333333333333,15485.355234417,15487.041771084,9,15485.422590334,15485.48816725,15487.057238917,15488.48396,1,1.68653666699902
119,43,6,categorization,0,kitchen,SHINEd_sun_aypmqwcualkenuoe.tif,109,0.0666666666666667,0.0666666666666667,1.83333333333333,15488.501013375,15489.317361667,9,15488.568630042,15488.633328167,15489.338915917,15491.165614209,1,0.81634829199902
119,44,6,categorization,0,bathroom,SHINEd_sun_aqrpegblszgcoujh.tif,48,0.0666666666666667,0.0666666666666667,1.93333333333333,15491.184786584,15491.939511917,13,15491.251466417,15491.317136959,15491.955768625,15493.882479042,1,0.754725332999442
119,45,6,categorization,0,bathroom,SHINEd_sun_aavhrsfjbserjtht.tif,13,0.0666666666666667,0.0666666666666667,1.26666666666667,15493.899497,15494.911162834,9,15493.96604275,15494.031795084,15494.938598625,15496.198635792,0,1.01166583399936
119,46,6,categorization,0,bathroom,SHINEd_sun_apynckhmoftszqoq.tif,47,0.0666666666666667,0.0666666666666667,1.86666666666667,15496.212937125,15496.828312375,13,15496.277959792,15496.344935042,15496.851573,15498.711631,1,0.615375250001307
119,47,6,categorization,0,kitchen,SHINEd_sun_abrcnpqqhmjwekyf.tif,73,0.0666666666666667,0.0666666666666667,1.41666666666667,15498.728939042,15499.45272425,9,15498.795358959,15498.861094125,15499.466644542,15500.876682292,1,0.723785208001573
119,48,6,categorization,0,kitchen,SHINEd_sun_adgqasybjyktddhj.tif,78,0.0666666666666667,0.0666666666666667,1.11666666666667,15500.89456475,15502.059136542,9,15500.961078084,15501.02708275,15502.0837515,15503.193790084,1,1.16457179200006
119,49,6,categorization,0,kitchen,SHINEd_sun_azmutvzbxypaceni.tif,110,0.0666666666666667,0.0666666666666667,1.8,15503.2039085,15505.409953625,9,15503.268588375,15503.336217584,15505.421866292,15507.21523525,1,2.20604512499995
119,50,6,categorization,0,bathroom,SHINEd_sun_aofnryafpsjimzsb.tif,40,0.0666666666666667,0.0666666666666667,1.25,15507.232664834,15507.942675709,13,15507.300393542,15507.364845667,15507.971207417,15509.214587875,1,0.71001087500008
119,1,7,categorization,0,bathroom,SHINEd_sun_aqrpegblszgcoujh.tif,48,0.0666666666666667,0.0666666666666667,0.883333333333333,15517.437977667,15518.513500334,13,15517.500354375,15517.5608965,15518.529419334,15519.406090042,1,1.07552266700077
119,2,7,categorization,0,bathroom,SHINEd_labelme_sfxiulhjbhlyiyt.tif,11,0.0666666666666667,0.0666666666666667,1.03333333333333,15519.410910334,15520.161815834,13,15519.472649417,15519.533587834,15520.169162084,15521.195879042,1,0.750905500000954
119,3,7,categorization,0,kitchen,SHINEd_sun_agorklincwxrdtga.tif,87,0.0666666666666667,0.0666666666666667,1.06666666666667,15521.204946209,15521.739862417,9,15521.269540417,15521.335512459,15521.758434917,15522.818481709,1,0.534916208000141
119,4,7,categorization,0,bathroom,SHINEd_sun_atstyziqcmkahyxk.tif,51,0.0666666666666667,0.0666666666666667,0.833333333333333,15522.834456042,15523.641978834,13,15522.901096209,15522.966795042,15523.652191,15524.478861709,1,0.807522792001691
119,5,7,categorization,0,bathroom,SHINEd_sun_alotolagknyrgtsk.tif,35,0.0666666666666667,0.0666666666666667,0.716666666666667,15524.48372525,15525.321539042,13,15524.54537225,15524.606320375,15525.324996125,15526.035000125,1,0.837813791998997
119,6,7,categorization,0,kitchen,SHINEd_sun_ajkqhtgcbgpcwrwn.tif,97,0.0666666666666667,0.0666666666666667,0.733333333333333,15526.040889375,15526.849579917,13,15526.102596334,15526.163621542,15526.865751959,15527.5924215,0,0.808690542000477
119,7,7,categorization,0,kitchen,SHINEd_sun_aggjlwcdjsjcaemh.tif,86,0.0666666666666667,0.0666666666666667,1.38333333333333,15527.597202709,15528.233079709,9,15527.658845084,15527.719819667,15528.238662792,15529.615378167,1,0.635877000000619
119,8,7,categorization,0,bathroom,SHINEd_sun_acegryoqftbzowsg.tif,17,0.0666666666666667,0.0666666666666667,0.9,15529.63161525,15530.533284959,9,15529.698426417,15529.764286875,15530.553841875,15531.44718225,0,0.901669708999179
119,9,7,categorization,0,bathroom,SHINEd_sun_aoybiabnpadelefl.tif,41,0.0666666666666667,0.0666666666666667,0.816666666666667,15531.452542125,15532.47305425,9,15531.514229167,15531.575162375,15532.476875709,15533.286880167,0,1.0205121250001
119,10,7,categorization,0,bathroom,SHINEd_sun_ahijqszoswveeyji.tif,28,0.0666666666666667,0.0666666666666667,0.85,15533.291936334,15534.441256917,9,15533.353576167,15533.414564042,15534.449806292,15535.293142959,0,1.14932058299928
119,11,7,categorization,0,kitchen,SHINEd_sun_ahpczsiumwwocjkv.tif,92,0.0666666666666667,0.0666666666666667,1.6,15535.298017959,15536.129381667,13,15535.359676792,15535.420620917,15536.139330667,15537.73269975,0,0.831363708000936
119,12,7,categorization,0,bathroom,SHINEd_sun_asfwthctfqerjvxr.tif,49,0.0666666666666667,0.0666666666666667,1.75,15537.74759825,15538.580231167,13,15537.811675042,15537.879197084,15538.602684625,15540.346058125,1,0.832632916999501
119,13,7,categorization,0,kitchen,SHINEd_sun_aypmqwcualkenuoe.tif,109,0.0666666666666667,0.0666666666666667,1.1,15540.361297,15541.10224275,9,15540.428517042,15540.493791084,15541.116411209,15542.209783875,1,0.74094574999981
119,14,7,categorization,0,kitchen,SHINEd_sun_adgqasybjyktddhj.tif,78,0.0666666666666667,0.0666666666666667,1.46666666666667,15542.218752209,15543.642606917,9,15542.283199209,15542.350163125,15543.65696925,15545.117032709,1,1.42385470799854
119,15,7,categorization,0,bathroom,SHINEd_sun_aapitsgbtktqubfy.tif,12,0.0666666666666667,0.0666666666666667,1.25,15545.134305334,15545.875048667,13,15545.202025834,15545.266768209,15545.889650375,15547.133033334,1,0.740743332999045
119,16,7,categorization,0,kitchen,SHINEd_sun_abpwyqmlzafvklqo.tif,72,0.0666666666666667,0.0666666666666667,1.13333333333333,15547.156851417,15547.91728975,9,15547.223695334,15547.289631542,15547.928644792,15549.055364917,1,0.760438332999911
119,17,7,categorization,0,kitchen,SHINEd_sun_aapllqyqlykszopd.tif,66,0.0666666666666667,0.0666666666666667,1.33333333333333,15549.064960584,15551.321738875,13,15549.131511917,15549.197309334,15551.333801125,15552.660517917,0,2.25677829099914
119,18,7,categorization,0,kitchen,SHINEd_sun_avszsnwsbuqfgzbn.tif,105,0.0666666666666667,0.0666666666666667,1.86666666666667,15552.677334834,15553.501833459,9,15552.743826,15552.809620792,15553.5148755,15555.374926542,1,0.82449862500107
119,19,7,categorization,0,kitchen,SHINEd_sun_ajcbwwvdlsvjyzje.tif,96,0.0666666666666667,0.0666666666666667,1.58333333333333,15555.39446425,15556.225605125,13,15555.460969334,15555.526956125,15556.248135959,15557.824837792,0,0.831140875001438
119,20,7,categorization,0,bathroom,SHINEd_sun_apynckhmoftszqoq.tif,47,0.0666666666666667,0.0666666666666667,1.05,15557.843086209,15558.627206209,13,15557.909619,15557.975341042,15558.648746375,15559.692118542,1,0.784119999998438
119,21,7,categorization,0,bathroom,SHINEd_sun_alkosphxlxwjwgjd.tif,34,0.0666666666666667,0.0666666666666667,0.9,15559.700738417,15560.766924,13,15559.764914084,15559.831908667,15560.78853275,15561.681915,1,1.06618558300033
119,22,7,categorization,0,bathroom,SHINEd_sun_awnqiikzaispgmwo.tif,56,0.0666666666666667,0.0666666666666667,0.7,15561.698465125,15562.441224292,13,15561.761240542,15561.821278334,15562.456441167,15563.149778292,1,0.742759167000258
119,23,7,categorization,0,kitchen,SHINEd_sun_auticobqsbwgoppi.tif,104,0.0666666666666667,0.0666666666666667,0.933333333333333,15563.154403834,15564.353269375,9,15563.216108292,15563.277039209,15564.362507667,15565.2891775,1,1.19886554100049
119,24,7,categorization,0,bathroom,SHINEd_sun_axxbkopsgyouuebh.tif,58,0.0666666666666667,0.0666666666666667,1.95,15565.29395325,15566.441031625,9,15565.355663792,15565.416421792,15566.451542917,15568.394932667,0,1.14707837499918
119,25,7,categorization,0,bathroom,SHINEd_sun_abapwbhyhkfixyex.tif,14,0.0666666666666667,0.0666666666666667,1.06666666666667,15568.41176475,15569.49301125,9,15568.47774125,15568.544321084,15569.51727175,15570.577317,0,1.08124649999991
119,26,7,categorization,0,kitchen,SHINEd_sun_aadbddgrdsjugojn.tif,64,0.0666666666666667,0.0666666666666667,1.2,15570.58808625,15571.36915425,9,15570.652568459,15570.719136334,15571.392106709,15572.585477917,1,0.781068000000232
119,27,7,categorization,0,kitchen,SHINEd_sun_aymvwlarqodbwuoc.tif,108,0.0666666666666667,0.0666666666666667,0.75,15572.595298667,15573.755670959,9,15572.660663709,15572.72743325,15573.7836895,15574.527053417,1,1.16037229200083
119,28,7,categorization,0,kitchen,SHINEd_sun_akchetnepxlcxhsu.tif,98,0.0666666666666667,0.0666666666666667,0.816666666666667,15574.536957792,15575.305147334,13,15574.603417292,15574.667778584,15575.319892125,15576.129897459,0,0.768189542000982
119,29,7,categorization,0,kitchen,SHINEd_sun_aqeaevwwwjoqhzvl.tif,101,0.0666666666666667,0.0666666666666667,1.96666666666667,15576.134978042,15576.873045209,9,15576.196817625,15576.257700292,15576.876040834,15578.836097917,1,0.738067166999826
119,30,7,categorization,0,bathroom,SHINEd_sun_akiytfaagpdsphgz.tif,31,0.0666666666666667,0.0666666666666667,1.2,15578.853120584,15579.454556542,13,15578.920925875,15578.985051584,15579.474511625,15580.667893375,1,0.601435957998547
119,31,7,categorization,0,kitchen,SHINEd_sun_aarfiyshqohlwkmo.tif,67,0.0666666666666667,0.0666666666666667,0.883333333333333,15580.681239375,15581.378307542,9,15580.749194625,15580.813522125,15581.403283417,15582.279981042,1,0.697068166999088
119,32,7,categorization,0,bathroom,SHINEd_sun_anryaplzeujmzfkd.tif,39,0.0666666666666667,0.0666666666666667,1.33333333333333,15582.290005,15583.96143225,9,15582.355132125,15582.422724709,15583.975245292,15585.301964417,0,1.6714272499994
119,33,7,categorization,0,kitchen,SHINEd_sun_ahywdevtimnqcsln.tif,94,0.0666666666666667,0.0666666666666667,1.45,15585.3179705,15586.206933959,9,15585.384583542,15585.451400042,15586.223926209,15587.66731325,1,0.888963458999569
119,34,7,categorization,0,kitchen,SHINEd_sun_aexklacwqwezaorf.tif,84,0.0666666666666667,0.0666666666666667,1.15,15587.683796209,15588.408892917,13,15587.750263334,15587.816174334,15588.421770375,15589.565147125,0,0.72509670799991
119,35,7,categorization,0,kitchen,SHINEd_sun_awcpdzzznmweyyhv.tif,106,0.0666666666666667,0.0666666666666667,0.966666666666667,15589.575402542,15590.314229042,9,15589.640581334,15589.707436125,15590.328896625,15591.288944709,1,0.738826500000869
119,36,7,categorization,0,kitchen,SHINEd_sun_acfmftudsenhrfhy.tif,74,0.0666666666666667,0.0666666666666667,1.45,15591.305302,15592.504972875,13,15591.371600917,15591.437499167,15592.522787875,15593.966158084,0,1.19967087499936
119,37,7,categorization,0,kitchen,SHINEd_sun_ahspylgoovwmwvgk.tif,93,0.0666666666666667,0.0666666666666667,0.8,15593.97973775,15594.693347834,9,15594.046144584,15594.1120335,15594.718113125,15595.511485542,1,0.713610083999811
119,38,7,categorization,0,kitchen,SHINEd_sun_aegoxogugdkwpmpj.tif,80,0.0666666666666667,0.0666666666666667,1.45,15595.527114167,15596.281654584,9,15595.589722375,15595.64985925,15596.284692292,15597.728069375,1,0.754540416999589
119,39,7,categorization,0,kitchen,SHINEd_sun_abdenxonkemggwsq.tif,69,0.0666666666666667,0.0666666666666667,1.1,15597.745657292,15598.96625275,9,15597.811817167,15597.877850584,15598.983797167,15600.07716925,1,1.22059545800039
119,40,7,categorization,0,kitchen,SHINEd_sun_auaiucuqpdausiva.tif,102,0.0666666666666667,0.0666666666666667,1.16666666666667,15600.085464167,15600.800827334,9,15600.150505084,15600.2175665,15600.82407075,15601.984124209,1,0.71536316700076
119,41,7,categorization,0,bathroom,SHINEd_sun_apeeialkgkuxddgh.tif,42,0.0666666666666667,0.0666666666666667,1.31666666666667,15602.000202417,15602.59363175,13,15602.066507334,15602.126054459,15602.611211792,15603.921252709,1,0.593429332999222
119,42,7,categorization,0,kitchen,SHINEd_sun_aeqdocilnnpuvuhx.tif,83,0.0666666666666667,0.0666666666666667,1.68333333333333,15603.938847667,15604.806528334,9,15604.004746792,15604.070986709,15604.82728075,15606.503997292,1,0.867680667000968
119,43,7,categorization,0,kitchen,SHINEd_sun_abrcnpqqhmjwekyf.tif,73,0.0666666666666667,0.0666666666666667,0.966666666666667,15606.520640584,15608.153560542,9,15606.586701459,15606.652707959,15608.171934875,15609.131938459,1,1.63291995799955
119,44,7,categorization,0,bathroom,SHINEd_sun_ahaulkltgpkeeemi.tif,26,0.0666666666666667,0.0666666666666667,1.4,15609.13712975,15610.073273667,13,15609.198828209,15609.259747334,15610.078635209,15611.472025459,1,0.936143916998844
119,45,7,categorization,0,kitchen,SHINEd_sun_acxkpeoqbwcxfvip.tif,77,0.0666666666666667,0.0666666666666667,0.783333333333333,15611.493540375,15612.560867125,9,15611.559922084,15611.625550125,15612.581111959,15613.357783,1,1.06732674999876
119,46,7,categorization,0,bathroom,SHINEd_sun_apmqjbnwghzuhhzh.tif,46,0.0666666666666667,0.0666666666666667,1.08333333333333,15613.362720084,15614.073150667,13,15613.424432875,15613.485336834,15614.087522,15615.164224292,1,0.710430582999834
119,47,7,categorization,0,kitchen,SHINEd_sun_agubuxuukhzyzpdp.tif,88,0.0666666666666667,0.0666666666666667,1.43333333333333,15615.1740865,15616.04656375,9,15615.238676917,15615.306269959,15616.060857375,15617.487568167,1,0.872477250000884
119,48,7,categorization,0,kitchen,SHINEd_sun_amjjdeyrggfqgmom.tif,100,0.0666666666666667,0.0666666666666667,1.75,15617.504245959,15618.352628417,9,15617.570785042,15617.637600959,15618.377481709,15620.120860792,1,0.848382457999833
119,49,7,categorization,0,kitchen,SHINEd_labelme_rykdqxenmhulbdn.tif,63,0.0666666666666667,0.0666666666666667,1.21666666666667,15620.138165834,15620.948868334,13,15620.205452,15620.269038292,15620.975623042,15622.185663959,0,0.810702500000843
119,50,7,categorization,0,kitchen,SHINEd_labelme_kxvouciolcpqplr.tif,62,0.0666666666666667,0.0666666666666667,1.31666666666667,15622.202033709,15622.9245405,9,15622.266890625,15622.33220225,15622.937990834,15624.248005834,1,0.722506791000342
119,1,8,categorization,0,bathroom,SHINEd_sun_axldvoqbuvuggfmq.tif,57,0.0666666666666667,0.0666666666666667,1.18333333333333,15631.198999625,15631.896902542,13,15631.260816,15631.321679375,15631.906829,15633.083531834,1,0.697902916999737
119,2,8,categorization,0,bathroom,SHINEd_sun_aggnnqpdorgxpvce.tif,21,0.0666666666666667,0.0666666666666667,0.983333333333333,15633.093338167,15634.456962834,13,15633.160791417,15633.225751084,15634.485403209,15635.462075542,1,1.36362466699939
119,3,8,categorization,0,kitchen,SHINEd_sun_acgtpgfybqjmzeyw.tif,75,0.0666666666666667,0.0666666666666667,1.65,15635.467049459,15636.585255917,9,15635.528705959,15635.589751459,15636.591696209,15638.23508625,1,1.11820645800071
119,4,8,categorization,0,kitchen,SHINEd_sun_aaxxjlsuzvqlgylf.tif,68,0.0666666666666667,0.0666666666666667,1.23333333333333,15638.248140875,15639.141058042,9,15638.312944959,15638.380475209,15639.170255917,15640.396956667,1,0.892917166998814
119,5,8,categorization,0,kitchen,SHINEd_sun_admlmbcdswaszruo.tif,79,0.0666666666666667,0.0666666666666667,0.916666666666667,15640.407347709,15641.141479417,9,15640.473815542,15640.539561167,15641.162427417,15642.072478375,1,0.73413170799904
119,6,8,categorization,0,bathroom,SHINEd_sun_agrwbmhcpmfuwmsg.tif,24,0.0666666666666667,0.0666666666666667,1.56666666666667,15642.088495709,15643.281387375,9,15642.154659375,15642.220644125,15643.289939709,15644.849986667,0,1.19289166599992
119,7,8,categorization,0,bathroom,SHINEd_sun_agguqiubmwhqqunb.tif,22,0.0666666666666667,0.0666666666666667,1.63333333333333,15644.867112084,15645.649168334,13,15644.935186875,15644.99946825,15645.672352875,15647.299068375,1,0.782056249998277
119,8,8,categorization,0,bathroom,SHINEd_sun_azqyogdvyhahyram.tif,60,0.0666666666666667,0.0666666666666667,1.1,15647.314555167,15648.080937709,13,15647.38226125,15647.446706834,15648.102963834,15649.196329584,1,0.766382542000429
119,9,8,categorization,0,bathroom,SHINEd_sun_ahqjwnzgolcaoidx.tif,29,0.0666666666666667,0.0666666666666667,1.38333333333333,15649.204597,15649.932715417,9,15649.26942925,15649.334679792,15649.9578375,15651.334539667,0,0.728118417000587
119,10,8,categorization,0,kitchen,SHINEd_sun_ahdycvpopffkzzsu.tif,90,0.0666666666666667,0.0666666666666667,0.766666666666667,15651.351497084,15652.305950084,9,15651.419299375,15651.4837305,15652.321950292,15653.081984334,1,0.954453000000285
119,11,8,categorization,0,bathroom,SHINEd_sun_acduarbnmmoglmiv.tif,16,0.0666666666666667,0.0666666666666667,1.45,15653.097613125,15653.776585584,9,15653.163875334,15653.22995775,15653.78245825,15655.225842292,0,0.678972458999851
119,12,8,categorization,0,kitchen,SHINEd_sun_aehawpgmrlhlvcow.tif,81,0.0666666666666667,0.0666666666666667,0.983333333333333,15655.244094042,15656.323636709,9,15655.310649792,15655.376355625,15656.349004042,15657.325674834,1,1.07954266699926
119,13,8,categorization,0,kitchen,SHINEd_sun_abdxkyyxwfskuaqb.tif,70,0.0666666666666667,0.0666666666666667,0.716666666666667,15657.330594334,15658.024665417,9,15657.392255167,15657.453314292,15658.038691625,15658.748696375,1,0.694071083000381
119,14,8,categorization,0,kitchen,SHINEd_sun_aenotlpyftoioydp.tif,82,0.0666666666666667,0.0666666666666667,1.41666666666667,15658.753512,15659.401432709,9,15658.815253209,15658.876147917,15659.411371959,15660.821413834,1,0.647920709001482
119,15,8,categorization,0,bathroom,SHINEd_sun_ausgutylgojavyoq.tif,53,0.0666666666666667,0.0666666666666667,1.21666666666667,15660.839405334,15661.460755,13,15660.907306625,15660.971389542,15661.477074667,15662.68712375,1,0.621349666000242
119,16,8,categorization,0,kitchen,SHINEd_sun_azmutvzbxypaceni.tif,110,0.0666666666666667,0.0666666666666667,1.61666666666667,15662.703639167,15663.747694417,9,15662.771103667,15662.836196375,15663.775506584,15665.385546417,1,1.04405524999856
119,17,8,categorization,0,bathroom,SHINEd_sun_aunuadmjocsddsrl.tif,52,0.0666666666666667,0.0666666666666667,0.783333333333333,15665.402103084,15666.142361042,13,15665.470127959,15665.533968709,15666.155877917,15666.932552,1,0.740257958001166
119,18,8,categorization,0,bathroom,SHINEd_sun_avhrdrntsqrjzccq.tif,55,0.0666666666666667,0.0666666666666667,1.98333333333333,15666.940853834,15667.881107834,9,15667.002547875,15667.063478334,15667.898785125,15669.875507625,0,0.940254000001005
119,19,8,categorization,0,bathroom,SHINEd_sun_axyrejkiiaqiurjk.tif,59,0.0666666666666667,0.0666666666666667,0.983333333333333,15669.893136334,15670.993571417,9,15669.959529875,15670.02553225,15671.011373334,15671.988044084,0,1.10043508300078
119,20,8,categorization,0,bathroom,SHINEd_sun_ajlawzvmubibwbpy.tif,30,0.0666666666666667,0.0666666666666667,0.8,15671.992801209,15672.736875625,13,15672.054615209,15672.115350209,15672.750830667,15673.544167667,1,0.744074415999421
119,21,8,categorization,0,kitchen,SHINEd_sun_aixorpehvfykdynp.tif,95,0.0666666666666667,0.0666666666666667,0.733333333333333,15673.548976834,15674.257159667,13,15673.610596334,15673.671682292,15674.273394042,15675.000064834,0,0.708182833001047
119,22,8,categorization,0,kitchen,SHINEd_sun_akcjzhbbjlbogpdi.tif,99,0.0666666666666667,0.0666666666666667,0.966666666666667,15675.00658425,15675.768601042,9,15675.068241167,15675.129181667,15675.780975584,15676.740978667,1,0.762016791999486
119,23,8,categorization,0,kitchen,SHINEd_sun_agzzivivdpnawacl.tif,89,0.0666666666666667,0.0666666666666667,0.866666666666667,15676.745892792,15678.025195584,9,15676.807556,15676.868515542,15678.037438375,15678.897442417,1,1.27930279199973
119,24,8,categorization,0,bathroom,SHINEd_sun_agyqfjcfkdcydepw.tif,25,0.0666666666666667,0.0666666666666667,1.23333333333333,15678.902356125,15679.792517417,13,15678.964288292,15679.02501125,15679.81005625,15681.036769625,1,0.890161291999902
119,25,8,categorization,0,bathroom,SHINEd_sun_aavhrsfjbserjtht.tif,13,0.0666666666666667,0.0666666666666667,1.9,15681.05287475,15681.824195042,13,15681.121128042,15681.18516225,15681.840280084,15683.733667625,1,0.771320292000382
119,26,8,categorization,0,bathroom,SHINEd_sun_aleqenyvunhactkl.tif,32,0.0666666666666667,0.0666666666666667,0.866666666666667,15683.749495459,15684.445004375,13,15683.81532,15683.881549042,15684.471183167,15685.331186625,1,0.695508916000108
119,27,8,categorization,0,bathroom,SHINEd_sun_apkxzenqapsujocq.tif,45,0.0666666666666667,0.0666666666666667,0.966666666666667,15685.336391375,15685.945010959,13,15685.39810575,15685.459008834,15685.960767292,15686.92077075,1,0.608619583999825
119,28,8,categorization,0,bathroom,SHINEd_sun_ahcvzmoyaycdoftf.tif,27,0.0666666666666667,0.0666666666666667,0.916666666666667,15686.925470125,15687.560916459,13,15686.987107959,15687.048072584,15687.56656125,15688.476565292,1,0.635446334001244
119,29,8,categorization,0,kitchen,SHINEd_sun_ahljzhgcdpomplvg.tif,91,0.0666666666666667,0.0666666666666667,0.916666666666667,15688.481276584,15689.265216042,9,15688.542850084,15688.604115459,15689.272541625,15690.182547,1,0.783939458000532
119,30,8,categorization,0,bathroom,SHINEd_sun_acgyywnybuveqsro.tif,18,0.0666666666666667,0.0666666666666667,1.4,15690.187254084,15691.009343917,13,15690.248947167,15690.309882709,15691.028811584,15692.422190334,1,0.822089833000064
119,31,8,categorization,0,kitchen,SHINEd_sun_abftihopvusyfakt.tif,71,0.0666666666666667,0.0666666666666667,1.75,15692.438340542,15694.928578584,9,15692.504557042,15692.570924084,15694.939852,15696.68324325,1,2.49023804200078
119,32,8,categorization,0,bathroom,SHINEd_sun_aclfzgynxzxlbepz.tif,19,0.0666666666666667,0.0666666666666667,1.25,15696.699779875,15697.390138,13,15696.766037959,15696.832060542,15697.404297209,15698.647681209,1,0.690358125000785
119,33,8,categorization,0,bathroom,SHINEd_sun_ambriybtogmepttm.tif,36,0.0666666666666667,0.0666666666666667,1.05,15698.664124042,15699.435575584,9,15698.73083225,15698.796286417,15699.451972375,15700.495352084,0,0.771451542001159
119,34,8,categorization,0,bathroom,SHINEd_sun_aljolscmmzydegqp.tif,33,0.0666666666666667,0.0666666666666667,1.06666666666667,15700.502304209,15701.472406,13,15700.564047584,15700.624964417,15701.477111375,15702.53716125,1,0.970101791001071
119,35,8,categorization,0,bathroom,SHINEd_sun_apkruvsevgegsdwp.tif,44,0.0666666666666667,0.0666666666666667,1.21666666666667,15702.545328584,15703.802800584,13,15702.609954709,15702.676188209,15703.815372167,15705.025427542,1,1.25747200000114
119,36,8,categorization,0,bathroom,SHINEd_sun_amzlamotzwfkwjco.tif,37,0.0666666666666667,0.0666666666666667,0.95,15705.042293292,15705.858304334,13,15705.108676792,15705.174610542,15705.880584584,15706.823957375,1,0.816011042001264
119,37,8,categorization,0,bathroom,SHINEd_sun_afcoljnjfoxjtgja.tif,20,0.0666666666666667,0.0666666666666667,0.9,15706.841533334,15707.688844792,13,15706.906139292,15706.96466875,15707.700044792,15708.593381834,1,0.84731145799924
119,38,8,categorization,0,kitchen,SHINEd_sun_acwjdupvyjsugpay.tif,76,0.0666666666666667,0.0666666666666667,1.78333333333333,15708.59857225,15709.865067584,9,15708.660323,15708.721272417,15709.873405625,15711.650119917,1,1.26649533399905
119,39,8,categorization,0,bathroom,SHINEd_sun_aspsyogrekjtfozg.tif,50,0.0666666666666667,0.0666666666666667,1.16666666666667,15711.665522542,15712.50685375,13,15711.732941375,15711.797808917,15712.520181542,15713.680234917,1,0.841331207999247
119,40,8,categorization,0,kitchen,SHINEd_sun_afuyedyxivkhecmu.tif,85,0.0666666666666667,0.0666666666666667,0.783333333333333,15713.690347459,15714.69083875,9,15713.757009584,15713.822531209,15714.712403542,15715.489104792,1,1.0004912910008
119,41,8,categorization,0,bathroom,SHINEd_sun_abjtwfukuwddzted.tif,15,0.0666666666666667,0.0666666666666667,1.23333333333333,15715.504465417,15716.456260375,13,15715.570488709,15715.628671667,15716.463821167,15717.690535542,1,0.951794958000391
119,42,8,categorization,0,bathroom,SHINEd_sun_aofnryafpsjimzsb.tif,40,0.0666666666666667,0.0666666666666667,0.9,15717.709807834,15718.512442875,13,15717.776184084,15717.842045667,15718.531446542,15719.424813792,1,0.80263504100003
119,43,8,categorization,0,kitchen,SHINEd_sun_aunzlwrbjumxhwdj.tif,103,0.0666666666666667,0.0666666666666667,0.7,15719.441250584,15720.289319959,9,15719.504027,15719.564114667,15720.299178334,15720.992515209,1,0.848069375000705
119,44,8,categorization,0,kitchen,SHINEd_sun_axyyrmzcupyhlivc.tif,107,0.0666666666666667,0.0666666666666667,1.23333333333333,15720.997425792,15721.7523975,9,15721.059103625,15721.120016125,15721.772025292,15722.998736917,1,0.754971708000085
119,45,8,categorization,0,kitchen,SHINEd_sun_aamedkxepzlwuxes.tif,65,0.0666666666666667,0.0666666666666667,1,15723.015056459,15723.764528,9,15723.082906209,15723.147421542,15723.787307417,15724.78068275,1,0.749471540999366
119,46,8,categorization,0,bathroom,SHINEd_sun_anhioqovhscjqqwb.tif,38,0.0666666666666667,0.0666666666666667,1.38333333333333,15724.7964785,15725.632374459,13,15724.862877459,15724.9217595,15725.640482834,15727.017187209,1,0.835895959000482
119,47,8,categorization,0,kitchen,SHINEd_labelme_brsyyvweiuaazfr.tif,61,0.0666666666666667,0.0666666666666667,1.3,15727.032913709,15727.817625584,9,15727.100563375,15727.165543959,15727.838659042,15729.132046209,1,0.784711875001449
119,48,8,categorization,0,bathroom,SHINEd_sun_aghyqhbptboemmoq.tif,23,0.0666666666666667,0.0666666666666667,0.833333333333333,15729.148892875,15730.516905084,9,15729.216333792,15729.280989834,15730.539996792,15731.366667959,0,1.36801220899906
119,49,8,categorization,0,bathroom,SHINEd_sun_apjevzvycyhuqghb.tif,43,0.0666666666666667,0.0666666666666667,0.95,15731.372837917,15732.088766542,9,15731.434585667,15731.49547875,15732.097265709,15733.040604417,0,0.715928624998924
119,50,8,categorization,0,bathroom,SHINEd_sun_auzqhkafidnkrwmo.tif,54,0.0666666666666667,0.0666666666666667,1.43333333333333,15733.045367334,15733.832107917,13,15733.107019375,15733.167869125,15733.836438459,15735.263150584,1,0.78674058300021
119,1,9,categorization,0,kitchen,SHINEd_sun_aadbddgrdsjugojn.tif,64,0.0666666666666667,0.0666666666666667,1.08333333333333,15746.534954917,15747.320736875,9,15746.597160375,15746.657953167,15747.326686417,15748.403386334,1,0.785781958000371
119,2,9,categorization,0,kitchen,SHINEd_sun_aehawpgmrlhlvcow.tif,81,0.0666666666666667,0.0666666666666667,0.8,15748.411819834,15749.360504875,13,15748.476265042,15748.543921709,15749.383736625,15750.177114167,0,0.948685040999408
