sub_num,trial,block,task,is_practice,category,image,texture,duration,mask_dur,jitter,stim_time,time_of_resp,trial_response,mask_time,fix_time,jit_onset,trial_end,trial_accuracy,RT
130,6,0,complexity,1,kitchen,kitchen_practice5.tif,230,1.5,0,1.46666666666667,3346.963220875,3350.013852416,3,NaN,3350.02547375,3350.044450416,3351.504522125,NaN,NaN
130,7,0,complexity,1,kitchen,kitchen_practice2.tif,227,1.5,0,1.31666666666667,3351.523274333,3354.158156833,6,NaN,3354.163911083,3354.182278333,3355.492347833,NaN,NaN
130,8,0,complexity,1,kitchen,kitchen_practice4.tif,229,1.5,0,1.76666666666667,3355.505059166,3358.118058541,7,NaN,3358.123847166,3358.14214675,3359.902223791,NaN,NaN
130,9,0,complexity,1,kitchen,kitchen_practice1.tif,226,1.5,0,0.816666666666667,3359.921000458,3363.50186825,6,NaN,3363.507636416,3363.525705333,3364.335713458,NaN,NaN
130,10,0,complexity,1,kitchen,kitchen_practice3.tif,228,1.5,0,0.9,3364.340265291,3367.050667166,4,NaN,3367.080361,3367.10373075,3367.997071666,NaN,NaN
130,1,1,complexity,0,kitchen,sun_avszsnwsbuqfgzbn.tif,215,1.5,0,1.15,3371.9281315,3375.973126625,6,NaN,3375.979253208,3375.997588958,3377.141013375,NaN,NaN
130,2,1,complexity,0,kitchen,sun_ahpczsiumwwocjkv.tif,202,1.5,0,1.33333333333333,3377.150998916,3379.813914666,2,NaN,3379.819688291,3379.838020458,3381.164761166,NaN,NaN
130,3,1,complexity,0,kitchen,sun_aeqdocilnnpuvuhx.tif,193,1.5,0,1.75,3381.184954916,3384.03702675,5,NaN,3384.043119,3384.061589625,3385.805005791,NaN,NaN
130,4,1,complexity,0,kitchen,sun_ahywdevtimnqcsln.tif,204,1.5,0,1.2,3385.825425541,3389.161786875,4,NaN,3389.190265583,3389.213357791,3390.406745458,NaN,NaN
130,5,1,complexity,0,kitchen,sun_aqeaevwwwjoqhzvl.tif,211,1.5,0,1.46666666666667,3390.416875583,3393.325597416,7,NaN,3393.331312708,3393.349617625,3394.809683958,NaN,NaN
130,6,1,complexity,0,kitchen,sun_aehawpgmrlhlvcow.tif,191,1.5,0,1.01666666666667,3394.829860416,3397.573668458,4,NaN,3397.579500083,3397.59776175,3398.607843583,NaN,NaN
130,7,1,complexity,0,kitchen,sun_agorklincwxrdtga.tif,197,1.5,0,1.18333333333333,3398.618132833,3401.60529925,5,NaN,3401.611514041,3401.629863958,3402.806563,NaN,NaN
130,8,1,complexity,0,kitchen,sun_agzzivivdpnawacl.tif,199,1.5,0,1.03333333333333,3402.817869041,3406.069339291,4,NaN,3406.075252958,3406.093509,3407.120251333,NaN,NaN
130,9,1,complexity,0,kitchen,sun_acfmftudsenhrfhy.tif,184,1.5,0,1.25,3407.129763875,3410.748869333,5,NaN,3410.755131333,3410.77349,3412.016887958,NaN,NaN
130,10,1,complexity,0,kitchen,sun_aarfiyshqohlwkmo.tif,177,1.5,0,0.733333333333333,3412.037291458,3415.884874166,4,NaN,3415.891052583,3415.9093065,3416.635979375,NaN,NaN
130,11,1,complexity,0,kitchen,labelme_rykdqxenmhulbdn.tif,173,1.5,0,1.01666666666667,3416.657257291,3419.70265525,3,NaN,3419.716565583,3419.735884083,3420.745960166,NaN,NaN
130,12,1,complexity,0,kitchen,sun_aexklacwqwezaorf.tif,194,1.5,0,1.53333333333333,3420.757835083,3423.949393833,5,NaN,3423.955254208,3423.973586333,3425.500345333,NaN,NaN
130,13,1,complexity,0,kitchen,sun_aunzlwrbjumxhwdj.tif,213,1.5,0,1.33333333333333,3425.520586916,3429.301253375,4,NaN,3429.307117125,3429.3256185,3430.65236525,NaN,NaN
130,14,1,complexity,0,kitchen,sun_ahljzhgcdpomplvg.tif,201,1.5,0,1.53333333333333,3430.667915708,3433.357036708,3,NaN,3433.362884708,3433.381198541,3434.907920666,NaN,NaN
130,15,1,complexity,0,kitchen,labelme_kxvouciolcpqplr.tif,172,1.5,0,1.01666666666667,3434.927977666,3438.221258916,1,NaN,3438.227565791,3438.245871166,3439.255959291,NaN,NaN
130,16,1,complexity,0,kitchen,sun_awcpdzzznmweyyhv.tif,216,1.5,0,1.23333333333333,3439.265264083,3442.2613575,5,NaN,3442.267598625,3442.285846708,3443.512591166,NaN,NaN
130,17,1,complexity,0,kitchen,sun_aaxxjlsuzvqlgylf.tif,178,1.5,0,1.18333333333333,3443.52957875,3446.357217333,4,NaN,3446.363077583,3446.381636458,3447.558371333,NaN,NaN
130,18,1,complexity,0,kitchen,sun_aamedkxepzlwuxes.tif,175,1.5,0,0.783333333333333,3447.568595541,3450.60575625,5,NaN,3450.611445125,3450.629851666,3451.406525958,NaN,NaN
130,19,1,complexity,0,kitchen,sun_ajcbwwvdlsvjyzje.tif,206,1.5,0,1.73333333333333,3451.410802125,3454.296272208,5,NaN,3454.323968375,3454.347693375,3456.074423875,NaN,NaN
130,20,1,complexity,0,kitchen,sun_azmutvzbxypaceni.tif,220,1.5,0,1.21666666666667,3456.095009458,3459.433228,2,NaN,3459.459324,3459.48332025,3460.693375791,NaN,NaN
130,21,1,complexity,0,kitchen,sun_acxkpeoqbwcxfvip.tif,187,1.5,0,1.26666666666667,3460.713288791,3463.5728025,4,NaN,3463.578802041,3463.597213625,3464.857263291,NaN,NaN
130,22,1,complexity,0,kitchen,sun_aggjlwcdjsjcaemh.tif,196,1.5,0,0.783333333333333,3464.8720795,3468.557554625,3,NaN,3468.563728916,3468.58206175,3469.358739083,NaN,NaN
130,23,1,complexity,0,kitchen,sun_aadbddgrdsjugojn.tif,174,1.5,0,1.48333333333333,3469.3631135,3472.476159083,3,NaN,3472.494562458,3472.514816625,3473.991536125,NaN,NaN
130,24,1,complexity,0,kitchen,sun_acwjdupvyjsugpay.tif,186,1.5,0,1.36666666666667,3474.010870666,3477.052778625,2,NaN,3477.058865,3477.077147166,3478.437211916,NaN,NaN
130,25,1,complexity,0,kitchen,sun_auticobqsbwgoppi.tif,214,1.5,0,0.983333333333333,3478.456721625,3481.252937958,2,NaN,3481.258961458,3481.277283625,3482.253956958,NaN,NaN
130,1,2,complexity,0,kitchen,sun_aixorpehvfykdynp.tif,205,1.5,0,1.26666666666667,3486.054673125,3488.840880625,3,NaN,3488.868572375,3488.892029291,3490.152099541,NaN,NaN
130,2,2,complexity,0,kitchen,sun_aypmqwcualkenuoe.tif,219,1.5,0,1.11666666666667,3490.171226041,3493.324985375,6,NaN,3493.33083275,3493.349106541,3494.459170458,NaN,NaN
130,3,2,complexity,0,kitchen,sun_aymvwlarqodbwuoc.tif,218,1.5,0,1.43333333333333,3494.471147333,3497.46075925,5,NaN,3497.466996083,3497.485439,3498.912190291,NaN,NaN
130,4,2,complexity,0,kitchen,sun_amjjdeyrggfqgmom.tif,210,1.5,0,0.8,3498.93004825,3502.221543875,2,NaN,3502.227695333,3502.246167791,3503.03950775,NaN,NaN
130,5,2,complexity,0,kitchen,sun_akcjzhbbjlbogpdi.tif,209,1.5,0,0.733333333333333,3503.043712458,3506.437145708,1,NaN,3506.442862166,3506.461256708,3507.187929791,NaN,NaN
130,6,2,complexity,0,kitchen,sun_abdxkyyxwfskuaqb.tif,180,1.5,0,1.03333333333333,3507.192205833,3509.776961333,4,NaN,3509.806116625,3509.829550791,3510.856295041,NaN,NaN
130,7,2,complexity,0,kitchen,sun_acgtpgfybqjmzeyw.tif,185,1.5,0,1.56666666666667,3510.866586541,3514.276934291,3,NaN,3514.282989208,3514.3012375,3515.86133,NaN,NaN
130,8,2,complexity,0,kitchen,sun_ahdycvpopffkzzsu.tif,200,1.5,0,0.866666666666667,3515.877393333,3518.70074425,4,NaN,3518.706755625,3518.724943875,3519.584953291,NaN,NaN
130,9,2,complexity,0,kitchen,sun_ajkqhtgcbgpcwrwn.tif,207,1.5,0,0.716666666666667,3519.589163125,3522.22381375,4,NaN,3522.241392958,3522.262712916,3522.972720291,NaN,NaN
130,10,2,complexity,0,kitchen,sun_agubuxuukhzyzpdp.tif,198,1.5,0,1.33333333333333,3522.977568875,3526.39683175,5,NaN,3526.402704625,3526.421064333,3527.747792541,NaN,NaN
130,11,2,complexity,0,kitchen,sun_aegoxogugdkwpmpj.tif,190,1.5,0,1.01666666666667,3527.765775875,3530.861093541,6,NaN,3530.866936166,3530.885338833,3531.895398375,NaN,NaN
130,12,2,complexity,0,kitchen,sun_aenotlpyftoioydp.tif,192,1.5,0,0.733333333333333,3531.9050905,3534.901524125,1,NaN,3534.90723825,3534.925492125,3535.652167416,NaN,NaN
130,13,2,complexity,0,kitchen,sun_auaiucuqpdausiva.tif,212,1.5,0,1.38333333333333,3535.656390833,3539.037422958,4,NaN,3539.043154041,3539.061582333,3540.438306041,NaN,NaN
130,14,2,complexity,0,kitchen,sun_aapllqyqlykszopd.tif,176,1.5,0,1.06666666666667,3540.45726325,3543.204709041,4,NaN,3543.210520666,3543.229141708,3544.289191541,NaN,NaN
130,15,2,complexity,0,kitchen,sun_adgqasybjyktddhj.tif,188,1.5,0,0.85,3544.299834041,3547.292940375,2,NaN,3547.2986885,3547.317070541,3548.16041175,NaN,NaN
130,16,2,complexity,0,kitchen,labelme_brsyyvweiuaazfr.tif,171,1.5,0,0.9,3548.172934083,3551.805412375,4,NaN,3551.811198666,3551.829462083,3552.722802,NaN,NaN
130,17,2,complexity,0,kitchen,sun_admlmbcdswaszruo.tif,189,1.5,0,1.55,3552.726962958,3555.419788541,5,NaN,3555.449891041,3555.473798708,3557.017192166,NaN,NaN
130,18,2,complexity,0,kitchen,sun_abrcnpqqhmjwekyf.tif,183,1.5,0,0.7,3557.033313833,3559.980381583,3,NaN,3559.986503041,3560.00486025,3560.698204166,NaN,NaN
130,19,2,complexity,0,kitchen,sun_abdenxonkemggwsq.tif,179,1.5,0,0.716666666666667,3560.706412666,3563.8685475,5,NaN,3563.87484475,3563.893255291,3564.603264791,NaN,NaN
130,20,2,complexity,0,kitchen,sun_akchetnepxlcxhsu.tif,208,1.5,0,0.85,3564.608486541,3567.716315625,4,NaN,3567.723200583,3567.741449166,3568.58479275,NaN,NaN
130,21,2,complexity,0,kitchen,sun_axyyrmzcupyhlivc.tif,217,1.5,0,1.35,3568.589355375,3571.421111291,5,NaN,3571.450586958,3571.474022291,3572.817451333,NaN,NaN
130,22,2,complexity,0,kitchen,sun_abftihopvusyfakt.tif,181,1.5,0,1.96666666666667,3572.836885166,3575.980707583,3,NaN,3575.986597666,3576.004760166,3577.964836125,NaN,NaN
130,23,2,complexity,0,kitchen,sun_afuyedyxivkhecmu.tif,195,1.5,0,0.933333333333333,3577.984073375,3581.861347375,5,NaN,3581.867054625,3581.885333666,3582.812009,NaN,NaN
130,24,2,complexity,0,kitchen,sun_ahspylgoovwmwvgk.tif,203,1.5,0,1.33333333333333,3582.816380083,3586.100737166,3,NaN,3586.106601875,3586.124777916,3587.451510291,NaN,NaN
130,25,2,complexity,0,kitchen,sun_abpwyqmlzafvklqo.tif,182,1.5,0,1.16666666666667,3587.470296458,3590.100905458,2,NaN,3590.106692541,3590.124980625,3591.285052416,NaN,NaN
