sub_num,trial,block,task,is_practice,category,image,texture,duration,mask_dur,jitter,stim_time,time_of_resp,trial_response,mask_time,fix_time,jit_onset,trial_end,trial_accuracy,RT
106,1,0,categorization,1,kitchen,SHINEd_kitchen_practice3.tif,118,0.0666666666666667,0.0666666666666667,1.21666666666667,29339.836249083,29340.490716208,9,29339.901882542,29339.96218825,29340.515484708,29341.725701292,1,0.654467125001247
106,2,0,categorization,1,kitchen,SHINEd_kitchen_practice5.tif,120,0.0666666666666667,0.0666666666666667,1.36666666666667,29341.7842695,29342.94053825,9,29341.856891042,29341.91810475,29342.980324292,29344.340535542,1,1.15626875000089
106,3,0,categorization,1,kitchen,SHINEd_kitchen_practice2.tif,117,0.0666666666666667,0.0666666666666667,1.85,29344.393230875,29346.07510175,9,29344.467518917,29344.528303208,29346.102202833,29347.945710292,1,1.68187087499973
106,4,0,categorization,1,kitchen,SHINEd_kitchen_practice1.tif,116,0.0666666666666667,0.0666666666666667,1.55,29347.97174225,29349.031214542,13,29348.041280542,29348.105264375,29349.065072583,29350.608589167,0,1.05947229199955
106,5,0,categorization,1,bathroom,SHINEd_bathroom_practice2.tif,112,0.0666666666666667,0.0666666666666667,1.48333333333333,29350.641862125,29351.357481375,9,29350.714744333,29350.776460667,29351.396847625,29352.874610125,0,0.715619249996962
106,6,0,categorization,1,bathroom,SHINEd_bathroom_practice3.tif,113,0.0666666666666667,0.0666666666666667,1.15,29352.902701708,29353.632473042,9,29352.971225792,29353.036691292,29353.661933208,29354.805433208,0,0.729771333997633
106,7,0,categorization,1,kitchen,SHINEd_kitchen_practice4.tif,119,0.0666666666666667,0.0666666666666667,0.733333333333333,29354.816900458,29356.0950675,9,29354.884600125,29354.951357333,29356.108184625,29356.834892917,1,1.27816704199722
106,8,0,categorization,1,bathroom,SHINEd_bathroom_practice1.tif,111,0.0666666666666667,0.0666666666666667,1.6,29356.840317583,29357.578193417,13,29356.902241917,29356.963159125,29357.581952542,29359.175320417,1,0.737875834001898
106,9,0,categorization,1,bathroom,SHINEd_bathroom_practice5.tif,115,0.0666666666666667,0.0666666666666667,0.716666666666667,29359.19755975,29360.188808333,9,29359.264743625,29359.331481208,29360.203076167,29360.913081292,0,0.991248583002744
106,10,0,categorization,1,bathroom,SHINEd_bathroom_practice4.tif,114,0.0666666666666667,0.0666666666666667,1.21666666666667,29360.919302375,29362.050640208,13,29360.981105667,29361.042227458,29362.061084208,29363.271141167,1,1.13133783299781
106,1,0,categorization,1,kitchen,SHINEd_kitchen_practice3.tif,118,0.0666666666666667,0.0666666666666667,1.21666666666667,29377.412108625,29378.794927625,9,29377.473962125,29377.5352095,29378.804316125,29380.014360333,1,1.38281899999856
106,2,0,categorization,1,kitchen,SHINEd_kitchen_practice5.tif,120,0.0666666666666667,0.0666666666666667,1.36666666666667,29380.035320917,29381.165064375,9,29380.10221475,29380.166459667,29381.189475583,29382.549525833,1,1.12974345800103
106,3,0,categorization,1,kitchen,SHINEd_kitchen_practice2.tif,117,0.0666666666666667,0.0666666666666667,1.85,29382.568092042,29384.263113167,9,29382.63485675,29382.700877833,29384.290639833,29386.134008583,1,1.69502112499686
106,4,0,categorization,1,kitchen,SHINEd_kitchen_practice1.tif,116,0.0666666666666667,0.0666666666666667,1.55,29386.144308417,29391.010232958,13,29386.209228875,29386.27704175,29391.029655958,29392.573031583,0,4.86592454100173
106,5,0,categorization,1,bathroom,SHINEd_bathroom_practice2.tif,112,0.0666666666666667,0.0666666666666667,1.48333333333333,29392.591052,29393.957671958,13,29392.65788575,29392.725389125,29393.983438042,29395.460154625,1,1.36661995800023
106,6,0,categorization,1,bathroom,SHINEd_bathroom_practice3.tif,113,0.0666666666666667,0.0666666666666667,1.15,29395.4779955,29396.659892917,13,29395.546469917,29395.61077625,29396.683403583,29397.826782667,1,1.18189741699825
106,7,0,categorization,1,kitchen,SHINEd_kitchen_practice4.tif,119,0.0666666666666667,0.0666666666666667,0.733333333333333,29397.837810917,29398.961834333,9,29397.904815667,29397.970631917,29398.975958292,29399.702674042,1,1.12402341599955
106,8,0,categorization,1,bathroom,SHINEd_bathroom_practice1.tif,111,0.0666666666666667,0.0666666666666667,1.6,29399.717571458,29400.586361958,13,29399.783078417,29399.841490083,29400.593440375,29402.186824042,1,0.868790500000614
106,9,0,categorization,1,bathroom,SHINEd_bathroom_practice5.tif,115,0.0666666666666667,0.0666666666666667,0.716666666666667,29402.1988995,29403.336210292,13,29402.26643325,29402.33178,29403.355568792,29404.065575542,1,1.13731079200079
106,10,0,categorization,1,bathroom,SHINEd_bathroom_practice4.tif,114,0.0666666666666667,0.0666666666666667,1.21666666666667,29404.0714045,29404.970199625,13,29404.133043292,29404.194108083,29404.979869875,29406.189924458,1,0.898795125001925
106,1,1,categorization,0,bathroom,SHINEd_labelme_sfxiulhjbhlyiyt.tif,11,0.0666666666666667,0.0666666666666667,1.23333333333333,29416.006497708,29417.778178167,13,29416.068459333,29416.129374083,29417.781465125,29419.00819,1,1.77168045899816
106,2,1,categorization,0,kitchen,SHINEd_sun_aixorpehvfykdynp.tif,95,0.0666666666666667,0.0666666666666667,0.783333333333333,29419.025315958,29420.507145583,9,29419.093534875,29419.1580335,29420.532762917,29421.309435042,1,1.48182962500141
106,3,1,categorization,0,bathroom,SHINEd_sun_atstyziqcmkahyxk.tif,51,0.0666666666666667,0.0666666666666667,0.75,29421.315271375,29422.93857575,13,29421.377076583,29421.43794275,29422.957166292,29423.700505333,1,1.62330437499986
106,4,1,categorization,0,bathroom,SHINEd_sun_ahijqszoswveeyji.tif,28,0.0666666666666667,0.0666666666666667,1.23333333333333,29423.705609542,29425.362596875,13,29423.767236417,29423.828412625,29425.381276833,29426.608006417,1,1.65698733299723
106,5,1,categorization,0,kitchen,SHINEd_labelme_brsyyvweiuaazfr.tif,61,0.0666666666666667,0.0666666666666667,1.13333333333333,29426.624722,29428.004979208,13,29426.692976208,29426.757314375,29428.031439458,29429.158166208,0,1.38025720799851
106,6,1,categorization,0,bathroom,SHINEd_sun_agyqfjcfkdcydepw.tif,25,0.0666666666666667,0.0666666666666667,0.95,29429.16767175,29430.689887375,13,29429.23256475,29429.3005635,29430.708244417,29431.651583458,1,1.52221562499835
106,7,1,categorization,0,kitchen,SHINEd_sun_aaxxjlsuzvqlgylf.tif,68,0.0666666666666667,0.0666666666666667,0.733333333333333,29431.657395958,29433.114794417,13,29431.71921925,29431.779986875,29433.132295417,29433.858966458,0,1.45739845900243
106,8,1,categorization,0,kitchen,SHINEd_sun_aeqdocilnnpuvuhx.tif,83,0.0666666666666667,0.0666666666666667,1.31666666666667,29433.865375542,29434.970898458,13,29433.927057958,29433.987968583,29434.990310792,29436.3003595,0,1.10552291600106
106,9,1,categorization,0,bathroom,SHINEd_sun_apkxzenqapsujocq.tif,45,0.0666666666666667,0.0666666666666667,0.8,29436.318665417,29437.869975125,13,29436.385502958,29436.451305833,29437.894480917,29438.687818958,1,1.55130970800019
106,10,1,categorization,0,kitchen,SHINEd_sun_ahljzhgcdpomplvg.tif,91,0.0666666666666667,0.0666666666666667,0.716666666666667,29438.693567458,29439.594899417,13,29438.755535375,29438.816245917,29439.601695583,29440.311701417,0,0.901331958997616
106,11,1,categorization,0,bathroom,SHINEd_sun_ahaulkltgpkeeemi.tif,26,0.0666666666666667,0.0666666666666667,0.916666666666667,29440.316489583,29441.554388958,13,29440.378281083,29440.439103917,29441.558108917,29442.4681135,1,1.23789937499896
106,12,1,categorization,0,kitchen,SHINEd_sun_ajkqhtgcbgpcwrwn.tif,97,0.0666666666666667,0.0666666666666667,0.95,29442.472835083,29443.778409,13,29442.534638,29442.59554,29443.798172333,29444.741510583,0,1.30557391699767
106,13,1,categorization,0,kitchen,SHINEd_sun_ahdycvpopffkzzsu.tif,90,0.0666666666666667,0.0666666666666667,0.833333333333333,29444.748814375,29446.090848125,13,29444.810522833,29444.871344458,29446.107217167,29446.933890292,0,1.34203374999925
106,14,1,categorization,0,kitchen,SHINEd_sun_aggjlwcdjsjcaemh.tif,86,0.0666666666666667,0.0666666666666667,0.75,29446.939578583,29448.242400125,13,29447.0013565,29447.06218125,29448.248074875,29448.991412958,0,1.30282154200177
106,15,1,categorization,0,kitchen,SHINEd_sun_aunzlwrbjumxhwdj.tif,103,0.0666666666666667,0.0666666666666667,1.53333333333333,29448.995961917,29450.018407458,9,29449.057661875,29449.118601542,29450.037768958,29451.5644965,1,1.02244554099889
106,16,1,categorization,0,bathroom,SHINEd_sun_ahcvzmoyaycdoftf.tif,27,0.0666666666666667,0.0666666666666667,1.05,29451.584777292,29452.529978833,9,29451.651539042,29451.71754075,29452.557898458,29453.601294083,0,0.945201541002461
106,17,1,categorization,0,kitchen,SHINEd_sun_aehawpgmrlhlvcow.tif,81,0.0666666666666667,0.0666666666666667,0.9,29453.616463875,29454.948467875,9,29453.681194417,29453.7476285,29454.974400625,29455.867738875,1,1.33200399999987
106,18,1,categorization,0,bathroom,SHINEd_sun_awnqiikzaispgmwo.tif,56,0.0666666666666667,0.0666666666666667,1.18333333333333,29455.87353175,29457.226805917,9,29455.935334625,29455.996635,29457.232308333,29458.409029292,0,1.35327416699874
106,19,1,categorization,0,kitchen,SHINEd_sun_abrcnpqqhmjwekyf.tif,73,0.0666666666666667,0.0666666666666667,0.9,29458.419563167,29460.040182292,9,29458.487448208,29458.552251667,29460.062050333,29460.955389125,1,1.62061912499848
106,20,1,categorization,0,bathroom,SHINEd_sun_aleqenyvunhactkl.tif,32,0.0666666666666667,0.0666666666666667,1.66666666666667,29460.96122325,29462.226518458,13,29461.023022875,29461.083961958,29462.235959,29463.895992542,1,1.26529520799886
106,21,1,categorization,0,kitchen,SHINEd_sun_acgtpgfybqjmzeyw.tif,75,0.0666666666666667,0.0666666666666667,1.13333333333333,29463.913244417,29465.490800875,13,29463.979698042,29464.045989167,29465.499180167,29466.625900458,0,1.57755645799989
106,22,1,categorization,0,bathroom,SHINEd_sun_agguqiubmwhqqunb.tif,22,0.0666666666666667,0.0666666666666667,1.3,29466.635077875,29467.530868667,9,29466.699964458,29466.767800208,29467.558058542,29468.851438625,0,0.895790792001208
106,23,1,categorization,0,bathroom,SHINEd_sun_aoybiabnpadelefl.tif,41,0.0666666666666667,0.0666666666666667,1.93333333333333,29468.869199917,29469.846736833,9,29468.936203292,29469.002106208,29469.875619833,29471.802335667,0,0.977536915997916
106,24,1,categorization,0,bathroom,SHINEd_sun_apynckhmoftszqoq.tif,47,0.0666666666666667,0.0666666666666667,1,29471.820089875,29472.78052125,9,29471.887223917,29471.953124,29472.809619542,29473.802958083,0,0.960431374998734
106,25,1,categorization,0,kitchen,SHINEd_sun_abftihopvusyfakt.tif,71,0.0666666666666667,0.0666666666666667,0.883333333333333,29473.808158,29474.938395958,9,29473.869811167,29473.930757583,29474.949350042,29475.826020958,1,1.13023795800109
106,26,1,categorization,0,kitchen,SHINEd_sun_agzzivivdpnawacl.tif,89,0.0666666666666667,0.0666666666666667,1.95,29475.831591625,29477.698484583,13,29475.893336833,29475.954172083,29477.706776958,29479.650157917,0,1.8668929580017
106,27,1,categorization,0,kitchen,SHINEd_sun_aegoxogugdkwpmpj.tif,80,0.0666666666666667,0.0666666666666667,1.25,29479.668180708,29481.362799583,9,29479.7350365,29479.800706208,29481.370234917,29482.613623042,1,1.69461887500074
106,28,1,categorization,0,kitchen,SHINEd_sun_akcjzhbbjlbogpdi.tif,99,0.0666666666666667,0.0666666666666667,1.95,29482.63596325,29484.173494708,9,29482.702776833,29482.768780333,29484.191722083,29486.135106583,1,1.53753145800147
106,29,1,categorization,0,kitchen,SHINEd_sun_ahpczsiumwwocjkv.tif,92,0.0666666666666667,0.0666666666666667,1.91666666666667,29486.145023458,29486.959237125,9,29486.2101015,29486.279264167,29486.98632275,29488.896373417,1,0.814213666999422
106,30,1,categorization,0,bathroom,SHINEd_sun_apmqjbnwghzuhhzh.tif,46,0.0666666666666667,0.0666666666666667,1.41666666666667,29488.911914667,29490.474636042,9,29488.978762083,29489.044321625,29490.48011825,29491.890165583,0,1.56272137500127
106,31,1,categorization,0,bathroom,SHINEd_sun_auzqhkafidnkrwmo.tif,54,0.0666666666666667,0.0666666666666667,0.716666666666667,29491.908071583,29493.083403083,13,29491.976163292,29492.040932833,29493.096568625,29493.806573208,1,1.17533150000236
106,32,1,categorization,0,bathroom,SHINEd_sun_apeeialkgkuxddgh.tif,42,0.0666666666666667,0.0666666666666667,1.28333333333333,29493.812045542,29494.994002125,13,29493.873870792,29493.934727833,29495.004122583,29496.280836958,1,1.18195658300101
106,33,1,categorization,0,kitchen,SHINEd_sun_afuyedyxivkhecmu.tif,85,0.0666666666666667,0.0666666666666667,0.9,29496.29380675,29497.363230583,13,29496.362270208,29496.426848667,29497.382081708,29498.275420125,0,1.06942383299975
106,34,1,categorization,0,bathroom,SHINEd_sun_aggnnqpdorgxpvce.tif,21,0.0666666666666667,0.0666666666666667,0.8,29498.281212333,29499.130570167,13,29498.3430485,29498.403938208,29499.138939125,29499.932277458,1,0.849357833998511
106,35,1,categorization,0,kitchen,SHINEd_sun_avszsnwsbuqfgzbn.tif,105,0.0666666666666667,0.0666666666666667,1.01666666666667,29499.937209083,29501.09798925,9,29499.998912167,29500.059866208,29501.112045,29502.122088083,1,1.16078016699976
106,36,1,categorization,0,bathroom,SHINEd_sun_axldvoqbuvuggfmq.tif,57,0.0666666666666667,0.0666666666666667,0.85,29502.1308295,29502.990198333,9,29502.195586,29502.261637125,29503.017676125,29503.86105075,0,0.859368832996552
106,37,1,categorization,0,bathroom,SHINEd_sun_apkruvsevgegsdwp.tif,44,0.0666666666666667,0.0666666666666667,1.51666666666667,29503.8784605,29504.89021925,9,29503.945415542,29504.01115625,29504.896672333,29506.406721125,0,1.01175874999899
106,38,1,categorization,0,kitchen,SHINEd_sun_aenotlpyftoioydp.tif,82,0.0666666666666667,0.0666666666666667,1.83333333333333,29506.42474825,29507.501529375,9,29506.493054833,29506.557488667,29507.512415792,29509.339128708,1,1.07678112500071
106,39,1,categorization,0,bathroom,SHINEd_sun_alotolagknyrgtsk.tif,35,0.0666666666666667,0.0666666666666667,0.716666666666667,29509.356907375,29510.180004208,9,29509.4253905,29509.489424833,29510.195264375,29510.905267917,0,0.823096832998999
106,40,1,categorization,0,kitchen,SHINEd_sun_adgqasybjyktddhj.tif,78,0.0666666666666667,0.0666666666666667,0.9,29510.910402125,29512.058197833,9,29510.972218583,29511.033097333,29512.068231417,29512.961570125,1,1.14779570800238
106,41,1,categorization,0,bathroom,SHINEd_sun_aljolscmmzydegqp.tif,33,0.0666666666666667,0.0666666666666667,0.916666666666667,29512.966175625,29514.033733167,9,29513.028060333,29513.088842333,29514.040681167,29514.950685875,0,1.06755754200276
106,42,1,categorization,0,kitchen,SHINEd_sun_aypmqwcualkenuoe.tif,109,0.0666666666666667,0.0666666666666667,0.816666666666667,29514.955667167,29515.993740417,9,29515.017390417,29515.078387917,29515.997219458,29516.807223083,1,1.03807325000162
106,43,1,categorization,0,kitchen,SHINEd_sun_acwjdupvyjsugpay.tif,76,0.0666666666666667,0.0666666666666667,1.88333333333333,29516.812247875,29517.890017542,9,29516.873966292,29516.93490975,29517.904069458,29519.780783875,1,1.07776966699748
106,44,1,categorization,0,kitchen,SHINEd_sun_amjjdeyrggfqgmom.tif,100,0.0666666666666667,0.0666666666666667,0.9,29519.801132292,29520.938424875,9,29519.867885292,29519.934198625,29520.957400083,29521.850739333,1,1.13729258300009
106,45,1,categorization,0,bathroom,SHINEd_sun_apjevzvycyhuqghb.tif,43,0.0666666666666667,0.0666666666666667,1,29521.856283167,29522.72209025,13,29521.918099792,29521.979000083,29522.730737292,29523.724074792,1,0.865807083002437
106,46,1,categorization,0,kitchen,SHINEd_sun_abdenxonkemggwsq.tif,69,0.0666666666666667,0.0666666666666667,0.733333333333333,29523.729022917,29524.713911583,13,29523.790718208,29523.851691542,29524.720187292,29525.446858792,0,0.984888666000188
106,47,1,categorization,0,bathroom,SHINEd_sun_aavhrsfjbserjtht.tif,13,0.0666666666666667,0.0666666666666667,0.883333333333333,29525.45184275,29526.402032333,13,29525.513593167,29525.5744905,29526.409725542,29527.286397875,1,0.950189582999883
106,48,1,categorization,0,bathroom,SHINEd_sun_aspsyogrekjtfozg.tif,50,0.0666666666666667,0.0666666666666667,1.73333333333333,29527.2915905,29528.322535292,13,29527.353537708,29527.414628917,29528.333231333,29530.059952958,1,1.03094479200081
106,49,1,categorization,0,bathroom,SHINEd_sun_akiytfaagpdsphgz.tif,31,0.0666666666666667,0.0666666666666667,1.91666666666667,29530.077446792,29532.31356475,13,29530.143219,29530.21046675,29532.329727833,29534.239767958,1,2.23611795800025
106,50,1,categorization,0,bathroom,SHINEd_sun_ahqjwnzgolcaoidx.tif,29,0.0666666666666667,0.0666666666666667,1.35,29534.25850525,29535.545771625,13,29534.324966292,29534.391625625,29535.5609855,29536.904362875,1,1.28726637499858
106,1,2,categorization,0,bathroom,SHINEd_sun_ambriybtogmepttm.tif,36,0.0666666666666667,0.0666666666666667,0.95,29546.179127,29547.50626825,9,29546.241360417,29546.302027458,29547.521530083,29548.464867875,0,1.32714124999984
106,2,2,categorization,0,bathroom,SHINEd_sun_axxbkopsgyouuebh.tif,58,0.0666666666666667,0.0666666666666667,0.75,29548.470189917,29551.505981333,13,29548.531845083,29548.592827375,29551.512154583,29552.255493542,1,3.0357914160013
106,3,2,categorization,0,bathroom,SHINEd_sun_avhrdrntsqrjzccq.tif,55,0.0666666666666667,0.0666666666666667,1.68333333333333,29552.260302917,29553.466002125,13,29552.321964167,29552.383091583,29553.484968625,29555.161693167,1,1.20569920799971
106,4,2,categorization,0,kitchen,SHINEd_sun_aamedkxepzlwuxes.tif,65,0.0666666666666667,0.0666666666666667,0.816666666666667,29555.18036725,29557.417711458,9,29555.24741875,29555.313068792,29557.432432,29558.242436375,1,2.23734420800247
106,5,2,categorization,0,kitchen,SHINEd_sun_abdxkyyxwfskuaqb.tif,70,0.0666666666666667,0.0666666666666667,0.916666666666667,29558.248135833,29559.690007708,9,29558.309894958,29558.3708015,29559.7064645,29560.616469375,1,1.44187187499847
106,6,2,categorization,0,kitchen,SHINEd_sun_acxkpeoqbwcxfvip.tif,77,0.0666666666666667,0.0666666666666667,1.21666666666667,29560.621875292,29561.697415042,9,29560.6836605,29560.744600958,29561.713917375,29562.92398075,1,1.07553974999973
106,7,2,categorization,0,kitchen,SHINEd_sun_aqeaevwwwjoqhzvl.tif,101,0.0666666666666667,0.0666666666666667,0.9,29562.940804417,29564.027467833,9,29563.008640083,29563.073140958,29564.047177333,29564.940516292,1,1.08666341599746
106,8,2,categorization,0,kitchen,SHINEd_sun_admlmbcdswaszruo.tif,79,0.0666666666666667,0.0666666666666667,1.65,29564.94518725,29566.001787542,9,29565.007021333,29565.067927667,29566.01977825,29567.663166625,1,1.05660029200226
106,9,2,categorization,0,bathroom,SHINEd_sun_alkosphxlxwjwgjd.tif,34,0.0666666666666667,0.0666666666666667,1.15,29567.684964125,29568.655017042,13,29567.751998833,29567.817680708,29568.6739795,29569.817351583,1,0.97005291700043
106,10,2,categorization,0,kitchen,SHINEd_sun_abpwyqmlzafvklqo.tif,72,0.0666666666666667,0.0666666666666667,1.13333333333333,29569.826750708,29571.236450792,13,29569.893309,29569.959254708,29571.268895917,29572.395615792,0,1.40970008399745
106,11,2,categorization,0,bathroom,SHINEd_sun_axyrejkiiaqiurjk.tif,59,0.0666666666666667,0.0666666666666667,1.76666666666667,29572.404618,29573.72787075,13,29572.469903583,29572.537631,29573.74470875,29575.504758625,1,1.32325275000039
106,12,2,categorization,0,bathroom,SHINEd_sun_anryaplzeujmzfkd.tif,39,0.0666666666666667,0.0666666666666667,1.8,29575.524112458,29577.529882042,13,29575.590473833,29575.656506333,29577.542144667,29579.335535583,1,2.00576958400052
106,13,2,categorization,0,bathroom,SHINEd_sun_abapwbhyhkfixyex.tif,14,0.0666666666666667,0.0666666666666667,0.9,29579.352969958,29580.745734125,9,29579.419752792,29579.485642125,29580.755127583,29581.648467708,0,1.39276416700159
106,14,2,categorization,0,bathroom,SHINEd_sun_aunuadmjocsddsrl.tif,52,0.0666666666666667,0.0666666666666667,0.716666666666667,29581.654601292,29582.946258708,9,29581.716468542,29581.777292708,29582.96332525,29583.673330708,0,1.29165741600082
106,15,2,categorization,0,kitchen,SHINEd_labelme_kxvouciolcpqplr.tif,62,0.0666666666666667,0.0666666666666667,1.36666666666667,29583.67806,29585.273876083,9,29583.739777417,29583.800736167,29585.286622125,29586.646684625,1,1.59581608300141
106,16,2,categorization,0,kitchen,SHINEd_sun_acfmftudsenhrfhy.tif,74,0.0666666666666667,0.0666666666666667,0.916666666666667,29586.668451458,29587.678588458,9,29586.735216833,29586.801331,29587.708273417,29588.618279208,1,1.01013699999748
106,17,2,categorization,0,kitchen,SHINEd_sun_agubuxuukhzyzpdp.tif,88,0.0666666666666667,0.0666666666666667,0.716666666666667,29588.623982958,29589.897954,9,29588.685737833,29588.746577375,29589.915373917,29590.625379833,1,1.27397104199918
106,18,2,categorization,0,bathroom,SHINEd_sun_amzlamotzwfkwjco.tif,37,0.0666666666666667,0.0666666666666667,0.766666666666667,29590.631193208,29592.057513083,9,29590.692953,29590.753885292,29592.07257275,29592.832577625,0,1.42631987500135
106,19,2,categorization,0,kitchen,SHINEd_sun_awcpdzzznmweyyhv.tif,106,0.0666666666666667,0.0666666666666667,1.06666666666667,29592.837191125,29593.9374715,9,29592.8989735,29592.960034583,29593.945844167,29595.005892667,1,1.1002803750016
106,20,2,categorization,0,bathroom,SHINEd_sun_acduarbnmmoglmiv.tif,16,0.0666666666666667,0.0666666666666667,0.8,29595.01620475,29596.331006167,9,29595.080761333,29595.146265042,29596.355432875,29597.148772875,0,1.31480141700013
106,21,2,categorization,0,kitchen,SHINEd_sun_aexklacwqwezaorf.tif,84,0.0666666666666667,0.0666666666666667,0.866666666666667,29597.154171333,29598.58572975,9,29597.215854167,29597.276946542,29598.596660458,29599.456666417,1,1.43155841699991
106,22,2,categorization,0,kitchen,SHINEd_sun_aapllqyqlykszopd.tif,66,0.0666666666666667,0.0666666666666667,1.48333333333333,29599.462035542,29600.442201208,13,29599.523727125,29599.584799792,29600.453560958,29601.9302775,0,0.980165665998356
106,23,2,categorization,0,bathroom,SHINEd_sun_ajlawzvmubibwbpy.tif,30,0.0666666666666667,0.0666666666666667,1.1,29601.949883333,29603.159667625,9,29602.016956083,29602.082893,29603.191445,29604.284829083,0,1.20978429200113
106,24,2,categorization,0,kitchen,SHINEd_sun_axyyrmzcupyhlivc.tif,107,0.0666666666666667,0.0666666666666667,0.783333333333333,29604.293596625,29605.289835583,9,29604.358515,29604.426430417,29605.316791917,29606.093505,1,0.996238957999594
106,25,2,categorization,0,bathroom,SHINEd_sun_aghyqhbptboemmoq.tif,23,0.0666666666666667,0.0666666666666667,0.866666666666667,29606.110392292,29608.03399175,9,29606.176075167,29606.243127667,29608.045874375,29608.905880667,0,1.92359945799762
106,26,2,categorization,0,kitchen,SHINEd_sun_agorklincwxrdtga.tif,87,0.0666666666666667,0.0666666666666667,1.83333333333333,29608.911538625,29610.369772833,9,29608.973325625,29609.034181583,29610.38660925,29612.213322,1,1.45823420799934
106,27,2,categorization,0,kitchen,SHINEd_sun_ahywdevtimnqcsln.tif,94,0.0666666666666667,0.0666666666666667,0.7,29612.229439792,29613.537518833,13,29612.296151333,29612.362116833,29613.54766025,29614.24099775,0,1.30807904099856
106,28,2,categorization,0,kitchen,SHINEd_sun_akchetnepxlcxhsu.tif,98,0.0666666666666667,0.0666666666666667,1.33333333333333,29614.247579458,29615.410048042,13,29614.309348083,29614.370248917,29615.422028333,29616.748731833,0,1.16246858399973
106,29,2,categorization,0,bathroom,SHINEd_sun_aqrpegblszgcoujh.tif,48,0.0666666666666667,0.0666666666666667,1.33333333333333,29616.766341,29618.131240667,13,29616.832594208,29616.900023375,29618.157167333,29619.483876083,1,1.36489966700174
106,30,2,categorization,0,bathroom,SHINEd_sun_aofnryafpsjimzsb.tif,40,0.0666666666666667,0.0666666666666667,1.38333333333333,29619.5038215,29620.618753167,13,29619.571180958,29619.636657083,29620.644603667,29622.0213275,1,1.11493166700166
106,31,2,categorization,0,bathroom,SHINEd_sun_ausgutylgojavyoq.tif,53,0.0666666666666667,0.0666666666666667,1.25,29622.039148125,29623.058993083,13,29622.106662042,29622.171008375,29623.07804425,29624.321417083,1,1.01984495799843
106,32,2,categorization,0,kitchen,SHINEd_sun_auaiucuqpdausiva.tif,102,0.0666666666666667,0.0666666666666667,1.55,29624.340926375,29625.747961667,9,29624.408067333,29624.474081792,29625.766011208,29627.309381667,1,1.40703529199891
106,33,2,categorization,0,bathroom,SHINEd_sun_azqyogdvyhahyram.tif,60,0.0666666666666667,0.0666666666666667,1.61666666666667,29627.328653833,29628.6731425,9,29627.395801125,29627.461884708,29628.7046325,29630.314684333,0,1.34448866700041
106,34,2,categorization,0,kitchen,SHINEd_sun_auticobqsbwgoppi.tif,104,0.0666666666666667,0.0666666666666667,1.33333333333333,29630.333817958,29631.669559333,9,29630.401277292,29630.467304458,29631.693098458,29633.019821375,1,1.33574137500182
106,35,2,categorization,0,bathroom,SHINEd_sun_abjtwfukuwddzted.tif,15,0.0666666666666667,0.0666666666666667,0.833333333333333,29633.038983208,29634.544955958,9,29633.106485208,29633.172336,29634.562703625,29635.3893765,0,1.50597275000109
106,36,2,categorization,0,bathroom,SHINEd_sun_aclfzgynxzxlbepz.tif,19,0.0666666666666667,0.0666666666666667,1.45,29635.394843833,29636.449827792,9,29635.456638583,29635.517531208,29636.469367542,29637.912757333,0,1.05498395899849
106,37,2,categorization,0,bathroom,SHINEd_sun_acgyywnybuveqsro.tif,18,0.0666666666666667,0.0666666666666667,0.933333333333333,29637.934342083,29638.811053917,9,29638.000951417,29638.067126792,29638.839267083,29639.76593975,0,0.876711834000162
106,38,2,categorization,0,bathroom,SHINEd_sun_afcoljnjfoxjtgja.tif,20,0.0666666666666667,0.0666666666666667,1.65,29639.771972125,29640.738127875,9,29639.833665333,29639.894659042,29640.746441458,29642.389814875,0,0.966155750000325
106,39,2,categorization,0,kitchen,SHINEd_sun_aymvwlarqodbwuoc.tif,108,0.0666666666666667,0.0666666666666667,1.23333333333333,29642.408141917,29643.820742583,9,29642.474827,29642.54106975,29643.845934958,29645.072663083,1,1.4126006660008
106,40,2,categorization,0,kitchen,SHINEd_labelme_rykdqxenmhulbdn.tif,63,0.0666666666666667,0.0666666666666667,0.766666666666667,29645.091014083,29646.426613,9,29645.157783958,29645.223669458,29646.448381208,29647.2083855,1,1.33559891700133
106,41,2,categorization,0,bathroom,SHINEd_sun_agrwbmhcpmfuwmsg.tif,24,0.0666666666666667,0.0666666666666667,1.78333333333333,29647.213779708,29648.146043917,9,29647.275553958,29647.336513625,29648.155050583,29649.931764625,0,0.932264209001005
106,42,2,categorization,0,kitchen,SHINEd_sun_aarfiyshqohlwkmo.tif,67,0.0666666666666667,0.0666666666666667,1.11666666666667,29649.949996667,29650.734536333,9,29650.016695042,29650.083030917,29650.756512833,29651.866547833,1,0.784539665997727
106,43,2,categorization,0,kitchen,SHINEd_sun_aadbddgrdsjugojn.tif,64,0.0666666666666667,0.0666666666666667,1.85,29651.875285458,29652.956222333,9,29651.940027958,29652.007999333,29652.981745208,29654.825134208,1,1.08093687499786
106,44,2,categorization,0,bathroom,SHINEd_sun_asfwthctfqerjvxr.tif,49,0.0666666666666667,0.0666666666666667,0.733333333333333,29654.842278542,29655.725099917,9,29654.909928208,29654.974997875,29655.748792417,29656.475463792,0,0.882821374998457
106,45,2,categorization,0,kitchen,SHINEd_sun_ahspylgoovwmwvgk.tif,93,0.0666666666666667,0.0666666666666667,0.783333333333333,29656.48075925,29657.313759667,9,29656.542868167,29656.603393292,29657.322576125,29658.099247542,1,0.833000416998402
106,46,2,categorization,0,bathroom,SHINEd_sun_aapitsgbtktqubfy.tif,12,0.0666666666666667,0.0666666666666667,1.5,29658.104145958,29659.513554333,9,29658.165788,29658.226812542,29659.529608833,29661.023002458,0,1.40940837499875
106,47,2,categorization,0,kitchen,SHINEd_sun_ajcbwwvdlsvjyzje.tif,96,0.0666666666666667,0.0666666666666667,0.733333333333333,29661.040764042,29662.442699083,9,29661.10854825,29661.173695875,29662.466481292,29663.193151625,1,1.40193504099807
106,48,2,categorization,0,kitchen,SHINEd_sun_azmutvzbxypaceni.tif,110,0.0666666666666667,0.0666666666666667,1.1,29663.19787625,29664.873021542,9,29663.259665875,29663.32053275,29664.889481042,29665.98286175,1,1.6751452919998
106,49,2,categorization,0,bathroom,SHINEd_sun_acegryoqftbzowsg.tif,17,0.0666666666666667,0.0666666666666667,1.6,29665.993095333,29667.157496542,9,29666.058022417,29666.12040875,29667.178911542,29668.772293792,0,1.16440120900006
106,50,2,categorization,0,bathroom,SHINEd_sun_anhioqovhscjqqwb.tif,38,0.0666666666666667,0.0666666666666667,1.06666666666667,29668.789620792,29669.514960625,13,29668.856255333,29668.922592917,29669.528211667,29670.58826275,1,0.72533983300309
106,1,3,categorization,0,bathroom,SHINEd_sun_anryaplzeujmzfkd.tif,39,0.0666666666666667,0.0666666666666667,0.85,29678.415474417,29689.193971792,9,29678.477735917,29678.538126208,29689.207099583,29690.050437583,0,10.7784973749986
106,2,3,categorization,0,kitchen,SHINEd_sun_auaiucuqpdausiva.tif,102,0.0666666666666667,0.0666666666666667,1.65,29690.05564575,29691.849725583,9,29690.117396708,29690.178334875,29691.864411167,29693.50780625,1,1.79407983300189
106,3,3,categorization,0,bathroom,SHINEd_sun_alotolagknyrgtsk.tif,35,0.0666666666666667,0.0666666666666667,0.783333333333333,29693.525499333,29695.113542625,9,29693.592458042,29693.658270458,29695.127696042,29695.904366583,0,1.58804329199847
106,4,3,categorization,0,kitchen,SHINEd_sun_aeqdocilnnpuvuhx.tif,83,0.0666666666666667,0.0666666666666667,0.933333333333333,29695.909473958,29697.545205542,9,29695.971353833,29696.032318458,29697.551265458,29698.477936625,1,1.63573158399959
106,5,3,categorization,0,kitchen,SHINEd_sun_agubuxuukhzyzpdp.tif,88,0.0666666666666667,0.0666666666666667,0.866666666666667,29698.482847625,29699.657808833,9,29698.544658083,29698.605360125,29699.674531292,29700.5345355,1,1.17496120799842
106,6,3,categorization,0,kitchen,SHINEd_sun_aexklacwqwezaorf.tif,84,0.0666666666666667,0.0666666666666667,1.11666666666667,29700.539241125,29704.628794875,13,29700.600971792,29700.661929167,29704.647736667,29705.757795375,0,4.08955375000005
106,7,3,categorization,0,kitchen,SHINEd_sun_ajkqhtgcbgpcwrwn.tif,97,0.0666666666666667,0.0666666666666667,0.966666666666667,29705.767928292,29710.127948083,13,29705.832605208,29705.900498958,29710.14464375,29711.1046475,0,4.36001979100183
106,8,3,categorization,0,bathroom,SHINEd_sun_axxbkopsgyouuebh.tif,58,0.0666666666666667,0.0666666666666667,1.78333333333333,29711.108890792,29712.633214083,13,29711.17045375,29711.231865625,29712.651257458,29714.427974333,1,1.52432329100338
106,9,3,categorization,0,kitchen,SHINEd_sun_abftihopvusyfakt.tif,71,0.0666666666666667,0.0666666666666667,1.55,29714.446380458,29715.784800917,13,29714.5127575,29714.57947425,29715.799353,29717.342726708,0,1.33842045900019
106,10,3,categorization,0,bathroom,SHINEd_sun_asfwthctfqerjvxr.tif,49,0.0666666666666667,0.0666666666666667,1.41666666666667,29717.36128775,29718.450879125,9,29717.429358542,29717.494436583,29718.467518167,29719.87756775,0,1.08959137499915
106,11,3,categorization,0,bathroom,SHINEd_sun_apynckhmoftszqoq.tif,47,0.0666666666666667,0.0666666666666667,0.8,29719.895595125,29720.845466208,13,29719.965003708,29720.028936417,29720.870166042,29721.663504,1,0.949871083001199
106,12,3,categorization,0,kitchen,SHINEd_sun_ahspylgoovwmwvgk.tif,93,0.0666666666666667,0.0666666666666667,1.28333333333333,29721.669630083,29723.033621792,9,29721.731404417,29721.792314417,29723.044637417,29724.321360042,1,1.3639917090004
106,13,3,categorization,0,bathroom,SHINEd_sun_aoybiabnpadelefl.tif,41,0.0666666666666667,0.0666666666666667,1.66666666666667,29724.340098917,29725.713823833,13,29724.406874625,29724.472624,29725.731930625,29727.391972917,1,1.37372491600036
106,14,3,categorization,0,bathroom,SHINEd_sun_aofnryafpsjimzsb.tif,40,0.0666666666666667,0.0666666666666667,1.81666666666667,29727.410088958,29728.597472167,13,29727.476774458,29727.542812,29728.615711542,29730.425768875,1,1.18738320899865
106,15,3,categorization,0,kitchen,SHINEd_sun_acwjdupvyjsugpay.tif,76,0.0666666666666667,0.0666666666666667,1.35,29730.441426917,29731.381707,9,29730.508630625,29730.574145167,29731.396637292,29732.740016333,1,0.940280082999379
106,16,3,categorization,0,bathroom,SHINEd_sun_aggnnqpdorgxpvce.tif,21,0.0666666666666667,0.0666666666666667,0.916666666666667,29732.759122333,29733.885142625,9,29732.825861958,29732.891927333,29733.915278167,29734.825282667,0,1.12602029200207
106,17,3,categorization,0,bathroom,SHINEd_sun_acegryoqftbzowsg.tif,17,0.0666666666666667,0.0666666666666667,0.916666666666667,29734.830985417,29735.889801917,9,29734.892800583,29734.953672708,29735.906028542,29736.816033042,0,1.05881650000083
106,18,3,categorization,0,kitchen,SHINEd_sun_acfmftudsenhrfhy.tif,74,0.0666666666666667,0.0666666666666667,1.31666666666667,29736.82161875,29737.873335708,13,29736.883388125,29736.94437425,29737.880247208,29739.190301625,0,1.051716957998
106,19,3,categorization,0,kitchen,SHINEd_sun_akcjzhbbjlbogpdi.tif,99,0.0666666666666667,0.0666666666666667,1.45,29739.207253292,29740.148026958,9,29739.273331375,29739.340038958,29740.161205,29741.604598,1,0.940773665999586
106,20,3,categorization,0,bathroom,SHINEd_sun_agrwbmhcpmfuwmsg.tif,24,0.0666666666666667,0.0666666666666667,0.95,29741.622333458,29742.791205792,9,29741.689152208,29741.75496975,29742.811840708,29743.755179042,0,1.16887233400121
106,21,3,categorization,0,kitchen,SHINEd_sun_ahdycvpopffkzzsu.tif,90,0.0666666666666667,0.0666666666666667,1.38333333333333,29743.7606725,29745.0332295,9,29743.822656417,29743.883398667,29745.05293525,29746.429660625,1,1.27255700000023
106,22,3,categorization,0,kitchen,SHINEd_sun_adgqasybjyktddhj.tif,78,0.0666666666666667,0.0666666666666667,1.16666666666667,29746.449587458,29747.366668042,9,29746.516349042,29746.582570125,29747.389410625,29748.549451792,1,0.91708058400036
106,23,3,categorization,0,bathroom,SHINEd_sun_aavhrsfjbserjtht.tif,13,0.0666666666666667,0.0666666666666667,1.61666666666667,29748.561477333,29749.538542833,9,29748.628077333,29748.694218417,29749.567598625,29751.177652,0,0.977065499999298
106,24,3,categorization,0,kitchen,SHINEd_sun_awcpdzzznmweyyhv.tif,106,0.0666666666666667,0.0666666666666667,1.38333333333333,29751.199253708,29752.172917583,9,29751.266402292,29751.331836417,29752.185908583,29753.562621583,1,0.973663875000057
106,25,3,categorization,0,kitchen,SHINEd_sun_aunzlwrbjumxhwdj.tif,103,0.0666666666666667,0.0666666666666667,1.78333333333333,29753.582715792,29754.4418425,9,29753.649727542,29753.715200625,29754.47187975,29756.248594333,1,0.859126708000986
106,26,3,categorization,0,bathroom,SHINEd_sun_ahaulkltgpkeeemi.tif,26,0.0666666666666667,0.0666666666666667,0.783333333333333,29756.265880542,29757.162401458,13,29756.332783417,29756.398440625,29757.188632625,29757.96530425,1,0.896520916001464
106,27,3,categorization,0,bathroom,SHINEd_sun_apeeialkgkuxddgh.tif,42,0.0666666666666667,0.0666666666666667,1.65,29757.971166833,29758.832958458,13,29758.032844917,29758.093888292,29758.846123917,29760.489497,1,0.861791625000478
106,28,3,categorization,0,bathroom,SHINEd_sun_agguqiubmwhqqunb.tif,22,0.0666666666666667,0.0666666666666667,1.86666666666667,29760.504147458,29761.366225167,13,29760.570774792,29760.636765375,29761.391715833,29763.251762125,1,0.862077709000005
106,29,3,categorization,0,kitchen,SHINEd_sun_admlmbcdswaszruo.tif,79,0.0666666666666667,0.0666666666666667,1.23333333333333,29763.266889,29764.261606375,9,29763.333949667,29763.399716583,29764.270688042,29765.497390542,1,0.994717375000619
106,30,3,categorization,0,kitchen,SHINEd_sun_agzzivivdpnawacl.tif,89,0.0666666666666667,0.0666666666666667,0.7,29765.516141833,29766.77426,13,29765.583020792,29765.64924975,29766.791051458,29767.484390917,0,1.25811816699934
106,31,3,categorization,0,kitchen,SHINEd_sun_abdenxonkemggwsq.tif,69,0.0666666666666667,0.0666666666666667,0.716666666666667,29767.490311542,29768.617645875,9,29767.552126875,29767.612875792,29768.63174125,29769.34174725,1,1.12733433300309
106,32,3,categorization,0,kitchen,SHINEd_sun_aadbddgrdsjugojn.tif,64,0.0666666666666667,0.0666666666666667,1.05,29769.347133417,29770.48934825,9,29769.408858625,29769.469745333,29770.505138,29771.548526458,1,1.14221483300207
106,33,3,categorization,0,bathroom,SHINEd_sun_aleqenyvunhactkl.tif,32,0.0666666666666667,0.0666666666666667,1.1,29771.561507625,29773.13893525,9,29771.6264125,29771.691390333,29773.166983833,29774.260371125,0,1.57742762500129
106,34,3,categorization,0,bathroom,SHINEd_sun_apkruvsevgegsdwp.tif,44,0.0666666666666667,0.0666666666666667,1.13333333333333,29774.271740583,29775.608781792,9,29774.336779875,29774.404577875,29775.630692,29776.757395375,0,1.33704120900074
106,35,3,categorization,0,bathroom,SHINEd_sun_apkxzenqapsujocq.tif,45,0.0666666666666667,0.0666666666666667,1.38333333333333,29776.768607375,29777.715183208,13,29776.833833583,29776.898021667,29777.738025958,29779.114746833,1,0.946575833000679
106,36,3,categorization,0,bathroom,SHINEd_sun_axldvoqbuvuggfmq.tif,57,0.0666666666666667,0.0666666666666667,1.5,29779.134857,29780.929258542,13,29779.202019167,29779.2681405,29780.937872167,29782.431239417,1,1.79440154199983
106,37,3,categorization,0,bathroom,SHINEd_sun_azqyogdvyhahyram.tif,60,0.0666666666666667,0.0666666666666667,1.61666666666667,29782.4511225,29786.095067,13,29782.518238958,29782.583735375,29786.111449583,29787.7214885,1,3.64394449999963
106,38,3,categorization,0,bathroom,SHINEd_sun_ambriybtogmepttm.tif,36,0.0666666666666667,0.0666666666666667,0.983333333333333,29787.740008375,29788.843323833,13,29787.806929042,29787.872777458,29788.862655833,29789.83932675,1,1.103315458
106,39,3,categorization,0,kitchen,SHINEd_sun_aaxxjlsuzvqlgylf.tif,68,0.0666666666666667,0.0666666666666667,1.3,29789.846946375,29791.280772833,9,29789.908644583,29789.969559542,29791.289120625,29792.58250975,1,1.43382645800011
106,40,3,categorization,0,kitchen,SHINEd_sun_aenotlpyftoioydp.tif,82,0.0666666666666667,0.0666666666666667,1.03333333333333,29792.600428875,29794.113251625,9,29792.667008458,29792.733293583,29794.140308583,29795.167035208,1,1.51282274999903
106,41,3,categorization,0,bathroom,SHINEd_sun_atstyziqcmkahyxk.tif,51,0.0666666666666667,0.0666666666666667,1.45,29795.181040583,29796.328504375,9,29795.246541333,29795.312845458,29796.350949167,29797.794330333,0,1.14746379200005
106,42,3,categorization,0,bathroom,SHINEd_sun_ahijqszoswveeyji.tif,28,0.0666666666666667,0.0666666666666667,1.23333333333333,29797.812559167,29798.942367583,9,29797.879070875,29797.946907125,29798.970355708,29800.197086708,0,1.12980841600074
106,43,3,categorization,0,kitchen,SHINEd_sun_ahljzhgcdpomplvg.tif,91,0.0666666666666667,0.0666666666666667,1.26666666666667,29800.209151083,29801.254704167,9,29800.277724542,29800.342078583,29801.28215525,29802.54220675,1,1.04555308400086
106,44,3,categorization,0,kitchen,SHINEd_sun_abpwyqmlzafvklqo.tif,72,0.0666666666666667,0.0666666666666667,1.03333333333333,29802.560838125,29803.733042333,9,29802.628913667,29802.693811542,29803.750188833,29804.776900792,1,1.17220420800004
106,45,3,categorization,0,bathroom,SHINEd_sun_axyrejkiiaqiurjk.tif,59,0.0666666666666667,0.0666666666666667,1.31666666666667,29804.788937458,29805.792955083,9,29804.854572708,29804.920437208,29805.810442458,29807.120500875,0,1.00401762500042
106,46,3,categorization,0,kitchen,SHINEd_sun_aymvwlarqodbwuoc.tif,108,0.0666666666666667,0.0666666666666667,1.7,29807.1389765,29807.859148667,13,29807.207592292,29807.27203325,29807.878212333,29809.571600167,0,0.720172167002602
106,47,3,categorization,0,bathroom,SHINEd_sun_aunuadmjocsddsrl.tif,52,0.0666666666666667,0.0666666666666667,1.35,29809.591341125,29810.821955208,9,29809.658493542,29809.724123542,29810.850371375,29812.193759958,0,1.23061408300055
106,48,3,categorization,0,kitchen,SHINEd_sun_abdxkyyxwfskuaqb.tif,70,0.0666666666666667,0.0666666666666667,0.8,29812.204906625,29813.17224175,13,29812.271978708,29812.338199792,29813.195420708,29813.98875925,0,0.967335124998499
106,49,3,categorization,0,bathroom,SHINEd_sun_afcoljnjfoxjtgja.tif,20,0.0666666666666667,0.0666666666666667,0.766666666666667,29813.99700475,29815.297141833,9,29814.05880225,29814.11971125,29815.305880458,29816.065886083,0,1.30013708300248
106,50,3,categorization,0,kitchen,SHINEd_labelme_rykdqxenmhulbdn.tif,63,0.0666666666666667,0.0666666666666667,1.38333333333333,29816.071140167,29817.337056042,9,29816.132841625,29816.193884083,29817.346147875,29818.722853875,1,1.26591587499934
106,1,4,categorization,0,bathroom,SHINEd_sun_alkosphxlxwjwgjd.tif,34,0.0666666666666667,0.0666666666666667,1,29829.469961958,29831.0010645,13,29829.532089708,29829.592642833,29831.011790667,29832.005129542,1,1.53110254200146
106,2,4,categorization,0,bathroom,SHINEd_sun_aclfzgynxzxlbepz.tif,19,0.0666666666666667,0.0666666666666667,0.966666666666667,29832.01006375,29833.016685917,13,29832.071662875,29832.13277,29833.034881542,29833.994886042,1,1.00662216699857
106,3,4,categorization,0,bathroom,SHINEd_sun_aapitsgbtktqubfy.tif,12,0.0666666666666667,0.0666666666666667,1.75,29833.999764417,29834.848620375,13,29834.061534042,29834.122357208,29834.858107292,29836.601490708,1,0.848855958000058
106,4,4,categorization,0,kitchen,SHINEd_sun_agorklincwxrdtga.tif,87,0.0666666666666667,0.0666666666666667,1.68333333333333,29836.619730167,29838.064981375,13,29836.686317458,29836.75250825,29838.07218925,29839.748893917,0,1.44525120799881
106,5,4,categorization,0,bathroom,SHINEd_sun_acgyywnybuveqsro.tif,18,0.0666666666666667,0.0666666666666667,1.58333333333333,29839.767368833,29840.683897083,13,29839.834590792,29839.900241583,29840.70704475,29842.283774,1,0.916528249999828
106,6,4,categorization,0,kitchen,SHINEd_sun_aamedkxepzlwuxes.tif,65,0.0666666666666667,0.0666666666666667,1,29842.302294958,29843.777113292,9,29842.369383125,29842.435798042,29843.78964,29844.78297775,1,1.47481833399797
106,7,4,categorization,0,bathroom,SHINEd_sun_amzlamotzwfkwjco.tif,37,0.0666666666666667,0.0666666666666667,1.33333333333333,29844.788030375,29845.56071775,13,29844.849964792,29844.910878167,29845.579524542,29846.906244083,1,0.772687374999805
106,8,4,categorization,0,kitchen,SHINEd_sun_ahywdevtimnqcsln.tif,94,0.0666666666666667,0.0666666666666667,1.26666666666667,29846.923126292,29849.473010333,13,29846.989745333,29847.056129167,29849.492702417,29850.752756875,0,2.54988404100004
106,9,4,categorization,0,kitchen,SHINEd_sun_afuyedyxivkhecmu.tif,85,0.0666666666666667,0.0666666666666667,0.883333333333333,29850.77042075,29851.004985542,13,29850.838277958,29850.9031215,29851.026461667,29851.903182333,0,0.234564792001038
106,10,4,categorization,0,kitchen,SHINEd_sun_ahpczsiumwwocjkv.tif,92,0.0666666666666667,0.0666666666666667,1.26666666666667,29851.917312375,29853.473023583,9,29851.983631583,29852.050189917,29853.48603525,29854.746098417,1,1.55571120799868
106,11,4,categorization,0,bathroom,SHINEd_sun_abapwbhyhkfixyex.tif,14,0.0666666666666667,0.0666666666666667,2,29854.766750208,29856.042786625,9,29854.833483875,29854.89964075,29856.075888208,29858.069262292,0,1.27603641699898
106,12,4,categorization,0,bathroom,SHINEd_sun_avhrdrntsqrjzccq.tif,55,0.0666666666666667,0.0666666666666667,0.733333333333333,29858.087147542,29859.417044125,13,29858.152354042,29858.219575875,29859.422251083,29860.148922583,1,1.32989658299994
106,13,4,categorization,0,bathroom,SHINEd_sun_ausgutylgojavyoq.tif,53,0.0666666666666667,0.0666666666666667,0.883333333333333,29860.153602958,29864.528012,13,29860.215378583,29860.276255333,29864.54580425,29865.422474583,1,4.37440904200048
106,14,4,categorization,0,kitchen,SHINEd_sun_aapllqyqlykszopd.tif,66,0.0666666666666667,0.0666666666666667,0.983333333333333,29865.426936083,29868.472598208,13,29865.488910792,29865.549613083,29868.485481625,29869.462153125,0,3.0456621250014
106,15,4,categorization,0,bathroom,SHINEd_sun_auzqhkafidnkrwmo.tif,54,0.0666666666666667,0.0666666666666667,1.56666666666667,29869.467072917,29870.344386333,13,29869.52865725,29869.589832583,29870.358394,29871.918429667,1,0.877313416000106
106,16,4,categorization,0,bathroom,SHINEd_sun_abjtwfukuwddzted.tif,15,0.0666666666666667,0.0666666666666667,1.08333333333333,29871.937525,29873.052592083,13,29872.004302958,29872.070317042,29873.076890167,29874.15361075,1,1.1150670829993
106,17,4,categorization,0,kitchen,SHINEd_sun_akchetnepxlcxhsu.tif,98,0.0666666666666667,0.0666666666666667,0.75,29874.163873167,29875.080976,13,29874.228436083,29874.293924083,29875.100492083,29875.843870167,0,0.917102833001991
106,18,4,categorization,0,bathroom,SHINEd_sun_apmqjbnwghzuhhzh.tif,46,0.0666666666666667,0.0666666666666667,0.966666666666667,29875.860530625,29876.608680542,13,29875.926972833,29875.99342225,29876.612463375,29877.572469208,1,0.748149916998955
106,19,4,categorization,0,kitchen,SHINEd_sun_aqeaevwwwjoqhzvl.tif,101,0.0666666666666667,0.0666666666666667,1.63333333333333,29877.577382792,29879.009277167,13,29877.639155417,29877.700049,29879.019338125,29880.646049917,0,1.43189437500041
106,20,4,categorization,0,kitchen,SHINEd_sun_aehawpgmrlhlvcow.tif,81,0.0666666666666667,0.0666666666666667,1.46666666666667,29880.667452167,29881.548469417,9,29880.733913375,29880.799961458,29881.573392917,29883.033427042,1,0.881017250001605
106,21,4,categorization,0,bathroom,SHINEd_sun_agyqfjcfkdcydepw.tif,25,0.0666666666666667,0.0666666666666667,0.933333333333333,29883.053556208,29884.429610458,9,29883.121143292,29883.187150833,29884.465343125,29885.39201425,0,1.37605424999856
106,22,4,categorization,0,kitchen,SHINEd_labelme_brsyyvweiuaazfr.tif,61,0.0666666666666667,0.0666666666666667,1.45,29885.397560958,29886.20077775,13,29885.459308083,29885.520123375,29886.205197583,29887.648574125,0,0.803216791999148
106,23,4,categorization,0,bathroom,SHINEd_sun_awnqiikzaispgmwo.tif,56,0.0666666666666667,0.0666666666666667,0.966666666666667,29887.666861833,29888.938446542,13,29887.733489667,29887.800096125,29888.95911125,29889.919116458,1,1.27158470900031
106,24,4,categorization,0,bathroom,SHINEd_sun_aspsyogrekjtfozg.tif,50,0.0666666666666667,0.0666666666666667,0.816666666666667,29889.924143917,29890.825024292,13,29889.986081083,29890.047009167,29890.832764708,29891.642769833,1,0.90088037500027
106,25,4,categorization,0,bathroom,SHINEd_sun_apjevzvycyhuqghb.tif,43,0.0666666666666667,0.0666666666666667,1.96666666666667,29891.6476895,29892.608985125,13,29891.709398583,29891.770297375,29892.62218075,29894.582226917,1,0.961295624998456
106,26,4,categorization,0,kitchen,SHINEd_sun_auticobqsbwgoppi.tif,104,0.0666666666666667,0.0666666666666667,0.916666666666667,29894.600055125,29895.504679708,13,29894.66681275,29894.733008083,29895.522454375,29896.432458083,0,0.904624582999531
106,27,4,categorization,0,bathroom,SHINEd_sun_acduarbnmmoglmiv.tif,16,0.0666666666666667,0.0666666666666667,1.28333333333333,29896.437509708,29897.472622208,9,29896.499243458,29896.560203375,29897.47919325,29898.755898042,0,1.03511249999792
106,28,4,categorization,0,bathroom,SHINEd_sun_akiytfaagpdsphgz.tif,31,0.0666666666666667,0.0666666666666667,1.8,29898.770583042,29899.627427958,13,29898.83739275,29898.903617583,29899.64270225,29901.436089167,1,0.856844915997499
106,29,4,categorization,0,kitchen,SHINEd_sun_abrcnpqqhmjwekyf.tif,73,0.0666666666666667,0.0666666666666667,1.33333333333333,29901.454574833,29902.609504292,9,29901.521323875,29901.587605375,29902.627058292,29903.95378725,1,1.15492945900041
106,30,4,categorization,0,bathroom,SHINEd_sun_aljolscmmzydegqp.tif,33,0.0666666666666667,0.0666666666666667,1.06666666666667,29903.971416125,29904.900909583,9,29904.037264167,29904.101575583,29904.925162833,29905.985212125,0,0.929493457999342
106,31,4,categorization,0,bathroom,SHINEd_sun_ahcvzmoyaycdoftf.tif,27,0.0666666666666667,0.0666666666666667,1.03333333333333,29905.997060875,29907.290787625,9,29906.061759,29906.127891417,29907.320376125,29908.347092792,0,1.29372674999831
106,32,4,categorization,0,kitchen,SHINEd_labelme_kxvouciolcpqplr.tif,62,0.0666666666666667,0.0666666666666667,0.733333333333333,29908.356917208,29909.189286375,13,29908.42117225,29908.488160167,29909.211956958,29909.93868425,0,0.832369167001161
106,33,4,categorization,0,kitchen,SHINEd_sun_azmutvzbxypaceni.tif,110,0.0666666666666667,0.0666666666666667,0.766666666666667,29909.955671458,29910.936228208,9,29910.022323042,29910.088270792,29910.940414833,29911.700418917,1,0.980556750000687
106,34,4,categorization,0,bathroom,SHINEd_sun_anhioqovhscjqqwb.tif,38,0.0666666666666667,0.0666666666666667,1.1,29911.705247042,29912.632344417,9,29911.766952667,29911.827919,29912.646827458,29913.7402245,0,0.927097375002631
106,35,4,categorization,0,kitchen,SHINEd_sun_axyyrmzcupyhlivc.tif,107,0.0666666666666667,0.0666666666666667,1.81666666666667,29913.749105833,29914.573605208,9,29913.814049458,29913.881899542,29914.58742725,29916.397487042,1,0.824499374997686
106,36,4,categorization,0,kitchen,SHINEd_sun_avszsnwsbuqfgzbn.tif,105,0.0666666666666667,0.0666666666666667,0.883333333333333,29916.414910875,29917.686547125,13,29916.481460708,29916.547790292,29917.706694417,29918.583365375,0,1.27163624999957
106,37,4,categorization,0,bathroom,SHINEd_labelme_sfxiulhjbhlyiyt.tif,11,0.0666666666666667,0.0666666666666667,1.7,29918.588035833,29919.408866917,13,29918.649786792,29918.710769833,29919.41313525,29921.106501875,1,0.820831084001838
106,38,4,categorization,0,kitchen,SHINEd_sun_aarfiyshqohlwkmo.tif,67,0.0666666666666667,0.0666666666666667,1.58333333333333,29921.124046083,29922.09717325,13,29921.190627167,29921.256975583,29922.112836333,29923.689558875,0,0.973127166998893
106,39,4,categorization,0,kitchen,SHINEd_sun_aypmqwcualkenuoe.tif,109,0.0666666666666667,0.0666666666666667,0.833333333333333,29923.706844833,29925.224627833,13,29923.773442708,29923.8393785,29925.242351625,29926.0690245,0,1.51778299999933
106,40,4,categorization,0,kitchen,SHINEd_sun_aegoxogugdkwpmpj.tif,80,0.0666666666666667,0.0666666666666667,0.95,29926.073880583,29928.152187875,13,29926.135673833,29926.196565875,29928.165508083,29929.108846,0,2.0783072919985
106,41,4,categorization,0,bathroom,SHINEd_sun_aqrpegblszgcoujh.tif,48,0.0666666666666667,0.0666666666666667,1.06666666666667,29929.113860125,29930.265066583,13,29929.175647458,29929.236443208,29930.271701208,29931.331748708,1,1.15120645800198
106,42,4,categorization,0,kitchen,SHINEd_sun_ajcbwwvdlsvjyzje.tif,96,0.0666666666666667,0.0666666666666667,1.68333333333333,29931.341280083,29932.242455833,13,29931.405625708,29931.471487625,29932.260943875,29933.937650583,0,0.901175749997492
106,43,4,categorization,0,kitchen,SHINEd_sun_acgtpgfybqjmzeyw.tif,75,0.0666666666666667,0.0666666666666667,1.31666666666667,29933.955892625,29934.732250208,9,29934.02258725,29934.088639458,29934.761841208,29936.071877667,1,0.776357582999481
106,44,4,categorization,0,kitchen,SHINEd_sun_aggjlwcdjsjcaemh.tif,86,0.0666666666666667,0.0666666666666667,1.61666666666667,29936.089810708,29937.144949875,9,29936.154815292,29936.222512292,29937.161798167,29938.771843542,1,1.05513916700147
106,45,4,categorization,0,bathroom,SHINEd_sun_ajlawzvmubibwbpy.tif,30,0.0666666666666667,0.0666666666666667,1.15,29938.791214208,29939.668868042,13,29938.858135875,29938.923811417,29939.697090792,29940.840483208,1,0.877653834002558
106,46,4,categorization,0,kitchen,SHINEd_sun_acxkpeoqbwcxfvip.tif,77,0.0666666666666667,0.0666666666666667,1.25,29940.850920125,29941.725760292,9,29940.917459042,29940.983664,29941.739310708,29942.982697125,1,0.874840166998183
106,47,4,categorization,0,kitchen,SHINEd_sun_amjjdeyrggfqgmom.tif,100,0.0666666666666667,0.0666666666666667,1.1,29943.000598125,29943.85710725,9,29943.067004458,29943.133472333,29943.87277175,29944.96615675,1,0.856509125002049
106,48,4,categorization,0,kitchen,SHINEd_sun_aixorpehvfykdynp.tif,95,0.0666666666666667,0.0666666666666667,0.9,29944.973656833,29945.80827175,9,29945.035434208,29945.096334708,29945.815056292,29946.708394292,1,0.834614916999271
106,49,4,categorization,0,bathroom,SHINEd_sun_ahqjwnzgolcaoidx.tif,29,0.0666666666666667,0.0666666666666667,1.3,29946.713417625,29947.777031625,9,29946.775068292,29946.836037042,29947.788205333,29949.081585708,0,1.06361399999878
106,50,4,categorization,0,bathroom,SHINEd_sun_aghyqhbptboemmoq.tif,23,0.0666666666666667,0.0666666666666667,1.25,29949.097466208,29950.402132542,9,29949.164167375,29949.230122292,29950.422244875,29951.665614417,0,1.30466633399919
106,1,5,categorization,0,bathroom,SHINEd_sun_apkruvsevgegsdwp.tif,44,0.0666666666666667,0.0666666666666667,1.7,29960.223552875,29961.576473583,13,29960.285682917,29960.346173792,29961.581988208,29963.275375833,1,1.35292070800278
106,2,5,categorization,0,kitchen,SHINEd_sun_aarfiyshqohlwkmo.tif,67,0.0666666666666667,0.0666666666666667,1.81666666666667,29963.29378375,29965.43251825,9,29963.360237083,29963.427130458,29965.446994208,29967.257055125,1,2.13873450000028
106,3,5,categorization,0,bathroom,SHINEd_sun_aavhrsfjbserjtht.tif,13,0.0666666666666667,0.0666666666666667,1.23333333333333,29967.268522417,29968.560089208,13,29967.336065208,29967.401300958,29968.571463292,29969.798176625,1,1.29156679099833
106,4,5,categorization,0,kitchen,SHINEd_labelme_brsyyvweiuaazfr.tif,61,0.0666666666666667,0.0666666666666667,1.4,29969.815895708,29971.177271917,13,29969.883322833,29969.948586,29971.208981667,29972.602355792,0,1.36137620899899
106,5,5,categorization,0,kitchen,SHINEd_sun_aexklacwqwezaorf.tif,84,0.0666666666666667,0.0666666666666667,1.03333333333333,29972.620961042,29974.376730375,13,29972.687915667,29972.753545583,29974.389621917,29975.41632375,0,1.75576933299817
106,6,5,categorization,0,kitchen,SHINEd_sun_awcpdzzznmweyyhv.tif,106,0.0666666666666667,0.0666666666666667,1.38333333333333,29975.426022,29976.668822583,9,29975.490339083,29975.557551875,29976.7008265,29978.077533292,1,1.24280058300064
106,7,5,categorization,0,bathroom,SHINEd_sun_ahcvzmoyaycdoftf.tif,27,0.0666666666666667,0.0666666666666667,2,29978.09985525,29979.499059167,9,29978.165069958,29978.232025792,29979.525292375,29981.518673333,0,1.3992039170007
106,8,5,categorization,0,kitchen,SHINEd_sun_akchetnepxlcxhsu.tif,98,0.0666666666666667,0.0666666666666667,1.85,29981.537005417,29982.410832958,13,29981.604011792,29981.669437625,29982.425225167,29984.268599125,0,0.873827540999628
106,9,5,categorization,0,bathroom,SHINEd_sun_atstyziqcmkahyxk.tif,51,0.0666666666666667,0.0666666666666667,0.816666666666667,29984.286698208,29985.325735292,13,29984.353642417,29984.419577167,29985.342232417,29986.152235958,1,1.03903708399957
106,10,5,categorization,0,kitchen,SHINEd_sun_acxkpeoqbwcxfvip.tif,77,0.0666666666666667,0.0666666666666667,1.85,29986.157302375,29987.144251917,9,29986.219101458,29986.279943625,29987.1489865,29988.992358667,1,0.986949542002549
106,11,5,categorization,0,kitchen,SHINEd_sun_acfmftudsenhrfhy.tif,74,0.0666666666666667,0.0666666666666667,0.733333333333333,29989.010586458,29990.376813583,13,29989.076714417,29989.143273,29990.395960125,29991.12263075,0,1.36622712499957
106,12,5,categorization,0,kitchen,SHINEd_sun_aggjlwcdjsjcaemh.tif,86,0.0666666666666667,0.0666666666666667,0.716666666666667,29991.127012542,29992.296059667,9,29991.188884083,29991.24971525,29992.302135833,29993.01214,1,1.16904712499672
106,13,5,categorization,0,bathroom,SHINEd_sun_apjevzvycyhuqghb.tif,43,0.0666666666666667,0.0666666666666667,0.833333333333333,29993.016762458,29993.975829083,9,29993.078615208,29993.139458958,29993.99206125,29994.818731917,0,0.95906662500056
106,14,5,categorization,0,bathroom,SHINEd_sun_azqyogdvyhahyram.tif,60,0.0666666666666667,0.0666666666666667,0.95,29994.823557958,29995.936872333,9,29994.885274625,29994.946156833,29995.948396083,29996.891733042,0,1.11331437500121
106,15,5,categorization,0,bathroom,SHINEd_sun_agguqiubmwhqqunb.tif,22,0.0666666666666667,0.0666666666666667,1.96666666666667,29996.896430208,29997.960482833,9,29996.958055833,29997.018950542,29997.971033,29999.931078,0,1.06405262500266
106,16,5,categorization,0,kitchen,SHINEd_sun_aunzlwrbjumxhwdj.tif,103,0.0666666666666667,0.0666666666666667,1.86666666666667,29999.94959625,30000.856510208,9,30000.01623575,30000.082481083,30000.871667667,30002.731708875,1,0.906913957998768
106,17,5,categorization,0,kitchen,SHINEd_sun_azmutvzbxypaceni.tif,110,0.0666666666666667,0.0666666666666667,1.51666666666667,30002.746238125,30003.772790875,9,30002.812724083,30002.878902458,30003.802215542,30005.312270125,1,1.02655274999779
106,18,5,categorization,0,kitchen,SHINEd_sun_aypmqwcualkenuoe.tif,109,0.0666666666666667,0.0666666666666667,1.3,30005.330601792,30006.101950375,9,30005.397090458,30005.463412292,30006.11750125,30007.41089425,1,0.771348582999053
106,19,5,categorization,0,bathroom,SHINEd_sun_aqrpegblszgcoujh.tif,48,0.0666666666666667,0.0666666666666667,1.91666666666667,30007.428566833,30008.397449708,9,30007.495366083,30007.561654,30008.417950917,30010.328000208,0,0.968882875000418
106,20,5,categorization,0,kitchen,SHINEd_sun_auticobqsbwgoppi.tif,104,0.0666666666666667,0.0666666666666667,1.23333333333333,30010.3474355,30011.393246458,9,30010.414098708,30010.480206,30011.420043208,30012.646763875,1,1.04581095799949
106,21,5,categorization,0,bathroom,SHINEd_sun_abapwbhyhkfixyex.tif,14,0.0666666666666667,0.0666666666666667,0.866666666666667,30012.665822792,30013.611426875,9,30012.732551542,30012.798646792,30013.638117375,30014.49816675,0,0.945604082997306
106,22,5,categorization,0,kitchen,SHINEd_sun_abrcnpqqhmjwekyf.tif,73,0.0666666666666667,0.0666666666666667,0.8,30014.505621917,30015.696373458,9,30014.567481875,30014.62827875,30015.713727875,30016.507065458,1,1.19075154099846
106,23,5,categorization,0,bathroom,SHINEd_sun_ahijqszoswveeyji.tif,28,0.0666666666666667,0.0666666666666667,1.51666666666667,30016.512474042,30017.912250042,9,30016.574289917,30016.635170375,30017.92129625,30019.431343333,0,1.39977600000202
106,24,5,categorization,0,bathroom,SHINEd_sun_akiytfaagpdsphgz.tif,31,0.0666666666666667,0.0666666666666667,1.18333333333333,30019.449220333,30020.723907583,9,30019.515622083,30019.581833125,30020.740758083,30021.917474833,0,1.27468724999926
106,25,5,categorization,0,kitchen,SHINEd_sun_ahljzhgcdpomplvg.tif,91,0.0666666666666667,0.0666666666666667,1.6,30021.930049042,30022.855517583,9,30021.997654792,30022.063140667,30022.886630333,30024.480027167,1,0.925468541001464
106,26,5,categorization,0,kitchen,SHINEd_sun_agubuxuukhzyzpdp.tif,88,0.0666666666666667,0.0666666666666667,1.56666666666667,30024.501268333,30025.37548975,9,30024.568106458,30024.634156792,30025.389927167,30026.949972875,1,0.874221417001536
106,27,5,categorization,0,bathroom,SHINEd_sun_aljolscmmzydegqp.tif,33,0.0666666666666667,0.0666666666666667,1.36666666666667,30026.967111125,30027.9341445,9,30027.034004667,30027.099928208,30027.956857125,30029.316910333,0,0.967033375000028
106,28,5,categorization,0,kitchen,SHINEd_sun_avszsnwsbuqfgzbn.tif,105,0.0666666666666667,0.0666666666666667,1.53333333333333,30029.335920417,30030.2296345,9,30029.403126917,30029.468641792,30030.258767583,30031.78548,1,0.893714082998486
106,29,5,categorization,0,kitchen,SHINEd_sun_agorklincwxrdtga.tif,87,0.0666666666666667,0.0666666666666667,1.4,30031.803649542,30032.870215417,9,30031.8705055,30031.936228292,30032.893102,30034.2864815,1,1.06656587500038
106,30,5,categorization,0,bathroom,SHINEd_sun_aghyqhbptboemmoq.tif,23,0.0666666666666667,0.0666666666666667,1.06666666666667,30034.3056145,30035.268592708,9,30034.373089458,30034.4385505,30035.296046125,30036.356101875,0,0.962978207997367
106,31,5,categorization,0,kitchen,SHINEd_sun_ahspylgoovwmwvgk.tif,93,0.0666666666666667,0.0666666666666667,1.63333333333333,30036.368877125,30037.301562042,9,30036.433876292,30036.500503583,30037.32550925,30038.952238083,1,0.932684916999278
106,32,5,categorization,0,kitchen,SHINEd_sun_auaiucuqpdausiva.tif,102,0.0666666666666667,0.0666666666666667,1.8,30038.971194167,30039.737039,9,30039.040288708,30039.103895292,30039.761661333,30041.5550475,1,0.765844833000301
106,33,5,categorization,0,bathroom,SHINEd_sun_afcoljnjfoxjtgja.tif,20,0.0666666666666667,0.0666666666666667,1.53333333333333,30041.573345917,30042.232309083,9,30041.640475875,30041.706188292,30042.263559292,30043.790266833,0,0.658963165999012
106,34,5,categorization,0,bathroom,SHINEd_sun_ajlawzvmubibwbpy.tif,30,0.0666666666666667,0.0666666666666667,0.766666666666667,30043.804835917,30044.576407917,9,30043.872708958,30043.937891708,30044.59491375,30045.354927458,0,0.77157200000147
106,35,5,categorization,0,kitchen,SHINEd_sun_aadbddgrdsjugojn.tif,64,0.0666666666666667,0.0666666666666667,1.86666666666667,30045.362742375,30046.3840025,9,30045.424881458,30045.485475375,30046.387135083,30048.2471725,1,1.02126012499866
106,36,5,categorization,0,kitchen,SHINEd_sun_aamedkxepzlwuxes.tif,65,0.0666666666666667,0.0666666666666667,1.13333333333333,30048.264506458,30049.145522417,9,30048.331181625,30048.397135458,30049.170568083,30050.297293375,1,0.881015958999342
106,37,5,categorization,0,bathroom,SHINEd_sun_axxbkopsgyouuebh.tif,58,0.0666666666666667,0.0666666666666667,1.73333333333333,30050.306831417,30051.571651167,9,30050.371709667,30050.439137042,30051.597425792,30053.32413325,0,1.26481974999842
106,38,5,categorization,0,bathroom,SHINEd_sun_aspsyogrekjtfozg.tif,50,0.0666666666666667,0.0666666666666667,0.766666666666667,30053.341849625,30054.153796333,13,30053.408698583,30053.474315875,30054.179556917,30054.939561542,1,0.811946707999596
106,39,5,categorization,0,bathroom,SHINEd_sun_aapitsgbtktqubfy.tif,12,0.0666666666666667,0.0666666666666667,1.85,30054.94597125,30055.711814292,13,30055.007753083,30055.068652667,30055.720718208,30057.564111042,1,0.765843042001507
106,40,5,categorization,0,kitchen,SHINEd_sun_abpwyqmlzafvklqo.tif,72,0.0666666666666667,0.0666666666666667,0.966666666666667,30057.58097225,30058.3242145,13,30057.647379125,30057.713823,30058.353790542,30059.313794708,0,0.74324224999873
106,41,5,categorization,0,kitchen,SHINEd_sun_afuyedyxivkhecmu.tif,85,0.0666666666666667,0.0666666666666667,1.06666666666667,30059.318901417,30060.127630458,13,30059.380648917,30059.441569792,30060.143376625,30061.203427875,0,0.808729041000333
106,42,5,categorization,0,kitchen,SHINEd_sun_aegoxogugdkwpmpj.tif,80,0.0666666666666667,0.0666666666666667,1.38333333333333,30061.213322042,30062.049911125,13,30061.277905958,30061.343639208,30062.066247292,30063.442966875,0,0.836589082999126
106,43,5,categorization,0,bathroom,SHINEd_sun_acduarbnmmoglmiv.tif,16,0.0666666666666667,0.0666666666666667,0.766666666666667,30063.460994417,30064.310084,13,30063.527223,30063.593587542,30064.333205417,30065.093252125,1,0.849089583000023
106,44,5,categorization,0,kitchen,SHINEd_sun_aixorpehvfykdynp.tif,95,0.0666666666666667,0.0666666666666667,0.866666666666667,30065.109942,30066.207877792,13,30065.176271042,30065.242558,30066.211155792,30067.071161083,0,1.0979357920005
106,45,5,categorization,0,kitchen,SHINEd_sun_aehawpgmrlhlvcow.tif,81,0.0666666666666667,0.0666666666666667,1.25,30067.076049708,30067.815843208,9,30067.137835542,30067.198641458,30067.834051292,30069.077427875,1,0.739793500000815
106,46,5,categorization,0,kitchen,SHINEd_sun_ahdycvpopffkzzsu.tif,90,0.0666666666666667,0.0666666666666667,1.03333333333333,30069.097698333,30070.52902725,9,30069.163947833,30069.230040292,30070.5555915,30071.582308583,1,1.43132891699861
106,47,5,categorization,0,bathroom,SHINEd_sun_agyqfjcfkdcydepw.tif,25,0.0666666666666667,0.0666666666666667,0.783333333333333,30071.592937042,30072.472400208,9,30071.657501125,30071.723819833,30072.497317708,30073.274046042,0,0.879463165998459
106,48,5,categorization,0,kitchen,SHINEd_sun_aaxxjlsuzvqlgylf.tif,68,0.0666666666666667,0.0666666666666667,0.7,30073.291105708,30074.055763875,9,30073.357748708,30073.422930167,30074.075333417,30074.768670542,1,0.764658167001471
106,49,5,categorization,0,kitchen,SHINEd_labelme_kxvouciolcpqplr.tif,62,0.0666666666666667,0.0666666666666667,1.75,30074.773637,30075.631967417,9,30074.835270292,30074.896260083,30075.648568667,30077.3919615,1,0.858330417002435
106,50,5,categorization,0,kitchen,SHINEd_sun_abdxkyyxwfskuaqb.tif,70,0.0666666666666667,0.0666666666666667,1.36666666666667,30077.409759875,30078.364995333,9,30077.476367792,30077.542069875,30078.381206042,30079.741256042,1,0.955235457997333
106,1,6,categorization,0,kitchen,SHINEd_sun_aenotlpyftoioydp.tif,82,0.0666666666666667,0.0666666666666667,0.966666666666667,30087.803796208,30089.360184708,9,30087.866199583,30087.926758167,30089.379473958,30090.339478083,1,1.55638849999741
106,2,6,categorization,0,kitchen,SHINEd_sun_axyyrmzcupyhlivc.tif,107,0.0666666666666667,0.0666666666666667,1.73333333333333,30090.345477,30091.360210542,9,30090.407290125,30090.46803775,30091.369838375,30093.096541625,1,1.01473354200061
106,3,6,categorization,0,bathroom,SHINEd_sun_aunuadmjocsddsrl.tif,52,0.0666666666666667,0.0666666666666667,1.91666666666667,30093.112805792,30094.067168583,9,30093.179341833,30093.245402625,30094.085138875,30095.995183458,0,0.954362790998857
106,4,6,categorization,0,kitchen,SHINEd_labelme_rykdqxenmhulbdn.tif,63,0.0666666666666667,0.0666666666666667,0.766666666666667,30096.013910458,30097.23207825,9,30096.08052675,30096.145180083,30097.247651208,30098.007656167,1,1.21816779199798
106,5,6,categorization,0,bathroom,SHINEd_sun_aofnryafpsjimzsb.tif,40,0.0666666666666667,0.0666666666666667,0.916666666666667,30098.012590125,30099.159964583,9,30098.074435208,30098.135314,30099.171098583,30100.081103917,0,1.14737445799983
106,6,6,categorization,0,bathroom,SHINEd_sun_axyrejkiiaqiurjk.tif,59,0.0666666666666667,0.0666666666666667,1.18333333333333,30100.085827875,30100.919785042,9,30100.147627833,30100.208463792,30100.927069958,30102.103757458,0,0.833957167000335
106,7,6,categorization,0,bathroom,SHINEd_sun_ahaulkltgpkeeemi.tif,26,0.0666666666666667,0.0666666666666667,1.8,30102.114029167,30104.272136958,13,30102.179093208,30102.2463655,30104.282120125,30106.075509458,1,2.15810779099775
106,8,6,categorization,0,bathroom,SHINEd_sun_abjtwfukuwddzted.tif,15,0.0666666666666667,0.0666666666666667,0.883333333333333,30106.094021792,30107.280848542,13,30106.158893542,30106.22641775,30107.298741333,30108.175412917,1,1.18682674999945
106,9,6,categorization,0,bathroom,SHINEd_sun_axldvoqbuvuggfmq.tif,57,0.0666666666666667,0.0666666666666667,1.83333333333333,30108.180122792,30109.983617667,9,30108.241910792,30108.302831583,30109.988598167,30111.815341083,0,1.80349487499916
106,10,6,categorization,0,bathroom,SHINEd_sun_apkxzenqapsujocq.tif,45,0.0666666666666667,0.0666666666666667,1.76666666666667,30111.829367208,30112.623575958,13,30111.896103708,30111.962094167,30112.651896792,30114.411958292,1,0.794208750001417
106,11,6,categorization,0,kitchen,SHINEd_sun_ahpczsiumwwocjkv.tif,92,0.0666666666666667,0.0666666666666667,0.983333333333333,30114.430530875,30115.415249125,9,30114.497485417,30114.563397208,30115.43681925,30116.413491,1,0.984718249997968
106,12,6,categorization,0,kitchen,SHINEd_sun_ajcbwwvdlsvjyzje.tif,96,0.0666666666666667,0.0666666666666667,0.883333333333333,30116.41859225,30117.656095333,13,30116.480158333,30116.54177825,30117.6608085,30118.537479167,0,1.23750308300077
106,13,6,categorization,0,bathroom,SHINEd_sun_amzlamotzwfkwjco.tif,37,0.0666666666666667,0.0666666666666667,0.85,30118.542049125,30119.83228425,9,30118.603815208,30118.66462575,30119.850722625,30120.694061708,0,1.29023512499771
106,14,6,categorization,0,bathroom,SHINEd_sun_ahqjwnzgolcaoidx.tif,29,0.0666666666666667,0.0666666666666667,0.733333333333333,30120.698996333,30122.127734333,13,30120.760793292,30120.821644875,30122.140516833,30122.867188292,1,1.4287379999987
106,15,6,categorization,0,kitchen,SHINEd_sun_adgqasybjyktddhj.tif,78,0.0666666666666667,0.0666666666666667,1.88333333333333,30122.871960167,30123.672383958,9,30122.933733417,30122.994651208,30123.680447292,30125.557157083,1,0.800423790999048
106,16,6,categorization,0,bathroom,SHINEd_sun_alotolagknyrgtsk.tif,35,0.0666666666666667,0.0666666666666667,0.816666666666667,30125.575888167,30126.975838083,9,30125.642165458,30125.708345042,30126.99432825,30127.804333792,0,1.39994991599815
106,17,6,categorization,0,bathroom,SHINEd_sun_apeeialkgkuxddgh.tif,42,0.0666666666666667,0.0666666666666667,1.9,30127.80900625,30128.631534292,13,30127.870727208,30127.931664792,30128.650771125,30130.544162917,1,0.82252804199743
106,18,6,categorization,0,bathroom,SHINEd_sun_auzqhkafidnkrwmo.tif,54,0.0666666666666667,0.0666666666666667,0.983333333333333,30130.563980083,30131.500619042,13,30130.630343708,30130.696847417,30131.519459042,30132.496130917,1,0.936638958999538
106,19,6,categorization,0,bathroom,SHINEd_sun_aoybiabnpadelefl.tif,41,0.0666666666666667,0.0666666666666667,0.75,30132.50106325,30133.575541792,9,30132.562900958,30132.623686958,30133.592323792,30134.335662042,0,1.07447854199927
106,20,6,categorization,0,bathroom,SHINEd_sun_anryaplzeujmzfkd.tif,39,0.0666666666666667,0.0666666666666667,1.6,30134.340527458,30135.527972917,13,30134.402287208,30134.463089292,30135.53221575,30137.125606208,1,1.18744545899972
106,21,6,categorization,0,kitchen,SHINEd_sun_aymvwlarqodbwuoc.tif,108,0.0666666666666667,0.0666666666666667,1.58333333333333,30137.14116925,30138.327766875,13,30137.208644583,30137.27361125,30138.346464375,30139.92317975,0,1.18659762500101
106,22,6,categorization,0,kitchen,SHINEd_sun_acgtpgfybqjmzeyw.tif,75,0.0666666666666667,0.0666666666666667,1.11666666666667,30139.939900917,30140.907257625,9,30140.008406708,30140.072350333,30140.9290845,30142.039128667,1,0.967356707998988
106,23,6,categorization,0,kitchen,SHINEd_sun_amjjdeyrggfqgmom.tif,100,0.0666666666666667,0.0666666666666667,1.53333333333333,30142.053517583,30143.194350958,9,30142.118242667,30142.181956708,30143.225162625,30144.751881792,1,1.14083337500051
106,24,6,categorization,0,bathroom,SHINEd_sun_alkosphxlxwjwgjd.tif,34,0.0666666666666667,0.0666666666666667,1.48333333333333,30144.772072542,30146.455333042,9,30144.839165333,30144.902951542,30146.47206025,30147.948788458,0,1.68326049999814
106,25,6,categorization,0,bathroom,SHINEd_sun_aggnnqpdorgxpvce.tif,21,0.0666666666666667,0.0666666666666667,1.1,30147.963918125,30148.96978125,13,30148.030147417,30148.096602917,30148.985875125,30150.079251333,1,1.00586312500309
106,26,6,categorization,0,bathroom,SHINEd_sun_ambriybtogmepttm.tif,36,0.0666666666666667,0.0666666666666667,0.933333333333333,30150.0894815,30151.370732458,9,30150.154793208,30150.220927542,30151.394737833,30152.321408167,0,1.28125095799987
106,27,6,categorization,0,bathroom,SHINEd_sun_acgyywnybuveqsro.tif,18,0.0666666666666667,0.0666666666666667,0.816666666666667,30152.329006875,30153.143200333,9,30152.390836833,30152.451620708,30153.153794542,30153.963797875,0,0.814193458001682
106,28,6,categorization,0,kitchen,SHINEd_sun_akcjzhbbjlbogpdi.tif,99,0.0666666666666667,0.0666666666666667,1.78333333333333,30153.968733083,30155.335467417,9,30154.030405125,30154.09135225,30155.343961792,30157.120665042,1,1.3667343340021
106,29,6,categorization,0,bathroom,SHINEd_sun_awnqiikzaispgmwo.tif,56,0.0666666666666667,0.0666666666666667,0.766666666666667,30157.13936275,30158.183612125,13,30157.208280375,30157.272501625,30158.213390833,30158.973397083,1,1.04424937500153
106,30,6,categorization,0,bathroom,SHINEd_sun_avhrdrntsqrjzccq.tif,55,0.0666666666666667,0.0666666666666667,1.45,30158.979416208,30160.223745958,13,30159.041191333,30159.102094542,30160.237832042,30161.681225375,1,1.24432974999945
106,31,6,categorization,0,kitchen,SHINEd_sun_acwjdupvyjsugpay.tif,76,0.0666666666666667,0.0666666666666667,0.75,30161.699691958,30162.671409,9,30161.766098292,30161.832150042,30162.68805,30163.431386792,1,0.971717041997181
106,32,6,categorization,0,kitchen,SHINEd_sun_abftihopvusyfakt.tif,71,0.0666666666666667,0.0666666666666667,1.36666666666667,30163.436417708,30164.272101417,9,30163.498204042,30163.558985667,30164.277278,30165.6373275,1,0.835683708999568
106,33,6,categorization,0,kitchen,SHINEd_sun_ajkqhtgcbgpcwrwn.tif,97,0.0666666666666667,0.0666666666666667,0.75,30165.656042042,30166.795454833,9,30165.723984292,30165.788399542,30166.810869875,30167.55420825,1,1.13941279100254
106,34,6,categorization,0,kitchen,SHINEd_sun_aqeaevwwwjoqhzvl.tif,101,0.0666666666666667,0.0666666666666667,0.783333333333333,30167.562377542,30168.423444083,9,30167.624296,30167.685237958,30168.437361917,30169.214032667,1,0.861066541001492
106,35,6,categorization,0,bathroom,SHINEd_labelme_sfxiulhjbhlyiyt.tif,11,0.0666666666666667,0.0666666666666667,1.11666666666667,30169.219087625,30170.015962,13,30169.280826417,30169.341793958,30170.027083583,30171.137118417,1,0.796874375002517
106,36,6,categorization,0,bathroom,SHINEd_sun_acegryoqftbzowsg.tif,17,0.0666666666666667,0.0666666666666667,0.766666666666667,30171.146088625,30171.984186042,13,30171.210883875,30171.279360542,30172.002337583,30172.762390875,1,0.838097416999517
106,37,6,categorization,0,bathroom,SHINEd_sun_ausgutylgojavyoq.tif,53,0.0666666666666667,0.0666666666666667,0.716666666666667,30172.774583875,30173.592076708,13,30172.841635792,30172.907038292,30173.609568542,30174.319572167,1,0.817492832997232
106,38,6,categorization,0,kitchen,SHINEd_sun_aeqdocilnnpuvuhx.tif,83,0.0666666666666667,0.0666666666666667,1.33333333333333,30174.324584125,30175.663875792,13,30174.386352292,30174.44716225,30175.683227958,30177.009946125,0,1.33929166700182
106,39,6,categorization,0,kitchen,SHINEd_sun_admlmbcdswaszruo.tif,79,0.0666666666666667,0.0666666666666667,1.75,30177.031818333,30178.367870333,9,30177.098433583,30177.164542167,30178.391380375,30180.134759875,1,1.33605200000238
106,40,6,categorization,0,kitchen,SHINEd_sun_ahywdevtimnqcsln.tif,94,0.0666666666666667,0.0666666666666667,1.13333333333333,30180.14701625,30181.647150583,13,30180.211885833,30180.279831542,30181.66617325,30182.792881667,0,1.50013433300046
106,41,6,categorization,0,kitchen,SHINEd_sun_abdenxonkemggwsq.tif,69,0.0666666666666667,0.0666666666666667,1.63333333333333,30182.802067583,30184.080870833,9,30182.866829958,30182.934489292,30184.109259875,30185.735978083,1,1.27880324999933
106,42,6,categorization,0,kitchen,SHINEd_sun_agzzivivdpnawacl.tif,89,0.0666666666666667,0.0666666666666667,1.43333333333333,30185.75550525,30187.559793417,13,30185.823297833,30185.888559667,30187.574567208,30189.001286083,0,1.80428816700078
106,43,6,categorization,0,bathroom,SHINEd_sun_apmqjbnwghzuhhzh.tif,46,0.0666666666666667,0.0666666666666667,1.83333333333333,30189.019469208,30190.209424833,9,30189.086572292,30189.152038792,30190.224184208,30192.050907042,0,1.18995562499913
106,44,6,categorization,0,bathroom,SHINEd_sun_apynckhmoftszqoq.tif,47,0.0666666666666667,0.0666666666666667,1.93333333333333,30192.066406833,30193.113835833,13,30192.13141825,30192.195748,30193.1357735,30195.062491958,1,1.04742899999837
106,45,6,categorization,0,bathroom,SHINEd_sun_agrwbmhcpmfuwmsg.tif,24,0.0666666666666667,0.0666666666666667,1.26666666666667,30195.080463833,30195.849516458,13,30195.147653708,30195.2132665,30195.869713792,30197.129775833,1,0.769052625000768
106,46,6,categorization,0,bathroom,SHINEd_sun_aclfzgynxzxlbepz.tif,19,0.0666666666666667,0.0666666666666667,1.86666666666667,30197.148009917,30197.872036125,13,30197.21497375,30197.280736208,30197.886651667,30199.746696042,1,0.724026208001305
106,47,6,categorization,0,bathroom,SHINEd_sun_anhioqovhscjqqwb.tif,38,0.0666666666666667,0.0666666666666667,1.41666666666667,30199.762309833,30200.43304625,13,30199.829157583,30199.895292792,30200.45167375,30201.861729792,1,0.670736416999716
106,48,6,categorization,0,bathroom,SHINEd_sun_asfwthctfqerjvxr.tif,49,0.0666666666666667,0.0666666666666667,1.11666666666667,30201.880177625,30202.682409458,13,30201.947175667,30202.01273275,30202.70263625,30203.812680542,1,0.802231833000405
106,49,6,categorization,0,kitchen,SHINEd_sun_aapllqyqlykszopd.tif,66,0.0666666666666667,0.0666666666666667,1.8,30203.822207042,30204.864514167,13,30203.887542667,30203.954920333,30204.876021375,30206.669410542,0,1.04230712499702
106,50,6,categorization,0,bathroom,SHINEd_sun_aleqenyvunhactkl.tif,32,0.0666666666666667,0.0666666666666667,1.25,30206.688078,30207.57027625,13,30206.755095667,30206.820588083,30207.594082917,30208.83746075,1,0.882198250001238
106,1,7,categorization,0,bathroom,SHINEd_sun_ambriybtogmepttm.tif,36,0.0666666666666667,0.0666666666666667,0.883333333333333,30216.66375175,30217.887678125,9,30216.725828458,30216.7864105,30217.905123,30218.7817945,0,1.22392637500161
106,2,7,categorization,0,bathroom,SHINEd_sun_asfwthctfqerjvxr.tif,49,0.0666666666666667,0.0666666666666667,1.03333333333333,30218.786506042,30220.551362833,13,30218.848350458,30218.9092675,30220.561794208,30221.588509583,1,1.76485679100006
106,3,7,categorization,0,kitchen,SHINEd_labelme_brsyyvweiuaazfr.tif,61,0.0666666666666667,0.0666666666666667,1.06666666666667,30221.599252667,30222.583603708,9,30221.6637805,30221.730257875,30222.603480417,30223.663489708,1,0.984351040999172
106,4,7,categorization,0,kitchen,SHINEd_sun_abrcnpqqhmjwekyf.tif,73,0.0666666666666667,0.0666666666666667,0.833333333333333,30223.669385333,30224.87155325,9,30223.731207167,30223.792007917,30224.877663542,30225.704334583,1,1.20216791699931
106,5,7,categorization,0,kitchen,SHINEd_sun_auaiucuqpdausiva.tif,102,0.0666666666666667,0.0666666666666667,0.716666666666667,30225.70902,30226.679287875,13,30225.770702625,30225.831609417,30226.683710583,30227.393714708,0,0.97026787499999
106,6,7,categorization,0,kitchen,SHINEd_sun_ajkqhtgcbgpcwrwn.tif,97,0.0666666666666667,0.0666666666666667,0.733333333333333,30227.398562375,30228.303745583,13,30227.460363083,30227.521198625,30228.32311675,30229.049789333,0,0.905183208000381
106,7,7,categorization,0,bathroom,SHINEd_sun_ahaulkltgpkeeemi.tif,26,0.0666666666666667,0.0666666666666667,1.38333333333333,30229.05469775,30229.879553625,13,30229.11657425,30229.177329417,30229.896535125,30231.273262542,1,0.82485587499832
106,8,7,categorization,0,bathroom,SHINEd_sun_apkxzenqapsujocq.tif,45,0.0666666666666667,0.0666666666666667,0.9,30231.291523,30232.007481708,13,30231.357856042,30231.423788917,30232.029805875,30232.923182042,1,0.715958707998652
106,9,7,categorization,0,kitchen,SHINEd_sun_adgqasybjyktddhj.tif,78,0.0666666666666667,0.0666666666666667,0.816666666666667,30232.939686667,30233.895755542,9,30233.002423625,30233.062579333,30233.914877292,30234.724881125,1,0.956068874998891
106,10,7,categorization,0,bathroom,SHINEd_sun_amzlamotzwfkwjco.tif,37,0.0666666666666667,0.0666666666666667,0.85,30234.730132083,30235.719940083,13,30234.791839,30234.852998958,30235.73887325,30236.582211417,1,0.989807999998447
106,11,7,categorization,0,bathroom,SHINEd_sun_axldvoqbuvuggfmq.tif,57,0.0666666666666667,0.0666666666666667,1.6,30236.5870985,30237.367211333,13,30236.64887275,30236.709799583,30237.378804208,30238.972184375,1,0.780112832999293
106,12,7,categorization,0,kitchen,SHINEd_sun_acfmftudsenhrfhy.tif,74,0.0666666666666667,0.0666666666666667,1.75,30238.987287208,30240.319304458,9,30239.051341,30239.117872375,30240.344380333,30242.087777167,1,1.3320172499989
106,13,7,categorization,0,bathroom,SHINEd_sun_awnqiikzaispgmwo.tif,56,0.0666666666666667,0.0666666666666667,1.1,30242.105987125,30243.016597208,13,30242.171533417,30242.238528625,30243.044684375,30244.138076625,1,0.910610082999483
106,14,7,categorization,0,bathroom,SHINEd_sun_apeeialkgkuxddgh.tif,42,0.0666666666666667,0.0666666666666667,1.46666666666667,30244.150374375,30244.865440917,13,30244.214670417,30244.281747083,30244.888761333,30246.348814042,1,0.715066542001296
106,15,7,categorization,0,kitchen,SHINEd_sun_aenotlpyftoioydp.tif,82,0.0666666666666667,0.0666666666666667,1.25,30246.367124042,30247.155700542,13,30246.434218167,30246.49953525,30247.172361375,30248.415735792,0,0.788576499999181
106,16,7,categorization,0,kitchen,SHINEd_sun_awcpdzzznmweyyhv.tif,106,0.0666666666666667,0.0666666666666667,1.13333333333333,30248.433420167,30249.154143375,9,30248.500052167,30248.566133667,30249.173026042,30250.299755042,1,0.720723207999981
106,17,7,categorization,0,bathroom,SHINEd_sun_abjtwfukuwddzted.tif,15,0.0666666666666667,0.0666666666666667,1.33333333333333,30250.316702125,30251.2640465,13,30250.383559833,30250.449424542,30251.289629208,30252.616350333,1,0.947344374999375
106,18,7,categorization,0,kitchen,SHINEd_sun_aixorpehvfykdynp.tif,95,0.0666666666666667,0.0666666666666667,1.86666666666667,30252.634680292,30253.468118458,13,30252.70189625,30252.768901625,30253.492914958,30255.352965917,0,0.833438165998814
106,19,7,categorization,0,bathroom,SHINEd_sun_ausgutylgojavyoq.tif,53,0.0666666666666667,0.0666666666666667,1.58333333333333,30255.371060167,30256.082922458,13,30255.437923292,30255.503579625,30256.110179,30257.68690075,1,0.711862291002035
106,20,7,categorization,0,kitchen,SHINEd_sun_ahdycvpopffkzzsu.tif,90,0.0666666666666667,0.0666666666666667,1.05,30257.704930167,30258.369994792,13,30257.771898542,30257.837968208,30258.394417125,30259.437786792,0,0.665064624998195
106,21,7,categorization,0,kitchen,SHINEd_labelme_kxvouciolcpqplr.tif,62,0.0666666666666667,0.0666666666666667,0.9,30259.4508645,30260.153805917,13,30259.51559225,30259.581886458,30260.169974708,30261.063366583,0,0.702941417002876
106,22,7,categorization,0,bathroom,SHINEd_sun_aggnnqpdorgxpvce.tif,21,0.0666666666666667,0.0666666666666667,0.7,30261.080092042,30262.59948775,9,30261.147051875,30261.212616,30262.615504542,30263.308841667,0,1.51939570800096
106,23,7,categorization,0,kitchen,SHINEd_sun_aexklacwqwezaorf.tif,84,0.0666666666666667,0.0666666666666667,0.933333333333333,30263.3137615,30264.135552542,13,30263.375559667,30263.436386333,30264.154848375,30265.0815205,0,0.821791041998949
106,24,7,categorization,0,kitchen,SHINEd_sun_aymvwlarqodbwuoc.tif,108,0.0666666666666667,0.0666666666666667,1.95,30265.086912708,30265.799495625,13,30265.148689042,30265.209527875,30265.811793292,30267.755173083,0,0.712582916999963
106,25,7,categorization,0,bathroom,SHINEd_sun_anryaplzeujmzfkd.tif,39,0.0666666666666667,0.0666666666666667,1.06666666666667,30267.77201925,30268.514954708,13,30267.838665708,30267.905108792,30268.545042625,30269.605096042,1,0.742935458001739
106,26,7,categorization,0,bathroom,SHINEd_sun_auzqhkafidnkrwmo.tif,54,0.0666666666666667,0.0666666666666667,1.2,30269.614870542,30270.308579458,13,30269.679466542,30269.745011833,30270.334703042,30271.528071458,1,0.693708916001924
106,27,7,categorization,0,kitchen,SHINEd_sun_aehawpgmrlhlvcow.tif,81,0.0666666666666667,0.0666666666666667,0.75,30271.544956125,30272.407745917,13,30271.611471917,30271.668904833,30272.4208415,30273.164179208,0,0.862789792001422
106,28,7,categorization,0,bathroom,SHINEd_sun_afcoljnjfoxjtgja.tif,20,0.0666666666666667,0.0666666666666667,0.816666666666667,30273.16913925,30274.318938375,13,30273.230902583,30273.291846583,30274.327204375,30275.137208708,1,1.14979912499984
106,29,7,categorization,0,bathroom,SHINEd_sun_apynckhmoftszqoq.tif,47,0.0666666666666667,0.0666666666666667,1.96666666666667,30275.141890167,30275.878948958,13,30275.2036215,30275.264560333,30275.883426458,30277.843484542,1,0.737058791000891
106,30,7,categorization,0,bathroom,SHINEd_sun_akiytfaagpdsphgz.tif,31,0.0666666666666667,0.0666666666666667,1.2,30277.8631995,30278.752808125,13,30277.929732708,30277.995703625,30278.768367167,30279.961749,1,0.8896086249988
106,31,7,categorization,0,kitchen,SHINEd_sun_azmutvzbxypaceni.tif,110,0.0666666666666667,0.0666666666666667,0.883333333333333,30279.972928083,30280.812626667,13,30280.039654083,30280.105644958,30280.827996167,30281.704714333,0,0.839698584000871
106,32,7,categorization,0,kitchen,SHINEd_sun_aypmqwcualkenuoe.tif,109,0.0666666666666667,0.0666666666666667,1.33333333333333,30281.720569583,30282.759260208,9,30281.787266083,30281.845622708,30282.764328625,30284.091049583,1,1.03869062499871
106,33,7,categorization,0,kitchen,SHINEd_sun_aqeaevwwwjoqhzvl.tif,101,0.0666666666666667,0.0666666666666667,1.45,30284.109726125,30285.6791085,13,30284.174943333,30284.242391708,30285.701690042,30287.145075125,0,1.56938237500071
106,34,7,categorization,0,bathroom,SHINEd_sun_aunuadmjocsddsrl.tif,52,0.0666666666666667,0.0666666666666667,1.15,30287.164145417,30288.503813333,13,30287.23085125,30287.296936833,30288.522642542,30289.666008208,1,1.33966791600324
106,35,7,categorization,0,bathroom,SHINEd_sun_avhrdrntsqrjzccq.tif,55,0.0666666666666667,0.0666666666666667,0.966666666666667,30289.675367542,30290.717113708,9,30289.740885708,30289.807817708,30290.730241417,30291.690245875,0,1.04174616599994
106,36,7,categorization,0,bathroom,SHINEd_sun_aofnryafpsjimzsb.tif,40,0.0666666666666667,0.0666666666666667,1.45,30291.695662958,30293.006862917,13,30291.757355208,30291.818335125,30293.021115292,30294.464500958,1,1.31119995899644
106,37,7,categorization,0,kitchen,SHINEd_sun_aadbddgrdsjugojn.tif,64,0.0666666666666667,0.0666666666666667,0.8,30294.482975708,30295.402663458,9,30294.549641,30294.615867125,30295.422270542,30296.21560925,1,0.919687749999866
106,38,7,categorization,0,bathroom,SHINEd_sun_aljolscmmzydegqp.tif,33,0.0666666666666667,0.0666666666666667,1.45,30296.220553167,30297.062916875,9,30296.2823195,30296.343122917,30297.078352167,30298.521736833,0,0.84236370799772
106,39,7,categorization,0,bathroom,SHINEd_sun_aoybiabnpadelefl.tif,41,0.0666666666666667,0.0666666666666667,1.1,30298.538581292,30299.575220542,13,30298.604893042,30298.6712635,30299.593995833,30300.687388792,1,1.03663925000001
106,40,7,categorization,0,bathroom,SHINEd_labelme_sfxiulhjbhlyiyt.tif,11,0.0666666666666667,0.0666666666666667,1.16666666666667,30300.69651375,30301.789172542,13,30300.76103425,30300.829367667,30301.820436333,30302.980493417,1,1.09265879200029
106,41,7,categorization,0,kitchen,SHINEd_sun_acwjdupvyjsugpay.tif,76,0.0666666666666667,0.0666666666666667,1.31666666666667,30302.989054125,30303.868773458,9,30303.057418792,30303.121623167,30303.894418375,30305.204457958,1,0.879719333002868
106,42,7,categorization,0,bathroom,SHINEd_sun_axxbkopsgyouuebh.tif,58,0.0666666666666667,0.0666666666666667,1.68333333333333,30305.222872292,30306.18507575,13,30305.289773958,30305.355827208,30306.212543083,30307.889254542,1,0.962203457998839
106,43,7,categorization,0,kitchen,SHINEd_sun_abdxkyyxwfskuaqb.tif,70,0.0666666666666667,0.0666666666666667,0.966666666666667,30307.90775725,30309.026702875,9,30307.974238042,30308.040406542,30309.046868417,30310.006873708,1,1.11894562499947
106,44,7,categorization,0,bathroom,SHINEd_sun_agrwbmhcpmfuwmsg.tif,24,0.0666666666666667,0.0666666666666667,1.4,30310.011767625,30310.84692875,9,30310.073618042,30310.134473167,30310.853134667,30312.246544333,0,0.835161125000013
106,45,7,categorization,0,kitchen,SHINEd_sun_aapllqyqlykszopd.tif,66,0.0666666666666667,0.0666666666666667,0.783333333333333,30312.265130417,30313.01835175,9,30312.331576625,30312.397575875,30313.037093458,30313.813809042,1,0.75322133300142
106,46,7,categorization,0,bathroom,SHINEd_sun_ahcvzmoyaycdoftf.tif,27,0.0666666666666667,0.0666666666666667,1.08333333333333,30313.829755125,30314.687012458,9,30313.896412083,30313.954243875,30314.706574958,30315.7832935,0,0.857257332998415
106,47,7,categorization,0,bathroom,SHINEd_sun_apjevzvycyhuqghb.tif,43,0.0666666666666667,0.0666666666666667,1.43333333333333,30315.795680875,30317.057810458,9,30315.86026075,30315.928454583,30317.087794125,30318.514504708,0,1.26212958300312
106,48,7,categorization,0,kitchen,SHINEd_labelme_rykdqxenmhulbdn.tif,63,0.0666666666666667,0.0666666666666667,1.75,30318.529617458,30319.68043875,9,30318.596496583,30318.662666,30319.702072917,30321.44546625,1,1.15082129200164
106,49,7,categorization,0,bathroom,SHINEd_sun_aqrpegblszgcoujh.tif,48,0.0666666666666667,0.0666666666666667,1.21666666666667,30321.457511375,30322.306761292,13,30321.525809417,30321.590529583,30322.330854917,30323.540900542,1,0.849249916998815
106,50,7,categorization,0,kitchen,SHINEd_sun_aegoxogugdkwpmpj.tif,80,0.0666666666666667,0.0666666666666667,1.31666666666667,30323.55981825,30325.345473292,9,30323.626736708,30323.69258175,30325.369701208,30326.679749958,1,1.78565504200014
106,1,8,categorization,0,bathroom,SHINEd_sun_aclfzgynxzxlbepz.tif,19,0.0666666666666667,0.0666666666666667,1.18333333333333,30333.6350655,30334.863190042,13,30333.697634417,30333.757988375,30334.876612667,30336.053332875,1,1.22812454200175
106,2,8,categorization,0,kitchen,SHINEd_sun_akcjzhbbjlbogpdi.tif,99,0.0666666666666667,0.0666666666666667,0.983333333333333,30336.064830125,30337.002682958,9,30336.129512167,30336.196888917,30337.019242917,30337.995957625,1,0.937852832998033
106,3,8,categorization,0,bathroom,SHINEd_sun_aleqenyvunhactkl.tif,32,0.0666666666666667,0.0666666666666667,1.65,30338.007672458,30339.295453125,9,30338.070016958,30338.130320958,30339.299732708,30340.943108042,0,1.28778066700033
106,4,8,categorization,0,kitchen,SHINEd_sun_admlmbcdswaszruo.tif,79,0.0666666666666667,0.0666666666666667,1.23333333333333,30340.963944167,30341.907943583,9,30341.030624,30341.096615208,30341.936778208,30343.163507875,1,0.943999415998405
106,5,8,categorization,0,bathroom,SHINEd_sun_abapwbhyhkfixyex.tif,14,0.0666666666666667,0.0666666666666667,0.916666666666667,30343.177891375,30344.9106955,9,30343.24460925,30343.310179375,30344.936499083,30345.846503,0,1.73280412500026
106,6,8,categorization,0,bathroom,SHINEd_sun_alotolagknyrgtsk.tif,35,0.0666666666666667,0.0666666666666667,1.56666666666667,30345.851856167,30347.166743917,13,30345.91373125,30345.974601042,30347.176716417,30348.736759917,1,1.31488775000253
106,7,8,categorization,0,bathroom,SHINEd_sun_alkosphxlxwjwgjd.tif,34,0.0666666666666667,0.0666666666666667,1.63333333333333,30348.755842958,30349.972208375,9,30348.82260075,30348.88901525,30349.996029042,30351.622750792,0,1.21636541699991
106,8,8,categorization,0,kitchen,SHINEd_sun_ajcbwwvdlsvjyzje.tif,96,0.0666666666666667,0.0666666666666667,1.1,30351.640943375,30353.134979167,13,30351.7076845,30351.773366917,30353.143029167,30354.236406708,0,1.49403579199861
106,9,8,categorization,0,kitchen,SHINEd_sun_aeqdocilnnpuvuhx.tif,83,0.0666666666666667,0.0666666666666667,1.38333333333333,30354.245227875,30356.041927208,9,30354.310077333,30354.377762375,30356.071208417,30357.44792725,1,1.79669933300102
106,10,8,categorization,0,kitchen,SHINEd_sun_abpwyqmlzafvklqo.tif,72,0.0666666666666667,0.0666666666666667,0.766666666666667,30357.462891542,30359.67929175,13,30357.529204083,30357.59530775,30359.698240042,30360.458245875,0,2.21640020799896
106,11,8,categorization,0,kitchen,SHINEd_sun_aggjlwcdjsjcaemh.tif,86,0.0666666666666667,0.0666666666666667,1.45,30360.463218333,30361.638837625,9,30360.52508475,30360.585847292,30361.654319583,30363.097703833,1,1.17561929200019
106,12,8,categorization,0,kitchen,SHINEd_sun_aaxxjlsuzvqlgylf.tif,68,0.0666666666666667,0.0666666666666667,0.983333333333333,30363.116282292,30364.175512333,13,30363.182863083,30363.249365083,30364.187124917,30365.163797833,0,1.05923004099895
106,13,8,categorization,0,kitchen,SHINEd_sun_agubuxuukhzyzpdp.tif,88,0.0666666666666667,0.0666666666666667,0.716666666666667,30365.168906667,30366.246398958,13,30365.230539292,30365.291741542,30366.260291583,30366.970296292,0,1.07749229099863
106,14,8,categorization,0,kitchen,SHINEd_sun_avszsnwsbuqfgzbn.tif,105,0.0666666666666667,0.0666666666666667,1.41666666666667,30366.975255125,30367.799346375,13,30367.037029167,30367.097852333,30367.8169355,30369.226968875,0,0.824091250000492
106,15,8,categorization,0,kitchen,SHINEd_sun_akchetnepxlcxhsu.tif,98,0.0666666666666667,0.0666666666666667,1.21666666666667,30369.245554917,30370.112036958,13,30369.312248917,30369.378276667,30370.133579042,30371.343620542,0,0.866482040997653
106,16,8,categorization,0,bathroom,SHINEd_sun_anhioqovhscjqqwb.tif,38,0.0666666666666667,0.0666666666666667,1.61666666666667,30371.362714458,30372.254431375,13,30371.429431083,30371.495535542,30372.267605875,30373.877657833,1,0.891716917001759
106,17,8,categorization,0,kitchen,SHINEd_sun_amjjdeyrggfqgmom.tif,100,0.0666666666666667,0.0666666666666667,0.783333333333333,30373.895837583,30375.144985375,9,30373.962587458,30374.028160625,30375.170546958,30375.947218625,1,1.24914779199753
106,18,8,categorization,0,bathroom,SHINEd_sun_ahqjwnzgolcaoidx.tif,29,0.0666666666666667,0.0666666666666667,1.98333333333333,30375.952018458,30377.350766583,9,30376.013706875,30376.07472325,30377.360882417,30379.337606083,0,1.39874812500057
106,19,8,categorization,0,bathroom,SHINEd_sun_axyrejkiiaqiurjk.tif,59,0.0666666666666667,0.0666666666666667,0.983333333333333,30379.354988833,30380.614364542,13,30379.423543792,30379.487738833,30380.623771833,30381.600443125,1,1.25937570899987
106,20,8,categorization,0,kitchen,SHINEd_sun_acgtpgfybqjmzeyw.tif,75,0.0666666666666667,0.0666666666666667,0.8,30381.605328583,30382.446778125,13,30381.667009417,30381.727993667,30382.463028208,30383.256365708,0,0.841449542000191
106,21,8,categorization,0,bathroom,SHINEd_sun_azqyogdvyhahyram.tif,60,0.0666666666666667,0.0666666666666667,0.733333333333333,30383.2618135,30384.318335458,13,30383.323475458,30383.384463333,30384.336420833,30385.063092958,1,1.05652195799848
106,22,8,categorization,0,bathroom,SHINEd_sun_agguqiubmwhqqunb.tif,22,0.0666666666666667,0.0666666666666667,0.966666666666667,30385.068029667,30386.463394,13,30385.129713708,30385.190685042,30386.476656083,30387.436660167,1,1.39536433299872
106,23,8,categorization,0,kitchen,SHINEd_sun_axyyrmzcupyhlivc.tif,107,0.0666666666666667,0.0666666666666667,0.866666666666667,30387.441626833,30388.670715125,9,30387.503401167,30387.564188458,30388.683265958,30389.543270875,1,1.22908829200242
106,24,8,categorization,0,bathroom,SHINEd_sun_aapitsgbtktqubfy.tif,12,0.0666666666666667,0.0666666666666667,1.23333333333333,30389.547781042,30390.422512,13,30389.609459667,30389.670389208,30390.439241833,30391.665963917,1,0.874730957999418
106,25,8,categorization,0,kitchen,SHINEd_sun_ahspylgoovwmwvgk.tif,93,0.0666666666666667,0.0666666666666667,1.9,30391.683732542,30392.655139083,9,30391.750461958,30391.816740833,30392.672426417,30394.5657965,1,0.971406541000761
106,26,8,categorization,0,bathroom,SHINEd_sun_ajlawzvmubibwbpy.tif,30,0.0666666666666667,0.0666666666666667,0.866666666666667,30394.582676875,30395.926724625,13,30394.649237833,30394.71555275,30395.934851167,30396.794855042,1,1.34404774999712
106,27,8,categorization,0,bathroom,SHINEd_sun_acgyywnybuveqsro.tif,18,0.0666666666666667,0.0666666666666667,0.966666666666667,30396.799451167,30397.830922208,13,30396.86118175,30396.922068042,30397.840591708,30398.800595167,1,1.03147104099844
106,28,8,categorization,0,kitchen,SHINEd_sun_afuyedyxivkhecmu.tif,85,0.0666666666666667,0.0666666666666667,0.916666666666667,30398.805334167,30399.734798667,9,30398.867082792,30398.927996542,30399.74691925,30400.656924542,1,0.929464500000904
106,29,8,categorization,0,bathroom,SHINEd_sun_aghyqhbptboemmoq.tif,23,0.0666666666666667,0.0666666666666667,0.916666666666667,30400.661784375,30401.743109458,13,30400.723494,30400.784398917,30401.752849542,30402.662854458,1,1.08132508299968
106,30,8,categorization,0,kitchen,SHINEd_sun_ahpczsiumwwocjkv.tif,92,0.0666666666666667,0.0666666666666667,1.4,30402.66774725,30404.318950542,13,30402.729475542,30402.790520292,30404.326207875,30405.719597417,0,1.65120329199999
106,31,8,categorization,0,bathroom,SHINEd_sun_acduarbnmmoglmiv.tif,16,0.0666666666666667,0.0666666666666667,1.75,30405.737320875,30406.912221625,13,30405.804129667,30405.869996125,30406.925162042,30408.668558167,1,1.17490075000023
106,32,8,categorization,0,bathroom,SHINEd_sun_aspsyogrekjtfozg.tif,50,0.0666666666666667,0.0666666666666667,1.25,30408.685405958,30409.459619125,13,30408.7538635,30408.818388833,30409.474579583,30410.717974042,1,0.774213166998379
106,33,8,categorization,0,kitchen,SHINEd_sun_aamedkxepzlwuxes.tif,65,0.0666666666666667,0.0666666666666667,1.05,30410.736641333,30411.977402167,13,30410.803504375,30410.869449875,30411.995783708,30413.039152292,0,1.24076083399996
106,34,8,categorization,0,kitchen,SHINEd_sun_ahljzhgcdpomplvg.tif,91,0.0666666666666667,0.0666666666666667,1.06666666666667,30413.050636,30414.02202875,13,30413.115470458,30413.182081708,30414.038007125,30415.098062458,0,0.971392750001542
106,35,8,categorization,0,bathroom,SHINEd_sun_atstyziqcmkahyxk.tif,51,0.0666666666666667,0.0666666666666667,1.21666666666667,30415.1084465,30416.022337208,13,30415.175383083,30415.24149025,30416.048599042,30417.258657125,1,0.913890708001418
106,36,8,categorization,0,kitchen,SHINEd_sun_abftihopvusyfakt.tif,71,0.0666666666666667,0.0666666666666667,0.95,30417.278872125,30418.679669083,9,30417.34620075,30417.4113635,30418.707631417,30419.650970792,1,1.40079695800159
106,37,8,categorization,0,kitchen,SHINEd_sun_acxkpeoqbwcxfvip.tif,77,0.0666666666666667,0.0666666666666667,0.9,30419.656065792,30420.766415792,9,30419.717877125,30419.779019917,30420.781832042,30421.675169833,1,1.11034999999902
106,38,8,categorization,0,kitchen,SHINEd_sun_agzzivivdpnawacl.tif,89,0.0666666666666667,0.0666666666666667,1.78333333333333,30421.679634083,30422.495121667,13,30421.741411833,30421.802304333,30422.504226625,30424.280945333,0,0.815487584000948
106,39,8,categorization,0,kitchen,SHINEd_sun_aarfiyshqohlwkmo.tif,67,0.0666666666666667,0.0666666666666667,1.16666666666667,30424.298022667,30425.554835708,9,30424.364871167,30424.430801833,30425.572456,30426.732493125,1,1.25681304099999
106,40,8,categorization,0,kitchen,SHINEd_sun_auticobqsbwgoppi.tif,104,0.0666666666666667,0.0666666666666667,0.783333333333333,30426.741084333,30428.783010958,9,30426.807698708,30426.874224792,30428.793832125,30429.570502458,1,2.04192662499918
106,41,8,categorization,0,bathroom,SHINEd_sun_agyqfjcfkdcydepw.tif,25,0.0666666666666667,0.0666666666666667,1.23333333333333,30429.577405083,30430.774524333,9,30429.639166458,30429.700013917,30430.785502,30432.012211042,0,1.19711924999865
106,42,8,categorization,0,bathroom,SHINEd_sun_acegryoqftbzowsg.tif,17,0.0666666666666667,0.0666666666666667,0.9,30432.031382208,30433.150963125,9,30432.097841458,30432.162405958,30433.167929792,30434.061267417,0,1.11958091700217
106,43,8,categorization,0,kitchen,SHINEd_sun_agorklincwxrdtga.tif,87,0.0666666666666667,0.0666666666666667,0.7,30434.066170042,30435.150361083,9,30434.127822667,30434.188837417,30435.157842542,30435.851181625,1,1.08419104100176
106,44,8,categorization,0,kitchen,SHINEd_sun_abdenxonkemggwsq.tif,69,0.0666666666666667,0.0666666666666667,1.23333333333333,30435.856042917,30436.654470917,9,30435.917927958,30435.978673417,30436.664050958,30437.890771833,1,0.798428000001877
106,45,8,categorization,0,kitchen,SHINEd_sun_ahywdevtimnqcsln.tif,94,0.0666666666666667,0.0666666666666667,1,30437.909238833,30439.569934375,9,30437.976588833,30438.042524375,30439.603146375,30440.596484708,1,1.6606955419993
106,46,8,categorization,0,bathroom,SHINEd_sun_apmqjbnwghzuhhzh.tif,46,0.0666666666666667,0.0666666666666667,1.38333333333333,30440.601440458,30441.406169417,13,30440.663036333,30440.724105083,30441.409506083,30442.786220625,1,0.804728959003114
106,47,8,categorization,0,bathroom,SHINEd_sun_apkruvsevgegsdwp.tif,44,0.0666666666666667,0.0666666666666667,1.3,30442.8014515,30443.576884917,13,30442.869306833,30442.93266125,30443.605757708,30444.899148625,1,0.775433417002205
106,48,8,categorization,0,bathroom,SHINEd_sun_aavhrsfjbserjtht.tif,13,0.0666666666666667,0.0666666666666667,0.833333333333333,30444.917084792,30445.78535125,13,30444.984461208,30445.049888958,30445.806418167,30446.633135292,1,0.868266458001017
106,49,8,categorization,0,bathroom,SHINEd_sun_ahijqszoswveeyji.tif,28,0.0666666666666667,0.0666666666666667,0.95,30446.641160667,30447.446542917,13,30446.702976583,30446.7637445,30447.465486667,30448.408823917,1,0.805382250000548
106,50,8,categorization,0,kitchen,SHINEd_sun_aunzlwrbjumxhwdj.tif,103,0.0666666666666667,0.0666666666666667,1.43333333333333,30448.413721875,30449.270644792,13,30448.476022083,30448.536387333,30449.28859825,30450.715324125,0,0.856922916998883
106,1,9,categorization,0,bathroom,SHINEd_labelme_sfxiulhjbhlyiyt.tif,11,0.0666666666666667,0.0666666666666667,1.08333333333333,30458.749327167,30459.718370667,13,30458.811797583,30458.872067833,30459.724438292,30460.801156208,1,0.969043500001135
106,2,9,categorization,0,kitchen,SHINEd_sun_aeqdocilnnpuvuhx.tif,83,0.0666666666666667,0.0666666666666667,0.8,30460.811806792,30462.5118775,13,30460.876201125,30460.942893417,30462.535852208,30463.329189375,0,1.70007070800057
