sub_num,trial,block,task,is_practice,category,image,texture,duration,mask_dur,jitter,stim_time,time_of_resp,trial_response,mask_time,fix_time,jit_onset,trial_end,trial_accuracy,RT
106,1,7,categorization,0,bathroom,SHINEd_sun_ambriybtogmepttm.tif,36,0.0666666666666667,0.0666666666666667,0.883333333333333,30216.66375175,30217.887678125,9,30216.725828458,30216.7864105,30217.905123,30218.7817945,0,1.22392637500161
106,2,7,categorization,0,bathroom,SHINEd_sun_asfwthctfqerjvxr.tif,49,0.0666666666666667,0.0666666666666667,1.03333333333333,30218.786506042,30220.551362833,13,30218.848350458,30218.9092675,30220.561794208,30221.588509583,1,1.76485679100006
106,3,7,categorization,0,kitchen,SHINEd_labelme_brsyyvweiuaazfr.tif,61,0.0666666666666667,0.0666666666666667,1.06666666666667,30221.599252667,30222.583603708,9,30221.6637805,30221.730257875,30222.603480417,30223.663489708,1,0.984351040999172
106,4,7,categorization,0,kitchen,SHINEd_sun_abrcnpqqhmjwekyf.tif,73,0.0666666666666667,0.0666666666666667,0.833333333333333,30223.669385333,30224.87155325,9,30223.731207167,30223.792007917,30224.877663542,30225.704334583,1,1.20216791699931
106,5,7,categorization,0,kitchen,SHINEd_sun_auaiucuqpdausiva.tif,102,0.0666666666666667,0.0666666666666667,0.716666666666667,30225.70902,30226.679287875,13,30225.770702625,30225.831609417,30226.683710583,30227.393714708,0,0.97026787499999
106,6,7,categorization,0,kitchen,SHINEd_sun_ajkqhtgcbgpcwrwn.tif,97,0.0666666666666667,0.0666666666666667,0.733333333333333,30227.398562375,30228.303745583,13,30227.460363083,30227.521198625,30228.32311675,30229.049789333,0,0.905183208000381
106,7,7,categorization,0,bathroom,SHINEd_sun_ahaulkltgpkeeemi.tif,26,0.0666666666666667,0.0666666666666667,1.38333333333333,30229.05469775,30229.879553625,13,30229.11657425,30229.177329417,30229.896535125,30231.273262542,1,0.82485587499832
106,8,7,categorization,0,bathroom,SHINEd_sun_apkxzenqapsujocq.tif,45,0.0666666666666667,0.0666666666666667,0.9,30231.291523,30232.007481708,13,30231.357856042,30231.423788917,30232.029805875,30232.923182042,1,0.715958707998652
106,9,7,categorization,0,kitchen,SHINEd_sun_adgqasybjyktddhj.tif,78,0.0666666666666667,0.0666666666666667,0.816666666666667,30232.939686667,30233.895755542,9,30233.002423625,30233.062579333,30233.914877292,30234.724881125,1,0.956068874998891
106,10,7,categorization,0,bathroom,SHINEd_sun_amzlamotzwfkwjco.tif,37,0.0666666666666667,0.0666666666666667,0.85,30234.730132083,30235.719940083,13,30234.791839,30234.852998958,30235.73887325,30236.582211417,1,0.989807999998447
106,11,7,categorization,0,bathroom,SHINEd_sun_axldvoqbuvuggfmq.tif,57,0.0666666666666667,0.0666666666666667,1.6,30236.5870985,30237.367211333,13,30236.64887275,30236.709799583,30237.378804208,30238.972184375,1,0.780112832999293
106,12,7,categorization,0,kitchen,SHINEd_sun_acfmftudsenhrfhy.tif,74,0.0666666666666667,0.0666666666666667,1.75,30238.987287208,30240.319304458,9,30239.051341,30239.117872375,30240.344380333,30242.087777167,1,1.3320172499989
106,13,7,categorization,0,bathroom,SHINEd_sun_awnqiikzaispgmwo.tif,56,0.0666666666666667,0.0666666666666667,1.1,30242.105987125,30243.016597208,13,30242.171533417,30242.238528625,30243.044684375,30244.138076625,1,0.910610082999483
106,14,7,categorization,0,bathroom,SHINEd_sun_apeeialkgkuxddgh.tif,42,0.0666666666666667,0.0666666666666667,1.46666666666667,30244.150374375,30244.865440917,13,30244.214670417,30244.281747083,30244.888761333,30246.348814042,1,0.715066542001296
106,15,7,categorization,0,kitchen,SHINEd_sun_aenotlpyftoioydp.tif,82,0.0666666666666667,0.0666666666666667,1.25,30246.367124042,30247.155700542,13,30246.434218167,30246.49953525,30247.172361375,30248.415735792,0,0.788576499999181
106,16,7,categorization,0,kitchen,SHINEd_sun_awcpdzzznmweyyhv.tif,106,0.0666666666666667,0.0666666666666667,1.13333333333333,30248.433420167,30249.154143375,9,30248.500052167,30248.566133667,30249.173026042,30250.299755042,1,0.720723207999981
106,17,7,categorization,0,bathroom,SHINEd_sun_abjtwfukuwddzted.tif,15,0.0666666666666667,0.0666666666666667,1.33333333333333,30250.316702125,30251.2640465,13,30250.383559833,30250.449424542,30251.289629208,30252.616350333,1,0.947344374999375
106,18,7,categorization,0,kitchen,SHINEd_sun_aixorpehvfykdynp.tif,95,0.0666666666666667,0.0666666666666667,1.86666666666667,30252.634680292,30253.468118458,13,30252.70189625,30252.768901625,30253.492914958,30255.352965917,0,0.833438165998814
106,19,7,categorization,0,bathroom,SHINEd_sun_ausgutylgojavyoq.tif,53,0.0666666666666667,0.0666666666666667,1.58333333333333,30255.371060167,30256.082922458,13,30255.437923292,30255.503579625,30256.110179,30257.68690075,1,0.711862291002035
106,20,7,categorization,0,kitchen,SHINEd_sun_ahdycvpopffkzzsu.tif,90,0.0666666666666667,0.0666666666666667,1.05,30257.704930167,30258.369994792,13,30257.771898542,30257.837968208,30258.394417125,30259.437786792,0,0.665064624998195
106,21,7,categorization,0,kitchen,SHINEd_labelme_kxvouciolcpqplr.tif,62,0.0666666666666667,0.0666666666666667,0.9,30259.4508645,30260.153805917,13,30259.51559225,30259.581886458,30260.169974708,30261.063366583,0,0.702941417002876
106,22,7,categorization,0,bathroom,SHINEd_sun_aggnnqpdorgxpvce.tif,21,0.0666666666666667,0.0666666666666667,0.7,30261.080092042,30262.59948775,9,30261.147051875,30261.212616,30262.615504542,30263.308841667,0,1.51939570800096
106,23,7,categorization,0,kitchen,SHINEd_sun_aexklacwqwezaorf.tif,84,0.0666666666666667,0.0666666666666667,0.933333333333333,30263.3137615,30264.135552542,13,30263.375559667,30263.436386333,30264.154848375,30265.0815205,0,0.821791041998949
106,24,7,categorization,0,kitchen,SHINEd_sun_aymvwlarqodbwuoc.tif,108,0.0666666666666667,0.0666666666666667,1.95,30265.086912708,30265.799495625,13,30265.148689042,30265.209527875,30265.811793292,30267.755173083,0,0.712582916999963
106,25,7,categorization,0,bathroom,SHINEd_sun_anryaplzeujmzfkd.tif,39,0.0666666666666667,0.0666666666666667,1.06666666666667,30267.77201925,30268.514954708,13,30267.838665708,30267.905108792,30268.545042625,30269.605096042,1,0.742935458001739
106,26,7,categorization,0,bathroom,SHINEd_sun_auzqhkafidnkrwmo.tif,54,0.0666666666666667,0.0666666666666667,1.2,30269.614870542,30270.308579458,13,30269.679466542,30269.745011833,30270.334703042,30271.528071458,1,0.693708916001924
106,27,7,categorization,0,kitchen,SHINEd_sun_aehawpgmrlhlvcow.tif,81,0.0666666666666667,0.0666666666666667,0.75,30271.544956125,30272.407745917,13,30271.611471917,30271.668904833,30272.4208415,30273.164179208,0,0.862789792001422
106,28,7,categorization,0,bathroom,SHINEd_sun_afcoljnjfoxjtgja.tif,20,0.0666666666666667,0.0666666666666667,0.816666666666667,30273.16913925,30274.318938375,13,30273.230902583,30273.291846583,30274.327204375,30275.137208708,1,1.14979912499984
106,29,7,categorization,0,bathroom,SHINEd_sun_apynckhmoftszqoq.tif,47,0.0666666666666667,0.0666666666666667,1.96666666666667,30275.141890167,30275.878948958,13,30275.2036215,30275.264560333,30275.883426458,30277.843484542,1,0.737058791000891
106,30,7,categorization,0,bathroom,SHINEd_sun_akiytfaagpdsphgz.tif,31,0.0666666666666667,0.0666666666666667,1.2,30277.8631995,30278.752808125,13,30277.929732708,30277.995703625,30278.768367167,30279.961749,1,0.8896086249988
106,31,7,categorization,0,kitchen,SHINEd_sun_azmutvzbxypaceni.tif,110,0.0666666666666667,0.0666666666666667,0.883333333333333,30279.972928083,30280.812626667,13,30280.039654083,30280.105644958,30280.827996167,30281.704714333,0,0.839698584000871
106,32,7,categorization,0,kitchen,SHINEd_sun_aypmqwcualkenuoe.tif,109,0.0666666666666667,0.0666666666666667,1.33333333333333,30281.720569583,30282.759260208,9,30281.787266083,30281.845622708,30282.764328625,30284.091049583,1,1.03869062499871
106,33,7,categorization,0,kitchen,SHINEd_sun_aqeaevwwwjoqhzvl.tif,101,0.0666666666666667,0.0666666666666667,1.45,30284.109726125,30285.6791085,13,30284.174943333,30284.242391708,30285.701690042,30287.145075125,0,1.56938237500071
106,34,7,categorization,0,bathroom,SHINEd_sun_aunuadmjocsddsrl.tif,52,0.0666666666666667,0.0666666666666667,1.15,30287.164145417,30288.503813333,13,30287.23085125,30287.296936833,30288.522642542,30289.666008208,1,1.33966791600324
106,35,7,categorization,0,bathroom,SHINEd_sun_avhrdrntsqrjzccq.tif,55,0.0666666666666667,0.0666666666666667,0.966666666666667,30289.675367542,30290.717113708,9,30289.740885708,30289.807817708,30290.730241417,30291.690245875,0,1.04174616599994
106,36,7,categorization,0,bathroom,SHINEd_sun_aofnryafpsjimzsb.tif,40,0.0666666666666667,0.0666666666666667,1.45,30291.695662958,30293.006862917,13,30291.757355208,30291.818335125,30293.021115292,30294.464500958,1,1.31119995899644
106,37,7,categorization,0,kitchen,SHINEd_sun_aadbddgrdsjugojn.tif,64,0.0666666666666667,0.0666666666666667,0.8,30294.482975708,30295.402663458,9,30294.549641,30294.615867125,30295.422270542,30296.21560925,1,0.919687749999866
106,38,7,categorization,0,bathroom,SHINEd_sun_aljolscmmzydegqp.tif,33,0.0666666666666667,0.0666666666666667,1.45,30296.220553167,30297.062916875,9,30296.2823195,30296.343122917,30297.078352167,30298.521736833,0,0.84236370799772
106,39,7,categorization,0,bathroom,SHINEd_sun_aoybiabnpadelefl.tif,41,0.0666666666666667,0.0666666666666667,1.1,30298.538581292,30299.575220542,13,30298.604893042,30298.6712635,30299.593995833,30300.687388792,1,1.03663925000001
106,40,7,categorization,0,bathroom,SHINEd_labelme_sfxiulhjbhlyiyt.tif,11,0.0666666666666667,0.0666666666666667,1.16666666666667,30300.69651375,30301.789172542,13,30300.76103425,30300.829367667,30301.820436333,30302.980493417,1,1.09265879200029
106,41,7,categorization,0,kitchen,SHINEd_sun_acwjdupvyjsugpay.tif,76,0.0666666666666667,0.0666666666666667,1.31666666666667,30302.989054125,30303.868773458,9,30303.057418792,30303.121623167,30303.894418375,30305.204457958,1,0.879719333002868
106,42,7,categorization,0,bathroom,SHINEd_sun_axxbkopsgyouuebh.tif,58,0.0666666666666667,0.0666666666666667,1.68333333333333,30305.222872292,30306.18507575,13,30305.289773958,30305.355827208,30306.212543083,30307.889254542,1,0.962203457998839
106,43,7,categorization,0,kitchen,SHINEd_sun_abdxkyyxwfskuaqb.tif,70,0.0666666666666667,0.0666666666666667,0.966666666666667,30307.90775725,30309.026702875,9,30307.974238042,30308.040406542,30309.046868417,30310.006873708,1,1.11894562499947
106,44,7,categorization,0,bathroom,SHINEd_sun_agrwbmhcpmfuwmsg.tif,24,0.0666666666666667,0.0666666666666667,1.4,30310.011767625,30310.84692875,9,30310.073618042,30310.134473167,30310.853134667,30312.246544333,0,0.835161125000013
106,45,7,categorization,0,kitchen,SHINEd_sun_aapllqyqlykszopd.tif,66,0.0666666666666667,0.0666666666666667,0.783333333333333,30312.265130417,30313.01835175,9,30312.331576625,30312.397575875,30313.037093458,30313.813809042,1,0.75322133300142
106,46,7,categorization,0,bathroom,SHINEd_sun_ahcvzmoyaycdoftf.tif,27,0.0666666666666667,0.0666666666666667,1.08333333333333,30313.829755125,30314.687012458,9,30313.896412083,30313.954243875,30314.706574958,30315.7832935,0,0.857257332998415
106,47,7,categorization,0,bathroom,SHINEd_sun_apjevzvycyhuqghb.tif,43,0.0666666666666667,0.0666666666666667,1.43333333333333,30315.795680875,30317.057810458,9,30315.86026075,30315.928454583,30317.087794125,30318.514504708,0,1.26212958300312
106,48,7,categorization,0,kitchen,SHINEd_labelme_rykdqxenmhulbdn.tif,63,0.0666666666666667,0.0666666666666667,1.75,30318.529617458,30319.68043875,9,30318.596496583,30318.662666,30319.702072917,30321.44546625,1,1.15082129200164
106,49,7,categorization,0,bathroom,SHINEd_sun_aqrpegblszgcoujh.tif,48,0.0666666666666667,0.0666666666666667,1.21666666666667,30321.457511375,30322.306761292,13,30321.525809417,30321.590529583,30322.330854917,30323.540900542,1,0.849249916998815
106,50,7,categorization,0,kitchen,SHINEd_sun_aegoxogugdkwpmpj.tif,80,0.0666666666666667,0.0666666666666667,1.31666666666667,30323.55981825,30325.345473292,9,30323.626736708,30323.69258175,30325.369701208,30326.679749958,1,1.78565504200014
