sub_num,trial,block,task,is_practice,category,image,texture,duration,mask_dur,jitter,stim_time,time_of_resp,trial_response,mask_time,fix_time,jit_onset,trial_end,trial_accuracy,RT
106,1,8,categorization,0,bathroom,SHINEd_sun_aclfzgynxzxlbepz.tif,19,0.0666666666666667,0.0666666666666667,1.18333333333333,30333.6350655,30334.863190042,13,30333.697634417,30333.757988375,30334.876612667,30336.053332875,1,1.22812454200175
106,2,8,categorization,0,kitchen,SHINEd_sun_akcjzhbbjlbogpdi.tif,99,0.0666666666666667,0.0666666666666667,0.983333333333333,30336.064830125,30337.002682958,9,30336.129512167,30336.196888917,30337.019242917,30337.995957625,1,0.937852832998033
106,3,8,categorization,0,bathroom,SHINEd_sun_aleqenyvunhactkl.tif,32,0.0666666666666667,0.0666666666666667,1.65,30338.007672458,30339.295453125,9,30338.070016958,30338.130320958,30339.299732708,30340.943108042,0,1.28778066700033
106,4,8,categorization,0,kitchen,SHINEd_sun_admlmbcdswaszruo.tif,79,0.0666666666666667,0.0666666666666667,1.23333333333333,30340.963944167,30341.907943583,9,30341.030624,30341.096615208,30341.936778208,30343.163507875,1,0.943999415998405
106,5,8,categorization,0,bathroom,SHINEd_sun_abapwbhyhkfixyex.tif,14,0.0666666666666667,0.0666666666666667,0.916666666666667,30343.177891375,30344.9106955,9,30343.24460925,30343.310179375,30344.936499083,30345.846503,0,1.73280412500026
106,6,8,categorization,0,bathroom,SHINEd_sun_alotolagknyrgtsk.tif,35,0.0666666666666667,0.0666666666666667,1.56666666666667,30345.851856167,30347.166743917,13,30345.91373125,30345.974601042,30347.176716417,30348.736759917,1,1.31488775000253
106,7,8,categorization,0,bathroom,SHINEd_sun_alkosphxlxwjwgjd.tif,34,0.0666666666666667,0.0666666666666667,1.63333333333333,30348.755842958,30349.972208375,9,30348.82260075,30348.88901525,30349.996029042,30351.622750792,0,1.21636541699991
106,8,8,categorization,0,kitchen,SHINEd_sun_ajcbwwvdlsvjyzje.tif,96,0.0666666666666667,0.0666666666666667,1.1,30351.640943375,30353.134979167,13,30351.7076845,30351.773366917,30353.143029167,30354.236406708,0,1.49403579199861
106,9,8,categorization,0,kitchen,SHINEd_sun_aeqdocilnnpuvuhx.tif,83,0.0666666666666667,0.0666666666666667,1.38333333333333,30354.245227875,30356.041927208,9,30354.310077333,30354.377762375,30356.071208417,30357.44792725,1,1.79669933300102
106,10,8,categorization,0,kitchen,SHINEd_sun_abpwyqmlzafvklqo.tif,72,0.0666666666666667,0.0666666666666667,0.766666666666667,30357.462891542,30359.67929175,13,30357.529204083,30357.59530775,30359.698240042,30360.458245875,0,2.21640020799896
106,11,8,categorization,0,kitchen,SHINEd_sun_aggjlwcdjsjcaemh.tif,86,0.0666666666666667,0.0666666666666667,1.45,30360.463218333,30361.638837625,9,30360.52508475,30360.585847292,30361.654319583,30363.097703833,1,1.17561929200019
106,12,8,categorization,0,kitchen,SHINEd_sun_aaxxjlsuzvqlgylf.tif,68,0.0666666666666667,0.0666666666666667,0.983333333333333,30363.116282292,30364.175512333,13,30363.182863083,30363.249365083,30364.187124917,30365.163797833,0,1.05923004099895
106,13,8,categorization,0,kitchen,SHINEd_sun_agubuxuukhzyzpdp.tif,88,0.0666666666666667,0.0666666666666667,0.716666666666667,30365.168906667,30366.246398958,13,30365.230539292,30365.291741542,30366.260291583,30366.970296292,0,1.07749229099863
106,14,8,categorization,0,kitchen,SHINEd_sun_avszsnwsbuqfgzbn.tif,105,0.0666666666666667,0.0666666666666667,1.41666666666667,30366.975255125,30367.799346375,13,30367.037029167,30367.097852333,30367.8169355,30369.226968875,0,0.824091250000492
106,15,8,categorization,0,kitchen,SHINEd_sun_akchetnepxlcxhsu.tif,98,0.0666666666666667,0.0666666666666667,1.21666666666667,30369.245554917,30370.112036958,13,30369.312248917,30369.378276667,30370.133579042,30371.343620542,0,0.866482040997653
106,16,8,categorization,0,bathroom,SHINEd_sun_anhioqovhscjqqwb.tif,38,0.0666666666666667,0.0666666666666667,1.61666666666667,30371.362714458,30372.254431375,13,30371.429431083,30371.495535542,30372.267605875,30373.877657833,1,0.891716917001759
106,17,8,categorization,0,kitchen,SHINEd_sun_amjjdeyrggfqgmom.tif,100,0.0666666666666667,0.0666666666666667,0.783333333333333,30373.895837583,30375.144985375,9,30373.962587458,30374.028160625,30375.170546958,30375.947218625,1,1.24914779199753
106,18,8,categorization,0,bathroom,SHINEd_sun_ahqjwnzgolcaoidx.tif,29,0.0666666666666667,0.0666666666666667,1.98333333333333,30375.952018458,30377.350766583,9,30376.013706875,30376.07472325,30377.360882417,30379.337606083,0,1.39874812500057
106,19,8,categorization,0,bathroom,SHINEd_sun_axyrejkiiaqiurjk.tif,59,0.0666666666666667,0.0666666666666667,0.983333333333333,30379.354988833,30380.614364542,13,30379.423543792,30379.487738833,30380.623771833,30381.600443125,1,1.25937570899987
106,20,8,categorization,0,kitchen,SHINEd_sun_acgtpgfybqjmzeyw.tif,75,0.0666666666666667,0.0666666666666667,0.8,30381.605328583,30382.446778125,13,30381.667009417,30381.727993667,30382.463028208,30383.256365708,0,0.841449542000191
106,21,8,categorization,0,bathroom,SHINEd_sun_azqyogdvyhahyram.tif,60,0.0666666666666667,0.0666666666666667,0.733333333333333,30383.2618135,30384.318335458,13,30383.323475458,30383.384463333,30384.336420833,30385.063092958,1,1.05652195799848
106,22,8,categorization,0,bathroom,SHINEd_sun_agguqiubmwhqqunb.tif,22,0.0666666666666667,0.0666666666666667,0.966666666666667,30385.068029667,30386.463394,13,30385.129713708,30385.190685042,30386.476656083,30387.436660167,1,1.39536433299872
106,23,8,categorization,0,kitchen,SHINEd_sun_axyyrmzcupyhlivc.tif,107,0.0666666666666667,0.0666666666666667,0.866666666666667,30387.441626833,30388.670715125,9,30387.503401167,30387.564188458,30388.683265958,30389.543270875,1,1.22908829200242
106,24,8,categorization,0,bathroom,SHINEd_sun_aapitsgbtktqubfy.tif,12,0.0666666666666667,0.0666666666666667,1.23333333333333,30389.547781042,30390.422512,13,30389.609459667,30389.670389208,30390.439241833,30391.665963917,1,0.874730957999418
106,25,8,categorization,0,kitchen,SHINEd_sun_ahspylgoovwmwvgk.tif,93,0.0666666666666667,0.0666666666666667,1.9,30391.683732542,30392.655139083,9,30391.750461958,30391.816740833,30392.672426417,30394.5657965,1,0.971406541000761
106,26,8,categorization,0,bathroom,SHINEd_sun_ajlawzvmubibwbpy.tif,30,0.0666666666666667,0.0666666666666667,0.866666666666667,30394.582676875,30395.926724625,13,30394.649237833,30394.71555275,30395.934851167,30396.794855042,1,1.34404774999712
106,27,8,categorization,0,bathroom,SHINEd_sun_acgyywnybuveqsro.tif,18,0.0666666666666667,0.0666666666666667,0.966666666666667,30396.799451167,30397.830922208,13,30396.86118175,30396.922068042,30397.840591708,30398.800595167,1,1.03147104099844
106,28,8,categorization,0,kitchen,SHINEd_sun_afuyedyxivkhecmu.tif,85,0.0666666666666667,0.0666666666666667,0.916666666666667,30398.805334167,30399.734798667,9,30398.867082792,30398.927996542,30399.74691925,30400.656924542,1,0.929464500000904
106,29,8,categorization,0,bathroom,SHINEd_sun_aghyqhbptboemmoq.tif,23,0.0666666666666667,0.0666666666666667,0.916666666666667,30400.661784375,30401.743109458,13,30400.723494,30400.784398917,30401.752849542,30402.662854458,1,1.08132508299968
106,30,8,categorization,0,kitchen,SHINEd_sun_ahpczsiumwwocjkv.tif,92,0.0666666666666667,0.0666666666666667,1.4,30402.66774725,30404.318950542,13,30402.729475542,30402.790520292,30404.326207875,30405.719597417,0,1.65120329199999
106,31,8,categorization,0,bathroom,SHINEd_sun_acduarbnmmoglmiv.tif,16,0.0666666666666667,0.0666666666666667,1.75,30405.737320875,30406.912221625,13,30405.804129667,30405.869996125,30406.925162042,30408.668558167,1,1.17490075000023
106,32,8,categorization,0,bathroom,SHINEd_sun_aspsyogrekjtfozg.tif,50,0.0666666666666667,0.0666666666666667,1.25,30408.685405958,30409.459619125,13,30408.7538635,30408.818388833,30409.474579583,30410.717974042,1,0.774213166998379
106,33,8,categorization,0,kitchen,SHINEd_sun_aamedkxepzlwuxes.tif,65,0.0666666666666667,0.0666666666666667,1.05,30410.736641333,30411.977402167,13,30410.803504375,30410.869449875,30411.995783708,30413.039152292,0,1.24076083399996
106,34,8,categorization,0,kitchen,SHINEd_sun_ahljzhgcdpomplvg.tif,91,0.0666666666666667,0.0666666666666667,1.06666666666667,30413.050636,30414.02202875,13,30413.115470458,30413.182081708,30414.038007125,30415.098062458,0,0.971392750001542
106,35,8,categorization,0,bathroom,SHINEd_sun_atstyziqcmkahyxk.tif,51,0.0666666666666667,0.0666666666666667,1.21666666666667,30415.1084465,30416.022337208,13,30415.175383083,30415.24149025,30416.048599042,30417.258657125,1,0.913890708001418
106,36,8,categorization,0,kitchen,SHINEd_sun_abftihopvusyfakt.tif,71,0.0666666666666667,0.0666666666666667,0.95,30417.278872125,30418.679669083,9,30417.34620075,30417.4113635,30418.707631417,30419.650970792,1,1.40079695800159
106,37,8,categorization,0,kitchen,SHINEd_sun_acxkpeoqbwcxfvip.tif,77,0.0666666666666667,0.0666666666666667,0.9,30419.656065792,30420.766415792,9,30419.717877125,30419.779019917,30420.781832042,30421.675169833,1,1.11034999999902
106,38,8,categorization,0,kitchen,SHINEd_sun_agzzivivdpnawacl.tif,89,0.0666666666666667,0.0666666666666667,1.78333333333333,30421.679634083,30422.495121667,13,30421.741411833,30421.802304333,30422.504226625,30424.280945333,0,0.815487584000948
106,39,8,categorization,0,kitchen,SHINEd_sun_aarfiyshqohlwkmo.tif,67,0.0666666666666667,0.0666666666666667,1.16666666666667,30424.298022667,30425.554835708,9,30424.364871167,30424.430801833,30425.572456,30426.732493125,1,1.25681304099999
106,40,8,categorization,0,kitchen,SHINEd_sun_auticobqsbwgoppi.tif,104,0.0666666666666667,0.0666666666666667,0.783333333333333,30426.741084333,30428.783010958,9,30426.807698708,30426.874224792,30428.793832125,30429.570502458,1,2.04192662499918
106,41,8,categorization,0,bathroom,SHINEd_sun_agyqfjcfkdcydepw.tif,25,0.0666666666666667,0.0666666666666667,1.23333333333333,30429.577405083,30430.774524333,9,30429.639166458,30429.700013917,30430.785502,30432.012211042,0,1.19711924999865
106,42,8,categorization,0,bathroom,SHINEd_sun_acegryoqftbzowsg.tif,17,0.0666666666666667,0.0666666666666667,0.9,30432.031382208,30433.150963125,9,30432.097841458,30432.162405958,30433.167929792,30434.061267417,0,1.11958091700217
106,43,8,categorization,0,kitchen,SHINEd_sun_agorklincwxrdtga.tif,87,0.0666666666666667,0.0666666666666667,0.7,30434.066170042,30435.150361083,9,30434.127822667,30434.188837417,30435.157842542,30435.851181625,1,1.08419104100176
106,44,8,categorization,0,kitchen,SHINEd_sun_abdenxonkemggwsq.tif,69,0.0666666666666667,0.0666666666666667,1.23333333333333,30435.856042917,30436.654470917,9,30435.917927958,30435.978673417,30436.664050958,30437.890771833,1,0.798428000001877
106,45,8,categorization,0,kitchen,SHINEd_sun_ahywdevtimnqcsln.tif,94,0.0666666666666667,0.0666666666666667,1,30437.909238833,30439.569934375,9,30437.976588833,30438.042524375,30439.603146375,30440.596484708,1,1.6606955419993
106,46,8,categorization,0,bathroom,SHINEd_sun_apmqjbnwghzuhhzh.tif,46,0.0666666666666667,0.0666666666666667,1.38333333333333,30440.601440458,30441.406169417,13,30440.663036333,30440.724105083,30441.409506083,30442.786220625,1,0.804728959003114
106,47,8,categorization,0,bathroom,SHINEd_sun_apkruvsevgegsdwp.tif,44,0.0666666666666667,0.0666666666666667,1.3,30442.8014515,30443.576884917,13,30442.869306833,30442.93266125,30443.605757708,30444.899148625,1,0.775433417002205
106,48,8,categorization,0,bathroom,SHINEd_sun_aavhrsfjbserjtht.tif,13,0.0666666666666667,0.0666666666666667,0.833333333333333,30444.917084792,30445.78535125,13,30444.984461208,30445.049888958,30445.806418167,30446.633135292,1,0.868266458001017
106,49,8,categorization,0,bathroom,SHINEd_sun_ahijqszoswveeyji.tif,28,0.0666666666666667,0.0666666666666667,0.95,30446.641160667,30447.446542917,13,30446.702976583,30446.7637445,30447.465486667,30448.408823917,1,0.805382250000548
106,50,8,categorization,0,kitchen,SHINEd_sun_aunzlwrbjumxhwdj.tif,103,0.0666666666666667,0.0666666666666667,1.43333333333333,30448.413721875,30449.270644792,13,30448.476022083,30448.536387333,30449.28859825,30450.715324125,0,0.856922916998883
