sub_num,trial,block,task,is_practice,category,image,texture,duration,mask_dur,jitter,stim_time,time_of_resp,trial_response,mask_time,fix_time,jit_onset,trial_end,trial_accuracy,RT
124,1,0,aesthetic,1,bathroom,bathroom_practice1.tif,221,1.5,0,1.6,5977.79807725,5981.770734458,3,NaN,5981.776413958,5981.794691125,5983.388080833,NaN,NaN
124,2,0,aesthetic,1,bathroom,bathroom_practice2.tif,222,1.5,0,1.26666666666667,5983.407873583,5987.730898833,5,NaN,5987.736344292,5987.754641833,5989.014675583,NaN,NaN
124,3,0,aesthetic,1,bathroom,bathroom_practice3.tif,223,1.5,0,1.15,5989.032519292,5993.026627417,2,NaN,5993.032253042,5993.050552625,5994.193937333,NaN,NaN
124,4,0,aesthetic,1,bathroom,bathroom_practice4.tif,224,1.5,0,1.75,5994.202852667,5997.34623425,4,NaN,5997.352243667,5997.370665292,5999.11405775,NaN,NaN
124,5,0,aesthetic,1,bathroom,bathroom_practice5.tif,225,1.5,0,0.85,5999.131157625,6002.802161875,5,NaN,6002.808098583,6002.826540375,6003.6698795,NaN,NaN
124,1,1,aesthetic,0,bathroom,sun_acgyywnybuveqsro.tif,128,1.5,0,0.933333333333333,6017.078253792,6021.963152292,4,NaN,6021.968550125,6021.986909417,6022.913581583,NaN,NaN
124,2,1,aesthetic,0,bathroom,sun_ahcvzmoyaycdoftf.tif,137,1.5,0,1.18333333333333,6022.919039875,6028.930450917,3,NaN,6028.936180417,6028.954512833,6030.131207583,NaN,NaN
124,3,1,aesthetic,0,bathroom,sun_ahqjwnzgolcaoidx.tif,139,1.5,0,1.56666666666667,6030.141624708,6033.578597708,4,NaN,6033.584400625,6033.60287125,6035.162926625,NaN,NaN
124,4,1,aesthetic,0,bathroom,sun_ambriybtogmepttm.tif,146,1.5,0,1.38333333333333,6035.1794465,6039.994256208,6,NaN,6040.000123833,6040.018414667,6041.395133458,NaN,NaN
124,5,1,aesthetic,0,bathroom,sun_apkruvsevgegsdwp.tif,154,1.5,0,1.23333333333333,6041.411952583,6044.474660792,2,NaN,6044.480224333,6044.498775083,6045.725480167,NaN,NaN
124,6,1,aesthetic,0,bathroom,sun_apkxzenqapsujocq.tif,155,1.5,0,1.83333333333333,6045.743235917,6049.322551333,4,NaN,6049.328196208,6049.346544667,6051.173259542,NaN,NaN
124,7,1,aesthetic,0,bathroom,sun_agyqfjcfkdcydepw.tif,135,1.5,0,1.1,6051.191581667,6055.219122,7,NaN,6055.225122333,6055.243288125,6056.336663292,NaN,NaN
124,8,1,aesthetic,0,bathroom,sun_anhioqovhscjqqwb.tif,148,1.5,0,1.71666666666667,6056.346808417,6059.306886292,6,NaN,6059.312462333,6059.330947417,6061.04099325,NaN,NaN
124,9,1,aesthetic,0,bathroom,sun_alotolagknyrgtsk.tif,145,1.5,0,1.01666666666667,6061.059078792,6064.427703125,6,NaN,6064.450859167,6064.474218667,6065.484224292,NaN,NaN
124,10,1,aesthetic,0,bathroom,sun_auzqhkafidnkrwmo.tif,164,1.5,0,1.36666666666667,6065.4893515,6068.754115708,7,NaN,6068.760306167,6068.778881625,6070.138915083,NaN,NaN
124,11,1,aesthetic,0,bathroom,sun_agguqiubmwhqqunb.tif,132,1.5,0,0.75,6070.154317292,6073.80204425,6,NaN,6073.807882917,6073.826220708,6074.569559,NaN,NaN
124,12,1,aesthetic,0,bathroom,sun_acduarbnmmoglmiv.tif,126,1.5,0,1.31666666666667,6074.574711542,6077.452193917,5,NaN,6077.480745958,6077.503765375,6078.813808792,NaN,NaN
124,13,1,aesthetic,0,bathroom,sun_aclfzgynxzxlbepz.tif,129,1.5,0,1.33333333333333,6078.829312083,6081.666506208,4,NaN,6081.671937958,6081.690280583,6083.016987292,NaN,NaN
124,14,1,aesthetic,0,bathroom,sun_axxbkopsgyouuebh.tif,168,1.5,0,1.41666666666667,6083.030543,6087.154474167,4,NaN,6087.16006975,6087.178418083,6088.588452917,NaN,NaN
124,15,1,aesthetic,0,bathroom,sun_avhrdrntsqrjzccq.tif,165,1.5,0,1.93333333333333,6088.603391292,6091.466211833,7,NaN,6091.4720715,6091.490514208,6093.417218833,NaN,NaN
124,16,1,aesthetic,0,bathroom,sun_ahijqszoswveeyji.tif,138,1.5,0,1.68333333333333,6093.429962042,6096.294098792,6,NaN,6096.322678667,6096.346122333,6098.022806375,NaN,NaN
124,17,1,aesthetic,0,bathroom,sun_atstyziqcmkahyxk.tif,161,1.5,0,0.783333333333333,6098.037734875,6102.178500792,3,NaN,6102.183879083,6102.20219725,6102.978870667,NaN,NaN
124,18,1,aesthetic,0,bathroom,sun_asfwthctfqerjvxr.tif,159,1.5,0,1.93333333333333,6102.984077708,6106.13777,7,NaN,6106.145306083,6106.16368925,6108.0903955,NaN,NaN
124,19,1,aesthetic,0,bathroom,sun_aofnryafpsjimzsb.tif,150,1.5,0,1.18333333333333,6108.108417083,6111.146032042,6,NaN,6111.169776958,6111.192683917,6112.369403,NaN,NaN
124,20,1,aesthetic,0,bathroom,sun_afcoljnjfoxjtgja.tif,130,1.5,0,1.61666666666667,6112.378419208,6115.882829333,7,NaN,6115.8882955,6115.906666917,6117.516721083,NaN,NaN
124,21,1,aesthetic,0,bathroom,sun_akiytfaagpdsphgz.tif,141,1.5,0,1.16666666666667,6117.534940125,6121.873968542,6,NaN,6121.8798135,6121.898288875,6123.058331583,NaN,NaN
124,22,1,aesthetic,0,bathroom,sun_awnqiikzaispgmwo.tif,166,1.5,0,1.85,6123.067399958,6128.529707667,3,NaN,6128.535620167,6128.553931708,6130.397324417,NaN,NaN
124,23,1,aesthetic,0,bathroom,sun_apjevzvycyhuqghb.tif,153,1.5,0,1.68333333333333,6130.413399333,6133.389965875,7,NaN,6133.418876958,6133.442056417,6135.118761375,NaN,NaN
124,24,1,aesthetic,0,bathroom,sun_apynckhmoftszqoq.tif,157,1.5,0,1.98333333333333,6135.134163417,6139.002562292,1,NaN,6139.008585875,6139.027054958,6141.003773333,NaN,NaN
124,25,1,aesthetic,0,bathroom,sun_aoybiabnpadelefl.tif,151,1.5,0,1.28333333333333,6141.021467167,6147.529660333,5,NaN,6147.536295125,6147.554689958,6148.831399583,NaN,NaN
124,1,2,aesthetic,0,bathroom,sun_apmqjbnwghzuhhzh.tif,156,1.5,0,0.9,6163.955469667,6167.314613042,4,NaN,6167.320198542,6167.338680792,6168.232019,NaN,NaN
124,2,2,aesthetic,0,bathroom,sun_aapitsgbtktqubfy.tif,122,1.5,0,1.95,6168.236922125,6171.137004583,4,NaN,6171.167169708,6171.190542042,6173.133910583,NaN,NaN
124,3,2,aesthetic,0,bathroom,sun_axyrejkiiaqiurjk.tif,169,1.5,0,1,6173.151267792,6176.233529042,6,NaN,6176.262142208,6176.285633542,6177.278972375,NaN,NaN
124,4,2,aesthetic,0,bathroom,sun_ahaulkltgpkeeemi.tif,136,1.5,0,0.733333333333333,6177.284452458,6180.210683375,2,NaN,6180.235077,6180.258453833,6180.985125125,NaN,NaN
124,5,2,aesthetic,0,bathroom,sun_amzlamotzwfkwjco.tif,147,1.5,0,1.2,6180.990490208,6185.050527208,5,NaN,6185.056026583,6185.074473875,6186.267864208,NaN,NaN
124,6,2,aesthetic,0,bathroom,sun_aunuadmjocsddsrl.tif,162,1.5,0,1.21666666666667,6186.281696667,6188.89045025,1,NaN,6188.895873958,6188.914610167,6190.1246635,NaN,NaN
124,7,2,aesthetic,0,bathroom,sun_azqyogdvyhahyram.tif,170,1.5,0,0.933333333333333,6190.14181875,6193.370154792,3,NaN,6193.375634375,6193.39398725,6194.320659917,NaN,NaN
124,8,2,aesthetic,0,bathroom,sun_aqrpegblszgcoujh.tif,158,1.5,0,0.916666666666667,6194.325837333,6197.169307417,6,NaN,6197.1959465,6197.217007583,6198.1270115,NaN,NaN
124,9,2,aesthetic,0,bathroom,sun_aspsyogrekjtfozg.tif,160,1.5,0,1.1,6198.132420708,6201.009693333,6,NaN,6201.035809,6201.059258917,6202.152633958,NaN,NaN
124,10,2,aesthetic,0,bathroom,sun_axldvoqbuvuggfmq.tif,167,1.5,0,1.16666666666667,6202.164185625,6205.081479375,4,NaN,6205.087290083,6205.105694958,6206.265731667,NaN,NaN
124,11,2,aesthetic,0,bathroom,sun_abjtwfukuwddzted.tif,125,1.5,0,0.783333333333333,6206.278031917,6210.3618465,2,NaN,6210.36762775,6210.386096208,6211.162768917,NaN,NaN
124,12,2,aesthetic,0,bathroom,sun_abapwbhyhkfixyex.tif,124,1.5,0,1.95,6211.167812833,6214.102032417,5,NaN,6214.130662708,6214.15350325,6216.096879167,NaN,NaN
124,13,2,aesthetic,0,bathroom,sun_anryaplzeujmzfkd.tif,149,1.5,0,1.05,6216.114449625,6220.913522833,6,NaN,6220.919574,6220.93800475,6221.981378583,NaN,NaN
124,14,2,aesthetic,0,bathroom,sun_ausgutylgojavyoq.tif,163,1.5,0,1.03333333333333,6221.990947375,6225.666103042,5,NaN,6225.671635917,6225.6898945,6226.71660175,NaN,NaN
124,15,2,aesthetic,0,bathroom,sun_aggnnqpdorgxpvce.tif,131,1.5,0,1.45,6226.724741125,6229.449444,7,NaN,6229.455273667,6229.473521542,6230.916909625,NaN,NaN
124,16,2,aesthetic,0,bathroom,sun_aljolscmmzydegqp.tif,143,1.5,0,0.966666666666667,6230.933841292,6237.945463667,4,NaN,6237.951624542,6237.969908625,6238.929914625,NaN,NaN
124,17,2,aesthetic,0,bathroom,sun_aghyqhbptboemmoq.tif,133,1.5,0,0.966666666666667,6238.935377583,6241.794799542,3,NaN,6241.816881333,6241.840348292,6242.800353708,NaN,NaN
124,18,2,aesthetic,0,bathroom,sun_alkosphxlxwjwgjd.tif,144,1.5,0,1.2,6242.805802,6245.723019875,5,NaN,6245.751553083,6245.774702917,6246.968089708,NaN,NaN
124,19,2,aesthetic,0,bathroom,sun_apeeialkgkuxddgh.tif,152,1.5,0,0.933333333333333,6246.984910208,6249.913315542,2,NaN,6249.919305875,6249.937655833,6250.864328917,NaN,NaN
124,20,2,aesthetic,0,bathroom,sun_aleqenyvunhactkl.tif,142,1.5,0,1.31666666666667,6250.869239833,6253.9861455,2,NaN,6253.991760125,6254.010425792,6255.320476125,NaN,NaN
124,21,2,aesthetic,0,bathroom,sun_ajlawzvmubibwbpy.tif,140,1.5,0,1.18333333333333,6255.33876075,6258.497258792,5,NaN,6258.503052958,6258.521362625,6259.698072958,NaN,NaN
124,22,2,aesthetic,0,bathroom,labelme_sfxiulhjbhlyiyt.tif,121,1.5,0,1.71666666666667,6259.708803375,6263.482218625,3,NaN,6263.4875215,6263.505868792,6265.215909958,NaN,NaN
124,23,2,aesthetic,0,bathroom,sun_aavhrsfjbserjtht.tif,123,1.5,0,1.53333333333333,6265.225697417,6270.505132667,5,NaN,6270.511341667,6270.529712,6272.056414125,NaN,NaN
124,24,2,aesthetic,0,bathroom,sun_acegryoqftbzowsg.tif,127,1.5,0,0.933333333333333,6272.072024792,6275.217459167,5,NaN,6275.223335208,6275.241673125,6276.168345083,NaN,NaN
124,25,2,aesthetic,0,bathroom,sun_agrwbmhcpmfuwmsg.tif,134,1.5,0,0.916666666666667,6276.173401417,6281.305814625,5,NaN,6281.311435292,6281.3297555,6282.239761833,NaN,NaN
