sub_num,trial,block,task,is_practice,category,image,texture,duration,mask_dur,jitter,stim_time,time_of_resp,trial_response,mask_time,fix_time,jit_onset,trial_end,trial_accuracy,RT
102,1,0,usability,1,bathroom,bathroom_practice3.tif,223,1.5,0,0.983333333333333,19433.112419833,19438.4382135,6,NaN,19438.444924208,19438.463885375,19439.440612416,NaN,NaN
102,2,0,usability,1,bathroom,bathroom_practice4.tif,224,1.5,0,1.78333333333333,19439.445911875,19444.078363416,7,NaN,19444.084433416,19444.102941708,19445.879795791,NaN,NaN
102,3,0,usability,1,bathroom,bathroom_practice5.tif,225,1.5,0,1.78333333333333,19445.896208291,19448.675704041,7,NaN,19448.70500125,19448.728271125,19450.504989625,NaN,NaN
102,4,0,usability,1,bathroom,bathroom_practice2.tif,222,1.5,0,1.26666666666667,19450.525870666,19456.126880125,2,NaN,19456.13252725,19456.150905333,19457.410959666,NaN,NaN
102,5,0,usability,1,bathroom,bathroom_practice1.tif,221,1.5,0,1.05,19457.430428208,19461.734068208,7,NaN,19461.73996175,19461.75837625,19462.801753125,NaN,NaN
102,1,1,usability,0,bathroom,sun_apynckhmoftszqoq.tif,157,1.5,0,1.01666666666667,19467.280772291,19472.030736208,5,NaN,19472.036286125,19472.054693541,19473.064741208,NaN,NaN
102,2,1,usability,0,bathroom,sun_avhrdrntsqrjzccq.tif,165,1.5,0,1.61666666666667,19473.075220916,19476.326320333,4,NaN,19476.332063375,19476.350389625,19477.960441875,NaN,NaN
102,3,1,usability,0,bathroom,sun_apkxzenqapsujocq.tif,155,1.5,0,1.16666666666667,19477.979714041,19480.654045666,7,NaN,19480.659776125,19480.678450666,19481.838483666,NaN,NaN
102,4,1,usability,0,bathroom,sun_aoybiabnpadelefl.tif,151,1.5,0,0.983333333333333,19481.848988083,19485.590218916,5,NaN,19485.596191916,19485.614613041,19486.591283708,NaN,NaN
102,5,1,usability,0,bathroom,sun_aggnnqpdorgxpvce.tif,131,1.5,0,0.783333333333333,19486.605277708,19490.038166666,7,NaN,19490.043887625,19490.062262458,19490.838934583,NaN,NaN
102,6,1,usability,0,bathroom,sun_ambriybtogmepttm.tif,146,1.5,0,0.816666666666667,19490.843243375,19494.181741208,1,NaN,19494.18766675,19494.206019875,19495.016025041,NaN,NaN
102,7,1,usability,0,bathroom,sun_agrwbmhcpmfuwmsg.tif,134,1.5,0,1.1,19495.021462958,19499.197628333,4,NaN,19499.203486958,19499.222412125,19500.315782833,NaN,NaN
102,8,1,usability,0,bathroom,sun_amzlamotzwfkwjco.tif,147,1.5,0,1.65,19500.326855416,19503.725946,2,NaN,19503.731666833,19503.750089375,19505.3934735,NaN,NaN
102,9,1,usability,0,bathroom,sun_afcoljnjfoxjtgja.tif,130,1.5,0,1.13333333333333,19505.412523458,19509.070547416,2,NaN,19509.077248958,19509.095603125,19510.222316666,NaN,NaN
102,10,1,usability,0,bathroom,sun_aofnryafpsjimzsb.tif,150,1.5,0,0.766666666666667,19510.232368375,19513.157997375,1,NaN,19513.163633791,19513.182041583,19513.942046791,NaN,NaN
102,11,1,usability,0,bathroom,sun_apeeialkgkuxddgh.tif,152,1.5,0,1.25,19513.946972458,19518.278426333,2,NaN,19518.284008166,19518.302391666,19519.545773375,NaN,NaN
102,12,1,usability,0,bathroom,sun_aavhrsfjbserjtht.tif,123,1.5,0,1.5,19519.557079083,19522.949592291,3,NaN,19522.955706791,19522.974028083,19524.467403541,NaN,NaN
102,13,1,usability,0,bathroom,labelme_sfxiulhjbhlyiyt.tif,121,1.5,0,1.56666666666667,19524.488699083,19527.694316291,6,NaN,19527.699963958,19527.7184435,19529.278484291,NaN,NaN
102,14,1,usability,0,bathroom,sun_alkosphxlxwjwgjd.tif,144,1.5,0,1.45,19529.296997708,19532.485920125,7,NaN,19532.491454625,19532.509800125,19533.953171875,NaN,NaN
102,15,1,usability,0,bathroom,sun_atstyziqcmkahyxk.tif,161,1.5,0,1.53333333333333,19533.971143333,19538.309560166,7,NaN,19538.31552625,19538.333802083,19539.860521333,NaN,NaN
102,16,1,usability,0,bathroom,sun_aleqenyvunhactkl.tif,142,1.5,0,0.8,19539.877989583,19543.078487708,6,NaN,19543.0839685,19543.102289958,19543.895627375,NaN,NaN
102,17,1,usability,0,bathroom,sun_ahaulkltgpkeeemi.tif,136,1.5,0,0.933333333333333,19543.899807916,19546.91865975,5,NaN,19546.944271625,19546.964529625,19547.891202375,NaN,NaN
102,18,1,usability,0,bathroom,sun_aljolscmmzydegqp.tif,143,1.5,0,1.75,19547.895901083,19554.565697125,4,NaN,19554.572190125,19554.591754708,19556.33514175,NaN,NaN
102,19,1,usability,0,bathroom,sun_ahijqszoswveeyji.tif,138,1.5,0,1.48333333333333,19556.350868875,19560.030382041,5,NaN,19560.036506583,19560.055113375,19561.531815791,NaN,NaN
102,20,1,usability,0,bathroom,sun_aclfzgynxzxlbepz.tif,129,1.5,0,1.03333333333333,19561.551709083,19567.213896625,5,NaN,19567.219902166,19567.238892916,19568.265600958,NaN,NaN
102,21,1,usability,0,bathroom,sun_alotolagknyrgtsk.tif,145,1.5,0,1.23333333333333,19568.274242833,19571.237803791,2,NaN,19571.243490125,19571.261785166,19572.488502208,NaN,NaN
102,22,1,usability,0,bathroom,sun_axxbkopsgyouuebh.tif,168,1.5,0,1.28333333333333,19572.510501625,19576.38232225,5,NaN,19576.387942041,19576.406395125,19577.683094541,NaN,NaN
102,23,1,usability,0,bathroom,sun_ahcvzmoyaycdoftf.tif,137,1.5,0,1.66666666666667,19577.698088833,19583.533940833,5,NaN,19583.539660625,19583.558021875,19585.21806775,NaN,NaN
102,24,1,usability,0,bathroom,sun_aghyqhbptboemmoq.tif,133,1.5,0,1.26666666666667,19585.239531958,19588.191874958,6,NaN,19588.221218166,19588.244442166,19589.504488416,NaN,NaN
102,25,1,usability,0,bathroom,sun_awnqiikzaispgmwo.tif,166,1.5,0,1.4,19589.52073475,19594.061805458,4,NaN,19594.067429083,19594.085709958,19595.479081583,NaN,NaN
102,1,2,usability,0,bathroom,sun_abjtwfukuwddzted.tif,125,1.5,0,1.66666666666667,19600.346600041,19603.685380333,3,NaN,19603.69241725,19603.710830041,19605.370865625,NaN,NaN
102,2,2,usability,0,bathroom,sun_aqrpegblszgcoujh.tif,158,1.5,0,1.85,19605.3892615,19610.82209725,5,NaN,19610.827548166,19610.845773041,19612.689148166,NaN,NaN
102,3,2,usability,0,bathroom,sun_acgyywnybuveqsro.tif,128,1.5,0,1.65,19612.708298333,19618.53426625,6,NaN,19618.540066291,19618.558383666,19620.201759958,NaN,NaN
102,4,2,usability,0,bathroom,sun_azqyogdvyhahyram.tif,170,1.5,0,0.95,19620.222050083,19624.125547375,7,NaN,19624.13127525,19624.149761666,19625.093099833,NaN,NaN
102,5,2,usability,0,bathroom,sun_apmqjbnwghzuhhzh.tif,156,1.5,0,0.783333333333333,19625.104517791,19628.83747625,6,NaN,19628.84317375,19628.861618541,19629.638290916,NaN,NaN
102,6,2,usability,0,bathroom,sun_ajlawzvmubibwbpy.tif,140,1.5,0,1.13333333333333,19629.654478083,19632.737793625,3,NaN,19632.760284875,19632.780230583,19633.906943375,NaN,NaN
102,7,2,usability,0,bathroom,sun_akiytfaagpdsphgz.tif,141,1.5,0,1.63333333333333,19633.915598666,19636.877578833,6,NaN,19636.883181083,19636.901390208,19638.528088958,NaN,NaN
102,8,2,usability,0,bathroom,sun_acduarbnmmoglmiv.tif,126,1.5,0,1.2,19638.546619833,19642.077785666,2,NaN,19642.088827875,19642.107974875,19643.301364375,NaN,NaN
102,9,2,usability,0,bathroom,sun_ahqjwnzgolcaoidx.tif,139,1.5,0,1.71666666666667,19643.317070833,19648.237097291,5,NaN,19648.24323475,19648.261501,19649.97154725,NaN,NaN
102,10,2,usability,0,bathroom,sun_asfwthctfqerjvxr.tif,159,1.5,0,0.9,19649.98995225,19654.20533225,5,NaN,19654.211090541,19654.229578791,19655.122916416,NaN,NaN
102,11,2,usability,0,bathroom,sun_apjevzvycyhuqghb.tif,153,1.5,0,0.9,19655.127524416,19659.373811375,6,NaN,19659.37947325,19659.397805041,19660.291144375,NaN,NaN
102,12,2,usability,0,bathroom,sun_agguqiubmwhqqunb.tif,132,1.5,0,0.766666666666667,19660.295813125,19663.717467125,6,NaN,19663.723288375,19663.74149875,19664.501504625,NaN,NaN
102,13,2,usability,0,bathroom,sun_acegryoqftbzowsg.tif,127,1.5,0,0.966666666666667,19664.506518458,19670.805999583,6,NaN,19670.811701875,19670.829939291,19671.789943333,NaN,NaN
102,14,2,usability,0,bathroom,sun_apkruvsevgegsdwp.tif,154,1.5,0,0.7,19671.794565833,19674.82486725,7,NaN,19674.85078225,19674.870858125,19675.564195833,NaN,NaN
102,15,2,usability,0,bathroom,sun_aunuadmjocsddsrl.tif,162,1.5,0,1.1,19675.569033083,19679.085763916,3,NaN,19679.091391833,19679.109641708,19680.203020958,NaN,NaN
102,16,2,usability,0,bathroom,sun_axyrejkiiaqiurjk.tif,169,1.5,0,1.33333333333333,19680.211632541,19684.989512125,3,NaN,19684.99500125,19685.013320375,19686.340035625,NaN,NaN
102,17,2,usability,0,bathroom,sun_ausgutylgojavyoq.tif,163,1.5,0,1.15,19686.360044,19689.404918833,4,NaN,19689.4108455,19689.429153,19690.572531416,NaN,NaN
102,18,2,usability,0,bathroom,sun_aapitsgbtktqubfy.tif,122,1.5,0,1.28333333333333,19690.581298583,19694.453282958,7,NaN,19694.459025833,19694.477325708,19695.754036166,NaN,NaN
102,19,2,usability,0,bathroom,sun_agyqfjcfkdcydepw.tif,135,1.5,0,1.35,19695.77012725,19698.901190625,2,NaN,19698.906833708,19698.925110416,19700.268483541,NaN,NaN
102,20,2,usability,0,bathroom,sun_abapwbhyhkfixyex.tif,124,1.5,0,1.43333333333333,19700.287785,19704.253176875,5,NaN,19704.258761875,19704.27732875,19705.704041041,NaN,NaN
102,21,2,usability,0,bathroom,sun_auzqhkafidnkrwmo.tif,164,1.5,0,0.916666666666667,19705.720532541,19709.973858333,6,NaN,19709.979351625,19709.997752833,19710.907758791,NaN,NaN
102,22,2,usability,0,bathroom,sun_anryaplzeujmzfkd.tif,149,1.5,0,0.766666666666667,19710.9126215,19715.597702291,4,NaN,19715.603537208,19715.621690125,19716.381695625,NaN,NaN
102,23,2,usability,0,bathroom,sun_anhioqovhscjqqwb.tif,148,1.5,0,0.866666666666667,19716.386324583,19719.101925833,7,NaN,19719.130503916,19719.153677083,19720.013682333,NaN,NaN
102,24,2,usability,0,bathroom,sun_axldvoqbuvuggfmq.tif,167,1.5,0,0.833333333333333,19720.018470125,19722.856874541,6,NaN,19722.885357458,19722.908993916,19723.735666333,NaN,NaN
102,25,2,usability,0,bathroom,sun_aspsyogrekjtfozg.tif,160,1.5,0,0.75,19723.740622958,19728.157536208,5,NaN,19728.163139791,19728.181411583,19728.924748458,NaN,NaN
