sub_num,trial,block,task,is_practice,category,image,texture,duration,mask_dur,jitter,stim_time,time_of_resp,trial_response,mask_time,fix_time,jit_onset,trial_end,trial_accuracy,RT
105,1,0,familiarity,1,bathroom,bathroom_practice1.tif,221,1.5,0,0.916666666666667,16016.010302917,16020.442847125,2,NaN,16020.449098333,16020.46740125,16021.377411875,NaN,NaN
105,2,0,familiarity,1,bathroom,bathroom_practice2.tif,222,1.5,0,0.85,16021.382023417,16024.898989667,2,NaN,16024.905011083,16024.92332725,16025.76666725,NaN,NaN
105,3,0,familiarity,1,bathroom,bathroom_practice3.tif,223,1.5,0,0.883333333333333,16025.771143042,16029.187158958,3,NaN,16029.193026583,16029.211455042,16030.088128583,NaN,NaN
105,4,0,familiarity,1,bathroom,bathroom_practice5.tif,225,1.5,0,1.43333333333333,16030.092452833,16034.019409833,4,NaN,16034.025195833,16034.043473458,16035.470211667,NaN,NaN
105,5,0,familiarity,1,bathroom,bathroom_practice4.tif,224,1.5,0,1.53333333333333,16035.485878417,16039.290929875,3,NaN,16039.29709375,16039.315408083,16040.842150625,NaN,NaN
105,1,1,familiarity,0,bathroom,sun_ahcvzmoyaycdoftf.tif,137,1.5,0,1.26666666666667,16049.634891583,16053.707377083,2,NaN,16053.714054125,16053.732828042,16054.993372792,NaN,NaN
105,2,1,familiarity,0,bathroom,sun_aggnnqpdorgxpvce.tif,131,1.5,0,1.76666666666667,16055.016312125,16058.355792542,3,NaN,16058.361861167,16058.380398542,16060.140618208,NaN,NaN
105,3,1,familiarity,0,bathroom,sun_aclfzgynxzxlbepz.tif,129,1.5,0,1.46666666666667,16060.15812925,16062.898081458,4,NaN,16062.92904125,16062.952032792,16064.412129167,NaN,NaN
105,4,1,familiarity,0,bathroom,sun_apmqjbnwghzuhhzh.tif,156,1.5,0,1.28333333333333,16064.433601375,16068.323639542,4,NaN,16068.329777917,16068.348148875,16069.624912125,NaN,NaN
105,5,1,familiarity,0,bathroom,sun_acegryoqftbzowsg.tif,127,1.5,0,0.966666666666667,16069.64399925,16073.771222958,4,NaN,16073.777029792,16073.795665708,16074.755672292,NaN,NaN
105,6,1,familiarity,0,bathroom,sun_alkosphxlxwjwgjd.tif,144,1.5,0,0.783333333333333,16074.760189417,16078.795054625,4,NaN,16078.801089458,16078.819368708,16079.596041958,NaN,NaN
105,7,1,familiarity,0,bathroom,sun_acgyywnybuveqsro.tif,128,1.5,0,1.21666666666667,16079.600297167,16083.162784792,3,NaN,16083.168900125,16083.187286292,16084.39738825,NaN,NaN
105,8,1,familiarity,0,bathroom,sun_anhioqovhscjqqwb.tif,148,1.5,0,1.4,16084.412405042,16088.210783583,5,NaN,16088.216668208,16088.234970583,16089.628366708,NaN,NaN
105,9,1,familiarity,0,bathroom,sun_aspsyogrekjtfozg.tif,160,1.5,0,1.3,16089.646888333,16093.226671833,2,NaN,16093.232795208,16093.251188333,16094.54461825,NaN,NaN
105,10,1,familiarity,0,bathroom,sun_ahqjwnzgolcaoidx.tif,139,1.5,0,0.95,16094.562994958,16097.65921925,2,NaN,16097.665079,16097.683758042,16098.627099208,NaN,NaN
105,11,1,familiarity,0,bathroom,sun_ausgutylgojavyoq.tif,163,1.5,0,1.96666666666667,16098.631468333,16102.210702167,3,NaN,16102.216922292,16102.235248625,16104.1953205,NaN,NaN
105,12,1,familiarity,0,bathroom,sun_axyrejkiiaqiurjk.tif,169,1.5,0,1.13333333333333,16104.21632225,16107.523656625,3,NaN,16107.531104542,16107.54965275,16108.676388958,NaN,NaN
105,13,1,familiarity,0,bathroom,sun_agrwbmhcpmfuwmsg.tif,134,1.5,0,0.933333333333333,16108.684737625,16112.795228792,5,NaN,16112.801045583,16112.819416292,16113.746089167,NaN,NaN
105,14,1,familiarity,0,bathroom,sun_axxbkopsgyouuebh.tif,168,1.5,0,1.6,16113.750570083,16117.891337958,2,NaN,16117.897206708,16117.915611917,16119.509039042,NaN,NaN
105,15,1,familiarity,0,bathroom,sun_akiytfaagpdsphgz.tif,141,1.5,0,1.38333333333333,16119.522036542,16123.043344583,3,NaN,16123.049158917,16123.067521708,16124.444287125,NaN,NaN
105,16,1,familiarity,0,bathroom,sun_aavhrsfjbserjtht.tif,123,1.5,0,1.58333333333333,16124.463235458,16128.090662,4,NaN,16128.096863542,16128.115154208,16129.691921167,NaN,NaN
105,17,1,familiarity,0,bathroom,sun_auzqhkafidnkrwmo.tif,164,1.5,0,0.966666666666667,16129.706844083,16133.803457917,4,NaN,16133.80928625,16133.827720667,16134.787728625,NaN,NaN
105,18,1,familiarity,0,bathroom,sun_amzlamotzwfkwjco.tif,147,1.5,0,0.983333333333333,16134.792391458,16138.538729208,3,NaN,16138.544784958,16138.563136,16139.53981375,NaN,NaN
105,19,1,familiarity,0,bathroom,sun_asfwthctfqerjvxr.tif,159,1.5,0,0.8,16139.544415417,16142.518408833,2,NaN,16142.548583583,16142.570451125,16143.363794958,NaN,NaN
105,20,1,familiarity,0,bathroom,sun_apkxzenqapsujocq.tif,155,1.5,0,0.7,16143.368573,16146.415108083,7,NaN,16146.437683667,16146.456832333,16147.150175458,NaN,NaN
105,21,1,familiarity,0,bathroom,sun_anryaplzeujmzfkd.tif,149,1.5,0,0.716666666666667,16147.154852958,16151.314495792,6,NaN,16151.320470125,16151.338739292,16152.048747667,NaN,NaN
105,22,1,familiarity,0,bathroom,sun_atstyziqcmkahyxk.tif,161,1.5,0,1.76666666666667,16152.053035083,16156.379320792,4,NaN,16156.385060833,16156.403383333,16158.163444208,NaN,NaN
105,23,1,familiarity,0,bathroom,sun_ajlawzvmubibwbpy.tif,140,1.5,0,1.7,16158.184452042,16161.584268458,3,NaN,16161.614518625,16161.637373583,16163.330762375,NaN,NaN
105,24,1,familiarity,0,bathroom,sun_aljolscmmzydegqp.tif,143,1.5,0,1.38333333333333,16163.345026167,16166.91429075,3,NaN,16166.920798417,16166.939140167,16168.315907542,NaN,NaN
105,25,1,familiarity,0,bathroom,sun_afcoljnjfoxjtgja.tif,130,1.5,0,0.766666666666667,16168.334233333,16171.986298708,3,NaN,16171.992561458,16172.010956292,16172.770963958,NaN,NaN
105,1,2,familiarity,0,bathroom,sun_azqyogdvyhahyram.tif,170,1.5,0,0.85,16178.652514875,16183.050656542,3,NaN,16183.056610708,16183.0749565,16183.918298375,NaN,NaN
105,2,2,familiarity,0,bathroom,sun_agguqiubmwhqqunb.tif,132,1.5,0,1.53333333333333,16183.922791042,16186.5442275,3,NaN,16186.571288833,16186.594276542,16188.121023208,NaN,NaN
105,3,2,familiarity,0,bathroom,sun_avhrdrntsqrjzccq.tif,165,1.5,0,0.7,16188.138312458,16191.610099417,1,NaN,16191.616285208,16191.634599,16192.327943417,NaN,NaN
105,4,2,familiarity,0,bathroom,sun_aunuadmjocsddsrl.tif,162,1.5,0,1.36666666666667,16192.332232125,16195.722550333,3,NaN,16195.728447542,16195.746685125,16197.106771833,NaN,NaN
105,5,2,familiarity,0,bathroom,sun_abapwbhyhkfixyex.tif,124,1.5,0,0.716666666666667,16197.123485083,16200.194949,4,NaN,16200.200797208,16200.219177625,16200.929186458,NaN,NaN
105,6,2,familiarity,0,bathroom,sun_alotolagknyrgtsk.tif,145,1.5,0,1.38333333333333,16200.933611583,16204.395013958,3,NaN,16204.401027083,16204.419395833,16205.796147375,NaN,NaN
105,7,2,familiarity,0,bathroom,labelme_sfxiulhjbhlyiyt.tif,121,1.5,0,0.916666666666667,16205.813293292,16209.930466292,5,NaN,16209.936369917,16209.954672583,16210.864679333,NaN,NaN
105,8,2,familiarity,0,bathroom,sun_aqrpegblszgcoujh.tif,158,1.5,0,1.58333333333333,16210.869009042,16213.971841917,4,NaN,16213.996456125,16214.015859792,16215.592592542,NaN,NaN
105,9,2,familiarity,0,bathroom,sun_ahijqszoswveeyji.tif,138,1.5,0,1.25,16215.608396042,16219.218695042,5,NaN,16219.224418167,16219.242725125,16220.486123667,NaN,NaN
105,10,2,familiarity,0,bathroom,sun_axldvoqbuvuggfmq.tif,167,1.5,0,0.95,16220.504673458,16224.642831667,3,NaN,16224.648830792,16224.667237458,16225.610581667,NaN,NaN
105,11,2,familiarity,0,bathroom,sun_ahaulkltgpkeeemi.tif,136,1.5,0,1.4,16225.614804167,16230.01855975,4,NaN,16230.02443325,16230.042759417,16231.436183,NaN,NaN
105,12,2,familiarity,0,bathroom,sun_aghyqhbptboemmoq.tif,133,1.5,0,0.766666666666667,16231.454200667,16235.450355792,2,NaN,16235.456214042,16235.474553625,16236.234561542,NaN,NaN
105,13,2,familiarity,0,bathroom,sun_apynckhmoftszqoq.tif,157,1.5,0,0.733333333333333,16236.239003583,16239.161427333,1,NaN,16239.192179542,16239.21599875,16239.942676208,NaN,NaN
105,14,2,familiarity,0,bathroom,sun_apeeialkgkuxddgh.tif,152,1.5,0,1.06666666666667,16239.94746475,16243.090740667,1,NaN,16243.098368375,16243.116802167,16244.176879333,NaN,NaN
105,15,2,familiarity,0,bathroom,sun_agyqfjcfkdcydepw.tif,135,1.5,0,1.33333333333333,16244.187737833,16247.513931583,2,NaN,16247.520151167,16247.538481833,16248.865206958,NaN,NaN
105,16,2,familiarity,0,bathroom,sun_aleqenyvunhactkl.tif,142,1.5,0,1.41666666666667,16248.883332542,16253.138599875,2,NaN,16253.144418917,16253.162736042,16254.572765833,NaN,NaN
105,17,2,familiarity,0,bathroom,sun_aapitsgbtktqubfy.tif,122,1.5,0,1.95,16254.58304675,16258.050480375,4,NaN,16258.056317792,16258.074694625,16260.018098333,NaN,NaN
105,18,2,familiarity,0,bathroom,sun_ambriybtogmepttm.tif,146,1.5,0,0.866666666666667,16260.03624875,16263.386143,3,NaN,16263.391971042,16263.410452667,16264.270460958,NaN,NaN
105,19,2,familiarity,0,bathroom,sun_apkruvsevgegsdwp.tif,154,1.5,0,0.983333333333333,16264.27499425,16268.674344292,4,NaN,16268.680315208,16268.698779667,16269.675455542,NaN,NaN
105,20,2,familiarity,0,bathroom,sun_awnqiikzaispgmwo.tif,166,1.5,0,0.983333333333333,16269.680043042,16273.553801167,4,NaN,16273.560210208,16273.579148958,16274.555826333,NaN,NaN
105,21,2,familiarity,0,bathroom,sun_abjtwfukuwddzted.tif,125,1.5,0,0.766666666666667,16274.560442417,16278.401748625,3,NaN,16278.408118708,16278.426623083,16279.186630708,NaN,NaN
105,22,2,familiarity,0,bathroom,sun_acduarbnmmoglmiv.tif,126,1.5,0,0.833333333333333,16279.191026292,16283.67455325,3,NaN,16283.680458292,16283.698870292,16284.525546708,NaN,NaN
105,23,2,familiarity,0,bathroom,sun_apjevzvycyhuqghb.tif,153,1.5,0,0.833333333333333,16284.530052542,16288.618155542,3,NaN,16288.624337375,16288.642744667,16289.469418292,NaN,NaN
105,24,2,familiarity,0,bathroom,sun_aofnryafpsjimzsb.tif,150,1.5,0,0.716666666666667,16289.474258208,16293.074696,4,NaN,16293.080496792,16293.09881075,16293.808820125,NaN,NaN
105,25,2,familiarity,0,bathroom,sun_aoybiabnpadelefl.tif,151,1.5,0,1.71666666666667,16293.813178958,16299.009827083,4,NaN,16299.016047708,16299.034393167,16300.744489958,NaN,NaN
