sub_num,trial,block,task,is_practice,category,image,texture,duration,mask_dur,jitter,stim_time,time_of_resp,trial_response,mask_time,fix_time,jit_onset,trial_end,trial_accuracy,RT
126,1,4,categorization,0,bathroom,SHINEd_sun_aunuadmjocsddsrl.tif,52,0.0666666666666667,0.0666666666666667,1,10793.239551583,10794.147786625,9,10793.301434791,10793.362204125,10794.164112541,10795.157450125,0,0.908235042001252
126,2,4,categorization,0,kitchen,SHINEd_sun_abdxkyyxwfskuaqb.tif,70,0.0666666666666667,0.0666666666666667,0.966666666666667,10795.162450333,10795.835458333,9,10795.2241945,10795.285030041,10795.853550583,10796.813556583,1,0.673007999999754
126,3,4,categorization,0,kitchen,SHINEd_sun_aegoxogugdkwpmpj.tif,80,0.0666666666666667,0.0666666666666667,1.75,10796.818493916,10797.356010708,9,10796.880281291,10796.941126375,10797.359521083,10799.102898416,1,0.537516791999224
126,4,4,categorization,0,kitchen,SHINEd_sun_abpwyqmlzafvklqo.tif,72,0.0666666666666667,0.0666666666666667,1.68333333333333,10799.12011625,10799.951180125,9,10799.188046083,10799.25301875,10799.974899916,10801.651609125,1,0.831063874999018
126,5,4,categorization,0,kitchen,SHINEd_sun_akcjzhbbjlbogpdi.tif,99,0.0666666666666667,0.0666666666666667,1.58333333333333,10801.668424541,10802.548668333,9,10801.736955083,10801.801273625,10802.575036875,10804.151737666,1,0.880243792000329
126,6,4,categorization,0,kitchen,SHINEd_sun_akchetnepxlcxhsu.tif,98,0.0666666666666667,0.0666666666666667,1,10804.170761708,10805.380204958,13,10804.238128,10804.303216708,10805.410341583,10806.403680416,0,1.20944325000164
126,7,4,categorization,0,bathroom,SHINEd_sun_aapitsgbtktqubfy.tif,12,0.0666666666666667,0.0666666666666667,1.33333333333333,10806.408795333,10807.396181583,13,10806.470438541,10806.531454541,10807.399829,10808.7265455,1,0.987386250000782
126,8,4,categorization,0,bathroom,SHINEd_sun_alkosphxlxwjwgjd.tif,34,0.0666666666666667,0.0666666666666667,1.26666666666667,10808.745237541,10809.50346675,9,10808.812755083,10808.878355916,10809.517958458,10810.778012791,0,0.758229209001001
126,9,4,categorization,0,bathroom,SHINEd_sun_aljolscmmzydegqp.tif,33,0.0666666666666667,0.0666666666666667,0.883333333333333,10810.796614916,10811.824762166,13,10810.864672791,10810.929675083,10811.854003708,10812.730676041,1,1.02814724999917
126,10,4,categorization,0,bathroom,SHINEd_sun_aclfzgynxzxlbepz.tif,19,0.0666666666666667,0.0666666666666667,1.26666666666667,10812.735972833,10813.547904375,13,10812.797787333,10812.858666916,10813.560572458,10814.820612875,1,0.811931542000821
126,11,4,categorization,0,bathroom,SHINEd_sun_agguqiubmwhqqunb.tif,22,0.0666666666666667,0.0666666666666667,2,10814.841904875,10815.727819833,9,10814.908898291,10814.974482625,10815.747678875,10817.74104375,0,0.885914958000285
126,12,4,categorization,0,kitchen,SHINEd_sun_ahljzhgcdpomplvg.tif,91,0.0666666666666667,0.0666666666666667,0.733333333333333,10817.756726125,10818.5267905,9,10817.823685458,10817.889431791,10818.546234875,10819.272905833,1,0.770064374999492
126,13,4,categorization,0,bathroom,SHINEd_sun_atstyziqcmkahyxk.tif,51,0.0666666666666667,0.0666666666666667,0.883333333333333,10819.277863958,10820.379118958,13,10819.339628375,10819.400455916,10820.385607833,10821.262279291,1,1.1012550000014
126,14,4,categorization,0,bathroom,SHINEd_sun_axldvoqbuvuggfmq.tif,57,0.0666666666666667,0.0666666666666667,0.983333333333333,10821.267325,10822.139357458,9,10821.329124,10821.389843791,10822.158629625,10823.135301083,0,0.872032457999012
126,15,4,categorization,0,bathroom,SHINEd_sun_ambriybtogmepttm.tif,36,0.0666666666666667,0.0666666666666667,1.56666666666667,10823.140332375,10824.348060125,13,10823.20191275,10823.2629365,10824.365286708,10825.9253345,1,1.20772774999932
126,16,4,categorization,0,bathroom,SHINEd_sun_acgyywnybuveqsro.tif,18,0.0666666666666667,0.0666666666666667,1.08333333333333,10825.934603291,10827.45149,13,10825.99990425,10826.066881,10827.472707,10828.549425833,1,1.51688670899966
126,17,4,categorization,0,bathroom,SHINEd_sun_aoybiabnpadelefl.tif,41,0.0666666666666667,0.0666666666666667,0.75,10828.560029041,10829.737507833,13,10828.624754,10828.691278416,10829.768163333,10830.51150575,1,1.17747879200033
126,18,4,categorization,0,bathroom,SHINEd_sun_apynckhmoftszqoq.tif,47,0.0666666666666667,0.0666666666666667,0.966666666666667,10830.517473,10831.243164208,13,10830.579549166,10830.640301125,10831.258856583,10832.218862125,1,0.725691207999262
126,19,4,categorization,0,kitchen,SHINEd_sun_awcpdzzznmweyyhv.tif,106,0.0666666666666667,0.0666666666666667,1.63333333333333,10832.223864583,10833.227966333,9,10832.285607958,10832.346512958,10833.231672666,10834.858370041,1,1.00410174999888
126,20,4,categorization,0,kitchen,SHINEd_sun_ahdycvpopffkzzsu.tif,90,0.0666666666666667,0.0666666666666667,1.46666666666667,10834.876291416,10835.743241708,13,10834.942847041,10835.009176625,10835.765898291,10837.22593775,0,0.866950292000183
126,21,4,categorization,0,bathroom,SHINEd_labelme_sfxiulhjbhlyiyt.tif,11,0.0666666666666667,0.0666666666666667,0.933333333333333,10837.2465275,10837.974155,13,10837.313248125,10837.379404083,10837.983881791,10838.910553083,1,0.727627500000381
126,22,4,categorization,0,bathroom,SHINEd_sun_apmqjbnwghzuhhzh.tif,46,0.0666666666666667,0.0666666666666667,1.45,10838.915664375,10839.58787,13,10838.977249041,10839.038280541,10839.606651125,10841.050016916,1,0.672205625000061
126,23,4,categorization,0,kitchen,SHINEd_sun_adgqasybjyktddhj.tif,78,0.0666666666666667,0.0666666666666667,0.966666666666667,10841.067338375,10841.76600425,13,10841.135546291,10841.199468625,10841.789519333,10842.749524916,0,0.698665874999278
126,24,4,categorization,0,kitchen,SHINEd_sun_aapllqyqlykszopd.tif,66,0.0666666666666667,0.0666666666666667,0.816666666666667,10842.755720208,10844.347410916,13,10842.817723333,10842.878296833,10844.363714041,10845.173720166,0,1.59169070799908
126,25,4,categorization,0,kitchen,SHINEd_sun_aamedkxepzlwuxes.tif,65,0.0666666666666667,0.0666666666666667,1.96666666666667,10845.178472958,10847.667231375,13,10845.240176333,10845.301117083,10847.686988958,10849.647021166,0,2.48875841700101
126,26,4,categorization,0,kitchen,SHINEd_sun_aenotlpyftoioydp.tif,82,0.0666666666666667,0.0666666666666667,0.916666666666667,10849.664246166,10851.803464333,9,10849.731249291,10849.797113666,10851.815968375,10852.725974083,1,2.13921816699985
126,27,4,categorization,0,kitchen,SHINEd_labelme_brsyyvweiuaazfr.tif,61,0.0666666666666667,0.0666666666666667,1.28333333333333,10852.731345,10854.187654833,13,10852.79310375,10852.853866666,10854.206039958,10855.482744375,0,1.45630983299998
126,28,4,categorization,0,kitchen,SHINEd_sun_acgtpgfybqjmzeyw.tif,75,0.0666666666666667,0.0666666666666667,1.8,10855.499578333,10856.248254166,9,10855.567780666,10855.632288666,10856.272228041,10858.065617333,1,0.748675832999652
126,29,4,categorization,0,bathroom,SHINEd_sun_agyqfjcfkdcydepw.tif,25,0.0666666666666667,0.0666666666666667,1.33333333333333,10858.08212025,10858.852859666,9,10858.150434583,10858.214435416,10858.8711175,10860.197818166,0,0.770739416000652
126,30,4,categorization,0,kitchen,SHINEd_sun_aarfiyshqohlwkmo.tif,67,0.0666666666666667,0.0666666666666667,1.06666666666667,10860.216251291,10861.3245995,9,10860.283300958,10860.347085791,10861.353805375,10862.413856333,1,1.10834820899981
126,31,4,categorization,0,kitchen,SHINEd_sun_aadbddgrdsjugojn.tif,64,0.0666666666666667,0.0666666666666667,1.03333333333333,10862.423469125,10863.117992875,9,10862.4885935,10862.554019791,10863.144064625,10864.170761708,1,0.694523750000371
126,32,4,categorization,0,bathroom,SHINEd_sun_afcoljnjfoxjtgja.tif,20,0.0666666666666667,0.0666666666666667,0.733333333333333,10864.188052958,10864.915045041,9,10864.255526708,10864.321565291,10864.923579875,10865.650252333,0,0.726992083000368
126,33,4,categorization,0,bathroom,SHINEd_sun_azqyogdvyhahyram.tif,60,0.0666666666666667,0.0666666666666667,0.766666666666667,10865.654853125,10866.586927791,13,10865.716716541,10865.777632708,10866.59611375,10867.356117291,1,0.932074666001427
126,34,4,categorization,0,bathroom,SHINEd_sun_asfwthctfqerjvxr.tif,49,0.0666666666666667,0.0666666666666667,1.1,10867.360932708,10869.347724166,9,10867.422627375,10867.483525208,10869.3525405,10870.445917125,0,1.98679145800088
126,35,4,categorization,0,kitchen,SHINEd_sun_aggjlwcdjsjcaemh.tif,86,0.0666666666666667,0.0666666666666667,1.81666666666667,10870.455218458,10871.244139166,9,10870.520477458,10870.588128916,10871.261723666,10873.071760208,1,0.788920707998841
126,36,4,categorization,0,bathroom,SHINEd_sun_amzlamotzwfkwjco.tif,37,0.0666666666666667,0.0666666666666667,0.883333333333333,10873.090926625,10873.957741791,13,10873.158461583,10873.223357625,10873.979006208,10874.855678708,1,0.866815166000379
126,37,4,categorization,0,kitchen,SHINEd_sun_abftihopvusyfakt.tif,71,0.0666666666666667,0.0666666666666667,1.7,10874.860872875,10875.659003458,9,10874.922640333,10874.98360175,10875.668784916,10877.362170833,1,0.798130582999875
126,38,4,categorization,0,bathroom,SHINEd_sun_axyrejkiiaqiurjk.tif,59,0.0666666666666667,0.0666666666666667,1.58333333333333,10877.3791435,10878.179914208,9,10877.44806,10877.511803125,10878.201594458,10879.778300375,0,0.800770707999618
126,39,4,categorization,0,bathroom,SHINEd_sun_ahaulkltgpkeeemi.tif,26,0.0666666666666667,0.0666666666666667,0.833333333333333,10879.795329041,10881.149693333,13,10879.862159541,10879.925809041,10881.165857416,10881.992529291,1,1.35436429199945
126,40,4,categorization,0,bathroom,SHINEd_sun_acegryoqftbzowsg.tif,17,0.0666666666666667,0.0666666666666667,0.95,10881.997574791,10882.659175666,9,10882.059397583,10882.1204855,10882.672176375,10883.615513958,0,0.661600875000659
126,41,4,categorization,0,kitchen,SHINEd_sun_acfmftudsenhrfhy.tif,74,0.0666666666666667,0.0666666666666667,1.06666666666667,10883.621887416,10884.371292625,9,10883.683624208,10883.744497625,10884.379661625,10885.439706541,1,0.749405208998724
126,42,4,categorization,0,bathroom,SHINEd_sun_aleqenyvunhactkl.tif,32,0.0666666666666667,0.0666666666666667,1.68333333333333,10885.451017125,10886.541525791,13,10885.515571083,10885.581503833,10886.571675625,10888.248395791,1,1.09050866600046
126,43,4,categorization,0,kitchen,SHINEd_sun_acxkpeoqbwcxfvip.tif,77,0.0666666666666667,0.0666666666666667,1.31666666666667,10888.26571475,10888.954753333,9,10888.332244291,10888.398449875,10888.971019291,10890.281071958,1,0.689038583001093
126,44,4,categorization,0,bathroom,SHINEd_sun_abapwbhyhkfixyex.tif,14,0.0666666666666667,0.0666666666666667,1.61666666666667,10890.299554458,10890.911404333,9,10890.366443791,10890.43234125,10890.939044333,10892.5490885,0,0.61184987499837
126,45,4,categorization,0,bathroom,SHINEd_sun_akiytfaagpdsphgz.tif,31,0.0666666666666667,0.0666666666666667,1.15,10892.566831,10893.366190208,9,10892.633746583,10892.698998625,10893.389087708,10894.53247175,0,0.799359208000169
126,46,4,categorization,0,kitchen,SHINEd_sun_amjjdeyrggfqgmom.tif,100,0.0666666666666667,0.0666666666666667,1.25,10894.54177975,10895.176433291,9,10894.608432833,10894.67284175,10895.195986291,10896.439364791,1,0.634653541001171
126,47,4,categorization,0,bathroom,SHINEd_sun_apjevzvycyhuqghb.tif,43,0.0666666666666667,0.0666666666666667,1.1,10896.457840791,10897.171709875,9,10896.520541041,10896.5804775,10897.182448666,10898.275826208,0,0.71386908400018
126,48,4,categorization,0,bathroom,SHINEd_sun_ahqjwnzgolcaoidx.tif,29,0.0666666666666667,0.0666666666666667,0.9,10898.285248333,10899.068314166,9,10898.350268,10898.419069458,10899.092411333,10899.985790583,0,0.783065832998545
126,49,4,categorization,0,kitchen,SHINEd_sun_ajkqhtgcbgpcwrwn.tif,97,0.0666666666666667,0.0666666666666667,1.3,10899.996094833,10901.363805125,9,10900.062773166,10900.128457375,10901.3809075,10902.674294708,1,1.36771029199917
126,50,4,categorization,0,kitchen,SHINEd_sun_abrcnpqqhmjwekyf.tif,73,0.0666666666666667,0.0666666666666667,1.25,10902.692021625,10903.798961,9,10902.7589235,10902.824498416,10903.814622875,10905.058000708,1,1.10693937500037
