sub_num,trial,block,task,is_practice,category,image,texture,duration,mask_dur,jitter,stim_time,time_of_resp,trial_response,mask_time,fix_time,jit_onset,trial_end,trial_accuracy,RT
137,1,0,typicality,1,bathroom,bathroom_practice2.tif,222,1.5,0,1.48333333333333,699.959672458,710.710410833,4,NaN,710.733823625,710.754122583,712.231018041,NaN,NaN
137,2,0,typicality,1,bathroom,bathroom_practice4.tif,224,1.5,0,0.75,712.278630958,717.574249083,7,NaN,717.583789041,717.602509291,718.345855166,NaN,NaN
137,3,0,typicality,1,bathroom,bathroom_practice1.tif,221,1.5,0,1.93333333333333,718.351915166,721.942406333,6,NaN,721.949316041,721.967976958,723.894838708,NaN,NaN
137,4,0,typicality,1,bathroom,bathroom_practice5.tif,225,1.5,0,0.983333333333333,723.931156791,730.118245083,3,NaN,730.12605725,730.144819833,731.121499708,NaN,NaN
137,5,0,typicality,1,bathroom,bathroom_practice3.tif,223,1.5,0,0.883333333333333,731.129179375,735.286544,6,NaN,735.296870791,735.316790916,736.193535791,NaN,NaN
137,1,1,typicality,0,bathroom,sun_aapitsgbtktqubfy.tif,122,1.5,0,0.866666666666667,752.577491083,761.710203791,5,NaN,761.716637,761.735086625,762.595104791,NaN,NaN
137,2,1,typicality,0,bathroom,sun_aleqenyvunhactkl.tif,142,1.5,0,1.03333333333333,762.600101583,766.053765833,6,NaN,766.059825083,766.078209541,767.104915333,NaN,NaN
137,3,1,typicality,0,bathroom,sun_ajlawzvmubibwbpy.tif,140,1.5,0,0.866666666666667,767.114393,772.725741833,2,NaN,772.731909375,772.7505695,773.61057325,NaN,NaN
137,4,1,typicality,0,bathroom,sun_alkosphxlxwjwgjd.tif,144,1.5,0,1.61666666666667,773.615010166,777.781995333,3,NaN,777.788178791,777.806511125,779.416561875,NaN,NaN
137,5,1,typicality,0,bathroom,sun_anhioqovhscjqqwb.tif,148,1.5,0,0.883333333333333,779.435827833,785.597965541,4,NaN,785.603663708,785.622115666,786.4987865,NaN,NaN
137,6,1,typicality,0,bathroom,sun_alotolagknyrgtsk.tif,145,1.5,0,0.933333333333333,786.503122333,790.638703208,2,NaN,790.644270708,790.662686291,791.589357583,NaN,NaN
137,7,1,typicality,0,bathroom,sun_aghyqhbptboemmoq.tif,133,1.5,0,1.5,791.598616916,795.574419125,7,NaN,795.580165458,795.598553041,797.091935708,NaN,NaN
137,8,1,typicality,0,bathroom,sun_asfwthctfqerjvxr.tif,159,1.5,0,1.36666666666667,797.108714833,803.518268125,2,NaN,803.523813333,803.542093583,804.902133083,NaN,NaN
137,9,1,typicality,0,bathroom,sun_agyqfjcfkdcydepw.tif,135,1.5,0,0.85,804.919215541,807.645982208,1,NaN,807.651745,807.670147041,808.513485333,NaN,NaN
137,10,1,typicality,0,bathroom,sun_apeeialkgkuxddgh.tif,152,1.5,0,1.81666666666667,808.518157583,811.742177458,7,NaN,811.747730708,811.76609375,813.5761345,NaN,NaN
137,11,1,typicality,0,bathroom,sun_acegryoqftbzowsg.tif,127,1.5,0,1.28333333333333,813.587661875,817.118170375,5,NaN,817.123995541,817.142399,818.419123833,NaN,NaN
137,12,1,typicality,0,bathroom,sun_anryaplzeujmzfkd.tif,149,1.5,0,1.23333333333333,818.436256583,822.990257625,5,NaN,822.995772,823.014086291,824.240794541,NaN,NaN
137,13,1,typicality,0,bathroom,sun_amzlamotzwfkwjco.tif,147,1.5,0,0.883333333333333,824.252170541,827.189950041,1,NaN,827.195514625,827.2138485,828.090521416,NaN,NaN
137,14,1,typicality,0,bathroom,sun_afcoljnjfoxjtgja.tif,130,1.5,0,0.866666666666667,828.095063208,832.029709833,4,NaN,832.035534666,832.053855,832.913858625,NaN,NaN
137,15,1,typicality,0,bathroom,sun_aclfzgynxzxlbepz.tif,129,1.5,0,1.36666666666667,832.918333875,835.869200625,7,NaN,835.895286916,835.916745708,837.276785625,NaN,NaN
137,16,1,typicality,0,bathroom,sun_acduarbnmmoglmiv.tif,126,1.5,0,1.05,837.293155666,841.902578583,5,NaN,841.907993083,841.926350375,842.969742083,NaN,NaN
137,17,1,typicality,0,bathroom,sun_auzqhkafidnkrwmo.tif,164,1.5,0,1.21666666666667,842.979084,847.317687958,3,NaN,847.323486375,847.341777333,848.5518285,NaN,NaN
137,18,1,typicality,0,bathroom,sun_aofnryafpsjimzsb.tif,150,1.5,0,0.816666666666667,848.568708291,851.493791333,1,NaN,851.49938725,851.517585083,852.327589458,NaN,NaN
137,19,1,typicality,0,bathroom,sun_apmqjbnwghzuhhzh.tif,156,1.5,0,1,852.333146041,857.46230625,7,NaN,857.46779225,857.486257458,858.479594416,NaN,NaN
137,20,1,typicality,0,bathroom,sun_abjtwfukuwddzted.tif,125,1.5,0,1.21666666666667,858.484259375,863.493891208,6,NaN,863.50023925,863.518484125,864.728523875,NaN,NaN
137,21,1,typicality,0,bathroom,sun_awnqiikzaispgmwo.tif,166,1.5,0,1.46666666666667,864.743501083,867.574532916,6,NaN,867.580246875,867.598788125,869.0588475,NaN,NaN
137,22,1,typicality,0,bathroom,sun_aljolscmmzydegqp.tif,143,1.5,0,1.4,869.073838708,871.709649958,1,NaN,871.715282291,871.733672,873.12705275,NaN,NaN
137,23,1,typicality,0,bathroom,sun_abapwbhyhkfixyex.tif,124,1.5,0,0.783333333333333,873.143962125,877.525400791,4,NaN,877.5309855,877.550301875,878.326973041,NaN,NaN
137,24,1,typicality,0,bathroom,labelme_sfxiulhjbhlyiyt.tif,121,1.5,0,1.21666666666667,878.331347833,882.342632458,6,NaN,882.348354208,882.36663,883.576683625,NaN,NaN
137,25,1,typicality,0,bathroom,sun_axldvoqbuvuggfmq.tif,167,1.5,0,1.35,883.594078375,889.413769416,5,NaN,889.419573916,889.437936208,890.781317583,NaN,NaN
137,1,2,typicality,0,bathroom,sun_aoybiabnpadelefl.tif,151,1.5,0,1.65,897.027468958,901.165681666,2,NaN,901.17109875,901.189367166,902.832752333,NaN,NaN
137,2,2,typicality,0,bathroom,sun_apkruvsevgegsdwp.tif,154,1.5,0,1.01666666666667,902.852115541,906.256221083,7,NaN,906.279393291,906.302415625,907.312449333,NaN,NaN
137,3,2,typicality,0,bathroom,sun_ahijqszoswveeyji.tif,138,1.5,0,1.58333333333333,907.32093825,912.933994916,5,NaN,912.939527333,912.958003125,914.534692166,NaN,NaN
137,4,2,typicality,0,bathroom,sun_aunuadmjocsddsrl.tif,162,1.5,0,0.7,914.547028541,917.139087208,7,NaN,917.159483083,917.181534666,917.874906458,NaN,NaN
137,5,2,typicality,0,bathroom,sun_apkxzenqapsujocq.tif,155,1.5,0,1.23333333333333,917.88918675,922.109969458,3,NaN,922.11535075,922.133617583,923.360337833,NaN,NaN
137,6,2,typicality,0,bathroom,sun_akiytfaagpdsphgz.tif,141,1.5,0,0.816666666666667,923.376563666,926.749518583,2,NaN,926.755130041,926.773321333,927.583326708,NaN,NaN
137,7,2,typicality,0,bathroom,sun_agrwbmhcpmfuwmsg.tif,134,1.5,0,0.733333333333333,927.587777541,930.925688875,2,NaN,930.931700125,930.949918875,931.676589541,NaN,NaN
137,8,2,typicality,0,bathroom,sun_agguqiubmwhqqunb.tif,132,1.5,0,1.15,931.68117625,934.526229541,4,NaN,934.553036166,934.576836208,935.72021975,NaN,NaN
137,9,2,typicality,0,bathroom,sun_axyrejkiiaqiurjk.tif,169,1.5,0,0.933333333333333,935.729763333,938.541571041,1,NaN,938.547269208,938.5661685,939.492839166,NaN,NaN
137,10,2,typicality,0,bathroom,sun_aavhrsfjbserjtht.tif,123,1.5,0,0.916666666666667,939.497354666,946.341811416,3,NaN,946.347356541,946.365817958,947.275821791,NaN,NaN
137,11,2,typicality,0,bathroom,sun_avhrdrntsqrjzccq.tif,165,1.5,0,1.26666666666667,947.280175833,950.317962166,1,NaN,950.326893208,950.345986458,951.606042625,NaN,NaN
137,12,2,typicality,0,bathroom,sun_aqrpegblszgcoujh.tif,158,1.5,0,0.933333333333333,951.622159041,954.893893833,2,NaN,954.899302041,954.917505583,955.844176416,NaN,NaN
137,13,2,typicality,0,bathroom,sun_ambriybtogmepttm.tif,146,1.5,0,1,955.849254416,965.077359375,1,NaN,965.083714708,965.102068625,966.095407208,NaN,NaN
137,14,2,typicality,0,bathroom,sun_acgyywnybuveqsro.tif,128,1.5,0,1,966.1000245,968.962537375,3,NaN,968.991821791,969.016143,970.009480416,NaN,NaN
137,15,2,typicality,0,bathroom,sun_aggnnqpdorgxpvce.tif,131,1.5,0,1.21666666666667,970.014148416,973.501374541,3,NaN,973.507251125,973.525618333,974.735671916,NaN,NaN
137,16,2,typicality,0,bathroom,sun_apjevzvycyhuqghb.tif,153,1.5,0,1.85,974.751559458,978.326004458,1,NaN,978.331541708,978.349785458,980.193136875,NaN,NaN
137,17,2,typicality,0,bathroom,sun_aspsyogrekjtfozg.tif,160,1.5,0,0.766666666666667,980.202486208,983.240886083,1,NaN,983.2606955,983.283121708,984.043125583,NaN,NaN
137,18,2,typicality,0,bathroom,sun_axxbkopsgyouuebh.tif,168,1.5,0,0.966666666666667,984.049464666,987.605587416,6,NaN,987.611036458,987.629369541,988.589374583,NaN,NaN
137,19,2,typicality,0,bathroom,sun_ahaulkltgpkeeemi.tif,136,1.5,0,1.4,988.593576041,992.11759175,7,NaN,992.123195916,992.1415585,993.534941916,NaN,NaN
137,20,2,typicality,0,bathroom,sun_apynckhmoftszqoq.tif,157,1.5,0,0.933333333333333,993.552289916,996.421396916,7,NaN,996.428458416,996.446997958,997.373668791,NaN,NaN
137,21,2,typicality,0,bathroom,sun_ahqjwnzgolcaoidx.tif,139,1.5,0,1.7,997.378232833,1000.509054458,5,NaN,1000.51592675,1000.534196166,1002.22759025,NaN,NaN
137,22,2,typicality,0,bathroom,sun_ahcvzmoyaycdoftf.tif,137,1.5,0,0.916666666666667,1002.237638125,1005.781591458,6,NaN,1005.789355916,1005.808145291,1006.718151291,NaN,NaN
137,23,2,typicality,0,bathroom,sun_ausgutylgojavyoq.tif,163,1.5,0,0.833333333333333,1006.722675541,1010.709160583,1,NaN,1010.714910916,1010.733153,1011.559823958,NaN,NaN
137,24,2,typicality,0,bathroom,sun_azqyogdvyhahyram.tif,170,1.5,0,0.783333333333333,1011.565672125,1016.621854666,7,NaN,1016.627601416,1016.646097208,1017.422768875,NaN,NaN
137,25,2,typicality,0,bathroom,sun_atstyziqcmkahyxk.tif,161,1.5,0,1.4,1017.427223208,1020.797327,6,NaN,1020.802974583,1020.821268583,1022.21464225,NaN,NaN
