sub_num,trial,block,task,is_practice,category,image,texture,duration,mask_dur,jitter,stim_time,time_of_resp,trial_response,mask_time,fix_time,jit_onset,trial_end,trial_accuracy,RT
133,1,0,categorization,1,kitchen,SHINEd_kitchen_practice2.tif,117,0.0666666666666667,0.0666666666666667,1.21666666666667,548.902422666,557.376687791,9,548.968249125,549.029323541,557.416740541,558.626967791,1,8.47426512499999
133,2,0,categorization,1,bathroom,SHINEd_bathroom_practice5.tif,115,0.0666666666666667,0.0666666666666667,1.36666666666667,558.688808291,563.809756791,9,558.7615515,558.824376208,563.827081416,565.187318916,0,5.12094850000005
133,3,0,categorization,1,kitchen,SHINEd_kitchen_practice3.tif,118,0.0666666666666667,0.0666666666666667,1.85,565.239781458,573.047411458,9,565.313654,565.375852916,573.07924175,574.92277025,1,7.80763000000002
133,4,0,categorization,1,bathroom,SHINEd_bathroom_practice1.tif,111,0.0666666666666667,0.0666666666666667,1.55,574.948705666,578.175879083,13,575.018041458,575.083111,578.192677333,579.736224625,1,3.22717341700002
133,5,0,categorization,1,bathroom,SHINEd_bathroom_practice2.tif,112,0.0666666666666667,0.0666666666666667,1.48333333333333,579.766242041,585.659854166,13,579.839088958,579.901322541,585.689313708,587.166951041,1,5.89361212499989
133,6,0,categorization,1,kitchen,SHINEd_kitchen_practice4.tif,119,0.0666666666666667,0.0666666666666667,1.15,587.196180541,596.181626791,13,587.264803958,587.331022208,596.200702583,597.344233166,0,8.98544625
133,7,0,categorization,1,bathroom,SHINEd_bathroom_practice3.tif,113,0.0666666666666667,0.0666666666666667,0.733333333333333,597.355212,606.80941875,9,597.420797333,597.490095791,606.827326416,607.553999458,0,9.45420674999991
133,8,0,categorization,1,bathroom,SHINEd_bathroom_practice4.tif,114,0.0666666666666667,0.0666666666666667,1.6,607.558419166,610.206000375,13,607.620067791,607.681357958,610.217657291,611.811028625,1,2.64758120900001
133,9,0,categorization,1,kitchen,SHINEd_kitchen_practice5.tif,120,0.0666666666666667,0.0666666666666667,0.716666666666667,611.831904958,617.442683458,9,611.898642333,611.966056625,617.458990333,618.168995416,1,5.61077850000004
133,10,0,categorization,1,kitchen,SHINEd_kitchen_practice1.tif,116,0.0666666666666667,0.0666666666666667,1.21666666666667,618.173398,621.759543125,13,618.235033083,618.296391458,621.782158458,622.992199833,0,3.58614512500003
133,1,0,categorization,1,kitchen,SHINEd_kitchen_practice2.tif,117,0.0666666666666667,0.0666666666666667,1.21666666666667,661.350954916,664.992778041,9,661.413216708,661.473878291,665.010575791,666.220631958,1,3.64182312499997
133,2,0,categorization,1,bathroom,SHINEd_bathroom_practice5.tif,115,0.0666666666666667,0.0666666666666667,1.36666666666667,666.236247208,669.19739425,13,666.302612125,666.368486375,669.204398833,670.564438,1,2.96114704199999
133,3,0,categorization,1,kitchen,SHINEd_kitchen_practice3.tif,118,0.0666666666666667,0.0666666666666667,1.85,670.580886583,674.264486916,13,670.647589583,670.715068666,674.284251541,676.1276395,0,3.68360033299996
133,4,0,categorization,1,bathroom,SHINEd_bathroom_practice1.tif,111,0.0666666666666667,0.0666666666666667,1.55,676.146168208,678.565988666,13,676.212925333,676.280505541,678.582809125,680.126183166,1,2.419820458
133,5,0,categorization,1,bathroom,SHINEd_bathroom_practice2.tif,112,0.0666666666666667,0.0666666666666667,1.48333333333333,680.143459166,681.380412458,9,680.209957083,680.27787475,681.403226583,682.879928625,0,1.23695329200007
133,6,0,categorization,1,kitchen,SHINEd_kitchen_practice4.tif,119,0.0666666666666667,0.0666666666666667,1.15,682.897170625,686.175421,9,682.963903125,683.031478208,686.191972791,687.335344583,1,3.27825037500008
133,7,0,categorization,1,bathroom,SHINEd_bathroom_practice3.tif,113,0.0666666666666667,0.0666666666666667,0.733333333333333,687.345167916,688.936612666,13,687.411828208,687.479316291,688.953777875,689.680449333,1,1.59144474999994
133,8,0,categorization,1,bathroom,SHINEd_bathroom_practice4.tif,114,0.0666666666666667,0.0666666666666667,1.6,689.685240291,691.181455375,9,689.747021583,689.808319,691.193919083,692.787303083,0,1.49621508400003
133,9,0,categorization,1,kitchen,SHINEd_kitchen_practice5.tif,120,0.0666666666666667,0.0666666666666667,0.716666666666667,692.804330416,694.541187083,13,692.871426708,692.938486458,694.557390958,695.267394416,0,1.73685666699998
133,10,0,categorization,1,kitchen,SHINEd_kitchen_practice1.tif,116,0.0666666666666667,0.0666666666666667,1.21666666666667,695.272003958,697.742163,9,695.33372225,695.394972333,697.747540041,698.957580833,1,2.47015904199998
133,1,1,categorization,0,kitchen,SHINEd_sun_agorklincwxrdtga.tif,87,0.0666666666666667,0.0666666666666667,1.23333333333333,710.721013166,714.058725291,9,710.783377416,710.844150625,714.079673791,715.306390708,1,3.33771212499994
133,2,1,categorization,0,kitchen,SHINEd_sun_ahdycvpopffkzzsu.tif,90,0.0666666666666667,0.0666666666666667,0.783333333333333,715.324343291,718.461471333,9,715.390930375,715.457910041,718.492900458,719.269572583,1,3.13712804199997
133,3,1,categorization,0,kitchen,SHINEd_sun_ahywdevtimnqcsln.tif,94,0.0666666666666667,0.0666666666666667,0.75,719.27454425,721.501174416,13,719.336284875,719.3976225,721.516755,722.260092708,0,2.22663016600006
133,4,1,categorization,0,kitchen,SHINEd_sun_azmutvzbxypaceni.tif,110,0.0666666666666667,0.0666666666666667,1.23333333333333,722.264673208,724.901167208,13,722.326315791,722.387621875,724.906600208,726.13329625,0,2.63649399999997
133,5,1,categorization,0,kitchen,SHINEd_sun_agzzivivdpnawacl.tif,89,0.0666666666666667,0.0666666666666667,1.13333333333333,726.149511666,727.664497166,9,726.216813666,726.283719041,727.692302041,728.81901675,1,1.51498550000008
133,6,1,categorization,0,bathroom,SHINEd_sun_auzqhkafidnkrwmo.tif,54,0.0666666666666667,0.0666666666666667,0.95,728.828386208,731.774163666,13,728.893596833,728.962314875,731.7815885,732.724927291,1,2.94577745800007
133,7,1,categorization,0,kitchen,SHINEd_sun_akchetnepxlcxhsu.tif,98,0.0666666666666667,0.0666666666666667,0.733333333333333,732.729654833,736.296651875,13,732.791469125,732.852584916,736.321718125,737.048389666,0,3.56699704199991
133,8,1,categorization,0,bathroom,SHINEd_sun_ausgutylgojavyoq.tif,53,0.0666666666666667,0.0666666666666667,1.31666666666667,737.052883666,739.90125625,13,737.114550083,737.175767583,739.911557541,741.221595541,1,2.848372584
133,9,1,categorization,0,bathroom,SHINEd_sun_axxbkopsgyouuebh.tif,58,0.0666666666666667,0.0666666666666667,0.8,741.239282208,742.27008175,9,741.306924416,741.373283708,742.297185083,743.090523958,0,1.03079954200007
133,10,1,categorization,0,kitchen,SHINEd_sun_aehawpgmrlhlvcow.tif,81,0.0666666666666667,0.0666666666666667,0.716666666666667,743.095388666,744.598069791,9,743.157131,743.2184845,744.604002375,745.314007291,1,1.50268112499998
133,11,1,categorization,0,kitchen,SHINEd_sun_ajcbwwvdlsvjyzje.tif,96,0.0666666666666667,0.0666666666666667,0.916666666666667,745.318555041,746.685816458,9,745.380200583,745.4415745,746.693693416,747.603698375,1,1.36726141700001
133,12,1,categorization,0,kitchen,SHINEd_sun_awcpdzzznmweyyhv.tif,106,0.0666666666666667,0.0666666666666667,0.95,747.608213041,748.917144083,9,747.669891083,747.7310395,748.933357541,749.876695333,1,1.30893104200004
133,13,1,categorization,0,bathroom,SHINEd_sun_aavhrsfjbserjtht.tif,13,0.0666666666666667,0.0666666666666667,0.833333333333333,749.881406083,751.070133916,9,749.94302,750.004217208,751.089302125,751.915974,0,1.18872783300003
133,14,1,categorization,0,kitchen,SHINEd_sun_aarfiyshqohlwkmo.tif,67,0.0666666666666667,0.0666666666666667,0.75,751.92042525,753.853504416,13,751.982099833,752.0433085,753.862287791,754.605626,0,1.93307916599997
133,15,1,categorization,0,bathroom,SHINEd_sun_ahcvzmoyaycdoftf.tif,27,0.0666666666666667,0.0666666666666667,1.53333333333333,754.610034041,756.277469041,9,754.671724041,754.733020125,756.285618291,757.8123385,0,1.66743500000007
133,16,1,categorization,0,kitchen,SHINEd_sun_abpwyqmlzafvklqo.tif,72,0.0666666666666667,0.0666666666666667,1.05,757.830811333,759.917386125,9,757.897568958,757.964617,759.933833625,760.97722125,1,2.08657479199996
133,17,1,categorization,0,bathroom,SHINEd_sun_aapitsgbtktqubfy.tif,12,0.0666666666666667,0.0666666666666667,0.9,760.986928041,763.325272583,13,761.051943541,761.118998791,763.338362541,764.23170025,1,2.33834454199996
133,18,1,categorization,0,bathroom,SHINEd_sun_abapwbhyhkfixyex.tif,14,0.0666666666666667,0.0666666666666667,1.18333333333333,764.236335833,765.733295791,9,764.298066875,764.359350291,765.744930375,766.921632666,0,1.49695995800005
133,19,1,categorization,0,bathroom,SHINEd_sun_alkosphxlxwjwgjd.tif,34,0.0666666666666667,0.0666666666666667,0.9,766.932453958,768.274379833,13,767.001017541,767.066609333,768.291931416,769.185270958,1,1.34192587500002
133,20,1,categorization,0,bathroom,SHINEd_sun_apkxzenqapsujocq.tif,45,0.0666666666666667,0.0666666666666667,1.66666666666667,769.190085708,770.03735075,13,769.251773291,769.313024458,770.048436541,771.708495291,1,0.847265042000004
133,21,1,categorization,0,kitchen,SHINEd_sun_adgqasybjyktddhj.tif,78,0.0666666666666667,0.0666666666666667,1.13333333333333,771.7262405,773.293252708,9,771.792950916,771.860135958,773.313065875,774.439766666,1,1.56701220799994
133,22,1,categorization,0,bathroom,SHINEd_sun_apkruvsevgegsdwp.tif,44,0.0666666666666667,0.0666666666666667,1.3,774.448666541,775.998352208,9,774.513437958,774.581717875,776.0245775,777.317947708,0,1.54968566700006
133,23,1,categorization,0,bathroom,SHINEd_sun_acegryoqftbzowsg.tif,17,0.0666666666666667,0.0666666666666667,1.93333333333333,777.331655583,778.680787041,13,777.399347833,777.465707041,778.708604083,780.635319166,1,1.34913145799999
133,24,1,categorization,0,bathroom,SHINEd_sun_aunuadmjocsddsrl.tif,52,0.0666666666666667,0.0666666666666667,1,780.653522916,781.706835,9,780.720629291,780.787567375,781.7277785,782.72111775,0,1.05331208399991
133,25,1,categorization,0,bathroom,SHINEd_sun_axldvoqbuvuggfmq.tif,57,0.0666666666666667,0.0666666666666667,0.883333333333333,782.726683708,784.484874,9,782.788414125,782.849677458,784.501834125,785.378504875,0,1.75819029199999
133,26,1,categorization,0,kitchen,SHINEd_sun_afuyedyxivkhecmu.tif,85,0.0666666666666667,0.0666666666666667,1.95,785.383176416,788.510787541,13,785.445105333,785.506097666,788.541296666,790.484671666,0,3.12761112500004
133,27,1,categorization,0,bathroom,SHINEd_sun_aoybiabnpadelefl.tif,41,0.0666666666666667,0.0666666666666667,1.25,790.495384583,791.6220055,9,790.561114416,790.629129,791.631401875,792.8747915,0,1.12662091699997
133,28,1,categorization,0,kitchen,SHINEd_sun_acfmftudsenhrfhy.tif,74,0.0666666666666667,0.0666666666666667,1.95,792.88981325,795.244956416,13,792.954998666,793.024635833,795.260879458,797.20426925,0,2.35514316600006
133,29,1,categorization,0,kitchen,SHINEd_sun_aegoxogugdkwpmpj.tif,80,0.0666666666666667,0.0666666666666667,1.91666666666667,797.220793083,799.597934875,9,797.288649791,797.354781125,799.607081625,801.517134583,1,2.37714179199997
133,30,1,categorization,0,bathroom,SHINEd_sun_acgyywnybuveqsro.tif,18,0.0666666666666667,0.0666666666666667,1.41666666666667,801.531922041,803.197545791,9,801.600007,801.666474125,803.202332541,804.612371291,0,1.66562375000001
133,31,1,categorization,0,bathroom,SHINEd_sun_aghyqhbptboemmoq.tif,23,0.0666666666666667,0.0666666666666667,0.716666666666667,804.629726583,806.500751,9,804.697091041,804.763792916,806.515804791,807.225808625,0,1.87102441700006
133,32,1,categorization,0,kitchen,SHINEd_sun_admlmbcdswaszruo.tif,79,0.0666666666666667,0.0666666666666667,1.28333333333333,807.230313875,808.709180291,9,807.292024333,807.353243666,808.722013333,809.998724541,1,1.47886641600007
133,33,1,categorization,0,kitchen,SHINEd_sun_aapllqyqlykszopd.tif,66,0.0666666666666667,0.0666666666666667,0.9,810.012942916,812.189307875,9,810.079307958,810.14715375,812.1995155,813.092854708,1,2.17636495900001
133,34,1,categorization,0,bathroom,SHINEd_sun_azqyogdvyhahyram.tif,60,0.0666666666666667,0.0666666666666667,0.8,813.097561125,815.9890725,9,813.159326333,813.220405041,816.005949041,816.799285958,0,2.89151137500005
133,35,1,categorization,0,bathroom,SHINEd_sun_apynckhmoftszqoq.tif,47,0.0666666666666667,0.0666666666666667,1.01666666666667,816.80402725,818.757564708,13,816.865718166,816.927059666,818.762534833,819.772577041,1,1.95353745800003
133,36,1,categorization,0,kitchen,SHINEd_sun_abftihopvusyfakt.tif,71,0.0666666666666667,0.0666666666666667,0.85,819.78164525,821.150233333,13,819.84604125,819.914319791,821.17335775,822.016695666,0,1.36858808299996
133,37,1,categorization,0,bathroom,SHINEd_sun_alotolagknyrgtsk.tif,35,0.0666666666666667,0.0666666666666667,1.51666666666667,822.024551625,823.221175125,13,822.086351875,822.1475245,823.232650541,824.742702375,1,1.19662349999999
133,38,1,categorization,0,kitchen,SHINEd_sun_auaiucuqpdausiva.tif,102,0.0666666666666667,0.0666666666666667,1.83333333333333,824.762671791,826.001171208,13,824.82952925,824.897165416,826.022221958,827.848934708,0,1.23849941699996
133,39,1,categorization,0,bathroom,SHINEd_sun_aggnnqpdorgxpvce.tif,21,0.0666666666666667,0.0666666666666667,0.716666666666667,827.866524875,829.829561708,9,827.933306208,828.001047708,829.836766666,830.5467725,0,1.96303683300005
133,40,1,categorization,0,bathroom,SHINEd_sun_aljolscmmzydegqp.tif,33,0.0666666666666667,0.0666666666666667,0.9,830.551588958,832.18936825,9,830.613282,830.674628541,832.193485291,833.086822375,0,1.637779292
133,41,1,categorization,0,bathroom,SHINEd_sun_avhrdrntsqrjzccq.tif,55,0.0666666666666667,0.0666666666666667,0.916666666666667,833.093575458,835.25375775,13,833.155323541,833.216590458,835.268764708,836.178769291,1,2.16018229199994
133,42,1,categorization,0,kitchen,SHINEd_labelme_brsyyvweiuaazfr.tif,61,0.0666666666666667,0.0666666666666667,0.816666666666667,836.1834065,837.940931375,9,836.245130666,836.306298916,837.958908541,838.768912291,1,1.75752487499994
133,43,1,categorization,0,kitchen,SHINEd_sun_axyyrmzcupyhlivc.tif,107,0.0666666666666667,0.0666666666666667,1.88333333333333,838.77376475,840.692934833,13,838.835515416,838.896718,840.698906458,842.575605916,0,1.91917008299993
133,44,1,categorization,0,kitchen,SHINEd_sun_acxkpeoqbwcxfvip.tif,77,0.0666666666666667,0.0666666666666667,0.9,842.589764125,843.517530208,9,842.656609291,842.723304416,843.546603875,844.439941875,1,0.927766083000051
133,45,1,categorization,0,bathroom,SHINEd_sun_axyrejkiiaqiurjk.tif,59,0.0666666666666667,0.0666666666666667,1,844.444700958,845.413291375,9,844.506391375,844.567573416,845.419334541,846.41267175,0,0.968590416999973
133,46,1,categorization,0,bathroom,SHINEd_labelme_sfxiulhjbhlyiyt.tif,11,0.0666666666666667,0.0666666666666667,0.733333333333333,846.417234166,847.493359875,9,846.478806,846.540115333,847.508837625,848.235508416,0,1.07612570900005
133,47,1,categorization,0,bathroom,SHINEd_sun_ahijqszoswveeyji.tif,28,0.0666666666666667,0.0666666666666667,0.883333333333333,848.240088,849.301417125,9,848.301802375,848.363113791,849.315312791,850.19198475,0,1.06132912499993
133,48,1,categorization,0,bathroom,SHINEd_sun_abjtwfukuwddzted.tif,15,0.0666666666666667,0.0666666666666667,1.73333333333333,850.196671916,851.477137291,9,850.258372666,850.320040916,851.488918583,853.215620875,0,1.28046537499995
133,49,1,categorization,0,kitchen,SHINEd_sun_aamedkxepzlwuxes.tif,65,0.0666666666666667,0.0666666666666667,1.91666666666667,853.232657916,855.989044416,13,853.299511791,853.36709625,856.003338791,857.913377958,0,2.75638649999996
133,50,1,categorization,0,bathroom,SHINEd_sun_ajlawzvmubibwbpy.tif,30,0.0666666666666667,0.0666666666666667,1.35,857.931602166,860.79654375,9,857.998946083,858.065917166,860.801736791,862.145115875,0,2.86494158400001
133,1,2,categorization,0,bathroom,SHINEd_sun_ahqjwnzgolcaoidx.tif,29,0.0666666666666667,0.0666666666666667,0.95,902.634254375,904.9802415,13,902.696242416,902.757246125,904.99299175,905.93632975,1,2.34598712500008
133,2,2,categorization,0,kitchen,SHINEd_sun_aixorpehvfykdynp.tif,95,0.0666666666666667,0.0666666666666667,0.75,905.940970041,907.812558291,9,906.002736041,906.063832125,907.833005125,908.576343875,1,1.87158824999995
133,3,2,categorization,0,kitchen,SHINEd_sun_aymvwlarqodbwuoc.tif,108,0.0666666666666667,0.0666666666666667,1.68333333333333,908.581132625,910.652886416,9,908.642832166,908.704016958,910.672814708,912.349518583,1,2.07175379099999
133,4,2,categorization,0,bathroom,SHINEd_sun_akiytfaagpdsphgz.tif,31,0.0666666666666667,0.0666666666666667,0.816666666666667,912.360492041,914.036275875,9,912.425377708,912.492689583,914.045119166,914.855125166,0,1.67578383399996
133,5,2,categorization,0,kitchen,SHINEd_labelme_kxvouciolcpqplr.tif,62,0.0666666666666667,0.0666666666666667,0.916666666666667,914.859766875,916.828831,13,914.921420041,914.982767291,916.834989875,917.744994791,0,1.96906412500005
133,6,2,categorization,0,bathroom,SHINEd_sun_aleqenyvunhactkl.tif,32,0.0666666666666667,0.0666666666666667,1.21666666666667,917.749619416,919.877028666,13,917.811298875,917.872467333,919.89136475,921.101405916,1,2.12740925000003
133,7,2,categorization,0,kitchen,SHINEd_sun_aenotlpyftoioydp.tif,82,0.0666666666666667,0.0666666666666667,0.9,921.117910708,923.388205041,13,921.1861715,921.251854625,923.404411958,924.29775,0,2.27029433300004
133,8,2,categorization,0,kitchen,SHINEd_sun_auticobqsbwgoppi.tif,104,0.0666666666666667,0.0666666666666667,1.65,924.302917125,925.4202415,13,924.3646155,924.426093833,925.428101125,927.071472875,0,1.11732437499995
133,9,2,categorization,0,bathroom,SHINEd_sun_aspsyogrekjtfozg.tif,50,0.0666666666666667,0.0666666666666667,1.15,927.08918725,928.037885708,13,927.155722916,927.222768083,928.062547916,929.205917125,1,0.948698457999967
133,10,2,categorization,0,bathroom,SHINEd_sun_atstyziqcmkahyxk.tif,51,0.0666666666666667,0.0666666666666667,1.13333333333333,929.215366416,930.899861541,13,929.281087625,929.3494335,930.924716583,932.051425666,1,1.6844951249999
133,11,2,categorization,0,bathroom,SHINEd_sun_aclfzgynxzxlbepz.tif,19,0.0666666666666667,0.0666666666666667,1.76666666666667,932.061013,933.065616208,9,932.125718833,932.195107833,933.085077291,934.845122,0,1.00460320800005
133,12,2,categorization,0,kitchen,SHINEd_sun_aaxxjlsuzvqlgylf.tif,68,0.0666666666666667,0.0666666666666667,1.8,934.861524541,935.987626958,9,934.92810925,934.995784375,936.019007375,937.81239675,1,1.12610241699997
133,13,2,categorization,0,kitchen,SHINEd_sun_avszsnwsbuqfgzbn.tif,105,0.0666666666666667,0.0666666666666667,0.9,937.829652291,939.148844166,9,937.89694325,937.963691083,939.166444416,940.059782083,1,1.319191875
133,14,2,categorization,0,bathroom,SHINEd_sun_apmqjbnwghzuhhzh.tif,46,0.0666666666666667,0.0666666666666667,0.716666666666667,940.064366583,940.948490916,9,940.126189166,940.18733625,940.956048791,941.666053166,0,0.884124332999932
133,15,2,categorization,0,kitchen,SHINEd_labelme_rykdqxenmhulbdn.tif,63,0.0666666666666667,0.0666666666666667,1.36666666666667,941.670608125,942.604440541,9,941.732315208,941.793546208,942.6122815,943.972324208,1,0.933832416000087
133,16,2,categorization,0,kitchen,SHINEd_sun_abrcnpqqhmjwekyf.tif,73,0.0666666666666667,0.0666666666666667,0.916666666666667,943.989002458,944.668933041,9,944.055488125,944.123168625,944.696819041,945.606868208,1,0.679930582999987
133,17,2,categorization,0,kitchen,SHINEd_sun_acwjdupvyjsugpay.tif,76,0.0666666666666667,0.0666666666666667,0.716666666666667,945.623200375,946.54824425,13,945.689371,945.747772041,946.56625475,947.276258958,0,0.925043875000028
133,18,2,categorization,0,kitchen,SHINEd_sun_ajkqhtgcbgpcwrwn.tif,97,0.0666666666666667,0.0666666666666667,0.766666666666667,947.28091,948.892177625,13,947.342559833,947.403849541,948.906226458,949.666231625,0,1.6112676250001
133,19,2,categorization,0,kitchen,SHINEd_sun_akcjzhbbjlbogpdi.tif,99,0.0666666666666667,0.0666666666666667,1.06666666666667,949.671033375,951.092056791,13,949.732893875,949.794136291,951.096192,952.156240291,0,1.42102341600003
133,20,2,categorization,0,bathroom,SHINEd_sun_anryaplzeujmzfkd.tif,39,0.0666666666666667,0.0666666666666667,0.8,952.164200416,953.245823666,13,952.229070875,952.294805541,953.267757916,954.061154541,1,1.08162325000001
133,21,2,categorization,0,kitchen,SHINEd_sun_ahspylgoovwmwvgk.tif,93,0.0666666666666667,0.0666666666666667,0.866666666666667,954.077509375,955.04403,13,954.142650333,954.20143975,955.053358708,955.913361916,0,0.966520625000044
133,22,2,categorization,0,kitchen,SHINEd_sun_amjjdeyrggfqgmom.tif,100,0.0666666666666667,0.0666666666666667,1.48333333333333,955.918151,956.652932583,13,955.979943041,956.041453916,956.659946833,958.136654291,0,0.734781583000085
133,23,2,categorization,0,bathroom,SHINEd_sun_agyqfjcfkdcydepw.tif,25,0.0666666666666667,0.0666666666666667,1.1,958.152104291,959.167558333,13,958.21747725,958.285916375,959.192600541,960.285979916,1,1.01545404199999
133,24,2,categorization,0,bathroom,SHINEd_sun_awnqiikzaispgmwo.tif,56,0.0666666666666667,0.0666666666666667,0.783333333333333,960.294061041,961.142098041,13,960.358569875,960.422801291,961.161188666,961.937907708,1,0.84803700000009
133,25,2,categorization,0,bathroom,SHINEd_sun_aqrpegblszgcoujh.tif,48,0.0666666666666667,0.0666666666666667,0.866666666666667,961.953068458,962.716465208,13,962.019542833,962.086594,962.724498916,963.584504791,1,0.763396750000084
133,26,2,categorization,0,bathroom,SHINEd_sun_acduarbnmmoglmiv.tif,16,0.0666666666666667,0.0666666666666667,1.83333333333333,963.589087666,965.412735833,13,963.65079225,963.712114958,965.431425125,967.258135916,1,1.8236481670001
133,27,2,categorization,0,kitchen,SHINEd_sun_aunzlwrbjumxhwdj.tif,103,0.0666666666666667,0.0666666666666667,0.7,967.2756285,969.0930135,13,967.342608041,967.409621916,969.112408958,969.805748208,0,1.81738499999994
133,28,2,categorization,0,kitchen,SHINEd_sun_aqeaevwwwjoqhzvl.tif,101,0.0666666666666667,0.0666666666666667,1.33333333333333,969.810481791,970.629019666,13,969.872193291,969.933519291,970.635517458,971.962229833,0,0.818537874999947
133,29,2,categorization,0,bathroom,SHINEd_sun_agrwbmhcpmfuwmsg.tif,24,0.0666666666666667,0.0666666666666667,1.33333333333333,971.979695583,973.329581583,9,972.046403875,972.113371708,973.355594541,974.682304416,0,1.34988600000008
133,30,2,categorization,0,kitchen,SHINEd_sun_aypmqwcualkenuoe.tif,109,0.0666666666666667,0.0666666666666667,1.38333333333333,974.698607666,975.533502083,9,974.765031708,974.833201458,975.556495291,976.933205583,1,0.834894416999987
133,31,2,categorization,0,kitchen,SHINEd_sun_ahljzhgcdpomplvg.tif,91,0.0666666666666667,0.0666666666666667,1.25,976.95024875,978.057168625,9,977.018383916,977.0842565,978.072979041,979.316361791,1,1.10691987500002
133,32,2,categorization,0,kitchen,SHINEd_sun_ahpczsiumwwocjkv.tif,92,0.0666666666666667,0.0666666666666667,1.55,979.333308125,980.696461,13,979.400516166,979.468070625,980.727318458,982.270700541,0,1.36315287499997
133,33,2,categorization,0,kitchen,SHINEd_sun_abdxkyyxwfskuaqb.tif,70,0.0666666666666667,0.0666666666666667,1.61666666666667,982.28826825,983.7240545,9,982.353557958,982.421650791,983.746153208,985.356194791,1,1.43578624999998
133,34,2,categorization,0,kitchen,SHINEd_sun_acgtpgfybqjmzeyw.tif,75,0.0666666666666667,0.0666666666666667,1.33333333333333,985.370922916,986.215834708,9,985.438174625,985.505140083,986.226715583,987.5534335,1,0.844911791999948
133,35,2,categorization,0,bathroom,SHINEd_sun_asfwthctfqerjvxr.tif,49,0.0666666666666667,0.0666666666666667,0.833333333333333,987.571904083,988.695267375,9,987.639940166,987.7057905,988.710612333,989.537283583,0,1.12336329199991
133,36,2,categorization,0,kitchen,SHINEd_sun_agubuxuukhzyzpdp.tif,88,0.0666666666666667,0.0666666666666667,1.45,989.542417125,990.468967041,9,989.604239333,989.6653795,990.484008125,991.927375083,1,0.926549915999999
133,37,2,categorization,0,kitchen,SHINEd_sun_abdenxonkemggwsq.tif,69,0.0666666666666667,0.0666666666666667,0.933333333333333,991.944227875,993.580291791,9,992.0108555,992.078019125,993.59748175,994.524153458,1,1.63606391600001
133,38,2,categorization,0,bathroom,SHINEd_sun_amzlamotzwfkwjco.tif,37,0.0666666666666667,0.0666666666666667,1.65,994.528933416,995.300099791,9,994.59077025,994.651799041,995.303653166,996.947041458,0,0.771166375000007
133,39,2,categorization,0,bathroom,SHINEd_sun_aofnryafpsjimzsb.tif,40,0.0666666666666667,0.0666666666666667,1.23333333333333,996.96441875,998.073287666,9,997.03101375,997.098114625,998.104605041,999.331312208,0,1.10886891600001
133,40,2,categorization,0,bathroom,SHINEd_sun_anhioqovhscjqqwb.tif,38,0.0666666666666667,0.0666666666666667,0.766666666666667,999.347121416,1000.985620916,13,999.413896041,999.481348333,1001.007153291,1001.767158875,1,1.63849949999997
133,41,2,categorization,0,kitchen,SHINEd_sun_aadbddgrdsjugojn.tif,64,0.0666666666666667,0.0666666666666667,1.78333333333333,1001.772192666,1002.653108458,13,1001.833988,1001.895174958,1002.6636245,1004.440346958,0,0.880915791999996
133,42,2,categorization,0,bathroom,SHINEd_sun_afcoljnjfoxjtgja.tif,20,0.0666666666666667,0.0666666666666667,1.11666666666667,1004.450255708,1005.244195125,13,1004.514656583,1004.584068583,1005.273956958,1006.384009,1,0.793939417000047
133,43,2,categorization,0,kitchen,SHINEd_sun_aggjlwcdjsjcaemh.tif,86,0.0666666666666667,0.0666666666666667,1.85,1006.392708708,1007.101465083,13,1006.457581,1006.525016625,1007.131017083,1008.974391875,0,0.708756375000007
133,44,2,categorization,0,bathroom,SHINEd_sun_ahaulkltgpkeeemi.tif,26,0.0666666666666667,0.0666666666666667,0.733333333333333,1008.994435333,1010.125997208,9,1009.06109125,1009.128778333,1010.1526025,1010.879273375,0,1.13156187499999
133,45,2,categorization,0,bathroom,SHINEd_sun_agguqiubmwhqqunb.tif,22,0.0666666666666667,0.0666666666666667,0.783333333333333,1010.884044083,1011.908413791,13,1010.94613725,1011.007083833,1011.925785708,1012.702456583,1,1.02436970799999
133,46,2,categorization,0,kitchen,SHINEd_sun_aeqdocilnnpuvuhx.tif,83,0.0666666666666667,0.0666666666666667,1.5,1012.707036291,1013.436375041,13,1012.76881525,1012.830005958,1013.448266583,1014.941641416,0,0.729338750000011
133,47,2,categorization,0,kitchen,SHINEd_sun_aexklacwqwezaorf.tif,84,0.0666666666666667,0.0666666666666667,0.733333333333333,1014.96076675,1016.318220708,9,1015.02741375,1015.094328541,1016.334585083,1017.061255541,1,1.35745395800006
133,48,2,categorization,0,bathroom,SHINEd_sun_ambriybtogmepttm.tif,36,0.0666666666666667,0.0666666666666667,1.1,1017.065801791,1018.092507041,9,1017.127542583,1017.188780666,1018.107336916,1019.200726,0,1.02670524999996
133,49,2,categorization,0,bathroom,SHINEd_sun_apeeialkgkuxddgh.tif,42,0.0666666666666667,0.0666666666666667,1.6,1019.209448958,1020.050182125,13,1019.27445975,1019.343350416,1020.065973333,1021.659363458,1,0.840733166999939
133,50,2,categorization,0,bathroom,SHINEd_sun_apjevzvycyhuqghb.tif,43,0.0666666666666667,0.0666666666666667,1.06666666666667,1021.677380458,1022.46773725,13,1021.744100083,1021.810913166,1022.481884666,1023.541935166,1,0.790356792000011
133,1,3,categorization,0,kitchen,SHINEd_sun_aaxxjlsuzvqlgylf.tif,68,0.0666666666666667,0.0666666666666667,0.85,1043.936508041,1045.132646875,9,1043.998284708,1044.059544083,1045.145216375,1045.988554708,1,1.19613883400007
133,2,3,categorization,0,bathroom,SHINEd_sun_amzlamotzwfkwjco.tif,37,0.0666666666666667,0.0666666666666667,1.65,1045.993148125,1048.660798583,13,1046.054950875,1046.116062208,1048.66843075,1050.311821791,1,2.66765045800003
133,3,3,categorization,0,kitchen,SHINEd_sun_aqeaevwwwjoqhzvl.tif,101,0.0666666666666667,0.0666666666666667,0.783333333333333,1050.321144041,1052.6357575,9,1050.388785958,1050.453578041,1052.65614525,1053.432817125,1,2.31461345899993
133,4,3,categorization,0,kitchen,SHINEd_sun_agubuxuukhzyzpdp.tif,88,0.0666666666666667,0.0666666666666667,0.933333333333333,1053.43782225,1055.01267925,9,1053.499610333,1053.560724,1055.029492375,1055.956163291,1,1.57485700000007
133,5,3,categorization,0,kitchen,SHINEd_sun_ahljzhgcdpomplvg.tif,91,0.0666666666666667,0.0666666666666667,0.866666666666667,1055.960850041,1056.907883208,9,1056.022563875,1056.083734375,1056.918969208,1057.778973458,1,0.947033166999972
133,6,3,categorization,0,kitchen,SHINEd_labelme_brsyyvweiuaazfr.tif,61,0.0666666666666667,0.0666666666666667,1.11666666666667,1057.783609958,1059.32399275,9,1057.845301791,1057.906456,1059.34232975,1060.452367875,1,1.54038279199995
133,7,3,categorization,0,kitchen,SHINEd_sun_ahpczsiumwwocjkv.tif,92,0.0666666666666667,0.0666666666666667,0.966666666666667,1060.461357125,1061.396301625,9,1060.526032708,1060.5937075,1061.41689675,1062.376950541,1,0.934944500000029
133,8,3,categorization,0,bathroom,SHINEd_sun_aspsyogrekjtfozg.tif,50,0.0666666666666667,0.0666666666666667,1.78333333333333,1062.3868145,1063.355681958,9,1062.449515625,1062.509959708,1063.361675666,1065.138386333,0,0.968867458000204
133,9,3,categorization,0,bathroom,SHINEd_sun_anhioqovhscjqqwb.tif,38,0.0666666666666667,0.0666666666666667,1.55,1065.155850666,1065.75449,13,1065.222937416,1065.289533541,1065.779307416,1067.322677958,1,0.598639333999927
133,10,3,categorization,0,bathroom,SHINEd_sun_avhrdrntsqrjzccq.tif,55,0.0666666666666667,0.0666666666666667,1.41666666666667,1067.34077225,1068.048210458,13,1067.408003833,1067.4748385,1068.06406375,1069.474101791,1,0.707438207999985
133,11,3,categorization,0,bathroom,SHINEd_sun_aleqenyvunhactkl.tif,32,0.0666666666666667,0.0666666666666667,0.8,1069.49127275,1070.139559291,13,1069.557976208,1069.625411916,1070.165426583,1070.958794125,1,0.648286541000061
133,12,3,categorization,0,bathroom,SHINEd_sun_asfwthctfqerjvxr.tif,49,0.0666666666666667,0.0666666666666667,1.28333333333333,1070.97465425,1071.771838333,9,1071.04119725,1071.109417541,1071.778262166,1073.054985791,0,0.797184083000047
133,13,3,categorization,0,kitchen,SHINEd_sun_axyyrmzcupyhlivc.tif,107,0.0666666666666667,0.0666666666666667,1.66666666666667,1073.072354791,1073.65918575,13,1073.139094375,1073.206391791,1073.678372333,1075.338417375,0,0.586830959000054
133,14,3,categorization,0,bathroom,SHINEd_sun_aavhrsfjbserjtht.tif,13,0.0666666666666667,0.0666666666666667,1.81666666666667,1075.355982,1076.596604625,13,1075.422380791,1075.489921708,1076.614251708,1078.424305416,1,1.24062262500001
133,15,3,categorization,0,kitchen,SHINEd_sun_abrcnpqqhmjwekyf.tif,73,0.0666666666666667,0.0666666666666667,1.35,1078.433595625,1079.104424291,13,1078.498615458,1078.567027625,1079.123459041,1080.466833791,0,0.670828666000034
133,16,3,categorization,0,bathroom,SHINEd_sun_aapitsgbtktqubfy.tif,12,0.0666666666666667,0.0666666666666667,0.916666666666667,1080.477595,1081.108707208,13,1080.542448875,1080.611521333,1081.134741375,1082.044795916,1,0.631112207999877
133,17,3,categorization,0,kitchen,SHINEd_sun_amjjdeyrggfqgmom.tif,100,0.0666666666666667,0.0666666666666667,0.916666666666667,1082.060631375,1082.708548125,9,1082.127130291,1082.193333791,1082.728765333,1083.638770041,1,0.647916750000149
133,18,3,categorization,0,bathroom,SHINEd_sun_apkxzenqapsujocq.tif,45,0.0666666666666667,0.0666666666666667,1.31666666666667,1083.643837916,1084.316702333,13,1083.7055995,1083.766859375,1084.335285708,1085.64534075,1,0.672864417000028
133,19,3,categorization,0,bathroom,SHINEd_sun_apkruvsevgegsdwp.tif,44,0.0666666666666667,0.0666666666666667,1.45,1085.661976583,1087.007340208,9,1085.728573708,1085.796351833,1087.038601,1088.481985541,0,1.34536362499989
133,20,3,categorization,0,bathroom,SHINEd_sun_ahijqszoswveeyji.tif,28,0.0666666666666667,0.0666666666666667,0.95,1088.492664625,1089.565490875,9,1088.557965291,1088.626437041,1089.582398125,1090.525736666,0,1.07282624999993
133,21,3,categorization,0,bathroom,SHINEd_sun_alotolagknyrgtsk.tif,35,0.0666666666666667,0.0666666666666667,1.38333333333333,1090.530695083,1091.588797875,13,1090.592858791,1090.653682416,1091.605705458,1092.982411208,1,1.058102792
133,22,3,categorization,0,kitchen,SHINEd_labelme_kxvouciolcpqplr.tif,62,0.0666666666666667,0.0666666666666667,1.16666666666667,1092.996452041,1093.780377833,13,1093.06399425,1093.130524291,1093.803778416,1094.963836083,0,0.783925791999991
133,23,3,categorization,0,bathroom,SHINEd_sun_aqrpegblszgcoujh.tif,48,0.0666666666666667,0.0666666666666667,1.61666666666667,1094.972819708,1095.688772333,13,1095.03895175,1095.106499333,1095.712886625,1097.322929791,1,0.715952625
133,24,3,categorization,0,kitchen,SHINEd_sun_acwjdupvyjsugpay.tif,76,0.0666666666666667,0.0666666666666667,1.38333333333333,1097.335701791,1098.312605541,9,1097.402115291,1097.469929458,1098.324533166,1099.701238,1,0.976903750000019
133,25,3,categorization,0,kitchen,SHINEd_sun_admlmbcdswaszruo.tif,79,0.0666666666666667,0.0666666666666667,1.78333333333333,1099.71958175,1100.746462,9,1099.786140958,1099.853605208,1100.77697475,1102.553691166,1,1.02688024999998
133,26,3,categorization,0,kitchen,SHINEd_sun_aamedkxepzlwuxes.tif,65,0.0666666666666667,0.0666666666666667,0.783333333333333,1102.565443208,1103.520846291,13,1102.632176125,1102.699582958,1103.538966416,1104.315638333,0,0.955403082999965
133,27,3,categorization,0,kitchen,SHINEd_sun_aixorpehvfykdynp.tif,95,0.0666666666666667,0.0666666666666667,1.65,1104.320468166,1104.827760458,13,1104.382146,1104.443361416,1104.845251583,1106.488634583,0,0.507292292000102
133,28,3,categorization,0,bathroom,SHINEd_sun_apeeialkgkuxddgh.tif,42,0.0666666666666667,0.0666666666666667,1.86666666666667,1106.498211,1107.275093916,13,1106.563095125,1106.632045958,1107.305123083,1109.165179291,1,0.776882915999977
133,29,3,categorization,0,kitchen,SHINEd_sun_abftihopvusyfakt.tif,71,0.0666666666666667,0.0666666666666667,1.23333333333333,1109.182913541,1109.833946166,13,1109.249681916,1109.317037666,1109.856589041,1111.083291333,0,0.651032624999971
133,30,3,categorization,0,kitchen,SHINEd_sun_akchetnepxlcxhsu.tif,98,0.0666666666666667,0.0666666666666667,0.7,1111.101071166,1111.79945075,9,1111.167765375,1111.234926875,1111.825171,1112.518546625,1,0.698379583999895
133,31,3,categorization,0,bathroom,SHINEd_sun_agyqfjcfkdcydepw.tif,25,0.0666666666666667,0.0666666666666667,0.716666666666667,1112.527571,1113.299412083,9,1112.594061458,1112.661676833,1113.313660541,1114.023663916,0,0.771841083000027
133,32,3,categorization,0,bathroom,SHINEd_sun_apjevzvycyhuqghb.tif,43,0.0666666666666667,0.0666666666666667,1.05,1114.028423333,1115.779500833,9,1114.090155125,1114.151386375,1115.787646833,1116.831025541,0,1.75107749999984
133,33,3,categorization,0,kitchen,SHINEd_sun_aymvwlarqodbwuoc.tif,108,0.0666666666666667,0.0666666666666667,1.1,1116.840086875,1117.747313541,9,1116.904724041,1116.972368291,1117.778902583,1118.872281375,1,0.907226666000042
133,34,3,categorization,0,bathroom,SHINEd_sun_aljolscmmzydegqp.tif,33,0.0666666666666667,0.0666666666666667,1.13333333333333,1118.882914708,1119.804839958,9,1118.9494975,1119.016599375,1119.821941166,1120.94866375,0,0.921925249999958
133,35,3,categorization,0,bathroom,SHINEd_sun_ajlawzvmubibwbpy.tif,30,0.0666666666666667,0.0666666666666667,1.38333333333333,1120.958663833,1121.868545375,13,1121.020475416,1121.081561333,1121.883399375,1123.260103208,1,0.909881541999994
133,36,3,categorization,0,kitchen,SHINEd_sun_aapllqyqlykszopd.tif,66,0.0666666666666667,0.0666666666666667,1.5,1123.278263291,1123.8379205,13,1123.344954083,1123.4122855,1123.868823041,1125.362202125,0,0.559657209000079
133,37,3,categorization,0,bathroom,SHINEd_sun_agguqiubmwhqqunb.tif,22,0.0666666666666667,0.0666666666666667,1.61666666666667,1125.378902583,1125.914256208,13,1125.445810958,1125.512672375,1125.935798333,1127.545845666,1,0.535353625000198
133,38,3,categorization,0,kitchen,SHINEd_sun_aegoxogugdkwpmpj.tif,80,0.0666666666666667,0.0666666666666667,0.983333333333333,1127.562132458,1128.597008666,13,1127.628935458,1127.696071833,1128.619557208,1129.596229,0,1.03487620800001
133,39,3,categorization,0,bathroom,SHINEd_sun_auzqhkafidnkrwmo.tif,54,0.0666666666666667,0.0666666666666667,1.3,1129.601058208,1130.23606825,13,1129.662818375,1129.724090375,1130.242901125,1131.536273375,1,0.635010041999976
133,40,3,categorization,0,kitchen,SHINEd_sun_aarfiyshqohlwkmo.tif,67,0.0666666666666667,0.0666666666666667,1.03333333333333,1131.552439,1132.008297666,9,1131.619052125,1131.686704541,1132.025812833,1133.052515708,1,0.45585866600004
133,41,3,categorization,0,bathroom,SHINEd_sun_acegryoqftbzowsg.tif,17,0.0666666666666667,0.0666666666666667,1.45,1133.067699083,1133.491797125,13,1133.134349125,1133.201496,1133.503921833,1134.947287416,1,0.424098041999969
133,42,3,categorization,0,bathroom,SHINEd_sun_azqyogdvyhahyram.tif,60,0.0666666666666667,0.0666666666666667,1.23333333333333,1134.964880875,1135.287965875,13,1135.031661875,1135.098679916,1135.304779291,1136.531487583,1,0.323084999999992
133,43,3,categorization,0,kitchen,SHINEd_sun_akcjzhbbjlbogpdi.tif,99,0.0666666666666667,0.0666666666666667,1.26666666666667,1136.541987458,1137.044394458,13,1136.604601,1136.665071875,1137.050215666,1138.310231875,0,0.502406999999948
133,44,3,categorization,0,kitchen,SHINEd_sun_afuyedyxivkhecmu.tif,85,0.0666666666666667,0.0666666666666667,1.03333333333333,1138.318639458,1138.769275083,13,1138.385045541,1138.450963875,1138.790443333,1139.817163583,0,0.450635624999904
133,45,3,categorization,0,bathroom,SHINEd_sun_aghyqhbptboemmoq.tif,23,0.0666666666666667,0.0666666666666667,1.31666666666667,1139.832891375,1140.412347208,13,1139.899541666,1139.96678675,1140.418581666,1141.72862775,1,0.579455833000111
133,46,3,categorization,0,bathroom,SHINEd_sun_aofnryafpsjimzsb.tif,40,0.0666666666666667,0.0666666666666667,1.7,1141.745497,1142.428917083,9,1141.812239333,1141.879802541,1142.451638541,1144.145011916,0,0.683420083000101
133,47,3,categorization,0,kitchen,SHINEd_sun_aypmqwcualkenuoe.tif,109,0.0666666666666667,0.0666666666666667,1.35,1144.161943875,1145.122323625,9,1144.228946208,1144.296112208,1145.152823958,1146.496182916,1,0.960379750000129
133,48,3,categorization,0,bathroom,SHINEd_sun_abapwbhyhkfixyex.tif,14,0.0666666666666667,0.0666666666666667,0.8,1146.505798583,1147.084186916,13,1146.572515,1146.639700208,1147.113083041,1147.90646325,1,0.578388333000021
133,49,3,categorization,0,kitchen,SHINEd_sun_aggjlwcdjsjcaemh.tif,86,0.0666666666666667,0.0666666666666667,0.766666666666667,1147.922617541,1148.627602958,13,1147.989041416,1148.056233916,1148.641528375,1149.401531666,0,0.704985416999989
133,50,3,categorization,0,kitchen,SHINEd_sun_aunzlwrbjumxhwdj.tif,103,0.0666666666666667,0.0666666666666667,1.38333333333333,1149.406112458,1149.891516375,9,1149.467861333,1149.528942208,1149.897522,1151.274235,1,0.485403916999985
133,1,4,categorization,0,bathroom,SHINEd_sun_aunuadmjocsddsrl.tif,52,0.0666666666666667,0.0666666666666667,1,1181.048723083,1183.844422625,9,1181.110926208,1181.171695791,1183.857325875,1184.850662583,0,2.79569954200019
133,2,4,categorization,0,kitchen,SHINEd_sun_auticobqsbwgoppi.tif,104,0.0666666666666667,0.0666666666666667,0.966666666666667,1184.855489458,1188.411248958,13,1184.917076041,1184.978447916,1188.430721291,1189.390726833,0,3.55575950000002
133,3,4,categorization,0,kitchen,SHINEd_sun_aexklacwqwezaorf.tif,84,0.0666666666666667,0.0666666666666667,1.75,1189.395049375,1191.81984175,9,1189.456692,1189.517971375,1191.837076916,1193.58046375,1,2.42479237499992
133,4,4,categorization,0,bathroom,SHINEd_sun_awnqiikzaispgmwo.tif,56,0.0666666666666667,0.0666666666666667,1.68333333333333,1193.597351041,1195.803523041,13,1193.66398375,1193.7311275,1195.817160458,1197.49387375,1,2.20617200000015
133,5,4,categorization,0,kitchen,SHINEd_sun_acxkpeoqbwcxfvip.tif,77,0.0666666666666667,0.0666666666666667,1.58333333333333,1197.510806,1198.502323041,9,1197.577263166,1197.644719416,1198.515867666,1200.092575958,1,0.991517040999952
133,6,4,categorization,0,bathroom,SHINEd_sun_apmqjbnwghzuhhzh.tif,46,0.0666666666666667,0.0666666666666667,1,1200.110649708,1201.015067708,9,1200.177353375,1200.244756458,1201.034710083,1202.028047583,0,0.904418000000078
133,7,4,categorization,0,kitchen,SHINEd_sun_agorklincwxrdtga.tif,87,0.0666666666666667,0.0666666666666667,1.33333333333333,1202.032856958,1202.843143958,9,1202.094593125,1202.155806708,1202.857827458,1204.184546666,1,0.810287000000017
133,8,4,categorization,0,kitchen,SHINEd_sun_azmutvzbxypaceni.tif,110,0.0666666666666667,0.0666666666666667,1.26666666666667,1204.201517791,1204.951109833,9,1204.267823583,1204.333524041,1204.973322375,1206.233368041,1,0.749592041999904
133,9,4,categorization,0,kitchen,SHINEd_sun_agzzivivdpnawacl.tif,89,0.0666666666666667,0.0666666666666667,0.883333333333333,1206.250082,1207.160984041,13,1206.315518208,1206.384076666,1207.190850625,1208.06752475,0,0.910902040999872
133,10,4,categorization,0,kitchen,SHINEd_sun_abpwyqmlzafvklqo.tif,72,0.0666666666666667,0.0666666666666667,1.26666666666667,1208.074916,1208.915673958,13,1208.136628125,1208.197912041,1208.933243541,1210.193297083,0,0.84075795800004
133,11,4,categorization,0,bathroom,SHINEd_sun_aoybiabnpadelefl.tif,41,0.0666666666666667,0.0666666666666667,2,1210.210006375,1210.747696416,9,1210.276451916,1210.342801583,1210.765240625,1212.758608625,0,0.537690041000133
133,12,4,categorization,0,bathroom,SHINEd_sun_ausgutylgojavyoq.tif,53,0.0666666666666667,0.0666666666666667,0.733333333333333,1212.776058583,1213.390121333,13,1212.842322583,1212.91012475,1213.416524708,1214.143196916,1,0.61406275000013
133,13,4,categorization,0,bathroom,SHINEd_sun_abjtwfukuwddzted.tif,15,0.0666666666666667,0.0666666666666667,0.883333333333333,1214.147898958,1215.242956875,13,1214.209618125,1214.270754208,1215.256949291,1216.133619291,1,1.09505791699985
133,14,4,categorization,0,bathroom,SHINEd_sun_ahqjwnzgolcaoidx.tif,29,0.0666666666666667,0.0666666666666667,0.983333333333333,1216.138242291,1216.67550325,13,1216.199992291,1216.261099916,1216.67950425,1217.656177166,1,0.537260958999923
133,15,4,categorization,0,kitchen,SHINEd_sun_adgqasybjyktddhj.tif,78,0.0666666666666667,0.0666666666666667,1.56666666666667,1217.660897333,1218.339941375,13,1217.722648708,1217.78399125,1218.352506958,1219.912545291,0,0.679044041999987
133,16,4,categorization,0,kitchen,SHINEd_sun_abdenxonkemggwsq.tif,69,0.0666666666666667,0.0666666666666667,1.08333333333333,1219.928996125,1220.730037208,13,1219.995432166,1220.063234291,1220.753271541,1221.829980083,0,0.8010410830002
133,17,4,categorization,0,bathroom,SHINEd_sun_axldvoqbuvuggfmq.tif,57,0.0666666666666667,0.0666666666666667,0.75,1221.838812416,1222.412680208,13,1221.903729375,1221.97178,1222.425828125,1223.169200375,1,0.573867791999874
133,18,4,categorization,0,kitchen,SHINEd_sun_ajkqhtgcbgpcwrwn.tif,97,0.0666666666666667,0.0666666666666667,0.966666666666667,1223.180784041,1223.880395625,13,1223.24746325,1223.31443125,1223.900969375,1224.860974375,0,0.699611583999967
133,19,4,categorization,0,bathroom,SHINEd_sun_akiytfaagpdsphgz.tif,31,0.0666666666666667,0.0666666666666667,1.63333333333333,1224.865692958,1225.642893666,13,1224.9273425,1224.988576625,1225.657059,1227.283757916,1,0.777200708000009
133,20,4,categorization,0,kitchen,SHINEd_sun_aadbddgrdsjugojn.tif,64,0.0666666666666667,0.0666666666666667,1.46666666666667,1227.300322875,1228.068671583,13,1227.366881708,1227.434226083,1228.090425666,1229.550477583,0,0.768348708000076
133,21,4,categorization,0,bathroom,SHINEd_sun_alkosphxlxwjwgjd.tif,34,0.0666666666666667,0.0666666666666667,0.933333333333333,1229.562032541,1230.392095166,13,1229.628315208,1229.69598675,1230.419735083,1231.346405791,1,0.830062624999982
133,22,4,categorization,0,kitchen,SHINEd_labelme_rykdqxenmhulbdn.tif,63,0.0666666666666667,0.0666666666666667,1.45,1231.351303833,1232.075899333,13,1231.412987458,1231.474338333,1232.092982416,1233.536354041,0,0.724595500000078
133,23,4,categorization,0,bathroom,SHINEd_sun_acduarbnmmoglmiv.tif,16,0.0666666666666667,0.0666666666666667,0.966666666666667,1233.551166625,1234.149461041,9,1233.618764083,1233.68526625,1234.175219541,1235.135258541,0,0.598294416000044
133,24,4,categorization,0,kitchen,SHINEd_sun_aeqdocilnnpuvuhx.tif,83,0.0666666666666667,0.0666666666666667,0.816666666666667,1235.150961666,1235.843551375,9,1235.213663916,1235.274168083,1235.8593265,1236.669331708,1,0.692589709000003
133,25,4,categorization,0,kitchen,SHINEd_sun_acfmftudsenhrfhy.tif,74,0.0666666666666667,0.0666666666666667,1.96666666666667,1236.674823791,1237.227942583,9,1236.73656925,1236.797775166,1237.232815291,1239.192869083,1,0.55311879199985
133,26,4,categorization,0,kitchen,SHINEd_sun_ajcbwwvdlsvjyzje.tif,96,0.0666666666666667,0.0666666666666667,0.916666666666667,1239.209514541,1240.050605958,9,1239.276088833,1239.342985875,1240.065267833,1240.9752715,1,0.841091416999916
133,27,4,categorization,0,bathroom,SHINEd_sun_atstyziqcmkahyxk.tif,51,0.0666666666666667,0.0666666666666667,1.28333333333333,1240.980177291,1242.251918375,9,1241.041827291,1241.103164875,1242.2721635,1243.548869875,0,1.27174108400004
133,28,4,categorization,0,bathroom,SHINEd_sun_axyrejkiiaqiurjk.tif,59,0.0666666666666667,0.0666666666666667,1.8,1243.566107791,1244.348712666,9,1243.632732916,1243.699886833,1244.371487666,1246.164863666,0,0.782604875000061
133,29,4,categorization,0,bathroom,SHINEd_sun_axxbkopsgyouuebh.tif,58,0.0666666666666667,0.0666666666666667,1.33333333333333,1246.179358666,1246.951634541,13,1246.245868083,1246.312114833,1246.967977125,1248.29469275,1,0.772275874999877
133,30,4,categorization,0,bathroom,SHINEd_sun_ahcvzmoyaycdoftf.tif,27,0.0666666666666667,0.0666666666666667,1.06666666666667,1248.312063708,1249.084759708,9,1248.377860708,1248.443325916,1249.099321666,1250.159367958,0,0.772695999999996
133,31,4,categorization,0,kitchen,SHINEd_sun_ahspylgoovwmwvgk.tif,93,0.0666666666666667,0.0666666666666667,1.03333333333333,1250.169192625,1250.780618791,13,1250.234545291,1250.302638625,1250.8086655,1251.8353825,0,0.611426166000001
133,32,4,categorization,0,bathroom,SHINEd_sun_anryaplzeujmzfkd.tif,39,0.0666666666666667,0.0666666666666667,0.733333333333333,1251.852639208,1252.267025833,13,1251.91957025,1251.98641275,1252.27239225,1252.999065,1,0.414386624999906
133,33,4,categorization,0,kitchen,SHINEd_sun_awcpdzzznmweyyhv.tif,106,0.0666666666666667,0.0666666666666667,0.766666666666667,1253.00350225,1253.499462791,13,1253.065253791,1253.126490666,1253.511670208,1254.271673375,0,0.495960540999931
133,34,4,categorization,0,kitchen,SHINEd_sun_auaiucuqpdausiva.tif,102,0.0666666666666667,0.0666666666666667,1.1,1254.276752,1254.739944458,13,1254.338343166,1254.3997185,1254.7514215,1255.844812625,0,0.463192458000094
133,35,4,categorization,0,bathroom,SHINEd_sun_acgyywnybuveqsro.tif,18,0.0666666666666667,0.0666666666666667,1.81666666666667,1255.852909583,1256.391342875,13,1255.917461291,1255.98636325,1256.408854583,1258.218891083,1,0.538433292000036
133,36,4,categorization,0,bathroom,SHINEd_sun_aggnnqpdorgxpvce.tif,21,0.0666666666666667,0.0666666666666667,0.883333333333333,1258.234322166,1258.675085333,9,1258.300512083,1258.367003125,1258.706762708,1259.583467958,0,0.440763166999886
133,37,4,categorization,0,kitchen,SHINEd_sun_aehawpgmrlhlvcow.tif,81,0.0666666666666667,0.0666666666666667,1.7,1259.598549583,1260.003192958,13,1259.664792875,1259.732328875,1260.017969916,1261.711337083,0,0.404643374999978
133,38,4,categorization,0,bathroom,SHINEd_sun_ahaulkltgpkeeemi.tif,26,0.0666666666666667,0.0666666666666667,1.58333333333333,1261.728506041,1262.179167083,13,1261.795011875,1261.862530833,1262.202423958,1263.779134083,1,0.450661042000092
133,39,4,categorization,0,bathroom,SHINEd_sun_afcoljnjfoxjtgja.tif,20,0.0666666666666667,0.0666666666666667,0.833333333333333,1263.79549775,1264.428198333,9,1263.862079375,1263.929318333,1264.451314,1265.278034041,0,0.63270058299986
133,40,4,categorization,0,bathroom,SHINEd_sun_aclfzgynxzxlbepz.tif,19,0.0666666666666667,0.0666666666666667,0.95,1265.285341083,1266.22797875,13,1265.347176166,1265.408319166,1266.243418083,1267.186756208,1,0.942637666999872
133,41,4,categorization,0,bathroom,SHINEd_labelme_sfxiulhjbhlyiyt.tif,11,0.0666666666666667,0.0666666666666667,1.06666666666667,1267.191438458,1268.050797416,13,1267.253100541,1267.3143765,1268.066073,1269.126117125,1,0.85935895800003
133,42,4,categorization,0,kitchen,SHINEd_sun_avszsnwsbuqfgzbn.tif,105,0.0666666666666667,0.0666666666666667,1.68333333333333,1269.134401166,1269.929339458,9,1269.1990315,1269.265343083,1269.955528416,1271.632248833,1,0.79493829199987
133,43,4,categorization,0,bathroom,SHINEd_sun_apynckhmoftszqoq.tif,47,0.0666666666666667,0.0666666666666667,1.31666666666667,1271.649733541,1272.849488583,13,1271.716395541,1271.783986833,1272.874603,1274.184644166,1,1.19975504200011
133,44,4,categorization,0,bathroom,SHINEd_sun_ambriybtogmepttm.tif,36,0.0666666666666667,0.0666666666666667,1.61666666666667,1274.201121458,1275.663363625,13,1274.268049583,1274.333041791,1275.692395916,1277.302428875,1,1.46224216700011
133,45,4,categorization,0,kitchen,SHINEd_sun_aenotlpyftoioydp.tif,82,0.0666666666666667,0.0666666666666667,1.15,1277.319261041,1278.222731291,13,1277.386817083,1277.453250791,1278.243044583,1279.386431208,0,0.903470250000055
133,46,4,categorization,0,bathroom,SHINEd_sun_agrwbmhcpmfuwmsg.tif,24,0.0666666666666667,0.0666666666666667,1.25,1279.396114791,1280.446591541,9,1279.463070958,1279.529942083,1280.469059083,1281.712424666,0,1.05047675000014
133,47,4,categorization,0,kitchen,SHINEd_sun_ahywdevtimnqcsln.tif,94,0.0666666666666667,0.0666666666666667,1.1,1281.729308625,1282.620354416,9,1281.796153,1281.8636505,1282.636598333,1283.729983,1,0.891045791000124
133,48,4,categorization,0,kitchen,SHINEd_sun_acgtpgfybqjmzeyw.tif,75,0.0666666666666667,0.0666666666666667,0.9,1283.738234791,1284.600701625,9,1283.803298958,1283.872138583,1284.629351375,1285.522751791,1,0.862466834000088
133,49,4,categorization,0,kitchen,SHINEd_sun_abdxkyyxwfskuaqb.tif,70,0.0666666666666667,0.0666666666666667,1.3,1285.535477666,1286.163472,13,1285.602742666,1285.6694515,1286.1720105,1287.465389083,0,0.62799433400005
133,50,4,categorization,0,kitchen,SHINEd_sun_ahdycvpopffkzzsu.tif,90,0.0666666666666667,0.0666666666666667,1.25,1287.482629,1288.648327125,13,1287.549510083,1287.616860125,1288.674734416,1289.918101333,0,1.16569812499984
133,1,5,categorization,0,bathroom,SHINEd_sun_ahcvzmoyaycdoftf.tif,27,0.0666666666666667,0.0666666666666667,1.7,1295.377132208,1296.787379166,13,1295.439384,1295.500055916,1296.802256083,1298.495607625,1,1.41024695800002
133,2,5,categorization,0,bathroom,SHINEd_sun_alkosphxlxwjwgjd.tif,34,0.0666666666666667,0.0666666666666667,1.81666666666667,1298.504243333,1299.302506,13,1298.569286291,1298.637860458,1299.327297041,1301.137354958,1,0.798262667000017
133,3,5,categorization,0,bathroom,SHINEd_sun_axxbkopsgyouuebh.tif,58,0.0666666666666667,0.0666666666666667,1.23333333333333,1301.154147375,1302.220780083,9,1301.220629166,1301.28887825,1302.245764791,1303.472486208,0,1.06663270799982
133,4,5,categorization,0,kitchen,SHINEd_sun_acfmftudsenhrfhy.tif,74,0.0666666666666667,0.0666666666666667,1.4,1303.489724041,1305.35523625,13,1303.556306541,1303.623671458,1305.359580375,1306.752945666,0,1.86551220899992
133,5,5,categorization,0,bathroom,SHINEd_sun_anryaplzeujmzfkd.tif,39,0.0666666666666667,0.0666666666666667,1.03333333333333,1306.769033791,1307.438972666,13,1306.836798041,1306.902816791,1307.459580208,1308.486284666,1,0.669938874999843
133,6,5,categorization,0,bathroom,SHINEd_sun_ahaulkltgpkeeemi.tif,26,0.0666666666666667,0.0666666666666667,1.38333333333333,1308.495566791,1309.527186875,9,1308.560967416,1308.628605041,1309.551719083,1310.92842625,0,1.031620084
133,7,5,categorization,0,bathroom,SHINEd_sun_axldvoqbuvuggfmq.tif,57,0.0666666666666667,0.0666666666666667,2,1310.944544666,1311.903657833,13,1311.011092708,1311.078470083,1311.935365583,1313.928735833,1,0.959113166999941
133,8,5,categorization,0,kitchen,SHINEd_sun_acwjdupvyjsugpay.tif,76,0.0666666666666667,0.0666666666666667,1.85,1313.946284708,1314.446981,13,1314.012948666,1314.08059725,1314.46926375,1316.312654458,0,0.500696292000157
133,9,5,categorization,0,kitchen,SHINEd_sun_ajkqhtgcbgpcwrwn.tif,97,0.0666666666666667,0.0666666666666667,0.816666666666667,1316.321881666,1317.274807166,9,1316.388362875,1316.454092291,1317.293707083,1318.103712291,1,0.952925499999992
133,10,5,categorization,0,bathroom,SHINEd_sun_abjtwfukuwddzted.tif,15,0.0666666666666667,0.0666666666666667,1.85,1318.108713541,1318.707278666,13,1318.170490958,1318.231625625,1318.716820625,1320.560192583,1,0.59856512500005
133,11,5,categorization,0,kitchen,SHINEd_sun_ajcbwwvdlsvjyzje.tif,96,0.0666666666666667,0.0666666666666667,0.733333333333333,1320.576944666,1321.882838958,9,1320.643485333,1320.710785708,1321.896849583,1322.623521416,1,1.30589429200018
133,12,5,categorization,0,kitchen,SHINEd_sun_aamedkxepzlwuxes.tif,65,0.0666666666666667,0.0666666666666667,0.716666666666667,1322.628108166,1323.64351675,9,1322.689808375,1322.750994333,1323.653022125,1324.363028125,1,1.01540858399994
133,13,5,categorization,0,kitchen,SHINEd_sun_aixorpehvfykdynp.tif,95,0.0666666666666667,0.0666666666666667,0.833333333333333,1324.367634416,1325.538794958,9,1324.429304333,1324.490572,1325.542603416,1326.369275583,1,1.17116054199982
133,14,5,categorization,0,bathroom,SHINEd_sun_acduarbnmmoglmiv.tif,16,0.0666666666666667,0.0666666666666667,0.95,1326.374096166,1327.483300583,13,1326.435826375,1326.497110083,1327.499177666,1328.442514666,1,1.109204417
133,15,5,categorization,0,kitchen,SHINEd_sun_agubuxuukhzyzpdp.tif,88,0.0666666666666667,0.0666666666666667,1.96666666666667,1328.447036,1329.195025458,9,1328.508682541,1328.56987775,1329.205418333,1331.165474208,1,0.747989457999893
133,16,5,categorization,0,bathroom,SHINEd_sun_apeeialkgkuxddgh.tif,42,0.0666666666666667,0.0666666666666667,1.86666666666667,1331.182409,1331.954506833,9,1331.249315,1331.316798083,1331.973087708,1333.833120958,0,0.772097833000089
133,17,5,categorization,0,kitchen,SHINEd_sun_ahljzhgcdpomplvg.tif,91,0.0666666666666667,0.0666666666666667,1.51666666666667,1333.849933583,1334.325206458,13,1333.916483291,1333.984375666,1334.338467,1335.848523416,0,0.475272874999973
133,18,5,categorization,0,bathroom,SHINEd_sun_auzqhkafidnkrwmo.tif,54,0.0666666666666667,0.0666666666666667,1.3,1335.865405708,1336.4686565,9,1335.932061166,1335.999398625,1336.488013125,1337.781389791,0,0.603250791999926
133,19,5,categorization,0,kitchen,SHINEd_sun_admlmbcdswaszruo.tif,79,0.0666666666666667,0.0666666666666667,1.91666666666667,1337.798198958,1338.570874541,9,1337.865011625,1337.9320275,1338.588128625,1340.498145875,1,0.772675582999909
133,20,5,categorization,0,bathroom,SHINEd_sun_abapwbhyhkfixyex.tif,14,0.0666666666666667,0.0666666666666667,1.23333333333333,1340.50749825,1341.151358166,13,1340.574160666,1340.641794125,1341.181837,1342.408549125,1,0.643859915999883
133,21,5,categorization,0,bathroom,SHINEd_sun_amzlamotzwfkwjco.tif,37,0.0666666666666667,0.0666666666666667,0.866666666666667,1342.422640666,1342.897178708,9,1342.487840416,1342.555658208,1342.928824041,1343.788874125,0,0.474538041999949
133,22,5,categorization,0,kitchen,SHINEd_sun_agorklincwxrdtga.tif,87,0.0666666666666667,0.0666666666666667,0.8,1343.804855625,1344.490637041,9,1343.870940083,1343.938479708,1344.506912833,1345.30025175,1,0.685781415999827
133,23,5,categorization,0,kitchen,SHINEd_sun_abpwyqmlzafvklqo.tif,72,0.0666666666666667,0.0666666666666667,1.51666666666667,1345.305037,1345.859128666,9,1345.366773458,1345.428033625,1345.863247041,1347.373293208,1,0.554091665999977
133,24,5,categorization,0,bathroom,SHINEd_sun_agyqfjcfkdcydepw.tif,25,0.0666666666666667,0.0666666666666667,1.18333333333333,1347.393566291,1348.103477958,9,1347.460285583,1347.527247625,1348.133688916,1349.310393,0,0.709911666999915
133,25,5,categorization,0,bathroom,SHINEd_sun_afcoljnjfoxjtgja.tif,20,0.0666666666666667,0.0666666666666667,1.6,1349.320068541,1349.976049333,13,1349.386671625,1349.453276958,1349.992220583,1351.585609125,1,0.655980792000037
133,26,5,categorization,0,bathroom,SHINEd_sun_apkxzenqapsujocq.tif,45,0.0666666666666667,0.0666666666666667,1.56666666666667,1351.60397025,1352.015249958,13,1351.67050925,1351.737809708,1352.044216833,1353.604274958,1,0.411279707999938
133,27,5,categorization,0,bathroom,SHINEd_sun_aqrpegblszgcoujh.tif,48,0.0666666666666667,0.0666666666666667,1.36666666666667,1353.622208166,1354.025706916,13,1353.688418375,1353.755986833,1354.045958208,1355.406011666,1,0.403498749999926
133,28,5,categorization,0,bathroom,SHINEd_labelme_sfxiulhjbhlyiyt.tif,11,0.0666666666666667,0.0666666666666667,1.53333333333333,1355.423241375,1355.787072833,13,1355.4858445,1355.546261625,1355.798073125,1357.324779125,1,0.363831457999822
133,29,5,categorization,0,bathroom,SHINEd_sun_asfwthctfqerjvxr.tif,49,0.0666666666666667,0.0666666666666667,1.4,1357.3421775,1357.685550958,13,1357.408779833,1357.476495791,1357.716226625,1359.109612041,1,0.343373458000087
133,30,5,categorization,0,bathroom,SHINEd_sun_azqyogdvyhahyram.tif,60,0.0666666666666667,0.0666666666666667,1.06666666666667,1359.125830541,1359.490164083,13,1359.192396083,1359.259703375,1359.516248541,1360.576284083,1,0.364333542000168
133,31,5,categorization,0,kitchen,SHINEd_sun_auaiucuqpdausiva.tif,102,0.0666666666666667,0.0666666666666667,1.63333333333333,1360.592363166,1361.21117575,9,1360.659168166,1360.726250041,1361.228802208,1362.855505541,1,0.618812583999897
133,32,5,categorization,0,kitchen,SHINEd_labelme_kxvouciolcpqplr.tif,62,0.0666666666666667,0.0666666666666667,1.8,1362.872437458,1363.258876666,9,1362.938778791,1363.006139416,1363.278871833,1365.07224175,1,0.386439208000183
133,33,5,categorization,0,bathroom,SHINEd_sun_agguqiubmwhqqunb.tif,22,0.0666666666666667,0.0666666666666667,1.53333333333333,1365.088479208,1365.809533166,9,1365.154710708,1365.2219385,1365.828024041,1367.354729916,0,0.721053957999857
133,34,5,categorization,0,kitchen,SHINEd_sun_abrcnpqqhmjwekyf.tif,73,0.0666666666666667,0.0666666666666667,0.766666666666667,1367.372191083,1368.315416583,13,1367.438521458,1367.5065625,1368.327487458,1369.087492083,0,0.943225499999926
133,35,5,categorization,0,bathroom,SHINEd_sun_agrwbmhcpmfuwmsg.tif,24,0.0666666666666667,0.0666666666666667,1.86666666666667,1369.09241075,1369.619301666,13,1369.154196208,1369.215300541,1369.633761583,1371.493802583,1,0.526890915999957
133,36,5,categorization,0,kitchen,SHINEd_sun_ahywdevtimnqcsln.tif,94,0.0666666666666667,0.0666666666666667,1.13333333333333,1371.510657833,1372.451145416,13,1371.577637208,1371.6448965,1372.466706958,1373.593403791,0,0.940487582999822
133,37,5,categorization,0,kitchen,SHINEd_sun_aggjlwcdjsjcaemh.tif,86,0.0666666666666667,0.0666666666666667,1.73333333333333,1373.602614958,1374.303218833,13,1373.667846083,1373.73647975,1374.324411,1376.051119416,0,0.70060387500007
133,38,5,categorization,0,kitchen,SHINEd_sun_aarfiyshqohlwkmo.tif,67,0.0666666666666667,0.0666666666666667,0.766666666666667,1376.068354125,1376.595243416,13,1376.135111291,1376.202184375,1376.626066083,1377.386107166,0,0.526889290999861
133,39,5,categorization,0,kitchen,SHINEd_sun_ahdycvpopffkzzsu.tif,90,0.0666666666666667,0.0666666666666667,1.85,1377.402797583,1377.930800083,13,1377.469827666,1377.536576375,1377.938947916,1379.782335958,0,0.528002499999957
133,40,5,categorization,0,kitchen,SHINEd_sun_aqeaevwwwjoqhzvl.tif,101,0.0666666666666667,0.0666666666666667,0.966666666666667,1379.798991833,1380.243282166,13,1379.865724541,1379.932679916,1380.272520708,1381.232524958,0,0.444290333000026
133,41,5,categorization,0,bathroom,SHINEd_sun_alotolagknyrgtsk.tif,35,0.0666666666666667,0.0666666666666667,1.06666666666667,1381.237358458,1381.739426291,13,1381.299147666,1381.360411125,1381.7456515,1382.805694541,1,0.502067832999955
133,42,5,categorization,0,kitchen,SHINEd_sun_aypmqwcualkenuoe.tif,109,0.0666666666666667,0.0666666666666667,1.38333333333333,1382.81484175,1383.446449291,13,1382.879175166,1382.946200916,1383.470153416,1384.846878,0,0.631607540999994
133,43,5,categorization,0,kitchen,SHINEd_sun_axyyrmzcupyhlivc.tif,107,0.0666666666666667,0.0666666666666667,0.766666666666667,1384.863202291,1385.383843583,13,1384.929349083,1384.996913041,1385.402878166,1386.162911125,0,0.520641291999937
133,44,5,categorization,0,kitchen,SHINEd_sun_aenotlpyftoioydp.tif,82,0.0666666666666667,0.0666666666666667,0.866666666666667,1386.178472291,1386.732190166,9,1386.244780791,1386.311343583,1386.750694083,1387.6106995,1,0.553717875000075
133,45,5,categorization,0,bathroom,SHINEd_sun_apjevzvycyhuqghb.tif,43,0.0666666666666667,0.0666666666666667,1.25,1387.615509625,1388.706841125,9,1387.677116458,1387.738725708,1388.724279875,1389.967653875,0,1.09133150000002
133,46,5,categorization,0,kitchen,SHINEd_sun_abftihopvusyfakt.tif,71,0.0666666666666667,0.0666666666666667,1.03333333333333,1389.983854958,1390.603868375,9,1390.050054291,1390.11766975,1390.623339208,1391.650051166,1,0.620013417000109
133,47,5,categorization,0,kitchen,SHINEd_sun_aadbddgrdsjugojn.tif,64,0.0666666666666667,0.0666666666666667,0.783333333333333,1391.665177166,1392.386445875,9,1391.731725083,1391.798859958,1392.400739125,1393.177410791,1,0.721268709000014
133,48,5,categorization,0,bathroom,SHINEd_sun_aggnnqpdorgxpvce.tif,21,0.0666666666666667,0.0666666666666667,0.7,1393.18194375,1393.866787,9,1393.243689916,1393.304881333,1393.873194583,1394.566533125,0,0.684843249999858
133,49,5,categorization,0,bathroom,SHINEd_sun_awnqiikzaispgmwo.tif,56,0.0666666666666667,0.0666666666666667,1.75,1394.571179791,1395.914741583,9,1394.632851833,1394.694157041,1395.929587458,1397.6729735,0,1.34356179199995
133,50,5,categorization,0,bathroom,SHINEd_sun_axyrejkiiaqiurjk.tif,59,0.0666666666666667,0.0666666666666667,1.36666666666667,1397.689713791,1399.723058833,13,1397.756615333,1397.823364166,1399.742508916,1401.102546291,1,2.03334504200006
133,1,6,categorization,0,kitchen,SHINEd_sun_aunzlwrbjumxhwdj.tif,103,0.0666666666666667,0.0666666666666667,0.966666666666667,1410.692091,1413.394559041,9,1410.754580041,1410.815082083,1413.40098775,1414.360991166,1,2.7024680410002
133,2,6,categorization,0,bathroom,SHINEd_sun_aljolscmmzydegqp.tif,33,0.0666666666666667,0.0666666666666667,1.73333333333333,1414.365744833,1415.978594791,9,1414.42745525,1414.48867525,1415.990812333,1417.717531916,0,1.61284995799997
133,3,6,categorization,0,kitchen,SHINEd_labelme_brsyyvweiuaazfr.tif,61,0.0666666666666667,0.0666666666666667,1.91666666666667,1417.73407775,1419.786154541,9,1417.800532833,1417.867838833,1419.803901875,1421.71396175,1,2.05207679099999
133,4,6,categorization,0,kitchen,SHINEd_sun_ahspylgoovwmwvgk.tif,93,0.0666666666666667,0.0666666666666667,0.766666666666667,1421.731006916,1423.874963625,9,1421.797865416,1421.865217458,1423.884566666,1424.644571,1,2.14395670899989
133,5,6,categorization,0,bathroom,SHINEd_sun_acgyywnybuveqsro.tif,18,0.0666666666666667,0.0666666666666667,0.916666666666667,1424.649580166,1425.947330416,9,1424.711304625,1424.772647041,1425.95844025,1426.868444166,0,1.29775025000004
133,6,6,categorization,0,bathroom,SHINEd_sun_ausgutylgojavyoq.tif,53,0.0666666666666667,0.0666666666666667,1.18333333333333,1426.873181083,1429.139151416,9,1426.934827291,1426.996111208,1429.148462375,1430.32516225,0,2.26597033300004
133,7,6,categorization,0,bathroom,SHINEd_sun_apmqjbnwghzuhhzh.tif,46,0.0666666666666667,0.0666666666666667,1.8,1430.334481958,1432.202581916,9,1430.400898916,1430.467001291,1432.219571458,1434.01295675,0,1.86809995800013
133,8,6,categorization,0,kitchen,SHINEd_sun_aapllqyqlykszopd.tif,66,0.0666666666666667,0.0666666666666667,0.883333333333333,1434.029161416,1435.08241025,9,1434.095947583,1434.163257666,1435.102988791,1435.979660666,1,1.05324883399999
133,9,6,categorization,0,kitchen,SHINEd_sun_abdenxonkemggwsq.tif,69,0.0666666666666667,0.0666666666666667,1.83333333333333,1435.984398708,1437.107381916,9,1436.046121041,1436.10740275,1437.125974,1438.952678458,1,1.12298320799982
133,10,6,categorization,0,kitchen,SHINEd_sun_aaxxjlsuzvqlgylf.tif,68,0.0666666666666667,0.0666666666666667,1.76666666666667,1438.968487416,1440.062077791,13,1439.036221125,1439.103565958,1440.093543708,1441.853599916,0,1.09359037500008
133,11,6,categorization,0,bathroom,SHINEd_sun_atstyziqcmkahyxk.tif,51,0.0666666666666667,0.0666666666666667,0.983333333333333,1441.870438333,1442.492967875,13,1441.935224125,1442.004358875,1442.509093458,1443.485767708,1,0.622529541999938
133,12,6,categorization,0,kitchen,SHINEd_sun_akchetnepxlcxhsu.tif,98,0.0666666666666667,0.0666666666666667,0.883333333333333,1443.49063275,1443.915029666,13,1443.5523225,1443.613517291,1443.9319465,1444.808618666,0,0.424396915999978
133,13,6,categorization,0,kitchen,SHINEd_sun_aymvwlarqodbwuoc.tif,108,0.0666666666666667,0.0666666666666667,0.85,1444.813340041,1445.450937125,13,1444.87504925,1444.936350625,1445.454784625,1446.298121583,0,0.637597084000163
133,14,6,categorization,0,bathroom,SHINEd_sun_aspsyogrekjtfozg.tif,50,0.0666666666666667,0.0666666666666667,0.733333333333333,1446.302670625,1446.762900916,13,1446.364302541,1446.425702625,1446.777525041,1447.504196791,1,0.460230291000016
133,15,6,categorization,0,kitchen,SHINEd_sun_aexklacwqwezaorf.tif,84,0.0666666666666667,0.0666666666666667,1.88333333333333,1447.508598125,1448.010651708,13,1447.570393458,1447.631438375,1448.016620916,1449.893322625,0,0.502053583000134
133,16,6,categorization,0,kitchen,SHINEd_sun_aeqdocilnnpuvuhx.tif,83,0.0666666666666667,0.0666666666666667,0.816666666666667,1449.910557125,1450.434526,13,1449.976901458,1450.044599375,1450.449493958,1451.259498875,0,0.523968875000037
133,17,6,categorization,0,bathroom,SHINEd_sun_ahqjwnzgolcaoidx.tif,29,0.0666666666666667,0.0666666666666667,1.9,1451.264328416,1452.201992958,13,1451.32605025,1451.387374416,1452.20597025,1454.099342083,1,0.937664541999993
133,18,6,categorization,0,kitchen,SHINEd_sun_auticobqsbwgoppi.tif,104,0.0666666666666667,0.0666666666666667,0.983333333333333,1454.115778458,1454.952471791,13,1454.182208625,1454.249765583,1454.97279425,1455.949464875,0,0.836693333000085
133,19,6,categorization,0,kitchen,SHINEd_sun_acxkpeoqbwcxfvip.tif,77,0.0666666666666667,0.0666666666666667,0.75,1455.954294125,1456.851101,9,1456.015892625,1456.077292083,1456.86256025,1457.605898291,1,0.896806875000038
133,20,6,categorization,0,kitchen,SHINEd_sun_awcpdzzznmweyyhv.tif,106,0.0666666666666667,0.0666666666666667,1.6,1457.610568875,1458.626985666,9,1457.672267416,1457.73345925,1458.635323458,1460.228691708,1,1.01641679100021
133,21,6,categorization,0,kitchen,SHINEd_sun_acgtpgfybqjmzeyw.tif,75,0.0666666666666667,0.0666666666666667,1.58333333333333,1460.244314833,1461.173644666,9,1460.309684333,1460.372634916,1461.195385083,1462.772097583,1,0.929329832999883
133,22,6,categorization,0,bathroom,SHINEd_sun_anhioqovhscjqqwb.tif,38,0.0666666666666667,0.0666666666666667,1.11666666666667,1462.789387375,1463.637354958,9,1462.855768791,1462.923200708,1463.663088,1464.773145708,0,0.847967583000127
133,23,6,categorization,0,kitchen,SHINEd_sun_adgqasybjyktddhj.tif,78,0.0666666666666667,0.0666666666666667,1.53333333333333,1464.781355666,1465.512511666,13,1464.846338,1464.914836875,1465.538093833,1467.064808125,0,0.731155999999828
133,24,6,categorization,0,bathroom,SHINEd_sun_ajlawzvmubibwbpy.tif,30,0.0666666666666667,0.0666666666666667,1.48333333333333,1467.082402125,1468.31666325,9,1467.149149125,1467.216448958,1468.340401958,1469.817114375,0,1.23426112499988
133,25,6,categorization,0,kitchen,SHINEd_sun_aehawpgmrlhlvcow.tif,81,0.0666666666666667,0.0666666666666667,1.1,1469.832730125,1470.818160375,9,1469.900541708,1469.966733291,1470.840180875,1471.933559416,1,0.985430250000036
133,26,6,categorization,0,bathroom,SHINEd_sun_ahijqszoswveeyji.tif,28,0.0666666666666667,0.0666666666666667,0.933333333333333,1471.942313916,1472.789098666,9,1472.007264208,1472.075881708,1472.815973,1473.742680666,0,0.84678474999987
133,27,6,categorization,0,kitchen,SHINEd_sun_agzzivivdpnawacl.tif,89,0.0666666666666667,0.0666666666666667,0.816666666666667,1473.758657166,1474.513994708,9,1473.825103291,1473.892594208,1474.527886666,1475.337892125,1,0.755337542000007
133,28,6,categorization,0,kitchen,SHINEd_sun_azmutvzbxypaceni.tif,110,0.0666666666666667,0.0666666666666667,1.78333333333333,1475.342582208,1476.17039125,9,1475.40422175,1475.465595291,1476.184358,1477.961066708,1,0.827809041999899
133,29,6,categorization,0,kitchen,SHINEd_sun_afuyedyxivkhecmu.tif,85,0.0666666666666667,0.0666666666666667,0.766666666666667,1477.974372916,1478.886473708,9,1478.041054916,1478.108377166,1478.914837083,1479.674841958,1,0.912100792000047
133,30,6,categorization,0,bathroom,SHINEd_sun_acegryoqftbzowsg.tif,17,0.0666666666666667,0.0666666666666667,1.45,1479.679692708,1480.282221833,9,1479.741421666,1479.802622916,1480.287692125,1481.731063666,0,0.602529125000046
133,31,6,categorization,0,bathroom,SHINEd_sun_aghyqhbptboemmoq.tif,23,0.0666666666666667,0.0666666666666667,0.75,1481.747456375,1482.197742666,9,1481.813963833,1481.881471833,1482.2214575,1482.964838,0,0.450286291000111
133,32,6,categorization,0,bathroom,SHINEd_sun_ambriybtogmepttm.tif,36,0.0666666666666667,0.0666666666666667,1.36666666666667,1482.978516458,1483.404010708,9,1483.045289375,1483.112491625,1483.4151515,1484.775205541,0,0.425494249999929
133,33,6,categorization,0,bathroom,SHINEd_sun_aunuadmjocsddsrl.tif,52,0.0666666666666667,0.0666666666666667,0.75,1484.791954041,1485.140203833,9,1484.858422458,1484.925911916,1485.165643125,1485.909025458,0,0.348249791999933
133,34,6,categorization,0,kitchen,SHINEd_sun_abdxkyyxwfskuaqb.tif,70,0.0666666666666667,0.0666666666666667,0.783333333333333,1485.92452075,1486.382283833,9,1485.990923958,1486.058634458,1486.397509375,1487.174181541,1,0.457763082999918
133,35,6,categorization,0,bathroom,SHINEd_sun_apkruvsevgegsdwp.tif,44,0.0666666666666667,0.0666666666666667,1.11666666666667,1487.178793916,1488.073877875,9,1487.240437916,1487.301751833,1488.087492041,1489.197545666,0,0.895083959000203
133,36,6,categorization,0,kitchen,SHINEd_sun_ahpczsiumwwocjkv.tif,92,0.0666666666666667,0.0666666666666667,0.766666666666667,1489.207263,1490.188578333,13,1489.271842541,1489.341312375,1490.214400291,1490.974449,0,0.981315332999884
133,37,6,categorization,0,kitchen,SHINEd_labelme_rykdqxenmhulbdn.tif,63,0.0666666666666667,0.0666666666666667,0.716666666666667,1490.991425916,1491.745949708,9,1491.058057875,1491.125061458,1491.760911333,1492.470916875,1,0.754523791999873
133,38,6,categorization,0,bathroom,SHINEd_sun_akiytfaagpdsphgz.tif,31,0.0666666666666667,0.0666666666666667,1.33333333333333,1492.475918416,1492.89062125,13,1492.537588625,1492.598889375,1492.900646416,1494.227362125,1,0.414702834000082
133,39,6,categorization,0,bathroom,SHINEd_sun_aoybiabnpadelefl.tif,41,0.0666666666666667,0.0666666666666667,1.75,1494.243845875,1494.700296583,13,1494.309400333,1494.373263541,1494.729161666,1496.472534208,1,0.45645070799992
133,40,6,categorization,0,kitchen,SHINEd_sun_akcjzhbbjlbogpdi.tif,99,0.0666666666666667,0.0666666666666667,1.13333333333333,1496.481729875,1497.196946958,9,1496.546271666,1496.615726416,1497.222245958,1498.348947375,1,0.71521708299997
133,41,6,categorization,0,bathroom,SHINEd_sun_aclfzgynxzxlbepz.tif,19,0.0666666666666667,0.0666666666666667,1.63333333333333,1498.358650708,1498.752395708,13,1498.422524916,1498.487232583,1498.77550325,1500.402202958,1,0.393745000000081
133,42,6,categorization,0,bathroom,SHINEd_sun_aavhrsfjbserjtht.tif,13,0.0666666666666667,0.0666666666666667,1.43333333333333,1500.418557041,1500.894563916,13,1500.4829445,1500.552138166,1500.9065235,1502.333221416,1,0.476006874999939
133,43,6,categorization,0,kitchen,SHINEd_sun_avszsnwsbuqfgzbn.tif,105,0.0666666666666667,0.0666666666666667,1.83333333333333,1502.343255458,1502.721937041,13,1502.406204208,1502.466426833,1502.734943583,1504.561657208,0,0.378681583000116
133,44,6,categorization,0,bathroom,SHINEd_sun_apynckhmoftszqoq.tif,47,0.0666666666666667,0.0666666666666667,1.93333333333333,1504.579287458,1504.910926833,13,1504.645896625,1504.713127791,1504.936274833,1506.862984416,1,0.331639375000123
133,45,6,categorization,0,kitchen,SHINEd_sun_aegoxogugdkwpmpj.tif,80,0.0666666666666667,0.0666666666666667,1.26666666666667,1506.879708083,1507.658290208,13,1506.946058416,1507.013540416,1507.686745208,1508.946799291,0,0.778582124999957
133,46,6,categorization,0,kitchen,SHINEd_sun_amjjdeyrggfqgmom.tif,100,0.0666666666666667,0.0666666666666667,1.86666666666667,1508.96318725,1509.376848958,13,1509.029766125,1509.099016541,1509.405772083,1511.265802791,0,0.413661708000063
133,47,6,categorization,0,bathroom,SHINEd_sun_avhrdrntsqrjzccq.tif,55,0.0666666666666667,0.0666666666666667,1.41666666666667,1511.283410541,1512.152867833,9,1511.350497166,1511.417514916,1512.174127208,1513.584176375,0,0.869457292000106
133,48,6,categorization,0,bathroom,SHINEd_sun_aofnryafpsjimzsb.tif,40,0.0666666666666667,0.0666666666666667,1.11666666666667,1513.600684541,1514.215844875,13,1513.666893333,1513.73457675,1514.241249166,1515.351284833,1,0.615160333999938
133,49,6,categorization,0,bathroom,SHINEd_sun_aapitsgbtktqubfy.tif,12,0.0666666666666667,0.0666666666666667,1.8,1515.362596583,1515.74799825,13,1515.429335333,1515.496066166,1515.769397125,1517.562771375,1,0.385401666999996
133,50,6,categorization,0,bathroom,SHINEd_sun_aleqenyvunhactkl.tif,32,0.0666666666666667,0.0666666666666667,1.25,1517.580115208,1517.877114166,13,1517.646957375,1517.714504916,1517.904262916,1519.1476315,1,0.296998957999904
133,1,7,categorization,0,bathroom,SHINEd_sun_ahqjwnzgolcaoidx.tif,29,0.0666666666666667,0.0666666666666667,0.883333333333333,1524.302991666,1528.092891666,9,1524.365235583,1524.426003708,1528.111792833,1528.98846375,0,3.78989999999999
133,2,7,categorization,0,bathroom,SHINEd_sun_apjevzvycyhuqghb.tif,43,0.0666666666666667,0.0666666666666667,1.03333333333333,1528.99283275,1531.401637,13,1529.0545395,1529.115852625,1531.418060333,1532.444774166,1,2.40880425
133,3,7,categorization,0,kitchen,SHINEd_sun_acgtpgfybqjmzeyw.tif,75,0.0666666666666667,0.0666666666666667,1.06666666666667,1532.453564333,1533.54910675,13,1532.517312,1532.585487583,1533.575487583,1534.6355185,0,1.09554241699993
133,4,7,categorization,0,bathroom,SHINEd_sun_apmqjbnwghzuhhzh.tif,46,0.0666666666666667,0.0666666666666667,0.833333333333333,1534.64433375,1535.760538166,13,1534.709511,1534.777790375,1535.784594625,1536.611317,1,1.11620441600007
133,5,7,categorization,0,bathroom,SHINEd_sun_aclfzgynxzxlbepz.tif,19,0.0666666666666667,0.0666666666666667,0.716666666666667,1536.626359708,1537.658505625,13,1536.689214958,1536.749567458,1537.668004333,1538.378009916,1,1.03214591699998
133,6,7,categorization,0,kitchen,SHINEd_sun_ajkqhtgcbgpcwrwn.tif,97,0.0666666666666667,0.0666666666666667,0.733333333333333,1538.382663541,1539.113945916,13,1538.444253041,1538.505643791,1539.124172458,1539.850843041,0,0.731282374999864
133,7,7,categorization,0,kitchen,SHINEd_sun_aixorpehvfykdynp.tif,95,0.0666666666666667,0.0666666666666667,1.38333333333333,1539.856634875,1540.306542833,13,1539.918432416,1539.979518416,1540.314582875,1541.691285916,0,0.44990795800004
133,8,7,categorization,0,bathroom,SHINEd_sun_axxbkopsgyouuebh.tif,58,0.0666666666666667,0.0666666666666667,0.9,1541.708268666,1542.13355025,13,1541.774655375,1541.842006958,1542.165194416,1543.058579458,1,0.425281584000004
133,9,7,categorization,0,kitchen,SHINEd_sun_agubuxuukhzyzpdp.tif,88,0.0666666666666667,0.0666666666666667,0.816666666666667,1543.073794041,1543.466677208,13,1543.140231083,1543.207683875,1543.476928958,1544.286932666,0,0.392883167000036
133,10,7,categorization,0,bathroom,SHINEd_sun_aggnnqpdorgxpvce.tif,21,0.0666666666666667,0.0666666666666667,0.85,1544.291395625,1544.62652775,13,1544.353063041,1544.414472708,1544.632904916,1545.476243083,1,0.335132124999973
133,11,7,categorization,0,bathroom,SHINEd_sun_ausgutylgojavyoq.tif,53,0.0666666666666667,0.0666666666666667,1.6,1545.480812958,1545.754703125,13,1545.542504208,1545.603831166,1545.772592375,1547.365963375,1,0.273890167000218
133,12,7,categorization,0,kitchen,SHINEd_sun_abdenxonkemggwsq.tif,69,0.0666666666666667,0.0666666666666667,1.75,1547.378286125,1547.86759925,13,1547.442053625,1547.50857575,1547.898664291,1549.642039333,0,0.489313125000081
133,13,7,categorization,0,kitchen,SHINEd_sun_awcpdzzznmweyyhv.tif,106,0.0666666666666667,0.0666666666666667,1.1,1549.653990333,1550.022961583,13,1549.720261458,1549.787778791,1550.044196166,1551.137569125,0,0.368971250000186
133,14,7,categorization,0,kitchen,SHINEd_sun_amjjdeyrggfqgmom.tif,100,0.0666666666666667,0.0666666666666667,1.46666666666667,1551.148285208,1551.511343458,13,1551.215640291,1551.279665833,1551.536843541,1552.996902291,0,0.363058249999995
133,15,7,categorization,0,kitchen,SHINEd_sun_axyyrmzcupyhlivc.tif,107,0.0666666666666667,0.0666666666666667,1.25,1553.011858083,1553.361690291,13,1553.078881541,1553.14435425,1553.379587416,1554.622968208,0,0.349832207999953
133,16,7,categorization,0,bathroom,SHINEd_sun_asfwthctfqerjvxr.tif,49,0.0666666666666667,0.0666666666666667,1.13333333333333,1554.635329125,1554.985616083,13,1554.701815125,1554.769086083,1555.008648083,1556.135364583,1,0.35028695799997
133,17,7,categorization,0,kitchen,SHINEd_sun_aaxxjlsuzvqlgylf.tif,68,0.0666666666666667,0.0666666666666667,1.33333333333333,1556.149608583,1556.270049791,13,1556.216196541,1556.284364291,1556.30734925,1557.634068875,0,0.120441208000102
133,18,7,categorization,0,kitchen,SHINEd_labelme_kxvouciolcpqplr.tif,62,0.0666666666666667,0.0666666666666667,1.86666666666667,1557.651494875,1558.019853666,13,1557.718298083,1557.785155083,1558.041256333,1559.901311416,0,0.368358790999991
133,19,7,categorization,0,kitchen,SHINEd_sun_ahspylgoovwmwvgk.tif,93,0.0666666666666667,0.0666666666666667,1.58333333333333,1559.919009208,1560.469190166,13,1559.985448625,1560.052730458,1560.491322875,1562.06802575,0,0.550180958000055
133,20,7,categorization,0,bathroom,SHINEd_sun_acegryoqftbzowsg.tif,17,0.0666666666666667,0.0666666666666667,1.05,1562.085284083,1562.663633625,13,1562.151820583,1562.219103041,1562.692590291,1563.735966333,1,0.578349542000069
133,21,7,categorization,0,kitchen,SHINEd_sun_afuyedyxivkhecmu.tif,85,0.0666666666666667,0.0666666666666667,0.9,1563.745680625,1564.07090125,13,1563.810908708,1563.879546458,1564.10251225,1564.995883791,0,0.325220624999929
133,22,7,categorization,0,bathroom,SHINEd_sun_ahcvzmoyaycdoftf.tif,27,0.0666666666666667,0.0666666666666667,0.7,1565.010321958,1565.554746541,13,1565.07695125,1565.14456225,1565.584523708,1566.277862416,1,0.544424582999909
133,23,7,categorization,0,kitchen,SHINEd_sun_adgqasybjyktddhj.tif,78,0.0666666666666667,0.0666666666666667,0.933333333333333,1566.282544458,1566.937494333,13,1566.34420875,1566.405547041,1566.957584291,1567.884255416,0,0.654949874999829
133,24,7,categorization,0,bathroom,SHINEd_sun_agyqfjcfkdcydepw.tif,25,0.0666666666666667,0.0666666666666667,1.95,1567.889659666,1568.514097791,13,1567.95132725,1568.012609458,1568.530998041,1570.474368458,1,0.624438125000097
133,25,7,categorization,0,bathroom,SHINEd_sun_ambriybtogmepttm.tif,36,0.0666666666666667,0.0666666666666667,1.06666666666667,1570.483571041,1570.950246291,13,1570.547994583,1570.61731875,1570.973549958,1572.033608458,1,0.46667524999998
133,26,7,categorization,0,kitchen,SHINEd_sun_ahdycvpopffkzzsu.tif,90,0.0666666666666667,0.0666666666666667,1.2,1572.04380925,1572.77912125,13,1572.107997958,1572.176428958,1572.799317416,1573.992696791,0,0.735311999999794
133,27,7,categorization,0,bathroom,SHINEd_sun_amzlamotzwfkwjco.tif,37,0.0666666666666667,0.0666666666666667,0.75,1574.0086325,1574.786723625,13,1574.071269541,1574.131613666,1574.800091541,1575.543430291,1,0.778091124999946
133,28,7,categorization,0,kitchen,SHINEd_sun_abpwyqmlzafvklqo.tif,72,0.0666666666666667,0.0666666666666667,0.816666666666667,1575.548068833,1575.9705945,9,1575.6097995,1575.6709535,1575.989439208,1576.799442958,1,0.422525667000173
133,29,7,categorization,0,kitchen,SHINEd_sun_aexklacwqwezaorf.tif,84,0.0666666666666667,0.0666666666666667,1.96666666666667,1576.804269958,1577.289746666,9,1576.866021791,1576.927205708,1577.295781125,1579.255812666,1,0.485476707999851
133,30,7,categorization,0,bathroom,SHINEd_sun_abapwbhyhkfixyex.tif,14,0.0666666666666667,0.0666666666666667,1.2,1579.275212041,1579.929617666,9,1579.341776125,1579.40918075,1579.948496708,1581.141886333,0,0.654405624999981
133,31,7,categorization,0,bathroom,SHINEd_sun_aleqenyvunhactkl.tif,32,0.0666666666666667,0.0666666666666667,0.883333333333333,1581.152902333,1581.559590958,9,1581.219471625,1581.286777041,1581.576037625,1582.452739416,0,0.406688625000015
133,32,7,categorization,0,kitchen,SHINEd_sun_aadbddgrdsjugojn.tif,64,0.0666666666666667,0.0666666666666667,1.33333333333333,1582.461270125,1582.926040416,9,1582.525898041,1582.595240583,1582.952305625,1584.279016125,1,0.464770290999923
133,33,7,categorization,0,bathroom,SHINEd_sun_alotolagknyrgtsk.tif,35,0.0666666666666667,0.0666666666666667,1.45,1584.295663791,1584.84991475,9,1584.360537875,1584.424587625,1584.881126041,1586.324500291,0,0.554250959000001
133,34,7,categorization,0,bathroom,SHINEd_sun_anhioqovhscjqqwb.tif,38,0.0666666666666667,0.0666666666666667,1.15,1586.334085916,1586.66116,13,1586.400986166,1586.466714125,1586.689961958,1587.833346666,1,0.32707408400006
133,35,7,categorization,0,kitchen,SHINEd_sun_agorklincwxrdtga.tif,87,0.0666666666666667,0.0666666666666667,0.966666666666667,1587.849464333,1588.7787325,9,1587.915812416,1587.983590666,1588.7856345,1589.745638208,1,0.929268166999918
133,36,7,categorization,0,bathroom,SHINEd_sun_ahijqszoswveeyji.tif,28,0.0666666666666667,0.0666666666666667,1.45,1589.75038575,1590.474176375,9,1589.812054875,1589.873307791,1590.491860958,1591.935232416,0,0.723790624999992
133,37,7,categorization,0,kitchen,SHINEd_sun_aypmqwcualkenuoe.tif,109,0.0666666666666667,0.0666666666666667,0.8,1591.951472541,1592.443506875,13,1592.017768375,1592.085259291,1592.456083333,1593.249473333,0,0.492034333999982
133,38,7,categorization,0,bathroom,SHINEd_sun_aspsyogrekjtfozg.tif,50,0.0666666666666667,0.0666666666666667,1.45,1593.264417375,1593.649623541,9,1593.330889875,1593.3980255,1593.6670925,1595.110484583,0,0.385206165999989
133,39,7,categorization,0,kitchen,SHINEd_sun_ahljzhgcdpomplvg.tif,91,0.0666666666666667,0.0666666666666667,1.1,1595.127373666,1595.490114166,13,1595.193988,1595.261631666,1595.518099458,1596.61148925,0,0.362740499999973
133,40,7,categorization,0,bathroom,SHINEd_sun_acduarbnmmoglmiv.tif,16,0.0666666666666667,0.0666666666666667,1.16666666666667,1596.626498166,1597.570459583,13,1596.690338833,1596.750496333,1597.58612475,1598.746160875,1,0.943961417000082
133,41,7,categorization,0,kitchen,SHINEd_sun_aarfiyshqohlwkmo.tif,67,0.0666666666666667,0.0666666666666667,1.31666666666667,1598.755879125,1599.278544791,13,1598.822365416,1598.88971,1599.295884708,1600.605920791,0,0.522665665999966
133,42,7,categorization,0,kitchen,SHINEd_sun_aamedkxepzlwuxes.tif,65,0.0666666666666667,0.0666666666666667,1.68333333333333,1600.624364291,1600.962240208,9,1600.691308416,1600.749017666,1600.967362208,1602.644070416,1,0.337875917000019
133,43,7,categorization,0,kitchen,SHINEd_labelme_brsyyvweiuaazfr.tif,61,0.0666666666666667,0.0666666666666667,0.966666666666667,1602.661088583,1602.987922875,9,1602.727666208,1602.795085125,1603.018420583,1603.978467583,1,0.326834292000058
133,44,7,categorization,0,bathroom,SHINEd_sun_aqrpegblszgcoujh.tif,48,0.0666666666666667,0.0666666666666667,1.4,1603.993218083,1604.386050375,9,1604.059883,1604.119060375,1604.404192958,1605.79757875,0,0.392832291999866
133,45,7,categorization,0,bathroom,SHINEd_labelme_sfxiulhjbhlyiyt.tif,11,0.0666666666666667,0.0666666666666667,0.783333333333333,1605.815199875,1606.149820041,13,1605.881808083,1605.948831708,1606.171929666,1606.948652541,1,0.33462016600015
133,46,7,categorization,0,kitchen,SHINEd_sun_acxkpeoqbwcxfvip.tif,77,0.0666666666666667,0.0666666666666667,1.08333333333333,1606.962470708,1607.340325583,13,1607.029015791,1607.096473125,1607.369596791,1608.446319791,0,0.377854875000139
133,47,7,categorization,0,kitchen,SHINEd_labelme_rykdqxenmhulbdn.tif,63,0.0666666666666667,0.0666666666666667,1.43333333333333,1608.456351666,1609.097075208,13,1608.520888,1608.58892575,1609.128687708,1610.555410291,0,0.640723541999932
133,48,7,categorization,0,bathroom,SHINEd_sun_aljolscmmzydegqp.tif,33,0.0666666666666667,0.0666666666666667,1.75,1610.570149375,1614.337828291,13,1610.63652825,1610.7037335,1614.356370041,1616.099747625,1,3.76767891600002
133,49,7,categorization,0,kitchen,SHINEd_sun_avszsnwsbuqfgzbn.tif,105,0.0666666666666667,0.0666666666666667,1.21666666666667,1616.116551041,1618.033737916,9,1616.181574708,1616.250554125,1618.053178375,1619.263216,1,1.91718687499997
133,50,7,categorization,0,kitchen,SHINEd_sun_aunzlwrbjumxhwdj.tif,103,0.0666666666666667,0.0666666666666667,1.31666666666667,1619.278646583,1620.75419125,9,1619.346467291,1619.41312525,1620.771015,1622.0810515,1,1.47554466700012
133,1,8,categorization,0,kitchen,SHINEd_sun_aenotlpyftoioydp.tif,82,0.0666666666666667,0.0666666666666667,1.18333333333333,1627.070150958,1628.994478291,9,1627.13222225,1627.193116083,1629.0119355,1630.188653916,1,1.92432733299984
133,2,8,categorization,0,kitchen,SHINEd_sun_admlmbcdswaszruo.tif,79,0.0666666666666667,0.0666666666666667,0.983333333333333,1630.197465333,1631.42566725,9,1630.263737333,1630.32631775,1631.448942708,1632.425614708,1,1.22820191699998
133,3,8,categorization,0,bathroom,SHINEd_sun_aunuadmjocsddsrl.tif,52,0.0666666666666667,0.0666666666666667,1.65,1632.430104583,1633.082313583,9,1632.491721166,1632.553113666,1633.088481333,1634.73185425,0,0.652209000000084
133,4,8,categorization,0,kitchen,SHINEd_sun_aeqdocilnnpuvuhx.tif,83,0.0666666666666667,0.0666666666666667,1.23333333333333,1634.749128208,1635.844616458,13,1634.815246625,1634.882786916,1635.872556125,1637.099260083,0,1.09548825000002
133,5,8,categorization,0,kitchen,SHINEd_sun_aehawpgmrlhlvcow.tif,81,0.0666666666666667,0.0666666666666667,0.916666666666667,1637.11592375,1638.608118625,13,1637.182559958,1637.250081291,1638.624331166,1639.534336833,0,1.492194875
133,6,8,categorization,0,bathroom,SHINEd_sun_ajlawzvmubibwbpy.tif,30,0.0666666666666667,0.0666666666666667,1.56666666666667,1639.539384083,1640.033829541,9,1639.601067958,1639.6622815,1640.047364833,1641.607416083,0,0.494445457999973
133,7,8,categorization,0,bathroom,SHINEd_sun_apeeialkgkuxddgh.tif,42,0.0666666666666667,0.0666666666666667,1.63333333333333,1641.624063708,1641.948795291,13,1641.691177666,1641.758048375,1641.9637865,1643.59048875,1,0.324731582999902
133,8,8,categorization,0,bathroom,SHINEd_sun_apkruvsevgegsdwp.tif,44,0.0666666666666667,0.0666666666666667,1.1,1643.607209916,1643.976876,13,1643.67405525,1643.74105625,1643.99744325,1645.090819958,1,0.369666083999846
133,9,8,categorization,0,bathroom,SHINEd_sun_aghyqhbptboemmoq.tif,23,0.0666666666666667,0.0666666666666667,1.38333333333333,1645.10733025,1645.50650225,13,1645.173814833,1645.241311583,1645.509685,1646.886392875,1,0.399172000000135
133,10,8,categorization,0,kitchen,SHINEd_sun_aymvwlarqodbwuoc.tif,108,0.0666666666666667,0.0666666666666667,0.766666666666667,1646.902723166,1647.21328775,9,1646.96911175,1647.036463041,1647.2427515,1648.002788375,1,0.310564584000076
133,11,8,categorization,0,bathroom,SHINEd_sun_aavhrsfjbserjtht.tif,13,0.0666666666666667,0.0666666666666667,1.45,1648.016095375,1648.416460125,13,1648.082274833,1648.149633333,1648.43786475,1649.881247583,1,0.400364749999881
133,12,8,categorization,0,bathroom,SHINEd_sun_axyrejkiiaqiurjk.tif,59,0.0666666666666667,0.0666666666666667,0.983333333333333,1649.898077166,1650.299723583,13,1649.964288708,1650.031987625,1650.319747458,1651.296464875,1,0.401646417000165
133,13,8,categorization,0,bathroom,SHINEd_sun_axldvoqbuvuggfmq.tif,57,0.0666666666666667,0.0666666666666667,0.716666666666667,1651.31342475,1651.658655416,9,1651.380397666,1651.447113291,1651.666167125,1652.37617125,0,0.345230666000134
133,14,8,categorization,0,kitchen,SHINEd_sun_acfmftudsenhrfhy.tif,74,0.0666666666666667,0.0666666666666667,1.41666666666667,1652.38038325,1653.033214,13,1652.441968666,1652.50349625,1653.038483625,1654.448518208,0,0.652830750000021
133,15,8,categorization,0,bathroom,SHINEd_sun_awnqiikzaispgmwo.tif,56,0.0666666666666667,0.0666666666666667,1.21666666666667,1654.4583135,1656.1214475,13,1654.52293225,1654.592024875,1656.14501125,1657.355068,1,1.6631339999999
133,16,8,categorization,0,kitchen,SHINEd_sun_aggjlwcdjsjcaemh.tif,86,0.0666666666666667,0.0666666666666667,1.61666666666667,1657.371424583,1658.322167458,13,1657.439179333,1657.505449333,1658.345411541,1659.955445416,0,0.95074287500006
133,17,8,categorization,0,kitchen,SHINEd_sun_agzzivivdpnawacl.tif,89,0.0666666666666667,0.0666666666666667,0.783333333333333,1659.973909875,1660.4587075,9,1660.0404015,1660.107627708,1660.479222583,1661.255922666,1,0.484797625000056
133,18,8,categorization,0,bathroom,SHINEd_sun_atstyziqcmkahyxk.tif,51,0.0666666666666667,0.0666666666666667,1.98333333333333,1661.265694791,1661.825768416,9,1661.332522666,1661.396244041,1661.83161825,1663.808320791,0,0.560073625000086
133,19,8,categorization,0,bathroom,SHINEd_sun_aoybiabnpadelefl.tif,41,0.0666666666666667,0.0666666666666667,0.983333333333333,1663.824016583,1664.493047291,9,1663.89082675,1663.957572333,1664.512618541,1665.489290791,0,0.669030708000037
133,20,8,categorization,0,bathroom,SHINEd_sun_azqyogdvyhahyram.tif,60,0.0666666666666667,0.0666666666666667,0.8,1665.494177541,1665.906136333,9,1665.555914916,1665.617358458,1665.919049041,1666.712387958,0,0.41195879199995
133,21,8,categorization,0,bathroom,SHINEd_sun_acgyywnybuveqsro.tif,18,0.0666666666666667,0.0666666666666667,0.733333333333333,1666.716946541,1667.057895083,9,1666.778516166,1666.839783625,1667.074802625,1667.801473458,0,0.340948541999978
133,22,8,categorization,0,kitchen,SHINEd_sun_abftihopvusyfakt.tif,71,0.0666666666666667,0.0666666666666667,0.966666666666667,1667.805669083,1668.17786875,9,1667.86730925,1667.928595541,1668.197104333,1669.1571085,1,0.372199666999904
133,23,8,categorization,0,bathroom,SHINEd_sun_agguqiubmwhqqunb.tif,22,0.0666666666666667,0.0666666666666667,0.866666666666667,1669.161747416,1669.442137291,9,1669.223369125,1669.284611083,1669.452914958,1670.312918458,0,0.280389875000083
133,24,8,categorization,0,kitchen,SHINEd_sun_auticobqsbwgoppi.tif,104,0.0666666666666667,0.0666666666666667,1.23333333333333,1670.317174083,1670.489952375,9,1670.3787525,1670.440055583,1670.50828775,1671.73499275,1,0.172778291999975
133,25,8,categorization,0,bathroom,SHINEd_sun_alkosphxlxwjwgjd.tif,34,0.0666666666666667,0.0666666666666667,1.9,1671.751011666,1671.871408541,9,1671.817579625,1671.885281291,1671.907829916,1673.801205416,0,0.120396874999869
133,26,8,categorization,0,kitchen,SHINEd_sun_azmutvzbxypaceni.tif,110,0.0666666666666667,0.0666666666666667,0.866666666666667,1673.815391583,1674.280956,9,1673.881843708,1673.949165541,1674.305643416,1675.165687916,1,0.465564416999996
133,27,8,categorization,0,bathroom,SHINEd_sun_apynckhmoftszqoq.tif,47,0.0666666666666667,0.0666666666666667,0.966666666666667,1675.181341416,1676.041283958,9,1675.247723041,1675.315244083,1676.050800083,1677.010804666,0,0.859942541999999
133,28,8,categorization,0,bathroom,SHINEd_sun_ahaulkltgpkeeemi.tif,26,0.0666666666666667,0.0666666666666667,0.916666666666667,1677.015484416,1677.937383166,13,1677.077229583,1677.138367625,1677.957034833,1678.867039583,1,0.921898750000082
133,29,8,categorization,0,bathroom,SHINEd_sun_auzqhkafidnkrwmo.tif,54,0.0666666666666667,0.0666666666666667,0.916666666666667,1678.872155916,1680.346285166,13,1678.933874916,1678.995151083,1680.363740416,1681.273744708,1,1.47412924999981
133,30,8,categorization,0,bathroom,SHINEd_sun_anryaplzeujmzfkd.tif,39,0.0666666666666667,0.0666666666666667,1.4,1681.278406,1682.714334291,9,1681.340179791,1681.401398291,1682.720226083,1684.113604916,0,1.43592829099998
133,31,8,categorization,0,kitchen,SHINEd_sun_acwjdupvyjsugpay.tif,76,0.0666666666666667,0.0666666666666667,1.75,1684.129874458,1685.161114958,9,1684.197629416,1684.263563958,1685.186444583,1686.929810708,1,1.03124050000019
133,32,8,categorization,0,bathroom,SHINEd_sun_avhrdrntsqrjzccq.tif,55,0.0666666666666667,0.0666666666666667,1.25,1686.943714,1688.297329208,9,1687.011222458,1687.077812166,1688.313249541,1689.556615166,0,1.35361520800006
133,33,8,categorization,0,bathroom,SHINEd_sun_agrwbmhcpmfuwmsg.tif,24,0.0666666666666667,0.0666666666666667,1.05,1689.570796083,1691.031423875,13,1689.637530375,1689.704703166,1691.063568625,1692.106957375,1,1.46062779199997
133,34,8,categorization,0,bathroom,SHINEd_sun_apkxzenqapsujocq.tif,45,0.0666666666666667,0.0666666666666667,1.06666666666667,1692.118401333,1692.903641416,9,1692.182708125,1692.25075,1692.923489666,1693.983539875,0,0.785240082999962
133,35,8,categorization,0,kitchen,SHINEd_sun_ahpczsiumwwocjkv.tif,92,0.0666666666666667,0.0666666666666667,1.21666666666667,1693.999487625,1694.802116625,9,1694.066257958,1694.12679975,1694.81202275,1696.02207325,1,0.802629000000024
133,36,8,categorization,0,kitchen,SHINEd_sun_aegoxogugdkwpmpj.tif,80,0.0666666666666667,0.0666666666666667,0.95,1696.041059916,1696.748235458,13,1696.107267708,1696.174656333,1696.763543083,1697.706917625,0,0.707175541999959
133,37,8,categorization,0,kitchen,SHINEd_sun_ahywdevtimnqcsln.tif,94,0.0666666666666667,0.0666666666666667,0.9,1697.723885916,1699.0180675,9,1697.790208916,1697.857461625,1699.026293458,1699.919632416,1,1.29418158399994
133,38,8,categorization,0,bathroom,SHINEd_sun_abjtwfukuwddzted.tif,15,0.0666666666666667,0.0666666666666667,1.78333333333333,1699.924125291,1700.849547833,9,1699.985797916,1700.046998083,1700.865572791,1702.642297125,0,0.925422541999978
133,39,8,categorization,0,kitchen,SHINEd_sun_akcjzhbbjlbogpdi.tif,99,0.0666666666666667,0.0666666666666667,1.16666666666667,1702.659430125,1703.476616333,9,1702.725769583,1702.793234625,1703.500053666,1704.660095583,1,0.817186208000066
133,40,8,categorization,0,bathroom,SHINEd_sun_aapitsgbtktqubfy.tif,12,0.0666666666666667,0.0666666666666667,0.783333333333333,1704.669527083,1705.7366595,9,1704.735780083,1704.803145958,1705.759463625,1706.536169375,0,1.06713241700004
133,41,8,categorization,0,kitchen,SHINEd_sun_abrcnpqqhmjwekyf.tif,73,0.0666666666666667,0.0666666666666667,1.23333333333333,1706.546423125,1707.5852455,9,1706.60930575,1706.669432833,1707.604785291,1708.831501625,1,1.03882237499988
133,42,8,categorization,0,bathroom,SHINEd_sun_aofnryafpsjimzsb.tif,40,0.0666666666666667,0.0666666666666667,0.9,1708.848547666,1709.957632291,9,1708.915663583,1708.9828595,1709.990535791,1710.883874458,0,1.10908462499992
133,43,8,categorization,0,bathroom,SHINEd_sun_akiytfaagpdsphgz.tif,31,0.0666666666666667,0.0666666666666667,0.7,1710.889228958,1712.097071208,13,1710.950896791,1711.012252083,1712.11460825,1712.807945083,1,1.20784224999989
133,44,8,categorization,0,kitchen,SHINEd_sun_abdxkyyxwfskuaqb.tif,70,0.0666666666666667,0.0666666666666667,1.23333333333333,1712.812607083,1714.705198458,13,1712.874425125,1712.935488125,1714.721010041,1715.947729083,0,1.89259137499994
133,45,8,categorization,0,kitchen,SHINEd_sun_akchetnepxlcxhsu.tif,98,0.0666666666666667,0.0666666666666667,1,1715.963084666,1716.848629333,9,1716.029783041,1716.096670791,1716.86950925,1717.862847916,1,0.885544666999976
133,46,8,categorization,0,bathroom,SHINEd_sun_afcoljnjfoxjtgja.tif,20,0.0666666666666667,0.0666666666666667,1.38333333333333,1717.867756791,1718.777241666,9,1717.929465833,1717.990694208,1718.792702333,1720.169403958,0,0.909484875000089
133,47,8,categorization,0,kitchen,SHINEd_sun_aapllqyqlykszopd.tif,66,0.0666666666666667,0.0666666666666667,1.3,1720.186487083,1721.21351325,9,1720.253894833,1720.315067708,1721.238352208,1722.531721875,1,1.02702616700003
133,48,8,categorization,0,kitchen,SHINEd_sun_aqeaevwwwjoqhzvl.tif,101,0.0666666666666667,0.0666666666666667,0.833333333333333,1722.542195125,1723.140029958,9,1722.608727125,1722.675866916,1723.166150375,1723.992886708,1,0.597834832999979
133,49,8,categorization,0,kitchen,SHINEd_sun_ajcbwwvdlsvjyzje.tif,96,0.0666666666666667,0.0666666666666667,0.95,1724.007688083,1724.5533705,9,1724.074055666,1724.141713875,1724.560382916,1725.503720583,1,0.54568241700008
133,50,8,categorization,0,kitchen,SHINEd_sun_auaiucuqpdausiva.tif,102,0.0666666666666667,0.0666666666666667,1.43333333333333,1725.508391375,1726.1693995,9,1725.570092708,1725.631254375,1726.183252875,1727.609977666,1,0.66100812500008
133,1,9,categorization,0,kitchen,SHINEd_labelme_kxvouciolcpqplr.tif,62,0.0666666666666667,0.0666666666666667,1.08333333333333,1736.695926083,1738.905016541,13,1736.758442875,1736.818969083,1738.92128775,1739.998000333,0,2.20909045799999
133,2,9,categorization,0,kitchen,SHINEd_sun_aamedkxepzlwuxes.tif,65,0.0666666666666667,0.0666666666666667,0.8,1740.006667583,1742.073978875,13,1740.071446583,1740.140549666,1742.093381875,1742.886719666,0,2.06731129199989
133,3,9,categorization,0,kitchen,SHINEd_sun_axyyrmzcupyhlivc.tif,107,0.0666666666666667,0.0666666666666667,0.833333333333333,1742.891560125,1743.936824208,9,1742.9534305,1743.014569333,1743.950203041,1744.776873083,1,1.04526408299989
133,4,9,categorization,0,bathroom,SHINEd_sun_axxbkopsgyouuebh.tif,58,0.0666666666666667,0.0666666666666667,1.45,1744.781407,1746.2332965,9,1744.843289791,1744.904450541,1746.240120625,1747.683503166,0,1.45188950000011
133,5,9,categorization,0,bathroom,SHINEd_sun_asfwthctfqerjvxr.tif,49,0.0666666666666667,0.0666666666666667,1.3,1747.7007425,1748.564135541,9,1747.767093833,1747.834679791,1748.591233083,1749.884622083,0,0.863393041000108
133,6,9,categorization,0,bathroom,SHINEd_sun_aspsyogrekjtfozg.tif,50,0.0666666666666667,0.0666666666666667,1.21666666666667,1749.90178875,1751.298861875,13,1749.968621916,1750.035802416,1751.328614375,1752.538650875,1,1.39707312500013
133,7,9,categorization,0,kitchen,SHINEd_sun_auticobqsbwgoppi.tif,104,0.0666666666666667,0.0666666666666667,0.733333333333333,1752.548574666,1753.629024666,9,1752.615230666,1752.682315666,1753.655939375,1754.382657791,1,1.08045000000016
133,8,9,categorization,0,bathroom,SHINEd_sun_aavhrsfjbserjtht.tif,13,0.0666666666666667,0.0666666666666667,1.03333333333333,1754.397351,1755.777710708,13,1754.460204958,1754.5207495,1755.789770333,1756.81647,1,1.38035970800001
133,9,9,categorization,0,bathroom,SHINEd_sun_akiytfaagpdsphgz.tif,31,0.0666666666666667,0.0666666666666667,1.1,1756.826016,1757.720667958,13,1756.890696833,1756.958513541,1757.748350208,1758.841737541,1,0.89465195799994
133,10,9,categorization,0,kitchen,SHINEd_sun_aypmqwcualkenuoe.tif,109,0.0666666666666667,0.0666666666666667,1.25,1758.855747291,1759.825066541,13,1758.917758083,1758.978710875,1759.830850541,1761.074224291,0,0.969319250000126
133,11,9,categorization,0,bathroom,SHINEd_sun_ahqjwnzgolcaoidx.tif,29,0.0666666666666667,0.0666666666666667,1.4,1761.091990458,1762.325289083,13,1761.158641333,1761.226141541,1762.35104,1763.744408,1,1.23329862499986
133,12,9,categorization,0,bathroom,SHINEd_sun_amzlamotzwfkwjco.tif,37,0.0666666666666667,0.0666666666666667,1.43333333333333,1763.761031791,1764.697823166,13,1763.827757083,1763.894975208,1764.717881375,1766.14459025,1,0.936791374999984
133,13,9,categorization,0,kitchen,SHINEd_sun_aexklacwqwezaorf.tif,84,0.0666666666666667,0.0666666666666667,1.26666666666667,1766.161306166,1767.0792865,13,1766.228192375,1766.295360375,1767.102026041,1768.362076166,0,0.917980334000049
133,14,9,categorization,0,kitchen,SHINEd_sun_acxkpeoqbwcxfvip.tif,77,0.0666666666666667,0.0666666666666667,0.916666666666667,1768.374955666,1769.582457375,9,1768.440290416,1768.5035265,1769.6103015,1770.520306875,1,1.2075017090001
133,15,9,categorization,0,bathroom,SHINEd_sun_axldvoqbuvuggfmq.tif,57,0.0666666666666667,0.0666666666666667,1.05,1770.5249895,1771.096864,9,1770.586889541,1770.647850791,1771.116459791,1772.159843333,0,0.571874500000149
133,16,9,categorization,0,kitchen,SHINEd_sun_amjjdeyrggfqgmom.tif,100,0.0666666666666667,0.0666666666666667,1.53333333333333,1772.167928666,1772.907896666,9,1772.232266041,1772.300366916,1772.922619458,1774.449342291,1,0.739967999999863
