sub_num,trial,block,task,is_practice,category,image,texture,duration,mask_dur,jitter,stim_time,time_of_resp,trial_response,mask_time,fix_time,jit_onset,trial_end,trial_accuracy,RT
133,1,10,categorization,0,kitchen,SHINEd_sun_ahpczsiumwwocjkv.tif,92,0.0666666666666667,0.0666666666666667,1.61666666666667,1850.73992725,1853.169501375,9,1850.80273375,1850.862817708,1853.181796625,1854.7918475,1,2.42957412500004
133,2,10,categorization,0,kitchen,SHINEd_sun_auaiucuqpdausiva.tif,102,0.0666666666666667,0.0666666666666667,0.833333333333333,1854.810006416,1857.952680125,9,1854.8766915,1854.944548916,1857.969254916,1858.795924958,1,3.14267370899984
133,3,10,categorization,0,kitchen,SHINEd_sun_abdenxonkemggwsq.tif,69,0.0666666666666667,0.0666666666666667,0.916666666666667,1858.800336166,1860.208368083,13,1858.86204525,1858.923200458,1860.225354625,1861.13536,0,1.40803191700002
133,4,10,categorization,0,bathroom,SHINEd_sun_acegryoqftbzowsg.tif,17,0.0666666666666667,0.0666666666666667,1.58333333333333,1861.140034875,1862.193101916,9,1861.201770583,1861.263300916,1862.198886416,1863.775588208,0,1.05306704099985
133,5,10,categorization,0,bathroom,SHINEd_sun_agguqiubmwhqqunb.tif,22,0.0666666666666667,0.0666666666666667,1.38333333333333,1863.792705833,1864.694270208,13,1863.859171958,1863.926504875,1864.716675125,1866.093379208,1,0.901564375000135
133,6,10,categorization,0,kitchen,SHINEd_sun_admlmbcdswaszruo.tif,79,0.0666666666666667,0.0666666666666667,1.53333333333333,1866.108425041,1867.407426125,13,1866.175206333,1866.242297958,1867.434397333,1868.961103083,0,1.29900108400011
133,7,10,categorization,0,bathroom,SHINEd_sun_anryaplzeujmzfkd.tif,39,0.0666666666666667,0.0666666666666667,0.833333333333333,1868.977241416,1869.678821083,13,1869.044235916,1869.11196125,1869.701731208,1870.528455583,1,0.701579667000033
133,8,10,categorization,0,bathroom,SHINEd_sun_abapwbhyhkfixyex.tif,14,0.0666666666666667,0.0666666666666667,1.88333333333333,1870.539035666,1871.136735375,13,1870.601921708,1870.661987458,1871.147390916,1873.0241345,1,0.597699708999926
133,9,10,categorization,0,kitchen,SHINEd_sun_acwjdupvyjsugpay.tif,76,0.0666666666666667,0.0666666666666667,0.833333333333333,1873.042781666,1873.903759916,9,1873.109186,1873.177067083,1873.933513,1874.760184916,1,0.860978249999789
133,10,10,categorization,0,bathroom,SHINEd_sun_ausgutylgojavyoq.tif,53,0.0666666666666667,0.0666666666666667,1.4,1874.765010875,1876.049139791,9,1874.826695291,1874.888195041,1876.056954291,1877.450328958,0,1.2841289160001
133,11,10,categorization,0,kitchen,SHINEd_sun_ahywdevtimnqcsln.tif,94,0.0666666666666667,0.0666666666666667,0.95,1877.466311,1878.492156041,13,1877.532798083,1877.599658041,1878.503766875,1879.447106166,0,1.02584504100014
133,12,10,categorization,0,kitchen,SHINEd_sun_afuyedyxivkhecmu.tif,85,0.0666666666666667,0.0666666666666667,1.16666666666667,1879.452118458,1880.897471875,9,1879.51382925,1879.575116708,1880.910554083,1882.070606208,1,1.44535341699998
133,13,10,categorization,0,bathroom,SHINEd_sun_azqyogdvyhahyram.tif,60,0.0666666666666667,0.0666666666666667,1.8,1882.079409708,1882.991896291,13,1882.145874875,1882.213363416,1883.019853958,1884.813246125,1,0.912486583000145
133,14,10,categorization,0,kitchen,SHINEd_sun_agzzivivdpnawacl.tif,89,0.0666666666666667,0.0666666666666667,1.53333333333333,1884.830916208,1886.305214958,9,1884.8973875,1884.964707958,1886.317067,1887.843782375,1,1.47429875000012
133,15,10,categorization,0,kitchen,SHINEd_sun_abdxkyyxwfskuaqb.tif,70,0.0666666666666667,0.0666666666666667,1.48333333333333,1887.860610041,1889.616499416,13,1887.9270685,1887.994517416,1889.630608291,1891.107310458,0,1.75588937499992
133,16,10,categorization,0,bathroom,SHINEd_sun_axyrejkiiaqiurjk.tif,59,0.0666666666666667,0.0666666666666667,0.783333333333333,1891.124423208,1892.704553833,9,1891.191358375,1891.257987083,1892.711033708,1893.487704375,0,1.58013062500004
133,17,10,categorization,0,kitchen,SHINEd_sun_aaxxjlsuzvqlgylf.tif,68,0.0666666666666667,0.0666666666666667,1.8,1893.492329083,1894.51241925,9,1893.554030083,1893.61527275,1894.517044708,1896.310401291,1,1.02009016700003
133,18,10,categorization,0,bathroom,SHINEd_sun_apkxzenqapsujocq.tif,45,0.0666666666666667,0.0666666666666667,1.76666666666667,1896.318803375,1897.350699375,13,1896.385870083,1896.451195416,1897.374423208,1899.134461833,1,1.03189599999996
133,19,10,categorization,0,kitchen,SHINEd_sun_ahspylgoovwmwvgk.tif,93,0.0666666666666667,0.0666666666666667,1.96666666666667,1899.152641,1900.098449875,13,1899.219021875,1899.286849333,1900.127144333,1902.08718525,0,0.945808875000012
133,20,10,categorization,0,kitchen,SHINEd_sun_aegoxogugdkwpmpj.tif,80,0.0666666666666667,0.0666666666666667,0.783333333333333,1902.108105958,1903.313481791,9,1902.17497525,1902.242120291,1903.327597791,1904.104269083,1,1.20537583300006
133,21,10,categorization,0,bathroom,SHINEd_sun_acduarbnmmoglmiv.tif,16,0.0666666666666667,0.0666666666666667,1.03333333333333,1904.108691416,1905.809217625,9,1904.170497541,1904.231687666,1905.817204833,1906.843908125,0,1.70052620899992
133,22,10,categorization,0,bathroom,SHINEd_sun_aunuadmjocsddsrl.tif,52,0.0666666666666667,0.0666666666666667,0.916666666666667,1906.852211041,1908.027913083,9,1906.916383583,1906.984752291,1908.057478875,1908.96748975,0,1.17570204200001
133,23,10,categorization,0,kitchen,SHINEd_sun_aenotlpyftoioydp.tif,82,0.0666666666666667,0.0666666666666667,1.66666666666667,1908.973319666,1910.008581416,9,1909.035066416,1909.096315625,1910.015172166,1911.675204916,1,1.03526175000002
133,24,10,categorization,0,kitchen,SHINEd_labelme_rykdqxenmhulbdn.tif,63,0.0666666666666667,0.0666666666666667,1.76666666666667,1911.690266916,1912.297790625,13,1911.757100416,1911.824395541,1912.31158725,1914.071625208,0,0.607523709000134
133,25,10,categorization,0,bathroom,SHINEd_sun_ahijqszoswveeyji.tif,28,0.0666666666666667,0.0666666666666667,1.15,1914.089670375,1914.466739666,13,1914.156744458,1914.223517833,1914.477613458,1915.620981125,1,0.377069290999998
133,26,10,categorization,0,bathroom,SHINEd_sun_apynckhmoftszqoq.tif,47,0.0666666666666667,0.0666666666666667,0.883333333333333,1915.631305791,1916.089509916,13,1915.69783175,1915.76513675,1916.103934125,1916.980657125,1,0.458204125000066
133,27,10,categorization,0,bathroom,SHINEd_sun_aoybiabnpadelefl.tif,41,0.0666666666666667,0.0666666666666667,0.733333333333333,1916.99622725,1917.497640208,13,1917.062666416,1917.130091666,1917.516105625,1918.242777208,1,0.501412957999946
133,28,10,categorization,0,kitchen,SHINEd_sun_aggjlwcdjsjcaemh.tif,86,0.0666666666666667,0.0666666666666667,1.71666666666667,1918.247252208,1919.000912333,13,1918.3088365,1918.370196791,1919.005579208,1920.715636041,0,0.753660125000124
133,29,10,categorization,0,kitchen,SHINEd_sun_acfmftudsenhrfhy.tif,74,0.0666666666666667,0.0666666666666667,1.86666666666667,1920.733194625,1921.545168458,13,1920.799493916,1920.866919208,1921.573079333,1923.43312275,0,0.811973833000138
133,30,10,categorization,0,kitchen,SHINEd_sun_adgqasybjyktddhj.tif,78,0.0666666666666667,0.0666666666666667,1.5,1923.447046041,1923.827152458,13,1923.513161916,1923.581304083,1923.853895666,1925.347274208,0,0.380106416999979
133,31,10,categorization,0,kitchen,SHINEd_sun_azmutvzbxypaceni.tif,110,0.0666666666666667,0.0666666666666667,1.61666666666667,1925.364116291,1926.190581708,9,1925.430526791,1925.495237375,1926.218658708,1927.828705166,1,0.826465417000009
133,32,10,categorization,0,kitchen,SHINEd_labelme_brsyyvweiuaazfr.tif,61,0.0666666666666667,0.0666666666666667,0.95,1927.84789675,1928.626926916,9,1927.914290583,1927.978785458,1928.650827541,1929.594164791,1,0.779030165999984
133,33,10,categorization,0,kitchen,SHINEd_sun_abftihopvusyfakt.tif,71,0.0666666666666667,0.0666666666666667,0.8,1929.599169541,1931.16112625,13,1929.660851416,1929.722215916,1931.174612583,1931.967950125,0,1.56195670900001
133,34,10,categorization,0,bathroom,SHINEd_sun_ajlawzvmubibwbpy.tif,30,0.0666666666666667,0.0666666666666667,0.783333333333333,1931.972697916,1932.816587333,9,1932.034646625,1932.095519541,1932.83078375,1933.60745525,0,0.8438894169999
133,35,10,categorization,0,bathroom,SHINEd_sun_ambriybtogmepttm.tif,36,0.0666666666666667,0.0666666666666667,1.36666666666667,1933.61197975,1934.497005375,9,1933.673685,1933.7349555,1934.503171708,1935.863216416,0,0.885025625000026
133,36,10,categorization,0,bathroom,SHINEd_sun_apjevzvycyhuqghb.tif,43,0.0666666666666667,0.0666666666666667,0.816666666666667,1935.879853208,1936.659385125,13,1935.94624925,1936.011200333,1936.683836416,1937.493876416,1,0.779531916999986
133,37,10,categorization,0,bathroom,SHINEd_sun_aggnnqpdorgxpvce.tif,21,0.0666666666666667,0.0666666666666667,1.81666666666667,1937.509351375,1938.568520083,9,1937.575659291,1937.636975916,1938.572055708,1940.382112666,0,1.05916870800002
133,38,10,categorization,0,bathroom,SHINEd_sun_agyqfjcfkdcydepw.tif,25,0.0666666666666667,0.0666666666666667,0.9,1940.396895041,1941.119835375,13,1940.461705708,1940.526671666,1941.149586416,1942.042925458,1,0.722940333999986
133,39,10,categorization,0,bathroom,SHINEd_sun_apkruvsevgegsdwp.tif,44,0.0666666666666667,0.0666666666666667,1.48333333333333,1942.047593375,1942.832443583,9,1942.109221916,1942.170493708,1942.839030666,1944.315735333,0,0.78485020800008
133,40,10,categorization,0,kitchen,SHINEd_sun_abpwyqmlzafvklqo.tif,72,0.0666666666666667,0.0666666666666667,1.28333333333333,1944.324720333,1945.470150208,9,1944.390603833,1944.457319458,1945.496975458,1946.773696,1,1.14542987499999
133,41,10,categorization,0,bathroom,SHINEd_sun_alotolagknyrgtsk.tif,35,0.0666666666666667,0.0666666666666667,0.983333333333333,1946.790033333,1947.660646375,13,1946.856746666,1946.923576291,1947.679513208,1948.656184416,1,0.870613041999832
133,42,10,categorization,0,kitchen,SHINEd_sun_aqeaevwwwjoqhzvl.tif,101,0.0666666666666667,0.0666666666666667,1.31666666666667,1948.661248041,1949.351940208,13,1948.723014583,1948.78470575,1949.369701291,1950.679742708,0,0.690692167000179
133,43,10,categorization,0,kitchen,SHINEd_sun_aarfiyshqohlwkmo.tif,67,0.0666666666666667,0.0666666666666667,0.716666666666667,1950.696750583,1951.387993875,9,1950.763750375,1950.830688416,1951.402842333,1952.11287975,1,0.691243291999854
133,44,10,categorization,0,bathroom,SHINEd_sun_aljolscmmzydegqp.tif,33,0.0666666666666667,0.0666666666666667,1.51666666666667,1952.128360958,1953.103999833,9,1952.194717041,1952.262272833,1953.114601291,1954.6246435,0,0.975638874999959
133,45,10,categorization,0,kitchen,SHINEd_sun_aadbddgrdsjugojn.tif,64,0.0666666666666667,0.0666666666666667,0.833333333333333,1954.641406625,1956.034629875,13,1954.707765291,1954.775148625,1956.067511333,1956.894181833,0,1.39322325000012
133,46,10,categorization,0,bathroom,SHINEd_sun_afcoljnjfoxjtgja.tif,20,0.0666666666666667,0.0666666666666667,1.28333333333333,1956.898959583,1957.840335958,9,1956.960680416,1957.021983625,1957.857491708,1959.134194458,0,0.941376374999891
133,47,10,categorization,0,bathroom,SHINEd_sun_abjtwfukuwddzted.tif,15,0.0666666666666667,0.0666666666666667,0.783333333333333,1959.15118,1960.475297791,13,1959.218648708,1959.285441625,1960.492216375,1961.268888125,1,1.32411779099994
133,48,10,categorization,0,bathroom,SHINEd_sun_auzqhkafidnkrwmo.tif,54,0.0666666666666667,0.0666666666666667,1.23333333333333,1961.273478833,1962.168282541,9,1961.335554833,1961.396601625,1962.181588,1963.4082895,0,0.894803708000154
133,49,10,categorization,0,kitchen,SHINEd_sun_ajkqhtgcbgpcwrwn.tif,97,0.0666666666666667,0.0666666666666667,1.46666666666667,1963.423030333,1963.849532458,13,1963.490289291,1963.55718075,1963.880606916,1965.340645833,0,0.42650212500007
133,50,10,categorization,0,kitchen,SHINEd_sun_awcpdzzznmweyyhv.tif,106,0.0666666666666667,0.0666666666666667,1.56666666666667,1965.350934958,1965.735040958,13,1965.415982708,1965.484465833,1965.756941416,1967.31698325,0,0.384105999999974
