sub_num,trial,block,task,is_practice,category,image,texture,duration,mask_dur,jitter,stim_time,time_of_resp,trial_response,mask_time,fix_time,jit_onset,trial_end,trial_accuracy,RT
133,1,9,categorization,0,kitchen,SHINEd_labelme_kxvouciolcpqplr.tif,62,0.0666666666666667,0.0666666666666667,1.08333333333333,1736.695926083,1738.905016541,13,1736.758442875,1736.818969083,1738.92128775,1739.998000333,0,2.20909045799999
133,2,9,categorization,0,kitchen,SHINEd_sun_aamedkxepzlwuxes.tif,65,0.0666666666666667,0.0666666666666667,0.8,1740.006667583,1742.073978875,13,1740.071446583,1740.140549666,1742.093381875,1742.886719666,0,2.06731129199989
133,3,9,categorization,0,kitchen,SHINEd_sun_axyyrmzcupyhlivc.tif,107,0.0666666666666667,0.0666666666666667,0.833333333333333,1742.891560125,1743.936824208,9,1742.9534305,1743.014569333,1743.950203041,1744.776873083,1,1.04526408299989
133,4,9,categorization,0,bathroom,SHINEd_sun_axxbkopsgyouuebh.tif,58,0.0666666666666667,0.0666666666666667,1.45,1744.781407,1746.2332965,9,1744.843289791,1744.904450541,1746.240120625,1747.683503166,0,1.45188950000011
133,5,9,categorization,0,bathroom,SHINEd_sun_asfwthctfqerjvxr.tif,49,0.0666666666666667,0.0666666666666667,1.3,1747.7007425,1748.564135541,9,1747.767093833,1747.834679791,1748.591233083,1749.884622083,0,0.863393041000108
133,6,9,categorization,0,bathroom,SHINEd_sun_aspsyogrekjtfozg.tif,50,0.0666666666666667,0.0666666666666667,1.21666666666667,1749.90178875,1751.298861875,13,1749.968621916,1750.035802416,1751.328614375,1752.538650875,1,1.39707312500013
133,7,9,categorization,0,kitchen,SHINEd_sun_auticobqsbwgoppi.tif,104,0.0666666666666667,0.0666666666666667,0.733333333333333,1752.548574666,1753.629024666,9,1752.615230666,1752.682315666,1753.655939375,1754.382657791,1,1.08045000000016
133,8,9,categorization,0,bathroom,SHINEd_sun_aavhrsfjbserjtht.tif,13,0.0666666666666667,0.0666666666666667,1.03333333333333,1754.397351,1755.777710708,13,1754.460204958,1754.5207495,1755.789770333,1756.81647,1,1.38035970800001
133,9,9,categorization,0,bathroom,SHINEd_sun_akiytfaagpdsphgz.tif,31,0.0666666666666667,0.0666666666666667,1.1,1756.826016,1757.720667958,13,1756.890696833,1756.958513541,1757.748350208,1758.841737541,1,0.89465195799994
133,10,9,categorization,0,kitchen,SHINEd_sun_aypmqwcualkenuoe.tif,109,0.0666666666666667,0.0666666666666667,1.25,1758.855747291,1759.825066541,13,1758.917758083,1758.978710875,1759.830850541,1761.074224291,0,0.969319250000126
133,11,9,categorization,0,bathroom,SHINEd_sun_ahqjwnzgolcaoidx.tif,29,0.0666666666666667,0.0666666666666667,1.4,1761.091990458,1762.325289083,13,1761.158641333,1761.226141541,1762.35104,1763.744408,1,1.23329862499986
133,12,9,categorization,0,bathroom,SHINEd_sun_amzlamotzwfkwjco.tif,37,0.0666666666666667,0.0666666666666667,1.43333333333333,1763.761031791,1764.697823166,13,1763.827757083,1763.894975208,1764.717881375,1766.14459025,1,0.936791374999984
133,13,9,categorization,0,kitchen,SHINEd_sun_aexklacwqwezaorf.tif,84,0.0666666666666667,0.0666666666666667,1.26666666666667,1766.161306166,1767.0792865,13,1766.228192375,1766.295360375,1767.102026041,1768.362076166,0,0.917980334000049
133,14,9,categorization,0,kitchen,SHINEd_sun_acxkpeoqbwcxfvip.tif,77,0.0666666666666667,0.0666666666666667,0.916666666666667,1768.374955666,1769.582457375,9,1768.440290416,1768.5035265,1769.6103015,1770.520306875,1,1.2075017090001
133,15,9,categorization,0,bathroom,SHINEd_sun_axldvoqbuvuggfmq.tif,57,0.0666666666666667,0.0666666666666667,1.05,1770.5249895,1771.096864,9,1770.586889541,1770.647850791,1771.116459791,1772.159843333,0,0.571874500000149
133,16,9,categorization,0,kitchen,SHINEd_sun_amjjdeyrggfqgmom.tif,100,0.0666666666666667,0.0666666666666667,1.53333333333333,1772.167928666,1772.907896666,9,1772.232266041,1772.300366916,1772.922619458,1774.449342291,1,0.739967999999863
133,17,9,categorization,0,bathroom,SHINEd_sun_ahcvzmoyaycdoftf.tif,27,0.0666666666666667,0.0666666666666667,1.11666666666667,1774.459632375,1775.127705875,9,1774.524431333,1774.593205833,1775.149586958,1776.259626833,0,0.668073499999991
133,18,9,categorization,0,bathroom,SHINEd_sun_avhrdrntsqrjzccq.tif,55,0.0666666666666667,0.0666666666666667,1.05,1776.272091708,1776.801410125,13,1776.338282666,1776.39628075,1776.814848791,1777.858224,1,0.529318417000013
133,19,9,categorization,0,kitchen,SHINEd_sun_aunzlwrbjumxhwdj.tif,103,0.0666666666666667,0.0666666666666667,1.66666666666667,1777.868092541,1778.309641416,13,1777.93280725,1778.000179666,1778.320492625,1779.980544125,0,0.44154887500008
133,20,9,categorization,0,kitchen,SHINEd_sun_aymvwlarqodbwuoc.tif,108,0.0666666666666667,0.0666666666666667,1.98333333333333,1779.996469958,1780.368775208,13,1780.062970791,1780.130294416,1780.385975416,1782.362688708,0,0.372305249999954
133,21,9,categorization,0,bathroom,SHINEd_sun_anhioqovhscjqqwb.tif,38,0.0666666666666667,0.0666666666666667,1.06666666666667,1782.379781916,1782.779491125,13,1782.444615375,1782.511552416,1782.800995791,1783.861033958,1,0.399709209000093
133,22,9,categorization,0,bathroom,SHINEd_sun_apeeialkgkuxddgh.tif,42,0.0666666666666667,0.0666666666666667,1.31666666666667,1783.875655541,1784.313803833,13,1783.942005666,1784.009470916,1784.328197708,1785.638240541,1,0.438148292000051
133,23,9,categorization,0,kitchen,SHINEd_sun_ajcbwwvdlsvjyzje.tif,96,0.0666666666666667,0.0666666666666667,1.78333333333333,1785.656578541,1787.090525958,13,1785.723164375,1785.790287291,1787.116343166,1788.893041708,0,1.4339474169999
133,24,9,categorization,0,kitchen,SHINEd_sun_abrcnpqqhmjwekyf.tif,73,0.0666666666666667,0.0666666666666667,0.816666666666667,1788.909520083,1789.6365755,13,1788.9766435,1789.043514875,1789.667007916,1790.477013208,0,0.727055416999974
133,25,9,categorization,0,kitchen,SHINEd_sun_aixorpehvfykdynp.tif,95,0.0666666666666667,0.0666666666666667,0.933333333333333,1790.481811458,1790.929196375,13,1790.543588958,1790.604966833,1790.940201458,1791.866872375,0,0.447384916999908
133,26,9,categorization,0,bathroom,SHINEd_sun_agrwbmhcpmfuwmsg.tif,24,0.0666666666666667,0.0666666666666667,1.33333333333333,1791.871641333,1792.288760958,13,1791.933395791,1791.994532708,1792.296461791,1793.6231785,1,0.417119624999941
133,27,9,categorization,0,kitchen,SHINEd_sun_ahljzhgcdpomplvg.tif,91,0.0666666666666667,0.0666666666666667,0.833333333333333,1793.640010375,1794.052142083,13,1793.7067675,1793.774194,1794.0808,1794.907514333,0,0.412131708000061
133,28,9,categorization,0,bathroom,SHINEd_sun_apmqjbnwghzuhhzh.tif,46,0.0666666666666667,0.0666666666666667,0.933333333333333,1794.9229095,1795.335516875,13,1794.9896695,1795.05699625,1795.362732041,1796.289402958,1,0.41260737499988
133,29,9,categorization,0,bathroom,SHINEd_sun_alkosphxlxwjwgjd.tif,34,0.0666666666666667,0.0666666666666667,1.85,1796.294170541,1796.697167875,13,1796.355866375,1796.417188041,1796.702404708,1798.545774875,1,0.40299733400002
133,30,9,categorization,0,bathroom,SHINEd_sun_awnqiikzaispgmwo.tif,56,0.0666666666666667,0.0666666666666667,0.966666666666667,1798.555974,1799.158097125,13,1798.622682541,1798.690059375,1799.180052291,1800.140057916,1,0.602123124999935
133,31,9,categorization,0,bathroom,SHINEd_sun_aleqenyvunhactkl.tif,32,0.0666666666666667,0.0666666666666667,0.766666666666667,1800.145061291,1800.617437416,9,1800.206729333,1800.267972,1800.636431541,1801.396435916,0,0.472376124999982
133,32,9,categorization,0,kitchen,SHINEd_sun_aeqdocilnnpuvuhx.tif,83,0.0666666666666667,0.0666666666666667,1.15,1801.401285791,1802.513183916,9,1801.462969791,1801.524138416,1802.525943625,1803.669326583,1,1.11189812499993
133,33,9,categorization,0,bathroom,SHINEd_sun_aclfzgynxzxlbepz.tif,19,0.0666666666666667,0.0666666666666667,0.75,1803.679494708,1804.915438041,9,1803.746515541,1803.813373666,1804.937257791,1805.680596958,0,1.23594333300002
133,34,9,categorization,0,bathroom,SHINEd_sun_ahaulkltgpkeeemi.tif,26,0.0666666666666667,0.0666666666666667,0.9,1805.685206583,1807.152865541,9,1805.747010416,1805.808066375,1807.159975291,1808.053313291,0,1.4676589579999
133,35,9,categorization,0,bathroom,SHINEd_labelme_sfxiulhjbhlyiyt.tif,11,0.0666666666666667,0.0666666666666667,1.88333333333333,1808.057872,1809.265232958,9,1808.119607625,1808.180740833,1809.283402041,1811.16011825,0,1.20736095799998
133,36,9,categorization,0,kitchen,SHINEd_sun_aapllqyqlykszopd.tif,66,0.0666666666666667,0.0666666666666667,1.65,1811.1766285,1812.744969375,9,1811.243154666,1811.311330791,1812.763584166,1814.406962291,1,1.56834087499988
133,37,9,categorization,0,bathroom,SHINEd_sun_aqrpegblszgcoujh.tif,48,0.0666666666666667,0.0666666666666667,0.816666666666667,1814.423141416,1815.724401291,13,1814.488148583,1814.555671958,1815.746676458,1816.556680833,1,1.30125987500014
133,38,9,categorization,0,bathroom,SHINEd_sun_acgyywnybuveqsro.tif,18,0.0666666666666667,0.0666666666666667,0.9,1816.561374,1817.657569208,13,1816.623250958,1816.684322416,1817.670491625,1818.563830833,1,1.09619520800015
133,39,9,categorization,0,kitchen,SHINEd_sun_aehawpgmrlhlvcow.tif,81,0.0666666666666667,0.0666666666666667,0.733333333333333,1818.568157375,1819.536738083,9,1818.629772958,1818.691329875,1819.543107916,1820.269778958,1,0.96858070799999
133,40,9,categorization,0,bathroom,SHINEd_sun_aapitsgbtktqubfy.tif,12,0.0666666666666667,0.0666666666666667,0.85,1820.274431666,1821.86450275,13,1820.336207291,1820.397383041,1821.883419291,1822.726756916,1,1.59007108399987
133,41,9,categorization,0,kitchen,SHINEd_sun_akcjzhbbjlbogpdi.tif,99,0.0666666666666667,0.0666666666666667,1.58333333333333,1822.731367458,1823.608780125,9,1822.793096916,1822.854274125,1823.622914708,1825.199614416,1,0.877412667000044
133,42,9,categorization,0,kitchen,SHINEd_sun_ahdycvpopffkzzsu.tif,90,0.0666666666666667,0.0666666666666667,1.8,1825.216611958,1826.196279875,9,1825.283075875,1825.350225541,1826.2233955,1828.016772625,1,0.979667917000143
133,43,9,categorization,0,kitchen,SHINEd_sun_acgtpgfybqjmzeyw.tif,75,0.0666666666666667,0.0666666666666667,1.3,1828.032885458,1829.433130541,13,1828.099501458,1828.166532375,1829.452217708,1830.745593375,0,1.40024508300007
133,44,9,categorization,0,kitchen,SHINEd_sun_akchetnepxlcxhsu.tif,98,0.0666666666666667,0.0666666666666667,0.766666666666667,1830.762282416,1831.750401125,13,1830.829042125,1830.896408958,1831.769596791,1832.529604375,0,0.988118708999991
133,45,9,categorization,0,kitchen,SHINEd_sun_agubuxuukhzyzpdp.tif,88,0.0666666666666667,0.0666666666666667,1.15,1832.535471208,1833.593260416,13,1832.597157083,1832.658489333,1833.610550541,1834.753942375,0,1.05778920800003
133,46,9,categorization,0,bathroom,SHINEd_sun_atstyziqcmkahyxk.tif,51,0.0666666666666667,0.0666666666666667,1.36666666666667,1834.763207291,1835.935784041,9,1834.831040458,1834.897184708,1835.953417291,1837.313462458,0,1.17257674999996
133,47,9,categorization,0,bathroom,SHINEd_sun_aofnryafpsjimzsb.tif,40,0.0666666666666667,0.0666666666666667,0.783333333333333,1837.331066416,1839.336660416,13,1837.398195833,1837.465290458,1839.35112925,1840.127801041,1,2.00559399999997
133,48,9,categorization,0,bathroom,SHINEd_sun_aghyqhbptboemmoq.tif,23,0.0666666666666667,0.0666666666666667,1.25,1840.132906375,1840.825380208,13,1840.194626791,1840.255828291,1840.841238375,1842.08460775,1,0.692473833000122
133,49,9,categorization,0,kitchen,SHINEd_sun_avszsnwsbuqfgzbn.tif,105,0.0666666666666667,0.0666666666666667,1.5,1842.101605541,1842.678392166,13,1842.168053,1842.235583583,1842.708424916,1844.201806541,0,0.576786625000068
133,50,9,categorization,0,kitchen,SHINEd_sun_agorklincwxrdtga.tif,87,0.0666666666666667,0.0666666666666667,1.03333333333333,1844.217883875,1845.079707041,13,1844.284306291,1844.352210833,1845.108386375,1846.13508775,0,0.861823165999795
