sub_num,trial,block,task,is_practice,category,image,texture,duration,mask_dur,jitter,stim_time,time_of_resp,trial_response,mask_time,fix_time,jit_onset,trial_end,trial_accuracy,RT
129,1,0,familiarity,1,bathroom,bathroom_practice1.tif,221,1.5,0,0.916666666666667,5278.816427375,5282.647183583,6,NaN,5282.653083458,5282.67152375,5283.58152825,NaN,NaN
129,2,0,familiarity,1,bathroom,bathroom_practice2.tif,222,1.5,0,0.85,5283.586393417,5286.346553375,1,NaN,5286.371830792,5286.3954845,5287.238821458,NaN,NaN
129,3,0,familiarity,1,bathroom,bathroom_practice3.tif,223,1.5,0,0.883333333333333,5287.243662625,5293.358353,4,NaN,5293.36439875,5293.382847167,5294.2595175,NaN,NaN
129,4,0,familiarity,1,bathroom,bathroom_practice5.tif,225,1.5,0,1.43333333333333,5294.264101708,5297.398917875,4,NaN,5297.405367667,5297.423658333,5298.850369833,NaN,NaN
129,5,0,familiarity,1,bathroom,bathroom_practice4.tif,224,1.5,0,1.53333333333333,5298.86880725,5301.5905145,6,NaN,5301.5961515,5301.614489,5303.141190417,NaN,NaN
129,1,1,familiarity,0,bathroom,sun_ahcvzmoyaycdoftf.tif,137,1.5,0,1.26666666666667,5308.327879208,5311.030746875,4,NaN,5311.053826833,5311.077501667,5312.337555458,NaN,NaN
129,2,1,familiarity,0,bathroom,sun_aggnnqpdorgxpvce.tif,131,1.5,0,1.76666666666667,5312.355681292,5315.055145417,2,NaN,5315.060478958,5315.078823917,5316.838862792,NaN,NaN
129,3,1,familiarity,0,bathroom,sun_aclfzgynxzxlbepz.tif,129,1.5,0,1.46666666666667,5316.858180833,5320.431161708,5,NaN,5320.43673225,5320.455240208,5321.915296542,NaN,NaN
129,4,1,familiarity,0,bathroom,sun_apmqjbnwghzuhhzh.tif,156,1.5,0,1.28333333333333,5321.936126417,5325.231163,3,NaN,5325.236406,5325.254798333,5326.531507625,NaN,NaN
129,5,1,familiarity,0,bathroom,sun_acegryoqftbzowsg.tif,127,1.5,0,0.966666666666667,5326.546374667,5330.015008125,3,NaN,5330.020371417,5330.038543,5330.998548167,NaN,NaN
129,6,1,familiarity,0,bathroom,sun_alkosphxlxwjwgjd.tif,144,1.5,0,0.783333333333333,5331.003049,5334.2629855,2,NaN,5334.26828375,5334.2865475,5335.0632185,NaN,NaN
129,7,1,familiarity,0,bathroom,sun_acgyywnybuveqsro.tif,128,1.5,0,1.21666666666667,5335.067880917,5338.542693542,3,NaN,5338.548227833,5338.566625625,5339.776668917,NaN,NaN
129,8,1,familiarity,0,bathroom,sun_anhioqovhscjqqwb.tif,148,1.5,0,1.4,5339.787546333,5347.87017525,3,NaN,5347.876118708,5347.8947975,5349.288184667,NaN,NaN
129,9,1,familiarity,0,bathroom,sun_aspsyogrekjtfozg.tif,160,1.5,0,1.3,5349.306236833,5352.342300292,4,NaN,5352.348811042,5352.367175542,5353.660539625,NaN,NaN
129,10,1,familiarity,0,bathroom,sun_ahqjwnzgolcaoidx.tif,139,1.5,0,0.95,5353.671349167,5356.494752417,6,NaN,5356.500210417,5356.518581583,5357.461919708,NaN,NaN
129,11,1,familiarity,0,bathroom,sun_ausgutylgojavyoq.tif,163,1.5,0,1.96666666666667,5357.466479,5362.455090292,6,NaN,5362.460299958,5362.478629625,5364.43867375,NaN,NaN
129,12,1,familiarity,0,bathroom,sun_axyrejkiiaqiurjk.tif,169,1.5,0,1.13333333333333,5364.455812208,5367.423685,1,NaN,5367.446350917,5367.469335333,5368.596047667,NaN,NaN
129,13,1,familiarity,0,bathroom,sun_agrwbmhcpmfuwmsg.tif,134,1.5,0,0.933333333333333,5368.605648333,5372.462593542,5,NaN,5372.467940792,5372.486291958,5373.412962792,NaN,NaN
129,14,1,familiarity,0,bathroom,sun_axxbkopsgyouuebh.tif,168,1.5,0,1.6,5373.417198875,5376.173800458,5,NaN,5376.20071075,5376.224107375,5377.817480833,NaN,NaN
129,15,1,familiarity,0,bathroom,sun_akiytfaagpdsphgz.tif,141,1.5,0,1.38333333333333,5377.835405792,5380.69488325,3,NaN,5380.72267275,5380.746485375,5382.123190958,NaN,NaN
129,16,1,familiarity,0,bathroom,sun_aavhrsfjbserjtht.tif,123,1.5,0,1.58333333333333,5382.14143975,5385.014984167,3,NaN,5385.0203965,5385.038802458,5386.615520083,NaN,NaN
129,17,1,familiarity,0,bathroom,sun_auzqhkafidnkrwmo.tif,164,1.5,0,0.966666666666667,5386.633507792,5389.070542667,2,NaN,5389.096434708,5389.119398583,5390.079448042,NaN,NaN
129,18,1,familiarity,0,bathroom,sun_amzlamotzwfkwjco.tif,147,1.5,0,0.983333333333333,5390.094417208,5394.118729792,2,NaN,5394.124390083,5394.142628167,5395.119300333,NaN,NaN
129,19,1,familiarity,0,bathroom,sun_asfwthctfqerjvxr.tif,159,1.5,0,0.8,5395.123407375,5398.63896925,3,NaN,5398.644165,5398.662585958,5399.455925375,NaN,NaN
129,20,1,familiarity,0,bathroom,sun_apkxzenqapsujocq.tif,155,1.5,0,0.7,5399.460256458,5402.178127458,5,NaN,5402.205790875,5402.228665417,5402.922004583,NaN,NaN
129,21,1,familiarity,0,bathroom,sun_anryaplzeujmzfkd.tif,149,1.5,0,0.716666666666667,5402.926623042,5406.357988542,3,NaN,5406.363789417,5406.38212025,5407.092125208,NaN,NaN
129,22,1,familiarity,0,bathroom,sun_atstyziqcmkahyxk.tif,161,1.5,0,1.76666666666667,5407.09633175,5409.891517667,6,NaN,5409.919017125,5409.942407125,5411.7024555,NaN,NaN
129,23,1,familiarity,0,bathroom,sun_ajlawzvmubibwbpy.tif,140,1.5,0,1.7,5411.716344167,5414.871593583,3,NaN,5414.900010375,5414.923343042,5416.6167255,NaN,NaN
129,24,1,familiarity,0,bathroom,sun_aljolscmmzydegqp.tif,143,1.5,0,1.38333333333333,5416.630046583,5420.018236833,5,NaN,5420.046248583,5420.069444417,5421.446133667,NaN,NaN
129,25,1,familiarity,0,bathroom,sun_afcoljnjfoxjtgja.tif,130,1.5,0,0.766666666666667,5421.467325833,5424.278390458,1,NaN,5424.283849792,5424.302304667,5425.062309042,NaN,NaN
129,1,2,familiarity,0,bathroom,sun_azqyogdvyhahyram.tif,170,1.5,0,0.85,5429.338776917,5433.062476542,7,NaN,5433.067921,5433.086242458,5433.9295795,NaN,NaN
129,2,2,familiarity,0,bathroom,sun_agguqiubmwhqqunb.tif,132,1.5,0,1.53333333333333,5433.933886542,5436.334204042,3,NaN,5436.36027725,5436.383414917,5437.910136958,NaN,NaN
129,3,2,familiarity,0,bathroom,sun_avhrdrntsqrjzccq.tif,165,1.5,0,0.7,5437.925877417,5441.134851167,1,NaN,5441.14010125,5441.158347208,5441.851685375,NaN,NaN
129,4,2,familiarity,0,bathroom,sun_aunuadmjocsddsrl.tif,162,1.5,0,1.36666666666667,5441.856414875,5445.238607292,6,NaN,5445.243766208,5445.262063667,5446.622124458,NaN,NaN
129,5,2,familiarity,0,bathroom,sun_abapwbhyhkfixyex.tif,124,1.5,0,0.716666666666667,5446.63546475,5449.694070208,5,NaN,5449.699715417,5449.717902958,5450.42790625,NaN,NaN
129,6,2,familiarity,0,bathroom,sun_alotolagknyrgtsk.tif,145,1.5,0,1.38333333333333,5450.432214167,5453.509710625,2,NaN,5453.520527167,5453.539641083,5454.9163465,NaN,NaN
129,7,2,familiarity,0,bathroom,labelme_sfxiulhjbhlyiyt.tif,121,1.5,0,0.916666666666667,5454.933449125,5457.86982,6,NaN,5457.875972292,5457.894328417,5458.804333167,NaN,NaN
129,8,2,familiarity,0,bathroom,sun_aqrpegblszgcoujh.tif,158,1.5,0,1.58333333333333,5458.809020417,5461.771212917,5,NaN,5461.791603042,5461.813025708,5463.389732917,NaN,NaN
129,9,2,familiarity,0,bathroom,sun_ahijqszoswveeyji.tif,138,1.5,0,1.25,5463.407057667,5466.566774458,3,NaN,5466.573625,5466.591847,5467.835224,NaN,NaN
129,10,2,familiarity,0,bathroom,sun_axldvoqbuvuggfmq.tif,167,1.5,0,0.95,5467.851334292,5471.438155208,5,NaN,5471.44388125,5471.462209833,5472.405548208,NaN,NaN
129,11,2,familiarity,0,bathroom,sun_ahaulkltgpkeeemi.tif,136,1.5,0,1.4,5472.410248542,5475.385628625,6,NaN,5475.41343825,5475.4364985,5476.829867,NaN,NaN
129,12,2,familiarity,0,bathroom,sun_aghyqhbptboemmoq.tif,133,1.5,0,0.766666666666667,5476.849045917,5480.149963958,6,NaN,5480.155562917,5480.173780833,5480.933786083,NaN,NaN
129,13,2,familiarity,0,bathroom,sun_apynckhmoftszqoq.tif,157,1.5,0,0.733333333333333,5480.938095125,5483.93779525,7,NaN,5483.965621125,5483.988682625,5484.715352417,NaN,NaN
129,14,2,familiarity,0,bathroom,sun_apeeialkgkuxddgh.tif,152,1.5,0,1.06666666666667,5484.720044167,5487.566942833,6,NaN,5487.595492208,5487.618696417,5488.678745083,NaN,NaN
129,15,2,familiarity,0,bathroom,sun_agyqfjcfkdcydepw.tif,135,1.5,0,1.33333333333333,5488.686772083,5491.62274125,1,NaN,5491.627982083,5491.6462785,5492.972985417,NaN,NaN
129,16,2,familiarity,0,bathroom,sun_aleqenyvunhactkl.tif,142,1.5,0,1.41666666666667,5492.991084875,5496.253881083,5,NaN,5496.259470083,5496.2778125,5497.687866708,NaN,NaN
129,17,2,familiarity,0,bathroom,sun_aapitsgbtktqubfy.tif,122,1.5,0,1.95,5497.697606667,5500.254572375,4,NaN,5500.259813125,5500.278113292,5502.221490667,NaN,NaN
129,18,2,familiarity,0,bathroom,sun_ambriybtogmepttm.tif,146,1.5,0,0.866666666666667,5502.236272667,5504.982065625,1,NaN,5505.010492125,5505.033834792,5505.893842042,NaN,NaN
129,19,2,familiarity,0,bathroom,sun_apkruvsevgegsdwp.tif,154,1.5,0,0.983333333333333,5505.898523042,5508.769756625,5,NaN,5508.797197042,5508.820234417,5509.796904042,NaN,NaN
129,20,2,familiarity,0,bathroom,sun_awnqiikzaispgmwo.tif,166,1.5,0,0.983333333333333,5509.801592125,5513.366445417,5,NaN,5513.371720833,5513.390119917,5514.366790792,NaN,NaN
129,21,2,familiarity,0,bathroom,sun_abjtwfukuwddzted.tif,125,1.5,0,0.766666666666667,5514.37117375,5517.023371292,4,NaN,5517.044901917,5517.067638458,5517.827643667,NaN,NaN
129,22,2,familiarity,0,bathroom,sun_acduarbnmmoglmiv.tif,126,1.5,0,0.833333333333333,5517.832382042,5524.30994075,4,NaN,5524.315515625,5524.333814,5525.160485333,NaN,NaN
129,23,2,familiarity,0,bathroom,sun_apjevzvycyhuqghb.tif,153,1.5,0,0.833333333333333,5525.16468475,5528.24571375,2,NaN,5528.27571575,5528.29560225,5529.122273875,NaN,NaN
129,24,2,familiarity,0,bathroom,sun_aofnryafpsjimzsb.tif,150,1.5,0,0.716666666666667,5529.126978083,5532.015882125,2,NaN,5532.043622208,5532.0668025,5532.776806,NaN,NaN
129,25,2,familiarity,0,bathroom,sun_aoybiabnpadelefl.tif,151,1.5,0,1.71666666666667,5532.781496208,5535.70577425,1,NaN,5535.722010542,5535.743242208,5537.453270542,NaN,NaN
