sub_num,trial,block,task,is_practice,category,image,texture,duration,mask_dur,jitter,stim_time,time_of_resp,trial_response,mask_time,fix_time,jit_onset,trial_end,trial_accuracy,RT
107,1,16,categorization,0,bathroom,SHINEd_sun_agrwbmhcpmfuwmsg.tif,24,0.05,0.0666666666666667,1.56666666666667,10710.046194333,10711.905852416,13,10710.092087625,10710.152619833,10711.921681208,10713.481727541,1,1.85965808299989
107,2,16,categorization,0,bathroom,SHINEd_sun_aljolscmmzydegqp.tif,33,0.05,0.0666666666666667,1.38333333333333,10713.499782,10714.862556875,13,10713.549939166,10713.615612583,10714.88900575,10716.265712708,1,1.36277487499865
107,3,16,categorization,0,kitchen,SHINEd_sun_ahpczsiumwwocjkv.tif,92,0.05,0.0666666666666667,1.95,10716.282290375,10717.220887833,9,10716.332430125,10716.398313875,10717.237602916,10719.180975625,1,0.938597458000004
107,4,16,categorization,0,bathroom,SHINEd_sun_akiytfaagpdsphgz.tif,31,0.05,0.0666666666666667,0.833333333333333,10719.19885575,10721.505056083,9,10719.24943575,10719.315593083,10721.517948833,10722.344620791,0,2.30620033299965
107,5,16,categorization,0,bathroom,SHINEd_sun_anhioqovhscjqqwb.tif,38,0.05,0.0666666666666667,1.06666666666667,10722.349608458,10723.601473708,13,10722.395013333,10722.455711666,10723.608004583,10724.668043333,1,1.25186525000026
107,6,16,categorization,0,bathroom,SHINEd_labelme_sfxiulhjbhlyiyt.tif,11,0.05,0.0666666666666667,1.15,10724.681140625,10725.621064875,9,10724.729218208,10724.79451025,10725.650953083,10726.794341541,0,0.939924250000331
107,7,16,categorization,0,bathroom,SHINEd_sun_abapwbhyhkfixyex.tif,14,0.05,0.0666666666666667,0.866666666666667,10726.811060333,10727.618723166,9,10726.861082833,10726.926273791,10727.631703791,10728.491736958,0,0.807662832999995
107,8,16,categorization,0,bathroom,SHINEd_sun_afcoljnjfoxjtgja.tif,20,0.05,0.0666666666666667,1.03333333333333,10728.510149458,10729.345141,9,10728.560046416,10728.626247041,10729.361549541,10730.388270333,0,0.834991542000353
107,9,16,categorization,0,bathroom,SHINEd_sun_aoybiabnpadelefl.tif,41,0.05,0.0666666666666667,1.85,10730.400556333,10731.291538875,9,10730.448629166,10730.515250125,10731.321459,10733.164849291,0,0.890982542001439
107,10,16,categorization,0,kitchen,SHINEd_sun_aegoxogugdkwpmpj.tif,80,0.05,0.0666666666666667,1.25,10733.181733083,10734.226658291,13,10733.231739833,10733.29814625,10734.235485083,10735.478851833,0,1.04492520799977
107,11,16,categorization,0,kitchen,SHINEd_sun_ahywdevtimnqcsln.tif,94,0.05,0.0666666666666667,1.55,10735.496562208,10736.687491875,9,10735.546583333,10735.61273075,10736.701801875,10738.245177375,1,1.19092966700009
107,12,16,categorization,0,kitchen,SHINEd_sun_aarfiyshqohlwkmo.tif,67,0.05,0.0666666666666667,0.933333333333333,10738.263000916,10739.275745833,9,10738.312842833,10738.379125833,10739.302563125,10740.229234666,1,1.01274491699951
107,13,16,categorization,0,kitchen,SHINEd_sun_ahdycvpopffkzzsu.tif,90,0.05,0.0666666666666667,1.3,10740.235099083,10741.642034625,13,10740.28038725,10740.341126916,10741.660186416,10742.953576083,0,1.4069355419997
107,14,16,categorization,0,kitchen,SHINEd_labelme_rykdqxenmhulbdn.tif,63,0.05,0.0666666666666667,0.883333333333333,10742.970618125,10744.452956666,13,10743.021877875,10743.086588375,10744.478328666,10745.355000708,0,1.48233854099999
107,15,16,categorization,0,kitchen,SHINEd_labelme_brsyyvweiuaazfr.tif,61,0.05,0.0666666666666667,0.866666666666667,10745.360834791,10746.266077166,9,10745.405852375,10745.466916791,10746.285412958,10747.145417416,1,0.905242374999943
107,16,16,categorization,0,bathroom,SHINEd_sun_avhrdrntsqrjzccq.tif,55,0.05,0.0666666666666667,1.91666666666667,10747.150665875,10748.033883291,9,10747.195721666,10747.256738833,10748.041993916,10749.952037666,0,0.883217415999752
107,17,16,categorization,0,bathroom,SHINEd_sun_awnqiikzaispgmwo.tif,56,0.05,0.0666666666666667,0.95,10749.966992666,10750.968850833,13,10750.016945541,10750.083232583,10750.989630458,10751.932968791,1,1.00185816699923
107,18,16,categorization,0,bathroom,SHINEd_sun_ahijqszoswveeyji.tif,28,0.05,0.0666666666666667,0.883333333333333,10751.938981125,10752.825577083,13,10751.984026875,10752.044912333,10752.8301305,10753.706802583,1,0.886595957999816
107,19,16,categorization,0,bathroom,SHINEd_sun_aofnryafpsjimzsb.tif,40,0.05,0.0666666666666667,0.933333333333333,10753.712339,10754.673509708,13,10753.757539208,10753.8184395,10754.687074958,10755.613746958,1,0.961170708000282
107,20,16,categorization,0,kitchen,SHINEd_sun_aypmqwcualkenuoe.tif,109,0.05,0.0666666666666667,0.716666666666667,10755.619393458,10756.649133,9,10755.664511625,10755.725469083,10756.661090166,10757.371094,1,1.02973954200024
107,21,16,categorization,0,kitchen,SHINEd_sun_ajkqhtgcbgpcwrwn.tif,97,0.05,0.0666666666666667,1.23333333333333,10757.37675875,10758.209594875,9,10757.421690833,10757.482805791,10758.218624458,10759.445336041,1,0.832836124998721
107,22,16,categorization,0,bathroom,SHINEd_sun_apkruvsevgegsdwp.tif,44,0.05,0.0666666666666667,0.833333333333333,10759.461788833,10760.537771708,9,10759.511587875,10759.577953958,10760.567876375,10761.3945505,0,1.07598287499968
107,23,16,categorization,0,kitchen,SHINEd_sun_akcjzhbbjlbogpdi.tif,99,0.05,0.0666666666666667,1.05,10761.400152666,10762.313993666,9,10761.445181583,10761.5061835,10762.325031333,10763.368399041,1,0.913841000001412
107,24,16,categorization,0,kitchen,SHINEd_sun_abpwyqmlzafvklqo.tif,72,0.05,0.0666666666666667,1.46666666666667,10763.378385291,10764.524354875,9,10763.4262385,10763.492987958,10764.550908458,10766.010963375,1,1.14596958400034
107,25,16,categorization,0,bathroom,SHINEd_sun_aqrpegblszgcoujh.tif,48,0.05,0.0666666666666667,1.68333333333333,10766.028224416,10767.0611515,13,10766.078096916,10766.144166,10767.08422225,10768.7609275,1,1.03292708399931
107,26,16,categorization,0,bathroom,SHINEd_sun_apeeialkgkuxddgh.tif,42,0.05,0.0666666666666667,0.883333333333333,10768.776738916,10769.743376208,13,10768.826605333,10768.891496458,10769.764699083,10770.641370875,1,0.966637292000087
107,27,16,categorization,0,kitchen,SHINEd_sun_agorklincwxrdtga.tif,87,0.05,0.0666666666666667,1.16666666666667,10770.647095291,10771.401259791,9,10770.692185125,10770.753185083,10771.405172583,10772.565218291,1,0.754164500000115
107,28,16,categorization,0,kitchen,SHINEd_sun_auaiucuqpdausiva.tif,102,0.05,0.0666666666666667,0.766666666666667,10772.574861375,10773.375062958,9,10772.624584041,10772.690843166,10773.397260666,10774.157317291,1,0.800201583000671
107,29,16,categorization,0,bathroom,SHINEd_sun_apkxzenqapsujocq.tif,45,0.05,0.0666666666666667,0.8,10774.173894916,10775.201037166,13,10774.224023041,10774.289922583,10775.208666458,10776.002005791,1,1.02714224999909
107,30,16,categorization,0,kitchen,SHINEd_sun_acwjdupvyjsugpay.tif,76,0.05,0.0666666666666667,1.03333333333333,10776.008315083,10776.984930333,9,10776.0533885,10776.114359208,10776.999630833,10778.026327,1,0.976615249999668
107,31,16,categorization,0,kitchen,SHINEd_sun_auticobqsbwgoppi.tif,104,0.05,0.0666666666666667,1.35,10778.0371115,10779.570760875,9,10778.086034041,10778.151499958,10779.593927583,10780.937303208,1,1.5336493750001
107,32,16,categorization,0,bathroom,SHINEd_sun_ausgutylgojavyoq.tif,53,0.05,0.0666666666666667,0.95,10780.954579125,10782.045951041,13,10781.0048065,10781.070462875,10782.059367125,10783.002705541,1,1.09137191599984
107,33,16,categorization,0,kitchen,SHINEd_sun_abrcnpqqhmjwekyf.tif,73,0.05,0.0666666666666667,0.766666666666667,10783.008034916,10784.3373825,13,10783.053308,10783.114074708,10784.349593458,10785.109598958,0,1.32934758400006
107,34,16,categorization,0,bathroom,SHINEd_sun_alotolagknyrgtsk.tif,35,0.05,0.0666666666666667,1.08333333333333,10785.114387166,10786.121579375,9,10785.159470125,10785.220454666,10786.13886175,10787.215570666,0,1.00719220899919
107,35,16,categorization,0,bathroom,SHINEd_sun_ahaulkltgpkeeemi.tif,26,0.05,0.0666666666666667,1.16666666666667,10787.225577916,10788.364592,9,10787.273667166,10787.340493291,10788.379615833,10789.539672083,0,1.13901408399943
107,36,16,categorization,0,bathroom,SHINEd_sun_axyrejkiiaqiurjk.tif,59,0.05,0.0666666666666667,1.71666666666667,10789.548968541,10790.765714833,13,10789.598081583,10789.666557833,10790.789750083,10792.499801041,1,1.21674629200061
107,37,16,categorization,0,kitchen,SHINEd_sun_aenotlpyftoioydp.tif,82,0.05,0.0666666666666667,0.966666666666667,10792.517036916,10793.366150083,9,10792.567036791,10792.633353583,10793.389864958,10794.349871958,1,0.849113166999814
107,38,16,categorization,0,kitchen,SHINEd_sun_avszsnwsbuqfgzbn.tif,105,0.05,0.0666666666666667,0.966666666666667,10794.355595083,10795.201765791,9,10794.400636541,10794.461625541,10795.213339083,10796.173344458,1,0.8461707080005
107,39,16,categorization,0,kitchen,SHINEd_sun_awcpdzzznmweyyhv.tif,106,0.05,0.0666666666666667,0.75,10796.178603458,10797.369203583,9,10796.223908416,10796.284777166,10797.386930333,10798.130268041,1,1.19060012500086
107,40,16,categorization,0,bathroom,SHINEd_sun_azqyogdvyhahyram.tif,60,0.05,0.0666666666666667,1.05,10798.135615666,10799.217733333,9,10798.180644958,10798.241543166,10799.226535791,10800.269926,0,1.08211766699969
107,41,16,categorization,0,kitchen,SHINEd_sun_axyyrmzcupyhlivc.tif,107,0.05,0.0666666666666667,0.85,10800.279320541,10801.206683125,13,10800.327953666,10800.394166375,10801.233846375,10802.077229,0,0.927362583999638
107,42,16,categorization,0,kitchen,SHINEd_sun_aymvwlarqodbwuoc.tif,108,0.05,0.0666666666666667,1.25,10802.093070916,10803.24974525,13,10802.142870583,10802.209050833,10803.261168625,10804.504543708,0,1.15667433399904
107,43,16,categorization,0,bathroom,SHINEd_sun_anryaplzeujmzfkd.tif,39,0.05,0.0666666666666667,1.1,10804.519873208,10805.374266791,9,10804.569881083,10804.637351166,10805.393190208,10806.4865595,0,0.854393582998455
107,44,16,categorization,0,kitchen,SHINEd_sun_aapllqyqlykszopd.tif,66,0.05,0.0666666666666667,0.866666666666667,10806.495927125,10807.744687791,9,10806.543877458,10806.611787166,10807.7685845,10808.628590916,1,1.24876066599973
107,45,16,categorization,0,kitchen,SHINEd_sun_abftihopvusyfakt.tif,71,0.05,0.0666666666666667,0.716666666666667,10808.634290291,10809.513686708,13,10808.67927775,10808.74035275,10809.525947291,10810.235954,0,0.879396416999953
107,46,16,categorization,0,kitchen,SHINEd_sun_ahljzhgcdpomplvg.tif,91,0.05,0.0666666666666667,1.98333333333333,10810.241668875,10811.161221333,9,10810.286657208,10810.347662458,10811.166097125,10813.142809958,1,0.919552458000908
107,47,16,categorization,0,kitchen,SHINEd_sun_amjjdeyrggfqgmom.tif,100,0.05,0.0666666666666667,1.93333333333333,10813.160727416,10814.024683541,9,10813.21064125,10813.276981208,10814.05018075,10815.97689175,1,0.863956125000186
107,48,16,categorization,0,bathroom,SHINEd_sun_atstyziqcmkahyxk.tif,51,0.05,0.0666666666666667,0.8,10815.994547916,10817.657652166,13,10816.044437666,10816.110645958,10817.663339708,10818.456676416,1,1.6631042500012
107,49,16,categorization,0,bathroom,SHINEd_sun_apmqjbnwghzuhhzh.tif,46,0.05,0.0666666666666667,1.71666666666667,10818.461600708,10819.609432041,9,10818.50674525,10818.567669833,10819.619815,10821.329848375,0,1.14783133299898
107,50,16,categorization,0,kitchen,SHINEd_sun_aamedkxepzlwuxes.tif,65,0.05,0.0666666666666667,1.96666666666667,10821.345412958,10822.115652916,9,10821.397703666,10821.462009958,10822.136487166,10824.096553166,1,0.770239957999365
