sub_num,trial,block,task,is_practice,category,image,texture,duration,mask_dur,jitter,stim_time,time_of_resp,trial_response,mask_time,fix_time,jit_onset,trial_end,trial_accuracy,RT
107,1,18,categorization,0,bathroom,SHINEd_sun_apkxzenqapsujocq.tif,45,0.05,0.0666666666666667,0.75,10987.836542083,10989.176302916,13,10987.882520458,10987.942659375,10989.195116958,10989.938457583,1,1.33976083299967
107,2,18,categorization,0,bathroom,SHINEd_sun_aofnryafpsjimzsb.tif,40,0.05,0.0666666666666667,1.05,10989.943768,10990.896160041,13,10989.989055458,10990.0500905,10990.901802458,10991.945189791,1,0.952392041001076
107,3,18,categorization,0,kitchen,SHINEd_sun_akchetnepxlcxhsu.tif,98,0.05,0.0666666666666667,1.08333333333333,10991.95810825,10992.835118541,13,10992.006325166,10992.072426208,10992.862598166,10993.939302625,0,0.877010290998442
107,4,18,categorization,0,bathroom,SHINEd_sun_aqrpegblszgcoujh.tif,48,0.05,0.0666666666666667,1.78333333333333,10993.956153375,10994.712719625,13,10994.00209325,10994.06224525,10994.730701375,10996.507404166,1,0.756566250000105
107,5,18,categorization,0,bathroom,SHINEd_sun_abapwbhyhkfixyex.tif,14,0.05,0.0666666666666667,0.733333333333333,10996.525500625,10997.559632208,9,10996.575464708,10996.641982666,10997.581793416,10998.308465375,0,1.03413158299918
107,6,18,categorization,0,bathroom,SHINEd_sun_apjevzvycyhuqghb.tif,43,0.05,0.0666666666666667,0.716666666666667,10998.314153083,10999.008676,9,10998.359168875,10998.420204541,10999.022137416,10999.732143125,0,0.694522916999631
107,7,18,categorization,0,bathroom,SHINEd_sun_anhioqovhscjqqwb.tif,38,0.05,0.0666666666666667,1.76666666666667,10999.737140833,11000.512025791,13,10999.78220325,10999.84325125,11000.528794375,11002.28883925,1,0.774884958000257
107,8,18,categorization,0,kitchen,SHINEd_sun_ahpczsiumwwocjkv.tif,92,0.05,0.0666666666666667,1.11666666666667,11002.310551708,11003.495709916,9,11002.360691583,11002.426598458,11003.516247958,11004.626290125,1,1.18515820799985
107,9,18,categorization,0,bathroom,SHINEd_sun_asfwthctfqerjvxr.tif,49,0.05,0.0666666666666667,0.8,11004.635117958,11005.792393208,9,11004.683381583,11004.751246875,11005.806493875,11006.599839708,0,1.15727524999966
107,10,18,categorization,0,kitchen,SHINEd_sun_ajkqhtgcbgpcwrwn.tif,97,0.05,0.0666666666666667,1.53333333333333,11006.607672708,11007.192561791,13,11006.652667125,11006.713764,11007.1989595,11008.725664833,0,0.584889083000235
107,11,18,categorization,0,bathroom,SHINEd_sun_ambriybtogmepttm.tif,36,0.05,0.0666666666666667,0.966666666666667,11008.742528375,11009.373607625,9,11008.792275375,11008.858564833,11009.398430416,11010.358437375,0,0.631079250000766
107,12,18,categorization,0,kitchen,SHINEd_sun_admlmbcdswaszruo.tif,79,0.05,0.0666666666666667,1.31666666666667,11010.364287625,11010.944719791,13,11010.409363166,11010.470345458,11010.955652375,11012.265697666,0,0.58043216599981
107,13,18,categorization,0,kitchen,SHINEd_sun_aunzlwrbjumxhwdj.tif,103,0.05,0.0666666666666667,1.25,11012.283993083,11012.716767458,9,11012.333863875,11012.400098208,11012.739994,11013.983375166,1,0.432774375000008
107,14,18,categorization,0,bathroom,SHINEd_sun_ausgutylgojavyoq.tif,53,0.05,0.0666666666666667,0.85,11013.997752458,11014.784496583,9,11014.042862291,11014.103804458,11014.788993416,11015.632331416,0,0.786744125000041
107,15,18,categorization,0,kitchen,SHINEd_sun_auaiucuqpdausiva.tif,102,0.05,0.0666666666666667,1.68333333333333,11015.637330791,11016.520026708,9,11015.682260416,11015.743563458,11016.528826458,11018.205549166,1,0.882695917000092
107,16,18,categorization,0,bathroom,SHINEd_sun_abjtwfukuwddzted.tif,15,0.05,0.0666666666666667,1.06666666666667,11018.225310333,11018.955994375,13,11018.275140875,11018.341773041,11018.981878333,11020.041932083,1,0.730684041998757
107,17,18,categorization,0,kitchen,SHINEd_sun_avszsnwsbuqfgzbn.tif,105,0.05,0.0666666666666667,1.48333333333333,11020.054247666,11020.759897666,9,11020.102296,11020.169388625,11020.774997291,11022.251696375,1,0.705649999999878
107,18,18,categorization,0,kitchen,SHINEd_sun_auticobqsbwgoppi.tif,104,0.05,0.0666666666666667,1.81666666666667,11022.269511,11023.025267208,9,11022.319276458,11022.385452458,11023.041086875,11024.8511405,1,0.755756208000093
107,19,18,categorization,0,bathroom,SHINEd_sun_awnqiikzaispgmwo.tif,56,0.05,0.0666666666666667,0.966666666666667,11024.866219666,11025.692726958,13,11024.9153775,11024.982237,11025.722072708,11026.682079833,1,0.826507291998496
107,20,18,categorization,0,kitchen,SHINEd_sun_amjjdeyrggfqgmom.tif,100,0.05,0.0666666666666667,1.6,11026.687968375,11027.496606583,9,11026.732948791,11026.794057291,11027.512488833,11029.105863041,1,0.808638208000048
107,21,18,categorization,0,bathroom,SHINEd_sun_afcoljnjfoxjtgja.tif,20,0.05,0.0666666666666667,1.28333333333333,11029.125556041,11030.727995083,9,11029.175219458,11029.241480041,11030.744496625,11032.021202416,0,1.60243904199888
107,22,18,categorization,0,kitchen,SHINEd_labelme_brsyyvweiuaazfr.tif,61,0.05,0.0666666666666667,0.9,11032.038203416,11033.543529958,9,11032.0874835,11032.155263166,11033.562789833,11034.456129208,1,1.50532654200106
107,23,18,categorization,0,bathroom,SHINEd_sun_atstyziqcmkahyxk.tif,51,0.05,0.0666666666666667,1.41666666666667,11034.461608416,11035.176111083,9,11034.506708666,11034.567702708,11035.186141916,11036.596195875,0,0.714502666998669
107,24,18,categorization,0,kitchen,SHINEd_sun_aarfiyshqohlwkmo.tif,67,0.05,0.0666666666666667,0.8,11036.6145115,11037.4833775,9,11036.664376958,11036.730639208,11037.503454583,11038.296826291,1,0.868866000000708
107,25,18,categorization,0,bathroom,SHINEd_sun_acgyywnybuveqsro.tif,18,0.05,0.0666666666666667,1.05,11038.306979916,11039.096102333,9,11038.3528975,11038.413093208,11039.114908041,11040.158284375,0,0.789122416999817
107,26,18,categorization,0,kitchen,SHINEd_sun_agorklincwxrdtga.tif,87,0.05,0.0666666666666667,0.766666666666667,11040.168821083,11040.907534791,9,11040.21682725,11040.283644083,11040.921709916,11041.681747625,1,0.738713708000432
107,27,18,categorization,0,kitchen,SHINEd_sun_aggjlwcdjsjcaemh.tif,86,0.05,0.0666666666666667,0.816666666666667,11041.698048041,11042.496555583,9,11041.748055625,11041.814011458,11042.51660025,11043.3266065,1,0.798507542000152
107,28,18,categorization,0,bathroom,SHINEd_sun_agrwbmhcpmfuwmsg.tif,24,0.05,0.0666666666666667,0.95,11043.3323375,11044.152255958,9,11043.377458625,11043.438409208,11044.157073875,11045.100411375,0,0.819918458000757
107,29,18,categorization,0,bathroom,SHINEd_sun_alkosphxlxwjwgjd.tif,34,0.05,0.0666666666666667,1.46666666666667,11045.106851291,11045.976627708,9,11045.151848041,11045.212951541,11045.981827916,11047.441886416,0,0.86977641699923
107,30,18,categorization,0,bathroom,SHINEd_sun_aunuadmjocsddsrl.tif,52,0.05,0.0666666666666667,0.8,11047.457079833,11048.248774083,9,11047.507315833,11047.573140583,11048.261795,11049.055133,0,0.791694249999637
107,31,18,categorization,0,bathroom,SHINEd_sun_akiytfaagpdsphgz.tif,31,0.05,0.0666666666666667,1.88333333333333,11049.0609045,11050.344394125,9,11049.106219458,11049.16694575,11050.353028166,11052.229748416,0,1.28348962500058
107,32,18,categorization,0,kitchen,SHINEd_sun_akcjzhbbjlbogpdi.tif,99,0.05,0.0666666666666667,1.03333333333333,11052.247922,11053.117592083,9,11052.297867541,11052.364064083,11053.137630875,11054.16432925,1,0.869670082998709
107,33,18,categorization,0,kitchen,SHINEd_sun_agubuxuukhzyzpdp.tif,88,0.05,0.0666666666666667,0.916666666666667,11054.17558675,11054.850090333,9,11054.223771125,11054.290093416,11054.877656083,11055.787709291,1,0.674503583000842
107,34,18,categorization,0,kitchen,SHINEd_sun_acgtpgfybqjmzeyw.tif,75,0.05,0.0666666666666667,0.883333333333333,11055.803400916,11056.504742208,9,11055.852969125,11055.91943675,11056.521825958,11057.398498875,1,0.701341292000507
107,35,18,categorization,0,bathroom,SHINEd_sun_ahijqszoswveeyji.tif,28,0.05,0.0666666666666667,0.983333333333333,11057.403720208,11058.120033083,9,11057.448596875,11057.509842875,11058.128336333,11059.105008083,0,0.716312874999858
107,36,18,categorization,0,kitchen,SHINEd_sun_axyyrmzcupyhlivc.tif,107,0.05,0.0666666666666667,0.933333333333333,11059.11058825,11059.912283875,9,11059.155604,11059.216667,11059.918437083,11060.845109416,1,0.80169562500123
107,37,18,categorization,0,bathroom,SHINEd_sun_aggnnqpdorgxpvce.tif,21,0.05,0.0666666666666667,0.783333333333333,11060.849996166,11061.559900875,9,11060.895018041,11060.956021583,11061.574521708,11062.351193666,0,0.709904708999602
107,38,18,categorization,0,bathroom,SHINEd_sun_aapitsgbtktqubfy.tif,12,0.05,0.0666666666666667,0.85,11062.357044833,11063.184357166,9,11062.40193,11062.463099666,11063.198248916,11064.041587458,0,0.827312333000009
107,39,18,categorization,0,kitchen,SHINEd_sun_abdxkyyxwfskuaqb.tif,70,0.05,0.0666666666666667,1.7,11064.047040833,11064.776023041,9,11064.092036625,11064.153091416,11064.788335833,11066.481712291,1,0.728982208000161
107,40,18,categorization,0,kitchen,SHINEd_sun_aqeaevwwwjoqhzvl.tif,101,0.05,0.0666666666666667,1.31666666666667,11066.49969525,11067.212862,9,11066.549464,11066.615943791,11067.238916125,11068.548953791,1,0.7131667499998
107,41,18,categorization,0,bathroom,SHINEd_sun_apeeialkgkuxddgh.tif,42,0.05,0.0666666666666667,0.9,11068.567344166,11069.286231791,9,11068.617965,11068.6835625,11069.306600958,11070.199978,0,0.718887625000207
107,42,18,categorization,0,kitchen,SHINEd_sun_ahspylgoovwmwvgk.tif,93,0.05,0.0666666666666667,1.75,11070.215901125,11071.080138916,9,11070.264723166,11070.323261916,11071.091719416,11072.835096125,1,0.86423779100005
107,43,18,categorization,0,kitchen,SHINEd_sun_abpwyqmlzafvklqo.tif,72,0.05,0.0666666666666667,1.41666666666667,11072.854335541,11073.755253166,13,11072.902142208,11072.970408833,11073.777006166,11075.187047916,0,0.900917625000147
107,44,18,categorization,0,bathroom,SHINEd_sun_anryaplzeujmzfkd.tif,39,0.05,0.0666666666666667,1.01666666666667,11075.205312333,11076.233707333,9,11075.254848791,11075.32157525,11076.261407125,11077.271412708,0,1.02839499999936
107,45,18,categorization,0,kitchen,SHINEd_sun_abftihopvusyfakt.tif,71,0.05,0.0666666666666667,1.95,11077.281960625,11078.076152625,9,11077.3301595,11077.3963415,11078.102909041,11080.046275041,1,0.794192000001203
107,46,18,categorization,0,kitchen,SHINEd_labelme_rykdqxenmhulbdn.tif,63,0.05,0.0666666666666667,0.916666666666667,11080.064906541,11081.015533,13,11080.114942041,11080.181570583,11081.037989125,11081.947993208,0,0.950626458999977
107,47,18,categorization,0,kitchen,SHINEd_sun_aapllqyqlykszopd.tif,66,0.05,0.0666666666666667,1.08333333333333,11081.953853416,11082.768457125,9,11081.998969375,11082.059861208,11082.778529916,11083.855247708,1,0.81460370899913
107,48,18,categorization,0,kitchen,SHINEd_sun_ahywdevtimnqcsln.tif,94,0.05,0.0666666666666667,1.16666666666667,11083.867945291,11084.544648916,9,11083.916084208,11083.982079791,11084.571935833,11085.731974333,1,0.6767036250003
107,49,18,categorization,0,kitchen,SHINEd_sun_aeqdocilnnpuvuhx.tif,83,0.05,0.0666666666666667,1.78333333333333,11085.746419375,11086.51977925,9,11085.796280208,11085.8622285,11086.531121375,11088.307844791,1,0.773359875000097
107,50,18,categorization,0,kitchen,SHINEd_sun_acfmftudsenhrfhy.tif,74,0.05,0.0666666666666667,1.2,11088.326399291,11089.425610875,9,11088.376047833,11088.442888166,11089.449194958,11090.642574,1,1.09921158399993
