sub_num,trial,block,task,is_practice,category,image,texture,duration,mask_dur,jitter,stim_time,time_of_resp,trial_response,mask_time,fix_time,jit_onset,trial_end,trial_accuracy,RT
101,1,0,familiarity,1,bathroom,bathroom_practice1.tif,221,1.5,0,0.916666666666667,1092.43122825,1099.047398291,5,NaN,1099.053420958,1099.071866916,1099.981871125,NaN,NaN
101,2,0,familiarity,1,bathroom,bathroom_practice2.tif,222,1.5,0,0.85,1099.987131,1106.05492125,1,NaN,1106.061900375,1106.081835791,1106.925174541,NaN,NaN
101,3,0,familiarity,1,bathroom,bathroom_practice3.tif,223,1.5,0,0.883333333333333,1106.930691333,1110.182951416,6,NaN,1110.18855525,1110.206931208,1111.083602375,NaN,NaN
101,4,0,familiarity,1,bathroom,bathroom_practice5.tif,225,1.5,0,1.43333333333333,1111.089016375,1115.807147333,4,NaN,1115.81270925,1115.830973875,1117.25768175,NaN,NaN
101,5,0,familiarity,1,bathroom,bathroom_practice4.tif,224,1.5,0,1.53333333333333,1117.275505083,1120.278692333,5,NaN,1120.2845765,1120.302872041,1121.829592041,NaN,NaN
101,1,1,familiarity,0,bathroom,sun_ahcvzmoyaycdoftf.tif,137,1.5,0,1.26666666666667,1128.186796291,1131.863258916,5,NaN,1131.868768208,1131.887072625,1133.147123875,NaN,NaN
101,2,1,familiarity,0,bathroom,sun_aggnnqpdorgxpvce.tif,131,1.5,0,1.76666666666667,1133.165137,1136.726812291,2,NaN,1136.732540208,1136.750883625,1138.510918458,NaN,NaN
101,3,1,familiarity,0,bathroom,sun_aclfzgynxzxlbepz.tif,129,1.5,0,1.46666666666667,1138.527830333,1142.175436583,6,NaN,1142.181188541,1142.199600041,1143.659647416,NaN,NaN
101,4,1,familiarity,0,bathroom,sun_apmqjbnwghzuhhzh.tif,156,1.5,0,1.28333333333333,1143.677819875,1147.134833666,4,NaN,1147.142054708,1147.160389333,1148.437111625,NaN,NaN
101,5,1,familiarity,0,bathroom,sun_acegryoqftbzowsg.tif,127,1.5,0,0.966666666666667,1148.451438333,1152.350821,3,NaN,1152.356963416,1152.375232958,1153.335238291,NaN,NaN
101,6,1,familiarity,0,bathroom,sun_alkosphxlxwjwgjd.tif,144,1.5,0,0.783333333333333,1153.340745333,1156.534835166,3,NaN,1156.540527583,1156.558819333,1157.335490541,NaN,NaN
101,7,1,familiarity,0,bathroom,sun_acgyywnybuveqsro.tif,128,1.5,0,1.21666666666667,1157.340424,1160.362925416,3,NaN,1160.389616625,1160.409969916,1161.620021083,NaN,NaN
101,8,1,familiarity,0,bathroom,sun_anhioqovhscjqqwb.tif,148,1.5,0,1.4,1161.636357583,1164.830549041,3,NaN,1164.836234791,1164.854578875,1166.247951583,NaN,NaN
101,9,1,familiarity,0,bathroom,sun_aspsyogrekjtfozg.tif,160,1.5,0,1.3,1166.2653785,1169.310904,2,NaN,1169.316657166,1169.334854166,1170.628232791,NaN,NaN
101,10,1,familiarity,0,bathroom,sun_ahqjwnzgolcaoidx.tif,139,1.5,0,0.95,1170.645644916,1173.799122166,6,NaN,1173.804659333,1173.823172708,1174.766513708,NaN,NaN
101,11,1,familiarity,0,bathroom,sun_ausgutylgojavyoq.tif,163,1.5,0,1.96666666666667,1174.778570041,1178.630252416,3,NaN,1178.636239125,1178.654732375,1180.614776916,NaN,NaN
101,12,1,familiarity,0,bathroom,sun_axyrejkiiaqiurjk.tif,169,1.5,0,1.13333333333333,1180.631805583,1183.73082275,1,NaN,1183.75717475,1183.780708458,1184.907408708,NaN,NaN
101,13,1,familiarity,0,bathroom,sun_agrwbmhcpmfuwmsg.tif,134,1.5,0,0.933333333333333,1184.91681225,1188.407046333,3,NaN,1188.413524916,1188.431831583,1189.358503958,NaN,NaN
101,14,1,familiarity,0,bathroom,sun_axxbkopsgyouuebh.tif,168,1.5,0,1.6,1189.363822333,1193.054162,6,NaN,1193.060076291,1193.078553166,1194.671923541,NaN,NaN
101,15,1,familiarity,0,bathroom,sun_akiytfaagpdsphgz.tif,141,1.5,0,1.38333333333333,1194.691605708,1197.814504958,3,NaN,1197.832894833,1197.854454166,1199.23116475,NaN,NaN
101,16,1,familiarity,0,bathroom,sun_aavhrsfjbserjtht.tif,123,1.5,0,1.58333333333333,1199.249259625,1202.79112125,3,NaN,1202.798164666,1202.816487208,1204.393211166,NaN,NaN
101,17,1,familiarity,0,bathroom,sun_auzqhkafidnkrwmo.tif,164,1.5,0,0.966666666666667,1204.410993583,1207.470514708,4,NaN,1207.476159708,1207.4946725,1208.454677416,NaN,NaN
101,18,1,familiarity,0,bathroom,sun_amzlamotzwfkwjco.tif,147,1.5,0,0.983333333333333,1208.460959625,1212.223113375,2,NaN,1212.228554041,1212.246798833,1213.223470333,NaN,NaN
101,19,1,familiarity,0,bathroom,sun_asfwthctfqerjvxr.tif,159,1.5,0,0.8,1213.229639875,1216.6385725,2,NaN,1216.644058708,1216.662566625,1217.455904625,NaN,NaN
101,20,1,familiarity,0,bathroom,sun_apkxzenqapsujocq.tif,155,1.5,0,0.7,1217.460611625,1220.551150416,4,NaN,1220.558816375,1220.577223333,1221.2705615,NaN,NaN
101,21,1,familiarity,0,bathroom,sun_anryaplzeujmzfkd.tif,149,1.5,0,0.716666666666667,1221.275903541,1224.376408958,2,NaN,1224.400100833,1224.42030575,1225.130311041,NaN,NaN
101,22,1,familiarity,0,bathroom,sun_atstyziqcmkahyxk.tif,161,1.5,0,1.76666666666667,1225.135707666,1228.750630958,7,NaN,1228.756104041,1228.774486666,1230.534528166,NaN,NaN
101,23,1,familiarity,0,bathroom,sun_ajlawzvmubibwbpy.tif,140,1.5,0,1.7,1230.55124875,1234.070466458,4,NaN,1234.077164458,1234.09594525,1235.789330458,NaN,NaN
101,24,1,familiarity,0,bathroom,sun_aljolscmmzydegqp.tif,143,1.5,0,1.38333333333333,1235.806002333,1239.486867541,4,NaN,1239.492945208,1239.511398125,1240.888118916,NaN,NaN
101,25,1,familiarity,0,bathroom,sun_afcoljnjfoxjtgja.tif,130,1.5,0,0.766666666666667,1240.905308208,1243.982250458,2,NaN,1243.987885333,1244.006116541,1244.76612175,NaN,NaN
101,1,2,familiarity,0,bathroom,sun_azqyogdvyhahyram.tif,170,1.5,0,0.85,1251.292944375,1254.83007325,7,NaN,1254.836057041,1254.854319541,1255.697658375,NaN,NaN
101,2,2,familiarity,0,bathroom,sun_agguqiubmwhqqunb.tif,132,1.5,0,1.53333333333333,1255.7026,1259.414769458,5,NaN,1259.420172916,1259.438469083,1260.965190291,NaN,NaN
101,3,2,familiarity,0,bathroom,sun_avhrdrntsqrjzccq.tif,165,1.5,0,0.7,1260.9819105,1263.942424666,1,NaN,1263.947984041,1263.966415708,1264.659755583,NaN,NaN
101,4,2,familiarity,0,bathroom,sun_aunuadmjocsddsrl.tif,162,1.5,0,1.36666666666667,1264.664925416,1268.238665625,7,NaN,1268.244090208,1268.262610166,1269.622654416,NaN,NaN
101,5,2,familiarity,0,bathroom,sun_abapwbhyhkfixyex.tif,124,1.5,0,0.716666666666667,1269.6396915,1273.294573083,5,NaN,1273.300007458,1273.318378,1274.02838375,NaN,NaN
101,6,2,familiarity,0,bathroom,sun_alotolagknyrgtsk.tif,145,1.5,0,1.38333333333333,1274.033352375,1277.057858666,1,NaN,1277.086530375,1277.109170416,1278.485883583,NaN,NaN
101,7,2,familiarity,0,bathroom,labelme_sfxiulhjbhlyiyt.tif,121,1.5,0,0.916666666666667,1278.5010945,1281.870728,6,NaN,1281.876160041,1281.894668958,1282.80467625,NaN,NaN
101,8,2,familiarity,0,bathroom,sun_aqrpegblszgcoujh.tif,158,1.5,0,1.58333333333333,1282.809995375,1287.334500333,4,NaN,1287.339962291,1287.358235083,1288.934942125,NaN,NaN
101,9,2,familiarity,0,bathroom,sun_ahijqszoswveeyji.tif,138,1.5,0,1.25,1288.951713625,1292.646198208,4,NaN,1292.651675916,1292.670058166,1293.913436916,NaN,NaN
101,10,2,familiarity,0,bathroom,sun_axldvoqbuvuggfmq.tif,167,1.5,0,0.95,1293.93126675,1298.005722333,5,NaN,1298.011519583,1298.029660041,1298.97299925,NaN,NaN
101,11,2,familiarity,0,bathroom,sun_ahaulkltgpkeeemi.tif,136,1.5,0,1.4,1298.978774541,1302.80641075,6,NaN,1302.811839541,1302.830061333,1304.223440833,NaN,NaN
101,12,2,familiarity,0,bathroom,sun_aghyqhbptboemmoq.tif,133,1.5,0,0.766666666666667,1304.239681833,1307.150302041,7,NaN,1307.15583575,1307.174092458,1307.934097041,NaN,NaN
101,13,2,familiarity,0,bathroom,sun_apynckhmoftszqoq.tif,157,1.5,0,0.733333333333333,1307.939358833,1311.134694958,7,NaN,1311.140057416,1311.15842075,1311.885091416,NaN,NaN
101,14,2,familiarity,0,bathroom,sun_apeeialkgkuxddgh.tif,152,1.5,0,1.06666666666667,1311.890455041,1315.150536833,7,NaN,1315.156843958,1315.175258125,1316.235311666,NaN,NaN
101,15,2,familiarity,0,bathroom,sun_agyqfjcfkdcydepw.tif,135,1.5,0,1.33333333333333,1316.243701125,1319.206215083,1,NaN,1319.211631666,1319.229686625,1320.556404708,NaN,NaN
101,16,2,familiarity,0,bathroom,sun_aleqenyvunhactkl.tif,142,1.5,0,1.41666666666667,1320.573094708,1323.637995916,7,NaN,1323.643601,1323.661883875,1325.071940333,NaN,NaN
101,17,2,familiarity,0,bathroom,sun_aapitsgbtktqubfy.tif,122,1.5,0,1.95,1325.088018125,1327.902172708,5,NaN,1327.907644041,1327.925978958,1329.869357916,NaN,NaN
101,18,2,familiarity,0,bathroom,sun_ambriybtogmepttm.tif,146,1.5,0,0.866666666666667,1329.886238625,1332.81767825,1,NaN,1332.846693,1332.869787416,1333.7297925,NaN,NaN
101,19,2,familiarity,0,bathroom,sun_apkruvsevgegsdwp.tif,154,1.5,0,0.983333333333333,1333.735413125,1336.973686833,7,NaN,1336.980264041,1336.998631583,1337.975305,NaN,NaN
101,20,2,familiarity,0,bathroom,sun_awnqiikzaispgmwo.tif,166,1.5,0,0.983333333333333,1337.98064025,1341.22215025,5,NaN,1341.227743958,1341.245937583,1342.222609,NaN,NaN
101,21,2,familiarity,0,bathroom,sun_abjtwfukuwddzted.tif,125,1.5,0,0.766666666666667,1342.227127958,1345.138155125,5,NaN,1345.166868666,1345.189513,1345.949517625,NaN,NaN
101,22,2,familiarity,0,bathroom,sun_acduarbnmmoglmiv.tif,126,1.5,0,0.833333333333333,1345.954929041,1349.486506666,6,NaN,1349.491952375,1349.510831958,1350.337502708,NaN,NaN
101,23,2,familiarity,0,bathroom,sun_apjevzvycyhuqghb.tif,153,1.5,0,0.833333333333333,1350.342099291,1353.853514416,2,NaN,1353.859515208,1353.877802083,1354.70447475,NaN,NaN
101,24,2,familiarity,0,bathroom,sun_aofnryafpsjimzsb.tif,150,1.5,0,0.716666666666667,1354.709700208,1360.989835416,3,NaN,1360.995144,1361.013247875,1361.723253625,NaN,NaN
101,25,2,familiarity,0,bathroom,sun_aoybiabnpadelefl.tif,151,1.5,0,1.71666666666667,1361.728510333,1364.306053125,1,NaN,1364.332239458,1364.354128375,1366.064163041,NaN,NaN
