sub_num,trial,block,task,is_practice,category,image,texture,duration,mask_dur,jitter,stim_time,time_of_resp,trial_response,mask_time,fix_time,jit_onset,trial_end,trial_accuracy,RT
118,6,0,usability,1,kitchen,kitchen_practice2.tif,227,1.5,0,1.13333333333333,19092.969131417,19095.982974875,1,NaN,19095.9998355,19096.019413459,19097.146164667,NaN,NaN
118,7,0,usability,1,kitchen,kitchen_practice3.tif,228,1.5,0,0.933333333333333,19097.156342875,19099.405751834,5,NaN,19099.411425084,19099.429814209,19100.356489125,NaN,NaN
118,8,0,usability,1,kitchen,kitchen_practice1.tif,226,1.5,0,1.48333333333333,19100.361022334,19103.1197015,2,NaN,19103.151690209,19103.175583917,19104.65230925,NaN,NaN
118,9,0,usability,1,kitchen,kitchen_practice4.tif,229,1.5,0,1.33333333333333,19104.671595917,19107.415346542,3,NaN,19107.4220365,19107.44039125,19108.767152625,NaN,NaN
118,10,0,usability,1,kitchen,kitchen_practice5.tif,230,1.5,0,1.3,19108.783924625,19111.43704825,5,NaN,19111.442886625,19111.461160334,19112.75456475,NaN,NaN
118,1,1,usability,0,kitchen,sun_amjjdeyrggfqgmom.tif,210,1.5,0,1.91666666666667,19117.030299917,19119.701468375,4,NaN,19119.730639375,19119.753527334,19121.663614084,NaN,NaN
118,2,1,usability,0,kitchen,sun_aymvwlarqodbwuoc.tif,218,1.5,0,0.85,19121.681019834,19125.365296875,6,NaN,19125.371057792,19125.389423667,19126.232766959,NaN,NaN
118,3,1,usability,0,kitchen,labelme_rykdqxenmhulbdn.tif,173,1.5,0,0.7,19126.237115542,19128.562592209,2,NaN,19128.592145959,19128.616334167,19129.309766042,NaN,NaN
118,4,1,usability,0,kitchen,sun_adgqasybjyktddhj.tif,188,1.5,0,1.6,19129.326038459,19131.956924917,5,NaN,19131.986599542,19132.010596875,19133.604020167,NaN,NaN
118,5,1,usability,0,kitchen,sun_aehawpgmrlhlvcow.tif,191,1.5,0,1.13333333333333,19133.623157292,19136.068744875,6,NaN,19136.074933667,19136.09324025,19137.2199735,NaN,NaN
118,6,1,usability,0,kitchen,sun_aadbddgrdsjugojn.tif,174,1.5,0,0.716666666666667,19137.229703542,19140.453412459,6,NaN,19140.45916925,19140.477573584,19141.18758275,NaN,NaN
118,7,1,usability,0,kitchen,sun_acwjdupvyjsugpay.tif,186,1.5,0,1.6,19141.198282084,19144.006752667,5,NaN,19144.034509042,19144.057433792,19145.650860334,NaN,NaN
118,8,1,usability,0,kitchen,sun_aixorpehvfykdynp.tif,205,1.5,0,1.68333333333333,19145.669444625,19148.578118125,7,NaN,19148.608269625,19148.631923625,19150.308657,NaN,NaN
118,9,1,usability,0,kitchen,sun_auaiucuqpdausiva.tif,212,1.5,0,1.41666666666667,19150.328360667,19153.288660875,3,NaN,19153.313845042,19153.337277542,19154.747374375,NaN,NaN
118,10,1,usability,0,kitchen,sun_aamedkxepzlwuxes.tif,175,1.5,0,1,19154.762000667,19157.597686667,2,NaN,19157.603946792,19157.622349542,19158.615690834,NaN,NaN
118,11,1,usability,0,kitchen,sun_ahpczsiumwwocjkv.tif,202,1.5,0,1.33333333333333,19158.620172959,19161.172095625,5,NaN,19161.202519834,19161.225885,19162.552644417,NaN,NaN
118,12,1,usability,0,kitchen,sun_aenotlpyftoioydp.tif,192,1.5,0,1.15,19162.570216125,19166.492885709,4,NaN,19166.498822167,19166.517119375,19167.660528917,NaN,NaN
118,13,1,usability,0,kitchen,sun_aexklacwqwezaorf.tif,194,1.5,0,1.86666666666667,19167.67029,19170.311673917,2,NaN,19170.33141575,19170.34959375,19172.209692875,NaN,NaN
118,14,1,usability,0,kitchen,sun_aapllqyqlykszopd.tif,176,1.5,0,1.18333333333333,19172.228893167,19175.125344292,3,NaN,19175.153670667,19175.177227,19176.353969459,NaN,NaN
118,15,1,usability,0,kitchen,sun_ahywdevtimnqcsln.tif,204,1.5,0,1.71666666666667,19176.366036917,19179.429431292,4,NaN,19179.435109334,19179.4535685,19181.163669417,NaN,NaN
118,16,1,usability,0,kitchen,sun_aggjlwcdjsjcaemh.tif,196,1.5,0,1.1,19181.180751792,19183.456239042,6,NaN,19183.486393209,19183.509849084,19184.603254625,NaN,NaN
118,17,1,usability,0,kitchen,sun_acxkpeoqbwcxfvip.tif,187,1.5,0,0.983333333333333,19184.619735792,19187.4712875,7,NaN,19187.499777209,19187.522715959,19188.4993925,NaN,NaN
118,18,1,usability,0,kitchen,sun_aeqdocilnnpuvuhx.tif,193,1.5,0,0.916666666666667,19188.514766959,19191.575374625,2,NaN,19191.589781,19191.610106792,19192.520117584,NaN,NaN
118,19,1,usability,0,kitchen,sun_akcjzhbbjlbogpdi.tif,209,1.5,0,0.716666666666667,19192.524697542,19195.997108042,4,NaN,19196.004172209,19196.022692959,19196.732699792,NaN,NaN
118,20,1,usability,0,kitchen,sun_ajcbwwvdlsvjyzje.tif,206,1.5,0,0.883333333333333,19196.737182084,19202.092923834,7,NaN,19202.099043292,19202.117311792,19202.993986084,NaN,NaN
118,21,1,usability,0,kitchen,sun_azmutvzbxypaceni.tif,220,1.5,0,1.93333333333333,19202.999565209,19213.709161709,4,NaN,19213.715252209,19213.733785667,19215.660533625,NaN,NaN
118,22,1,usability,0,kitchen,sun_awcpdzzznmweyyhv.tif,216,1.5,0,0.9,19215.678418334,19218.973148084,2,NaN,19218.983836917,19219.002271417,19219.895612,NaN,NaN
118,23,1,usability,0,kitchen,sun_aunzlwrbjumxhwdj.tif,213,1.5,0,1.13333333333333,19219.900405667,19223.876892917,5,NaN,19223.882753834,19223.900993459,19225.027734417,NaN,NaN
118,24,1,usability,0,kitchen,labelme_kxvouciolcpqplr.tif,172,1.5,0,0.766666666666667,19225.037680959,19229.356956542,2,NaN,19229.36333,19229.381795625,19230.141802667,NaN,NaN
118,25,1,usability,0,kitchen,sun_agubuxuukhzyzpdp.tif,198,1.5,0,0.966666666666667,19230.146172625,19232.84998725,5,NaN,19232.879632625,19232.903306417,19233.86331475,NaN,NaN
118,1,2,usability,0,kitchen,sun_ajkqhtgcbgpcwrwn.tif,207,1.5,0,1.56666666666667,19237.896367334,19242.764282334,5,NaN,19242.7703445,19242.788756167,19244.348835792,NaN,NaN
118,2,2,usability,0,kitchen,sun_avszsnwsbuqfgzbn.tif,215,1.5,0,1.2,19244.370311375,19247.004606042,1,NaN,19247.010471792,19247.028846167,19248.222277167,NaN,NaN
118,3,2,usability,0,kitchen,sun_admlmbcdswaszruo.tif,189,1.5,0,1.73333333333333,19248.238412375,19250.79615225,6,NaN,19250.802263875,19250.820728667,19252.547493959,NaN,NaN
118,4,2,usability,0,kitchen,sun_abdxkyyxwfskuaqb.tif,180,1.5,0,1.61666666666667,19252.561252667,19256.0371875,1,NaN,19256.044176625,19256.062648542,19257.672734834,NaN,NaN
118,5,2,usability,0,kitchen,sun_aypmqwcualkenuoe.tif,219,1.5,0,1.38333333333333,19257.690867125,19260.586186417,4,NaN,19260.615510667,19260.638751542,19262.015502625,NaN,NaN
118,6,2,usability,0,kitchen,sun_agzzivivdpnawacl.tif,199,1.5,0,1.73333333333333,19262.036318375,19264.684980584,3,NaN,19264.690739709,19264.709047459,19266.43580775,NaN,NaN
118,7,2,usability,0,kitchen,sun_aaxxjlsuzvqlgylf.tif,178,1.5,0,1.96666666666667,19266.454846792,19268.991885417,3,NaN,19269.014707084,19269.035855375,19270.995883459,NaN,NaN
118,8,2,usability,0,kitchen,sun_abftihopvusyfakt.tif,181,1.5,0,0.883333333333333,19271.006010667,19274.492371334,4,NaN,19274.498213959,19274.51646025,19275.39313775,NaN,NaN
118,9,2,usability,0,kitchen,sun_agorklincwxrdtga.tif,197,1.5,0,1.06666666666667,19275.397505292,19278.10116925,6,NaN,19278.13103275,19278.154370875,19279.214445417,NaN,NaN
118,10,2,usability,0,kitchen,labelme_brsyyvweiuaazfr.tif,171,1.5,0,1.06666666666667,19279.223896042,19281.780302084,3,NaN,19281.786177834,19281.804653792,19282.8647165,NaN,NaN
118,11,2,usability,0,kitchen,sun_afuyedyxivkhecmu.tif,195,1.5,0,0.966666666666667,19282.875498042,19286.028967959,1,NaN,19286.034733542,19286.053053667,19287.013064667,NaN,NaN
118,12,2,usability,0,kitchen,sun_aegoxogugdkwpmpj.tif,190,1.5,0,1.78333333333333,19287.017221959,19289.272188709,6,NaN,19289.298663542,19289.32180975,19291.098544834,NaN,NaN
118,13,2,usability,0,kitchen,sun_axyyrmzcupyhlivc.tif,217,1.5,0,1.68333333333333,19291.119207542,19293.351843834,6,NaN,19293.37897175,19293.402861834,19295.079578375,NaN,NaN
118,14,2,usability,0,kitchen,sun_abpwyqmlzafvklqo.tif,182,1.5,0,0.983333333333333,19295.098933959,19297.587972959,3,NaN,19297.597420459,19297.615704834,19298.592379709,NaN,NaN
118,15,2,usability,0,kitchen,sun_abdenxonkemggwsq.tif,179,1.5,0,1.33333333333333,19298.596733542,19301.030539625,3,NaN,19301.058684459,19301.082951084,19302.409713209,NaN,NaN
118,16,2,usability,0,kitchen,sun_acgtpgfybqjmzeyw.tif,185,1.5,0,1.56666666666667,19302.42605,19304.867927875,3,NaN,19304.8741405,19304.892494959,19306.452550709,NaN,NaN
118,17,2,usability,0,kitchen,sun_ahspylgoovwmwvgk.tif,203,1.5,0,1.66666666666667,19306.47076,19308.803889667,5,NaN,19308.810117584,19308.828465709,19310.488521292,NaN,NaN
118,18,2,usability,0,kitchen,sun_auticobqsbwgoppi.tif,214,1.5,0,1.86666666666667,19310.508374917,19314.516355917,6,NaN,19314.522232917,19314.540664125,19316.400719959,NaN,NaN
118,19,2,usability,0,kitchen,sun_aqeaevwwwjoqhzvl.tif,211,1.5,0,1.95,19316.416872709,19318.909075459,1,NaN,19318.929522959,19318.95101425,19320.894416459,NaN,NaN
118,20,2,usability,0,kitchen,sun_acfmftudsenhrfhy.tif,184,1.5,0,0.966666666666667,19320.912557,19323.472969292,4,NaN,19323.502456959,19323.525947625,19324.4859555,NaN,NaN
118,21,2,usability,0,kitchen,sun_abrcnpqqhmjwekyf.tif,183,1.5,0,1.43333333333333,19324.490641334,19327.030979917,6,NaN,19327.05274375,19327.075996042,19328.502723417,NaN,NaN
118,22,2,usability,0,kitchen,sun_ahdycvpopffkzzsu.tif,200,1.5,0,0.85,19328.521229125,19331.484884209,3,NaN,19331.490687709,19331.509167417,19332.352510417,NaN,NaN
118,23,2,usability,0,kitchen,sun_ahljzhgcdpomplvg.tif,201,1.5,0,1.53333333333333,19332.364095334,19335.295267625,5,NaN,19335.321725709,19335.34524575,19336.871985084,NaN,NaN
118,24,2,usability,0,kitchen,sun_akchetnepxlcxhsu.tif,208,1.5,0,1.18333333333333,19336.890648667,19339.307832792,7,NaN,19339.314122459,19339.332706334,19340.509438834,NaN,NaN
118,25,2,usability,0,kitchen,sun_aarfiyshqohlwkmo.tif,177,1.5,0,1.86666666666667,19340.520268167,19342.756730709,5,NaN,19342.762417709,19342.781042084,19344.641127459,NaN,NaN
