sub_num,trial,block,task,is_practice,category,image,texture,duration,mask_dur,jitter,stim_time,time_of_resp,trial_response,mask_time,fix_time,jit_onset,trial_end,trial_accuracy,RT
123,6,0,usability,1,kitchen,kitchen_practice2.tif,227,1.5,0,1.13333333333333,3971.363918458,3974.92903925,2,NaN,3974.934917833,3974.953166125,3976.079923958,NaN,NaN
123,7,0,usability,1,kitchen,kitchen_practice3.tif,228,1.5,0,0.933333333333333,3976.0889795,3979.201096125,7,NaN,3979.206486958,3979.225341333,3980.152013791,NaN,NaN
123,8,0,usability,1,kitchen,kitchen_practice1.tif,226,1.5,0,1.48333333333333,3980.15640325,3983.49614525,5,NaN,3983.5022765,3983.520771875,3984.99749625,NaN,NaN
123,9,0,usability,1,kitchen,kitchen_practice4.tif,229,1.5,0,1.33333333333333,3985.015388541,3987.840405,6,NaN,3987.845963791,3987.864321416,3989.191078958,NaN,NaN
123,10,0,usability,1,kitchen,kitchen_practice5.tif,230,1.5,0,1.3,3989.211846666,3992.776152666,6,NaN,3992.781906541,3992.800410208,3994.093821833,NaN,NaN
123,1,1,usability,0,kitchen,sun_amjjdeyrggfqgmom.tif,210,1.5,0,1.91666666666667,3998.55707825,4001.2693685,5,NaN,4001.297485958,4001.321537583,4003.231626375,NaN,NaN
123,2,1,usability,0,kitchen,sun_aymvwlarqodbwuoc.tif,218,1.5,0,0.85,4003.251244791,4006.489232791,6,NaN,4006.518361833,4006.541845166,4007.385189541,NaN,NaN
123,3,1,usability,0,kitchen,labelme_rykdqxenmhulbdn.tif,173,1.5,0,0.7,4007.391229333,4010.205171833,7,NaN,4010.233864541,4010.257545666,4010.950889958,NaN,NaN
123,4,1,usability,0,kitchen,sun_adgqasybjyktddhj.tif,188,1.5,0,1.6,4010.95567525,4013.609821291,7,NaN,4013.637478791,4013.66108625,4015.254485416,NaN,NaN
123,5,1,usability,0,kitchen,sun_aehawpgmrlhlvcow.tif,191,1.5,0,1.13333333333333,4015.273654,4017.848687708,5,NaN,4017.854097625,4017.87242525,4018.999152458,NaN,NaN
123,6,1,usability,0,kitchen,sun_aadbddgrdsjugojn.tif,174,1.5,0,0.716666666666667,4019.009914958,4021.880455541,4,NaN,4021.885895125,4021.904259791,4022.614269458,NaN,NaN
123,7,1,usability,0,kitchen,sun_acwjdupvyjsugpay.tif,186,1.5,0,1.6,4022.618595333,4025.2217965,6,NaN,4025.250008208,4025.273374166,4026.866776833,NaN,NaN
123,8,1,usability,0,kitchen,sun_aixorpehvfykdynp.tif,205,1.5,0,1.68333333333333,4026.885184625,4029.749002375,6,NaN,4029.775392791,4029.798434625,4031.475178041,NaN,NaN
123,9,1,usability,0,kitchen,sun_auaiucuqpdausiva.tif,212,1.5,0,1.41666666666667,4031.495340375,4034.265156625,5,NaN,4034.293842958,4034.317230375,4035.727318958,NaN,NaN
123,10,1,usability,0,kitchen,sun_aamedkxepzlwuxes.tif,175,1.5,0,1,4035.745690166,4038.672453666,4,NaN,4038.677988125,4038.696378041,4039.689722375,NaN,NaN
123,11,1,usability,0,kitchen,sun_ahpczsiumwwocjkv.tif,202,1.5,0,1.33333333333333,4039.694212541,4042.587794125,5,NaN,4042.612403291,4042.6358525,4043.962618333,NaN,NaN
123,12,1,usability,0,kitchen,sun_aenotlpyftoioydp.tif,192,1.5,0,1.15,4043.980830875,4047.007843,3,NaN,4047.013618625,4047.03205275,4048.175467333,NaN,NaN
123,13,1,usability,0,kitchen,sun_aexklacwqwezaorf.tif,194,1.5,0,1.86666666666667,4048.184476541,4051.832525583,4,NaN,4051.837913,4051.856296458,4053.716377458,NaN,NaN
123,14,1,usability,0,kitchen,sun_aapllqyqlykszopd.tif,176,1.5,0,1.18333333333333,4053.73566825,4056.691887041,4,NaN,4056.720858916,4056.744241125,4057.920984125,NaN,NaN
123,15,1,usability,0,kitchen,sun_ahywdevtimnqcsln.tif,204,1.5,0,1.71666666666667,4057.931168291,4061.128848166,4,NaN,4061.134156291,4061.152466291,4062.862525583,NaN,NaN
123,16,1,usability,0,kitchen,sun_aggjlwcdjsjcaemh.tif,196,1.5,0,1.1,4062.880902208,4066.258021083,5,NaN,4066.287199041,4066.311100708,4067.404491666,NaN,NaN
123,17,1,usability,0,kitchen,sun_acxkpeoqbwcxfvip.tif,187,1.5,0,0.983333333333333,4067.414946625,4070.503780625,5,NaN,4070.509653916,4070.527936416,4071.504611208,NaN,NaN
123,18,1,usability,0,kitchen,sun_aeqdocilnnpuvuhx.tif,193,1.5,0,0.916666666666667,4071.509878125,4074.394682041,3,NaN,4074.418321583,4074.439752458,4075.349758833,NaN,NaN
123,19,1,usability,0,kitchen,sun_akcjzhbbjlbogpdi.tif,209,1.5,0,0.716666666666667,4075.354314291,4078.512713375,2,NaN,4078.518042916,4078.536447083,4079.246455041,NaN,NaN
123,20,1,usability,0,kitchen,sun_ajcbwwvdlsvjyzje.tif,206,1.5,0,0.883333333333333,4079.250846041,4082.583911875,6,NaN,4082.589574166,4082.608118833,4083.484792041,NaN,NaN
123,21,1,usability,0,kitchen,sun_azmutvzbxypaceni.tif,220,1.5,0,1.93333333333333,4083.489000833,4086.840178375,5,NaN,4086.845676833,4086.864106541,4088.7908725,NaN,NaN
123,22,1,usability,0,kitchen,sun_awcpdzzznmweyyhv.tif,216,1.5,0,0.9,4088.811745041,4091.40148075,1,NaN,4091.430853708,4091.454157291,4092.347501583,NaN,NaN
123,23,1,usability,0,kitchen,sun_aunzlwrbjumxhwdj.tif,213,1.5,0,1.13333333333333,4092.352074125,4095.060661541,1,NaN,4095.08309275,4095.106243833,4096.232974208,NaN,NaN
123,24,1,usability,0,kitchen,labelme_kxvouciolcpqplr.tif,172,1.5,0,0.766666666666667,4096.243181958,4099.216209875,2,NaN,4099.221740333,4099.240158666,4100.000169208,NaN,NaN
123,25,1,usability,0,kitchen,sun_agubuxuukhzyzpdp.tif,198,1.5,0,0.966666666666667,4100.004332625,4102.862926458,4,NaN,4102.894103583,4102.916780541,4103.876792041,NaN,NaN
123,1,2,usability,0,kitchen,sun_ajkqhtgcbgpcwrwn.tif,207,1.5,0,1.56666666666667,4108.099803666,4111.776151583,4,NaN,4111.781614708,4111.799982875,4113.360060666,NaN,NaN
123,2,2,usability,0,kitchen,sun_avszsnwsbuqfgzbn.tif,215,1.5,0,1.2,4113.379027458,4116.007572208,3,NaN,4116.013236208,4116.031678666,4117.225066125,NaN,NaN
123,3,2,usability,0,kitchen,sun_admlmbcdswaszruo.tif,189,1.5,0,1.73333333333333,4117.239882708,4119.799850833,5,NaN,4119.805474458,4119.8240695,4121.55084225,NaN,NaN
123,4,2,usability,0,kitchen,sun_abdxkyyxwfskuaqb.tif,180,1.5,0,1.61666666666667,4121.569285708,4125.647771333,2,NaN,4125.653604583,4125.671914833,4127.282006875,NaN,NaN
123,5,2,usability,0,kitchen,sun_aypmqwcualkenuoe.tif,219,1.5,0,1.38333333333333,4127.299283875,4130.585309416,2,NaN,4130.611728875,4130.635050416,4132.011806458,NaN,NaN
123,6,2,usability,0,kitchen,sun_agzzivivdpnawacl.tif,199,1.5,0,1.73333333333333,4132.030757,4135.080359541,4,NaN,4135.085820125,4135.104202916,4136.830935583,NaN,NaN
123,7,2,usability,0,kitchen,sun_aaxxjlsuzvqlgylf.tif,178,1.5,0,1.96666666666667,4136.848108541,4140.183036541,5,NaN,4140.209700708,4140.232781291,4142.192890666,NaN,NaN
123,8,2,usability,0,kitchen,sun_abftihopvusyfakt.tif,181,1.5,0,0.883333333333333,4142.207411208,4145.975721625,4,NaN,4145.981384166,4145.999798666,4146.87647325,NaN,NaN
123,9,2,usability,0,kitchen,sun_agorklincwxrdtga.tif,197,1.5,0,1.06666666666667,4146.8806655,4150.656021583,5,NaN,4150.661723208,4150.680034416,4151.740106166,NaN,NaN
123,10,2,usability,0,kitchen,labelme_brsyyvweiuaazfr.tif,171,1.5,0,1.06666666666667,4151.749845583,4154.447856958,3,NaN,4154.453356666,4154.471745125,4155.531819375,NaN,NaN
123,11,2,usability,0,kitchen,sun_afuyedyxivkhecmu.tif,195,1.5,0,0.966666666666667,4155.541101541,4158.400376791,2,NaN,4158.40576075,4158.424564458,4159.384573,NaN,NaN
123,12,2,usability,0,kitchen,sun_aegoxogugdkwpmpj.tif,190,1.5,0,1.78333333333333,4159.390313958,4161.859673041,1,NaN,4161.886525791,4161.90996625,4163.686698833,NaN,NaN
123,13,2,usability,0,kitchen,sun_axyyrmzcupyhlivc.tif,217,1.5,0,1.68333333333333,4163.703768416,4166.435570166,2,NaN,4166.459023958,4166.481368708,4168.15813,NaN,NaN
123,14,2,usability,0,kitchen,sun_abpwyqmlzafvklqo.tif,182,1.5,0,0.983333333333333,4168.177617041,4171.521105666,2,NaN,4171.549779916,4171.573610875,4172.55028625,NaN,NaN
123,15,2,usability,0,kitchen,sun_abdenxonkemggwsq.tif,179,1.5,0,1.33333333333333,4172.555190166,4175.943724541,2,NaN,4175.949216916,4175.967485125,4177.294215916,NaN,NaN
123,16,2,usability,0,kitchen,sun_acgtpgfybqjmzeyw.tif,185,1.5,0,1.56666666666667,4177.314654083,4180.535644666,3,NaN,4180.541274875,4180.559485958,4182.119565875,NaN,NaN
123,17,2,usability,0,kitchen,sun_ahspylgoovwmwvgk.tif,203,1.5,0,1.66666666666667,4182.137148708,4184.799947916,7,NaN,4184.80524925,4184.823667958,4186.483770708,NaN,NaN
123,18,2,usability,0,kitchen,sun_auticobqsbwgoppi.tif,214,1.5,0,1.86666666666667,4186.503289875,4189.332841041,3,NaN,4189.360408791,4189.38430575,4191.244406041,NaN,NaN
123,19,2,usability,0,kitchen,sun_aqeaevwwwjoqhzvl.tif,211,1.5,0,1.95,4191.264283791,4194.919661333,5,NaN,4194.92523075,4194.943393333,4196.886794541,NaN,NaN
123,20,2,usability,0,kitchen,sun_acfmftudsenhrfhy.tif,184,1.5,0,0.966666666666667,4196.906155208,4200.026324875,4,NaN,4200.049933541,4200.073916916,4201.0339275,NaN,NaN
123,21,2,usability,0,kitchen,sun_abrcnpqqhmjwekyf.tif,183,1.5,0,1.43333333333333,4201.038580208,4205.128260333,4,NaN,4205.133628916,4205.1519945,4206.578760166,NaN,NaN
123,22,2,usability,0,kitchen,sun_ahdycvpopffkzzsu.tif,200,1.5,0,0.85,4206.597371583,4210.352126208,6,NaN,4210.357447208,4210.37570775,4211.219051,NaN,NaN
123,23,2,usability,0,kitchen,sun_ahljzhgcdpomplvg.tif,201,1.5,0,1.53333333333333,4211.240286708,4214.728229875,3,NaN,4214.733579625,4214.751847041,4216.278591416,NaN,NaN
123,24,2,usability,0,kitchen,sun_akchetnepxlcxhsu.tif,208,1.5,0,1.18333333333333,4216.296603375,4219.839267208,6,NaN,4219.845012541,4219.863462583,4221.040215333,NaN,NaN
123,25,2,usability,0,kitchen,sun_aarfiyshqohlwkmo.tif,177,1.5,0,1.86666666666667,4221.051883833,4224.30401625,3,NaN,4224.309583,4224.327718166,4226.18779675,NaN,NaN
