sub_num,trial,block,task,is_practice,category,image,texture,duration,mask_dur,jitter,stim_time,time_of_resp,trial_response,mask_time,fix_time,jit_onset,trial_end,trial_accuracy,RT
113,1,0,typicality,1,bathroom,bathroom_practice2.tif,222,1.5,0,1.48333333333333,410.573149541,417.975528916,2,NaN,417.99771275,418.018092958,419.494957916,NaN,NaN
113,2,0,typicality,1,bathroom,bathroom_practice4.tif,224,1.5,0,0.75,419.541711333,428.27162525,4,NaN,428.281614166,428.300451958,429.043796958,NaN,NaN
113,3,0,typicality,1,bathroom,bathroom_practice1.tif,221,1.5,0,1.93333333333333,429.049835833,434.023448333,4,NaN,434.030968541,434.049819666,435.976676083,NaN,NaN
113,4,0,typicality,1,bathroom,bathroom_practice5.tif,225,1.5,0,0.983333333333333,436.013335666,441.687565416,4,NaN,441.695371625,441.714162875,442.69084075,NaN,NaN
113,5,0,typicality,1,bathroom,bathroom_practice3.tif,223,1.5,0,0.883333333333333,442.698384,447.519490541,3,NaN,447.529716333,447.549232,448.425979416,NaN,NaN
113,1,1,typicality,0,bathroom,sun_aapitsgbtktqubfy.tif,122,1.5,0,0.866666666666667,456.02405075,460.342584833,5,NaN,460.349168458,460.367811083,461.227827708,NaN,NaN
113,2,1,typicality,0,bathroom,sun_aleqenyvunhactkl.tif,142,1.5,0,1.03333333333333,461.232338375,465.062953125,4,NaN,465.068997208,465.087400583,466.114096666,NaN,NaN
113,3,1,typicality,0,bathroom,sun_ajlawzvmubibwbpy.tif,140,1.5,0,0.866666666666667,466.123008583,472.879428333,3,NaN,472.884828333,472.903203041,473.763206541,NaN,NaN
113,4,1,typicality,0,bathroom,sun_alkosphxlxwjwgjd.tif,144,1.5,0,1.61666666666667,473.767950708,478.079305,7,NaN,478.085089,478.103512791,479.713569625,NaN,NaN
113,5,1,typicality,0,bathroom,sun_anhioqovhscjqqwb.tif,148,1.5,0,0.883333333333333,479.730784666,483.774705625,3,NaN,483.780484833,483.798843208,484.675514416,NaN,NaN
113,6,1,typicality,0,bathroom,sun_alotolagknyrgtsk.tif,145,1.5,0,0.933333333333333,484.68016125,488.7188235,1,NaN,488.724474708,488.742894083,489.669565333,NaN,NaN
113,7,1,typicality,0,bathroom,sun_aghyqhbptboemmoq.tif,133,1.5,0,1.5,489.6742765,494.4227985,5,NaN,494.429674458,494.447990833,495.941363166,NaN,NaN
113,8,1,typicality,0,bathroom,sun_asfwthctfqerjvxr.tif,159,1.5,0,1.36666666666667,495.959090083,499.758824083,3,NaN,499.764483375,499.782756041,501.142797625,NaN,NaN
113,9,1,typicality,0,bathroom,sun_agyqfjcfkdcydepw.tif,135,1.5,0,0.85,501.161708125,504.671156333,1,NaN,504.676713833,504.695969458,505.539306458,NaN,NaN
113,10,1,typicality,0,bathroom,sun_apeeialkgkuxddgh.tif,152,1.5,0,1.81666666666667,505.543895375,509.399198583,7,NaN,509.404598541,509.422859333,511.232908791,NaN,NaN
113,11,1,typicality,0,bathroom,sun_acegryoqftbzowsg.tif,127,1.5,0,1.28333333333333,511.247523958,515.046601541,4,NaN,515.052118333,515.070449125,516.347149833,NaN,NaN
113,12,1,typicality,0,bathroom,sun_anryaplzeujmzfkd.tif,149,1.5,0,1.23333333333333,516.3664645,519.878878041,3,NaN,519.884367041,519.902644375,521.12935975,NaN,NaN
113,13,1,typicality,0,bathroom,sun_amzlamotzwfkwjco.tif,147,1.5,0,0.883333333333333,521.144319125,525.27059725,2,NaN,525.276308125,525.294627583,526.171299625,NaN,NaN
113,14,1,typicality,0,bathroom,sun_afcoljnjfoxjtgja.tif,130,1.5,0,0.866666666666667,526.175832583,530.079245375,3,NaN,530.084554708,530.102911416,530.962915416,NaN,NaN
113,15,1,typicality,0,bathroom,sun_aclfzgynxzxlbepz.tif,129,1.5,0,1.36666666666667,530.967413458,534.878955583,4,NaN,534.884319166,534.902584375,536.262638375,NaN,NaN
113,16,1,typicality,0,bathroom,sun_acduarbnmmoglmiv.tif,126,1.5,0,1.05,536.280818541,540.0387135,6,NaN,540.044281791,540.06256275,541.10594675,NaN,NaN
113,17,1,typicality,0,bathroom,sun_auzqhkafidnkrwmo.tif,164,1.5,0,1.21666666666667,541.115208041,544.59091625,3,NaN,544.59631575,544.614662291,545.824695375,NaN,NaN
113,18,1,typicality,0,bathroom,sun_aofnryafpsjimzsb.tif,150,1.5,0,0.816666666666667,545.841823958,550.726908916,3,NaN,550.73238375,550.750703125,551.560707666,NaN,NaN
113,19,1,typicality,0,bathroom,sun_apmqjbnwghzuhhzh.tif,156,1.5,0,1,551.565289416,555.599027708,7,NaN,555.604434666,555.622880666,556.616221333,NaN,NaN
113,20,1,typicality,0,bathroom,sun_abjtwfukuwddzted.tif,125,1.5,0,1.21666666666667,556.621384291,559.991012125,7,NaN,559.99650125,560.014922708,561.224956458,NaN,NaN
113,21,1,typicality,0,bathroom,sun_awnqiikzaispgmwo.tif,166,1.5,0,1.46666666666667,561.242749458,564.750412875,5,NaN,564.755906541,564.774285583,566.234341458,NaN,NaN
113,22,1,typicality,0,bathroom,sun_aljolscmmzydegqp.tif,143,1.5,0,1.4,566.254213416,570.750314916,3,NaN,570.755874583,570.77416225,572.167533208,NaN,NaN
113,23,1,typicality,0,bathroom,sun_abapwbhyhkfixyex.tif,124,1.5,0,0.783333333333333,572.183043333,576.718763375,3,NaN,576.72411975,576.74261,577.5192825,NaN,NaN
113,24,1,typicality,0,bathroom,labelme_sfxiulhjbhlyiyt.tif,121,1.5,0,1.21666666666667,577.52378875,580.606515583,6,NaN,580.614931416,580.633866083,581.84390975,NaN,NaN
113,25,1,typicality,0,bathroom,sun_axldvoqbuvuggfmq.tif,167,1.5,0,1.35,581.869447875,585.926864083,6,NaN,585.9323545,585.950784208,587.294179125,NaN,NaN
113,1,2,typicality,0,bathroom,sun_aoybiabnpadelefl.tif,151,1.5,0,1.65,593.863332916,601.182470083,3,NaN,601.187998458,601.206277708,602.849666625,NaN,NaN
113,2,2,typicality,0,bathroom,sun_apkruvsevgegsdwp.tif,154,1.5,0,1.01666666666667,602.865982458,607.054748375,3,NaN,607.060217291,607.078571208,608.088607416,NaN,NaN
113,3,2,typicality,0,bathroom,sun_ahijqszoswveeyji.tif,138,1.5,0,1.58333333333333,608.096123416,611.662855291,5,NaN,611.668331208,611.686657,613.263359708,NaN,NaN
113,4,2,typicality,0,bathroom,sun_aunuadmjocsddsrl.tif,162,1.5,0,0.7,613.280117208,616.846600291,5,NaN,616.852982458,616.871232166,617.564569583,NaN,NaN
113,5,2,typicality,0,bathroom,sun_apkxzenqapsujocq.tif,155,1.5,0,1.23333333333333,617.569116416,621.302180208,4,NaN,621.307465291,621.325745083,622.552463916,NaN,NaN
113,6,2,typicality,0,bathroom,sun_akiytfaagpdsphgz.tif,141,1.5,0,0.816666666666667,622.570440916,626.790110541,5,NaN,626.795741875,626.814104458,627.624108708,NaN,NaN
113,7,2,typicality,0,bathroom,sun_agrwbmhcpmfuwmsg.tif,134,1.5,0,0.733333333333333,627.628395875,633.110175375,3,NaN,633.115862041,633.134183708,633.8608555,NaN,NaN
113,8,2,typicality,0,bathroom,sun_agguqiubmwhqqunb.tif,132,1.5,0,1.15,633.865429,637.622476208,2,NaN,637.627926083,637.646223,638.789602875,NaN,NaN
113,9,2,typicality,0,bathroom,sun_axyrejkiiaqiurjk.tif,169,1.5,0,0.933333333333333,638.799097708,644.342295708,2,NaN,644.347692291,644.366047708,645.29271825,NaN,NaN
113,10,2,typicality,0,bathroom,sun_aavhrsfjbserjtht.tif,123,1.5,0,0.916666666666667,645.297668583,650.862503583,3,NaN,650.868186333,650.886492833,651.796498833,NaN,NaN
113,11,2,typicality,0,bathroom,sun_avhrdrntsqrjzccq.tif,165,1.5,0,1.26666666666667,651.800938333,655.646158375,1,NaN,655.651755708,655.670080666,656.930117291,NaN,NaN
113,12,2,typicality,0,bathroom,sun_aqrpegblszgcoujh.tif,158,1.5,0,0.933333333333333,656.9474175,659.60569475,1,NaN,659.611490416,659.630011583,660.556683875,NaN,NaN
113,13,2,typicality,0,bathroom,sun_ambriybtogmepttm.tif,146,1.5,0,1,660.561308666,671.326125,2,NaN,671.333829666,671.3521405,672.345478791,NaN,NaN
113,14,2,typicality,0,bathroom,sun_acgyywnybuveqsro.tif,128,1.5,0,1,672.350130916,676.077925833,6,NaN,676.083472958,676.101934791,677.0952725,NaN,NaN
113,15,2,typicality,0,bathroom,sun_aggnnqpdorgxpvce.tif,131,1.5,0,1.21666666666667,677.100396916,681.1500685,2,NaN,681.155785666,681.174080166,682.384120125,NaN,NaN
113,16,2,typicality,0,bathroom,sun_apjevzvycyhuqghb.tif,153,1.5,0,1.85,682.401879583,686.430195333,2,NaN,686.435693708,686.454077333,688.297448416,NaN,NaN
113,17,2,typicality,0,bathroom,sun_aspsyogrekjtfozg.tif,160,1.5,0,0.766666666666667,688.31519175,692.438145416,2,NaN,692.443554291,692.46179675,693.221802375,NaN,NaN
113,18,2,typicality,0,bathroom,sun_axxbkopsgyouuebh.tif,168,1.5,0,0.966666666666667,693.2262915,696.709660041,6,NaN,696.715706541,696.734335666,697.694339791,NaN,NaN
113,19,2,typicality,0,bathroom,sun_ahaulkltgpkeeemi.tif,136,1.5,0,1.4,697.698972958,702.637607208,6,NaN,702.6433435,702.661607625,704.054984291,NaN,NaN
113,20,2,typicality,0,bathroom,sun_apynckhmoftszqoq.tif,157,1.5,0,0.933333333333333,704.071092291,707.366251583,6,NaN,707.371627916,707.38993425,708.316606041,NaN,NaN
113,21,2,typicality,0,bathroom,sun_ahqjwnzgolcaoidx.tif,139,1.5,0,1.7,708.3211775,711.822259708,7,NaN,711.827743583,711.846005125,713.539371625,NaN,NaN
113,22,2,typicality,0,bathroom,sun_ahcvzmoyaycdoftf.tif,137,1.5,0,0.916666666666667,713.548550458,716.88120675,7,NaN,716.909985625,716.93294075,717.842945583,NaN,NaN
113,23,2,typicality,0,bathroom,sun_ausgutylgojavyoq.tif,163,1.5,0,0.833333333333333,717.85927175,722.213982416,5,NaN,722.219306,722.237662583,723.064332541,NaN,NaN
113,24,2,typicality,0,bathroom,sun_azqyogdvyhahyram.tif,170,1.5,0,0.783333333333333,723.068750166,727.053982708,6,NaN,727.059515916,727.07797925,727.854652,NaN,NaN
113,25,2,typicality,0,bathroom,sun_atstyziqcmkahyxk.tif,161,1.5,0,1.4,727.859299083,731.229517041,6,NaN,731.235021041,731.253288833,732.646675375,NaN,NaN
