sub_num,trial,block,task,is_practice,category,image,texture,duration,mask_dur,jitter,stim_time,time_of_resp,trial_response,mask_time,fix_time,jit_onset,trial_end,trial_accuracy,RT
136,1,22,categorization,0,bathroom,SHINEd_sun_apjevzvycyhuqghb.tif,43,0.0666666666666667,0.0666666666666667,1.25,8462.519850459,8463.09214475,9,8462.58262925,8462.643134125,8463.111782625,8464.35515975,0,0.572294290999707
136,2,22,categorization,0,kitchen,SHINEd_sun_abpwyqmlzafvklqo.tif,72,0.0666666666666667,0.0666666666666667,1.81666666666667,8464.368843292,8464.903684959,9,8464.433658917,8464.5008785,8464.923440042,8466.733471209,1,0.534841666998545
136,3,22,categorization,0,bathroom,SHINEd_sun_agguqiubmwhqqunb.tif,22,0.0666666666666667,0.0666666666666667,1.38333333333333,8466.75262025,8467.446125209,9,8466.819010667,8466.885982542,8467.476532417,8468.853239334,0,0.693504959001075
136,4,22,categorization,0,bathroom,SHINEd_sun_aleqenyvunhactkl.tif,32,0.0666666666666667,0.0666666666666667,1.16666666666667,8468.875673875,8469.417294334,13,8468.942723,8469.009455584,8469.43121175,8470.591245459,1,0.541620459000114
136,5,22,categorization,0,kitchen,SHINEd_sun_aadbddgrdsjugojn.tif,64,0.0666666666666667,0.0666666666666667,1.28333333333333,8470.608108292,8471.159018792,9,8470.675204167,8470.741920667,8471.182379292,8472.459088625,1,0.550910499998281
136,6,22,categorization,0,bathroom,SHINEd_sun_axyrejkiiaqiurjk.tif,59,0.0666666666666667,0.0666666666666667,0.716666666666667,8472.469472584,8473.027258959,9,8472.535069,8472.603353709,8473.039072459,8473.749077125,0,0.557786375000433
136,7,22,categorization,0,bathroom,SHINEd_sun_apkxzenqapsujocq.tif,45,0.0666666666666667,0.0666666666666667,0.75,8473.755327834,8474.331417584,13,8473.816999334,8473.878713709,8474.347296709,8475.090634292,1,0.576089750000392
136,8,22,categorization,0,kitchen,SHINEd_sun_adgqasybjyktddhj.tif,78,0.0666666666666667,0.0666666666666667,1.26666666666667,8475.095242834,8475.699599584,9,8475.15695025,8475.21813825,8475.703476792,8476.963541625,1,0.604356750000079
136,9,22,categorization,0,bathroom,SHINEd_sun_apynckhmoftszqoq.tif,47,0.0666666666666667,0.0666666666666667,1.31666666666667,8476.980096542,8477.605134459,13,8477.046939084,8477.113659834,8477.619009667,8478.929055875,1,0.625037916999645
136,10,22,categorization,0,bathroom,SHINEd_sun_aclfzgynxzxlbepz.tif,19,0.0666666666666667,0.0666666666666667,1.28333333333333,8478.94600825,8479.680984959,13,8479.012426334,8479.079938875,8479.70334175,8480.980058542,1,0.734976708999966
136,11,22,categorization,0,bathroom,SHINEd_sun_aqrpegblszgcoujh.tif,48,0.0666666666666667,0.0666666666666667,0.95,8480.990815667,8481.599610667,13,8481.057045292,8481.12418875,8481.630984667,8482.574352125,1,0.6087950000001
136,12,22,categorization,0,kitchen,SHINEd_sun_agzzivivdpnawacl.tif,89,0.0666666666666667,0.0666666666666667,1.21666666666667,8482.584812334,8483.15611575,9,8482.651291792,8482.718438125,8483.171049417,8484.381089542,1,0.571303415999864
136,13,22,categorization,0,bathroom,SHINEd_sun_agyqfjcfkdcydepw.tif,25,0.0666666666666667,0.0666666666666667,1.15,8484.389696125,8485.040522584,9,8484.454410417,8484.521203459,8485.060988834,8486.204359459,0,0.650826459001109
136,14,22,categorization,0,kitchen,SHINEd_sun_acfmftudsenhrfhy.tif,74,0.0666666666666667,0.0666666666666667,0.916666666666667,8486.216350542,8486.851634209,9,8486.278697167,8486.339215417,8486.85788525,8487.767889959,1,0.635283667001204
136,15,22,categorization,0,bathroom,SHINEd_sun_ausgutylgojavyoq.tif,53,0.0666666666666667,0.0666666666666667,1.86666666666667,8487.773067167,8488.41993625,13,8487.834625292,8487.895926834,8488.431033667,8490.291083084,1,0.646869083000638
136,16,22,categorization,0,kitchen,SHINEd_sun_abdxkyyxwfskuaqb.tif,70,0.0666666666666667,0.0666666666666667,0.766666666666667,8490.308243959,8490.884716125,9,8490.37207275,8490.440466042,8490.913267917,8491.673273375,1,0.576472165999803
136,17,22,categorization,0,bathroom,SHINEd_sun_afcoljnjfoxjtgja.tif,20,0.0666666666666667,0.0666666666666667,1.96666666666667,8491.678739792,8492.37916875,9,8491.740378375,8491.801638042,8492.386668875,8494.346720125,0,0.700428957999975
136,18,22,categorization,0,kitchen,SHINEd_sun_aggjlwcdjsjcaemh.tif,86,0.0666666666666667,0.0666666666666667,0.716666666666667,8494.361513709,8495.005062375,9,8494.426449792,8494.491964667,8495.03197875,8495.741982459,1,0.643548665999333
136,19,22,categorization,0,bathroom,SHINEd_sun_acgyywnybuveqsro.tif,18,0.0666666666666667,0.0666666666666667,0.9,8495.747738209,8496.36401625,13,8495.809398625,8495.870649292,8496.372212084,8497.265548417,1,0.616278040999532
136,20,22,categorization,0,bathroom,SHINEd_sun_alotolagknyrgtsk.tif,35,0.0666666666666667,0.0666666666666667,0.866666666666667,8497.273028292,8497.843363834,9,8497.334818584,8497.3958565,8497.847897542,8498.707901834,0,0.570335541999157
136,21,22,categorization,0,kitchen,SHINEd_sun_akchetnepxlcxhsu.tif,98,0.0666666666666667,0.0666666666666667,0.8,8498.713174584,8499.44377625,9,8498.774769,8498.836274417,8499.455197542,8500.248534042,1,0.730601666000439
136,22,22,categorization,0,kitchen,SHINEd_sun_ahljzhgcdpomplvg.tif,91,0.0666666666666667,0.0666666666666667,0.966666666666667,8500.253766875,8501.003775584,9,8500.315601542,8500.376748542,8501.012321959,8501.972327125,1,0.750008709001122
136,23,22,categorization,0,bathroom,SHINEd_labelme_sfxiulhjbhlyiyt.tif,11,0.0666666666666667,0.0666666666666667,0.983333333333333,8501.977761,8502.660106125,13,8502.039341084,8502.100569375,8502.669184542,8503.645854542,1,0.682345125000211
136,24,22,categorization,0,kitchen,SHINEd_sun_ahywdevtimnqcsln.tif,94,0.0666666666666667,0.0666666666666667,0.75,8503.651082209,8504.187951084,9,8503.71274725,8503.773874375,8504.192872667,8504.936212375,1,0.536868875000437
136,25,22,categorization,0,bathroom,SHINEd_sun_aofnryafpsjimzsb.tif,40,0.0666666666666667,0.0666666666666667,1.35,8504.942101417,8507.275382375,13,8505.003858584,8505.064958959,8507.284447042,8508.627829875,1,2.33328095800061
136,26,22,categorization,0,kitchen,SHINEd_sun_aaxxjlsuzvqlgylf.tif,68,0.0666666666666667,0.0666666666666667,0.7,8508.645756584,8509.209170834,9,8508.712458625,8508.779151584,8509.2356245,8509.929015792,1,0.563414250000278
136,27,22,categorization,0,bathroom,SHINEd_sun_aoybiabnpadelefl.tif,41,0.0666666666666667,0.0666666666666667,1.36666666666667,8509.944698292,8510.490972667,9,8510.011335584,8510.078107042,8510.497117709,8511.857170875,0,0.546274374999484
136,28,22,categorization,0,kitchen,SHINEd_sun_awcpdzzznmweyyhv.tif,106,0.0666666666666667,0.0666666666666667,1.88333333333333,8511.874241125,8512.493850042,9,8511.940675167,8512.00760825,8512.513043375,8514.389755917,1,0.619608916998914
136,29,22,categorization,0,bathroom,SHINEd_sun_axldvoqbuvuggfmq.tif,57,0.0666666666666667,0.0666666666666667,1.76666666666667,8514.399349625,8515.0295275,9,8514.464305542,8514.532686084,8515.055645542,8516.815679167,0,0.6301778750003
136,30,22,categorization,0,bathroom,SHINEd_sun_awnqiikzaispgmwo.tif,56,0.0666666666666667,0.0666666666666667,1.9,8516.83327875,8518.086619042,13,8516.899606125,8516.966727042,8518.103997875,8519.997389125,1,1.25334029199985
136,31,22,categorization,0,bathroom,SHINEd_sun_ahcvzmoyaycdoftf.tif,27,0.0666666666666667,0.0666666666666667,1.05,8520.015213959,8520.737531084,13,8520.082332459,8520.148915917,8520.7564915,8521.799866334,1,0.722317124998881
136,32,22,categorization,0,kitchen,SHINEd_sun_aamedkxepzlwuxes.tif,65,0.0666666666666667,0.0666666666666667,1.15,8521.811646334,8522.475967542,9,8521.876469209,8521.943751292,8522.499289417,8523.642673959,1,0.664321207999819
136,33,22,categorization,0,kitchen,SHINEd_sun_ahspylgoovwmwvgk.tif,93,0.0666666666666667,0.0666666666666667,1.5,8523.659926709,8524.363564459,9,8523.726599334,8523.793715875,8524.378955625,8525.872340417,1,0.703637749998961
136,34,22,categorization,0,kitchen,SHINEd_sun_abrcnpqqhmjwekyf.tif,73,0.0666666666666667,0.0666666666666667,0.983333333333333,8525.890764459,8526.847893292,9,8525.957408375,8526.024404834,8526.863490625,8527.840163792,1,0.957128833000752
136,35,22,categorization,0,bathroom,SHINEd_sun_ahijqszoswveeyji.tif,28,0.0666666666666667,0.0666666666666667,1.36666666666667,8527.846088625,8528.891169459,13,8527.907818209,8527.968953875,8528.904562667,8530.264601584,1,1.04508083400106
136,36,22,categorization,0,kitchen,SHINEd_sun_aehawpgmrlhlvcow.tif,81,0.0666666666666667,0.0666666666666667,1.28333333333333,8530.2818315,8530.861632584,9,8530.348937209,8530.413862,8530.887136417,8532.163846542,1,0.579801083998973
136,37,22,categorization,0,kitchen,SHINEd_sun_aapllqyqlykszopd.tif,66,0.0666666666666667,0.0666666666666667,0.916666666666667,8532.181534167,8533.024341834,9,8532.248468709,8532.315127334,8533.055465125,8533.965506709,1,0.842807666998851
136,38,22,categorization,0,bathroom,SHINEd_sun_aghyqhbptboemmoq.tif,23,0.0666666666666667,0.0666666666666667,0.883333333333333,8533.981161792,8534.794835209,9,8534.047412042,8534.106217667,8534.808111834,8535.68478375,0,0.813673417000246
136,39,22,categorization,0,bathroom,SHINEd_sun_avhrdrntsqrjzccq.tif,55,0.0666666666666667,0.0666666666666667,1.71666666666667,8535.690420334,8536.739127292,9,8535.752066584,8535.813274209,8536.748516334,8538.458560959,0,1.04870695799946
136,40,22,categorization,0,bathroom,SHINEd_sun_apmqjbnwghzuhhzh.tif,46,0.0666666666666667,0.0666666666666667,1.01666666666667,8538.468821834,8539.14330225,13,8538.535305125,8538.601995875,8539.1573175,8540.167351209,1,0.674480416000733
136,41,22,categorization,0,bathroom,SHINEd_sun_abapwbhyhkfixyex.tif,14,0.0666666666666667,0.0666666666666667,1.58333333333333,8540.176951667,8540.717642,9,8540.24247475,8540.308887084,8540.74858475,8542.325289209,0,0.540690333000384
136,42,22,categorization,0,bathroom,SHINEd_sun_atstyziqcmkahyxk.tif,51,0.0666666666666667,0.0666666666666667,0.783333333333333,8542.335419042,8543.045126334,13,8542.400286875,8542.467633584,8543.074173334,8543.850899542,1,0.70970729200053
136,43,22,categorization,0,kitchen,SHINEd_sun_agorklincwxrdtga.tif,87,0.0666666666666667,0.0666666666666667,0.916666666666667,8543.867722375,8544.490815417,9,8543.933854625,8544.001127584,8544.503460292,8545.413464625,1,0.623093042000619
136,44,22,categorization,0,kitchen,SHINEd_sun_aqeaevwwwjoqhzvl.tif,101,0.0666666666666667,0.0666666666666667,0.75,8545.41822275,8546.420022334,9,8545.479938875,8545.541064959,8546.426218834,8547.169557125,1,1.00179958399895
136,45,22,categorization,0,kitchen,SHINEd_sun_ajkqhtgcbgpcwrwn.tif,97,0.0666666666666667,0.0666666666666667,1.46666666666667,8547.175448334,8547.858912084,9,8547.237235667,8547.298412125,8547.866952125,8549.326983667,1,0.683463750001465
136,46,22,categorization,0,bathroom,SHINEd_sun_aggnnqpdorgxpvce.tif,21,0.0666666666666667,0.0666666666666667,0.833333333333333,8549.343698334,8549.969521667,9,8549.410314417,8549.477313042,8549.982809209,8550.809510125,0,0.625823333000881
136,47,22,categorization,0,kitchen,SHINEd_sun_aexklacwqwezaorf.tif,84,0.0666666666666667,0.0666666666666667,1.15,8550.825776875,8551.394938834,9,8550.892504042,8550.957492625,8551.40959625,8552.552980834,1,0.569161958999757
136,48,22,categorization,0,bathroom,SHINEd_sun_acegryoqftbzowsg.tif,17,0.0666666666666667,0.0666666666666667,1.1,8552.561996209,8553.186039667,9,8552.628955667,8552.695783625,8553.201926042,8554.295312209,0,0.624043457999505
136,49,22,categorization,0,bathroom,SHINEd_sun_apkruvsevgegsdwp.tif,44,0.0666666666666667,0.0666666666666667,1.15,8554.3122185,8555.267512417,13,8554.377206125,8554.444590625,8555.280652875,8556.42403775,1,0.955293917000745
136,50,22,categorization,0,kitchen,SHINEd_sun_aypmqwcualkenuoe.tif,109,0.0666666666666667,0.0666666666666667,0.766666666666667,8556.434416625,8556.981425375,9,8556.499490709,8556.5658015,8557.005739417,8557.765791084,1,0.547008749999804
