sub_num,trial,block,task,is_practice,category,image,texture,duration,mask_dur,jitter,stim_time,time_of_resp,trial_response,mask_time,fix_time,jit_onset,trial_end,trial_accuracy,RT
136,1,20,categorization,0,kitchen,SHINEd_sun_abdenxonkemggwsq.tif,69,0.0666666666666667,0.0666666666666667,1.95,8237.342115417,8238.484822959,9,8237.4046875,8237.464978084,8238.5001785,8240.443544584,1,1.14270754200152
136,2,20,categorization,0,kitchen,SHINEd_sun_ajcbwwvdlsvjyzje.tif,96,0.0666666666666667,0.0666666666666667,0.85,8240.451918584,8241.086026,9,8240.516942292,8240.587262667,8241.110276459,8241.953616042,1,0.634107416000916
136,3,20,categorization,0,bathroom,SHINEd_sun_azqyogdvyhahyram.tif,60,0.0666666666666667,0.0666666666666667,0.816666666666667,8241.9595015,8242.65200175,13,8242.021406584,8242.082462209,8242.667609875,8243.477616292,1,0.692500250001103
136,4,20,categorization,0,bathroom,SHINEd_sun_apkruvsevgegsdwp.tif,44,0.0666666666666667,0.0666666666666667,0.983333333333333,8243.483419459,8244.397130375,13,8243.545228167,8243.606224625,8244.408023625,8245.384695459,1,0.913710916000127
136,5,20,categorization,0,kitchen,SHINEd_sun_abdxkyyxwfskuaqb.tif,70,0.0666666666666667,0.0666666666666667,0.75,8245.390828459,8245.972548834,9,8245.45257425,8245.514127292,8245.982956917,8246.726293709,1,0.58172037499935
136,6,20,categorization,0,kitchen,SHINEd_sun_ahywdevtimnqcsln.tif,94,0.0666666666666667,0.0666666666666667,1.48333333333333,8246.73107675,8247.3090065,9,8246.792768667,8246.854134709,8247.32263625,8248.799335334,1,0.577929749999385
136,7,20,categorization,0,kitchen,SHINEd_sun_agubuxuukhzyzpdp.tif,88,0.0666666666666667,0.0666666666666667,0.75,8248.813824417,8249.367433625,9,8248.880498542,8248.947264417,8249.386555167,8250.129932625,1,0.553609208000125
136,8,20,categorization,0,bathroom,SHINEd_sun_anhioqovhscjqqwb.tif,38,0.0666666666666667,0.0666666666666667,1.58333333333333,8250.146612042,8250.724605792,13,8250.213012875,8250.279944375,8250.732373875,8252.309073167,1,0.577993750001042
136,9,20,categorization,0,kitchen,SHINEd_sun_ahdycvpopffkzzsu.tif,90,0.0666666666666667,0.0666666666666667,1.88333333333333,8252.325892,8253.09850225,13,8252.390482125,8252.457924042,8253.113567584,8254.990272334,0,0.772610250000071
136,10,20,categorization,0,kitchen,SHINEd_sun_acwjdupvyjsugpay.tif,76,0.0666666666666667,0.0666666666666667,1.18333333333333,8255.01019975,8255.572789084,9,8255.076977709,8255.144217167,8255.601014084,8256.777726292,1,0.562589334000222
136,11,20,categorization,0,kitchen,SHINEd_sun_ajkqhtgcbgpcwrwn.tif,97,0.0666666666666667,0.0666666666666667,1.65,8256.788177125,8257.44899525,9,8256.855033667,8256.921733834,8257.478668709,8259.122036084,1,0.660818125001242
136,12,20,categorization,0,kitchen,SHINEd_sun_aunzlwrbjumxhwdj.tif,103,0.0666666666666667,0.0666666666666667,1.33333333333333,8259.1363545,8259.782601334,9,8259.202865042,8259.269784917,8259.809694167,8261.136403334,1,0.646246833999612
136,13,20,categorization,0,bathroom,SHINEd_sun_aghyqhbptboemmoq.tif,23,0.0666666666666667,0.0666666666666667,0.95,8261.151386042,8261.775086709,9,8261.218229959,8261.284830834,8261.790979709,8262.734362542,0,0.623700666999866
136,14,20,categorization,0,bathroom,SHINEd_sun_ahqjwnzgolcaoidx.tif,29,0.0666666666666667,0.0666666666666667,1.56666666666667,8262.751219792,8263.508099125,13,8262.8180605,8262.884640417,8263.520625709,8265.080660792,1,0.756879332999233
136,15,20,categorization,0,bathroom,SHINEd_sun_ausgutylgojavyoq.tif,53,0.0666666666666667,0.0666666666666667,1.91666666666667,8265.097598709,8265.787658709,13,8265.164195375,8265.231041375,8265.803418167,8267.713469875,1,0.690059999998994
136,16,20,categorization,0,bathroom,SHINEd_sun_awnqiikzaispgmwo.tif,56,0.0666666666666667,0.0666666666666667,1.75,8267.730424167,8268.668937084,13,8267.797166875,8267.864012667,8268.686684125,8270.430065792,1,0.938512916998661
136,17,20,categorization,0,kitchen,SHINEd_sun_aymvwlarqodbwuoc.tif,108,0.0666666666666667,0.0666666666666667,0.966666666666667,8270.440208084,8271.047306167,9,8270.505800209,8270.573950084,8271.063118125,8272.023123875,1,0.607098083000892
136,18,20,categorization,0,bathroom,SHINEd_sun_aclfzgynxzxlbepz.tif,19,0.0666666666666667,0.0666666666666667,1.15,8272.029104959,8272.764194292,13,8272.090823125,8272.151963167,8272.770598167,8273.913969,1,0.73508933300036
136,19,20,categorization,0,bathroom,SHINEd_sun_auzqhkafidnkrwmo.tif,54,0.0666666666666667,0.0666666666666667,0.733333333333333,8273.923840542,8274.574117292,13,8273.990083459,8274.057285417,8274.597513334,8275.324226,1,0.650276750000558
136,20,20,categorization,0,bathroom,SHINEd_sun_asfwthctfqerjvxr.tif,49,0.0666666666666667,0.0666666666666667,1.41666666666667,8275.338163584,8275.972895667,13,8275.404312292,8275.472054167,8275.991154375,8277.401208459,1,0.634732083000927
136,21,20,categorization,0,kitchen,SHINEd_sun_aarfiyshqohlwkmo.tif,67,0.0666666666666667,0.0666666666666667,0.916666666666667,8277.419019667,8277.962960834,9,8277.485560459,8277.552378167,8277.992453834,8278.902496459,1,0.543941166999502
136,22,20,categorization,0,bathroom,SHINEd_sun_axyrejkiiaqiurjk.tif,59,0.0666666666666667,0.0666666666666667,1.05,8278.919305625,8279.732576709,9,8278.986038042,8279.05249675,8279.738212459,8280.781595584,0,0.813271084000007
136,23,20,categorization,0,bathroom,SHINEd_sun_ahaulkltgpkeeemi.tif,26,0.0666666666666667,0.0666666666666667,1,8280.792011459,8281.39162775,13,8280.856770917,8280.92390275,8281.413410209,8282.406797209,1,0.59961629099962
136,24,20,categorization,0,bathroom,SHINEd_sun_afcoljnjfoxjtgja.tif,20,0.0666666666666667,0.0666666666666667,0.766666666666667,8282.416106417,8283.02903075,9,8282.481049959,8282.549478834,8283.035286792,8283.795291417,0,0.612924332999683
136,25,20,categorization,0,bathroom,SHINEd_sun_aoybiabnpadelefl.tif,41,0.0666666666666667,0.0666666666666667,0.783333333333333,8283.800679792,8284.4210775,9,8283.862442834,8283.923661959,8284.425387209,8285.202057584,0,0.620397707998563
136,26,20,categorization,0,bathroom,SHINEd_labelme_sfxiulhjbhlyiyt.tif,11,0.0666666666666667,0.0666666666666667,1.45,8285.207740084,8285.948473292,13,8285.269372209,8285.330630875,8285.966210834,8287.409579417,1,0.740733207998346
136,27,20,categorization,0,bathroom,SHINEd_sun_aavhrsfjbserjtht.tif,13,0.0666666666666667,0.0666666666666667,1.15,8287.42717925,8288.004975167,9,8287.493702042,8287.56056325,8288.033713584,8289.177094834,0,0.577795916999094
136,28,20,categorization,0,kitchen,SHINEd_labelme_rykdqxenmhulbdn.tif,63,0.0666666666666667,0.0666666666666667,1.35,8289.191304834,8290.092744709,9,8289.257705334,8289.325129125,8290.115020167,8291.458407375,1,0.901439875000506
136,29,20,categorization,0,bathroom,SHINEd_sun_axldvoqbuvuggfmq.tif,57,0.0666666666666667,0.0666666666666667,1.26666666666667,8291.473773792,8292.885980667,13,8291.540604042,8291.60743025,8292.916649167,8294.176696,1,1.41220687500027
136,30,20,categorization,0,kitchen,SHINEd_sun_aenotlpyftoioydp.tif,82,0.0666666666666667,0.0666666666666667,1.05,8294.194030792,8294.795720792,9,8294.260889459,8294.327880167,8294.818097417,8295.861464834,1,0.601690000001327
136,31,20,categorization,0,kitchen,SHINEd_sun_aehawpgmrlhlvcow.tif,81,0.0666666666666667,0.0666666666666667,0.8,8295.874115084,8296.379925167,9,8295.94111225,8295.9991135,8296.384131417,8297.177470292,1,0.505810083001052
136,32,20,categorization,0,kitchen,SHINEd_sun_aqeaevwwwjoqhzvl.tif,101,0.0666666666666667,0.0666666666666667,0.866666666666667,8297.1820915,8297.9085635,9,8297.243784584,8297.30491925,8297.923840834,8298.783844459,1,0.726471999998466
136,33,20,categorization,0,kitchen,SHINEd_sun_auticobqsbwgoppi.tif,104,0.0666666666666667,0.0666666666666667,0.866666666666667,8298.789982042,8299.316310584,9,8298.851713125,8298.912838917,8299.331212375,8300.191215917,1,0.526328541998737
136,34,20,categorization,0,kitchen,SHINEd_sun_aamedkxepzlwuxes.tif,65,0.0666666666666667,0.0666666666666667,1.53333333333333,8300.196722792,8300.723782,9,8300.258273709,8300.319578459,8300.738413292,8302.265129625,1,0.527059207999628
136,35,20,categorization,0,bathroom,SHINEd_sun_ambriybtogmepttm.tif,36,0.0666666666666667,0.0666666666666667,1.66666666666667,8302.2825555,8302.879798834,9,8302.348815417,8302.414331334,8302.903834584,8304.563877042,0,0.597243333999359
136,36,20,categorization,0,kitchen,SHINEd_sun_abpwyqmlzafvklqo.tif,72,0.0666666666666667,0.0666666666666667,1.95,8304.580920334,8305.137481625,9,8304.646913959,8304.714701167,8305.154046375,8307.097417584,1,0.556561291001344
136,37,20,categorization,0,kitchen,SHINEd_sun_abrcnpqqhmjwekyf.tif,73,0.0666666666666667,0.0666666666666667,1.3,8307.114442542,8307.689476334,9,8307.181580292,8307.248203584,8307.704586459,8308.997975,1,0.575033791999886
136,38,20,categorization,0,kitchen,SHINEd_sun_abftihopvusyfakt.tif,71,0.0666666666666667,0.0666666666666667,1.25,8309.010386375,8309.615033917,9,8309.077234459,8309.144223542,8309.634059584,8310.877434125,1,0.604647542000748
136,39,20,categorization,0,bathroom,SHINEd_sun_aapitsgbtktqubfy.tif,12,0.0666666666666667,0.0666666666666667,1.2,8310.893863709,8311.598482042,13,8310.960606709,8311.027582125,8311.61751775,8312.8108945,1,0.704618333000326
136,40,20,categorization,0,bathroom,SHINEd_sun_ajlawzvmubibwbpy.tif,30,0.0666666666666667,0.0666666666666667,1.61666666666667,8312.827940084,8313.4678685,9,8312.889951209,8312.951021917,8313.486161917,8315.096206042,0,0.639928415999748
136,41,20,categorization,0,bathroom,SHINEd_sun_acegryoqftbzowsg.tif,17,0.0666666666666667,0.0666666666666667,1.65,8315.111067875,8315.863708792,13,8315.174995917,8315.241617459,8315.879420084,8317.522786625,1,0.752640917000463
136,42,20,categorization,0,bathroom,SHINEd_sun_aljolscmmzydegqp.tif,33,0.0666666666666667,0.0666666666666667,0.9,8317.546491459,8318.304535625,13,8317.613608959,8317.68080725,8318.320235375,8319.21357525,1,0.758044166001127
136,43,20,categorization,0,kitchen,SHINEd_sun_awcpdzzznmweyyhv.tif,106,0.0666666666666667,0.0666666666666667,0.816666666666667,8319.220069792,8319.700878334,9,8319.281810167,8319.343016334,8319.711840792,8320.521846,1,0.480808542000887
136,44,20,categorization,0,bathroom,SHINEd_sun_axxbkopsgyouuebh.tif,58,0.0666666666666667,0.0666666666666667,1.86666666666667,8320.526522459,8321.116285292,13,8320.588293625,8320.649528625,8321.134513334,8322.994996292,1,0.58976283300035
136,45,20,categorization,0,kitchen,SHINEd_sun_agorklincwxrdtga.tif,87,0.0666666666666667,0.0666666666666667,1.38333333333333,8323.009960792,8323.611633542,9,8323.075618167,8323.14268425,8323.633231667,8325.010180625,1,0.601672749999125
136,46,20,categorization,0,kitchen,SHINEd_sun_aegoxogugdkwpmpj.tif,80,0.0666666666666667,0.0666666666666667,1.63333333333333,8325.028347709,8325.55987425,9,8325.095583625,8325.162503125,8325.586009625,8327.212731459,1,0.531526541000858
136,47,20,categorization,0,kitchen,SHINEd_sun_axyyrmzcupyhlivc.tif,107,0.0666666666666667,0.0666666666666667,1.56666666666667,8327.230709042,8328.352871542,9,8327.297517334,8327.364580959,8328.368848959,8329.928908209,1,1.12216249999983
136,48,20,categorization,0,bathroom,SHINEd_sun_agguqiubmwhqqunb.tif,22,0.0666666666666667,0.0666666666666667,1.21666666666667,8329.94684575,8330.580199667,9,8330.013766292,8330.080664625,8330.603121834,8331.81317,0,0.633353916999113
136,49,20,categorization,0,bathroom,SHINEd_sun_aofnryafpsjimzsb.tif,40,0.0666666666666667,0.0666666666666667,0.716666666666667,8331.831782459,8332.536191667,13,8331.898577292,8331.966013042,8332.556462167,8333.266518459,1,0.70440920800138
136,50,20,categorization,0,kitchen,SHINEd_sun_ahpczsiumwwocjkv.tif,92,0.0666666666666667,0.0666666666666667,0.966666666666667,8333.282797125,8333.852522584,9,8333.34949175,8333.416800417,8333.869777084,8334.829781917,1,0.569725458999528
