sub_num,trial,block,task,is_practice,category,image,texture,duration,mask_dur,jitter,stim_time,time_of_resp,trial_response,mask_time,fix_time,jit_onset,trial_end,trial_accuracy,RT
131,1,0,aesthetic,1,bathroom,bathroom_practice1.tif,221,1.5,0,1.6,11604.22038325,11609.343321833,3,NaN,11609.349703375,11609.3680585,11610.961488916,NaN,NaN
131,2,0,aesthetic,1,bathroom,bathroom_practice2.tif,222,1.5,0,1.26666666666667,11610.977618083,11613.642690041,1,NaN,11613.671717375,11613.695011666,11614.955074,NaN,NaN
131,3,0,aesthetic,1,bathroom,bathroom_practice3.tif,223,1.5,0,1.15,11614.97381575,11617.75193475,5,NaN,11617.757524208,11617.775820875,11618.919255625,NaN,NaN
131,4,0,aesthetic,1,bathroom,bathroom_practice4.tif,224,1.5,0,1.75,11618.929870833,11622.342842083,1,NaN,11622.348977875,11622.36725425,11624.110660833,NaN,NaN
131,5,0,aesthetic,1,bathroom,bathroom_practice5.tif,225,1.5,0,0.85,11624.1292145,11628.191027875,3,NaN,11628.19663575,11628.21521075,11629.058550583,NaN,NaN
131,1,1,aesthetic,0,bathroom,sun_acgyywnybuveqsro.tif,128,1.5,0,0.933333333333333,11633.29681325,11636.38309775,7,NaN,11636.390879625,11636.40926525,11637.335942916,NaN,NaN
131,2,1,aesthetic,0,bathroom,sun_ahcvzmoyaycdoftf.tif,137,1.5,0,1.18333333333333,11637.340422,11640.046309625,7,NaN,11640.073859083,11640.097591041,11641.274355708,NaN,NaN
131,3,1,aesthetic,0,bathroom,sun_ahqjwnzgolcaoidx.tif,139,1.5,0,1.56666666666667,11641.2861425,11644.407612291,3,NaN,11644.413091791,11644.431545791,11645.99164275,NaN,NaN
131,4,1,aesthetic,0,bathroom,sun_ambriybtogmepttm.tif,146,1.5,0,1.38333333333333,11646.010512875,11649.20740825,2,NaN,11649.213156625,11649.231638583,11650.608374166,NaN,NaN
131,5,1,aesthetic,0,bathroom,sun_apkruvsevgegsdwp.tif,154,1.5,0,1.23333333333333,11650.627462125,11653.735271833,1,NaN,11653.741073,11653.759453666,11654.986190125,NaN,NaN
131,6,1,aesthetic,0,bathroom,sun_apkxzenqapsujocq.tif,155,1.5,0,1.83333333333333,11655.005065625,11659.078875791,5,NaN,11659.085052791,11659.103347333,11660.930116416,NaN,NaN
131,7,1,aesthetic,0,bathroom,sun_agyqfjcfkdcydepw.tif,135,1.5,0,1.1,11660.950185541,11664.025050333,1,NaN,11664.054531541,11664.078038416,11665.171429083,NaN,NaN
131,8,1,aesthetic,0,bathroom,sun_anhioqovhscjqqwb.tif,148,1.5,0,1.71666666666667,11665.180012166,11668.423596833,7,NaN,11668.429111708,11668.447519208,11670.157615166,NaN,NaN
131,9,1,aesthetic,0,bathroom,sun_alotolagknyrgtsk.tif,145,1.5,0,1.01666666666667,11670.176901083,11673.377876125,1,NaN,11673.397343416,11673.418994916,11674.429085375,NaN,NaN
131,10,1,aesthetic,0,bathroom,sun_auzqhkafidnkrwmo.tif,164,1.5,0,1.36666666666667,11674.436917166,11679.559621958,5,NaN,11679.565482333,11679.584910083,11680.945009208,NaN,NaN
131,11,1,aesthetic,0,bathroom,sun_agguqiubmwhqqunb.tif,132,1.5,0,0.75,11680.9618275,11684.75910375,4,NaN,11684.764979375,11684.783325208,11685.526668916,NaN,NaN
131,12,1,aesthetic,0,bathroom,sun_acduarbnmmoglmiv.tif,126,1.5,0,1.31666666666667,11685.531362125,11688.606583083,2,NaN,11688.621459541,11688.641439666,11689.951522375,NaN,NaN
131,13,1,aesthetic,0,bathroom,sun_aclfzgynxzxlbepz.tif,129,1.5,0,1.33333333333333,11689.969275791,11693.75098825,3,NaN,11693.756905333,11693.775214083,11695.101980958,NaN,NaN
131,14,1,aesthetic,0,bathroom,sun_axxbkopsgyouuebh.tif,168,1.5,0,1.41666666666667,11695.119505666,11700.702586,2,NaN,11700.709451583,11700.728054416,11702.138116875,NaN,NaN
131,15,1,aesthetic,0,bathroom,sun_avhrdrntsqrjzccq.tif,165,1.5,0,1.93333333333333,11702.156556291,11705.806816041,2,NaN,11705.81300175,11705.831457916,11707.758209958,NaN,NaN
131,16,1,aesthetic,0,bathroom,sun_ahijqszoswveeyji.tif,138,1.5,0,1.68333333333333,11707.778289833,11710.982592416,6,NaN,11711.012013083,11711.035747916,11712.71250275,NaN,NaN
131,17,1,aesthetic,0,bathroom,sun_atstyziqcmkahyxk.tif,161,1.5,0,0.783333333333333,11712.732092208,11716.774734333,1,NaN,11716.780855375,11716.799177708,11717.5758545,NaN,NaN
131,18,1,aesthetic,0,bathroom,sun_asfwthctfqerjvxr.tif,159,1.5,0,1.93333333333333,11717.580608,11721.007090875,7,NaN,11721.013445875,11721.031820791,11722.958549833,NaN,NaN
131,19,1,aesthetic,0,bathroom,sun_aofnryafpsjimzsb.tif,150,1.5,0,1.18333333333333,11722.976043458,11725.971730291,7,NaN,11726.000931291,11726.024538291,11727.201268166,NaN,NaN
131,20,1,aesthetic,0,bathroom,sun_afcoljnjfoxjtgja.tif,130,1.5,0,1.61666666666667,11727.210712666,11731.974946125,4,NaN,11731.98073175,11731.9990435,11733.609126666,NaN,NaN
131,21,1,aesthetic,0,bathroom,sun_akiytfaagpdsphgz.tif,141,1.5,0,1.16666666666667,11733.62611625,11736.664446958,7,NaN,11736.694324875,11736.718118458,11737.878212,NaN,NaN
131,22,1,aesthetic,0,bathroom,sun_awnqiikzaispgmwo.tif,166,1.5,0,1.85,11737.887783375,11741.254756916,5,NaN,11741.260808833,11741.279169166,11743.122588833,NaN,NaN
131,23,1,aesthetic,0,bathroom,sun_apjevzvycyhuqghb.tif,153,1.5,0,1.68333333333333,11743.140627291,11746.093701375,7,NaN,11746.123466541,11746.146967041,11747.823697666,NaN,NaN
131,24,1,aesthetic,0,bathroom,sun_apynckhmoftszqoq.tif,157,1.5,0,1.98333333333333,11747.84118,11751.838525208,3,NaN,11751.844829666,11751.8631985,11753.839924166,NaN,NaN
131,25,1,aesthetic,0,bathroom,sun_aoybiabnpadelefl.tif,151,1.5,0,1.28333333333333,11753.859425291,11757.638603666,2,NaN,11757.644477791,11757.662828916,11758.939599541,NaN,NaN
131,1,2,aesthetic,0,bathroom,sun_apmqjbnwghzuhhzh.tif,156,1.5,0,0.9,11763.469398541,11766.670395916,1,NaN,11766.677368333,11766.69574125,11767.589085666,NaN,NaN
131,2,2,aesthetic,0,bathroom,sun_aapitsgbtktqubfy.tif,122,1.5,0,1.95,11767.593924,11770.627692041,6,NaN,11770.650396958,11770.668980666,11772.612390583,NaN,NaN
131,3,2,aesthetic,0,bathroom,sun_axyrejkiiaqiurjk.tif,169,1.5,0,1,11772.627801666,11777.398852208,5,NaN,11777.404720208,11777.423045958,11778.41639025,NaN,NaN
131,4,2,aesthetic,0,bathroom,sun_ahaulkltgpkeeemi.tif,136,1.5,0,0.733333333333333,11778.43138475,11781.353161625,1,NaN,11781.377001875,11781.399644625,11782.126317666,NaN,NaN
131,5,2,aesthetic,0,bathroom,sun_amzlamotzwfkwjco.tif,147,1.5,0,1.2,11782.131200166,11786.350759166,5,NaN,11786.356415458,11786.374730291,11787.568096583,NaN,NaN
131,6,2,aesthetic,0,bathroom,sun_aunuadmjocsddsrl.tif,162,1.5,0,1.21666666666667,11787.581668791,11790.478270291,1,NaN,11790.484237625,11790.502560416,11791.712652708,NaN,NaN
131,7,2,aesthetic,0,bathroom,sun_azqyogdvyhahyram.tif,170,1.5,0,0.933333333333333,11791.729157166,11794.614666458,4,NaN,11794.620320125,11794.638659958,11795.565334166,NaN,NaN
131,8,2,aesthetic,0,bathroom,sun_aqrpegblszgcoujh.tif,158,1.5,0,0.916666666666667,11795.570047458,11799.782844125,6,NaN,11799.788470083,11799.806862916,11800.716873916,NaN,NaN
131,9,2,aesthetic,0,bathroom,sun_aspsyogrekjtfozg.tif,160,1.5,0,1.1,11800.721424083,11803.910735666,5,NaN,11803.917854583,11803.936170625,11805.02957175,NaN,NaN
131,10,2,aesthetic,0,bathroom,sun_axldvoqbuvuggfmq.tif,167,1.5,0,1.16666666666667,11805.0393535,11808.070707666,6,NaN,11808.076347666,11808.094713916,11809.25480525,NaN,NaN
131,11,2,aesthetic,0,bathroom,sun_abjtwfukuwddzted.tif,125,1.5,0,0.783333333333333,11809.263047333,11812.54301775,2,NaN,11812.548644083,11812.566871666,11813.343549375,NaN,NaN
131,12,2,aesthetic,0,bathroom,sun_abapwbhyhkfixyex.tif,124,1.5,0,1.95,11813.36425725,11816.154253041,7,NaN,11816.184290708,11816.20787975,11818.151303916,NaN,NaN
131,13,2,aesthetic,0,bathroom,sun_anryaplzeujmzfkd.tif,149,1.5,0,1.05,11818.170359791,11821.92617175,5,NaN,11821.932933166,11821.951212833,11822.994615208,NaN,NaN
131,14,2,aesthetic,0,bathroom,sun_ausgutylgojavyoq.tif,163,1.5,0,1.03333333333333,11823.004263041,11826.950804208,4,NaN,11826.956441916,11826.974837,11828.001570791,NaN,NaN
131,15,2,aesthetic,0,bathroom,sun_aggnnqpdorgxpvce.tif,131,1.5,0,1.45,11828.015337291,11832.92670225,4,NaN,11832.932953125,11832.951243958,11834.394666833,NaN,NaN
131,16,2,aesthetic,0,bathroom,sun_aljolscmmzydegqp.tif,143,1.5,0,0.966666666666667,11834.40896375,11837.110774041,1,NaN,11837.116300541,11837.134454083,11838.094464625,NaN,NaN
131,17,2,aesthetic,0,bathroom,sun_aghyqhbptboemmoq.tif,133,1.5,0,0.966666666666667,11838.099428041,11842.294492208,2,NaN,11842.300594916,11842.318955958,11843.278964291,NaN,NaN
131,18,2,aesthetic,0,bathroom,sun_alkosphxlxwjwgjd.tif,144,1.5,0,1.2,11843.28364475,11846.750820541,6,NaN,11846.756309333,11846.774786458,11847.968210416,NaN,NaN
131,19,2,aesthetic,0,bathroom,sun_apeeialkgkuxddgh.tif,152,1.5,0,0.933333333333333,11847.980017083,11851.630244583,3,NaN,11851.636172,11851.654441125,11852.581116208,NaN,NaN
131,20,2,aesthetic,0,bathroom,sun_aleqenyvunhactkl.tif,142,1.5,0,1.31666666666667,11852.586154666,11857.126124416,3,NaN,11857.132288458,11857.150543666,11858.460606,NaN,NaN
131,21,2,aesthetic,0,bathroom,sun_ajlawzvmubibwbpy.tif,140,1.5,0,1.18333333333333,11858.479619833,11863.96623275,3,NaN,11863.971855375,11863.990214958,11865.166973416,NaN,NaN
131,22,2,aesthetic,0,bathroom,labelme_sfxiulhjbhlyiyt.tif,121,1.5,0,1.71666666666667,11865.176933958,11870.341948583,2,NaN,11870.34822175,11870.366431833,11872.076537666,NaN,NaN
131,23,2,aesthetic,0,bathroom,sun_aavhrsfjbserjtht.tif,123,1.5,0,1.53333333333333,11872.090584,11874.989939875,2,NaN,11874.995950208,11875.014763916,11876.541531083,NaN,NaN
131,24,2,aesthetic,0,bathroom,sun_acegryoqftbzowsg.tif,127,1.5,0,0.933333333333333,11876.561256083,11880.26228675,3,NaN,11880.268042916,11880.286412125,11881.2130885,NaN,NaN
131,25,2,aesthetic,0,bathroom,sun_agrwbmhcpmfuwmsg.tif,134,1.5,0,0.916666666666667,11881.230831375,11884.853841208,6,NaN,11884.860089708,11884.878560291,11885.788569958,NaN,NaN
