sub_num,trial,block,task,is_practice,category,image,texture,duration,mask_dur,jitter,stim_time,time_of_resp,trial_response,mask_time,fix_time,jit_onset,trial_end,trial_accuracy,RT
104,1,0,complexity,1,bathroom,bathroom_practice3.tif,223,1.5,0,1.56666666666667,2436.493268041,2440.184508791,6,NaN,2440.189925208,2440.208222,2441.768267416,NaN,NaN
104,2,0,complexity,1,bathroom,bathroom_practice5.tif,225,1.5,0,1.1,2441.790179916,2446.032200291,6,NaN,2446.037658541,2446.056027708,2447.14940075,NaN,NaN
104,3,0,complexity,1,bathroom,bathroom_practice2.tif,222,1.5,0,1.51666666666667,2447.159406791,2450.479468625,7,NaN,2450.485012,2450.503418958,2452.013467125,NaN,NaN
104,4,0,complexity,1,bathroom,bathroom_practice4.tif,224,1.5,0,1.15,2452.028361875,2455.448096,3,NaN,2455.453618833,2455.471959416,2456.615333958,NaN,NaN
104,5,0,complexity,1,bathroom,bathroom_practice1.tif,221,1.5,0,1.26666666666667,2456.625842833,2460.527912958,2,NaN,2460.533545833,2460.551758541,2461.811805666,NaN,NaN
104,1,1,complexity,0,bathroom,sun_abapwbhyhkfixyex.tif,124,1.5,0,0.75,2468.018995916,2471.6074535,3,NaN,2471.613265,2471.632476375,2472.37581625,NaN,NaN
104,2,1,complexity,0,bathroom,sun_akiytfaagpdsphgz.tif,141,1.5,0,1.28333333333333,2472.381823,2475.904287583,4,NaN,2475.909657916,2475.928039375,2477.204744,NaN,NaN
104,3,1,complexity,0,bathroom,sun_axxbkopsgyouuebh.tif,168,1.5,0,1.76666666666667,2477.222669041,2481.288240625,2,NaN,2481.293607166,2481.312065416,2483.072102583,NaN,NaN
104,4,1,complexity,0,bathroom,sun_abjtwfukuwddzted.tif,125,1.5,0,1.28333333333333,2483.083310708,2486.663507583,2,NaN,2486.669516125,2486.687822666,2487.964524375,NaN,NaN
104,5,1,complexity,0,bathroom,sun_amzlamotzwfkwjco.tif,147,1.5,0,1.8,2487.984042708,2491.711526958,1,NaN,2491.717582666,2491.735866416,2493.529249375,NaN,NaN
104,6,1,complexity,0,bathroom,sun_aofnryafpsjimzsb.tif,150,1.5,0,0.716666666666667,2493.547503,2497.520131041,5,NaN,2497.525575583,2497.543835666,2498.253840666,NaN,NaN
104,7,1,complexity,0,bathroom,sun_asfwthctfqerjvxr.tif,159,1.5,0,1,2498.258109708,2501.783988666,3,NaN,2501.789450666,2501.8078465,2502.801185125,NaN,NaN
104,8,1,complexity,0,bathroom,sun_apjevzvycyhuqghb.tif,153,1.5,0,1.21666666666667,2502.806579541,2506.623603541,6,NaN,2506.629070666,2506.6472455,2507.857287708,NaN,NaN
104,9,1,complexity,0,bathroom,sun_aapitsgbtktqubfy.tif,122,1.5,0,1.55,2507.874797083,2512.303626875,2,NaN,2512.3091355,2512.32743225,2513.870804,NaN,NaN
104,10,1,complexity,0,bathroom,sun_aclfzgynxzxlbepz.tif,129,1.5,0,2,2513.888156208,2517.14313225,3,NaN,2517.149022166,2517.167341166,2519.160716708,NaN,NaN
104,11,1,complexity,0,bathroom,sun_aqrpegblszgcoujh.tif,158,1.5,0,0.716666666666667,2519.175049333,2522.639588541,4,NaN,2522.644934041,2522.663632708,2523.373638666,NaN,NaN
104,12,1,complexity,0,bathroom,sun_awnqiikzaispgmwo.tif,166,1.5,0,0.933333333333333,2523.378781208,2527.087620916,3,NaN,2527.09309725,2527.111533833,2528.03820675,NaN,NaN
104,13,1,complexity,0,bathroom,sun_axyrejkiiaqiurjk.tif,169,1.5,0,1.58333333333333,2528.042769916,2531.535812458,4,NaN,2531.541158291,2531.559611083,2533.136331875,NaN,NaN
104,14,1,complexity,0,bathroom,sun_aspsyogrekjtfozg.tif,160,1.5,0,0.9,2533.153283833,2536.154885041,5,NaN,2536.182940333,2536.206248791,2537.099587583,NaN,NaN
104,15,1,complexity,0,bathroom,sun_anryaplzeujmzfkd.tif,149,1.5,0,1.16666666666667,2537.104246833,2540.143229708,4,NaN,2540.157133625,2540.176509625,2541.336539666,NaN,NaN
104,16,1,complexity,0,bathroom,sun_ausgutylgojavyoq.tif,163,1.5,0,0.733333333333333,2541.3451575,2545.887097583,7,NaN,2545.892866916,2545.911296208,2546.637966833,NaN,NaN
104,17,1,complexity,0,bathroom,sun_ahijqszoswveeyji.tif,138,1.5,0,1.15,2546.642438791,2550.015368041,6,NaN,2550.021615583,2550.039972083,2551.183360333,NaN,NaN
104,18,1,complexity,0,bathroom,sun_acgyywnybuveqsro.tif,128,1.5,0,1.01666666666667,2551.194144458,2554.39143875,4,NaN,2554.396986041,2554.415167083,2555.4251995,NaN,NaN
104,19,1,complexity,0,bathroom,sun_aggnnqpdorgxpvce.tif,131,1.5,0,0.883333333333333,2555.432793375,2560.711128875,4,NaN,2560.716782708,2560.735038083,2561.611710208,NaN,NaN
104,20,1,complexity,0,bathroom,sun_avhrdrntsqrjzccq.tif,165,1.5,0,1.65,2561.616325583,2564.75152525,3,NaN,2564.757929875,2564.776427375,2566.419808708,NaN,NaN
104,21,1,complexity,0,bathroom,sun_aghyqhbptboemmoq.tif,133,1.5,0,0.75,2566.4381545,2569.908504416,3,NaN,2569.936001375,2569.955919833,2570.699258458,NaN,NaN
104,22,1,complexity,0,bathroom,sun_acegryoqftbzowsg.tif,127,1.5,0,1.28333333333333,2570.704437291,2573.490747666,2,NaN,2573.521358666,2573.544932041,2574.821643833,NaN,NaN
104,23,1,complexity,0,bathroom,sun_ambriybtogmepttm.tif,146,1.5,0,1.25,2574.839966125,2578.223573041,1,NaN,2578.22902,2578.247252208,2579.490638166,NaN,NaN
104,24,1,complexity,0,bathroom,sun_agrwbmhcpmfuwmsg.tif,134,1.5,0,0.833333333333333,2579.508416,2582.863433583,1,NaN,2582.868872791,2582.887254833,2583.713926625,NaN,NaN
104,25,1,complexity,0,bathroom,sun_acduarbnmmoglmiv.tif,126,1.5,0,1.05,2583.718832416,2589.391147125,6,NaN,2589.396704625,2589.414962291,2590.458351833,NaN,NaN
104,1,2,complexity,0,bathroom,sun_apkxzenqapsujocq.tif,155,1.5,0,0.95,2594.9329445,2599.167113583,2,NaN,2599.172726333,2599.191083208,2600.134420708,NaN,NaN
104,2,2,complexity,0,bathroom,sun_afcoljnjfoxjtgja.tif,130,1.5,0,1.55,2600.146399291,2603.67886375,4,NaN,2603.684615208,2603.702976041,2605.246343083,NaN,NaN
104,3,2,complexity,0,bathroom,sun_agyqfjcfkdcydepw.tif,135,1.5,0,1.2,2605.263362291,2608.810711166,3,NaN,2608.838801333,2608.860005333,2610.053389166,NaN,NaN
104,4,2,complexity,0,bathroom,sun_apkruvsevgegsdwp.tif,154,1.5,0,1.86666666666667,2610.065223208,2613.262914791,2,NaN,2613.268525208,2613.286881541,2615.146925916,NaN,NaN
104,5,2,complexity,0,bathroom,sun_alotolagknyrgtsk.tif,145,1.5,0,1.66666666666667,2615.166439,2618.646932083,5,NaN,2618.652725666,2618.671035541,2620.331084166,NaN,NaN
104,6,2,complexity,0,bathroom,sun_axldvoqbuvuggfmq.tif,167,1.5,0,1.35,2620.349746541,2624.071239375,6,NaN,2624.077227208,2624.095593041,2625.438962583,NaN,NaN
104,7,2,complexity,0,bathroom,sun_aoybiabnpadelefl.tif,151,1.5,0,1.11666666666667,2625.452924875,2628.447207625,1,NaN,2628.452625583,2628.470944291,2629.580998333,NaN,NaN
104,8,2,complexity,0,bathroom,sun_apmqjbnwghzuhhzh.tif,156,1.5,0,0.95,2629.588797958,2633.415023333,3,NaN,2633.420379166,2633.438692541,2634.382029833,NaN,NaN
104,9,2,complexity,0,bathroom,sun_aleqenyvunhactkl.tif,142,1.5,0,1.03333333333333,2634.386587791,2638.471308833,2,NaN,2638.476599875,2638.494915208,2639.521630083,NaN,NaN
104,10,2,complexity,0,bathroom,sun_aunuadmjocsddsrl.tif,162,1.5,0,1.01666666666667,2639.531608958,2643.351597541,4,NaN,2643.356935958,2643.37532025,2644.38537,NaN,NaN
104,11,2,complexity,0,bathroom,sun_agguqiubmwhqqunb.tif,132,1.5,0,1.81666666666667,2644.3931915,2647.430849458,4,NaN,2647.436397791,2647.454754833,2649.264800208,NaN,NaN
104,12,2,complexity,0,bathroom,sun_alkosphxlxwjwgjd.tif,144,1.5,0,1.8,2649.278756833,2652.751783666,3,NaN,2652.7588275,2652.777112041,2654.57049825,NaN,NaN
104,13,2,complexity,0,bathroom,sun_atstyziqcmkahyxk.tif,161,1.5,0,1.26666666666667,2654.58655925,2657.635815666,2,NaN,2657.665601583,2657.687692,2658.947736583,NaN,NaN
104,14,2,complexity,0,bathroom,sun_azqyogdvyhahyram.tif,170,1.5,0,1.66666666666667,2658.966210875,2662.734924291,1,NaN,2662.740374791,2662.75881725,2664.418866833,NaN,NaN
104,15,2,complexity,0,bathroom,sun_aljolscmmzydegqp.tif,143,1.5,0,1.93333333333333,2664.436079208,2667.655517166,3,NaN,2667.683565125,2667.7064805,2669.633194791,NaN,NaN
104,16,2,complexity,0,bathroom,sun_ahcvzmoyaycdoftf.tif,137,1.5,0,1.75,2669.651511166,2672.807138291,2,NaN,2672.834710416,2672.858002041,2674.601390958,NaN,NaN
104,17,2,complexity,0,bathroom,sun_aavhrsfjbserjtht.tif,123,1.5,0,0.766666666666667,2674.6168575,2677.802100583,4,NaN,2677.832201041,2677.8555845,2678.615589875,NaN,NaN
104,18,2,complexity,0,bathroom,sun_ajlawzvmubibwbpy.tif,140,1.5,0,1.43333333333333,2678.620391041,2682.070604541,5,NaN,2682.076409541,2682.094718166,2683.521417291,NaN,NaN
104,19,2,complexity,0,bathroom,sun_ahqjwnzgolcaoidx.tif,139,1.5,0,0.916666666666667,2683.54110475,2686.550471833,6,NaN,2686.556339541,2686.574721916,2687.484727541,NaN,NaN
104,20,2,complexity,0,bathroom,labelme_sfxiulhjbhlyiyt.tif,121,1.5,0,0.766666666666667,2687.489339125,2690.967055375,6,NaN,2690.972427125,2690.99068275,2691.750689208,NaN,NaN
104,21,2,complexity,0,bathroom,sun_apynckhmoftszqoq.tif,157,1.5,0,0.783333333333333,2691.755003041,2697.239050875,4,NaN,2697.2444355,2697.263147083,2698.039818875,NaN,NaN
104,22,2,complexity,0,bathroom,sun_anhioqovhscjqqwb.tif,148,1.5,0,1.31666666666667,2698.04458675,2701.638873291,2,NaN,2701.644268541,2701.662795208,2702.972851083,NaN,NaN
104,23,2,complexity,0,bathroom,sun_auzqhkafidnkrwmo.tif,164,1.5,0,1.1,2702.986588708,2706.455098375,4,NaN,2706.460403166,2706.47902325,2707.572394875,NaN,NaN
104,24,2,complexity,0,bathroom,sun_ahaulkltgpkeeemi.tif,136,1.5,0,1.26666666666667,2707.581535916,2711.462678958,4,NaN,2711.468304625,2711.486500666,2712.746562666,NaN,NaN
104,25,2,complexity,0,bathroom,sun_apeeialkgkuxddgh.tif,152,1.5,0,0.933333333333333,2712.762926166,2716.094861291,3,NaN,2716.100219625,2716.118596791,2717.045269625,NaN,NaN
