sub_num,trial,block,task,is_practice,category,image,texture,duration,mask_dur,jitter,stim_time,time_of_resp,trial_response,mask_time,fix_time,jit_onset,trial_end,trial_accuracy,RT
120,1,0,familiarity,1,bathroom,bathroom_practice1.tif,221,1.5,0,0.916666666666667,1492767.1271982,1492773.7163581,53,NaN,1492768.6317421,1492773.7250675,1492774.6400749,NaN,NaN
120,2,0,familiarity,1,bathroom,bathroom_practice2.tif,222,1.5,0,0.85,1492774.6489715,1492776.4127323,49,NaN,1492776.1542627,1492776.4212104,1492777.2695522,NaN,NaN
120,3,0,familiarity,1,bathroom,bathroom_practice3.tif,223,1.5,0,0.883333333333333,1492777.2786808,1492780.3624497,53,NaN,1492778.7834089,1492780.3707337,1492781.2524088,NaN,NaN
120,4,0,familiarity,1,bathroom,bathroom_practice5.tif,225,1.5,0,1.43333333333333,1492781.2609735,1492783.6785571,51,NaN,1492782.7657248,1492783.686937,1492785.1186119,NaN,NaN
120,5,0,familiarity,1,bathroom,bathroom_practice4.tif,224,1.5,0,1.53333333333333,1492785.1270193,1492787.2507684,51,NaN,1492786.6310199,1492787.2597631,1492788.7914378,NaN,NaN
120,1,1,familiarity,0,bathroom,sun_ahcvzmoyaycdoftf.tif,137,1.5,0,1.26666666666667,1492794.4771971,1492796.9885691,53,NaN,1492795.9817407,1492796.9970406,1492798.2620465,NaN,NaN
120,2,1,familiarity,0,bathroom,sun_aggnnqpdorgxpvce.tif,131,1.5,0,1.76666666666667,1492798.2707955,1492800.1973016,50,NaN,1492799.7757336,1492800.2058557,1492801.9708596,NaN,NaN
120,3,1,familiarity,0,bathroom,sun_aclfzgynxzxlbepz.tif,129,1.5,0,1.46666666666667,1492801.9798515,1492805.3559124,52,NaN,1492803.485526,1492805.3642927,1492806.8292993,NaN,NaN
120,4,1,familiarity,0,bathroom,sun_apmqjbnwghzuhhzh.tif,156,1.5,0,1.28333333333333,1492806.8381724,1492810.433419,52,NaN,1492808.3415145,1492810.4390906,1492811.7207633,NaN,NaN
120,5,1,familiarity,0,bathroom,sun_acegryoqftbzowsg.tif,127,1.5,0,0.966666666666667,1492811.726929,1492813.9856583,50,NaN,1492813.230207,1492813.9913924,1492814.9563969,NaN,NaN
120,6,1,familiarity,0,bathroom,sun_alkosphxlxwjwgjd.tif,144,1.5,0,0.783333333333333,1492814.9623132,1492817.0673464,53,NaN,1492816.4655901,1492817.0734076,1492817.8550803,NaN,NaN
120,7,1,familiarity,0,bathroom,sun_acgyywnybuveqsro.tif,128,1.5,0,1.21666666666667,1492817.8614546,1492819.7331078,54,NaN,1492819.3642568,1492819.7394733,1492820.9544801,NaN,NaN
120,8,1,familiarity,0,bathroom,sun_anhioqovhscjqqwb.tif,148,1.5,0,1.4,1492820.9610786,1492822.9995753,52,NaN,1492822.464687,1492823.0050326,1492824.4033746,NaN,NaN
120,9,1,familiarity,0,bathroom,sun_aspsyogrekjtfozg.tif,160,1.5,0,1.3,1492824.4095685,1492826.2778811,50,NaN,1492825.9133427,1492826.2839354,1492827.5822774,NaN,NaN
120,10,1,familiarity,0,bathroom,sun_ahqjwnzgolcaoidx.tif,139,1.5,0,0.95,1492827.5884018,1492829.824222,54,NaN,1492829.0911814,1492829.8297894,1492830.7781429,NaN,NaN
120,11,1,familiarity,0,bathroom,sun_ausgutylgojavyoq.tif,163,1.5,0,1.96666666666667,1492830.7843418,1492833.2363169,53,NaN,1492832.2880277,1492833.2425727,1492835.2075795,NaN,NaN
120,12,1,familiarity,0,bathroom,sun_axyrejkiiaqiurjk.tif,169,1.5,0,1.13333333333333,1492835.2134478,1492837.6168714,51,NaN,1492836.7171364,1492837.6222918,1492838.7539645,NaN,NaN
120,13,1,familiarity,0,bathroom,sun_agrwbmhcpmfuwmsg.tif,134,1.5,0,0.933333333333333,1492838.7599614,1492841.9656318,51,NaN,1492840.2630565,1492841.9716541,1492842.903326,NaN,NaN
120,14,1,familiarity,0,bathroom,sun_axxbkopsgyouuebh.tif,168,1.5,0,1.6,1492842.9098219,1492845.2401403,54,NaN,1492844.413293,1492845.2467346,1492846.845074,NaN,NaN
120,15,1,familiarity,0,bathroom,sun_akiytfaagpdsphgz.tif,141,1.5,0,1.38333333333333,1492846.8526512,1492850.5605217,53,NaN,1492848.3559198,1492850.5671641,1492851.9488365,NaN,NaN
120,16,1,familiarity,0,bathroom,sun_aavhrsfjbserjtht.tif,123,1.5,0,1.58333333333333,1492851.9551139,1492854.3053465,52,NaN,1492853.458407,1492854.3108193,1492855.8924924,NaN,NaN
120,17,1,familiarity,0,bathroom,sun_auzqhkafidnkrwmo.tif,164,1.5,0,0.966666666666667,1492855.898447,1492858.1072444,50,NaN,1492857.4017951,1492858.1129485,1492859.0779727,NaN,NaN
120,18,1,familiarity,0,bathroom,sun_amzlamotzwfkwjco.tif,147,1.5,0,0.983333333333333,1492859.0849065,1492861.0896568,51,NaN,1492860.5885048,1492861.0951452,1492862.076818,NaN,NaN
120,19,1,familiarity,0,bathroom,sun_asfwthctfqerjvxr.tif,159,1.5,0,0.8,1492862.0840889,1492863.9419235,50,NaN,1492863.5874809,1492863.9485159,1492864.7468563,NaN,NaN
120,20,1,familiarity,0,bathroom,sun_apkxzenqapsujocq.tif,155,1.5,0,0.7,1492864.7530607,1492867.5968082,53,NaN,1492866.2563352,1492867.6032073,1492868.3015472,NaN,NaN
120,21,1,familiarity,0,bathroom,sun_anryaplzeujmzfkd.tif,149,1.5,0,0.716666666666667,1492868.3076664,1492870.4913708,51,NaN,1492869.811043,1492870.497054,1492871.2120592,NaN,NaN
120,22,1,familiarity,0,bathroom,sun_atstyziqcmkahyxk.tif,161,1.5,0,1.76666666666667,1492871.2180492,1492873.2589777,53,NaN,1492872.7211979,1492873.2647812,1492875.0297896,NaN,NaN
120,23,1,familiarity,0,bathroom,sun_ajlawzvmubibwbpy.tif,140,1.5,0,1.7,1492875.0361962,1492876.8948291,51,NaN,1492876.5395411,1492876.9009484,1492878.5992876,NaN,NaN
120,24,1,familiarity,0,bathroom,sun_aljolscmmzydegqp.tif,143,1.5,0,1.38333333333333,1492878.605428,1492883.1088239,53,NaN,1492880.1087307,1492883.1146741,1492884.496349,NaN,NaN
120,25,1,familiarity,0,bathroom,sun_afcoljnjfoxjtgja.tif,130,1.5,0,0.766666666666667,1492884.5038735,1492886.4566332,52,NaN,1492886.0077188,1492886.4631775,1492887.2281835,NaN,NaN
120,1,2,familiarity,0,bathroom,sun_azqyogdvyhahyram.tif,170,1.5,0,0.85,1492892.475615,1492893.9790721,54,NaN,1492893.9788512,1492894.0054534,1492894.8537922,NaN,NaN
120,2,2,familiarity,0,bathroom,sun_agguqiubmwhqqunb.tif,132,1.5,0,1.53333333333333,1492894.8599175,1492896.7170885,51,NaN,1492896.3628853,1492896.7233377,1492898.2550127,NaN,NaN
120,3,2,familiarity,0,bathroom,sun_avhrdrntsqrjzccq.tif,165,1.5,0,0.7,1492898.2612175,1492901.5854521,51,NaN,1492899.7642996,1492901.5909227,1492902.2892647,NaN,NaN
120,4,2,familiarity,0,bathroom,sun_aunuadmjocsddsrl.tif,162,1.5,0,1.36666666666667,1492902.2957284,1492904.6472338,53,NaN,1492903.7989784,1492904.6529529,1492906.0179609,NaN,NaN
120,5,2,familiarity,0,bathroom,sun_abapwbhyhkfixyex.tif,124,1.5,0,0.716666666666667,1492906.0250893,1492908.4010126,53,NaN,1492907.5285699,1492908.4071562,1492909.1221639,NaN,NaN
120,6,2,familiarity,0,bathroom,sun_alotolagknyrgtsk.tif,145,1.5,0,1.38333333333333,1492909.12875,1492911.2293666,49,NaN,1492910.6313981,1492911.2350296,1492912.6167041,NaN,NaN
120,7,2,familiarity,0,bathroom,labelme_sfxiulhjbhlyiyt.tif,121,1.5,0,0.916666666666667,1492912.6230718,1492915.4312457,53,NaN,1492914.126521,1492915.4379097,1492916.3529146,NaN,NaN
120,8,2,familiarity,0,bathroom,sun_aqrpegblszgcoujh.tif,158,1.5,0,1.58333333333333,1492916.3587249,1492918.2817568,51,NaN,1492917.8617018,1492918.287383,1492919.8690548,NaN,NaN
120,9,2,familiarity,0,bathroom,sun_ahijqszoswveeyji.tif,138,1.5,0,1.25,1492919.8747549,1492922.1330584,51,NaN,1492921.3793698,1492922.1386006,1492923.3869408,NaN,NaN
120,10,2,familiarity,0,bathroom,sun_axldvoqbuvuggfmq.tif,167,1.5,0,0.95,1492923.393867,1492925.491679,54,NaN,1492924.8980107,1492925.4973337,1492926.4456748,NaN,NaN
120,11,2,familiarity,0,bathroom,sun_ahaulkltgpkeeemi.tif,136,1.5,0,1.4,1492926.4521635,1492929.0417845,55,NaN,1492927.9549776,1492929.0475318,1492930.4458716,NaN,NaN
120,12,2,familiarity,0,bathroom,sun_aghyqhbptboemmoq.tif,133,1.5,0,0.766666666666667,1492930.4521675,1492933.101554,52,NaN,1492931.9549995,1492933.1071366,1492933.8721444,NaN,NaN
120,13,2,familiarity,0,bathroom,sun_apynckhmoftszqoq.tif,157,1.5,0,0.733333333333333,1492933.8784448,1492935.7412159,50,NaN,1492935.3810463,1492935.747077,1492936.4787494,NaN,NaN
120,14,2,familiarity,0,bathroom,sun_apeeialkgkuxddgh.tif,152,1.5,0,1.06666666666667,1492936.4845334,1492940.9209649,53,NaN,1492937.9882802,1492940.9264617,1492941.9914679,NaN,NaN
120,15,2,familiarity,0,bathroom,sun_agyqfjcfkdcydepw.tif,135,1.5,0,1.33333333333333,1492941.9978031,1492943.8534615,50,NaN,1492943.5008816,1492943.8594505,1492945.1911249,NaN,NaN
120,16,2,familiarity,0,bathroom,sun_aleqenyvunhactkl.tif,142,1.5,0,1.41666666666667,1492945.197319,1492947.4199529,53,NaN,1492946.7005189,1492947.4254036,1492948.8404084,NaN,NaN
120,17,2,familiarity,0,bathroom,sun_aapitsgbtktqubfy.tif,122,1.5,0,1.95,1492948.8460409,1492951.1013439,53,NaN,1492950.3493192,1492951.107844,1492953.0561844,NaN,NaN
120,18,2,familiarity,0,bathroom,sun_ambriybtogmepttm.tif,146,1.5,0,0.866666666666667,1492953.062406,1492954.7128566,50,NaN,1492954.566131,1492954.7204283,1492955.5854342,NaN,NaN
120,19,2,familiarity,0,bathroom,sun_apkruvsevgegsdwp.tif,154,1.5,0,0.983333333333333,1492955.5919988,1492957.9642896,52,NaN,1492957.0949801,1492957.9698324,1492958.9515046,NaN,NaN
120,20,2,familiarity,0,bathroom,sun_awnqiikzaispgmwo.tif,166,1.5,0,0.983333333333333,1492958.9575118,1492962.8618505,53,NaN,1492960.4608607,1492962.8683439,1492963.8500246,NaN,NaN
120,21,2,familiarity,0,bathroom,sun_abjtwfukuwddzted.tif,125,1.5,0,0.766666666666667,1492963.8562594,1492965.8238742,51,NaN,1492965.3599672,1492965.830484,1492966.5954893,NaN,NaN
120,22,2,familiarity,0,bathroom,sun_acduarbnmmoglmiv.tif,126,1.5,0,0.833333333333333,1492966.6017188,1492968.4075538,52,NaN,1492968.1049308,1492968.4139509,1492969.2456225,NaN,NaN
120,23,2,familiarity,0,bathroom,sun_apjevzvycyhuqghb.tif,153,1.5,0,0.833333333333333,1492969.2520889,1492971.0843027,53,NaN,1492970.7551565,1492971.0900403,1492971.9217125,NaN,NaN
120,24,2,familiarity,0,bathroom,sun_aofnryafpsjimzsb.tif,150,1.5,0,0.716666666666667,1492971.9281808,1492974.2757454,51,NaN,1492973.4323937,1492974.2814703,1492974.9964772,NaN,NaN
120,25,2,familiarity,0,bathroom,sun_aoybiabnpadelefl.tif,151,1.5,0,1.71666666666667,1492975.0027242,1492976.8127898,51,NaN,1492976.506035,1492976.8185541,1492978.5335639,NaN,NaN
