sub_num,trial,block,task,is_practice,category,image,texture,duration,mask_dur,jitter,stim_time,time_of_resp,trial_response,mask_time,fix_time,jit_onset,trial_end,trial_accuracy,RT
104,1,0,usability,1,bathroom,bathroom_practice3.tif,223,1.5,0,0.983333333333333,2060.85767725,2065.121459625,2,NaN,2065.127988666,2065.14675075,2066.123480833,NaN,NaN
104,2,0,usability,1,bathroom,bathroom_practice4.tif,224,1.5,0,1.78333333333333,2066.128573375,2069.954091166,3,NaN,2069.959760708,2069.978259458,2071.755094083,NaN,NaN
104,3,0,usability,1,bathroom,bathroom_practice5.tif,225,1.5,0,1.78333333333333,2071.775268083,2075.569876666,3,NaN,2075.575240875,2075.5937325,2077.370448916,NaN,NaN
104,4,0,usability,1,bathroom,bathroom_practice2.tif,222,1.5,0,1.26666666666667,2077.384694125,2082.809977791,5,NaN,2082.815683625,2082.833912208,2084.09396525,NaN,NaN
104,5,0,usability,1,bathroom,bathroom_practice1.tif,221,1.5,0,1.05,2084.10979,2089.049139666,2,NaN,2089.054926625,2089.073311,2090.116712416,NaN,NaN
104,1,1,usability,0,bathroom,sun_apynckhmoftszqoq.tif,157,1.5,0,1.01666666666667,2097.525983875,2104.721694208,1,NaN,2104.727132291,2104.745469458,2105.755505958,NaN,NaN
104,2,1,usability,0,bathroom,sun_avhrdrntsqrjzccq.tif,165,1.5,0,1.61666666666667,2105.763856666,2109.609757166,5,NaN,2109.615141,2109.63371,2111.243752291,NaN,NaN
104,3,1,usability,0,bathroom,sun_apkxzenqapsujocq.tif,155,1.5,0,1.16666666666667,2111.26094525,2116.280979375,2,NaN,2116.286629416,2116.305109458,2117.465155875,NaN,NaN
104,4,1,usability,0,bathroom,sun_aoybiabnpadelefl.tif,151,1.5,0,0.983333333333333,2117.47588275,2121.800973708,3,NaN,2121.807015,2121.825431083,2122.802103333,NaN,NaN
104,5,1,usability,0,bathroom,sun_aggnnqpdorgxpvce.tif,131,1.5,0,0.783333333333333,2122.806648958,2127.025799458,3,NaN,2127.03123925,2127.049569208,2127.826240166,NaN,NaN
104,6,1,usability,0,bathroom,sun_ambriybtogmepttm.tif,146,1.5,0,0.816666666666667,2127.830767916,2131.289522875,1,NaN,2131.294862666,2131.313413583,2132.123418958,NaN,NaN
104,7,1,usability,0,bathroom,sun_agrwbmhcpmfuwmsg.tif,134,1.5,0,1.1,2132.12822175,2136.6729395,2,NaN,2136.678652333,2136.696974875,2137.790366541,NaN,NaN
104,8,1,usability,0,bathroom,sun_amzlamotzwfkwjco.tif,147,1.5,0,1.65,2137.799435,2142.176805,1,NaN,2142.1832445,2142.201531333,2143.84492375,NaN,NaN
104,9,1,usability,0,bathroom,sun_afcoljnjfoxjtgja.tif,130,1.5,0,1.13333333333333,2143.86410975,2148.056941083,6,NaN,2148.062658708,2148.081073291,2149.207786083,NaN,NaN
104,10,1,usability,0,bathroom,sun_aofnryafpsjimzsb.tif,150,1.5,0,0.766666666666667,2149.218933625,2154.18538,7,NaN,2154.190855625,2154.209216208,2154.969221041,NaN,NaN
104,11,1,usability,0,bathroom,sun_apeeialkgkuxddgh.tif,152,1.5,0,1.25,2154.973813625,2158.5215635,4,NaN,2158.527173208,2158.545507166,2159.788895041,NaN,NaN
104,12,1,usability,0,bathroom,sun_aavhrsfjbserjtht.tif,123,1.5,0,1.5,2159.801728958,2163.113637833,7,NaN,2163.118991833,2163.137365875,2164.630743666,NaN,NaN
104,13,1,usability,0,bathroom,labelme_sfxiulhjbhlyiyt.tif,121,1.5,0,1.56666666666667,2164.649224583,2168.313343541,3,NaN,2168.318773541,2168.337051583,2169.89709,NaN,NaN
104,14,1,usability,0,bathroom,sun_alkosphxlxwjwgjd.tif,144,1.5,0,1.45,2169.914838125,2175.80931875,5,NaN,2175.814891708,2175.833668833,2177.27705625,NaN,NaN
104,15,1,usability,0,bathroom,sun_atstyziqcmkahyxk.tif,161,1.5,0,1.53333333333333,2177.294755083,2180.961478708,1,NaN,2180.96693375,2180.985172,2182.511891833,NaN,NaN
104,16,1,usability,0,bathroom,sun_aleqenyvunhactkl.tif,142,1.5,0,0.8,2182.529237708,2186.729530958,1,NaN,2186.7351345,2186.753743166,2187.547080708,NaN,NaN
104,17,1,usability,0,bathroom,sun_ahaulkltgpkeeemi.tif,136,1.5,0,0.933333333333333,2187.551672916,2191.337418416,1,NaN,2191.34274675,2191.361174041,2192.287845875,NaN,NaN
104,18,1,usability,0,bathroom,sun_aljolscmmzydegqp.tif,143,1.5,0,1.75,2192.292444208,2195.785470583,1,NaN,2195.791053375,2195.809357875,2197.552729875,NaN,NaN
104,19,1,usability,0,bathroom,sun_ahijqszoswveeyji.tif,138,1.5,0,1.48333333333333,2197.569930833,2201.010543791,2,NaN,2201.022625541,2201.041917958,2202.518621416,NaN,NaN
104,20,1,usability,0,bathroom,sun_aclfzgynxzxlbepz.tif,129,1.5,0,1.03333333333333,2202.535425458,2207.449335416,4,NaN,2207.454677333,2207.472950333,2208.4996525,NaN,NaN
104,21,1,usability,0,bathroom,sun_alotolagknyrgtsk.tif,145,1.5,0,1.23333333333333,2208.515815583,2214.280670666,2,NaN,2214.287264333,2214.305847291,2215.532559875,NaN,NaN
104,22,1,usability,0,bathroom,sun_axxbkopsgyouuebh.tif,168,1.5,0,1.28333333333333,2215.551627125,2218.712738416,3,NaN,2218.718349333,2218.736691208,2220.013404125,NaN,NaN
104,23,1,usability,0,bathroom,sun_ahcvzmoyaycdoftf.tif,137,1.5,0,1.66666666666667,2220.031753958,2223.873201791,4,NaN,2223.878831375,2223.897205375,2225.557247333,NaN,NaN
104,24,1,usability,0,bathroom,sun_aghyqhbptboemmoq.tif,133,1.5,0,1.26666666666667,2225.575463791,2229.792543458,2,NaN,2229.797994833,2229.816389166,2231.076426,NaN,NaN
104,25,1,usability,0,bathroom,sun_awnqiikzaispgmwo.tif,166,1.5,0,1.4,2231.088772208,2234.504325291,2,NaN,2234.510232,2234.5287035,2235.922094083,NaN,NaN
104,1,2,usability,0,bathroom,sun_abjtwfukuwddzted.tif,125,1.5,0,1.66666666666667,2241.428848291,2244.760679541,1,NaN,2244.766465125,2244.784756833,2246.444813833,NaN,NaN
104,2,2,usability,0,bathroom,sun_aqrpegblszgcoujh.tif,158,1.5,0,1.85,2246.461891083,2249.55993175,2,NaN,2249.588639666,2249.611873916,2251.455255125,NaN,NaN
104,3,2,usability,0,bathroom,sun_acgyywnybuveqsro.tif,128,1.5,0,1.65,2251.473360625,2255.168681416,5,NaN,2255.174237666,2255.19254925,2256.835918333,NaN,NaN
104,4,2,usability,0,bathroom,sun_azqyogdvyhahyram.tif,170,1.5,0,0.95,2256.853133875,2261.832506208,2,NaN,2261.838156083,2261.856485333,2262.799824125,NaN,NaN
104,5,2,usability,0,bathroom,sun_apmqjbnwghzuhhzh.tif,156,1.5,0,0.783333333333333,2262.804328875,2266.241200125,2,NaN,2266.246932041,2266.265334666,2267.042006791,NaN,NaN
104,6,2,usability,0,bathroom,sun_ajlawzvmubibwbpy.tif,140,1.5,0,1.13333333333333,2267.047829541,2291.09703625,4,NaN,2291.103265625,2291.121654166,2292.248378958,NaN,NaN
104,7,2,usability,0,bathroom,sun_akiytfaagpdsphgz.tif,141,1.5,0,1.63333333333333,2292.257119041,2295.584787625,2,NaN,2295.590211916,2295.608572375,2297.235297041,NaN,NaN
104,8,2,usability,0,bathroom,sun_acduarbnmmoglmiv.tif,126,1.5,0,1.2,2297.252285875,2300.40415475,1,NaN,2300.434343,2300.457639291,2301.651023041,NaN,NaN
104,9,2,usability,0,bathroom,sun_ahqjwnzgolcaoidx.tif,139,1.5,0,1.71666666666667,2301.662110833,2304.56825675,2,NaN,2304.573880458,2304.592301833,2306.302344875,NaN,NaN
104,10,2,usability,0,bathroom,sun_asfwthctfqerjvxr.tif,159,1.5,0,0.9,2306.317102708,2310.1764135,5,NaN,2310.182620541,2310.200829875,2311.094168625,NaN,NaN
104,11,2,usability,0,bathroom,sun_apjevzvycyhuqghb.tif,153,1.5,0,0.9,2311.099087458,2314.480551625,7,NaN,2314.486264291,2314.504577583,2315.397915375,NaN,NaN
104,12,2,usability,0,bathroom,sun_agguqiubmwhqqunb.tif,132,1.5,0,0.766666666666667,2315.403148791,2318.800336541,6,NaN,2318.806411375,2318.824715375,2319.58472025,NaN,NaN
104,13,2,usability,0,bathroom,sun_acegryoqftbzowsg.tif,127,1.5,0,0.966666666666667,2319.597772541,2323.088865041,5,NaN,2323.094227791,2323.112553875,2324.07255775,NaN,NaN
104,14,2,usability,0,bathroom,sun_apkruvsevgegsdwp.tif,154,1.5,0,0.7,2324.077110458,2327.264632083,3,NaN,2327.270361166,2327.288701166,2327.982038375,NaN,NaN
104,15,2,usability,0,bathroom,sun_aunuadmjocsddsrl.tif,162,1.5,0,1.1,2327.986600125,2331.48042025,1,NaN,2331.485801875,2331.504157125,2332.597529708,NaN,NaN
104,16,2,usability,0,bathroom,sun_axyrejkiiaqiurjk.tif,169,1.5,0,1.33333333333333,2332.607665291,2336.312462083,2,NaN,2336.317852,2336.336109083,2337.662828166,NaN,NaN
104,17,2,usability,0,bathroom,sun_ausgutylgojavyoq.tif,163,1.5,0,1.15,2337.677409041,2342.52086075,2,NaN,2342.526369083,2342.544752166,2343.688140125,NaN,NaN
104,18,2,usability,0,bathroom,sun_aapitsgbtktqubfy.tif,122,1.5,0,1.28333333333333,2343.697236291,2347.448007625,2,NaN,2347.453804708,2347.472096,2348.748814791,NaN,NaN
104,19,2,usability,0,bathroom,sun_agyqfjcfkdcydepw.tif,135,1.5,0,1.35,2348.765339,2352.112064166,3,NaN,2352.117836583,2352.136170333,2353.479559666,NaN,NaN
104,20,2,usability,0,bathroom,sun_abapwbhyhkfixyex.tif,124,1.5,0,1.43333333333333,2353.496172458,2357.896794208,7,NaN,2357.902364916,2357.920716041,2359.347430833,NaN,NaN
104,21,2,usability,0,bathroom,sun_auzqhkafidnkrwmo.tif,164,1.5,0,0.916666666666667,2359.364690458,2366.504529375,6,NaN,2366.509995416,2366.528324791,2367.438329625,NaN,NaN
104,22,2,usability,0,bathroom,sun_anryaplzeujmzfkd.tif,149,1.5,0,0.766666666666667,2367.443044416,2371.168772666,5,NaN,2371.174118333,2371.192448,2371.95245475,NaN,NaN
104,23,2,usability,0,bathroom,sun_anhioqovhscjqqwb.tif,148,1.5,0,0.866666666666667,2371.957566541,2375.384600333,3,NaN,2375.389899125,2375.408233,2376.26823675,NaN,NaN
104,24,2,usability,0,bathroom,sun_axldvoqbuvuggfmq.tif,167,1.5,0,0.833333333333333,2376.272949875,2380.08813125,3,NaN,2380.09386725,2380.112222083,2380.938895333,NaN,NaN
104,25,2,usability,0,bathroom,sun_aspsyogrekjtfozg.tif,160,1.5,0,0.75,2380.943752916,2387.359639208,4,NaN,2387.365545291,2387.383829416,2388.127167916,NaN,NaN
