sub_num,trial,block,task,is_practice,category,image,texture,duration,mask_dur,jitter,stim_time,time_of_resp,trial_response,mask_time,fix_time,jit_onset,trial_end,trial_accuracy,RT
141,1,0,familiarity,1,bathroom,bathroom_practice1.tif,221,1.5,0,0.916666666666667,7097.9315455,7103.001992583,5,NaN,7103.008620083,7103.027390708,7103.937395625,NaN,NaN
141,2,0,familiarity,1,bathroom,bathroom_practice2.tif,222,1.5,0,0.85,7103.942241542,7106.417694833,1,NaN,7106.440071292,7106.463365208,7107.306703625,NaN,NaN
141,3,0,familiarity,1,bathroom,bathroom_practice3.tif,223,1.5,0,0.883333333333333,7107.312135958,7110.190618667,1,NaN,7110.215784583,7110.238945167,7111.11561775,NaN,NaN
141,4,0,familiarity,1,bathroom,bathroom_practice5.tif,225,1.5,0,1.43333333333333,7111.1209475,7114.666031917,3,NaN,7114.671871292,7114.690226292,7116.116928375,NaN,NaN
141,5,0,familiarity,1,bathroom,bathroom_practice4.tif,224,1.5,0,1.53333333333333,7116.132494708,7118.954156167,1,NaN,7118.959725583,7118.978148417,7120.504866542,NaN,NaN
141,1,1,familiarity,0,bathroom,sun_ahcvzmoyaycdoftf.tif,137,1.5,0,1.26666666666667,7128.195710292,7132.785833792,5,NaN,7132.791646708,7132.809975917,7134.070012542,NaN,NaN
141,2,1,familiarity,0,bathroom,sun_aggnnqpdorgxpvce.tif,131,1.5,0,1.76666666666667,7134.081190833,7136.769760333,1,NaN,7136.775535,7136.793875542,7138.553914833,NaN,NaN
141,3,1,familiarity,0,bathroom,sun_aclfzgynxzxlbepz.tif,129,1.5,0,1.46666666666667,7138.573317542,7141.605905833,4,NaN,7141.627973042,7141.649966792,7143.110008833,NaN,NaN
141,4,1,familiarity,0,bathroom,sun_apmqjbnwghzuhhzh.tif,156,1.5,0,1.28333333333333,7143.130406625,7146.937705458,6,NaN,7146.943775208,7146.962021292,7148.23872675,NaN,NaN
141,5,1,familiarity,0,bathroom,sun_acegryoqftbzowsg.tif,127,1.5,0,0.966666666666667,7148.255394333,7151.722212417,2,NaN,7151.727868458,7151.746189833,7152.706195583,NaN,NaN
141,6,1,familiarity,0,bathroom,sun_alkosphxlxwjwgjd.tif,144,1.5,0,0.783333333333333,7152.711575792,7156.593724583,6,NaN,7156.5996305,7156.617990333,7157.394663375,NaN,NaN
141,7,1,familiarity,0,bathroom,sun_acgyywnybuveqsro.tif,128,1.5,0,1.21666666666667,7157.399668583,7161.04999825,7,NaN,7161.055745708,7161.074146583,7162.284198458,NaN,NaN
141,8,1,familiarity,0,bathroom,sun_anhioqovhscjqqwb.tif,148,1.5,0,1.4,7162.302253583,7166.682615042,4,NaN,7166.688126958,7166.706491333,7168.099872292,NaN,NaN
141,9,1,familiarity,0,bathroom,sun_aspsyogrekjtfozg.tif,160,1.5,0,1.3,7168.117213792,7170.961597708,1,NaN,7170.967559542,7170.985994458,7172.2793635,NaN,NaN
141,10,1,familiarity,0,bathroom,sun_ahqjwnzgolcaoidx.tif,139,1.5,0,0.95,7172.297569,7175.378519083,6,NaN,7175.384853708,7175.403356958,7176.346696833,NaN,NaN
141,11,1,familiarity,0,bathroom,sun_ausgutylgojavyoq.tif,163,1.5,0,1.96666666666667,7176.3521005,7179.698426958,1,NaN,7179.703820167,7179.722119375,7181.682166542,NaN,NaN
141,12,1,familiarity,0,bathroom,sun_axyrejkiiaqiurjk.tif,169,1.5,0,1.13333333333333,7181.691844875,7184.62307625,1,NaN,7184.644739083,7184.667451458,7185.794152167,NaN,NaN
141,13,1,familiarity,0,bathroom,sun_agrwbmhcpmfuwmsg.tif,134,1.5,0,0.933333333333333,7185.8043795,7189.769826875,4,NaN,7189.775453292,7189.794165583,7190.720839333,NaN,NaN
141,14,1,familiarity,0,bathroom,sun_axxbkopsgyouuebh.tif,168,1.5,0,1.6,7190.728045917,7194.137581083,6,NaN,7194.143917292,7194.162207625,7195.755576917,NaN,NaN
141,15,1,familiarity,0,bathroom,sun_akiytfaagpdsphgz.tif,141,1.5,0,1.38333333333333,7195.773392,7200.281669875,1,NaN,7200.287635833,7200.306162125,7201.682886958,NaN,NaN
141,16,1,familiarity,0,bathroom,sun_aavhrsfjbserjtht.tif,123,1.5,0,1.58333333333333,7201.700047208,7204.810487375,1,NaN,7204.815923333,7204.83433675,7206.411055875,NaN,NaN
141,17,1,familiarity,0,bathroom,sun_auzqhkafidnkrwmo.tif,164,1.5,0,0.966666666666667,7206.4298405,7209.835866,1,NaN,7209.857918083,7209.88114325,7210.841148375,NaN,NaN
141,18,1,familiarity,0,bathroom,sun_amzlamotzwfkwjco.tif,147,1.5,0,0.983333333333333,7210.846995042,7214.106188833,1,NaN,7214.112523583,7214.130851708,7215.10752525,NaN,NaN
141,19,1,familiarity,0,bathroom,sun_asfwthctfqerjvxr.tif,159,1.5,0,0.8,7215.113112542,7219.322069542,3,NaN,7219.327417667,7219.345711542,7220.139049625,NaN,NaN
141,20,1,familiarity,0,bathroom,sun_apkxzenqapsujocq.tif,155,1.5,0,0.7,7220.144193917,7223.2658685,6,NaN,7223.273923083,7223.292612958,7223.98595025,NaN,NaN
141,21,1,familiarity,0,bathroom,sun_anryaplzeujmzfkd.tif,149,1.5,0,0.716666666666667,7223.990785792,7227.210493542,1,NaN,7227.216775708,7227.235104917,7227.945110167,NaN,NaN
141,22,1,familiarity,0,bathroom,sun_atstyziqcmkahyxk.tif,161,1.5,0,1.76666666666667,7227.949655,7230.693039708,6,NaN,7230.719991542,7230.744290625,7232.504341958,NaN,NaN
141,23,1,familiarity,0,bathroom,sun_ajlawzvmubibwbpy.tif,140,1.5,0,1.7,7232.5222775,7236.241554917,3,NaN,7236.247513958,7236.2658915,7237.95924975,NaN,NaN
141,24,1,familiarity,0,bathroom,sun_aljolscmmzydegqp.tif,143,1.5,0,1.38333333333333,7237.969719917,7240.723665333,1,NaN,7240.741983292,7240.763678583,7242.140392042,NaN,NaN
141,25,1,familiarity,0,bathroom,sun_afcoljnjfoxjtgja.tif,130,1.5,0,0.766666666666667,7242.158774083,7246.290173833,1,NaN,7246.295664958,7246.314039292,7247.074045875,NaN,NaN
141,1,2,familiarity,0,bathroom,sun_azqyogdvyhahyram.tif,170,1.5,0,0.85,7252.568854042,7256.177979917,6,NaN,7256.183493,7256.201927917,7257.045265458,NaN,NaN
141,2,2,familiarity,0,bathroom,sun_agguqiubmwhqqunb.tif,132,1.5,0,1.53333333333333,7257.058972042,7259.54277725,1,NaN,7259.571213375,7259.594777417,7261.121492,NaN,NaN
141,3,2,familiarity,0,bathroom,sun_avhrdrntsqrjzccq.tif,165,1.5,0,0.7,7261.138320875,7263.665778042,1,NaN,7263.671696542,7263.689952625,7264.383292667,NaN,NaN
141,4,2,familiarity,0,bathroom,sun_aunuadmjocsddsrl.tif,162,1.5,0,1.36666666666667,7264.388472208,7267.705567875,6,NaN,7267.711309167,7267.729651,7269.089683417,NaN,NaN
141,5,2,familiarity,0,bathroom,sun_abapwbhyhkfixyex.tif,124,1.5,0,0.716666666666667,7269.1076515,7271.889993917,1,NaN,7271.895394833,7271.913680583,7272.62368725,NaN,NaN
141,6,2,familiarity,0,bathroom,sun_alotolagknyrgtsk.tif,145,1.5,0,1.38333333333333,7272.629219375,7275.629125708,1,NaN,7275.657381792,7275.680679542,7277.057377708,NaN,NaN
141,7,2,familiarity,0,bathroom,labelme_sfxiulhjbhlyiyt.tif,121,1.5,0,0.916666666666667,7277.073657958,7281.345360083,6,NaN,7281.351622417,7281.369981917,7282.279987458,NaN,NaN
141,8,2,familiarity,0,bathroom,sun_aqrpegblszgcoujh.tif,158,1.5,0,1.58333333333333,7282.285482958,7285.05441025,1,NaN,7285.079645375,7285.1031275,7286.679844792,NaN,NaN
141,9,2,familiarity,0,bathroom,sun_ahijqszoswveeyji.tif,138,1.5,0,1.25,7286.697315333,7289.316153708,1,NaN,7289.339293292,7289.360742958,7290.604109792,NaN,NaN
141,10,2,familiarity,0,bathroom,sun_axldvoqbuvuggfmq.tif,167,1.5,0,0.95,7290.622090292,7294.961788125,7,NaN,7294.96886625,7294.987178042,7295.930516125,NaN,NaN
141,11,2,familiarity,0,bathroom,sun_ahaulkltgpkeeemi.tif,136,1.5,0,1.4,7295.935235708,7299.890251792,6,NaN,7299.895710042,7299.914060875,7301.307435292,NaN,NaN
141,12,2,familiarity,0,bathroom,sun_aghyqhbptboemmoq.tif,133,1.5,0,0.766666666666667,7301.325248583,7304.201880542,1,NaN,7304.207453625,7304.225896375,7304.985901292,NaN,NaN
141,13,2,familiarity,0,bathroom,sun_apynckhmoftszqoq.tif,157,1.5,0,0.733333333333333,7304.991168208,7308.825605333,1,NaN,7308.831288625,7308.849630667,7309.576303083,NaN,NaN
141,14,2,familiarity,0,bathroom,sun_apeeialkgkuxddgh.tif,152,1.5,0,1.06666666666667,7309.592418875,7312.400620875,7,NaN,7312.4270695,7312.449736333,7313.509769542,NaN,NaN
141,15,2,familiarity,0,bathroom,sun_agyqfjcfkdcydepw.tif,135,1.5,0,1.33333333333333,7313.519321542,7316.202353375,1,NaN,7316.207963583,7316.227069958,7317.553768375,NaN,NaN
141,16,2,familiarity,0,bathroom,sun_aleqenyvunhactkl.tif,142,1.5,0,1.41666666666667,7317.5710505,7320.330193458,1,NaN,7320.335536708,7320.353963875,7321.764006958,NaN,NaN
141,17,2,familiarity,0,bathroom,sun_aapitsgbtktqubfy.tif,122,1.5,0,1.95,7321.781270292,7325.833130125,3,NaN,7325.8390885,7325.857343333,7327.80071375,NaN,NaN
141,18,2,familiarity,0,bathroom,sun_ambriybtogmepttm.tif,146,1.5,0,0.866666666666667,7327.820473167,7330.88672475,1,NaN,7330.915507792,7330.938786,7331.798792125,NaN,NaN
141,19,2,familiarity,0,bathroom,sun_apkruvsevgegsdwp.tif,154,1.5,0,0.983333333333333,7331.804469,7334.791139583,1,NaN,7334.821211167,7334.844833292,7335.8215055,NaN,NaN
141,20,2,familiarity,0,bathroom,sun_awnqiikzaispgmwo.tif,166,1.5,0,0.983333333333333,7335.826777875,7338.624795917,1,NaN,7338.652600417,7338.676162833,7339.652834625,NaN,NaN
141,21,2,familiarity,0,bathroom,sun_abjtwfukuwddzted.tif,125,1.5,0,0.766666666666667,7339.658494667,7343.089155875,1,NaN,7343.094637958,7343.112928167,7343.872933125,NaN,NaN
141,22,2,familiarity,0,bathroom,sun_acduarbnmmoglmiv.tif,126,1.5,0,0.833333333333333,7343.878093917,7346.825755208,1,NaN,7346.854787667,7346.87641525,7347.703088292,NaN,NaN
141,23,2,familiarity,0,bathroom,sun_apjevzvycyhuqghb.tif,153,1.5,0,0.833333333333333,7347.710072125,7350.598977,1,NaN,7350.627828958,7350.651171667,7351.47784325,NaN,NaN
141,24,2,familiarity,0,bathroom,sun_aofnryafpsjimzsb.tif,150,1.5,0,0.716666666666667,7351.483434333,7355.249025667,1,NaN,7355.254869167,7355.273233125,7355.983238542,NaN,NaN
141,25,2,familiarity,0,bathroom,sun_aoybiabnpadelefl.tif,151,1.5,0,1.71666666666667,7355.991427167,7358.589524,1,NaN,7358.614602458,7358.637508125,7360.347561125,NaN,NaN
