sub_num,trial,block,task,is_practice,category,image,texture,duration,mask_dur,jitter,stim_time,time_of_resp,trial_response,mask_time,fix_time,jit_onset,trial_end,trial_accuracy,RT
120,1,0,usability,1,bathroom,bathroom_practice3.tif,223,1.5,0,0.983333333333333,1499654.9828993,1499657.7658243,51,NaN,1499656.4858999,1499657.7713313,1499658.7530059,NaN,NaN
120,2,0,usability,1,bathroom,bathroom_practice4.tif,224,1.5,0,1.78333333333333,1499658.7607349,1499660.5223426,54,NaN,1499660.264079,1499660.5279061,1499662.3095789,NaN,NaN
120,3,0,usability,1,bathroom,bathroom_practice5.tif,225,1.5,0,1.78333333333333,1499662.3161904,1499664.1796014,51,NaN,1499663.8196089,1499664.185129,1499665.9668043,NaN,NaN
120,4,0,usability,1,bathroom,bathroom_practice2.tif,222,1.5,0,1.26666666666667,1499665.9734052,1499668.0996478,50,NaN,1499667.4762361,1499668.1051994,1499669.3702043,NaN,NaN
120,5,0,usability,1,bathroom,bathroom_practice1.tif,221,1.5,0,1.05,1499669.3765036,1499671.7805809,53,NaN,1499670.8798631,1499671.7869897,1499672.8353279,NaN,NaN
120,1,1,usability,0,bathroom,sun_apynckhmoftszqoq.tif,157,1.5,0,1.01666666666667,1499676.9671645,1499678.8404492,50,NaN,1499678.470843,1499678.8465017,1499679.8615076,NaN,NaN
120,2,1,usability,0,bathroom,sun_avhrdrntsqrjzccq.tif,165,1.5,0,1.61666666666667,1499679.8676349,1499681.872044,51,NaN,1499681.3715329,1499681.8787671,1499683.4937717,NaN,NaN
120,3,1,usability,0,bathroom,sun_apkxzenqapsujocq.tif,155,1.5,0,1.16666666666667,1499683.4998763,1499685.5567117,51,NaN,1499685.0032809,1499685.562994,1499686.7280005,NaN,NaN
120,4,1,usability,0,bathroom,sun_aoybiabnpadelefl.tif,151,1.5,0,0.983333333333333,1499686.7343089,1499688.7804939,52,NaN,1499688.2373704,1499688.7859777,1499689.7676501,NaN,NaN
120,5,1,usability,0,bathroom,sun_aggnnqpdorgxpvce.tif,131,1.5,0,0.783333333333333,1499689.7738975,1499692.1883814,54,NaN,1499691.2768901,1499692.1941293,1499692.9758151,NaN,NaN
120,6,1,usability,0,bathroom,sun_ambriybtogmepttm.tif,146,1.5,0,0.816666666666667,1499692.9822837,1499695.0327988,54,NaN,1499694.4856368,1499695.0383426,1499695.8533482,NaN,NaN
120,7,1,usability,0,bathroom,sun_agrwbmhcpmfuwmsg.tif,134,1.5,0,1.1,1499695.859162,1499698.187054,54,NaN,1499697.3623221,1499698.1924066,1499699.290745,NaN,NaN
120,8,1,usability,0,bathroom,sun_amzlamotzwfkwjco.tif,147,1.5,0,1.65,1499699.2975116,1499701.1699079,52,NaN,1499700.8009519,1499701.1758269,1499702.8241687,NaN,NaN
120,9,1,usability,0,bathroom,sun_afcoljnjfoxjtgja.tif,130,1.5,0,1.13333333333333,1499702.8299951,1499705.7188265,54,NaN,1499704.3334057,1499705.7244035,1499706.8560769,NaN,NaN
120,10,1,usability,0,bathroom,sun_aofnryafpsjimzsb.tif,150,1.5,0,0.766666666666667,1499706.8623449,1499708.8674616,51,NaN,1499708.3652951,1499708.8739476,1499709.6389556,NaN,NaN
120,11,1,usability,0,bathroom,sun_apeeialkgkuxddgh.tif,152,1.5,0,1.25,1499709.6456764,1499711.7186981,53,NaN,1499711.1488507,1499711.7250004,1499712.9733408,NaN,NaN
120,12,1,usability,0,bathroom,sun_aavhrsfjbserjtht.tif,123,1.5,0,1.5,1499712.9792369,1499714.7277031,52,NaN,1499714.4821064,1499714.7342993,1499716.2326409,NaN,NaN
120,13,1,usability,0,bathroom,labelme_sfxiulhjbhlyiyt.tif,121,1.5,0,1.56666666666667,1499716.2394008,1499717.9743844,54,NaN,1499717.7434468,1499717.9799597,1499719.5449673,NaN,NaN
120,14,1,usability,0,bathroom,sun_alkosphxlxwjwgjd.tif,144,1.5,0,1.45,1499719.5507354,1499721.3259285,54,NaN,1499721.0540109,1499721.3321579,1499722.7804955,NaN,NaN
120,15,1,usability,0,bathroom,sun_atstyziqcmkahyxk.tif,161,1.5,0,1.53333333333333,1499722.7870998,1499724.6022674,51,NaN,1499724.2903079,1499724.6092963,1499726.1409712,NaN,NaN
120,16,1,usability,0,bathroom,sun_aleqenyvunhactkl.tif,142,1.5,0,0.8,1499726.1476473,1499728.3487666,51,NaN,1499727.6518033,1499728.3543692,1499729.1527089,NaN,NaN
120,17,1,usability,0,bathroom,sun_ahaulkltgpkeeemi.tif,136,1.5,0,0.933333333333333,1499729.1587974,1499731.1909057,53,NaN,1499730.6638627,1499731.197742,1499732.1294146,NaN,NaN
120,18,1,usability,0,bathroom,sun_aljolscmmzydegqp.tif,143,1.5,0,1.75,1499732.1354529,1499733.9683514,52,NaN,1499733.6385518,1499733.9737706,1499735.7221119,NaN,NaN
120,19,1,usability,0,bathroom,sun_ahijqszoswveeyji.tif,138,1.5,0,1.48333333333333,1499735.7282518,1499737.6620635,53,NaN,1499737.2314184,1499737.6683104,1499739.1499845,NaN,NaN
120,20,1,usability,0,bathroom,sun_aclfzgynxzxlbepz.tif,129,1.5,0,1.03333333333333,1499739.1562501,1499740.937214,52,NaN,1499740.6591382,1499740.942616,1499741.9742917,NaN,NaN
120,21,1,usability,0,bathroom,sun_alotolagknyrgtsk.tif,145,1.5,0,1.23333333333333,1499741.9803804,1499743.7994245,50,NaN,1499743.4839203,1499743.806049,1499745.0377219,NaN,NaN
120,22,1,usability,0,bathroom,sun_axxbkopsgyouuebh.tif,168,1.5,0,1.28333333333333,1499745.0439,1499746.8461737,51,NaN,1499746.5463379,1499746.85179,1499748.1334651,NaN,NaN
120,23,1,usability,0,bathroom,sun_ahcvzmoyaycdoftf.tif,137,1.5,0,1.66666666666667,1499748.1398404,1499749.9420503,54,NaN,1499749.6433719,1499749.9475182,1499751.6125265,NaN,NaN
120,24,1,usability,0,bathroom,sun_aghyqhbptboemmoq.tif,133,1.5,0,1.26666666666667,1499751.6187764,1499753.4040694,53,NaN,1499753.1227989,1499753.4095869,1499754.674594,NaN,NaN
120,25,1,usability,0,bathroom,sun_awnqiikzaispgmwo.tif,166,1.5,0,1.4,1499754.6810167,1499756.1848673,53,NaN,1499756.1846438,1499756.2105795,1499757.6089202,NaN,NaN
120,1,2,usability,0,bathroom,sun_abjtwfukuwddzted.tif,125,1.5,0,1.66666666666667,1499763.9867283,1499766.0562938,53,NaN,1499765.4896271,1499766.0622918,1499767.7273118,NaN,NaN
120,2,2,usability,0,bathroom,sun_aqrpegblszgcoujh.tif,158,1.5,0,1.85,1499767.7337053,1499769.4656072,54,NaN,1499769.236473,1499769.4711121,1499771.3194502,NaN,NaN
120,3,2,usability,0,bathroom,sun_acgyywnybuveqsro.tif,128,1.5,0,1.65,1499771.3258359,1499773.3970614,53,NaN,1499772.8286288,1499773.4025137,1499775.0508525,NaN,NaN
120,4,2,usability,0,bathroom,sun_azqyogdvyhahyram.tif,170,1.5,0,0.95,1499775.0567987,1499777.1652004,50,NaN,1499776.5599569,1499777.1714708,1499778.1198124,NaN,NaN
120,5,2,usability,0,bathroom,sun_apmqjbnwghzuhhzh.tif,156,1.5,0,0.783333333333333,1499778.126127,1499780.6669114,52,NaN,1499779.6295344,1499780.673271,1499781.4549472,NaN,NaN
120,6,2,usability,0,bathroom,sun_ajlawzvmubibwbpy.tif,140,1.5,0,1.13333333333333,1499781.4610465,1499783.2859538,53,NaN,1499782.96407,1499783.2913854,1499784.4230611,NaN,NaN
120,7,2,usability,0,bathroom,sun_akiytfaagpdsphgz.tif,141,1.5,0,1.63333333333333,1499784.4287787,1499786.4097777,51,NaN,1499785.9321203,1499786.4151504,1499788.0468439,NaN,NaN
120,8,2,usability,0,bathroom,sun_acduarbnmmoglmiv.tif,126,1.5,0,1.2,1499788.0528187,1499789.9747981,54,NaN,1499789.5559635,1499789.980249,1499791.1785877,NaN,NaN
120,9,2,usability,0,bathroom,sun_ahqjwnzgolcaoidx.tif,139,1.5,0,1.71666666666667,1499791.184325,1499792.960599,54,NaN,1499792.6879257,1499792.9665043,1499794.6815106,NaN,NaN
120,10,2,usability,0,bathroom,sun_asfwthctfqerjvxr.tif,159,1.5,0,0.9,1499794.6872794,1499797.2448071,52,NaN,1499796.1910062,1499797.2512865,1499798.149626,NaN,NaN
120,11,2,usability,0,bathroom,sun_apjevzvycyhuqghb.tif,153,1.5,0,0.9,1499798.1556552,1499800.1735546,54,NaN,1499799.6594607,1499800.1798284,1499801.0781669,NaN,NaN
120,12,2,usability,0,bathroom,sun_agguqiubmwhqqunb.tif,132,1.5,0,0.766666666666667,1499801.0843227,1499803.4434555,54,NaN,1499802.5876304,1499803.4488682,1499804.2138758,NaN,NaN
120,13,2,usability,0,bathroom,sun_acegryoqftbzowsg.tif,127,1.5,0,0.966666666666667,1499804.2200723,1499806.0904401,51,NaN,1499805.7232127,1499806.0970386,1499807.062045,NaN,NaN
120,14,2,usability,0,bathroom,sun_apkruvsevgegsdwp.tif,154,1.5,0,0.7,1499807.0692364,1499808.8256186,50,NaN,1499808.5721727,1499808.8320429,1499809.5303835,NaN,NaN
120,15,2,usability,0,bathroom,sun_aunuadmjocsddsrl.tif,162,1.5,0,1.1,1499809.5365283,1499812.0803335,51,NaN,1499811.0392905,1499812.0856912,1499813.1840315,NaN,NaN
120,16,2,usability,0,bathroom,sun_axyrejkiiaqiurjk.tif,169,1.5,0,1.33333333333333,1499813.1903049,1499815.1323208,50,NaN,1499814.6932031,1499815.1379064,1499816.4696119,NaN,NaN
120,17,2,usability,0,bathroom,sun_ausgutylgojavyoq.tif,163,1.5,0,1.15,1499816.4760494,1499818.2525771,52,NaN,1499817.980441,1499818.2588764,1499819.4072148,NaN,NaN
120,18,2,usability,0,bathroom,sun_aapitsgbtktqubfy.tif,122,1.5,0,1.28333333333333,1499819.4135864,1499821.2039662,54,NaN,1499820.916528,1499821.2098881,1499822.4915598,NaN,NaN
120,19,2,usability,0,bathroom,sun_agyqfjcfkdcydepw.tif,135,1.5,0,1.35,1499822.4978089,1499824.3098989,54,NaN,1499824.0011511,1499824.3164416,1499825.6647822,NaN,NaN
120,20,2,usability,0,bathroom,sun_abapwbhyhkfixyex.tif,124,1.5,0,1.43333333333333,1499825.670604,1499828.0579655,53,NaN,1499827.1744085,1499828.0643958,1499829.4960689,NaN,NaN
120,21,2,usability,0,bathroom,sun_auzqhkafidnkrwmo.tif,164,1.5,0,0.916666666666667,1499829.5026724,1499831.4339809,53,NaN,1499831.0060164,1499831.4394126,1499832.3544203,NaN,NaN
120,22,2,usability,0,bathroom,sun_anryaplzeujmzfkd.tif,149,1.5,0,0.766666666666667,1499832.3616744,1499833.9563739,53,NaN,1499833.8652766,1499833.9616197,1499834.7266268,NaN,NaN
120,23,2,usability,0,bathroom,sun_anhioqovhscjqqwb.tif,148,1.5,0,0.866666666666667,1499834.732646,1499836.5213554,51,NaN,1499836.2357896,1499836.5276531,1499837.3926809,NaN,NaN
120,24,2,usability,0,bathroom,sun_axldvoqbuvuggfmq.tif,167,1.5,0,0.833333333333333,1499837.3995984,1499839.1547077,51,NaN,1499838.9020685,1499839.1612,1499839.9928721,NaN,NaN
120,25,2,usability,0,bathroom,sun_aspsyogrekjtfozg.tif,160,1.5,0,0.75,1499839.9994272,1499841.7176303,53,NaN,1499841.5024163,1499841.7240035,1499842.4723424,NaN,NaN
