sub_num,trial,block,task,is_practice,category,image,texture,duration,mask_dur,jitter,stim_time,time_of_resp,trial_response,mask_time,fix_time,jit_onset,trial_end,trial_accuracy,RT
120,6,0,usability,1,kitchen,kitchen_practice2.tif,227,1.5,0,1.13333333333333,1491325.5459973,1491327.6181309,52,NaN,1491327.0490428,1491327.6235238,1491328.7551961,NaN,NaN
120,7,0,usability,1,kitchen,kitchen_practice3.tif,228,1.5,0,0.933333333333333,1491328.762127,1491330.7414596,51,NaN,1491330.2658061,1491330.7476997,1491331.6793733,NaN,NaN
120,8,0,usability,1,kitchen,kitchen_practice1.tif,226,1.5,0,1.48333333333333,1491331.6855468,1491334.3098948,52,NaN,1491333.188489,1491334.3154106,1491335.7970852,NaN,NaN
120,9,0,usability,1,kitchen,kitchen_practice4.tif,229,1.5,0,1.33333333333333,1491335.8035075,1491337.3992949,54,NaN,1491337.3065384,1491337.4052064,1491338.7368781,NaN,NaN
120,10,0,usability,1,kitchen,kitchen_practice5.tif,230,1.5,0,1.3,1491338.7427819,1491340.6044023,54,NaN,1491340.2464452,1491340.6100858,1491341.9084265,NaN,NaN
120,1,1,usability,0,kitchen,sun_aqeaevwwwjoqhzvl.tif,210,1.5,0,1.91666666666667,1491346.9962649,1491348.9419919,51,NaN,1491348.4996336,1491348.9473506,1491350.8623552,NaN,NaN
120,2,1,usability,0,kitchen,sun_aypmqwcualkenuoe.tif,218,1.5,0,0.85,1491350.868641,1491352.8526246,49,NaN,1491352.3720802,1491352.8580093,1491353.7063488,NaN,NaN
120,3,1,usability,0,kitchen,labelme_rykdqxenmhulbdn.tif,173,1.5,0,0.7,1491353.7126465,1491355.624643,54,NaN,1491355.2157553,1491355.6302149,1491356.3285551,NaN,NaN
120,4,1,usability,0,kitchen,sun_adgqasybjyktddhj.tif,188,1.5,0,1.6,1491356.3347954,1491358.272227,53,NaN,1491357.8377724,1491358.2777807,1491359.8761224,NaN,NaN
120,5,1,usability,0,kitchen,sun_aehawpgmrlhlvcow.tif,191,1.5,0,1.13333333333333,1491359.8824166,1491362.0630047,52,NaN,1491361.3858471,1491362.0685796,1491363.2002739,NaN,NaN
120,6,1,usability,0,kitchen,sun_aadbddgrdsjugojn.tif,174,1.5,0,0.716666666666667,1491363.2070912,1491365.1457727,50,NaN,1491364.7105581,1491365.1516479,1491365.8666551,NaN,NaN
120,7,1,usability,0,kitchen,sun_acwjdupvyjsugpay.tif,186,1.5,0,1.6,1491365.8728396,1491367.757106,54,NaN,1491367.3767345,1491367.7627201,1491369.3610613,NaN,NaN
120,8,1,usability,0,kitchen,sun_ajcbwwvdlsvjyzje.tif,205,1.5,0,1.68333333333333,1491369.3686256,1491371.3912753,54,NaN,1491370.8726809,1491371.3977731,1491373.0794604,NaN,NaN
120,9,1,usability,0,kitchen,sun_aunzlwrbjumxhwdj.tif,212,1.5,0,1.41666666666667,1491373.0861492,1491375.0564266,50,NaN,1491374.5887476,1491375.0618914,1491376.4768984,NaN,NaN
120,10,1,usability,0,kitchen,sun_aamedkxepzlwuxes.tif,175,1.5,0,1,1491376.4831486,1491378.4666945,51,NaN,1491377.9867164,1491378.4722903,1491379.4706293,NaN,NaN
120,11,1,usability,0,kitchen,sun_ahpczsiumwwocjkv.tif,202,1.5,0,1.33333333333333,1491379.4780888,1491381.5863076,54,NaN,1491380.9814276,1491381.5923986,1491382.924073,NaN,NaN
120,12,1,usability,0,kitchen,sun_aenotlpyftoioydp.tif,192,1.5,0,1.15,1491382.930509,1491385.4807399,52,NaN,1491384.4342503,1491385.4873829,1491386.6357408,NaN,NaN
120,13,1,usability,0,kitchen,sun_aexklacwqwezaorf.tif,194,1.5,0,1.86666666666667,1491386.6422456,1491389.6310026,54,NaN,1491388.1450538,1491389.6364941,1491391.5015015,NaN,NaN
120,14,1,usability,0,kitchen,sun_aapllqyqlykszopd.tif,176,1.5,0,1.18333333333333,1491391.5075023,1491393.2719344,53,NaN,1491393.0107767,1491393.277248,1491394.4589201,NaN,NaN
120,15,1,usability,0,kitchen,sun_ahywdevtimnqcsln.tif,204,1.5,0,1.71666666666667,1491394.4651306,1491397.2446127,52,NaN,1491395.9679634,1491397.2499967,1491398.965005,NaN,NaN
120,16,1,usability,0,kitchen,sun_aggjlwcdjsjcaemh.tif,196,1.5,0,1.1,1491398.971309,1491400.9629804,51,NaN,1491400.474753,1491400.9697646,1491402.0681056,NaN,NaN
120,17,1,usability,0,kitchen,sun_acxkpeoqbwcxfvip.tif,187,1.5,0,0.983333333333333,1491402.0746837,1491403.8655786,54,NaN,1491403.5781905,1491403.8720307,1491404.8537049,NaN,NaN
120,18,1,usability,0,kitchen,sun_aeqdocilnnpuvuhx.tif,193,1.5,0,0.916666666666667,1491404.8598095,1491407.0060266,54,NaN,1491406.3630922,1491407.0123961,1491407.9274016,NaN,NaN
120,19,1,usability,0,kitchen,sun_amjjdeyrggfqgmom.tif,209,1.5,0,0.716666666666667,1491407.9337424,1491410.0554601,54,NaN,1491409.4367844,1491410.0619366,1491410.7769433,NaN,NaN
120,20,1,usability,0,kitchen,sun_ajkqhtgcbgpcwrwn.tif,206,1.5,0,0.883333333333333,1491410.7830326,1491412.5389457,51,NaN,1491412.2865491,1491412.5454583,1491413.4271318,NaN,NaN
120,21,1,usability,0,kitchen,sun_azmutvzbxypaceni.tif,220,1.5,0,1.93333333333333,1491413.435135,1491415.5171056,52,NaN,1491414.9388708,1491415.522567,1491417.4542443,NaN,NaN
120,22,1,usability,0,kitchen,sun_axyyrmzcupyhlivc.tif,216,1.5,0,0.9,1491417.4605129,1491420.6275212,52,NaN,1491418.9638496,1491420.6337254,1491421.5320653,NaN,NaN
120,23,1,usability,0,kitchen,sun_auticobqsbwgoppi.tif,213,1.5,0,1.13333333333333,1491421.5389681,1491423.3311593,50,NaN,1491423.0428372,1491423.3376162,1491424.4692898,NaN,NaN
120,24,1,usability,0,kitchen,labelme_kxvouciolcpqplr.tif,172,1.5,0,0.766666666666667,1491424.4756188,1491426.5902651,54,NaN,1491425.9784348,1491426.595879,1491427.3608847,NaN,NaN
120,25,1,usability,0,kitchen,sun_agubuxuukhzyzpdp.tif,198,1.5,0,0.966666666666667,1491427.3672238,1491429.2301013,54,NaN,1491428.8703376,1491429.2356691,1491430.2006744,NaN,NaN
120,1,2,usability,0,kitchen,sun_akchetnepxlcxhsu.tif,207,1.5,0,1.56666666666667,1491435.3899385,1491436.8932556,51,NaN,1491436.8929562,1491436.9191407,1491438.4841564,NaN,NaN
120,2,2,usability,0,kitchen,sun_awcpdzzznmweyyhv.tif,215,1.5,0,1.2,1491438.4903388,1491440.1902666,53,NaN,1491439.9932915,1491440.1965078,1491441.3948617,NaN,NaN
120,3,2,usability,0,kitchen,sun_admlmbcdswaszruo.tif,189,1.5,0,1.73333333333333,1491441.401181,1491443.4913386,53,NaN,1491442.9039414,1491443.4968178,1491445.228491,NaN,NaN
120,4,2,usability,0,kitchen,sun_abdxkyyxwfskuaqb.tif,180,1.5,0,1.61666666666667,1491445.2342954,1491447.4384802,50,NaN,1491446.7377885,1491447.4450223,1491449.060046,NaN,NaN
120,5,2,usability,0,kitchen,sun_ayqymgxqhxxiykiw.tif,219,1.5,0,1.38333333333333,1491449.066332,1491451.2918688,53,NaN,1491450.5691548,1491451.298059,1491452.6797339,NaN,NaN
120,6,2,usability,0,kitchen,sun_agzzivivdpnawacl.tif,199,1.5,0,1.73333333333333,1491452.6860649,1491455.7753878,52,NaN,1491454.1891838,1491455.780734,1491457.5124573,NaN,NaN
120,7,2,usability,0,kitchen,sun_aaxxjlsuzvqlgylf.tif,178,1.5,0,1.96666666666667,1491457.5189639,1491459.2877371,54,NaN,1491459.0223091,1491459.2930334,1491461.2580626,NaN,NaN
120,8,2,usability,0,kitchen,sun_abftihopvusyfakt.tif,181,1.5,0,0.883333333333333,1491461.2640444,1491463.5275416,52,NaN,1491462.7675447,1491463.5338661,1491464.4155388,NaN,NaN
120,9,2,usability,0,kitchen,sun_agorklincwxrdtga.tif,197,1.5,0,1.06666666666667,1491464.4217315,1491466.6362489,51,NaN,1491465.9249186,1491466.6417408,1491467.7067476,NaN,NaN
120,10,2,usability,0,kitchen,labelme_brsyyvweiuaazfr.tif,171,1.5,0,1.06666666666667,1491467.7131137,1491469.9745523,52,NaN,1491469.2164394,1491469.980978,1491471.0459871,NaN,NaN
120,11,2,usability,0,kitchen,sun_afuyedyxivkhecmu.tif,195,1.5,0,0.966666666666667,1491471.0526304,1491473.0904449,51,NaN,1491472.5554661,1491473.0960441,1491474.0610495,NaN,NaN
120,12,2,usability,0,kitchen,sun_aegoxogugdkwpmpj.tif,190,1.5,0,1.78333333333333,1491474.0671091,1491475.9623486,53,NaN,1491475.57068,1491475.9678914,1491477.7495661,NaN,NaN
120,13,2,usability,0,kitchen,sun_aymvwlarqodbwuoc.tif,217,1.5,0,1.68333333333333,1491477.7559631,1491479.5317673,54,NaN,1491479.2593947,1491479.5373305,1491481.2190024,NaN,NaN
120,14,2,usability,0,kitchen,sun_abpwyqmlzafvklqo.tif,182,1.5,0,0.983333333333333,1491481.2251382,1491483.3022397,52,NaN,1491482.7280538,1491483.308641,1491484.2903147,NaN,NaN
120,15,2,usability,0,kitchen,sun_abdenxonkemggwsq.tif,179,1.5,0,1.33333333333333,1491484.2975484,1491486.057577,53,NaN,1491485.8012097,1491486.0630561,1491487.3947295,NaN,NaN
120,16,2,usability,0,kitchen,sun_acgtpgfybqjmzeyw.tif,185,1.5,0,1.56666666666667,1491487.4011455,1491489.6752698,54,NaN,1491488.9048838,1491489.6807047,1491491.2457123,NaN,NaN
120,17,2,usability,0,kitchen,sun_ahspylgoovwmwvgk.tif,203,1.5,0,1.66666666666667,1491491.2518374,1491493.038715,54,NaN,1491492.755911,1491493.0451634,1491494.7101699,NaN,NaN
120,18,2,usability,0,kitchen,sun_avszsnwsbuqfgzbn.tif,214,1.5,0,1.86666666666667,1491494.7164214,1491496.4526919,52,NaN,1491496.2197667,1491496.4582313,1491498.3232383,NaN,NaN
120,19,2,usability,0,kitchen,sun_auaiucuqpdausiva.tif,211,1.5,0,1.95,1491498.329442,1491500.0983418,51,NaN,1491499.8331284,1491500.1043578,1491502.0526972,NaN,NaN
120,20,2,usability,0,kitchen,sun_acfmftudsenhrfhy.tif,184,1.5,0,0.966666666666667,1491502.0585106,1491504.0860982,51,NaN,1491503.5616923,1491504.0925327,1491505.0575566,NaN,NaN
120,21,2,usability,0,kitchen,sun_abrcnpqqhmjwekyf.tif,183,1.5,0,1.43333333333333,1491505.0639186,1491507.8312911,53,NaN,1491506.5675424,1491507.8374719,1491509.2691463,NaN,NaN
120,22,2,usability,0,kitchen,sun_ahdycvpopffkzzsu.tif,200,1.5,0,0.85,1491509.2759897,1491511.2028548,51,NaN,1491510.7789765,1491511.2089379,1491512.0573018,NaN,NaN
120,23,2,usability,0,kitchen,sun_ahljzhgcdpomplvg.tif,201,1.5,0,1.53333333333333,1491512.0649064,1491514.1020156,51,NaN,1491513.5681652,1491514.1075809,1491515.6392546,NaN,NaN
120,24,2,usability,0,kitchen,sun_akcjzhbbjlbogpdi.tif,208,1.5,0,1.18333333333333,1491515.6455655,1491517.7203647,50,NaN,1491517.1485457,1491517.7260834,1491518.9077572,NaN,NaN
120,25,2,usability,0,kitchen,sun_aarfiyshqohlwkmo.tif,177,1.5,0,1.86666666666667,1491518.913491,1491520.9573506,50,NaN,1491520.4173472,1491520.963717,1491522.8287252,NaN,NaN
