sub_num,trial,block,task,is_practice,category,image,texture,duration,mask_dur,jitter,stim_time,time_of_resp,trial_response,mask_time,fix_time,jit_onset,trial_end,trial_accuracy,RT
134,1,0,categorization,1,kitchen,SHINEd_kitchen_practice2.tif,117,0.0666666666666667,0.0666666666666667,1.21666666666667,844.097046791,845.994415125,9,844.163988041,844.223757083,846.011504125,847.221697916,1,1.89736833400002
134,2,0,categorization,1,kitchen,SHINEd_kitchen_practice5.tif,120,0.0666666666666667,0.0666666666666667,1.36666666666667,847.2810805,848.767291,13,847.351352416,847.414713875,848.808300416,850.168535708,0,1.48621049999997
134,3,0,categorization,1,kitchen,SHINEd_kitchen_practice1.tif,116,0.0666666666666667,0.0666666666666667,1.85,850.222159916,851.970982583,9,850.2967755,850.356789583,851.9936615,853.837162958,1,1.74882266700001
134,4,0,categorization,1,kitchen,SHINEd_kitchen_practice4.tif,119,0.0666666666666667,0.0666666666666667,1.55,853.863834666,855.162489333,9,853.933869708,853.997269375,855.18347125,856.726978541,1,1.29865466700005
134,5,0,categorization,1,bathroom,SHINEd_bathroom_practice1.tif,111,0.0666666666666667,0.0666666666666667,1.48333333333333,856.758975541,857.686316291,13,856.831432916,856.892804666,857.728168666,859.205850666,1,0.927340749999985
134,6,0,categorization,1,bathroom,SHINEd_bathroom_practice4.tif,114,0.0666666666666667,0.0666666666666667,1.15,859.229223875,860.564221416,13,859.295327166,859.362913083,860.590234041,861.733763,1,1.33499754100001
134,7,0,categorization,1,kitchen,SHINEd_kitchen_practice3.tif,118,0.0666666666666667,0.0666666666666667,0.733333333333333,861.745264708,862.794533375,9,861.811787625,861.879564875,862.818578041,863.545433708,1,1.04926866699998
134,8,0,categorization,1,bathroom,SHINEd_bathroom_practice2.tif,112,0.0666666666666667,0.0666666666666667,1.6,863.563329666,865.594305625,9,863.6299755,863.688609208,865.607687708,867.201046375,0,2.03097595899999
134,9,0,categorization,1,bathroom,SHINEd_bathroom_practice3.tif,113,0.0666666666666667,0.0666666666666667,0.716666666666667,867.217495625,868.610961083,13,867.282715958,867.349137166,868.640623583,869.350631708,1,1.39346545800004
134,10,0,categorization,1,bathroom,SHINEd_bathroom_practice5.tif,115,0.0666666666666667,0.0666666666666667,1.21666666666667,869.355364708,871.497810583,13,869.417284583,869.478110625,871.513557833,872.723592416,1,2.14244587500002
134,1,1,categorization,0,kitchen,SHINEd_sun_aexklacwqwezaorf.tif,84,0.0666666666666667,0.0666666666666667,1.23333333333333,921.135218333,922.458055375,9,921.196887583,921.258057958,922.477306,923.704017208,1,1.32283704199995
134,2,1,categorization,0,kitchen,SHINEd_sun_awcpdzzznmweyyhv.tif,106,0.0666666666666667,0.0666666666666667,0.783333333333333,923.72121025,925.057429708,9,923.78792125,923.8539275,925.077342333,925.854014333,1,1.33621945799996
134,3,1,categorization,0,kitchen,SHINEd_sun_agorklincwxrdtga.tif,87,0.0666666666666667,0.0666666666666667,0.75,925.858706666,926.945931958,9,925.920337083,925.981466791,926.950607166,927.693946291,1,1.08722529199997
134,4,1,categorization,0,bathroom,SHINEd_sun_afcoljnjfoxjtgja.tif,20,0.0666666666666667,0.0666666666666667,1.23333333333333,927.699365,928.897700875,9,927.761116791,927.822185416,928.907442625,930.134182166,0,1.19833587500011
134,5,1,categorization,0,kitchen,SHINEd_sun_aenotlpyftoioydp.tif,82,0.0666666666666667,0.0666666666666667,1.13333333333333,930.151172333,931.228565333,13,930.218242458,930.28452775,931.238968208,932.365675833,0,1.07739300000003
134,6,1,categorization,0,bathroom,SHINEd_sun_apjevzvycyhuqghb.tif,43,0.0666666666666667,0.0666666666666667,0.95,932.37517175,933.459143458,9,932.440268833,932.508047625,933.481563916,934.424905958,0,1.08397170799992
134,7,1,categorization,0,kitchen,SHINEd_sun_aixorpehvfykdynp.tif,95,0.0666666666666667,0.0666666666666667,0.733333333333333,934.43046425,935.513985166,9,934.492197333,934.553069958,935.521655458,936.248328125,1,1.083520916
134,8,1,categorization,0,bathroom,SHINEd_sun_atstyziqcmkahyxk.tif,51,0.0666666666666667,0.0666666666666667,1.31666666666667,936.253918958,936.873581166,13,936.315604375,936.376560333,936.878879958,938.188932166,1,0.619662208000022
134,9,1,categorization,0,kitchen,SHINEd_sun_aunzlwrbjumxhwdj.tif,103,0.0666666666666667,0.0666666666666667,0.8,938.206036416,939.075705375,9,938.272615125,938.338846125,939.094751833,939.888134041,1,0.869668959000023
134,10,1,categorization,0,bathroom,SHINEd_sun_asfwthctfqerjvxr.tif,49,0.0666666666666667,0.0666666666666667,0.716666666666667,939.898869708,941.49793525,13,939.960590833,940.021505666,941.506807416,942.216813208,1,1.59906554199995
134,11,1,categorization,0,bathroom,SHINEd_sun_axldvoqbuvuggfmq.tif,57,0.0666666666666667,0.0666666666666667,0.916666666666667,942.222154541,943.817702541,9,942.28384075,942.344796541,943.830195791,944.740202041,0,1.59554800000001
134,12,1,categorization,0,bathroom,SHINEd_sun_aclfzgynxzxlbepz.tif,19,0.0666666666666667,0.0666666666666667,0.95,944.745575458,945.721970458,9,944.807454625,944.868231083,945.737061916,946.680402208,0,0.976395000000025
134,13,1,categorization,0,kitchen,SHINEd_sun_acgtpgfybqjmzeyw.tif,75,0.0666666666666667,0.0666666666666667,0.833333333333333,946.685995083,948.14625025,9,946.747828416,946.80866575,948.160650083,948.98732175,1,1.46025516700001
134,14,1,categorization,0,kitchen,SHINEd_sun_acfmftudsenhrfhy.tif,74,0.0666666666666667,0.0666666666666667,0.75,948.992242208,950.250426708,9,949.053949041,949.115153541,950.267469583,951.010807625,1,1.25818449999997
134,15,1,categorization,0,kitchen,SHINEd_sun_abrcnpqqhmjwekyf.tif,73,0.0666666666666667,0.0666666666666667,1.53333333333333,951.016169041,952.34537075,13,951.077912625,951.138827083,952.358217333,953.88493025,0,1.32920170900002
134,16,1,categorization,0,bathroom,SHINEd_sun_ahqjwnzgolcaoidx.tif,29,0.0666666666666667,0.0666666666666667,1.05,953.902444791,955.238417083,13,953.969329208,954.035218583,955.258781333,956.302150041,1,1.33597229199995
134,17,1,categorization,0,bathroom,SHINEd_sun_anryaplzeujmzfkd.tif,39,0.0666666666666667,0.0666666666666667,0.9,956.312624666,957.628398875,9,956.377556458,956.44381175,957.648816916,958.5421555,0,1.31577420899998
134,18,1,categorization,0,kitchen,SHINEd_sun_azmutvzbxypaceni.tif,110,0.0666666666666667,0.0666666666666667,1.18333333333333,958.548175291,959.601628125,9,958.609993875,958.670989583,959.606337833,960.7830535,1,1.05345283400004
134,19,1,categorization,0,bathroom,SHINEd_sun_aghyqhbptboemmoq.tif,23,0.0666666666666667,0.0666666666666667,0.9,960.794809708,961.678432791,13,960.861472333,960.927565916,961.700027916,962.593401541,1,0.883623082999975
134,20,1,categorization,0,bathroom,SHINEd_sun_apkruvsevgegsdwp.tif,44,0.0666666666666667,0.0666666666666667,1.66666666666667,962.609521958,964.057501,13,962.676352666,962.733182375,964.06878775,965.728841875,1,1.44797904200004
134,21,1,categorization,0,bathroom,SHINEd_sun_aofnryafpsjimzsb.tif,40,0.0666666666666667,0.0666666666666667,1.13333333333333,965.747828416,966.760064708,13,965.814684583,965.880471041,966.78710775,967.913814,1,1.01223629200001
134,22,1,categorization,0,bathroom,SHINEd_sun_auzqhkafidnkrwmo.tif,54,0.0666666666666667,0.0666666666666667,1.3,967.923350708,969.227943958,9,967.989082666,968.057716,969.246189166,970.539559833,0,1.30459324999993
134,23,1,categorization,0,kitchen,SHINEd_sun_abdenxonkemggwsq.tif,69,0.0666666666666667,0.0666666666666667,1.93333333333333,970.55793475,972.11486825,9,970.624240791,970.690621791,972.131711416,974.058423166,1,1.55693350000001
134,24,1,categorization,0,bathroom,SHINEd_sun_axyrejkiiaqiurjk.tif,59,0.0666666666666667,0.0666666666666667,1,974.076858083,975.090366375,13,974.143758416,974.21043275,975.117513666,976.110853708,1,1.01350829199998
134,25,1,categorization,0,bathroom,SHINEd_sun_alotolagknyrgtsk.tif,35,0.0666666666666667,0.0666666666666667,0.883333333333333,976.11670075,977.361390916,13,976.178427125,976.239334916,977.374867291,978.251540458,1,1.24469016600005
134,26,1,categorization,0,bathroom,SHINEd_sun_aggnnqpdorgxpvce.tif,21,0.0666666666666667,0.0666666666666667,1.95,978.256958416,979.497452416,9,978.3187905,978.379653666,979.515036,981.458423541,0,1.24049400000001
134,27,1,categorization,0,kitchen,SHINEd_sun_aarfiyshqohlwkmo.tif,67,0.0666666666666667,0.0666666666666667,1.25,981.475486291,982.810282833,9,981.541792041,981.608208583,982.827102625,984.070494083,1,1.33479654199994
134,28,1,categorization,0,bathroom,SHINEd_sun_ahcvzmoyaycdoftf.tif,27,0.0666666666666667,0.0666666666666667,1.95,984.0852805,985.5230185,9,984.152306125,984.218264125,985.542769625,987.486144791,0,1.43773800000008
134,29,1,categorization,0,kitchen,SHINEd_sun_agubuxuukhzyzpdp.tif,88,0.0666666666666667,0.0666666666666667,1.91666666666667,987.500436958,988.574069416,9,987.567487333,987.633333833,988.589314833,990.499364791,1,1.07363245800002
134,30,1,categorization,0,bathroom,SHINEd_sun_agguqiubmwhqqunb.tif,22,0.0666666666666667,0.0666666666666667,1.41666666666667,990.5184445,991.39022675,9,990.585450583,990.65114925,991.407860625,992.817908291,0,0.871782250000024
134,31,1,categorization,0,kitchen,SHINEd_sun_aegoxogugdkwpmpj.tif,80,0.0666666666666667,0.0666666666666667,0.716666666666667,992.838634083,993.991095791,9,992.905364375,992.97197775,994.012393916,994.72240225,1,1.15246170800003
134,32,1,categorization,0,bathroom,SHINEd_sun_agyqfjcfkdcydepw.tif,25,0.0666666666666667,0.0666666666666667,1.28333333333333,994.72818125,996.409636791,9,994.789928833,994.850824583,996.420132625,997.696846958,0,1.68145554099999
134,33,1,categorization,0,kitchen,SHINEd_sun_aehawpgmrlhlvcow.tif,81,0.0666666666666667,0.0666666666666667,0.9,997.714916083,998.706313666,9,997.781584708,997.8437225,998.732329208,999.6256675,1,0.99139758299998
134,34,1,categorization,0,kitchen,SHINEd_sun_aadbddgrdsjugojn.tif,64,0.0666666666666667,0.0666666666666667,0.8,999.631373875,1000.522179083,13,999.693038791,999.753982166,1000.539868,1001.33320475,0,0.890805207999961
134,35,1,categorization,0,kitchen,SHINEd_sun_aypmqwcualkenuoe.tif,109,0.0666666666666667,0.0666666666666667,1.01666666666667,1001.337962375,1002.290167625,13,1001.399654291,1001.460645333,1002.296391583,1003.306429,0,0.95220525000002
134,36,1,categorization,0,kitchen,SHINEd_sun_abpwyqmlzafvklqo.tif,72,0.0666666666666667,0.0666666666666667,0.85,1003.314712666,1004.35953525,9,1003.378721625,1003.445975416,1004.385852583,1005.22923825,1,1.04482258400003
134,37,1,categorization,0,bathroom,SHINEd_sun_alkosphxlxwjwgjd.tif,34,0.0666666666666667,0.0666666666666667,1.51666666666667,1005.238781166,1006.417728708,13,1005.304120458,1005.365179041,1006.434304208,1007.944340416,1,1.17894754200006
134,38,1,categorization,0,bathroom,SHINEd_sun_axxbkopsgyouuebh.tif,58,0.0666666666666667,0.0666666666666667,1.83333333333333,1007.95667175,1008.745049375,13,1008.023747666,1008.089193208,1008.761808291,1010.588519875,1,0.788377624999953
134,39,1,categorization,0,kitchen,SHINEd_sun_aaxxjlsuzvqlgylf.tif,68,0.0666666666666667,0.0666666666666667,0.716666666666667,1010.606516791,1011.372517125,9,1010.673151291,1010.739248083,1011.396242458,1012.106247458,1,0.766000333999955
134,40,1,categorization,0,bathroom,SHINEd_sun_ambriybtogmepttm.tif,36,0.0666666666666667,0.0666666666666667,0.9,1012.11212425,1013.305713583,9,1012.173831375,1012.234835666,1013.320080458,1014.213417916,0,1.19358933300009
134,41,1,categorization,0,kitchen,SHINEd_sun_aymvwlarqodbwuoc.tif,108,0.0666666666666667,0.0666666666666667,0.916666666666667,1014.218417833,1015.010077875,13,1014.280278708,1014.34112175,1015.026693666,1015.936699291,0,0.79166004199999
134,42,1,categorization,0,kitchen,SHINEd_sun_admlmbcdswaszruo.tif,79,0.0666666666666667,0.0666666666666667,0.816666666666667,1015.941454916,1016.713793291,9,1016.003371833,1016.06405625,1016.733096958,1017.543101875,1,0.772338375000004
134,43,1,categorization,0,bathroom,SHINEd_sun_ahijqszoswveeyji.tif,28,0.0666666666666667,0.0666666666666667,1.88333333333333,1017.547811708,1018.370106208,9,1017.609465916,1017.67048025,1018.389192375,1020.265891166,0,0.822294499999998
134,44,1,categorization,0,kitchen,SHINEd_sun_ahspylgoovwmwvgk.tif,93,0.0666666666666667,0.0666666666666667,0.9,1020.284140416,1021.032833291,9,1020.350630833,1020.416721875,1021.056566,1021.94990575,1,0.748692874999961
134,45,1,categorization,0,bathroom,SHINEd_sun_aapitsgbtktqubfy.tif,12,0.0666666666666667,0.0666666666666667,1,1021.955408041,1022.753163833,13,1022.017071875,1022.078042333,1022.763503958,1023.756843625,1,0.797755791999975
134,46,1,categorization,0,kitchen,SHINEd_sun_auticobqsbwgoppi.tif,104,0.0666666666666667,0.0666666666666667,0.733333333333333,1023.762715708,1025.577003833,13,1023.824428208,1023.885770125,1025.58812875,1026.314801041,0,1.81428812499996
134,47,1,categorization,0,bathroom,SHINEd_sun_apynckhmoftszqoq.tif,47,0.0666666666666667,0.0666666666666667,0.883333333333333,1026.320342916,1027.186003666,13,1026.382046958,1026.443040625,1027.194799,1028.0714715,1,0.865660749999961
134,48,1,categorization,0,kitchen,SHINEd_sun_abftihopvusyfakt.tif,71,0.0666666666666667,0.0666666666666667,1.73333333333333,1028.076973083,1029.145384208,9,1028.138608083,1028.199755,1029.151492916,1030.878178458,1,1.06841112500001
134,49,1,categorization,0,kitchen,SHINEd_sun_ahdycvpopffkzzsu.tif,90,0.0666666666666667,0.0666666666666667,1.91666666666667,1030.888395541,1032.457460333,13,1030.954951083,1031.020897541,1032.473465458,1034.3834985,0,1.56906479200006
134,50,1,categorization,0,kitchen,SHINEd_sun_abdxkyyxwfskuaqb.tif,70,0.0666666666666667,0.0666666666666667,1.35,1034.401776208,1035.465476375,13,1034.468474583,1034.534297666,1035.4911855,1036.834552208,0,1.06370016699998
134,1,2,categorization,0,bathroom,SHINEd_sun_anhioqovhscjqqwb.tif,38,0.0666666666666667,0.0666666666666667,0.95,1044.379551875,1045.305916583,13,1044.441905708,1044.502280208,1045.320689041,1046.264028125,1,0.926364707999937
134,2,2,categorization,0,kitchen,SHINEd_sun_aggjlwcdjsjcaemh.tif,86,0.0666666666666667,0.0666666666666667,0.75,1046.269557958,1046.945745916,9,1046.331178583,1046.392151833,1046.960613916,1047.703952625,1,0.676187958000128
134,3,2,categorization,0,bathroom,SHINEd_sun_aunuadmjocsddsrl.tif,52,0.0666666666666667,0.0666666666666667,1.68333333333333,1047.709897458,1048.601065291,9,1047.771557375,1047.832631625,1048.618388791,1050.29508775,0,0.891167833000054
134,4,2,categorization,0,bathroom,SHINEd_sun_aavhrsfjbserjtht.tif,13,0.0666666666666667,0.0666666666666667,0.816666666666667,1050.31246675,1051.064867416,13,1050.379077416,1050.445360125,1051.084408083,1051.894416458,1,0.752400665999858
134,5,2,categorization,0,kitchen,SHINEd_labelme_brsyyvweiuaazfr.tif,61,0.0666666666666667,0.0666666666666667,0.916666666666667,1051.900070875,1053.009225125,13,1051.961730291,1052.022747583,1053.025013083,1053.935018083,0,1.10915425000007
134,6,2,categorization,0,bathroom,SHINEd_sun_abjtwfukuwddzted.tif,15,0.0666666666666667,0.0666666666666667,1.21666666666667,1053.940501791,1055.160939666,13,1054.002150333,1054.06313625,1055.16541925,1056.375463208,1,1.22043787500002
134,7,2,categorization,0,bathroom,SHINEd_sun_acgyywnybuveqsro.tif,18,0.0666666666666667,0.0666666666666667,0.9,1056.397157083,1057.45360025,13,1056.463818,1056.529642625,1057.469416291,1058.362755833,1,1.056443167
134,8,2,categorization,0,kitchen,SHINEd_sun_ahywdevtimnqcsln.tif,94,0.0666666666666667,0.0666666666666667,1.65,1058.3685075,1059.129354125,9,1058.43021825,1058.49119225,1059.142964625,1060.786338791,1,0.760846624999886
134,9,2,categorization,0,kitchen,SHINEd_sun_ajcbwwvdlsvjyzje.tif,96,0.0666666666666667,0.0666666666666667,1.15,1060.80373775,1061.80725725,9,1060.870167666,1060.936205,1061.825735291,1062.969105083,1,1.00351950000004
134,10,2,categorization,0,bathroom,SHINEd_sun_awnqiikzaispgmwo.tif,56,0.0666666666666667,0.0666666666666667,1.13333333333333,1062.979341583,1064.221403833,13,1063.0457495,1063.112247541,1064.234617458,1065.361328375,1,1.24206225000012
134,11,2,categorization,0,kitchen,SHINEd_sun_acwjdupvyjsugpay.tif,76,0.0666666666666667,0.0666666666666667,1.76666666666667,1065.370517,1066.278663208,9,1065.435688458,1065.50331525,1066.292495791,1068.052547625,1,0.908146207999835
134,12,2,categorization,0,kitchen,SHINEd_sun_afuyedyxivkhecmu.tif,85,0.0666666666666667,0.0666666666666667,1.8,1068.071073,1069.244296291,9,1068.137615958,1068.203661291,1069.258199416,1071.051590041,1,1.17322329099989
134,13,2,categorization,0,kitchen,SHINEd_sun_ahpczsiumwwocjkv.tif,92,0.0666666666666667,0.0666666666666667,0.9,1071.069645208,1071.938445875,9,1071.134254416,1071.201095,1071.957263625,1072.850602375,1,0.86880066699996
134,14,2,categorization,0,bathroom,SHINEd_sun_acegryoqftbzowsg.tif,17,0.0666666666666667,0.0666666666666667,0.716666666666667,1072.856480291,1073.85779025,9,1072.918294208,1072.979174,1073.864460583,1074.574465416,0,1.00130995900008
134,15,2,categorization,0,kitchen,SHINEd_sun_akcjzhbbjlbogpdi.tif,99,0.0666666666666667,0.0666666666666667,1.36666666666667,1074.5793075,1075.84083125,9,1074.641169625,1074.701877,1075.854391583,1077.21443275,1,1.26152375000015
134,16,2,categorization,0,bathroom,SHINEd_sun_aljolscmmzydegqp.tif,33,0.0666666666666667,0.0666666666666667,0.916666666666667,1077.228516916,1078.316003416,9,1077.293096916,1077.361403708,1078.333933916,1079.243937708,0,1.08748650000007
134,17,2,categorization,0,bathroom,SHINEd_sun_apmqjbnwghzuhhzh.tif,46,0.0666666666666667,0.0666666666666667,0.716666666666667,1079.248675666,1080.073830791,13,1079.31044375,1079.371421208,1080.089737083,1080.799743333,1,0.825155125000038
134,18,2,categorization,0,kitchen,SHINEd_labelme_rykdqxenmhulbdn.tif,63,0.0666666666666667,0.0666666666666667,0.766666666666667,1080.805230958,1081.71311375,9,1080.866931041,1080.927862083,1081.72998275,1082.489989,1,0.907882792000009
134,19,2,categorization,0,kitchen,SHINEd_sun_ajkqhtgcbgpcwrwn.tif,97,0.0666666666666667,0.0666666666666667,1.06666666666667,1082.495533333,1083.433156083,9,1082.557133916,1082.618121541,1083.436678708,1084.49673375,1,0.937622750000173
134,20,2,categorization,0,kitchen,SHINEd_sun_axyyrmzcupyhlivc.tif,107,0.0666666666666667,0.0666666666666667,0.8,1084.50568575,1086.274571916,13,1084.570144583,1084.635892958,1086.293768375,1087.087107666,0,1.7688861659999
134,21,2,categorization,0,kitchen,SHINEd_sun_amjjdeyrggfqgmom.tif,100,0.0666666666666667,0.0666666666666667,0.866666666666667,1087.093679958,1088.465449041,9,1087.155814791,1087.216285375,1088.485171791,1089.345176,1,1.37176908300012
134,22,2,categorization,0,kitchen,SHINEd_sun_acxkpeoqbwcxfvip.tif,77,0.0666666666666667,0.0666666666666667,1.48333333333333,1089.350003333,1090.360830291,9,1089.411756875,1089.472626458,1090.375080791,1091.851795,1,1.01082695800005
134,23,2,categorization,0,kitchen,SHINEd_sun_auaiucuqpdausiva.tif,102,0.0666666666666667,0.0666666666666667,1.1,1091.865620458,1092.84548875,9,1091.933902,1091.998572416,1092.87183175,1093.965221791,1,0.979868291999992
134,24,2,categorization,0,kitchen,SHINEd_sun_ahljzhgcdpomplvg.tif,91,0.0666666666666667,0.0666666666666667,0.783333333333333,1093.977214833,1094.984791166,13,1094.042112875,1094.109572625,1094.998717541,1095.77543425,0,1.00757633299986
134,25,2,categorization,0,kitchen,SHINEd_sun_avszsnwsbuqfgzbn.tif,105,0.0666666666666667,0.0666666666666667,0.866666666666667,1095.791590208,1096.53757525,9,1095.857698166,1095.924342583,1096.543404375,1097.403408916,1,0.745985042000029
134,26,2,categorization,0,bathroom,SHINEd_sun_ausgutylgojavyoq.tif,53,0.0666666666666667,0.0666666666666667,1.83333333333333,1097.408082541,1098.424811875,13,1097.469832625,1097.530780666,1098.432605666,1100.259308125,1,1.01672933399982
134,27,2,categorization,0,bathroom,SHINEd_sun_ahaulkltgpkeeemi.tif,26,0.0666666666666667,0.0666666666666667,0.7,1100.275865708,1101.285303416,9,1100.3438445,1100.408982583,1101.296765708,1101.990104958,0,1.00943770799995
134,28,2,categorization,0,bathroom,SHINEd_sun_apkxzenqapsujocq.tif,45,0.0666666666666667,0.0666666666666667,1.33333333333333,1101.995821083,1102.857712625,9,1102.057625583,1102.11841225,1102.870443708,1104.197153916,0,0.861891541999967
134,29,2,categorization,0,bathroom,SHINEd_labelme_sfxiulhjbhlyiyt.tif,11,0.0666666666666667,0.0666666666666667,1.33333333333333,1104.210566958,1104.901531583,13,1104.276980916,1104.343627708,1104.916285,1106.242985958,1,0.690964624999879
134,30,2,categorization,0,bathroom,SHINEd_sun_akiytfaagpdsphgz.tif,31,0.0666666666666667,0.0666666666666667,1.38333333333333,1106.260670291,1107.296704791,13,1106.327599541,1106.39359375,1107.3152005,1108.691905041,1,1.03603449999991
134,31,2,categorization,0,bathroom,SHINEd_sun_amzlamotzwfkwjco.tif,37,0.0666666666666667,0.0666666666666667,1.25,1108.709566208,1109.630069541,13,1108.777826166,1108.842131,1109.64845425,1110.891821416,1,0.920503332999942
134,32,2,categorization,0,kitchen,SHINEd_sun_aeqdocilnnpuvuhx.tif,83,0.0666666666666667,0.0666666666666667,1.55,1110.909027583,1111.629626958,9,1110.976971583,1111.042332666,1111.649131916,1113.192499541,1,0.72059937500012
134,33,2,categorization,0,bathroom,SHINEd_sun_aleqenyvunhactkl.tif,32,0.0666666666666667,0.0666666666666667,1.61666666666667,1113.204303875,1113.9234955,13,1113.270117625,1113.3350315,1113.94121775,1115.551255833,1,0.719191624999894
134,34,2,categorization,0,kitchen,SHINEd_sun_agzzivivdpnawacl.tif,89,0.0666666666666667,0.0666666666666667,1.33333333333333,1115.569902375,1116.379444125,13,1115.637182291,1115.702949125,1116.408863,1117.73557125,0,0.80954174999988
134,35,2,categorization,0,kitchen,SHINEd_labelme_kxvouciolcpqplr.tif,62,0.0666666666666667,0.0666666666666667,0.833333333333333,1117.751452916,1118.568550166,9,1117.819731041,1117.884330208,1118.591275125,1119.4179855,1,0.817097249999961
134,36,2,categorization,0,bathroom,SHINEd_sun_agrwbmhcpmfuwmsg.tif,24,0.0666666666666667,0.0666666666666667,1.45,1119.435334875,1120.46529025,9,1119.503051458,1119.559607375,1120.47863725,1121.922027708,0,1.02995537499987
134,37,2,categorization,0,bathroom,SHINEd_sun_abapwbhyhkfixyex.tif,14,0.0666666666666667,0.0666666666666667,0.933333333333333,1121.9400295,1122.723472416,9,1122.006718166,1122.072559916,1122.745323875,1123.671999833,0,0.783442916000013
134,38,2,categorization,0,bathroom,SHINEd_sun_acduarbnmmoglmiv.tif,16,0.0666666666666667,0.0666666666666667,1.65,1123.677657458,1124.545539166,13,1123.739297083,1123.800269041,1124.55254625,1126.195913625,1,0.867881707999913
134,39,2,categorization,0,bathroom,SHINEd_sun_ajlawzvmubibwbpy.tif,30,0.0666666666666667,0.0666666666666667,1.23333333333333,1126.212819583,1127.034408458,13,1126.279577833,1126.345914875,1127.05066525,1128.277380083,1,0.821588874999861
134,40,2,categorization,0,bathroom,SHINEd_sun_aqrpegblszgcoujh.tif,48,0.0666666666666667,0.0666666666666667,0.766666666666667,1128.291637875,1129.0812485,9,1128.358316166,1128.4242,1129.096214208,1129.856269875,0,0.789610624999796
134,41,2,categorization,0,bathroom,SHINEd_sun_aspsyogrekjtfozg.tif,50,0.0666666666666667,0.0666666666666667,1.78333333333333,1129.872847166,1130.657363,13,1129.939258375,1130.005348041,1130.67395625,1132.450675958,1,0.784515834000103
134,42,2,categorization,0,kitchen,SHINEd_sun_aamedkxepzlwuxes.tif,65,0.0666666666666667,0.0666666666666667,1.11666666666667,1132.465686916,1133.429353583,9,1132.531055833,1132.59881425,1133.454009166,1134.564063541,1,0.96366666699987
134,43,2,categorization,0,bathroom,SHINEd_sun_apeeialkgkuxddgh.tif,42,0.0666666666666667,0.0666666666666667,1.85,1134.573662458,1135.235182083,13,1134.638432375,1134.706242916,1135.243694875,1137.087076041,1,0.661519624999983
134,44,2,categorization,0,bathroom,SHINEd_sun_avhrdrntsqrjzccq.tif,55,0.0666666666666667,0.0666666666666667,0.733333333333333,1137.104266125,1137.99851225,9,1137.169728875,1137.234448833,1138.025098333,1138.75177275,0,0.894246124999881
134,45,2,categorization,0,kitchen,SHINEd_sun_akchetnepxlcxhsu.tif,98,0.0666666666666667,0.0666666666666667,0.783333333333333,1138.757637791,1139.432943208,13,1138.819371916,1138.8805365,1139.449095208,1140.225767416,0,0.675305417000118
134,46,2,categorization,0,kitchen,SHINEd_sun_aapllqyqlykszopd.tif,66,0.0666666666666667,0.0666666666666667,1.5,1140.231350083,1141.120794583,9,1140.292971208,1140.354051541,1141.139072375,1142.632449333,1,0.889444499999854
134,47,2,categorization,0,bathroom,SHINEd_sun_azqyogdvyhahyram.tif,60,0.0666666666666667,0.0666666666666667,0.733333333333333,1142.650293625,1143.330207458,13,1142.717261458,1142.78295325,1143.355455583,1144.082157833,1,0.679913833000001
134,48,2,categorization,0,kitchen,SHINEd_sun_adgqasybjyktddhj.tif,78,0.0666666666666667,0.0666666666666667,1.1,1144.097834333,1144.881272125,9,1144.164310541,1144.222321291,1144.891175416,1145.984551791,1,0.783437791999859
134,49,2,categorization,0,bathroom,SHINEd_sun_aoybiabnpadelefl.tif,41,0.0666666666666667,0.0666666666666667,1.6,1145.99468875,1147.349804458,9,1146.05968075,1146.127260333,1147.36980575,1148.963192375,0,1.35511570800008
134,50,2,categorization,0,kitchen,SHINEd_sun_aqeaevwwwjoqhzvl.tif,101,0.0666666666666667,0.0666666666666667,1.06666666666667,1148.98058775,1150.1733815,9,1149.047330875,1149.113455875,1150.203298333,1151.263333083,1,1.19279374999996
134,1,3,categorization,0,kitchen,SHINEd_sun_aenotlpyftoioydp.tif,82,0.0666666666666667,0.0666666666666667,0.85,1175.694001375,1176.561041875,9,1175.7564135,1175.816763333,1176.568645166,1177.411982958,1,0.86704050000003
134,2,3,categorization,0,bathroom,SHINEd_sun_ahcvzmoyaycdoftf.tif,27,0.0666666666666667,0.0666666666666667,1.65,1177.417026166,1178.313431,9,1177.478697583,1177.539695125,1178.324873958,1179.968250041,0,0.896404834000123
134,3,3,categorization,0,bathroom,SHINEd_sun_aqrpegblszgcoujh.tif,48,0.0666666666666667,0.0666666666666667,0.783333333333333,1179.983469833,1180.960269833,13,1180.049937916,1180.1152775,1180.988355,1181.765026916,1,0.976799999999912
134,4,3,categorization,0,kitchen,SHINEd_sun_aeqdocilnnpuvuhx.tif,83,0.0666666666666667,0.0666666666666667,0.933333333333333,1181.770692916,1182.633243333,13,1181.832547958,1181.893356125,1182.645822458,1183.572494083,0,0.862550417000193
134,5,3,categorization,0,bathroom,SHINEd_sun_alotolagknyrgtsk.tif,35,0.0666666666666667,0.0666666666666667,0.866666666666667,1183.577830416,1184.697282666,9,1183.63958275,1183.700412958,1184.702099708,1185.562105708,0,1.11945224999999
134,6,3,categorization,0,kitchen,SHINEd_sun_aggjlwcdjsjcaemh.tif,86,0.0666666666666667,0.0666666666666667,1.11666666666667,1185.567327125,1186.393417708,9,1185.628977458,1185.689978333,1186.409056416,1187.519102583,1,0.826090582999996
134,7,3,categorization,0,kitchen,SHINEd_sun_aehawpgmrlhlvcow.tif,81,0.0666666666666667,0.0666666666666667,0.966666666666667,1187.5289,1188.305342,13,1187.59375425,1187.662011583,1188.335884041,1189.295915125,0,0.776442000000088
134,8,3,categorization,0,bathroom,SHINEd_sun_aofnryafpsjimzsb.tif,40,0.0666666666666667,0.0666666666666667,1.78333333333333,1189.308221333,1190.120897875,9,1189.375656666,1189.441236791,1190.126466291,1191.903183833,0,0.81267654200019
134,9,3,categorization,0,kitchen,SHINEd_sun_aexklacwqwezaorf.tif,84,0.0666666666666667,0.0666666666666667,1.55,1191.918173541,1192.55405775,9,1191.984768,1192.050832875,1192.573687333,1194.117069416,1,0.635884209000096
134,10,3,categorization,0,bathroom,SHINEd_sun_axyrejkiiaqiurjk.tif,59,0.0666666666666667,0.0666666666666667,1.41666666666667,1194.134109625,1194.904966833,9,1194.201044041,1194.266651,1194.923523291,1196.33355625,0,0.770857207999825
134,11,3,categorization,0,bathroom,SHINEd_sun_aspsyogrekjtfozg.tif,50,0.0666666666666667,0.0666666666666667,0.8,1196.351950708,1196.860365875,13,1196.419802083,1196.4846995,1196.873680333,1197.667063416,1,0.508415167000067
134,12,3,categorization,0,kitchen,SHINEd_sun_aadbddgrdsjugojn.tif,64,0.0666666666666667,0.0666666666666667,1.28333333333333,1197.680965916,1198.433202166,9,1197.747571375,1197.81374925,1198.449680041,1199.726385833,1,0.752236249999896
134,13,3,categorization,0,kitchen,SHINEd_sun_aapllqyqlykszopd.tif,66,0.0666666666666667,0.0666666666666667,1.66666666666667,1199.74446725,1200.364154416,9,1199.811325958,1199.878947333,1200.384513166,1202.04454925,1,0.619687165999949
134,14,3,categorization,0,bathroom,SHINEd_sun_aclfzgynxzxlbepz.tif,19,0.0666666666666667,0.0666666666666667,1.81666666666667,1202.057297833,1202.893339041,9,1202.124147458,1202.189928875,1202.912785125,1204.7228305,0,0.836041208000097
134,15,3,categorization,0,kitchen,SHINEd_sun_ahljzhgcdpomplvg.tif,91,0.0666666666666667,0.0666666666666667,1.35,1204.740031208,1205.705064708,9,1204.806519916,1204.872566958,1205.729171291,1207.072563333,1,0.965033500000118
134,16,3,categorization,0,bathroom,SHINEd_sun_aghyqhbptboemmoq.tif,23,0.0666666666666667,0.0666666666666667,0.916666666666667,1207.090867458,1207.986237833,9,1207.15502775,1207.223614041,1208.013815583,1208.923820541,0,0.895370374999857
134,17,3,categorization,0,bathroom,SHINEd_sun_agyqfjcfkdcydepw.tif,25,0.0666666666666667,0.0666666666666667,0.916666666666667,1208.929553666,1209.632754458,9,1208.99137025,1209.052172416,1209.637522041,1210.547527958,0,0.703200791999961
134,18,3,categorization,0,kitchen,SHINEd_sun_ahpczsiumwwocjkv.tif,92,0.0666666666666667,0.0666666666666667,1.31666666666667,1210.553102958,1211.448832166,9,1210.6147505,1210.675694708,1211.460786708,1212.770825666,1,0.895729208000148
134,19,3,categorization,0,kitchen,SHINEd_sun_auaiucuqpdausiva.tif,102,0.0666666666666667,0.0666666666666667,1.45,1212.788561541,1213.954891625,9,1212.855680958,1212.920923875,1213.977754458,1215.421127666,1,1.16633008400004
134,20,3,categorization,0,bathroom,SHINEd_sun_apkxzenqapsujocq.tif,45,0.0666666666666667,0.0666666666666667,0.95,1215.438184666,1216.198338666,13,1215.504847666,1215.571164708,1216.227358291,1217.170697666,1,0.760153999999829
134,21,3,categorization,0,bathroom,SHINEd_sun_azqyogdvyhahyram.tif,60,0.0666666666666667,0.0666666666666667,1.38333333333333,1217.176226458,1217.913167916,13,1217.237816583,1217.298885416,1217.917939041,1219.294629541,1,0.736941458000047
134,22,3,categorization,0,kitchen,SHINEd_sun_acxkpeoqbwcxfvip.tif,77,0.0666666666666667,0.0666666666666667,1.16666666666667,1219.306342083,1220.190200416,9,1219.372877875,1219.438702041,1220.211982708,1221.372015666,1,0.883858333000035
134,23,3,categorization,0,bathroom,SHINEd_sun_aunuadmjocsddsrl.tif,52,0.0666666666666667,0.0666666666666667,1.61666666666667,1221.382195,1222.468010333,9,1221.447025541,1221.515262041,1222.488508333,1224.098550583,0,1.08581533300003
134,24,3,categorization,0,kitchen,SHINEd_sun_abrcnpqqhmjwekyf.tif,73,0.0666666666666667,0.0666666666666667,1.38333333333333,1224.116151708,1224.915693791,13,1224.182625416,1224.248913583,1224.9388155,1226.315535375,0,0.799542083000006
134,25,3,categorization,0,kitchen,SHINEd_sun_aixorpehvfykdynp.tif,95,0.0666666666666667,0.0666666666666667,1.78333333333333,1226.333186666,1227.085361083,9,1226.400794125,1226.465958375,1227.105725125,1228.882432583,1,0.752174416999878
134,26,3,categorization,0,kitchen,SHINEd_sun_aegoxogugdkwpmpj.tif,80,0.0666666666666667,0.0666666666666667,0.783333333333333,1228.900196833,1229.751905458,9,1228.966876791,1229.032796125,1229.772462666,1230.549134,1,0.851708624999901
134,27,3,categorization,0,bathroom,SHINEd_sun_anhioqovhscjqqwb.tif,38,0.0666666666666667,0.0666666666666667,1.65,1230.554763583,1231.128339458,13,1230.616605208,1230.677360666,1231.145699541,1232.789086166,1,0.57357587499996
134,28,3,categorization,0,kitchen,SHINEd_labelme_kxvouciolcpqplr.tif,62,0.0666666666666667,0.0666666666666667,1.86666666666667,1232.807593416,1233.526234291,9,1232.873934291,1232.94017225,1233.547092208,1235.40712375,1,0.718640875000119
134,29,3,categorization,0,kitchen,SHINEd_sun_abftihopvusyfakt.tif,71,0.0666666666666667,0.0666666666666667,1.23333333333333,1235.420859708,1236.832946291,9,1235.487633125,1235.553406166,1236.8391815,1238.065904541,1,1.41208658300002
134,30,3,categorization,0,kitchen,SHINEd_sun_aymvwlarqodbwuoc.tif,108,0.0666666666666667,0.0666666666666667,0.7,1238.083923791,1238.76478725,13,1238.152045958,1238.216473666,1238.790008583,1239.483378291,0,0.680863458999966
134,31,3,categorization,0,bathroom,SHINEd_sun_akiytfaagpdsphgz.tif,31,0.0666666666666667,0.0666666666666667,0.716666666666667,1239.500653125,1240.209158583,9,1239.567340541,1239.6333905,1240.219250666,1240.929257375,0,0.708505457999991
134,32,3,categorization,0,kitchen,SHINEd_sun_azmutvzbxypaceni.tif,110,0.0666666666666667,0.0666666666666667,1.05,1240.934708041,1241.664481,9,1240.99634425,1241.0576575,1241.676269666,1242.719641916,1,0.729772959000002
134,33,3,categorization,0,bathroom,SHINEd_sun_ahaulkltgpkeeemi.tif,26,0.0666666666666667,0.0666666666666667,1.1,1242.728906958,1243.894737208,13,1242.793515625,1242.859414458,1243.917119458,1245.010504416,1,1.16583025
134,34,3,categorization,0,kitchen,SHINEd_sun_agorklincwxrdtga.tif,87,0.0666666666666667,0.0666666666666667,1.13333333333333,1245.020820916,1245.607788875,9,1245.086270041,1245.14847875,1245.638504125,1246.765217166,1,0.586967959000049
134,35,3,categorization,0,bathroom,SHINEd_sun_alkosphxlxwjwgjd.tif,34,0.0666666666666667,0.0666666666666667,1.38333333333333,1246.780085333,1247.80883875,13,1246.8464285,1246.912868083,1247.814972458,1249.191689166,1,1.02875341699996
134,36,3,categorization,0,bathroom,SHINEd_sun_axxbkopsgyouuebh.tif,58,0.0666666666666667,0.0666666666666667,1.5,1249.202543416,1249.974316125,13,1249.268020625,1249.332821958,1249.9875615,1251.480930708,1,0.771772709000061
134,37,3,categorization,0,bathroom,SHINEd_sun_ahijqszoswveeyji.tif,28,0.0666666666666667,0.0666666666666667,1.61666666666667,1251.499960791,1252.188858625,9,1251.567331541,1251.63357125,1252.207640041,1253.817690333,0,0.688897834000045
134,38,3,categorization,0,kitchen,SHINEd_sun_awcpdzzznmweyyhv.tif,106,0.0666666666666667,0.0666666666666667,0.983333333333333,1253.836484416,1254.749235208,9,1253.903984708,1253.969656,1254.776745375,1255.753418541,1,0.912750791999997
134,39,3,categorization,0,bathroom,SHINEd_sun_atstyziqcmkahyxk.tif,51,0.0666666666666667,0.0666666666666667,1.3,1255.759705833,1256.648382375,13,1255.821366791,1255.882447833,1256.667807166,1257.961174125,1,0.888676541999985
134,40,3,categorization,0,bathroom,SHINEd_sun_acegryoqftbzowsg.tif,17,0.0666666666666667,0.0666666666666667,1.03333333333333,1257.977855875,1258.908036541,9,1258.044687458,1258.110695625,1258.933871833,1259.960585958,0,0.930180666000069
134,41,3,categorization,0,bathroom,SHINEd_sun_aapitsgbtktqubfy.tif,12,0.0666666666666667,0.0666666666666667,1.45,1259.969820958,1261.507005916,9,1260.03500475,1260.1011395,1261.525466333,1262.968844791,0,1.53718495800013
134,42,3,categorization,0,kitchen,SHINEd_sun_axyyrmzcupyhlivc.tif,107,0.0666666666666667,0.0666666666666667,1.23333333333333,1262.985295333,1263.77689475,13,1263.051938958,1263.11816725,1263.790529041,1265.017252625,0,0.791599417000043
134,43,3,categorization,0,kitchen,SHINEd_sun_aqeaevwwwjoqhzvl.tif,101,0.0666666666666667,0.0666666666666667,1.26666666666667,1265.0352585,1266.041493166,9,1265.101654791,1265.163055041,1266.069971916,1267.330006375,1,1.00623466599995
134,44,3,categorization,0,kitchen,SHINEd_sun_acfmftudsenhrfhy.tif,74,0.0666666666666667,0.0666666666666667,1.03333333333333,1267.343374458,1268.093435833,13,1267.410255375,1267.476308458,1268.116068916,1269.142784,0,0.750061375000087
134,45,3,categorization,0,bathroom,SHINEd_sun_apmqjbnwghzuhhzh.tif,46,0.0666666666666667,0.0666666666666667,1.31666666666667,1269.151690125,1270.01106025,13,1269.216493583,1269.283548,1270.040260083,1271.350316833,1,0.859370124999941
134,46,3,categorization,0,kitchen,SHINEd_sun_amjjdeyrggfqgmom.tif,100,0.0666666666666667,0.0666666666666667,1.7,1271.36154875,1272.106043083,9,1271.428144125,1271.494529708,1272.134440541,1273.827818958,1,0.744494332999921
134,47,3,categorization,0,bathroom,SHINEd_sun_amzlamotzwfkwjco.tif,37,0.0666666666666667,0.0666666666666667,1.35,1273.840080041,1274.723154458,9,1273.906393,1273.972535291,1274.745955625,1276.089325416,0,0.883074416999989
134,48,3,categorization,0,bathroom,SHINEd_sun_apjevzvycyhuqghb.tif,43,0.0666666666666667,0.0666666666666667,0.8,1276.106557833,1277.212317291,9,1276.172678041,1276.238846041,1277.226062833,1278.01940375,0,1.10575945800019
134,49,3,categorization,0,kitchen,SHINEd_sun_aaxxjlsuzvqlgylf.tif,68,0.0666666666666667,0.0666666666666667,0.766666666666667,1278.025666958,1279.0403915,9,1278.08733225,1278.148410166,1279.050658083,1279.810662958,1,1.01472454199984
134,50,3,categorization,0,kitchen,SHINEd_sun_abdenxonkemggwsq.tif,69,0.0666666666666667,0.0666666666666667,1.38333333333333,1279.81609475,1280.807939791,9,1279.877780625,1279.938772666,1280.824421375,1282.201131375,1,0.991845041000033
134,1,4,categorization,0,kitchen,SHINEd_sun_ahdycvpopffkzzsu.tif,90,0.0666666666666667,0.0666666666666667,1,1290.144229208,1290.976967416,9,1290.20685375,1290.266937291,1290.986102333,1291.979440666,1,0.83273820799991
134,2,4,categorization,0,bathroom,SHINEd_sun_abapwbhyhkfixyex.tif,14,0.0666666666666667,0.0666666666666667,0.966666666666667,1291.984949791,1292.760185541,9,1292.046688708,1292.107606166,1292.776276,1293.736280583,0,0.775235750000093
134,3,4,categorization,0,bathroom,SHINEd_sun_ahqjwnzgolcaoidx.tif,29,0.0666666666666667,0.0666666666666667,1.75,1293.742769125,1294.640277,9,1293.804471708,1293.8654885,1294.651310791,1296.3946805,0,0.897507874999974
134,4,4,categorization,0,bathroom,SHINEd_sun_aavhrsfjbserjtht.tif,13,0.0666666666666667,0.0666666666666667,1.68333333333333,1296.412960333,1297.315381666,9,1296.479487041,1296.545685333,1297.334357916,1299.011593666,0,0.902421332999893
134,5,4,categorization,0,bathroom,SHINEd_sun_aoybiabnpadelefl.tif,41,0.0666666666666667,0.0666666666666667,1.58333333333333,1299.023690625,1299.827983541,9,1299.090073208,1299.153036291,1299.842561875,1301.419280166,0,0.804292916000122
134,6,4,categorization,0,kitchen,SHINEd_sun_abdxkyyxwfskuaqb.tif,70,0.0666666666666667,0.0666666666666667,1,1301.438020375,1302.685963625,9,1301.504718833,1301.57094275,1302.712594125,1303.705931708,1,1.24794325000016
134,7,4,categorization,0,kitchen,SHINEd_sun_acgtpgfybqjmzeyw.tif,75,0.0666666666666667,0.0666666666666667,1.33333333333333,1303.710811958,1304.59288825,9,1303.77246075,1303.833484958,1304.60247525,1305.929185833,1,0.882076291999965
134,8,4,categorization,0,kitchen,SHINEd_sun_akchetnepxlcxhsu.tif,98,0.0666666666666667,0.0666666666666667,1.26666666666667,1305.946488583,1306.588684875,13,1306.013519333,1306.0790495,1306.619104208,1307.879141875,0,0.64219629199988
134,9,4,categorization,0,kitchen,SHINEd_labelme_rykdqxenmhulbdn.tif,63,0.0666666666666667,0.0666666666666667,0.883333333333333,1307.896305666,1308.85252825,13,1307.961804916,1308.0289575,1308.868006458,1309.744722875,0,0.956222583999988
134,10,4,categorization,0,kitchen,SHINEd_sun_agzzivivdpnawacl.tif,89,0.0666666666666667,0.0666666666666667,1.26666666666667,1309.760883625,1310.528565416,13,1309.825059416,1309.884703666,1310.536377,1311.796434708,0,0.767681791000086
134,11,4,categorization,0,bathroom,SHINEd_sun_afcoljnjfoxjtgja.tif,20,0.0666666666666667,0.0666666666666667,2,1311.812758041,1312.45642925,9,1311.8797995,1311.945719958,1312.485902166,1314.479289791,0,0.643671208999876
134,12,4,categorization,0,bathroom,SHINEd_sun_apkruvsevgegsdwp.tif,44,0.0666666666666667,0.0666666666666667,0.733333333333333,1314.496994625,1315.569439458,9,1314.563522375,1314.629546458,1315.58542175,1316.312097416,0,1.07244483299996
134,13,4,categorization,0,bathroom,SHINEd_sun_abjtwfukuwddzted.tif,15,0.0666666666666667,0.0666666666666667,0.883333333333333,1316.3175185,1317.072444541,13,1316.379247125,1316.440380083,1317.075973916,1317.952647541,1,0.75492604100009
134,14,4,categorization,0,kitchen,SHINEd_sun_avszsnwsbuqfgzbn.tif,105,0.0666666666666667,0.0666666666666667,0.983333333333333,1317.959226791,1319.2088255,9,1318.020874375,1318.081851666,1319.217121166,1320.193794291,1,1.24959870900011
134,15,4,categorization,0,kitchen,SHINEd_sun_abpwyqmlzafvklqo.tif,72,0.0666666666666667,0.0666666666666667,1.56666666666667,1320.19908525,1321.05682725,9,1320.260761208,1320.321994333,1321.07431625,1322.634355041,1,0.857741999999917
134,16,4,categorization,0,kitchen,SHINEd_sun_ahspylgoovwmwvgk.tif,93,0.0666666666666667,0.0666666666666667,1.08333333333333,1322.648593833,1323.427857666,9,1322.715143,1322.781435958,1323.454687416,1324.531388625,1,0.779263832999959
134,17,4,categorization,0,kitchen,SHINEd_sun_admlmbcdswaszruo.tif,79,0.0666666666666667,0.0666666666666667,0.75,1324.540609083,1325.329533583,9,1324.605750625,1324.671104916,1325.342405416,1326.085787166,1,0.788924500000121
134,18,4,categorization,0,bathroom,SHINEd_sun_apynckhmoftszqoq.tif,47,0.0666666666666667,0.0666666666666667,0.966666666666667,1326.100227875,1326.75998575,9,1326.167127875,1326.232750458,1326.768630625,1327.72863725,0,0.659757874999968
134,19,4,categorization,0,kitchen,SHINEd_labelme_brsyyvweiuaazfr.tif,61,0.0666666666666667,0.0666666666666667,1.63333333333333,1327.734412875,1328.60843625,9,1327.796117375,1327.857180125,1328.625990416,1330.252702208,1,0.874023374999979
134,20,4,categorization,0,bathroom,SHINEd_sun_agrwbmhcpmfuwmsg.tif,24,0.0666666666666667,0.0666666666666667,1.46666666666667,1330.269005291,1331.832664666,13,1330.335769625,1330.401839541,1331.837740333,1333.29775925,1,1.56365937500004
134,21,4,categorization,0,bathroom,SHINEd_sun_aleqenyvunhactkl.tif,32,0.0666666666666667,0.0666666666666667,0.933333333333333,1333.310213666,1334.157028333,13,1333.376726625,1333.443435583,1334.183429333,1335.110101375,1,0.84681466699999
134,22,4,categorization,0,bathroom,SHINEd_sun_agguqiubmwhqqunb.tif,22,0.0666666666666667,0.0666666666666667,1.45,1335.115842041,1335.840650291,9,1335.177487416,1335.238528041,1335.857461125,1337.300821125,0,0.724808250000024
134,23,4,categorization,0,kitchen,SHINEd_sun_acwjdupvyjsugpay.tif,76,0.0666666666666667,0.0666666666666667,0.966666666666667,1337.311221541,1338.091887875,9,1337.377977416,1337.443977458,1338.116541708,1339.076547166,1,0.780666334000216
134,24,4,categorization,0,kitchen,SHINEd_sun_akcjzhbbjlbogpdi.tif,99,0.0666666666666667,0.0666666666666667,0.816666666666667,1339.082003458,1339.968451375,9,1339.143683083,1339.204656375,1339.973255458,1340.783261625,1,0.886447917000169
134,25,4,categorization,0,kitchen,SHINEd_sun_ajcbwwvdlsvjyzje.tif,96,0.0666666666666667,0.0666666666666667,1.96666666666667,1340.788773583,1341.672158625,13,1340.85054375,1340.911561041,1341.680433875,1343.640467375,0,0.8833850420001
134,26,4,categorization,0,bathroom,SHINEd_sun_axldvoqbuvuggfmq.tif,57,0.0666666666666667,0.0666666666666667,0.916666666666667,1343.654972083,1344.345197666,9,1343.721733666,1343.787610041,1344.359794916,1345.269800833,0,0.690225583000029
134,27,4,categorization,0,kitchen,SHINEd_sun_aamedkxepzlwuxes.tif,65,0.0666666666666667,0.0666666666666667,1.28333333333333,1345.275688166,1346.0486125,9,1345.33741925,1345.398366333,1346.066908666,1347.343634375,1,0.772924333999981
134,28,4,categorization,0,bathroom,SHINEd_sun_aljolscmmzydegqp.tif,33,0.0666666666666667,0.0666666666666667,1.8,1347.354280125,1348.344496208,9,1347.42109975,1347.486882,1348.35915475,1350.15254425,0,0.99021608299995
134,29,4,categorization,0,kitchen,SHINEd_sun_ahywdevtimnqcsln.tif,94,0.0666666666666667,0.0666666666666667,1.33333333333333,1350.168428666,1350.967615083,13,1350.235047625,1350.300993166,1350.9910765,1352.317792541,0,0.799186417000101
134,30,4,categorization,0,bathroom,SHINEd_sun_ambriybtogmepttm.tif,36,0.0666666666666667,0.0666666666666667,1.06666666666667,1352.335248375,1353.045014333,9,1352.4017355,1352.468054375,1353.074761166,1354.134814166,0,0.709765957999934
134,31,4,categorization,0,bathroom,SHINEd_sun_acgyywnybuveqsro.tif,18,0.0666666666666667,0.0666666666666667,1.03333333333333,1354.144210583,1354.908683875,13,1354.209343875,1354.276904375,1354.933583,1355.96029175,1,0.764473292000048
134,32,4,categorization,0,bathroom,SHINEd_sun_auzqhkafidnkrwmo.tif,54,0.0666666666666667,0.0666666666666667,0.733333333333333,1355.979147916,1357.023938,13,1356.045874458,1356.111843916,1357.030879,1357.757551125,1,1.04479008399994
134,33,4,categorization,0,kitchen,SHINEd_sun_ajkqhtgcbgpcwrwn.tif,97,0.0666666666666667,0.0666666666666667,0.766666666666667,1357.763292083,1358.535911625,9,1357.82515,1357.885927333,1358.554641291,1359.314645416,1,0.772619542000029
134,34,4,categorization,0,bathroom,SHINEd_labelme_sfxiulhjbhlyiyt.tif,11,0.0666666666666667,0.0666666666666667,1.1,1359.319308416,1360.055812708,13,1359.381166541,1359.441997416,1360.060446666,1361.153816791,1,0.736504292000063
134,35,4,categorization,0,bathroom,SHINEd_sun_apeeialkgkuxddgh.tif,42,0.0666666666666667,0.0666666666666667,1.81666666666667,1361.162488083,1361.935502541,13,1361.226980791,1361.291264916,1361.964436416,1363.774491041,1,0.773014458000034
134,36,4,categorization,0,kitchen,SHINEd_sun_afuyedyxivkhecmu.tif,85,0.0666666666666667,0.0666666666666667,0.883333333333333,1363.791362083,1364.411887416,9,1363.858331208,1363.924419208,1364.430704083,1365.307375291,1,0.620525332999932
134,37,4,categorization,0,bathroom,SHINEd_sun_avhrdrntsqrjzccq.tif,55,0.0666666666666667,0.0666666666666667,1.7,1365.312044,1366.183941458,9,1365.373963458,1365.434721208,1366.203851833,1367.89721775,0,0.871897457999921
134,38,4,categorization,0,bathroom,SHINEd_sun_ausgutylgojavyoq.tif,53,0.0666666666666667,0.0666666666666667,1.58333333333333,1367.914240291,1368.492041125,13,1367.980854083,1368.04709725,1368.52052675,1370.097236875,1,0.577800834000072
134,39,4,categorization,0,kitchen,SHINEd_sun_adgqasybjyktddhj.tif,78,0.0666666666666667,0.0666666666666667,0.833333333333333,1370.1143835,1370.87476025,9,1370.180989125,1370.2471525,1370.903865833,1371.730542333,1,0.760376749999978
134,40,4,categorization,0,kitchen,SHINEd_sun_auticobqsbwgoppi.tif,104,0.0666666666666667,0.0666666666666667,0.95,1371.736181958,1372.552368875,9,1371.798031708,1371.859628791,1372.561444541,1373.504783208,1,0.816186916999868
134,41,4,categorization,0,bathroom,SHINEd_sun_acduarbnmmoglmiv.tif,16,0.0666666666666667,0.0666666666666667,1.06666666666667,1373.509902416,1374.495702666,9,1373.571650208,1373.632579291,1374.501185458,1375.561221833,0,0.985800250000011
134,42,4,categorization,0,kitchen,SHINEd_sun_agubuxuukhzyzpdp.tif,88,0.0666666666666667,0.0666666666666667,1.68333333333333,1375.570313458,1376.3285185,9,1375.6353195,1375.701625833,1376.338993583,1378.015692458,1,0.758205041999872
134,43,4,categorization,0,kitchen,SHINEd_sun_aarfiyshqohlwkmo.tif,67,0.0666666666666667,0.0666666666666667,1.31666666666667,1378.032469125,1378.972339333,9,1378.098970625,1378.164924666,1378.987347583,1380.297381208,1,0.939870208000002
134,44,4,categorization,0,bathroom,SHINEd_sun_aggnnqpdorgxpvce.tif,21,0.0666666666666667,0.0666666666666667,1.61666666666667,1380.313236458,1381.107426416,13,1380.37990175,1380.446235166,1381.134339916,1382.744381583,1,0.794189958000061
134,45,4,categorization,0,bathroom,SHINEd_sun_awnqiikzaispgmwo.tif,56,0.0666666666666667,0.0666666666666667,1.15,1382.756141333,1383.537805791,13,1382.822163791,1382.888520666,1383.561898791,1384.705279458,1,0.781664458000023
134,46,4,categorization,0,bathroom,SHINEd_sun_anryaplzeujmzfkd.tif,39,0.0666666666666667,0.0666666666666667,1.25,1384.714324166,1385.51429625,9,1384.780656166,1384.846503791,1385.537238208,1386.780615458,0,0.799972083999819
134,47,4,categorization,0,bathroom,SHINEd_sun_ajlawzvmubibwbpy.tif,30,0.0666666666666667,0.0666666666666667,1.1,1386.793963875,1387.644776541,9,1386.860389833,1386.926913625,1387.667156708,1388.760543416,0,0.850812666000138
134,48,4,categorization,0,kitchen,SHINEd_sun_aunzlwrbjumxhwdj.tif,103,0.0666666666666667,0.0666666666666667,0.9,1388.769926416,1389.826105458,9,1388.838370125,1388.9024875,1389.841765375,1390.735132041,1,1.05617904199994
134,49,4,categorization,0,kitchen,SHINEd_sun_aypmqwcualkenuoe.tif,109,0.0666666666666667,0.0666666666666667,1.3,1390.751057708,1391.37619575,13,1390.813805958,1390.873751291,1391.392283166,1392.685661458,0,0.625138042000117
134,50,4,categorization,0,bathroom,SHINEd_sun_asfwthctfqerjvxr.tif,49,0.0666666666666667,0.0666666666666667,1.25,1392.701797625,1393.500888208,9,1392.768009375,1392.834653458,1393.524114583,1394.767503041,0,0.799090583000179
134,1,5,categorization,0,bathroom,SHINEd_sun_acgyywnybuveqsro.tif,18,0.0666666666666667,0.0666666666666667,1.7,1405.235189833,1405.992392666,13,1405.297514041,1405.358036541,1406.010136458,1407.703512,1,0.757202832999837
134,2,5,categorization,0,kitchen,SHINEd_sun_agzzivivdpnawacl.tif,89,0.0666666666666667,0.0666666666666667,1.81666666666667,1407.720697916,1408.476353291,13,1407.786808916,1407.853339208,1408.492115833,1410.302169958,0,0.755655374999833
134,3,5,categorization,0,bathroom,SHINEd_sun_alkosphxlxwjwgjd.tif,34,0.0666666666666667,0.0666666666666667,1.23333333333333,1410.316144291,1411.361274583,13,1410.382818583,1410.448630541,1411.389046666,1412.615756333,1,1.04513029200007
134,4,5,categorization,0,kitchen,SHINEd_sun_acfmftudsenhrfhy.tif,74,0.0666666666666667,0.0666666666666667,1.4,1412.628286625,1413.255765333,9,1412.694967208,1412.760930083,1413.264803291,1414.658170416,1,0.627478707999899
134,5,5,categorization,0,kitchen,SHINEd_sun_aamedkxepzlwuxes.tif,65,0.0666666666666667,0.0666666666666667,1.03333333333333,1414.676499208,1415.498213916,9,1414.743403166,1414.809470708,1415.515724833,1416.542433791,1,0.821714707999945
134,6,5,categorization,0,kitchen,SHINEd_sun_afuyedyxivkhecmu.tif,85,0.0666666666666667,0.0666666666666667,1.38333333333333,1416.559849333,1417.719950875,13,1416.624186041,1416.683704875,1417.736291708,1419.113014666,0,1.16010154199989
134,7,5,categorization,0,bathroom,SHINEd_sun_aapitsgbtktqubfy.tif,12,0.0666666666666667,0.0666666666666667,2,1419.128014458,1420.066514083,9,1419.194640875,1419.254539666,1420.094496708,1422.087882416,0,0.938499624999849
134,8,5,categorization,0,kitchen,SHINEd_sun_amjjdeyrggfqgmom.tif,100,0.0666666666666667,0.0666666666666667,1.85,1422.1038165,1422.780684458,9,1422.17058125,1422.236567458,1422.809883458,1424.653273083,1,0.676867958000003
134,9,5,categorization,0,bathroom,SHINEd_sun_aljolscmmzydegqp.tif,33,0.0666666666666667,0.0666666666666667,0.816666666666667,1424.667982,1425.404007625,9,1424.734725958,1424.8008295,1425.424574833,1426.234582541,0,0.736025625000138
134,10,5,categorization,0,bathroom,SHINEd_sun_agguqiubmwhqqunb.tif,22,0.0666666666666667,0.0666666666666667,1.85,1426.242066708,1427.135461625,13,1426.30386925,1426.364776166,1427.150070458,1428.993435958,1,0.893394917000023
134,11,5,categorization,0,bathroom,SHINEd_sun_avhrdrntsqrjzccq.tif,55,0.0666666666666667,0.0666666666666667,0.733333333333333,1429.008851333,1429.801736583,9,1429.075644666,1429.136328458,1429.826263208,1430.55293575,0,0.792885250000154
134,12,5,categorization,0,kitchen,SHINEd_sun_ahywdevtimnqcsln.tif,94,0.0666666666666667,0.0666666666666667,0.716666666666667,1430.558355458,1431.255869541,13,1430.620296083,1430.681016708,1431.266097208,1431.976102333,0,0.697514082999987
134,13,5,categorization,0,kitchen,SHINEd_sun_ahdycvpopffkzzsu.tif,90,0.0666666666666667,0.0666666666666667,0.833333333333333,1431.980732541,1432.759577833,9,1432.042311541,1432.103355541,1432.772545875,1433.599217375,1,0.778845292000142
134,14,5,categorization,0,bathroom,SHINEd_sun_aofnryafpsjimzsb.tif,40,0.0666666666666667,0.0666666666666667,0.95,1433.603926666,1434.552284041,13,1433.665594541,1433.726640291,1434.562139916,1435.505478791,1,0.948357374999887
134,15,5,categorization,0,kitchen,SHINEd_sun_auticobqsbwgoppi.tif,104,0.0666666666666667,0.0666666666666667,1.96666666666667,1435.51055725,1436.400333333,9,1435.572215,1435.633223041,1436.418795291,1438.378836458,1,0.889776083000015
134,16,5,categorization,0,kitchen,SHINEd_sun_abdenxonkemggwsq.tif,69,0.0666666666666667,0.0666666666666667,1.86666666666667,1438.395698375,1439.783483041,13,1438.462465625,1438.528725791,1439.798018958,1441.658055375,0,1.38778466600002
134,17,5,categorization,0,kitchen,SHINEd_sun_aypmqwcualkenuoe.tif,109,0.0666666666666667,0.0666666666666667,1.51666666666667,1441.672835458,1442.444737833,13,1441.739204875,1441.805537333,1442.459613875,1443.969664833,0,0.771902375000082
134,18,5,categorization,0,bathroom,SHINEd_sun_apkruvsevgegsdwp.tif,44,0.0666666666666667,0.0666666666666667,1.3,1443.986506583,1444.775025,13,1444.053031041,1444.119509291,1444.792170833,1446.085539291,1,0.788518416999977
134,19,5,categorization,0,kitchen,SHINEd_sun_abftihopvusyfakt.tif,71,0.0666666666666667,0.0666666666666667,1.91666666666667,1446.10312425,1446.890888208,13,1446.169666916,1446.235831375,1446.908482125,1448.818528166,0,0.787763957999914
134,20,5,categorization,0,bathroom,SHINEd_sun_amzlamotzwfkwjco.tif,37,0.0666666666666667,0.0666666666666667,1.23333333333333,1448.836211,1450.127998708,13,1448.902987083,1448.968779708,1450.13810875,1451.36483275,1,1.2917877079999
134,21,5,categorization,0,bathroom,SHINEd_sun_ahcvzmoyaycdoftf.tif,27,0.0666666666666667,0.0666666666666667,0.866666666666667,1451.375802458,1452.107868875,9,1451.442477208,1451.508354208,1452.132032,1452.992066666,0,0.732066416999942
134,22,5,categorization,0,kitchen,SHINEd_sun_akchetnepxlcxhsu.tif,98,0.0666666666666667,0.0666666666666667,0.8,1453.009879333,1453.783166875,13,1453.076397958,1453.138484041,1453.791198,1454.58453525,0,0.773287541999935
134,23,5,categorization,0,bathroom,SHINEd_sun_aavhrsfjbserjtht.tif,13,0.0666666666666667,0.0666666666666667,1.51666666666667,1454.592072666,1455.503187625,13,1454.653790333,1454.71483125,1455.516710375,1457.026742166,1,0.911114959000088
134,24,5,categorization,0,kitchen,SHINEd_sun_akcjzhbbjlbogpdi.tif,99,0.0666666666666667,0.0666666666666667,1.18333333333333,1457.043542791,1457.75220375,9,1457.109952083,1457.173844125,1457.78035725,1458.957065583,1,0.708660959000099
134,25,5,categorization,0,kitchen,SHINEd_sun_ajcbwwvdlsvjyzje.tif,96,0.0666666666666667,0.0666666666666667,1.6,1458.966431708,1460.076914333,9,1459.032635708,1459.099097458,1460.10563625,1461.699006833,1,1.11048262500003
134,26,5,categorization,0,bathroom,SHINEd_sun_aoybiabnpadelefl.tif,41,0.0666666666666667,0.0666666666666667,1.56666666666667,1461.716753375,1462.505248708,13,1461.783437,1461.849455541,1462.522370291,1464.08242475,1,0.788495332999901
134,27,5,categorization,0,kitchen,SHINEd_sun_admlmbcdswaszruo.tif,79,0.0666666666666667,0.0666666666666667,1.36666666666667,1464.100462041,1464.847129458,9,1464.167100625,1464.232934291,1464.872991041,1466.233037583,1,0.746667417000026
134,28,5,categorization,0,bathroom,SHINEd_labelme_sfxiulhjbhlyiyt.tif,11,0.0666666666666667,0.0666666666666667,1.53333333333333,1466.250944333,1466.83550025,13,1466.317684375,1466.383825375,1466.857238166,1468.383963833,1,0.584555916999989
134,29,5,categorization,0,kitchen,SHINEd_sun_abpwyqmlzafvklqo.tif,72,0.0666666666666667,0.0666666666666667,1.4,1468.402148333,1469.007645,9,1468.469167083,1468.534764333,1469.023897333,1470.417271083,1,0.605496666999898
134,30,5,categorization,0,bathroom,SHINEd_sun_anryaplzeujmzfkd.tif,39,0.0666666666666667,0.0666666666666667,1.06666666666667,1470.432090291,1471.298830416,9,1470.498966125,1470.564806666,1471.320258833,1472.380313875,0,0.866740125000206
134,31,5,categorization,0,bathroom,SHINEd_sun_ajlawzvmubibwbpy.tif,30,0.0666666666666667,0.0666666666666667,1.63333333333333,1472.389532666,1473.297323,13,1472.454863458,1472.5171735,1473.322556791,1474.949263083,1,0.907790334000083
134,32,5,categorization,0,bathroom,SHINEd_sun_afcoljnjfoxjtgja.tif,20,0.0666666666666667,0.0666666666666667,1.8,1474.966879291,1475.618205833,9,1475.033806958,1475.099548666,1475.640230125,1477.433606083,0,0.651326542000106
134,33,5,categorization,0,kitchen,SHINEd_sun_adgqasybjyktddhj.tif,78,0.0666666666666667,0.0666666666666667,1.53333333333333,1477.448471375,1478.258147375,9,1477.515241791,1477.581153583,1478.288014666,1479.814720375,1,0.809675999999854
134,34,5,categorization,0,bathroom,SHINEd_sun_abjtwfukuwddzted.tif,15,0.0666666666666667,0.0666666666666667,0.766666666666667,1479.83226025,1480.672314958,13,1479.8998495,1479.9651515,1480.687727833,1481.447735583,1,0.840054708000025
134,35,5,categorization,0,kitchen,SHINEd_sun_azmutvzbxypaceni.tif,110,0.0666666666666667,0.0666666666666667,1.86666666666667,1481.453936041,1482.335917083,9,1481.515607541,1481.576658708,1482.345351166,1484.205396541,1,0.881981042000007
134,36,5,categorization,0,bathroom,SHINEd_sun_apeeialkgkuxddgh.tif,42,0.0666666666666667,0.0666666666666667,1.13333333333333,1484.222157833,1485.079771,13,1484.28841225,1484.354863291,1485.093920083,1486.22063525,1,0.857613166999954
134,37,5,categorization,0,kitchen,SHINEd_sun_aixorpehvfykdynp.tif,95,0.0666666666666667,0.0666666666666667,1.73333333333333,1486.230480416,1487.346685875,9,1486.295740666,1486.363076166,1487.369982333,1489.09669475,1,1.11620545899996
134,38,5,categorization,0,bathroom,SHINEd_sun_abapwbhyhkfixyex.tif,14,0.0666666666666667,0.0666666666666667,0.766666666666667,1489.113847791,1490.238849,13,1489.179825833,1489.241494208,1490.264928791,1491.024933875,1,1.12500120900017
134,39,5,categorization,0,kitchen,SHINEd_sun_axyyrmzcupyhlivc.tif,107,0.0666666666666667,0.0666666666666667,1.85,1491.029539791,1492.111398333,9,1491.091263583,1491.15222725,1492.121817166,1493.965190583,1,1.08185854199996
134,40,5,categorization,0,kitchen,SHINEd_sun_aehawpgmrlhlvcow.tif,81,0.0666666666666667,0.0666666666666667,0.966666666666667,1493.98150725,1495.034347791,9,1494.049315041,1494.114292916,1495.054013666,1496.014019791,1,1.05284054100002
134,41,5,categorization,0,bathroom,SHINEd_sun_asfwthctfqerjvxr.tif,49,0.0666666666666667,0.0666666666666667,1.06666666666667,1496.019682958,1496.895769666,9,1496.08134625,1496.142300583,1496.911293916,1497.971325666,0,0.876086708000003
134,42,5,categorization,0,kitchen,SHINEd_sun_abrcnpqqhmjwekyf.tif,73,0.0666666666666667,0.0666666666666667,1.38333333333333,1497.979712625,1499.019518208,13,1498.044058291,1498.110874791,1499.033063625,1500.409764666,0,1.03980558299986
134,43,5,categorization,0,bathroom,SHINEd_sun_acegryoqftbzowsg.tif,17,0.0666666666666667,0.0666666666666667,0.766666666666667,1500.427807458,1501.257329166,9,1500.494258541,1500.560005416,1501.283348708,1502.043398208,0,0.829521708000129
134,44,5,categorization,0,kitchen,SHINEd_sun_aenotlpyftoioydp.tif,82,0.0666666666666667,0.0666666666666667,0.866666666666667,1502.059738041,1502.991214791,9,1502.122406958,1502.182493416,1503.000987291,1503.860993416,1,0.931476750000002
134,45,5,categorization,0,kitchen,SHINEd_sun_auaiucuqpdausiva.tif,102,0.0666666666666667,0.0666666666666667,1.25,1503.866820625,1505.399646833,13,1503.928458166,1503.989596291,1505.408283958,1506.651656416,0,1.53282620799996
134,46,5,categorization,0,bathroom,SHINEd_sun_aqrpegblszgcoujh.tif,48,0.0666666666666667,0.0666666666666667,1.03333333333333,1506.667791625,1507.548184208,13,1506.734225208,1506.800666166,1507.573871625,1508.600582416,1,0.880392583000003
134,47,5,categorization,0,bathroom,SHINEd_sun_auzqhkafidnkrwmo.tif,54,0.0666666666666667,0.0666666666666667,0.783333333333333,1508.609602583,1509.37795825,9,1508.674102958,1508.74158575,1509.397667833,1510.174380833,0,0.768355666999923
134,48,5,categorization,0,bathroom,SHINEd_sun_axxbkopsgyouuebh.tif,58,0.0666666666666667,0.0666666666666667,0.7,1510.190538416,1510.96794125,13,1510.257462166,1510.32288625,1510.975399833,1511.66874,1,0.777402833999986
134,49,5,categorization,0,bathroom,SHINEd_sun_aspsyogrekjtfozg.tif,50,0.0666666666666667,0.0666666666666667,1.75,1511.674130875,1512.503389666,13,1511.735874916,1511.796742791,1512.515654625,1514.259032166,1,0.829258791000029
134,50,5,categorization,0,kitchen,SHINEd_sun_aaxxjlsuzvqlgylf.tif,68,0.0666666666666667,0.0666666666666667,1.36666666666667,1514.276438625,1515.1522395,9,1514.343155,1514.409067375,1515.163668458,1516.523710666,1,0.875800874999868
134,1,6,categorization,0,bathroom,SHINEd_sun_ahijqszoswveeyji.tif,28,0.0666666666666667,0.0666666666666667,0.966666666666667,1537.871711916,1538.999821916,13,1537.934354291,1537.994580625,1539.013615,1539.973621416,1,1.12810999999988
134,2,6,categorization,0,kitchen,SHINEd_sun_ahpczsiumwwocjkv.tif,92,0.0666666666666667,0.0666666666666667,1.73333333333333,1539.979152833,1540.622915583,9,1540.041084666,1540.101862791,1540.637164541,1542.363867916,1,0.643762749999951
134,3,6,categorization,0,bathroom,SHINEd_sun_ausgutylgojavyoq.tif,53,0.0666666666666667,0.0666666666666667,1.91666666666667,1542.381326416,1543.185934041,13,1542.448003291,1542.514338541,1543.202578083,1545.112616,1,0.804607625000017
134,4,6,categorization,0,kitchen,SHINEd_sun_aadbddgrdsjugojn.tif,64,0.0666666666666667,0.0666666666666667,0.766666666666667,1545.127886333,1545.862952791,9,1545.1942985,1545.259372625,1545.882136708,1546.642141333,1,0.735066457999892
134,5,6,categorization,0,bathroom,SHINEd_sun_agrwbmhcpmfuwmsg.tif,24,0.0666666666666667,0.0666666666666667,0.916666666666667,1546.647726125,1547.270865625,9,1546.709418541,1546.770362416,1547.288742875,1548.198746416,0,0.623139499999979
134,6,6,categorization,0,bathroom,SHINEd_sun_aghyqhbptboemmoq.tif,23,0.0666666666666667,0.0666666666666667,1.18333333333333,1548.203431833,1548.991735666,13,1548.265056583,1548.326088833,1549.011865708,1550.188590291,1,0.7883038330001
134,7,6,categorization,0,bathroom,SHINEd_sun_aggnnqpdorgxpvce.tif,21,0.0666666666666667,0.0666666666666667,1.8,1550.198540916,1550.940244,9,1550.265637083,1550.331437625,1550.954403791,1552.747779041,0,0.741703083999937
134,8,6,categorization,0,kitchen,SHINEd_sun_aunzlwrbjumxhwdj.tif,103,0.0666666666666667,0.0666666666666667,0.883333333333333,1552.765538708,1553.447523583,13,1552.832383541,1552.899356583,1553.473684625,1554.350359916,0,0.681984875000126
134,9,6,categorization,0,kitchen,SHINEd_sun_aymvwlarqodbwuoc.tif,108,0.0666666666666667,0.0666666666666667,1.83333333333333,1554.357531041,1555.11160475,9,1554.419370875,1554.480242375,1555.115313791,1556.942023,1,0.754073709000068
134,10,6,categorization,0,kitchen,SHINEd_sun_abdxkyyxwfskuaqb.tif,70,0.0666666666666667,0.0666666666666667,1.76666666666667,1556.959582041,1557.584687875,13,1557.02600025,1557.092676541,1557.5980565,1559.358092583,0,0.625105834000124
134,11,6,categorization,0,kitchen,SHINEd_sun_agorklincwxrdtga.tif,87,0.0666666666666667,0.0666666666666667,0.983333333333333,1559.376133458,1560.060904375,9,1559.442794958,1559.509377041,1560.082701708,1561.05937625,1,0.684770917000151
134,12,6,categorization,0,bathroom,SHINEd_sun_apmqjbnwghzuhhzh.tif,46,0.0666666666666667,0.0666666666666667,0.883333333333333,1561.064326583,1561.99100675,9,1561.126104583,1561.186937208,1562.00565475,1562.882325583,0,0.926680167000086
134,13,6,categorization,0,kitchen,SHINEd_sun_ahspylgoovwmwvgk.tif,93,0.0666666666666667,0.0666666666666667,0.85,1562.886995416,1564.175378916,9,1562.948699208,1563.009620541,1564.195479875,1565.038819,1,1.28838350000001
134,14,6,categorization,0,kitchen,SHINEd_sun_acgtpgfybqjmzeyw.tif,75,0.0666666666666667,0.0666666666666667,0.733333333333333,1565.04373225,1565.95094325,9,1565.105525375,1565.166348625,1565.968602583,1566.695275125,1,0.907210999999961
134,15,6,categorization,0,bathroom,SHINEd_sun_aunuadmjocsddsrl.tif,52,0.0666666666666667,0.0666666666666667,1.88333333333333,1566.700760916,1567.439210708,13,1566.762386583,1566.82336725,1567.458464416,1569.335171958,1,0.738449791999983
134,16,6,categorization,0,bathroom,SHINEd_sun_awnqiikzaispgmwo.tif,56,0.0666666666666667,0.0666666666666667,0.816666666666667,1569.351250833,1569.980903208,9,1569.417589416,1569.485107416,1570.008322791,1570.818328,0,0.629652374999978
134,17,6,categorization,0,kitchen,SHINEd_labelme_rykdqxenmhulbdn.tif,63,0.0666666666666667,0.0666666666666667,1.9,1570.824290875,1571.879201833,9,1570.886050083,1570.9470465,1571.899102333,1573.792482208,1,1.05491095799994
134,18,6,categorization,0,bathroom,SHINEd_sun_atstyziqcmkahyxk.tif,51,0.0666666666666667,0.0666666666666667,0.983333333333333,1573.80990475,1574.532988791,13,1573.876142125,1573.942190666,1574.547678208,1575.524349666,1,0.723084040999993
134,19,6,categorization,0,kitchen,SHINEd_sun_aarfiyshqohlwkmo.tif,67,0.0666666666666667,0.0666666666666667,0.75,1575.529287041,1576.262862458,9,1575.590985041,1575.651977833,1576.270951083,1577.014290583,1,0.733575416999884
134,20,6,categorization,0,bathroom,SHINEd_sun_azqyogdvyhahyram.tif,60,0.0666666666666667,0.0666666666666667,1.6,1577.019742416,1578.19945975,13,1577.081285083,1577.142310791,1578.211336625,1579.804704083,1,1.17971733399986
134,21,6,categorization,0,bathroom,SHINEd_sun_alotolagknyrgtsk.tif,35,0.0666666666666667,0.0666666666666667,1.58333333333333,1579.820212458,1581.014814041,13,1579.888324208,1579.952718041,1581.042742333,1582.619450583,1,1.19460158299989
134,22,6,categorization,0,kitchen,SHINEd_sun_ahljzhgcdpomplvg.tif,91,0.0666666666666667,0.0666666666666667,1.11666666666667,1582.635289375,1583.303540416,9,1582.703689541,1582.767523125,1583.323182666,1584.433235791,1,0.668251041000076
134,23,6,categorization,0,bathroom,SHINEd_sun_ahaulkltgpkeeemi.tif,26,0.0666666666666667,0.0666666666666667,1.53333333333333,1584.443569583,1585.1870135,13,1584.508673,1584.576339,1585.198007,1586.724712458,1,0.743443916999922
134,24,6,categorization,0,kitchen,SHINEd_labelme_kxvouciolcpqplr.tif,62,0.0666666666666667,0.0666666666666667,1.48333333333333,1586.743116375,1587.528386416,9,1586.809870875,1586.876000416,1587.549285458,1589.026002333,1,0.785270041000103
134,25,6,categorization,0,kitchen,SHINEd_sun_aapllqyqlykszopd.tif,66,0.0666666666666667,0.0666666666666667,1.1,1589.043565666,1589.881409291,9,1589.110186875,1589.174982791,1589.897732708,1590.991113333,1,0.837843625000005
134,26,6,categorization,0,kitchen,SHINEd_sun_aqeaevwwwjoqhzvl.tif,101,0.0666666666666667,0.0666666666666667,0.933333333333333,1591.000749416,1591.901249541,13,1591.065575583,1591.131715125,1591.921865,1592.848583958,0,0.900500125000008
134,27,6,categorization,0,kitchen,SHINEd_labelme_brsyyvweiuaazfr.tif,61,0.0666666666666667,0.0666666666666667,0.816666666666667,1592.864398625,1593.575626958,9,1592.931326833,1592.997201958,1593.582603208,1594.392607958,1,0.711228333000008
134,28,6,categorization,0,kitchen,SHINEd_sun_avszsnwsbuqfgzbn.tif,105,0.0666666666666667,0.0666666666666667,1.78333333333333,1594.398100958,1595.127457458,9,1594.4598305,1594.520719041,1595.139306666,1596.91600625,1,0.729356499999994
134,29,6,categorization,0,kitchen,SHINEd_sun_aexklacwqwezaorf.tif,84,0.0666666666666667,0.0666666666666667,0.766666666666667,1596.933470083,1597.809700541,9,1596.999736416,1597.066153041,1597.839568458,1598.599573333,1,0.876230458000009
134,30,6,categorization,0,bathroom,SHINEd_sun_apkxzenqapsujocq.tif,45,0.0666666666666667,0.0666666666666667,1.45,1598.604844541,1599.2465695,13,1598.666641041,1598.7274855,1599.262551083,1600.705940875,1,0.641724959000157
134,31,6,categorization,0,kitchen,SHINEd_sun_aggjlwcdjsjcaemh.tif,86,0.0666666666666667,0.0666666666666667,0.75,1600.723358833,1601.753028541,9,1600.789883166,1600.856461833,1601.779950666,1602.523289958,1,1.02966970800003
134,32,6,categorization,0,kitchen,SHINEd_sun_ajkqhtgcbgpcwrwn.tif,97,0.0666666666666667,0.0666666666666667,1.36666666666667,1602.528703,1603.567331625,13,1602.59040075,1602.651317875,1603.586540041,1604.946583,0,1.038628625
134,33,6,categorization,0,bathroom,SHINEd_sun_apynckhmoftszqoq.tif,47,0.0666666666666667,0.0666666666666667,0.75,1604.962013958,1605.748761,13,1605.028171,1605.094723458,1605.767567583,1606.510948041,1,0.786747042000115
134,34,6,categorization,0,kitchen,SHINEd_sun_acxkpeoqbwcxfvip.tif,77,0.0666666666666667,0.0666666666666667,0.783333333333333,1606.526131208,1607.454805125,9,1606.592535625,1606.651163958,1607.469692208,1608.246362875,1,0.928673916999969
134,35,6,categorization,0,kitchen,SHINEd_sun_aeqdocilnnpuvuhx.tif,83,0.0666666666666667,0.0666666666666667,1.11666666666667,1608.251155166,1609.063076208,9,1608.312779375,1608.37380775,1609.076134458,1610.186189208,1,0.811921041999994
134,36,6,categorization,0,kitchen,SHINEd_sun_acwjdupvyjsugpay.tif,76,0.0666666666666667,0.0666666666666667,0.766666666666667,1610.195106708,1610.972084083,9,1610.259909125,1610.327884166,1611.000880125,1611.760939,1,0.776977375000115
134,37,6,categorization,0,bathroom,SHINEd_sun_aleqenyvunhactkl.tif,32,0.0666666666666667,0.0666666666666667,0.716666666666667,1611.775035416,1612.527474958,13,1611.841540416,1611.907629,1612.543371958,1613.253378333,1,0.752439542000047
134,38,6,categorization,0,bathroom,SHINEd_sun_axldvoqbuvuggfmq.tif,57,0.0666666666666667,0.0666666666666667,1.33333333333333,1613.258179166,1614.046730375,13,1613.319904083,1613.380803875,1614.065919541,1615.392622041,1,0.788551208999934
134,39,6,categorization,0,bathroom,SHINEd_sun_akiytfaagpdsphgz.tif,31,0.0666666666666667,0.0666666666666667,1.75,1615.4098885,1616.262901583,13,1615.476145458,1615.542407916,1616.281938791,1618.02533,1,0.853013082999951
134,40,6,categorization,0,bathroom,SHINEd_sun_axyrejkiiaqiurjk.tif,59,0.0666666666666667,0.0666666666666667,1.13333333333333,1618.042440083,1618.748387,13,1618.109196208,1618.175356958,1618.764514291,1619.891238,1,0.705946917000119
134,41,6,categorization,0,bathroom,SHINEd_sun_ahqjwnzgolcaoidx.tif,29,0.0666666666666667,0.0666666666666667,1.63333333333333,1619.901118958,1620.56471225,13,1619.965812125,1620.03386075,1620.5904855,1622.217186,1,0.66359329199986
134,42,6,categorization,0,kitchen,SHINEd_sun_aegoxogugdkwpmpj.tif,80,0.0666666666666667,0.0666666666666667,1.43333333333333,1622.234292208,1622.8644975,9,1622.300932,1622.36751375,1622.891066958,1624.317792,1,0.630205292000028
134,43,6,categorization,0,bathroom,SHINEd_sun_aclfzgynxzxlbepz.tif,19,0.0666666666666667,0.0666666666666667,1.83333333333333,1624.335485958,1625.249784583,9,1624.402327833,1624.468192041,1625.273405041,1627.100122041,0,0.914298625000129
134,44,6,categorization,0,bathroom,SHINEd_sun_anhioqovhscjqqwb.tif,38,0.0666666666666667,0.0666666666666667,1.93333333333333,1627.114556333,1627.745158458,13,1627.180600416,1627.245600625,1627.769496416,1629.696213791,1,0.630602124999996
134,45,6,categorization,0,kitchen,SHINEd_sun_agubuxuukhzyzpdp.tif,88,0.0666666666666667,0.0666666666666667,1.26666666666667,1629.713064208,1630.450943416,9,1629.77967375,1629.845855708,1630.469148791,1631.729198666,1,0.737879207999868
134,46,6,categorization,0,bathroom,SHINEd_sun_apjevzvycyhuqghb.tif,43,0.0666666666666667,0.0666666666666667,1.86666666666667,1631.748427083,1632.708260666,13,1631.815585041,1631.881677916,1632.738747458,1634.598801833,1,0.959833582999863
134,47,6,categorization,0,bathroom,SHINEd_sun_acduarbnmmoglmiv.tif,16,0.0666666666666667,0.0666666666666667,1.41666666666667,1634.615576,1635.359702875,9,1634.682353083,1634.745740208,1635.386538125,1636.796583041,0,0.74412687500012
134,48,6,categorization,0,kitchen,SHINEd_sun_awcpdzzznmweyyhv.tif,106,0.0666666666666667,0.0666666666666667,1.11666666666667,1636.814847916,1637.407209958,13,1636.882476458,1636.947521125,1637.438038208,1638.548085958,0,0.592362042000104
134,49,6,categorization,0,bathroom,SHINEd_sun_agyqfjcfkdcydepw.tif,25,0.0666666666666667,0.0666666666666667,1.8,1638.557727833,1639.379248333,9,1638.624722375,1638.690728083,1639.397051166,1641.190429,0,0.821520500000133
134,50,6,categorization,0,bathroom,SHINEd_sun_ambriybtogmepttm.tif,36,0.0666666666666667,0.0666666666666667,1.25,1641.204449875,1642.303157625,9,1641.269520791,1641.336065333,1642.326715208,1643.570094625,0,1.09870775000013
134,1,7,categorization,0,bathroom,SHINEd_sun_awnqiikzaispgmwo.tif,56,0.0666666666666667,0.0666666666666667,0.883333333333333,1675.978705,1678.470601166,13,1676.041183875,1676.101296458,1678.487107125,1679.363778833,1,2.49189616600006
134,2,7,categorization,0,kitchen,SHINEd_sun_aadbddgrdsjugojn.tif,64,0.0666666666666667,0.0666666666666667,1.03333333333333,1679.36855325,1680.670483666,13,1679.430307291,1679.491241708,1680.676983291,1681.7037035,0,1.301930416
134,3,7,categorization,0,bathroom,SHINEd_sun_afcoljnjfoxjtgja.tif,20,0.0666666666666667,0.0666666666666667,1.06666666666667,1681.711338166,1682.585137416,13,1681.775924,1681.842382083,1682.61556275,1683.675607541,1,0.873799250000047
134,4,7,categorization,0,kitchen,SHINEd_sun_aexklacwqwezaorf.tif,84,0.0666666666666667,0.0666666666666667,0.833333333333333,1683.692172458,1684.49489525,13,1683.754909,1683.814937833,1684.500477291,1685.327147416,0,0.80272279199994
134,5,7,categorization,0,bathroom,SHINEd_sun_axldvoqbuvuggfmq.tif,57,0.0666666666666667,0.0666666666666667,0.716666666666667,1685.33188675,1686.27048625,9,1685.393565958,1685.454590958,1686.29005475,1687.000059375,0,0.938599500000009
134,6,7,categorization,0,bathroom,SHINEd_sun_ahcvzmoyaycdoftf.tif,27,0.0666666666666667,0.0666666666666667,0.733333333333333,1687.004673833,1688.039182375,9,1687.066483583,1687.1273385,1688.046643916,1688.773314875,0,1.03450854200014
134,7,7,categorization,0,bathroom,SHINEd_sun_apkruvsevgegsdwp.tif,44,0.0666666666666667,0.0666666666666667,1.38333333333333,1688.777953041,1689.918610541,13,1688.839825958,1688.900584375,1689.936315958,1691.313006666,1,1.14065749999986
134,8,7,categorization,0,kitchen,SHINEd_labelme_rykdqxenmhulbdn.tif,63,0.0666666666666667,0.0666666666666667,0.9,1691.324922291,1692.907911375,9,1691.3915005,1691.457770541,1692.932826708,1693.826164958,1,1.58298908400002
134,9,7,categorization,0,bathroom,SHINEd_sun_auzqhkafidnkrwmo.tif,54,0.0666666666666667,0.0666666666666667,0.816666666666667,1693.830941333,1695.566690875,9,1693.892803916,1693.953785916,1695.572573958,1696.382577541,0,1.73574954199989
134,10,7,categorization,0,bathroom,SHINEd_sun_aoybiabnpadelefl.tif,41,0.0666666666666667,0.0666666666666667,0.85,1696.387212583,1697.830417458,13,1696.449088833,1696.50979875,1697.845153875,1698.688492291,1,1.44320487499999
134,11,7,categorization,0,kitchen,SHINEd_sun_abdenxonkemggwsq.tif,69,0.0666666666666667,0.0666666666666667,1.6,1698.693995666,1699.862949125,9,1698.755680208,1698.816669416,1699.8692135,1701.462590791,1,1.16895345899979
134,12,7,categorization,0,bathroom,SHINEd_sun_aghyqhbptboemmoq.tif,23,0.0666666666666667,0.0666666666666667,1.75,1701.479946875,1702.281027625,13,1701.546725291,1701.61299675,1702.302754625,1704.046145916,1,0.801080749999983
134,13,7,categorization,0,kitchen,SHINEd_sun_ahywdevtimnqcsln.tif,94,0.0666666666666667,0.0666666666666667,1.1,1704.063550041,1704.927556541,9,1704.130422041,1704.19573875,1704.952783583,1706.046172875,1,0.864006499999959
134,14,7,categorization,0,bathroom,SHINEd_sun_ajlawzvmubibwbpy.tif,30,0.0666666666666667,0.0666666666666667,1.46666666666667,1706.054359708,1707.196150416,9,1706.118774708,1706.186986291,1707.208301666,1708.668336416,0,1.14179070799992
134,15,7,categorization,0,bathroom,SHINEd_sun_avhrdrntsqrjzccq.tif,55,0.0666666666666667,0.0666666666666667,1.25,1708.6837715,1709.455851875,9,1708.751360333,1708.816571208,1709.473194625,1710.716574125,0,0.772080375000087
134,16,7,categorization,0,bathroom,SHINEd_sun_ahaulkltgpkeeemi.tif,26,0.0666666666666667,0.0666666666666667,1.13333333333333,1710.733854208,1711.49958025,13,1710.800567333,1710.86679575,1711.5236905,1712.650405333,1,0.765726042000097
134,17,7,categorization,0,kitchen,SHINEd_sun_adgqasybjyktddhj.tif,78,0.0666666666666667,0.0666666666666667,1.33333333333333,1712.66336925,1713.606179541,9,1712.729982375,1712.7962005,1713.636508708,1714.963229,1,0.942810291000114
134,18,7,categorization,0,kitchen,SHINEd_sun_agorklincwxrdtga.tif,87,0.0666666666666667,0.0666666666666667,1.86666666666667,1714.98069,1715.867166,9,1715.048427291,1715.11401425,1715.887243125,1717.747281333,1,0.886475999999902
134,19,7,categorization,0,bathroom,SHINEd_sun_acegryoqftbzowsg.tif,17,0.0666666666666667,0.0666666666666667,1.58333333333333,1717.76555975,1718.767936083,9,1717.832427,1717.8987485,1718.788720666,1720.36542275,0,1.00237633300003
134,20,7,categorization,0,kitchen,SHINEd_sun_amjjdeyrggfqgmom.tif,100,0.0666666666666667,0.0666666666666667,1.05,1720.38321525,1721.153291375,13,1720.451216333,1720.515849833,1721.171810791,1722.215185625,0,0.77007612500006
134,21,7,categorization,0,kitchen,SHINEd_sun_aehawpgmrlhlvcow.tif,81,0.0666666666666667,0.0666666666666667,0.9,1722.224244208,1723.157929041,9,1722.288576291,1722.35545175,1723.178311541,1724.071682791,1,0.933684832999916
134,22,7,categorization,0,kitchen,SHINEd_sun_akcjzhbbjlbogpdi.tif,99,0.0666666666666667,0.0666666666666667,0.7,1724.085655625,1725.222616583,9,1724.15215875,1724.218602375,1725.237377791,1725.930717,1,1.13696095799992
134,23,7,categorization,0,bathroom,SHINEd_labelme_sfxiulhjbhlyiyt.tif,11,0.0666666666666667,0.0666666666666667,0.933333333333333,1725.935249041,1726.878159041,13,1725.997129791,1726.057882333,1726.893456416,1727.820129,1,0.942909999999983
134,24,7,categorization,0,kitchen,SHINEd_sun_aamedkxepzlwuxes.tif,65,0.0666666666666667,0.0666666666666667,1.95,1727.824805208,1728.870265708,9,1727.886454541,1727.947495791,1728.883110208,1730.826501041,1,1.04546049999999
134,25,7,categorization,0,kitchen,SHINEd_sun_avszsnwsbuqfgzbn.tif,105,0.0666666666666667,0.0666666666666667,1.06666666666667,1730.844096916,1732.086274833,9,1730.911038916,1730.976875541,1732.096197041,1733.156230291,1,1.24217791700016
134,26,7,categorization,0,bathroom,SHINEd_sun_anhioqovhscjqqwb.tif,38,0.0666666666666667,0.0666666666666667,1.2,1733.164096541,1733.869892458,13,1733.228577916,1733.295164833,1733.882521333,1735.07589675,1,0.70579591700016
134,27,7,categorization,0,kitchen,SHINEd_sun_ajcbwwvdlsvjyzje.tif,96,0.0666666666666667,0.0666666666666667,0.75,1735.091466416,1736.302005666,9,1735.155705375,1735.218130958,1736.320404958,1737.063742541,1,1.21053925000001
134,28,7,categorization,0,kitchen,SHINEd_sun_auaiucuqpdausiva.tif,102,0.0666666666666667,0.0666666666666667,0.816666666666667,1737.068316875,1737.950674541,9,1737.130032125,1737.191010833,1737.959968958,1738.769974708,1,0.882357665999962
134,29,7,categorization,0,bathroom,SHINEd_sun_ambriybtogmepttm.tif,36,0.0666666666666667,0.0666666666666667,1.96666666666667,1738.774773125,1739.990100125,9,1738.836627958,1738.897453583,1739.999515166,1741.959553666,0,1.21532700000012
134,30,7,categorization,0,kitchen,SHINEd_sun_aapllqyqlykszopd.tif,66,0.0666666666666667,0.0666666666666667,1.2,1741.976933958,1742.723002416,9,1742.043390666,1742.109472041,1742.748821916,1743.942195416,1,0.746068458000082
134,31,7,categorization,0,bathroom,SHINEd_sun_ahqjwnzgolcaoidx.tif,29,0.0666666666666667,0.0666666666666667,0.883333333333333,1743.952383041,1745.169572875,9,1744.019104333,1744.085296666,1745.190855708,1746.067526166,0,1.21718983400001
134,32,7,categorization,0,kitchen,SHINEd_sun_abftihopvusyfakt.tif,71,0.0666666666666667,0.0666666666666667,1.33333333333333,1746.073255041,1746.902813125,9,1746.134957333,1746.195983833,1746.914775041,1748.24147375,1,0.829558083999927
134,33,7,categorization,0,bathroom,SHINEd_sun_apjevzvycyhuqghb.tif,43,0.0666666666666667,0.0666666666666667,1.45,1748.258635791,1749.190018041,9,1748.3250735,1748.391457041,1749.2133995,1750.656790166,0,0.93138225000007
134,34,7,categorization,0,kitchen,SHINEd_sun_aypmqwcualkenuoe.tif,109,0.0666666666666667,0.0666666666666667,1.15,1750.675136875,1751.374945833,13,1750.74158025,1750.807536708,1751.397603458,1752.540979458,0,0.699808958000176
134,35,7,categorization,0,kitchen,SHINEd_sun_agubuxuukhzyzpdp.tif,88,0.0666666666666667,0.0666666666666667,0.966666666666667,1752.55196,1753.698887833,13,1752.618317666,1752.684462625,1753.725318208,1754.685322541,0,1.14692783300006
134,36,7,categorization,0,bathroom,SHINEd_sun_aspsyogrekjtfozg.tif,50,0.0666666666666667,0.0666666666666667,1.45,1754.690172291,1755.438271291,13,1754.751900333,1754.812755958,1755.447776666,1756.891151833,1,0.748099000000138
134,37,7,categorization,0,bathroom,SHINEd_sun_aleqenyvunhactkl.tif,32,0.0666666666666667,0.0666666666666667,0.8,1756.908181916,1757.83403325,9,1756.974412375,1757.040260875,1757.863038125,1758.656376083,0,0.925851333999844
134,38,7,categorization,0,kitchen,SHINEd_sun_afuyedyxivkhecmu.tif,85,0.0666666666666667,0.0666666666666667,1.45,1758.66121875,1759.870105666,9,1758.722917791,1758.784084833,1759.886554291,1761.329940458,1,1.20888691599998
134,39,7,categorization,0,kitchen,SHINEd_sun_awcpdzzznmweyyhv.tif,106,0.0666666666666667,0.0666666666666667,1.1,1761.344070208,1762.107416041,13,1761.410934916,1761.476608208,1762.133029,1763.226412125,0,0.76334583300013
134,40,7,categorization,0,kitchen,SHINEd_sun_acfmftudsenhrfhy.tif,74,0.0666666666666667,0.0666666666666667,1.16666666666667,1763.235281166,1763.738295125,13,1763.299497208,1763.36631275,1763.7553815,1764.915438083,0,0.503013958999873
134,41,7,categorization,0,bathroom,SHINEd_sun_aclfzgynxzxlbepz.tif,19,0.0666666666666667,0.0666666666666667,1.31666666666667,1764.932933916,1766.438877041,9,1764.999337625,1765.065267875,1766.451124041,1767.761182125,0,1.50594312500016
134,42,7,categorization,0,bathroom,SHINEd_sun_aavhrsfjbserjtht.tif,13,0.0666666666666667,0.0666666666666667,1.68333333333333,1767.778366541,1769.313683291,9,1767.844946291,1767.910985166,1769.335145708,1771.011873333,0,1.53531674999999
134,43,7,categorization,0,bathroom,SHINEd_sun_aapitsgbtktqubfy.tif,12,0.0666666666666667,0.0666666666666667,0.966666666666667,1771.028528958,1771.91520775,13,1771.095290041,1771.156512916,1771.928934375,1772.888938666,1,0.886678792000112
134,44,7,categorization,0,kitchen,SHINEd_sun_abpwyqmlzafvklqo.tif,72,0.0666666666666667,0.0666666666666667,1.4,1772.893750333,1774.150544583,9,1772.955460416,1773.016452458,1774.169145666,1775.56253,1,1.25679424999998
134,45,7,categorization,0,kitchen,SHINEd_sun_ahljzhgcdpomplvg.tif,91,0.0666666666666667,0.0666666666666667,0.783333333333333,1775.580913208,1777.630499666,13,1775.647758833,1775.713702291,1777.649974833,1778.426646958,0,2.04958645800002
134,46,7,categorization,0,bathroom,SHINEd_sun_agguqiubmwhqqunb.tif,22,0.0666666666666667,0.0666666666666667,1.08333333333333,1778.431378,1779.606114708,9,1778.493176083,1778.553981,1779.622488583,1780.699203291,0,1.17473670799995
134,47,7,categorization,0,kitchen,SHINEd_sun_acwjdupvyjsugpay.tif,76,0.0666666666666667,0.0666666666666667,1.43333333333333,1780.708592416,1781.465600166,9,1780.7735385,1780.839721333,1781.496214083,1782.922933125,1,0.757007749999957
134,48,7,categorization,0,bathroom,SHINEd_sun_aqrpegblszgcoujh.tif,48,0.0666666666666667,0.0666666666666667,1.75,1782.941389875,1784.11781225,13,1783.007892416,1783.073990333,1784.147292791,1785.890685375,1,1.17642237500013
134,49,7,categorization,0,kitchen,SHINEd_sun_ahdycvpopffkzzsu.tif,90,0.0666666666666667,0.0666666666666667,1.21666666666667,1785.903028583,1786.882467708,9,1785.969881541,1786.036402083,1786.909413958,1788.119468333,1,0.979439124999999
134,50,7,categorization,0,bathroom,SHINEd_sun_azqyogdvyhahyram.tif,60,0.0666666666666667,0.0666666666666667,1.31666666666667,1788.134921291,1788.840582916,13,1788.202490041,1788.267662333,1788.857091375,1790.167127708,1,0.705661624999948
134,1,8,categorization,0,kitchen,SHINEd_sun_aggjlwcdjsjcaemh.tif,86,0.0666666666666667,0.0666666666666667,1.18333333333333,1798.947191541,1799.854135458,13,1799.009696041,1799.070054583,1799.871805791,1801.048527375,0,0.906943917000035
134,2,8,categorization,0,kitchen,SHINEd_labelme_brsyyvweiuaazfr.tif,61,0.0666666666666667,0.0666666666666667,0.983333333333333,1801.0585065,1801.839806125,9,1801.125521083,1801.186497125,1801.859614833,1802.836320833,1,0.781299624999974
134,3,8,categorization,0,kitchen,SHINEd_sun_abdxkyyxwfskuaqb.tif,70,0.0666666666666667,0.0666666666666667,1.65,1802.852013416,1803.974119833,13,1802.918594583,1802.977841291,1803.980237125,1805.623617166,0,1.12210641699994
134,4,8,categorization,0,bathroom,SHINEd_sun_acduarbnmmoglmiv.tif,16,0.0666666666666667,0.0666666666666667,1.23333333333333,1805.642509583,1806.690388333,9,1805.709111916,1805.775281958,1806.71400175,1807.940732541,0,1.04787875000011
134,5,8,categorization,0,bathroom,SHINEd_sun_anryaplzeujmzfkd.tif,39,0.0666666666666667,0.0666666666666667,0.916666666666667,1807.958118416,1808.684087833,9,1808.024803333,1808.090754625,1808.713950166,1809.623984625,0,0.725969416999988
134,6,8,categorization,0,bathroom,SHINEd_sun_agrwbmhcpmfuwmsg.tif,24,0.0666666666666667,0.0666666666666667,1.56666666666667,1809.64124425,1810.462250833,9,1809.707768291,1809.773272833,1810.475198875,1812.035232583,0,0.821006583000099
134,7,8,categorization,0,bathroom,SHINEd_sun_aggnnqpdorgxpvce.tif,21,0.0666666666666667,0.0666666666666667,1.63333333333333,1812.052549083,1812.970326041,13,1812.119095291,1812.185155416,1812.99208575,1814.618808083,1,0.917776957999877
134,8,8,categorization,0,bathroom,SHINEd_sun_abjtwfukuwddzted.tif,15,0.0666666666666667,0.0666666666666667,1.1,1814.635847666,1815.502997541,13,1814.702307958,1814.768577666,1815.525642083,1816.619008291,1,0.867149874999996
134,9,8,categorization,0,bathroom,SHINEd_sun_axyrejkiiaqiurjk.tif,59,0.0666666666666667,0.0666666666666667,1.38333333333333,1816.6293335,1817.815019125,9,1816.694352833,1816.762214916,1817.835257166,1819.211963791,0,1.18568562499991
134,10,8,categorization,0,bathroom,SHINEd_sun_apmqjbnwghzuhhzh.tif,46,0.0666666666666667,0.0666666666666667,0.766666666666667,1819.224911541,1820.261696333,13,1819.294724541,1819.364001875,1820.2874745,1821.047479208,1,1.03678479199993
134,11,8,categorization,0,kitchen,SHINEd_sun_aarfiyshqohlwkmo.tif,67,0.0666666666666667,0.0666666666666667,1.45,1821.053503375,1821.742305416,9,1821.115332916,1821.176236666,1821.761713916,1823.205082291,1,0.688802040999917
134,12,8,categorization,0,kitchen,SHINEd_sun_ahpczsiumwwocjkv.tif,92,0.0666666666666667,0.0666666666666667,0.983333333333333,1823.214376625,1824.191668833,9,1823.2797275,1823.345799041,1824.218517333,1825.195192083,1,0.977292207999881
134,13,8,categorization,0,bathroom,SHINEd_sun_amzlamotzwfkwjco.tif,37,0.0666666666666667,0.0666666666666667,0.716666666666667,1825.199932791,1826.414161916,13,1825.26175025,1825.322569208,1826.425046416,1827.135051375,1,1.21422912499997
134,14,8,categorization,0,kitchen,SHINEd_sun_auticobqsbwgoppi.tif,104,0.0666666666666667,0.0666666666666667,1.41666666666667,1827.139795583,1828.133818583,13,1827.201519666,1827.262395083,1828.148001625,1829.558036708,0,0.99402299999997
134,15,8,categorization,0,bathroom,SHINEd_sun_acgyywnybuveqsro.tif,18,0.0666666666666667,0.0666666666666667,1.21666666666667,1829.574944541,1830.362474291,9,1829.641506583,1829.707548625,1830.379570708,1831.589615125,0,0.787529749999976
134,16,8,categorization,0,bathroom,SHINEd_sun_agyqfjcfkdcydepw.tif,25,0.0666666666666667,0.0666666666666667,1.61666666666667,1831.607984375,1832.713015583,13,1831.674689083,1831.740623333,1832.729293666,1834.3393355,1,1.10503120800013
134,17,8,categorization,0,bathroom,SHINEd_sun_ahijqszoswveeyji.tif,28,0.0666666666666667,0.0666666666666667,0.783333333333333,1834.354776041,1835.230915708,13,1834.420912833,1834.488500416,1835.242832833,1836.019507791,1,0.876139667000189
134,18,8,categorization,0,kitchen,SHINEd_sun_agzzivivdpnawacl.tif,89,0.0666666666666667,0.0666666666666667,1.98333333333333,1836.024874291,1836.846101833,13,1836.086537916,1836.147570416,1836.849585708,1838.826300708,0,0.82122754199986
134,19,8,categorization,0,bathroom,SHINEd_sun_alkosphxlxwjwgjd.tif,34,0.0666666666666667,0.0666666666666667,0.983333333333333,1838.843916416,1839.563794625,9,1838.910237833,1838.976687083,1839.583137958,1840.559810375,0,0.719878208999944
134,20,8,categorization,0,bathroom,SHINEd_sun_asfwthctfqerjvxr.tif,49,0.0666666666666667,0.0666666666666667,0.8,1840.565557125,1841.39002175,9,1840.627128583,1840.688205708,1841.406864541,1842.200202958,0,0.824464625000019
134,21,8,categorization,0,bathroom,SHINEd_sun_ausgutylgojavyoq.tif,53,0.0666666666666667,0.0666666666666667,0.733333333333333,1842.2065045,1843.50962475,13,1842.268171666,1842.329094708,1843.514648666,1844.241321958,1,1.30312025000012
134,22,8,categorization,0,bathroom,SHINEd_sun_apynckhmoftszqoq.tif,47,0.0666666666666667,0.0666666666666667,0.966666666666667,1844.246666833,1845.253745041,13,1844.308292958,1844.369367833,1845.27136625,1846.231371916,1,1.00707820799994
134,23,8,categorization,0,bathroom,SHINEd_sun_aljolscmmzydegqp.tif,33,0.0666666666666667,0.0666666666666667,0.866666666666667,1846.236949458,1847.414396333,13,1846.29865,1846.35954875,1847.428292541,1848.288297583,1,1.17744687499999
134,24,8,categorization,0,kitchen,SHINEd_sun_aymvwlarqodbwuoc.tif,108,0.0666666666666667,0.0666666666666667,1.23333333333333,1848.292821833,1849.150293833,9,1848.354601291,1848.415413041,1849.167225083,1850.393945875,1,0.857471999999916
134,25,8,categorization,0,bathroom,SHINEd_sun_akiytfaagpdsphgz.tif,31,0.0666666666666667,0.0666666666666667,1.9,1850.409766125,1851.753905958,13,1850.476170916,1850.542580083,1851.783971958,1853.677345625,1,1.34413983299987
134,26,8,categorization,0,kitchen,SHINEd_sun_axyyrmzcupyhlivc.tif,107,0.0666666666666667,0.0666666666666667,0.866666666666667,1853.692038791,1854.561058208,9,1853.758068291,1853.825481041,1854.581826333,1855.441831958,1,0.869019417000118
134,27,8,categorization,0,kitchen,SHINEd_sun_aqeaevwwwjoqhzvl.tif,101,0.0666666666666667,0.0666666666666667,0.966666666666667,1855.447032,1856.253684416,13,1855.508776583,1855.569750875,1856.272141458,1857.232147791,0,0.806652415999906
134,28,8,categorization,0,kitchen,SHINEd_sun_aegoxogugdkwpmpj.tif,80,0.0666666666666667,0.0666666666666667,0.916666666666667,1857.236767708,1858.070183583,9,1857.298456875,1857.35950475,1858.078075208,1858.988082708,1,0.833415875000128
134,29,8,categorization,0,bathroom,SHINEd_sun_aunuadmjocsddsrl.tif,52,0.0666666666666667,0.0666666666666667,0.916666666666667,1858.993720833,1859.8944715,9,1859.055440208,1859.116340375,1859.901808458,1860.811815625,0,0.900750667000011
134,30,8,categorization,0,kitchen,SHINEd_sun_acgtpgfybqjmzeyw.tif,75,0.0666666666666667,0.0666666666666667,1.4,1860.817226625,1861.534278166,9,1860.878917,1860.93998075,1861.541695458,1862.935084541,1,0.717051540999819
134,31,8,categorization,0,kitchen,SHINEd_sun_abrcnpqqhmjwekyf.tif,73,0.0666666666666667,0.0666666666666667,1.75,1862.952356791,1863.703713166,9,1863.018475666,1863.0824045,1863.721501166,1865.464868291,1,0.751356374999887
134,32,8,categorization,0,bathroom,SHINEd_sun_apkxzenqapsujocq.tif,45,0.0666666666666667,0.0666666666666667,1.25,1865.482845958,1866.127723458,13,1865.5492895,1865.61554825,1866.155361833,1867.3987285,1,0.644877499999893
134,33,8,categorization,0,kitchen,SHINEd_sun_aaxxjlsuzvqlgylf.tif,68,0.0666666666666667,0.0666666666666667,1.05,1867.416698,1868.062406166,9,1867.483038708,1867.549467,1868.08929475,1869.132649166,1,0.645708166000077
134,34,8,categorization,0,kitchen,SHINEd_sun_akchetnepxlcxhsu.tif,98,0.0666666666666667,0.0666666666666667,1.06666666666667,1869.14297225,1869.838242583,13,1869.205795583,1869.265868041,1869.851019916,1870.911057166,0,0.695270333000053
134,35,8,categorization,0,bathroom,SHINEd_sun_alotolagknyrgtsk.tif,35,0.0666666666666667,0.0666666666666667,1.21666666666667,1870.920541625,1871.555935583,9,1870.985120041,1871.051842583,1871.574488541,1872.784528041,0,0.635393958000122
134,36,8,categorization,0,bathroom,SHINEd_sun_axxbkopsgyouuebh.tif,58,0.0666666666666667,0.0666666666666667,0.95,1872.800873333,1873.630382166,13,1872.866930375,1872.933270625,1873.635502791,1874.578842166,1,0.829508832999863
134,37,8,categorization,0,kitchen,SHINEd_labelme_kxvouciolcpqplr.tif,62,0.0666666666666667,0.0666666666666667,0.9,1874.584319083,1875.406378125,9,1874.646056,1874.706912083,1875.42537725,1876.318715208,1,0.822059041999864
134,38,8,categorization,0,kitchen,SHINEd_sun_aunzlwrbjumxhwdj.tif,103,0.0666666666666667,0.0666666666666667,1.78333333333333,1876.324249,1877.16637025,9,1876.385951208,1876.446775166,1877.181805583,1878.958521916,1,0.842121249999991
134,39,8,categorization,0,kitchen,SHINEd_sun_admlmbcdswaszruo.tif,79,0.0666666666666667,0.0666666666666667,1.16666666666667,1878.975262166,1879.750100791,13,1879.041413375,1879.108408041,1879.764012875,1880.924046833,0,0.774838625000029
134,40,8,categorization,0,kitchen,SHINEd_sun_ajkqhtgcbgpcwrwn.tif,97,0.0666666666666667,0.0666666666666667,0.783333333333333,1880.933030916,1881.712719708,9,1880.999385166,1881.065884916,1881.739388875,1882.516098583,1,0.779688791999888
134,41,8,categorization,0,bathroom,SHINEd_sun_atstyziqcmkahyxk.tif,51,0.0666666666666667,0.0666666666666667,1.23333333333333,1882.532109958,1883.206336333,13,1882.5988,1882.664537041,1883.216442333,1884.443159833,1,0.674226374999989
134,42,8,categorization,0,kitchen,SHINEd_sun_aenotlpyftoioydp.tif,82,0.0666666666666667,0.0666666666666667,0.9,1884.459535666,1885.099984791,9,1884.525965125,1884.5922765,1885.11422875,1886.00760475,1,0.640449125000032
134,43,8,categorization,0,kitchen,SHINEd_sun_aeqdocilnnpuvuhx.tif,83,0.0666666666666667,0.0666666666666667,0.7,1886.024231583,1886.886321875,9,1886.091141791,1886.156792208,1886.892513625,1887.5858545,1,0.862090291999948
134,44,8,categorization,0,kitchen,SHINEd_sun_acxkpeoqbwcxfvip.tif,77,0.0666666666666667,0.0666666666666667,1.23333333333333,1887.590621458,1888.325487625,13,1887.652266666,1887.713242375,1888.331651875,1889.558362458,0,0.734866167000064
134,45,8,categorization,0,bathroom,SHINEd_sun_aofnryafpsjimzsb.tif,40,0.0666666666666667,0.0666666666666667,1,1889.57491625,1890.280266833,9,1889.6399545,1889.707548,1890.29662275,1891.289980291,0,0.705350583000154
134,46,8,categorization,0,bathroom,SHINEd_sun_apeeialkgkuxddgh.tif,42,0.0666666666666667,0.0666666666666667,1.38333333333333,1891.299649083,1891.845820333,13,1891.36359675,1891.423404791,1891.858683291,1893.235378416,1,0.546171249999816
134,47,8,categorization,0,bathroom,SHINEd_sun_abapwbhyhkfixyex.tif,14,0.0666666666666667,0.0666666666666667,1.3,1893.245038333,1893.960298333,9,1893.309339833,1893.377515791,1893.983649416,1895.27702925,0,0.715260000000171
134,48,8,categorization,0,kitchen,SHINEd_sun_ahspylgoovwmwvgk.tif,93,0.0666666666666667,0.0666666666666667,0.833333333333333,1895.290895,1895.971021208,9,1895.357680416,1895.423810833,1895.996477708,1896.823199375,1,0.68012620799982
134,49,8,categorization,0,kitchen,SHINEd_sun_aixorpehvfykdynp.tif,95,0.0666666666666667,0.0666666666666667,0.95,1896.838641083,1897.670422416,9,1896.908481166,1896.971121791,1897.689848833,1898.633186708,1,0.831781332999981
134,50,8,categorization,0,kitchen,SHINEd_sun_azmutvzbxypaceni.tif,110,0.0666666666666667,0.0666666666666667,1.43333333333333,1898.63969475,1899.453789791,13,1898.701519791,1898.762320125,1899.464187125,1900.890909416,0,0.814095040999973
134,1,9,categorization,0,kitchen,SHINEd_sun_ahspylgoovwmwvgk.tif,93,0.0666666666666667,0.0666666666666667,1.08333333333333,1930.131261125,1931.189362333,9,1930.19393975,1930.253972958,1931.205896958,1932.2826185,1,1.05810120799993
134,2,9,categorization,0,bathroom,SHINEd_sun_acgyywnybuveqsro.tif,18,0.0666666666666667,0.0666666666666667,0.8,1932.292302791,1933.016030666,13,1932.357149708,1932.425042125,1933.030583708,1933.823955541,1,0.723727874999895
134,3,9,categorization,0,bathroom,SHINEd_sun_afcoljnjfoxjtgja.tif,20,0.0666666666666667,0.0666666666666667,0.833333333333333,1933.840646458,1934.693904,13,1933.907394208,1933.973146291,1934.708997291,1935.535669,1,0.853257541999938
134,4,9,categorization,0,kitchen,SHINEd_sun_adgqasybjyktddhj.tif,78,0.0666666666666667,0.0666666666666667,1.45,1935.54047475,1936.261155125,13,1935.602047125,1935.663265458,1936.26542625,1937.708811666,0,0.720680375000029
134,5,9,categorization,0,bathroom,SHINEd_sun_amzlamotzwfkwjco.tif,37,0.0666666666666667,0.0666666666666667,1.3,1937.72489075,1938.505637458,13,1937.791191583,1937.857984166,1938.531315875,1939.824689708,1,0.780746707999924
134,6,9,categorization,0,bathroom,SHINEd_sun_agrwbmhcpmfuwmsg.tif,24,0.0666666666666667,0.0666666666666667,1.21666666666667,1939.841781958,1940.561386625,9,1939.908495625,1939.974586416,1940.580925041,1941.7909825,0,0.719604667000112
134,7,9,categorization,0,kitchen,SHINEd_sun_amjjdeyrggfqgmom.tif,100,0.0666666666666667,0.0666666666666667,0.733333333333333,1941.80764225,1942.582831083,9,1941.87421325,1941.940560875,1942.595900125,1943.322623333,1,0.775188832999902
134,8,9,categorization,0,kitchen,SHINEd_sun_ahywdevtimnqcsln.tif,94,0.0666666666666667,0.0666666666666667,1.03333333333333,1943.332965958,1944.118237458,9,1943.39993625,1943.465822208,1944.135056791,1945.161765666,1,0.785271500000135
134,9,9,categorization,0,bathroom,SHINEd_sun_asfwthctfqerjvxr.tif,49,0.0666666666666667,0.0666666666666667,1.1,1945.170123208,1946.024203416,9,1945.234276208,1945.300892625,1946.0396785,1947.133036708,0,0.854080208000141
134,10,9,categorization,0,bathroom,SHINEd_sun_agguqiubmwhqqunb.tif,22,0.0666666666666667,0.0666666666666667,1.25,1947.142998791,1948.174180375,9,1947.20591875,1947.265973416,1948.185142666,1949.42851475,0,1.03118158400002
134,11,9,categorization,0,bathroom,SHINEd_sun_apkruvsevgegsdwp.tif,44,0.0666666666666667,0.0666666666666667,1.4,1949.447339875,1950.41936375,13,1949.51414525,1949.580180833,1950.436294583,1951.829668666,1,0.972023875000104
134,12,9,categorization,0,kitchen,SHINEd_sun_aapllqyqlykszopd.tif,66,0.0666666666666667,0.0666666666666667,1.43333333333333,1951.846344041,1952.742598958,13,1951.912977708,1951.979103291,1952.769025958,1954.195744041,0,0.896254916999851
134,13,9,categorization,0,bathroom,SHINEd_sun_ahcvzmoyaycdoftf.tif,27,0.0666666666666667,0.0666666666666667,1.26666666666667,1954.212827833,1954.91475325,13,1954.27947075,1954.345375375,1954.935128541,1956.195184875,1,0.701925417000211
134,14,9,categorization,0,bathroom,SHINEd_sun_alkosphxlxwjwgjd.tif,34,0.0666666666666667,0.0666666666666667,0.916666666666667,1956.209559083,1956.9925775,13,1956.276532541,1956.342064041,1957.015862541,1957.925913541,1,0.783018416999994
134,15,9,categorization,0,kitchen,SHINEd_sun_axyyrmzcupyhlivc.tif,107,0.0666666666666667,0.0666666666666667,1.05,1957.941660958,1958.798000791,9,1958.008297708,1958.066021833,1958.801580875,1959.844956625,1,0.856339832999993
134,16,9,categorization,0,kitchen,SHINEd_sun_awcpdzzznmweyyhv.tif,106,0.0666666666666667,0.0666666666666667,1.53333333333333,1959.853945791,1961.105909833,13,1959.918547708,1959.985003458,1961.126199833,1962.652915875,0,1.25196404200005
134,17,9,categorization,0,bathroom,SHINEd_sun_anhioqovhscjqqwb.tif,38,0.0666666666666667,0.0666666666666667,1.11666666666667,1962.668388791,1963.369694541,13,1962.735606916,1962.801011,1963.391968291,1964.502013541,1,0.701305749999847
134,18,9,categorization,0,kitchen,SHINEd_sun_aqeaevwwwjoqhzvl.tif,101,0.0666666666666667,0.0666666666666667,1.05,1964.513023083,1965.320705958,13,1964.578383,1964.64612875,1965.335086875,1966.378474125,0,0.807682874999955
134,19,9,categorization,0,kitchen,SHINEd_sun_aymvwlarqodbwuoc.tif,108,0.0666666666666667,0.0666666666666667,1.66666666666667,1966.395889291,1967.22162475,13,1966.460603541,1966.519002416,1967.237328416,1968.897378083,0,0.825735459000043
134,20,9,categorization,0,bathroom,SHINEd_sun_aavhrsfjbserjtht.tif,13,0.0666666666666667,0.0666666666666667,1.98333333333333,1968.914532291,1969.730197833,9,1968.9810845,1969.04704075,1969.753780958,1971.730493333,0,0.815665542000033
134,21,9,categorization,0,kitchen,SHINEd_sun_agzzivivdpnawacl.tif,89,0.0666666666666667,0.0666666666666667,1.06666666666667,1971.747328625,1972.777816458,13,1971.813979041,1971.880025541,1972.803161458,1973.863196416,0,1.03048783300005
134,22,9,categorization,0,kitchen,SHINEd_sun_aadbddgrdsjugojn.tif,64,0.0666666666666667,0.0666666666666667,1.31666666666667,1973.872982,1974.791439166,9,1973.937487041,1974.003216208,1974.809630958,1976.119664416,1,0.918457165999826
134,23,9,categorization,0,bathroom,SHINEd_sun_aleqenyvunhactkl.tif,32,0.0666666666666667,0.0666666666666667,1.78333333333333,1976.132809333,1976.790560791,13,1976.199542041,1976.265685458,1976.804638666,1978.58136475,1,0.657751457999893
134,24,9,categorization,0,kitchen,SHINEd_sun_abdxkyyxwfskuaqb.tif,70,0.0666666666666667,0.0666666666666667,0.816666666666667,1978.599141166,1979.6451045,9,1978.665632208,1978.731814041,1979.672150041,1980.482155833,1,1.04596333399991
