sub_num,trial,block,task,is_practice,category,image,texture,duration,mask_dur,jitter,stim_time,time_of_resp,trial_response,mask_time,fix_time,jit_onset,trial_end,trial_accuracy,RT
134,1,19,categorization,0,kitchen,SHINEd_sun_aunzlwrbjumxhwdj.tif,103,0.0666666666666667,0.0666666666666667,1.48333333333333,3300.306814333,3300.91260675,9,3300.369268958,3300.429430583,3300.931387208,3302.408093666,1,0.605792416999975
134,2,19,categorization,0,bathroom,SHINEd_sun_abapwbhyhkfixyex.tif,14,0.0666666666666667,0.0666666666666667,0.783333333333333,3302.425024625,3303.08497725,9,3302.49177775,3302.558289166,3303.114777208,3303.8914835,0,0.659952625000187
134,3,19,categorization,0,bathroom,SHINEd_sun_alotolagknyrgtsk.tif,35,0.0666666666666667,0.0666666666666667,1.7,3303.907691666,3304.687635625,13,3303.974379416,3304.031974916,3304.700668875,3306.394034458,1,0.779943958999866
134,4,19,categorization,0,kitchen,SHINEd_labelme_brsyyvweiuaazfr.tif,61,0.0666666666666667,0.0666666666666667,1.93333333333333,3306.410764083,3306.832046958,13,3306.477410166,3306.543593916,3306.849523541,3308.776233708,0,0.421282875000088
134,5,19,categorization,0,kitchen,SHINEd_sun_aexklacwqwezaorf.tif,84,0.0666666666666667,0.0666666666666667,1.73333333333333,3308.790079625,3309.419183208,9,3308.856616333,3308.923007833,3309.446713875,3311.173421541,1,0.62910358299996
134,6,19,categorization,0,kitchen,SHINEd_sun_abrcnpqqhmjwekyf.tif,73,0.0666666666666667,0.0666666666666667,0.866666666666667,3311.185897125,3311.874028291,9,3311.250428625,3311.31256725,3311.902501291,3312.762507125,1,0.688131165999948
134,7,19,categorization,0,bathroom,SHINEd_sun_anryaplzeujmzfkd.tif,39,0.0666666666666667,0.0666666666666667,1.85,3312.768236583,3313.776024,13,3312.829927708,3312.890815,3313.793104083,3315.636474666,1,1.00778741699969
134,8,19,categorization,0,bathroom,SHINEd_sun_azqyogdvyhahyram.tif,60,0.0666666666666667,0.0666666666666667,0.966666666666667,3315.653612625,3316.225556125,13,3315.720135625,3315.786551041,3316.242332916,3317.202337958,1,0.571943500000089
134,9,19,categorization,0,kitchen,SHINEd_labelme_rykdqxenmhulbdn.tif,63,0.0666666666666667,0.0666666666666667,0.733333333333333,3317.207388708,3318.063601291,9,3317.268996041,3317.330025083,3318.082259291,3318.80893125,1,0.856212582999888
134,10,19,categorization,0,bathroom,SHINEd_sun_auzqhkafidnkrwmo.tif,54,0.0666666666666667,0.0666666666666667,0.733333333333333,3318.816172375,3319.448428041,13,3318.877946,3318.938798708,3319.457166125,3320.18383875,1,0.632255666000219
134,11,19,categorization,0,kitchen,SHINEd_sun_akcjzhbbjlbogpdi.tif,99,0.0666666666666667,0.0666666666666667,1.93333333333333,3320.189387166,3320.800524541,9,3320.250949875,3320.312131416,3320.814506166,3322.741211458,1,0.611137374999998
134,12,19,categorization,0,bathroom,SHINEd_sun_apmqjbnwghzuhhzh.tif,46,0.0666666666666667,0.0666666666666667,1.1,3322.759762958,3323.416164166,13,3322.826338208,3322.892694375,3323.432273125,3324.525660875,1,0.656401207999807
134,13,19,categorization,0,kitchen,SHINEd_sun_abdxkyyxwfskuaqb.tif,70,0.0666666666666667,0.0666666666666667,1.8,3324.536085875,3325.219555208,9,3324.600938333,3324.668686583,3325.23948125,3327.032865208,1,0.683469333000176
134,14,19,categorization,0,bathroom,SHINEd_sun_awnqiikzaispgmwo.tif,56,0.0666666666666667,0.0666666666666667,0.733333333333333,3327.050836958,3327.851103,13,3327.117690541,3327.1800675,3327.870007375,3328.596727833,1,0.800266041999748
134,15,19,categorization,0,bathroom,SHINEd_sun_afcoljnjfoxjtgja.tif,20,0.0666666666666667,0.0666666666666667,1.5,3328.612960375,3329.423693458,13,3328.677636375,3328.737112166,3329.438923208,3330.9323065,1,0.810733082999832
134,16,19,categorization,0,kitchen,SHINEd_sun_ajkqhtgcbgpcwrwn.tif,97,0.0666666666666667,0.0666666666666667,0.8,3330.950370458,3331.954965166,9,3331.016774125,3331.082787083,3331.97202125,3332.765364041,1,1.00459470799979
134,17,19,categorization,0,kitchen,SHINEd_sun_abpwyqmlzafvklqo.tif,72,0.0666666666666667,0.0666666666666667,0.95,3332.770899041,3334.016365458,13,3332.832655333,3332.893543791,3334.029294541,3334.972633791,0,1.24546641699999
134,18,19,categorization,0,kitchen,SHINEd_sun_aymvwlarqodbwuoc.tif,108,0.0666666666666667,0.0666666666666667,1.1,3334.978070416,3335.783709791,9,3335.039907458,3335.100637125,3335.803011916,3336.896389583,1,0.805639375000283
134,19,19,categorization,0,bathroom,SHINEd_sun_alkosphxlxwjwgjd.tif,34,0.0666666666666667,0.0666666666666667,1.63333333333333,3336.904881208,3337.629655458,13,3336.96986275,3337.037322791,3337.642888583,3339.269597041,1,0.724774249999882
134,20,19,categorization,0,bathroom,SHINEd_sun_acegryoqftbzowsg.tif,17,0.0666666666666667,0.0666666666666667,1.71666666666667,3339.279974708,3339.992599333,9,3339.344670541,3339.412280708,3340.018870791,3341.728903291,0,0.712624624999989
134,21,19,categorization,0,kitchen,SHINEd_sun_aegoxogugdkwpmpj.tif,80,0.0666666666666667,0.0666666666666667,1.43333333333333,3341.747638208,3342.410411833,13,3341.813749291,3341.88034125,3342.436729333,3343.863431916,0,0.662773625000227
134,22,19,categorization,0,bathroom,SHINEd_sun_aghyqhbptboemmoq.tif,23,0.0666666666666667,0.0666666666666667,0.966666666666667,3343.880820791,3344.5278025,13,3343.947134041,3344.013883625,3344.554348708,3345.514399708,1,0.646981708999647
134,23,19,categorization,0,bathroom,SHINEd_sun_axldvoqbuvuggfmq.tif,57,0.0666666666666667,0.0666666666666667,1.61666666666667,3345.527967083,3346.064512666,9,3345.590448041,3345.650618208,3346.069355,3347.679403416,0,0.536545583000134
134,24,19,categorization,0,kitchen,SHINEd_labelme_kxvouciolcpqplr.tif,62,0.0666666666666667,0.0666666666666667,0.866666666666667,3347.693828541,3348.48239225,13,3347.760188958,3347.826379708,3348.499156291,3349.359160208,0,0.788563708999845
134,25,19,categorization,0,bathroom,SHINEd_sun_atstyziqcmkahyxk.tif,51,0.0666666666666667,0.0666666666666667,1.25,3349.36572425,3350.007969208,13,3349.427529666,3349.488455375,3350.023644666,3351.267017833,1,0.642244957999992
134,26,19,categorization,0,kitchen,SHINEd_sun_avszsnwsbuqfgzbn.tif,105,0.0666666666666667,0.0666666666666667,0.716666666666667,3351.276522833,3351.954206541,9,3351.341130208,3351.409502875,3351.982385,3352.692425791,1,0.677683708000131
134,27,19,categorization,0,bathroom,SHINEd_sun_ahaulkltgpkeeemi.tif,26,0.0666666666666667,0.0666666666666667,1.71666666666667,3352.7055535,3353.712134875,13,3352.772156666,3352.838012875,3353.723352916,3355.433389,1,1.00658137500022
134,28,19,categorization,0,kitchen,SHINEd_sun_acgtpgfybqjmzeyw.tif,75,0.0666666666666667,0.0666666666666667,1.31666666666667,3355.4509035,3356.233155,9,3355.517790666,3355.583354125,3356.256568125,3357.566612208,1,0.782251499999802
134,29,19,categorization,0,kitchen,SHINEd_sun_acwjdupvyjsugpay.tif,76,0.0666666666666667,0.0666666666666667,0.9,3357.584151416,3358.400638833,13,3357.650924,3357.716815208,3358.423425416,3359.316794875,0,0.816487416999735
134,30,19,categorization,0,kitchen,SHINEd_sun_aapllqyqlykszopd.tif,66,0.0666666666666667,0.0666666666666667,1,3359.327642875,3359.912011625,9,3359.390564,3359.450927041,3359.919596708,3360.912936916,1,0.584368750000067
134,31,19,categorization,0,bathroom,SHINEd_sun_aoybiabnpadelefl.tif,41,0.0666666666666667,0.0666666666666667,1.15,3360.918747708,3361.903698333,13,3360.9805085,3361.041551958,3361.910009625,3363.05338225,1,0.984950625000238
134,32,19,categorization,0,bathroom,SHINEd_sun_agguqiubmwhqqunb.tif,22,0.0666666666666667,0.0666666666666667,1.55,3363.062316416,3363.754272375,13,3363.128583791,3363.192368833,3363.782182916,3365.325572958,1,0.691955958999642
134,33,19,categorization,0,kitchen,SHINEd_sun_aqeaevwwwjoqhzvl.tif,101,0.0666666666666667,0.0666666666666667,1.13333333333333,3365.336871333,3366.037596958,9,3365.403472958,3365.469198625,3366.059126875,3367.185827583,1,0.700725624999905
134,34,19,categorization,0,kitchen,SHINEd_sun_aeqdocilnnpuvuhx.tif,83,0.0666666666666667,0.0666666666666667,1.35,3367.195089583,3368.178872625,9,3367.259930125,3367.326213625,3368.199329875,3369.542708208,1,0.983783042000141
134,35,19,categorization,0,kitchen,SHINEd_sun_aarfiyshqohlwkmo.tif,67,0.0666666666666667,0.0666666666666667,0.7,3369.559385166,3370.404810916,13,3369.6270105,3369.692787125,3370.433126916,3371.126505916,0,0.845425749999777
134,36,19,categorization,0,kitchen,SHINEd_sun_ahdycvpopffkzzsu.tif,90,0.0666666666666667,0.0666666666666667,0.916666666666667,3371.136045666,3372.023842625,9,3371.200364791,3371.267500125,3372.036836958,3372.946842208,1,0.887796958999843
134,37,19,categorization,0,bathroom,SHINEd_sun_apjevzvycyhuqghb.tif,43,0.0666666666666667,0.0666666666666667,1.38333333333333,3372.95254375,3373.599623166,9,3373.014209083,3373.075185666,3373.610703458,3374.98742,0,0.647079415999997
134,38,19,categorization,0,kitchen,SHINEd_sun_ahspylgoovwmwvgk.tif,93,0.0666666666666667,0.0666666666666667,1.98333333333333,3375.004609541,3375.72475525,9,3375.070811875,3375.132995916,3375.738498125,3377.71521075,1,0.720145709000008
134,39,19,categorization,0,bathroom,SHINEd_sun_acduarbnmmoglmiv.tif,16,0.0666666666666667,0.0666666666666667,1.21666666666667,3377.73368925,3378.413779875,13,3377.800026,3377.866340208,3378.439908125,3379.649943375,1,0.680090624999593
134,40,19,categorization,0,bathroom,SHINEd_sun_avhrdrntsqrjzccq.tif,55,0.0666666666666667,0.0666666666666667,0.883333333333333,3379.667007583,3380.501174708,13,3379.733738708,3379.799939625,3380.523296083,3381.400016666,1,0.834167124999567
134,41,19,categorization,0,bathroom,SHINEd_sun_aljolscmmzydegqp.tif,33,0.0666666666666667,0.0666666666666667,1.36666666666667,3381.416910916,3382.455888416,13,3381.484108583,3381.542875,3382.462004583,3383.822041708,1,1.03897750000033
134,42,19,categorization,0,bathroom,SHINEd_sun_ambriybtogmepttm.tif,36,0.0666666666666667,0.0666666666666667,1.78333333333333,3383.839446833,3384.536147083,9,3383.905707166,3383.972089041,3384.562095208,3386.338796708,0,0.696700250000049
134,43,19,categorization,0,kitchen,SHINEd_sun_abftihopvusyfakt.tif,71,0.0666666666666667,0.0666666666666667,1.53333333333333,3386.349880625,3387.144124583,13,3386.416836416,3386.483005708,3387.153973291,3388.680696041,0,0.794243958000152
134,44,19,categorization,0,bathroom,SHINEd_sun_apynckhmoftszqoq.tif,47,0.0666666666666667,0.0666666666666667,0.8,3388.701666291,3389.353162916,13,3388.768357875,3388.834409,3389.374097583,3390.167477583,1,0.651496625000163
134,45,19,categorization,0,bathroom,SHINEd_sun_ahqjwnzgolcaoidx.tif,29,0.0666666666666667,0.0666666666666667,1,3390.182463708,3390.839510916,9,3390.245092625,3390.305110916,3390.857062333,3391.850402666,0,0.657047208000222
134,46,19,categorization,0,kitchen,SHINEd_sun_axyyrmzcupyhlivc.tif,107,0.0666666666666667,0.0666666666666667,1.01666666666667,3391.855921,3392.647571875,9,3391.917535291,3391.978588791,3392.663647625,3393.673686875,1,0.791650874999959
134,47,19,categorization,0,bathroom,SHINEd_sun_aqrpegblszgcoujh.tif,48,0.0666666666666667,0.0666666666666667,1.83333333333333,3393.683146666,3394.595116375,13,3393.747805833,3393.81474825,3394.62119475,3396.447897625,1,0.911969709000005
134,48,19,categorization,0,bathroom,SHINEd_labelme_sfxiulhjbhlyiyt.tif,11,0.0666666666666667,0.0666666666666667,1.03333333333333,3396.469789166,3397.344325208,13,3396.536321125,3396.602865916,3397.358810791,3398.385529083,1,0.874536042000273
134,49,19,categorization,0,bathroom,SHINEd_sun_asfwthctfqerjvxr.tif,49,0.0666666666666667,0.0666666666666667,1.16666666666667,3398.400062166,3399.178167583,9,3398.465347416,3398.531242666,3399.202837416,3400.362876,0,0.778105416999551
134,50,19,categorization,0,kitchen,SHINEd_sun_aaxxjlsuzvqlgylf.tif,68,0.0666666666666667,0.0666666666666667,1,3400.380739291,3401.247879125,9,3400.443534541,3400.503379,3401.255213125,3402.248553125,1,0.867139834000227
