sub_num,trial,block,task,is_practice,category,image,texture,duration,mask_dur,jitter,stim_time,time_of_resp,trial_response,mask_time,fix_time,jit_onset,trial_end,trial_accuracy,RT
134,1,8,categorization,0,kitchen,SHINEd_sun_aggjlwcdjsjcaemh.tif,86,0.0666666666666667,0.0666666666666667,1.18333333333333,1798.947191541,1799.854135458,13,1799.009696041,1799.070054583,1799.871805791,1801.048527375,0,0.906943917000035
134,2,8,categorization,0,kitchen,SHINEd_labelme_brsyyvweiuaazfr.tif,61,0.0666666666666667,0.0666666666666667,0.983333333333333,1801.0585065,1801.839806125,9,1801.125521083,1801.186497125,1801.859614833,1802.836320833,1,0.781299624999974
134,3,8,categorization,0,kitchen,SHINEd_sun_abdxkyyxwfskuaqb.tif,70,0.0666666666666667,0.0666666666666667,1.65,1802.852013416,1803.974119833,13,1802.918594583,1802.977841291,1803.980237125,1805.623617166,0,1.12210641699994
134,4,8,categorization,0,bathroom,SHINEd_sun_acduarbnmmoglmiv.tif,16,0.0666666666666667,0.0666666666666667,1.23333333333333,1805.642509583,1806.690388333,9,1805.709111916,1805.775281958,1806.71400175,1807.940732541,0,1.04787875000011
134,5,8,categorization,0,bathroom,SHINEd_sun_anryaplzeujmzfkd.tif,39,0.0666666666666667,0.0666666666666667,0.916666666666667,1807.958118416,1808.684087833,9,1808.024803333,1808.090754625,1808.713950166,1809.623984625,0,0.725969416999988
134,6,8,categorization,0,bathroom,SHINEd_sun_agrwbmhcpmfuwmsg.tif,24,0.0666666666666667,0.0666666666666667,1.56666666666667,1809.64124425,1810.462250833,9,1809.707768291,1809.773272833,1810.475198875,1812.035232583,0,0.821006583000099
134,7,8,categorization,0,bathroom,SHINEd_sun_aggnnqpdorgxpvce.tif,21,0.0666666666666667,0.0666666666666667,1.63333333333333,1812.052549083,1812.970326041,13,1812.119095291,1812.185155416,1812.99208575,1814.618808083,1,0.917776957999877
134,8,8,categorization,0,bathroom,SHINEd_sun_abjtwfukuwddzted.tif,15,0.0666666666666667,0.0666666666666667,1.1,1814.635847666,1815.502997541,13,1814.702307958,1814.768577666,1815.525642083,1816.619008291,1,0.867149874999996
134,9,8,categorization,0,bathroom,SHINEd_sun_axyrejkiiaqiurjk.tif,59,0.0666666666666667,0.0666666666666667,1.38333333333333,1816.6293335,1817.815019125,9,1816.694352833,1816.762214916,1817.835257166,1819.211963791,0,1.18568562499991
134,10,8,categorization,0,bathroom,SHINEd_sun_apmqjbnwghzuhhzh.tif,46,0.0666666666666667,0.0666666666666667,0.766666666666667,1819.224911541,1820.261696333,13,1819.294724541,1819.364001875,1820.2874745,1821.047479208,1,1.03678479199993
134,11,8,categorization,0,kitchen,SHINEd_sun_aarfiyshqohlwkmo.tif,67,0.0666666666666667,0.0666666666666667,1.45,1821.053503375,1821.742305416,9,1821.115332916,1821.176236666,1821.761713916,1823.205082291,1,0.688802040999917
134,12,8,categorization,0,kitchen,SHINEd_sun_ahpczsiumwwocjkv.tif,92,0.0666666666666667,0.0666666666666667,0.983333333333333,1823.214376625,1824.191668833,9,1823.2797275,1823.345799041,1824.218517333,1825.195192083,1,0.977292207999881
134,13,8,categorization,0,bathroom,SHINEd_sun_amzlamotzwfkwjco.tif,37,0.0666666666666667,0.0666666666666667,0.716666666666667,1825.199932791,1826.414161916,13,1825.26175025,1825.322569208,1826.425046416,1827.135051375,1,1.21422912499997
134,14,8,categorization,0,kitchen,SHINEd_sun_auticobqsbwgoppi.tif,104,0.0666666666666667,0.0666666666666667,1.41666666666667,1827.139795583,1828.133818583,13,1827.201519666,1827.262395083,1828.148001625,1829.558036708,0,0.99402299999997
134,15,8,categorization,0,bathroom,SHINEd_sun_acgyywnybuveqsro.tif,18,0.0666666666666667,0.0666666666666667,1.21666666666667,1829.574944541,1830.362474291,9,1829.641506583,1829.707548625,1830.379570708,1831.589615125,0,0.787529749999976
134,16,8,categorization,0,bathroom,SHINEd_sun_agyqfjcfkdcydepw.tif,25,0.0666666666666667,0.0666666666666667,1.61666666666667,1831.607984375,1832.713015583,13,1831.674689083,1831.740623333,1832.729293666,1834.3393355,1,1.10503120800013
134,17,8,categorization,0,bathroom,SHINEd_sun_ahijqszoswveeyji.tif,28,0.0666666666666667,0.0666666666666667,0.783333333333333,1834.354776041,1835.230915708,13,1834.420912833,1834.488500416,1835.242832833,1836.019507791,1,0.876139667000189
134,18,8,categorization,0,kitchen,SHINEd_sun_agzzivivdpnawacl.tif,89,0.0666666666666667,0.0666666666666667,1.98333333333333,1836.024874291,1836.846101833,13,1836.086537916,1836.147570416,1836.849585708,1838.826300708,0,0.82122754199986
134,19,8,categorization,0,bathroom,SHINEd_sun_alkosphxlxwjwgjd.tif,34,0.0666666666666667,0.0666666666666667,0.983333333333333,1838.843916416,1839.563794625,9,1838.910237833,1838.976687083,1839.583137958,1840.559810375,0,0.719878208999944
134,20,8,categorization,0,bathroom,SHINEd_sun_asfwthctfqerjvxr.tif,49,0.0666666666666667,0.0666666666666667,0.8,1840.565557125,1841.39002175,9,1840.627128583,1840.688205708,1841.406864541,1842.200202958,0,0.824464625000019
134,21,8,categorization,0,bathroom,SHINEd_sun_ausgutylgojavyoq.tif,53,0.0666666666666667,0.0666666666666667,0.733333333333333,1842.2065045,1843.50962475,13,1842.268171666,1842.329094708,1843.514648666,1844.241321958,1,1.30312025000012
134,22,8,categorization,0,bathroom,SHINEd_sun_apynckhmoftszqoq.tif,47,0.0666666666666667,0.0666666666666667,0.966666666666667,1844.246666833,1845.253745041,13,1844.308292958,1844.369367833,1845.27136625,1846.231371916,1,1.00707820799994
134,23,8,categorization,0,bathroom,SHINEd_sun_aljolscmmzydegqp.tif,33,0.0666666666666667,0.0666666666666667,0.866666666666667,1846.236949458,1847.414396333,13,1846.29865,1846.35954875,1847.428292541,1848.288297583,1,1.17744687499999
134,24,8,categorization,0,kitchen,SHINEd_sun_aymvwlarqodbwuoc.tif,108,0.0666666666666667,0.0666666666666667,1.23333333333333,1848.292821833,1849.150293833,9,1848.354601291,1848.415413041,1849.167225083,1850.393945875,1,0.857471999999916
134,25,8,categorization,0,bathroom,SHINEd_sun_akiytfaagpdsphgz.tif,31,0.0666666666666667,0.0666666666666667,1.9,1850.409766125,1851.753905958,13,1850.476170916,1850.542580083,1851.783971958,1853.677345625,1,1.34413983299987
134,26,8,categorization,0,kitchen,SHINEd_sun_axyyrmzcupyhlivc.tif,107,0.0666666666666667,0.0666666666666667,0.866666666666667,1853.692038791,1854.561058208,9,1853.758068291,1853.825481041,1854.581826333,1855.441831958,1,0.869019417000118
134,27,8,categorization,0,kitchen,SHINEd_sun_aqeaevwwwjoqhzvl.tif,101,0.0666666666666667,0.0666666666666667,0.966666666666667,1855.447032,1856.253684416,13,1855.508776583,1855.569750875,1856.272141458,1857.232147791,0,0.806652415999906
134,28,8,categorization,0,kitchen,SHINEd_sun_aegoxogugdkwpmpj.tif,80,0.0666666666666667,0.0666666666666667,0.916666666666667,1857.236767708,1858.070183583,9,1857.298456875,1857.35950475,1858.078075208,1858.988082708,1,0.833415875000128
134,29,8,categorization,0,bathroom,SHINEd_sun_aunuadmjocsddsrl.tif,52,0.0666666666666667,0.0666666666666667,0.916666666666667,1858.993720833,1859.8944715,9,1859.055440208,1859.116340375,1859.901808458,1860.811815625,0,0.900750667000011
134,30,8,categorization,0,kitchen,SHINEd_sun_acgtpgfybqjmzeyw.tif,75,0.0666666666666667,0.0666666666666667,1.4,1860.817226625,1861.534278166,9,1860.878917,1860.93998075,1861.541695458,1862.935084541,1,0.717051540999819
134,31,8,categorization,0,kitchen,SHINEd_sun_abrcnpqqhmjwekyf.tif,73,0.0666666666666667,0.0666666666666667,1.75,1862.952356791,1863.703713166,9,1863.018475666,1863.0824045,1863.721501166,1865.464868291,1,0.751356374999887
134,32,8,categorization,0,bathroom,SHINEd_sun_apkxzenqapsujocq.tif,45,0.0666666666666667,0.0666666666666667,1.25,1865.482845958,1866.127723458,13,1865.5492895,1865.61554825,1866.155361833,1867.3987285,1,0.644877499999893
134,33,8,categorization,0,kitchen,SHINEd_sun_aaxxjlsuzvqlgylf.tif,68,0.0666666666666667,0.0666666666666667,1.05,1867.416698,1868.062406166,9,1867.483038708,1867.549467,1868.08929475,1869.132649166,1,0.645708166000077
134,34,8,categorization,0,kitchen,SHINEd_sun_akchetnepxlcxhsu.tif,98,0.0666666666666667,0.0666666666666667,1.06666666666667,1869.14297225,1869.838242583,13,1869.205795583,1869.265868041,1869.851019916,1870.911057166,0,0.695270333000053
134,35,8,categorization,0,bathroom,SHINEd_sun_alotolagknyrgtsk.tif,35,0.0666666666666667,0.0666666666666667,1.21666666666667,1870.920541625,1871.555935583,9,1870.985120041,1871.051842583,1871.574488541,1872.784528041,0,0.635393958000122
134,36,8,categorization,0,bathroom,SHINEd_sun_axxbkopsgyouuebh.tif,58,0.0666666666666667,0.0666666666666667,0.95,1872.800873333,1873.630382166,13,1872.866930375,1872.933270625,1873.635502791,1874.578842166,1,0.829508832999863
134,37,8,categorization,0,kitchen,SHINEd_labelme_kxvouciolcpqplr.tif,62,0.0666666666666667,0.0666666666666667,0.9,1874.584319083,1875.406378125,9,1874.646056,1874.706912083,1875.42537725,1876.318715208,1,0.822059041999864
134,38,8,categorization,0,kitchen,SHINEd_sun_aunzlwrbjumxhwdj.tif,103,0.0666666666666667,0.0666666666666667,1.78333333333333,1876.324249,1877.16637025,9,1876.385951208,1876.446775166,1877.181805583,1878.958521916,1,0.842121249999991
134,39,8,categorization,0,kitchen,SHINEd_sun_admlmbcdswaszruo.tif,79,0.0666666666666667,0.0666666666666667,1.16666666666667,1878.975262166,1879.750100791,13,1879.041413375,1879.108408041,1879.764012875,1880.924046833,0,0.774838625000029
134,40,8,categorization,0,kitchen,SHINEd_sun_ajkqhtgcbgpcwrwn.tif,97,0.0666666666666667,0.0666666666666667,0.783333333333333,1880.933030916,1881.712719708,9,1880.999385166,1881.065884916,1881.739388875,1882.516098583,1,0.779688791999888
134,41,8,categorization,0,bathroom,SHINEd_sun_atstyziqcmkahyxk.tif,51,0.0666666666666667,0.0666666666666667,1.23333333333333,1882.532109958,1883.206336333,13,1882.5988,1882.664537041,1883.216442333,1884.443159833,1,0.674226374999989
134,42,8,categorization,0,kitchen,SHINEd_sun_aenotlpyftoioydp.tif,82,0.0666666666666667,0.0666666666666667,0.9,1884.459535666,1885.099984791,9,1884.525965125,1884.5922765,1885.11422875,1886.00760475,1,0.640449125000032
134,43,8,categorization,0,kitchen,SHINEd_sun_aeqdocilnnpuvuhx.tif,83,0.0666666666666667,0.0666666666666667,0.7,1886.024231583,1886.886321875,9,1886.091141791,1886.156792208,1886.892513625,1887.5858545,1,0.862090291999948
134,44,8,categorization,0,kitchen,SHINEd_sun_acxkpeoqbwcxfvip.tif,77,0.0666666666666667,0.0666666666666667,1.23333333333333,1887.590621458,1888.325487625,13,1887.652266666,1887.713242375,1888.331651875,1889.558362458,0,0.734866167000064
134,45,8,categorization,0,bathroom,SHINEd_sun_aofnryafpsjimzsb.tif,40,0.0666666666666667,0.0666666666666667,1,1889.57491625,1890.280266833,9,1889.6399545,1889.707548,1890.29662275,1891.289980291,0,0.705350583000154
134,46,8,categorization,0,bathroom,SHINEd_sun_apeeialkgkuxddgh.tif,42,0.0666666666666667,0.0666666666666667,1.38333333333333,1891.299649083,1891.845820333,13,1891.36359675,1891.423404791,1891.858683291,1893.235378416,1,0.546171249999816
134,47,8,categorization,0,bathroom,SHINEd_sun_abapwbhyhkfixyex.tif,14,0.0666666666666667,0.0666666666666667,1.3,1893.245038333,1893.960298333,9,1893.309339833,1893.377515791,1893.983649416,1895.27702925,0,0.715260000000171
134,48,8,categorization,0,kitchen,SHINEd_sun_ahspylgoovwmwvgk.tif,93,0.0666666666666667,0.0666666666666667,0.833333333333333,1895.290895,1895.971021208,9,1895.357680416,1895.423810833,1895.996477708,1896.823199375,1,0.68012620799982
134,49,8,categorization,0,kitchen,SHINEd_sun_aixorpehvfykdynp.tif,95,0.0666666666666667,0.0666666666666667,0.95,1896.838641083,1897.670422416,9,1896.908481166,1896.971121791,1897.689848833,1898.633186708,1,0.831781332999981
134,50,8,categorization,0,kitchen,SHINEd_sun_azmutvzbxypaceni.tif,110,0.0666666666666667,0.0666666666666667,1.43333333333333,1898.63969475,1899.453789791,13,1898.701519791,1898.762320125,1899.464187125,1900.890909416,0,0.814095040999973
