sub_num,trial,block,task,is_practice,category,image,texture,duration,mask_dur,jitter,stim_time,time_of_resp,trial_response,mask_time,fix_time,jit_onset,trial_end,trial_accuracy,RT
134,1,17,categorization,0,bathroom,SHINEd_sun_avhrdrntsqrjzccq.tif,55,0.0666666666666667,0.0666666666666667,0.9,2992.29214425,2993.136936083,13,2992.354550166,2992.414833083,2993.150121541,2994.043460916,1,0.844791832999817
134,2,17,categorization,0,kitchen,SHINEd_sun_aymvwlarqodbwuoc.tif,108,0.0666666666666667,0.0666666666666667,1.65,2994.04845975,2994.632927375,13,2994.110330375,2994.171113875,2994.639808958,2996.2831765,0,0.584467624999888
134,3,17,categorization,0,kitchen,SHINEd_sun_abrcnpqqhmjwekyf.tif,73,0.0666666666666667,0.0666666666666667,1.18333333333333,2996.302030958,2997.067338833,9,2996.368550375,2996.435043291,2997.092463416,2998.269164333,1,0.765307874999962
134,4,17,categorization,0,bathroom,SHINEd_sun_aavhrsfjbserjtht.tif,13,0.0666666666666667,0.0666666666666667,1.18333333333333,2998.278677375,2998.702971083,13,2998.345408416,2998.411485625,2998.717322041,2999.894035541,1,0.424293708000278
134,5,17,categorization,0,bathroom,SHINEd_sun_ausgutylgojavyoq.tif,53,0.0666666666666667,0.0666666666666667,0.766666666666667,2999.910577041,3000.569813083,13,2999.977235875,3000.04334675,3000.579396166,3001.339400125,1,0.659236041999975
134,6,17,categorization,0,bathroom,SHINEd_sun_alkosphxlxwjwgjd.tif,34,0.0666666666666667,0.0666666666666667,1.1,3001.344124291,3002.57770225,13,3001.405756583,3001.466849916,3002.58542425,3003.678814791,1,1.23357795900029
134,7,17,categorization,0,bathroom,SHINEd_sun_apkruvsevgegsdwp.tif,44,0.0666666666666667,0.0666666666666667,1.98333333333333,3003.687565375,3004.427735708,13,3003.753036541,3003.820123041,3004.442867166,3006.419572041,1,0.740170333000151
134,8,17,categorization,0,kitchen,SHINEd_sun_akcjzhbbjlbogpdi.tif,99,0.0666666666666667,0.0666666666666667,0.8,3006.436291458,3007.849155625,9,3006.502445125,3006.5687865,3007.854796083,3008.64813575,1,1.41286416699995
134,9,17,categorization,0,kitchen,SHINEd_sun_adgqasybjyktddhj.tif,78,0.0666666666666667,0.0666666666666667,1.68333333333333,3008.653469375,3009.305314583,9,3008.715224541,3008.77606,3009.311169291,3010.9878895,1,0.651845207999941
134,10,17,categorization,0,bathroom,SHINEd_sun_auzqhkafidnkrwmo.tif,54,0.0666666666666667,0.0666666666666667,1.73333333333333,3011.004818708,3011.643507541,13,3011.071350458,3011.133147458,3011.673141291,3013.399843083,1,0.638688832999833
134,11,17,categorization,0,kitchen,SHINEd_labelme_brsyyvweiuaazfr.tif,61,0.0666666666666667,0.0666666666666667,0.766666666666667,3013.419100875,3014.081119916,9,3013.485804333,3013.551639916,3014.108367541,3014.868373125,1,0.662019040999894
134,12,17,categorization,0,bathroom,SHINEd_sun_anryaplzeujmzfkd.tif,39,0.0666666666666667,0.0666666666666667,1.43333333333333,3014.874049041,3015.729600708,9,3014.935785,3014.996869708,3015.748951875,3017.175672916,0,0.855551666999872
134,13,17,categorization,0,bathroom,SHINEd_sun_apjevzvycyhuqghb.tif,43,0.0666666666666667,0.0666666666666667,0.7,3017.185546,3018.066441791,13,3017.249991916,3017.313173583,3018.08577425,3018.7791555,1,0.880895791000057
134,14,17,categorization,0,kitchen,SHINEd_sun_aarfiyshqohlwkmo.tif,67,0.0666666666666667,0.0666666666666667,1.01666666666667,3018.794863125,3019.617372166,9,3018.857504375,3018.9177025,3019.636278416,3020.646332708,1,0.822509041000103
134,15,17,categorization,0,bathroom,SHINEd_sun_aspsyogrekjtfozg.tif,50,0.0666666666666667,0.0666666666666667,1.71666666666667,3020.655475375,3021.410379791,13,3020.72030425,3020.786592583,3021.425563916,3023.1355825,1,0.754904416000045
134,16,17,categorization,0,kitchen,SHINEd_sun_aypmqwcualkenuoe.tif,109,0.0666666666666667,0.0666666666666667,1.73333333333333,3023.144476583,3023.88260275,9,3023.209980041,3023.273793958,3023.895537125,3025.622259875,1,0.738126166999791
134,17,17,categorization,0,kitchen,SHINEd_sun_abdenxonkemggwsq.tif,69,0.0666666666666667,0.0666666666666667,1.93333333333333,3025.637050041,3026.38922525,13,3025.70358125,3025.769552,3026.408931791,3028.335652125,0,0.752175209000143
134,18,17,categorization,0,bathroom,SHINEd_sun_aghyqhbptboemmoq.tif,23,0.0666666666666667,0.0666666666666667,1.1,3028.352129375,3029.184838583,9,3028.418898,3028.484847875,3029.208156,3030.301540375,0,0.832709207999869
134,19,17,categorization,0,kitchen,SHINEd_sun_agorklincwxrdtga.tif,87,0.0666666666666667,0.0666666666666667,0.933333333333333,3030.311509791,3031.024859291,9,3030.37707325,3030.444310458,3031.050949208,3031.977671125,1,0.713349500000277
134,20,17,categorization,0,bathroom,SHINEd_sun_ambriybtogmepttm.tif,36,0.0666666666666667,0.0666666666666667,1.16666666666667,3031.993110958,3033.137173,13,3032.059622166,3032.125886625,3033.144785333,3034.304822625,1,1.14406204199986
134,21,17,categorization,0,kitchen,SHINEd_sun_aehawpgmrlhlvcow.tif,81,0.0666666666666667,0.0666666666666667,1.08333333333333,3034.313985083,3035.54294,9,3034.381747583,3034.4465865,3035.569610375,3036.646331166,1,1.22895491700001
134,22,17,categorization,0,kitchen,SHINEd_sun_agubuxuukhzyzpdp.tif,88,0.0666666666666667,0.0666666666666667,1.36666666666667,3036.655515833,3037.195106333,13,3036.721136208,3036.788097166,3037.210252333,3038.570306583,0,0.539590499999576
134,23,17,categorization,0,kitchen,SHINEd_sun_ajcbwwvdlsvjyzje.tif,96,0.0666666666666667,0.0666666666666667,1.85,3038.583865791,3039.21752225,9,3038.646398041,3038.70660875,3039.2248895,3041.068277833,1,0.633656459000122
134,24,17,categorization,0,kitchen,SHINEd_sun_ajkqhtgcbgpcwrwn.tif,97,0.0666666666666667,0.0666666666666667,1.1,3041.08527325,3041.563159166,9,3041.149811291,3041.218089416,3041.591283958,3042.684657041,1,0.477885916000105
134,25,17,categorization,0,bathroom,SHINEd_sun_aapitsgbtktqubfy.tif,12,0.0666666666666667,0.0666666666666667,1.71666666666667,3042.693682916,3043.427590916,9,3042.758283083,3042.826332458,3043.449784125,3045.159815666,0,0.733908000000156
134,26,17,categorization,0,kitchen,SHINEd_sun_axyyrmzcupyhlivc.tif,107,0.0666666666666667,0.0666666666666667,1.6,3045.169709041,3046.200769125,13,3045.234179208,3045.300487208,3046.223633583,3047.81701925,0,1.03106008400027
134,27,17,categorization,0,kitchen,SHINEd_sun_akchetnepxlcxhsu.tif,98,0.0666666666666667,0.0666666666666667,0.85,3047.835881583,3048.673456583,9,3047.902228166,3047.968678125,3048.691581916,3049.534921875,1,0.837575000000015
134,28,17,categorization,0,bathroom,SHINEd_sun_azqyogdvyhahyram.tif,60,0.0666666666666667,0.0666666666666667,1.35,3049.54072925,3050.193295375,13,3049.602418333,3049.663394083,3050.198344458,3051.541710083,1,0.652566125000249
134,29,17,categorization,0,bathroom,SHINEd_sun_afcoljnjfoxjtgja.tif,20,0.0666666666666667,0.0666666666666667,1.65,3051.559355125,3052.381998208,9,3051.625908083,3051.692127,3052.398160333,3054.041549875,0,0.822643083000003
134,30,17,categorization,0,bathroom,SHINEd_sun_apkxzenqapsujocq.tif,45,0.0666666666666667,0.0666666666666667,1.35,3054.0587605,3054.663057583,13,3054.125288833,3054.191182333,3054.680381708,3056.023749875,1,0.604297082999892
134,31,17,categorization,0,kitchen,SHINEd_sun_aunzlwrbjumxhwdj.tif,103,0.0666666666666667,0.0666666666666667,1.63333333333333,3056.041361041,3056.689080916,9,3056.107981208,3056.173762458,3056.712375625,3058.3390935,1,0.647719874999893
134,32,17,categorization,0,bathroom,SHINEd_sun_agrwbmhcpmfuwmsg.tif,24,0.0666666666666667,0.0666666666666667,1.1,3058.356942958,3058.99005225,9,3058.423206166,3058.49009275,3059.012005791,3060.105398541,0,0.633109291999972
134,33,17,categorization,0,kitchen,SHINEd_sun_avszsnwsbuqfgzbn.tif,105,0.0666666666666667,0.0666666666666667,1.11666666666667,3060.117409708,3060.66470775,9,3060.182856291,3060.250446625,3060.691090541,3061.801141708,1,0.547298041999966
134,34,17,categorization,0,bathroom,SHINEd_sun_amzlamotzwfkwjco.tif,37,0.0666666666666667,0.0666666666666667,1.5,3061.818536958,3062.817501458,13,3061.884307041,3061.951881958,3062.837403333,3064.330787875,1,0.998964500000056
134,35,17,categorization,0,kitchen,SHINEd_sun_acgtpgfybqjmzeyw.tif,75,0.0666666666666667,0.0666666666666667,1.28333333333333,3064.348585041,3065.228031666,9,3064.415045458,3064.481387875,3065.253175916,3066.529898208,1,0.879446624999673
134,36,17,categorization,0,kitchen,SHINEd_sun_aexklacwqwezaorf.tif,84,0.0666666666666667,0.0666666666666667,1.7,3066.54520875,3067.392415708,9,3066.612913166,3066.677807958,3067.418462375,3069.111838208,1,0.847206958000243
134,37,17,categorization,0,kitchen,SHINEd_sun_aapllqyqlykszopd.tif,66,0.0666666666666667,0.0666666666666667,1.08333333333333,3069.127096041,3070.43482525,13,3069.19248925,3069.253967541,3070.46223025,3071.538948,0,1.30772920899972
134,38,17,categorization,0,kitchen,SHINEd_sun_ahpczsiumwwocjkv.tif,92,0.0666666666666667,0.0666666666666667,1.65,3071.548014625,3072.23113225,9,3071.612966458,3071.680458166,3072.253394208,3073.896781791,1,0.683117624999795
134,39,17,categorization,0,bathroom,SHINEd_sun_axldvoqbuvuggfmq.tif,57,0.0666666666666667,0.0666666666666667,1.31666666666667,3073.907972375,3074.657601916,9,3073.974790666,3074.040972208,3074.681351208,3075.991386958,0,0.749629541000104
134,40,17,categorization,0,kitchen,SHINEd_labelme_kxvouciolcpqplr.tif,62,0.0666666666666667,0.0666666666666667,0.95,3076.009485916,3076.739762166,9,3076.076150833,3076.142279458,3076.765871875,3077.709238833,1,0.730276250000315
134,41,17,categorization,0,kitchen,SHINEd_sun_awcpdzzznmweyyhv.tif,106,0.0666666666666667,0.0666666666666667,1.43333333333333,3077.721650916,3078.305409541,9,3077.784447833,3077.844547041,3078.313019208,3079.7397335,1,0.583758624999973
134,42,17,categorization,0,kitchen,SHINEd_sun_abpwyqmlzafvklqo.tif,72,0.0666666666666667,0.0666666666666667,1.66666666666667,3079.754800583,3080.7142825,9,3079.821314791,3079.887627541,3080.744094416,3082.404153791,1,0.959481917000176
134,43,17,categorization,0,bathroom,SHINEd_sun_agyqfjcfkdcydepw.tif,25,0.0666666666666667,0.0666666666666667,0.933333333333333,3082.420788666,3083.0895115,9,3082.4876545,3082.553531375,3083.109791125,3084.036463875,0,0.668722833999709
134,44,17,categorization,0,bathroom,SHINEd_sun_aofnryafpsjimzsb.tif,40,0.0666666666666667,0.0666666666666667,0.833333333333333,3084.042185333,3085.06501525,9,3084.103907,3084.164983166,3085.084121166,3085.910795375,0,1.02282991700031
134,45,17,categorization,0,kitchen,SHINEd_sun_ahspylgoovwmwvgk.tif,93,0.0666666666666667,0.0666666666666667,1.26666666666667,3085.916728708,3087.160547333,9,3085.978389625,3086.039364458,3087.17444675,3088.434494291,1,1.24381862500013
134,46,17,categorization,0,bathroom,SHINEd_sun_atstyziqcmkahyxk.tif,51,0.0666666666666667,0.0666666666666667,1.93333333333333,3088.452570083,3089.137996916,13,3088.518794458,3088.584791708,3089.156396708,3091.083118625,1,0.685426832999838
134,47,17,categorization,0,kitchen,SHINEd_sun_abftihopvusyfakt.tif,71,0.0666666666666667,0.0666666666666667,1.06666666666667,3091.102198,3091.840941708,9,3091.167044166,3091.231856875,3091.854107958,3092.914164125,1,0.738743708000129
134,48,17,categorization,0,bathroom,SHINEd_sun_ahqjwnzgolcaoidx.tif,29,0.0666666666666667,0.0666666666666667,0.766666666666667,3092.924719666,3093.472274083,9,3092.989410416,3093.055782833,3093.495814458,3094.255865958,0,0.547554416999901
134,49,17,categorization,0,kitchen,SHINEd_sun_ahljzhgcdpomplvg.tif,91,0.0666666666666667,0.0666666666666667,0.833333333333333,3094.272015583,3094.770888791,13,3094.338487041,3094.404487291,3094.79460525,3095.621276333,0,0.498873207999623
134,50,17,categorization,0,bathroom,SHINEd_sun_aunuadmjocsddsrl.tif,52,0.0666666666666667,0.0666666666666667,1.46666666666667,3095.626929166,3096.600465583,13,3095.688546333,3095.749625791,3096.618613166,3098.078649458,1,0.973536417000105
