sub_num,trial,block,task,is_practice,category,image,texture,duration,mask_dur,jitter,stim_time,time_of_resp,trial_response,mask_time,fix_time,jit_onset,trial_end,trial_accuracy,RT
134,1,13,categorization,0,kitchen,SHINEd_sun_aunzlwrbjumxhwdj.tif,103,0.0666666666666667,0.0666666666666667,0.933333333333333,2446.053771791,2447.011165625,13,2446.115913666,2446.176438625,2447.028820875,2447.95549275,0,0.957393833999959
134,2,13,categorization,0,kitchen,SHINEd_sun_aixorpehvfykdynp.tif,95,0.0666666666666667,0.0666666666666667,1.36666666666667,2447.960265625,2448.58779275,9,2448.021940625,2448.082954958,2448.601729833,2449.961767541,1,0.627527125000142
134,3,13,categorization,0,kitchen,SHINEd_sun_abdxkyyxwfskuaqb.tif,70,0.0666666666666667,0.0666666666666667,1.88333333333333,2449.9794,2450.609453208,9,2450.045921125,2450.111953,2450.6349765,2452.511676541,1,0.630053207999936
134,4,13,categorization,0,kitchen,SHINEd_sun_abdenxonkemggwsq.tif,69,0.0666666666666667,0.0666666666666667,1.35,2452.529769875,2453.375112208,9,2452.596164083,2452.662080208,2453.401243041,2454.744619291,1,0.845342332999735
134,5,13,categorization,0,kitchen,SHINEd_sun_aeqdocilnnpuvuhx.tif,83,0.0666666666666667,0.0666666666666667,1.3,2454.759677458,2455.58008025,13,2454.826966833,2454.892424875,2455.598601333,2456.891971916,0,0.820402791999641
134,6,13,categorization,0,kitchen,SHINEd_sun_ahpczsiumwwocjkv.tif,92,0.0666666666666667,0.0666666666666667,1.93333333333333,2456.911987583,2457.67025925,9,2456.978927,2457.045095125,2457.684515416,2459.611239916,1,0.758271666999917
134,7,13,categorization,0,bathroom,SHINEd_sun_apjevzvycyhuqghb.tif,43,0.0666666666666667,0.0666666666666667,0.95,2459.631244916,2460.536386208,13,2459.697989,2459.763583541,2460.553498416,2461.496836458,1,0.905141291999826
134,8,13,categorization,0,bathroom,SHINEd_sun_aghyqhbptboemmoq.tif,23,0.0666666666666667,0.0666666666666667,1.56666666666667,2461.502992666,2462.268019875,9,2461.564776791,2461.625693125,2462.277509375,2463.837563708,0,0.765027208999982
134,9,13,categorization,0,kitchen,SHINEd_sun_ajkqhtgcbgpcwrwn.tif,97,0.0666666666666667,0.0666666666666667,1.3,2463.8550615,2465.324713791,13,2463.921533125,2463.986124833,2465.342596916,2466.635981458,0,1.46965229099987
134,10,13,categorization,0,bathroom,SHINEd_sun_ahqjwnzgolcaoidx.tif,29,0.0666666666666667,0.0666666666666667,1.3,2466.64852075,2467.446331541,13,2466.714770125,2466.7810345,2467.470790375,2468.764183125,1,0.797810790999847
134,11,13,categorization,0,bathroom,SHINEd_sun_aoybiabnpadelefl.tif,41,0.0666666666666667,0.0666666666666667,1.03333333333333,2468.779892958,2469.533340166,13,2468.846062916,2468.912701166,2469.552122791,2470.578833958,1,0.753447208000125
134,12,13,categorization,0,kitchen,SHINEd_sun_ahspylgoovwmwvgk.tif,93,0.0666666666666667,0.0666666666666667,1.93333333333333,2470.58877125,2471.355979375,9,2470.653301833,2470.72011625,2471.376010875,2473.302701416,1,0.767208125000252
134,13,13,categorization,0,kitchen,SHINEd_sun_auticobqsbwgoppi.tif,104,0.0666666666666667,0.0666666666666667,0.966666666666667,2473.313015333,2474.1317175,13,2473.379547166,2473.4456315,2474.152092208,2475.112099166,0,0.818702167000083
134,14,13,categorization,0,bathroom,SHINEd_sun_acegryoqftbzowsg.tif,17,0.0666666666666667,0.0666666666666667,0.916666666666667,2475.117749333,2475.827431083,9,2475.179419208,2475.240395208,2475.842415875,2476.7524215,0,0.709681750000072
134,15,13,categorization,0,bathroom,SHINEd_sun_aunuadmjocsddsrl.tif,52,0.0666666666666667,0.0666666666666667,1.3,2476.757176208,2477.963245458,13,2476.8188885,2476.879859708,2477.982383291,2479.275759375,1,1.20606924999993
134,16,13,categorization,0,kitchen,SHINEd_sun_abpwyqmlzafvklqo.tif,72,0.0666666666666667,0.0666666666666667,0.75,2479.287189791,2480.045485,9,2479.352298041,2479.419688583,2480.058545875,2480.801938125,1,0.758295209000153
134,17,13,categorization,0,bathroom,SHINEd_sun_agguqiubmwhqqunb.tif,22,0.0666666666666667,0.0666666666666667,1.03333333333333,2480.817809375,2481.843496416,9,2480.883992,2480.950397958,2481.852418416,2482.879124458,0,1.02568704100031
134,18,13,categorization,0,bathroom,SHINEd_sun_axldvoqbuvuggfmq.tif,57,0.0666666666666667,0.0666666666666667,1.28333333333333,2482.8873315,2483.5412135,13,2482.951260458,2483.018369958,2483.55703875,2484.833739166,1,0.653882000000067
134,19,13,categorization,0,bathroom,SHINEd_sun_aclfzgynxzxlbepz.tif,19,0.0666666666666667,0.0666666666666667,1.25,2484.850993833,2485.731615333,13,2484.917343333,2484.981025125,2485.749951416,2486.99331825,1,0.880621499999961
134,20,13,categorization,0,kitchen,SHINEd_sun_abrcnpqqhmjwekyf.tif,73,0.0666666666666667,0.0666666666666667,1.75,2487.009417333,2487.830711458,9,2487.07676725,2487.135688125,2487.858644166,2489.602015166,1,0.82129412500035
134,21,13,categorization,0,bathroom,SHINEd_sun_axxbkopsgyouuebh.tif,58,0.0666666666666667,0.0666666666666667,1.76666666666667,2489.621126208,2490.324279291,13,2489.687642333,2489.753426333,2490.342798958,2492.102841541,1,0.703153082999961
134,22,13,categorization,0,bathroom,SHINEd_sun_apkruvsevgegsdwp.tif,44,0.0666666666666667,0.0666666666666667,0.733333333333333,2492.121265166,2492.862570041,13,2492.187990958,2492.254003083,2492.876248833,2493.602919583,1,0.741304874999969
134,23,13,categorization,0,kitchen,SHINEd_sun_aamedkxepzlwuxes.tif,65,0.0666666666666667,0.0666666666666667,1.43333333333333,2493.608594625,2494.331463916,9,2493.670411833,2493.731278208,2494.349747125,2495.776463,1,0.722869290999824
134,24,13,categorization,0,bathroom,SHINEd_sun_avhrdrntsqrjzccq.tif,55,0.0666666666666667,0.0666666666666667,1.81666666666667,2495.793283208,2496.501576083,13,2495.859881,2495.925952,2496.514943625,2498.324999666,1,0.708292875000097
134,25,13,categorization,0,bathroom,SHINEd_sun_axyrejkiiaqiurjk.tif,59,0.0666666666666667,0.0666666666666667,0.95,2498.341448125,2499.076364375,9,2498.407888916,2498.473949291,2499.096895708,2500.040233333,0,0.734916249999969
134,26,13,categorization,0,bathroom,SHINEd_sun_akiytfaagpdsphgz.tif,31,0.0666666666666667,0.0666666666666667,0.783333333333333,2500.045882583,2500.867486166,13,2500.107571041,2500.168548958,2500.887416208,2501.664087458,1,0.821603583000069
134,27,13,categorization,0,kitchen,SHINEd_sun_aymvwlarqodbwuoc.tif,108,0.0666666666666667,0.0666666666666667,1.66666666666667,2501.669886416,2502.491235916,13,2501.73177575,2501.79293525,2502.495165708,2504.155209791,0,0.821349499999997
134,28,13,categorization,0,kitchen,SHINEd_sun_avszsnwsbuqfgzbn.tif,105,0.0666666666666667,0.0666666666666667,1.18333333333333,2504.16733675,2506.659324041,9,2504.233750541,2504.29977725,2506.669104875,2507.845822333,1,2.49198729100044
134,29,13,categorization,0,bathroom,SHINEd_sun_alotolagknyrgtsk.tif,35,0.0666666666666667,0.0666666666666667,1.58333333333333,2507.855284041,2508.519804375,13,2507.922094166,2507.987926541,2508.544550541,2510.121274041,1,0.664520334000372
134,30,13,categorization,0,kitchen,SHINEd_sun_aadbddgrdsjugojn.tif,64,0.0666666666666667,0.0666666666666667,1.1,2510.139100166,2510.855670083,9,2510.20560675,2510.272026291,2510.878605375,2511.971988833,1,0.716569917000015
134,31,13,categorization,0,kitchen,SHINEd_sun_aqeaevwwwjoqhzvl.tif,101,0.0666666666666667,0.0666666666666667,1.78333333333333,2511.980648833,2512.792089833,9,2512.045742,2512.11310325,2512.819607791,2514.596328166,1,0.811440999999832
134,32,13,categorization,0,kitchen,SHINEd_sun_amjjdeyrggfqgmom.tif,100,0.0666666666666667,0.0666666666666667,1.78333333333333,2514.612518791,2515.693957875,9,2514.678862541,2514.744977208,2515.718035583,2517.494740708,1,1.08143908399961
134,33,13,categorization,0,kitchen,SHINEd_sun_acxkpeoqbwcxfvip.tif,77,0.0666666666666667,0.0666666666666667,1.08333333333333,2517.511695166,2518.42282325,9,2517.578496666,2517.644569166,2518.451256,2519.52795775,1,0.911128083999756
134,34,13,categorization,0,kitchen,SHINEd_sun_ahdycvpopffkzzsu.tif,90,0.0666666666666667,0.0666666666666667,1.66666666666667,2519.53702375,2520.607579041,9,2519.601945833,2519.667944666,2520.624704166,2522.284751791,1,1.07055529099989
134,35,13,categorization,0,bathroom,SHINEd_sun_awnqiikzaispgmwo.tif,56,0.0666666666666667,0.0666666666666667,1.58333333333333,2522.3023245,2523.26957,13,2522.368846791,2522.436391083,2523.291953125,2524.868664,1,0.96724549999999
134,36,13,categorization,0,bathroom,SHINEd_sun_aapitsgbtktqubfy.tif,12,0.0666666666666667,0.0666666666666667,1.26666666666667,2524.887798208,2525.966875166,13,2524.954741916,2525.020640375,2525.994065333,2527.254124291,1,1.07907695800031
134,37,13,categorization,0,bathroom,SHINEd_sun_aofnryafpsjimzsb.tif,40,0.0666666666666667,0.0666666666666667,0.966666666666667,2527.264291708,2528.040952458,9,2527.32963125,2527.396969458,2528.070645291,2529.030685041,0,0.776660749999792
134,38,13,categorization,0,kitchen,SHINEd_sun_admlmbcdswaszruo.tif,79,0.0666666666666667,0.0666666666666667,0.9,2529.039519875,2529.787780208,9,2529.10143775,2529.162284208,2529.797516375,2530.690855208,1,0.748260332999962
134,39,13,categorization,0,bathroom,SHINEd_sun_acgyywnybuveqsro.tif,18,0.0666666666666667,0.0666666666666667,1.46666666666667,2530.695461958,2531.467599041,13,2530.757101708,2530.818084333,2531.486555916,2532.946600666,1,0.772137082999961
134,40,13,categorization,0,kitchen,SHINEd_sun_aarfiyshqohlwkmo.tif,67,0.0666666666666667,0.0666666666666667,1.5,2532.963733166,2533.851722833,9,2533.030056916,2533.091947083,2533.881700666,2535.375085208,1,0.887989667000056
134,41,13,categorization,0,kitchen,SHINEd_sun_acwjdupvyjsugpay.tif,76,0.0666666666666667,0.0666666666666667,0.716666666666667,2535.392012,2536.446968333,9,2535.4583375,2535.524396958,2536.463739166,2537.173746291,1,1.05495633300006
134,42,13,categorization,0,kitchen,SHINEd_sun_aypmqwcualkenuoe.tif,109,0.0666666666666667,0.0666666666666667,1.5,2537.178988208,2538.202987916,9,2537.240695125,2537.301627833,2538.220685541,2539.714058291,1,1.02399970799979
134,43,13,categorization,0,kitchen,SHINEd_sun_ajcbwwvdlsvjyzje.tif,96,0.0666666666666667,0.0666666666666667,0.866666666666667,2539.729565541,2540.348806708,13,2539.797360625,2539.862075,2540.368166708,2541.228198291,0,0.619241167000382
134,44,13,categorization,0,bathroom,SHINEd_sun_aljolscmmzydegqp.tif,33,0.0666666666666667,0.0666666666666667,0.933333333333333,2541.238942125,2541.778973208,13,2541.303694583,2541.363512625,2541.782071,2542.708743958,1,0.540031083000031
134,45,13,categorization,0,kitchen,SHINEd_sun_azmutvzbxypaceni.tif,110,0.0666666666666667,0.0666666666666667,1.55,2542.713531458,2543.395164916,13,2542.775171875,2542.836308541,2543.4048395,2544.948230083,0,0.681633457999851
134,46,13,categorization,0,bathroom,SHINEd_sun_anhioqovhscjqqwb.tif,38,0.0666666666666667,0.0666666666666667,1.3,2544.964898458,2545.640680666,13,2545.031075375,2545.097185666,2545.670197666,2546.963585208,1,0.675782208000328
134,47,13,categorization,0,bathroom,SHINEd_sun_apmqjbnwghzuhhzh.tif,46,0.0666666666666667,0.0666666666666667,1.78333333333333,2546.979323,2547.690478791,13,2547.045462666,2547.112041,2547.71862425,2549.495340791,1,0.711155790999783
134,48,13,categorization,0,bathroom,SHINEd_sun_acduarbnmmoglmiv.tif,16,0.0666666666666667,0.0666666666666667,1.8,2549.513637875,2550.160881875,13,2549.580352958,2549.6461375,2550.185445416,2551.978838458,1,0.647244000000228
134,49,13,categorization,0,kitchen,SHINEd_sun_acfmftudsenhrfhy.tif,74,0.0666666666666667,0.0666666666666667,0.816666666666667,2551.996582708,2552.748723416,9,2552.063135625,2552.129574166,2552.768625708,2553.578630333,1,0.752140707999843
134,50,13,categorization,0,bathroom,SHINEd_sun_aavhrsfjbserjtht.tif,13,0.0666666666666667,0.0666666666666667,0.966666666666667,2553.586809916,2554.275566541,9,2553.648631791,2553.709551875,2554.294936583,2555.254941416,0,0.688756624999769
