sub_num,trial,block,task,is_practice,category,image,texture,duration,mask_dur,jitter,stim_time,time_of_resp,trial_response,mask_time,fix_time,jit_onset,trial_end,trial_accuracy,RT
105,6,0,familiarity,1,kitchen,kitchen_practice2.tif,227,1.5,0,0.733333333333333,17620.004951708,17624.389021417,4,NaN,17624.395963,17624.414192625,17625.14087,NaN,NaN
105,7,0,familiarity,1,kitchen,kitchen_practice3.tif,228,1.5,0,1.3,17625.145816792,17629.388976958,5,NaN,17629.394834417,17629.413179792,17630.706559125,NaN,NaN
105,8,0,familiarity,1,kitchen,kitchen_practice1.tif,226,1.5,0,2,17630.726313208,17633.421137583,4,NaN,17633.426939,17633.44525775,17635.438673167,NaN,NaN
105,9,0,familiarity,1,kitchen,kitchen_practice5.tif,230,1.5,0,1.81666666666667,17635.458642417,17638.788585917,3,NaN,17638.79502675,17638.813259042,17640.623303833,NaN,NaN
105,10,0,familiarity,1,kitchen,kitchen_practice4.tif,229,1.5,0,0.75,17640.634999958,17643.47645075,4,NaN,17643.507013708,17643.530148792,17644.273489875,NaN,NaN
105,1,1,familiarity,0,kitchen,sun_acxkpeoqbwcxfvip.tif,187,1.5,0,0.866666666666667,17649.960081458,17653.018554,5,NaN,17653.049122875,17653.0711855,17653.931251042,NaN,NaN
105,2,1,familiarity,0,kitchen,sun_aggjlwcdjsjcaemh.tif,196,1.5,0,1.01666666666667,17653.936448833,17656.814312917,2,NaN,17656.845280292,17656.869335458,17657.879362708,NaN,NaN
105,3,1,familiarity,0,kitchen,sun_agorklincwxrdtga.tif,197,1.5,0,1.78333333333333,17657.888704875,17660.509577458,3,NaN,17660.515351875,17660.533743042,17662.310478,NaN,NaN
105,4,1,familiarity,0,kitchen,sun_aadbddgrdsjugojn.tif,174,1.5,0,1.85,17662.330158583,17665.430946417,2,NaN,17665.461231625,17665.484013958,17667.327411,NaN,NaN
105,5,1,familiarity,0,kitchen,sun_ahdycvpopffkzzsu.tif,200,1.5,0,1.83333333333333,17667.344525458,17670.884946917,1,NaN,17670.890989208,17670.90922725,17672.735956833,NaN,NaN
105,6,1,familiarity,0,kitchen,sun_ahljzhgcdpomplvg.tif,201,1.5,0,1.56666666666667,17672.754033042,17675.536442875,2,NaN,17675.567062042,17675.590724667,17677.15078775,NaN,NaN
105,7,1,familiarity,0,kitchen,sun_agzzivivdpnawacl.tif,199,1.5,0,1.31666666666667,17677.168559958,17680.3730905,3,NaN,17680.378757458,17680.397064708,17681.707122375,NaN,NaN
105,8,1,familiarity,0,kitchen,sun_ahspylgoovwmwvgk.tif,203,1.5,0,1.75,17681.721260875,17684.724735667,4,NaN,17684.730826875,17684.7492,17686.492604458,NaN,NaN
105,9,1,familiarity,0,kitchen,sun_azmutvzbxypaceni.tif,220,1.5,0,1.9,17686.511348792,17690.420789208,3,NaN,17690.426731958,17690.445110833,17692.338518,NaN,NaN
105,10,1,familiarity,0,kitchen,sun_agubuxuukhzyzpdp.tif,198,1.5,0,1.76666666666667,17692.359123375,17695.512778833,5,NaN,17695.540627708,17695.563910292,17697.323996583,NaN,NaN
105,11,1,familiarity,0,kitchen,labelme_kxvouciolcpqplr.tif,172,1.5,0,1.05,17697.342642458,17700.496827167,2,NaN,17700.525779583,17700.549442792,17701.592831125,NaN,NaN
105,12,1,familiarity,0,kitchen,labelme_brsyyvweiuaazfr.tif,171,1.5,0,1.58333333333333,17701.603870458,17704.428561917,2,NaN,17704.434693625,17704.453079708,17706.029823042,NaN,NaN
105,13,1,familiarity,0,kitchen,sun_aegoxogugdkwpmpj.tif,190,1.5,0,0.983333333333333,17706.047932958,17708.926527875,3,NaN,17708.957221833,17708.980664792,17709.957341417,NaN,NaN
105,14,1,familiarity,0,kitchen,sun_adgqasybjyktddhj.tif,188,1.5,0,0.733333333333333,17709.961922667,17713.030753792,2,NaN,17713.04161725,17713.060685458,17713.787360292,NaN,NaN
105,15,1,familiarity,0,kitchen,sun_akchetnepxlcxhsu.tif,208,1.5,0,1.13333333333333,17713.79205,17716.845876417,2,NaN,17716.876337083,17716.899842792,17718.026563083,NaN,NaN
105,16,1,familiarity,0,kitchen,sun_acgtpgfybqjmzeyw.tif,185,1.5,0,1.58333333333333,17718.03579775,17721.58025375,2,NaN,17721.5864245,17721.604888417,17723.181614333,NaN,NaN
105,17,1,familiarity,0,kitchen,sun_abrcnpqqhmjwekyf.tif,183,1.5,0,0.783333333333333,17723.199090875,17725.989081042,3,NaN,17725.994748208,17726.013117375,17726.789790083,NaN,NaN
105,18,1,familiarity,0,kitchen,sun_aapllqyqlykszopd.tif,176,1.5,0,0.8,17726.794144625,17730.076793167,4,NaN,17730.082595625,17730.100902583,17730.894243083,NaN,NaN
105,19,1,familiarity,0,kitchen,sun_aymvwlarqodbwuoc.tif,218,1.5,0,1.7,17730.898603167,17734.220551042,5,NaN,17734.226426417,17734.244823667,17735.938254833,NaN,NaN
105,20,1,familiarity,0,kitchen,sun_abftihopvusyfakt.tif,181,1.5,0,1.48333333333333,17735.959820542,17739.066604583,5,NaN,17739.097053292,17739.120462458,17740.597176917,NaN,NaN
105,21,1,familiarity,0,kitchen,sun_acwjdupvyjsugpay.tif,186,1.5,0,0.966666666666667,17740.609019917,17743.804052125,3,NaN,17743.813948667,17743.832419875,17744.792428375,NaN,NaN
105,22,1,familiarity,0,kitchen,sun_aexklacwqwezaorf.tif,194,1.5,0,1.28333333333333,17744.79660675,17747.606117333,7,NaN,17747.636818458,17747.659973917,17748.93670475,NaN,NaN
105,23,1,familiarity,0,kitchen,sun_auaiucuqpdausiva.tif,212,1.5,0,0.783333333333333,17748.955239875,17752.300977667,7,NaN,17752.30683775,17752.325185375,17753.101860542,NaN,NaN
105,24,1,familiarity,0,kitchen,sun_aamedkxepzlwuxes.tif,175,1.5,0,1.36666666666667,17753.106300792,17755.984372042,3,NaN,17756.011319,17756.034611458,17757.3946915,NaN,NaN
105,25,1,familiarity,0,kitchen,labelme_rykdqxenmhulbdn.tif,173,1.5,0,1.45,17757.414676708,17760.365138458,2,NaN,17760.370968167,17760.389118333,17761.83255125,NaN,NaN
105,1,2,familiarity,0,kitchen,sun_ajcbwwvdlsvjyzje.tif,206,1.5,0,1.81666666666667,17766.124620042,17769.588989542,3,NaN,17769.594712208,17769.613053708,17771.423152833,NaN,NaN
105,2,2,familiarity,0,kitchen,sun_aypmqwcualkenuoe.tif,219,1.5,0,0.816666666666667,17771.437575,17774.837052917,3,NaN,17774.842747417,17774.861068167,17775.67107675,NaN,NaN
105,3,2,familiarity,0,kitchen,sun_ahpczsiumwwocjkv.tif,202,1.5,0,0.9,17775.687314375,17778.35206975,4,NaN,17778.382936875,17778.406706125,17779.300048083,NaN,NaN
105,4,2,familiarity,0,kitchen,sun_acfmftudsenhrfhy.tif,184,1.5,0,0.933333333333333,17779.305745458,17782.23433525,3,NaN,17782.264885833,17782.288309125,17783.214985542,NaN,NaN
105,5,2,familiarity,0,kitchen,sun_afuyedyxivkhecmu.tif,195,1.5,0,1.48333333333333,17783.219819917,17786.596061042,2,NaN,17786.602464708,17786.620799708,17788.097562,NaN,NaN
105,6,2,familiarity,0,kitchen,sun_axyyrmzcupyhlivc.tif,217,1.5,0,1.48333333333333,17788.116267042,17792.932588458,3,NaN,17792.938420583,17792.956694292,17794.433432667,NaN,NaN
105,7,2,familiarity,0,kitchen,sun_aenotlpyftoioydp.tif,192,1.5,0,1.43333333333333,17794.449611667,17797.324861208,1,NaN,17797.330668625,17797.348968708,17798.775712167,NaN,NaN
105,8,2,familiarity,0,kitchen,sun_avszsnwsbuqfgzbn.tif,215,1.5,0,0.733333333333333,17798.794300458,17802.012529125,6,NaN,17802.018336292,17802.036672458,17802.763348792,NaN,NaN
105,9,2,familiarity,0,kitchen,sun_abpwyqmlzafvklqo.tif,182,1.5,0,0.966666666666667,17802.76775525,17806.1961755,2,NaN,17806.202283583,17806.221040417,17807.181047875,NaN,NaN
105,10,2,familiarity,0,kitchen,sun_aixorpehvfykdynp.tif,205,1.5,0,0.916666666666667,17807.185951958,17810.444423333,3,NaN,17810.450370167,17810.468800667,17811.378809708,NaN,NaN
105,11,2,familiarity,0,kitchen,sun_abdxkyyxwfskuaqb.tif,180,1.5,0,1.03333333333333,17811.383211125,17814.605019,3,NaN,17814.610928792,17814.629314875,17815.656061,NaN,NaN
105,12,2,familiarity,0,kitchen,sun_abdenxonkemggwsq.tif,179,1.5,0,0.733333333333333,17815.667299167,17818.524424625,5,NaN,17818.530289167,17818.548640125,17819.275315042,NaN,NaN
105,13,2,familiarity,0,kitchen,sun_aehawpgmrlhlvcow.tif,191,1.5,0,1.13333333333333,17819.279612833,17822.564036625,7,NaN,17822.570204,17822.589415792,17823.716176417,NaN,NaN
105,14,2,familiarity,0,kitchen,sun_ajkqhtgcbgpcwrwn.tif,207,1.5,0,0.883333333333333,17823.726714167,17826.49199775,3,NaN,17826.498154375,17826.51661725,17827.393289583,NaN,NaN
105,15,2,familiarity,0,kitchen,sun_aarfiyshqohlwkmo.tif,177,1.5,0,1.85,17827.397697875,17830.355334625,5,NaN,17830.385565458,17830.408922917,17832.25233575,NaN,NaN
105,16,2,familiarity,0,kitchen,sun_aeqdocilnnpuvuhx.tif,193,1.5,0,0.733333333333333,17832.266732125,17835.182135167,6,NaN,17835.206600583,17835.230266167,17835.95694225,NaN,NaN
105,17,2,familiarity,0,kitchen,sun_aqeaevwwwjoqhzvl.tif,211,1.5,0,1.95,17835.961817417,17838.756681875,4,NaN,17838.787196333,17838.810059625,17840.753465375,NaN,NaN
105,18,2,familiarity,0,kitchen,sun_auticobqsbwgoppi.tif,214,1.5,0,1.1,17840.776303917,17843.627781792,2,NaN,17843.658145958,17843.68202475,17844.775450958,NaN,NaN
105,19,2,familiarity,0,kitchen,sun_aaxxjlsuzvqlgylf.tif,178,1.5,0,1.31666666666667,17844.784596833,17847.900616917,3,NaN,17847.906551208,17847.924904958,17849.234972875,NaN,NaN
105,20,2,familiarity,0,kitchen,sun_amjjdeyrggfqgmom.tif,210,1.5,0,1.78333333333333,17849.254638542,17852.060743375,7,NaN,17852.066491208,17852.084815625,17853.861538667,NaN,NaN
105,21,2,familiarity,0,kitchen,sun_aunzlwrbjumxhwdj.tif,213,1.5,0,1.33333333333333,17853.879883375,17857.212020583,2,NaN,17857.218861292,17857.237295042,17858.56402775,NaN,NaN
105,22,2,familiarity,0,kitchen,sun_awcpdzzznmweyyhv.tif,216,1.5,0,0.95,17858.575985917,17861.259689958,6,NaN,17861.265977875,17861.284357125,17862.227697125,NaN,NaN
105,23,2,familiarity,0,kitchen,sun_akcjzhbbjlbogpdi.tif,209,1.5,0,1.93333333333333,17862.231870958,17865.491893167,3,NaN,17865.498028042,17865.516442792,17867.443187167,NaN,NaN
105,24,2,familiarity,0,kitchen,sun_ahywdevtimnqcsln.tif,204,1.5,0,1.28333333333333,17867.46190725,17870.347058375,3,NaN,17870.37808225,17870.401352,17871.678120875,NaN,NaN
105,25,2,familiarity,0,kitchen,sun_admlmbcdswaszruo.tif,189,1.5,0,1.43333333333333,17871.696973583,17875.140347583,4,NaN,17875.146037792,17875.164403,17876.591143667,NaN,NaN
