sub_num,trial,block,task,is_practice,category,image,texture,duration,mask_dur,jitter,stim_time,time_of_resp,trial_response,mask_time,fix_time,jit_onset,trial_end,trial_accuracy,RT
104,1,0,categorization,1,kitchen,SHINEd_kitchen_practice2.tif,117,0.0666666666666667,0.0666666666666667,1.21666666666667,333.373166916,337.707659708,9,333.43959925,333.499518083,337.737253291,338.947503666,1,4.33449279199999
104,2,0,categorization,1,kitchen,SHINEd_kitchen_practice3.tif,118,0.0666666666666667,0.0666666666666667,1.36666666666667,338.9958005,340.406067,13,339.068915166,339.130572916,340.461462791,341.821678333,0,1.41026650000003
104,3,0,categorization,1,kitchen,SHINEd_kitchen_practice1.tif,116,0.0666666666666667,0.0666666666666667,1.85,341.873982208,343.808759208,9,341.961395166,342.009403416,343.829023458,345.67252525,1,1.93477700000005
104,4,0,categorization,1,bathroom,SHINEd_bathroom_practice2.tif,112,0.0666666666666667,0.0666666666666667,1.55,345.69843425,347.880719375,9,345.767947708,345.831681166,347.901449291,349.444951,0,2.18228512500002
104,5,0,categorization,1,kitchen,SHINEd_kitchen_practice4.tif,119,0.0666666666666667,0.0666666666666667,1.48333333333333,349.474416125,351.368453166,13,349.547197291,349.608584666,351.378769833,352.856242083,0,1.89403704099999
104,6,0,categorization,1,bathroom,SHINEd_bathroom_practice5.tif,115,0.0666666666666667,0.0666666666666667,1.15,352.882596583,355.561552208,13,352.952735333,353.016510958,355.569332708,356.712844333,1,2.67895562500001
104,7,0,categorization,1,kitchen,SHINEd_kitchen_practice5.tif,120,0.0666666666666667,0.0666666666666667,0.733333333333333,356.723111708,359.064811458,13,356.790628708,356.857345458,359.076911333,359.803585,0,2.34169975000003
104,8,0,categorization,1,bathroom,SHINEd_bathroom_practice1.tif,111,0.0666666666666667,0.0666666666666667,1.6,359.809141166,361.313417291,13,359.870945166,359.931940666,361.317908708,362.911281375,1,1.50427612499999
104,9,0,categorization,1,bathroom,SHINEd_bathroom_practice3.tif,113,0.0666666666666667,0.0666666666666667,0.716666666666667,362.932094208,363.85525825,13,362.999060083,363.065201625,363.870814125,364.58081925,1,0.923164041999996
104,10,0,categorization,1,bathroom,SHINEd_bathroom_practice4.tif,114,0.0666666666666667,0.0666666666666667,1.21666666666667,364.588150291,365.416376375,13,364.649924125,364.711017416,365.429804083,366.639846416,1,0.82822608400005
104,1,0,categorization,1,kitchen,SHINEd_kitchen_practice2.tif,117,0.0666666666666667,0.0666666666666667,1.21666666666667,384.511467875,386.129441791,9,384.573918833,384.634728375,386.136929791,387.346970208,1,1.61797391599998
104,2,0,categorization,1,kitchen,SHINEd_kitchen_practice3.tif,118,0.0666666666666667,0.0666666666666667,1.36666666666667,387.362548041,388.732741958,9,387.430853458,387.495557916,388.755125,390.115155916,1,1.37019391699999
104,3,0,categorization,1,kitchen,SHINEd_kitchen_practice1.tif,116,0.0666666666666667,0.0666666666666667,1.85,390.131044375,391.223290375,13,390.19765575,390.264361625,391.237159083,393.080544291,0,1.09224599999999
104,4,0,categorization,1,bathroom,SHINEd_bathroom_practice2.tif,112,0.0666666666666667,0.0666666666666667,1.55,393.096632041,394.737229833,9,393.163474958,393.229576083,394.748776875,396.292130541,0,1.64059779199999
104,5,0,categorization,1,kitchen,SHINEd_kitchen_practice4.tif,119,0.0666666666666667,0.0666666666666667,1.48333333333333,396.301242125,397.127948875,13,396.3663445,396.433993041,397.157156291,398.633858833,0,0.826706750000028
104,6,0,categorization,1,bathroom,SHINEd_bathroom_practice5.tif,115,0.0666666666666667,0.0666666666666667,1.15,398.651875958,400.197574,13,398.718307166,398.784696833,400.231067583,401.374446,1,1.54569804199997
104,7,0,categorization,1,kitchen,SHINEd_kitchen_practice5.tif,120,0.0666666666666667,0.0666666666666667,0.733333333333333,401.388274416,402.265127375,13,401.453073541,401.521722583,402.294035041,403.02073925,0,0.876852959000018
104,8,0,categorization,1,bathroom,SHINEd_bathroom_practice1.tif,111,0.0666666666666667,0.0666666666666667,1.6,403.031243458,403.712196541,13,403.098485541,403.164657916,403.717059041,405.310440291,1,0.68095308300002
104,9,0,categorization,1,bathroom,SHINEd_bathroom_practice3.tif,113,0.0666666666666667,0.0666666666666667,0.716666666666667,405.328864708,406.076032416,13,405.395724333,405.462042541,406.101806333,406.81185575,1,0.747167707999949
104,10,0,categorization,1,bathroom,SHINEd_bathroom_practice4.tif,114,0.0666666666666667,0.0666666666666667,1.21666666666667,406.818834958,408.648810583,13,406.880759166,406.941655583,408.660829291,409.870868875,1,1.82997562499997
104,1,0,categorization,1,kitchen,SHINEd_kitchen_practice2.tif,117,0.0666666666666667,0.0666666666666667,1.21666666666667,437.875284833,440.0084695,9,437.937602166,437.998203875,440.016985708,441.227029833,1,2.13318466699997
104,2,0,categorization,1,kitchen,SHINEd_kitchen_practice3.tif,118,0.0666666666666667,0.0666666666666667,1.36666666666667,441.24412075,442.2539355,9,441.310692083,441.377576958,442.284421333,443.644475041,1,1.00981475000003
104,3,0,categorization,1,kitchen,SHINEd_kitchen_practice1.tif,116,0.0666666666666667,0.0666666666666667,1.85,443.662617791,445.0530265,13,443.729149666,443.795729625,445.070826125,446.914197916,0,1.39040870899998
104,4,0,categorization,1,bathroom,SHINEd_bathroom_practice2.tif,112,0.0666666666666667,0.0666666666666667,1.55,446.930903708,447.912478791,13,446.99778475,447.064232291,447.937446083,449.480821916,1,0.981575082999996
104,5,0,categorization,1,kitchen,SHINEd_kitchen_practice4.tif,119,0.0666666666666667,0.0666666666666667,1.48333333333333,449.497204875,450.633601,13,449.563503666,449.6315035,450.654628541,452.13133675,0,1.13639612499998
104,6,0,categorization,1,bathroom,SHINEd_bathroom_practice5.tif,115,0.0666666666666667,0.0666666666666667,1.15,452.1473715,453.669601083,9,452.214150875,452.280037666,453.688321458,454.83170725,0,1.52222958299996
104,7,0,categorization,1,kitchen,SHINEd_kitchen_practice5.tif,120,0.0666666666666667,0.0666666666666667,0.733333333333333,454.843339083,455.862419833,9,454.909971166,454.97649175,455.88330675,456.61001875,1,1.01908075
104,8,0,categorization,1,bathroom,SHINEd_bathroom_practice1.tif,111,0.0666666666666667,0.0666666666666667,1.6,456.625857,457.368622458,13,456.692598208,456.751562041,457.386909458,458.980299208,1,0.742765458000008
104,9,0,categorization,1,bathroom,SHINEd_bathroom_practice3.tif,113,0.0666666666666667,0.0666666666666667,0.716666666666667,458.997556,459.706052208,13,459.064118041,459.130846208,459.719588,460.429629375,1,0.708496208000042
104,10,0,categorization,1,bathroom,SHINEd_bathroom_practice4.tif,114,0.0666666666666667,0.0666666666666667,1.21666666666667,460.440683041,461.136173625,13,460.504880708,460.564762708,461.15051625,462.360564458,1,0.695490584000027
104,1,1,categorization,0,kitchen,SHINEd_sun_adgqasybjyktddhj.tif,78,0.0666666666666667,0.0666666666666667,1.23333333333333,478.982771,480.008930791,9,479.045282958,479.105834875,480.02500475,481.251718,1,1.026159791
104,2,1,categorization,0,kitchen,SHINEd_sun_ajkqhtgcbgpcwrwn.tif,97,0.0666666666666667,0.0666666666666667,0.783333333333333,481.268788041,482.529900458,13,481.336035041,481.401897291,482.561955875,483.338627583,0,1.26111241699999
104,3,1,categorization,0,bathroom,SHINEd_sun_agguqiubmwhqqunb.tif,22,0.0666666666666667,0.0666666666666667,0.75,483.344217333,484.680550166,13,483.40588925,483.467010875,484.68579,485.429129041,1,1.33633283299997
104,4,1,categorization,0,bathroom,SHINEd_sun_apjevzvycyhuqghb.tif,43,0.0666666666666667,0.0666666666666667,1.23333333333333,485.434473416,487.312350208,13,485.4961155,485.557334583,487.32634825,488.553059875,1,1.877876792
104,5,1,categorization,0,bathroom,SHINEd_sun_apmqjbnwghzuhhzh.tif,46,0.0666666666666667,0.0666666666666667,1.13333333333333,488.569692875,489.809977458,13,488.637592041,488.702768791,489.824628,490.951349833,1,1.240284583
104,6,1,categorization,0,kitchen,SHINEd_sun_aenotlpyftoioydp.tif,82,0.0666666666666667,0.0666666666666667,0.95,490.962369583,491.7779205,9,491.02716925,491.095157833,491.801739333,492.745106083,1,0.815550916999996
104,7,1,categorization,0,kitchen,SHINEd_labelme_kxvouciolcpqplr.tif,62,0.0666666666666667,0.0666666666666667,0.733333333333333,492.758308875,493.712023166,9,492.824917916,492.891385375,493.727387541,494.45406,1,0.953714290999983
104,8,1,categorization,0,bathroom,SHINEd_sun_auzqhkafidnkrwmo.tif,54,0.0666666666666667,0.0666666666666667,1.31666666666667,494.458870333,495.232040375,9,494.520610583,494.581693125,495.250721291,496.560758708,0,0.773170042000004
104,9,1,categorization,0,kitchen,SHINEd_sun_aapllqyqlykszopd.tif,66,0.0666666666666667,0.0666666666666667,0.8,496.577507375,497.682141666,9,496.64412625,496.71100575,497.700103,498.493441625,1,1.10463429100002
104,10,1,categorization,0,bathroom,SHINEd_sun_apeeialkgkuxddgh.tif,42,0.0666666666666667,0.0666666666666667,0.716666666666667,498.4988455,499.54441425,13,498.560614833,498.621738875,499.55721625,500.267222875,1,1.04556874999997
104,11,1,categorization,0,kitchen,SHINEd_sun_ahspylgoovwmwvgk.tif,93,0.0666666666666667,0.0666666666666667,0.916666666666667,500.272713083,501.192835333,9,500.334616458,500.395459208,501.1978205,502.107825208,1,0.92012225000002
104,12,1,categorization,0,bathroom,SHINEd_sun_apkruvsevgegsdwp.tif,44,0.0666666666666667,0.0666666666666667,0.95,502.1132245,503.016236375,9,502.175177041,502.235833416,503.021141541,503.964478875,0,0.903011875000004
104,13,1,categorization,0,kitchen,SHINEd_labelme_rykdqxenmhulbdn.tif,63,0.0666666666666667,0.0666666666666667,0.833333333333333,503.970537,505.312676666,13,504.032290958,504.093282083,505.329122,506.155794291,0,1.34213966600004
104,14,1,categorization,0,bathroom,SHINEd_sun_akiytfaagpdsphgz.tif,31,0.0666666666666667,0.0666666666666667,0.75,506.161141583,507.480918208,9,506.222828541,506.283911125,507.486238666,508.229576791,0,1.31977662499997
104,15,1,categorization,0,kitchen,SHINEd_sun_aaxxjlsuzvqlgylf.tif,68,0.0666666666666667,0.0666666666666667,1.53333333333333,508.2341285,509.079988291,9,508.295983708,508.356896833,509.092152625,510.618868833,1,0.845859791000009
104,16,1,categorization,0,kitchen,SHINEd_sun_auaiucuqpdausiva.tif,102,0.0666666666666667,0.0666666666666667,1.05,510.639594916,511.74776975,9,510.705906708,510.772568791,511.761373,512.804744041,1,1.10817483399995
104,17,1,categorization,0,bathroom,SHINEd_labelme_sfxiulhjbhlyiyt.tif,11,0.0666666666666667,0.0666666666666667,0.9,512.815548541,513.561410541,13,512.880138875,512.947570875,513.5874085,514.480795,1,0.745861999999988
104,18,1,categorization,0,kitchen,SHINEd_sun_axyyrmzcupyhlivc.tif,107,0.0666666666666667,0.0666666666666667,1.18333333333333,514.496013333,515.600389416,13,514.562739708,514.628985,515.614763625,516.791470583,0,1.10437608300003
104,19,1,categorization,0,bathroom,SHINEd_sun_ahqjwnzgolcaoidx.tif,29,0.0666666666666667,0.0666666666666667,0.9,516.801614291,517.51648175,13,516.868074875,516.934543,517.540646416,518.434027083,1,0.714867459000061
104,20,1,categorization,0,bathroom,SHINEd_sun_abjtwfukuwddzted.tif,15,0.0666666666666667,0.0666666666666667,1.66666666666667,518.450147125,520.208482458,13,518.516400166,518.582992458,520.218625958,521.878670416,1,1.7583353330001
104,21,1,categorization,0,kitchen,SHINEd_sun_aeqdocilnnpuvuhx.tif,83,0.0666666666666667,0.0666666666666667,1.13333333333333,521.896216541,523.069436916,9,521.962907083,522.02943225,523.08529925,524.212017833,1,1.17322037500003
104,22,1,categorization,0,bathroom,SHINEd_sun_apkxzenqapsujocq.tif,45,0.0666666666666667,0.0666666666666667,1.3,524.222838625,525.043853833,13,524.287682125,524.351506416,525.056936416,526.350301791,1,0.821015207999949
104,23,1,categorization,0,kitchen,SHINEd_sun_aixorpehvfykdynp.tif,95,0.0666666666666667,0.0666666666666667,1.93333333333333,526.361141666,527.780740416,9,526.427935958,526.494132833,527.802462541,529.729169083,1,1.41959874999998
104,24,1,categorization,0,bathroom,SHINEd_sun_anryaplzeujmzfkd.tif,39,0.0666666666666667,0.0666666666666667,1,529.746267583,531.968106166,9,529.81276975,529.87920675,531.981804291,532.97514425,0,2.22183858300002
104,25,1,categorization,0,kitchen,SHINEd_sun_aunzlwrbjumxhwdj.tif,103,0.0666666666666667,0.0666666666666667,0.883333333333333,532.9806705,534.207826916,9,533.042414791,533.103469708,534.2226285,535.099299166,1,1.22715641600007
104,26,1,categorization,0,bathroom,SHINEd_sun_aofnryafpsjimzsb.tif,40,0.0666666666666667,0.0666666666666667,1.95,535.103811791,536.560685708,13,535.165668875,535.226675791,536.578897875,538.522282791,1,1.45687391700005
104,27,1,categorization,0,bathroom,SHINEd_sun_aapitsgbtktqubfy.tif,12,0.0666666666666667,0.0666666666666667,1.25,538.539516916,539.784048,13,538.606260791,538.672636583,539.791877541,541.035246583,1,1.24453108399996
104,28,1,categorization,0,bathroom,SHINEd_sun_axxbkopsgyouuebh.tif,58,0.0666666666666667,0.0666666666666667,1.95,541.05303325,541.738982,13,541.120141166,541.186534416,541.759553625,543.702928375,1,0.685948749999966
104,29,1,categorization,0,kitchen,SHINEd_sun_ahywdevtimnqcsln.tif,94,0.0666666666666667,0.0666666666666667,1.91666666666667,543.7219385,544.425492958,13,543.788625375,543.854940208,544.44489375,546.354934333,0,0.703554457999985
104,30,1,categorization,0,bathroom,SHINEd_sun_ahaulkltgpkeeemi.tif,26,0.0666666666666667,0.0666666666666667,1.41666666666667,546.365709833,548.184618416,13,546.432625041,546.498525458,548.20127575,549.6113165,1,1.81890858300005
104,31,1,categorization,0,bathroom,SHINEd_sun_anhioqovhscjqqwb.tif,38,0.0666666666666667,0.0666666666666667,0.716666666666667,549.628648541,551.488471625,13,549.695745333,549.761725708,551.497784291,552.207790375,1,1.85982308400003
104,32,1,categorization,0,kitchen,SHINEd_sun_akcjzhbbjlbogpdi.tif,99,0.0666666666666667,0.0666666666666667,1.28333333333333,552.213189166,553.184074125,9,552.274948375,552.33597,553.188285416,554.4649865,1,0.970884959000045
104,33,1,categorization,0,kitchen,SHINEd_sun_agubuxuukhzyzpdp.tif,88,0.0666666666666667,0.0666666666666667,0.9,554.483273916,555.136731708,9,554.55081275,554.616185333,555.154980791,556.048366708,1,0.653457791999926
104,34,1,categorization,0,kitchen,SHINEd_sun_ahpczsiumwwocjkv.tif,92,0.0666666666666667,0.0666666666666667,0.8,556.062656791,556.727970791,9,556.1292425,556.195305125,556.747737416,557.541076875,1,0.665313999999967
104,35,1,categorization,0,bathroom,SHINEd_sun_aspsyogrekjtfozg.tif,50,0.0666666666666667,0.0666666666666667,1.01666666666667,557.546787583,558.360091875,13,557.608535875,557.66966275,558.371270666,559.38131375,1,0.813304291999998
104,36,1,categorization,0,kitchen,SHINEd_sun_aypmqwcualkenuoe.tif,109,0.0666666666666667,0.0666666666666667,0.85,559.393466833,560.861463916,9,559.459176333,559.524975541,560.881190041,561.724529958,1,1.467997083
104,37,1,categorization,0,bathroom,SHINEd_sun_axyrejkiiaqiurjk.tif,59,0.0666666666666667,0.0666666666666667,1.51666666666667,561.730290041,562.967693083,13,561.79204675,561.853073916,562.972032375,564.482080916,1,1.23740304199998
104,38,1,categorization,0,bathroom,SHINEd_sun_abapwbhyhkfixyex.tif,14,0.0666666666666667,0.0666666666666667,1.83333333333333,564.497087791,565.591501291,9,564.563404,564.630104541,565.619214541,567.445913125,0,1.09441349999997
104,39,1,categorization,0,kitchen,SHINEd_sun_ajcbwwvdlsvjyzje.tif,96,0.0666666666666667,0.0666666666666667,0.716666666666667,567.463502125,569.07194,9,567.531251333,567.596433375,569.082222125,569.792227833,1,1.60843787500005
104,40,1,categorization,0,bathroom,SHINEd_sun_axldvoqbuvuggfmq.tif,57,0.0666666666666667,0.0666666666666667,0.9,569.797394708,570.655643166,9,569.859098916,569.9201845,570.672406291,571.565744916,0,0.858248458000048
104,41,1,categorization,0,kitchen,SHINEd_sun_avszsnwsbuqfgzbn.tif,105,0.0666666666666667,0.0666666666666667,0.916666666666667,571.571291791,572.656026416,9,571.6330355,571.694171541,572.662802166,573.572807458,1,1.08473462500001
104,42,1,categorization,0,bathroom,SHINEd_sun_ausgutylgojavyoq.tif,53,0.0666666666666667,0.0666666666666667,0.816666666666667,573.578314333,574.615948333,13,573.640071416,573.701277291,574.620041208,575.430045833,1,1.03763400000003
104,43,1,categorization,0,kitchen,SHINEd_sun_admlmbcdswaszruo.tif,79,0.0666666666666667,0.0666666666666667,1.88333333333333,575.436600083,577.239618,13,575.498317333,575.559438791,577.245333833,579.122052208,0,1.80301791699992
104,44,1,categorization,0,bathroom,SHINEd_sun_aghyqhbptboemmoq.tif,23,0.0666666666666667,0.0666666666666667,0.9,579.139939083,580.512365875,13,579.206367625,579.273012416,580.525681291,581.41902,1,1.37242679200006
104,45,1,categorization,0,kitchen,SHINEd_sun_aamedkxepzlwuxes.tif,65,0.0666666666666667,0.0666666666666667,1,581.424583583,582.439993125,9,581.486309,581.547463583,582.449222,583.442561875,1,1.01540954200004
104,46,1,categorization,0,kitchen,SHINEd_sun_aadbddgrdsjugojn.tif,64,0.0666666666666667,0.0666666666666667,0.733333333333333,583.448247916,584.647801041,9,583.509947666,583.571086,584.656490958,585.383162416,1,1.19955312499997
104,47,1,categorization,0,kitchen,SHINEd_sun_abdxkyyxwfskuaqb.tif,70,0.0666666666666667,0.0666666666666667,0.883333333333333,585.388684916,585.991708791,9,585.450426125,585.511461125,585.9968535,586.873524416,1,0.603023874999963
104,48,1,categorization,0,kitchen,SHINEd_sun_acfmftudsenhrfhy.tif,74,0.0666666666666667,0.0666666666666667,1.73333333333333,586.878266666,587.64804225,9,586.940013875,587.001193875,587.653575,589.380290583,1,0.769775584000058
104,49,1,categorization,0,bathroom,SHINEd_sun_acegryoqftbzowsg.tif,17,0.0666666666666667,0.0666666666666667,1.91666666666667,589.39721875,590.113940375,9,589.463588625,589.530481583,590.137335958,592.047383166,0,0.716721624999991
104,50,1,categorization,0,kitchen,SHINEd_sun_aggjlwcdjsjcaemh.tif,86,0.0666666666666667,0.0666666666666667,1.35,592.065994708,592.892145083,13,592.132637791,592.198811125,592.922310583,594.265689208,0,0.826150374999997
104,1,2,categorization,0,bathroom,SHINEd_sun_ahcvzmoyaycdoftf.tif,27,0.0666666666666667,0.0666666666666667,0.95,604.420985583,606.520112916,13,604.483560333,604.543794,606.529257125,607.472596583,1,2.09912733300007
104,2,2,categorization,0,kitchen,SHINEd_labelme_brsyyvweiuaazfr.tif,61,0.0666666666666667,0.0666666666666667,0.75,607.478242291,608.319521958,9,607.540050666,607.601250875,608.336354791,609.079693875,1,0.841279666999981
104,3,2,categorization,0,bathroom,SHINEd_sun_amzlamotzwfkwjco.tif,37,0.0666666666666667,0.0666666666666667,1.68333333333333,609.086814083,609.9043465,9,609.148521208,609.209617666,609.911996166,611.588712541,0,0.817532416999939
104,4,2,categorization,0,bathroom,SHINEd_sun_agyqfjcfkdcydepw.tif,25,0.0666666666666667,0.0666666666666667,0.816666666666667,611.605404458,612.586752375,9,611.671918333,611.7388535,612.611737416,613.421742083,0,0.981347916999994
104,5,2,categorization,0,kitchen,SHINEd_sun_abrcnpqqhmjwekyf.tif,73,0.0666666666666667,0.0666666666666667,0.916666666666667,613.426694958,614.383760125,9,613.488502541,613.549544083,614.401772416,615.3117765,1,0.957065166999996
104,6,2,categorization,0,bathroom,SHINEd_sun_aclfzgynxzxlbepz.tif,19,0.0666666666666667,0.0666666666666667,1.21666666666667,615.317408625,616.192424541,13,615.379031833,615.440305458,616.209447458,617.419484541,1,0.875015916000052
104,7,2,categorization,0,kitchen,SHINEd_sun_acwjdupvyjsugpay.tif,76,0.0666666666666667,0.0666666666666667,0.9,617.43779225,618.321340916,9,617.504428916,617.571133083,618.342535125,619.23592175,1,0.883548666000024
104,8,2,categorization,0,bathroom,SHINEd_sun_aoybiabnpadelefl.tif,41,0.0666666666666667,0.0666666666666667,1.65,619.252328583,619.999744875,9,619.318381125,619.376667083,620.0124345,621.655812625,0,0.747416292000025
104,9,2,categorization,0,kitchen,SHINEd_sun_abdenxonkemggwsq.tif,69,0.0666666666666667,0.0666666666666667,1.15,621.672895125,622.480731791,9,621.739449875,621.806359208,622.495626291,623.638996375,1,0.807836666000071
104,10,2,categorization,0,kitchen,SHINEd_sun_aexklacwqwezaorf.tif,84,0.0666666666666667,0.0666666666666667,1.13333333333333,623.649429875,624.821408875,9,623.715938,623.782273375,624.838213958,625.964916333,1,1.17197899999996
104,11,2,categorization,0,bathroom,SHINEd_sun_aggnnqpdorgxpvce.tif,21,0.0666666666666667,0.0666666666666667,1.76666666666667,625.976135083,627.48563675,9,626.041418666,626.104144041,627.513565583,629.273608541,0,1.50950166699999
104,12,2,categorization,0,bathroom,SHINEd_sun_aqrpegblszgcoujh.tif,48,0.0666666666666667,0.0666666666666667,1.8,629.291266583,629.968837458,13,629.358104541,629.424497458,629.997589333,631.790954125,1,0.677570875000015
104,13,2,categorization,0,bathroom,SHINEd_sun_atstyziqcmkahyxk.tif,51,0.0666666666666667,0.0666666666666667,0.9,631.807950166,632.505562625,13,631.874640625,631.941012583,632.530899833,633.424238291,1,0.697612459000084
104,14,2,categorization,0,kitchen,SHINEd_sun_agzzivivdpnawacl.tif,89,0.0666666666666667,0.0666666666666667,0.716666666666667,633.429910291,634.256208833,9,633.491654375,633.552853833,634.271548333,634.9815545,1,0.826298541999904
104,15,2,categorization,0,bathroom,SHINEd_sun_apynckhmoftszqoq.tif,47,0.0666666666666667,0.0666666666666667,1.36666666666667,634.98719125,636.159453125,9,635.048916333,635.110003708,636.179274958,637.539321,0,1.172261875
104,16,2,categorization,0,bathroom,SHINEd_sun_afcoljnjfoxjtgja.tif,20,0.0666666666666667,0.0666666666666667,0.916666666666667,637.55899975,638.63459725,13,637.626324,637.6924765,638.647359625,639.557364875,1,1.07559749999996
104,17,2,categorization,0,kitchen,SHINEd_sun_aehawpgmrlhlvcow.tif,81,0.0666666666666667,0.0666666666666667,0.716666666666667,639.563470625,641.031555916,9,639.625292791,639.686213708,641.038840041,641.748846166,1,1.46808529099997
104,18,2,categorization,0,bathroom,SHINEd_sun_aunuadmjocsddsrl.tif,52,0.0666666666666667,0.0666666666666667,0.766666666666667,641.75419025,642.535288833,9,641.815965166,641.877098416,642.545699541,643.305705,0,0.781098583000016
104,19,2,categorization,0,bathroom,SHINEd_sun_alkosphxlxwjwgjd.tif,34,0.0666666666666667,0.0666666666666667,1.06666666666667,643.311244166,644.263646,9,643.372945958,643.434057125,644.269863375,645.329912125,0,0.952401833999943
104,20,2,categorization,0,bathroom,SHINEd_sun_aleqenyvunhactkl.tif,32,0.0666666666666667,0.0666666666666667,0.8,645.339535,646.190993958,13,645.404840875,645.471208541,646.210125416,647.003504125,1,0.85145895800008
104,21,2,categorization,0,kitchen,SHINEd_sun_aymvwlarqodbwuoc.tif,108,0.0666666666666667,0.0666666666666667,0.866666666666667,647.019126958,647.648189125,13,647.085720291,647.152116875,647.654650708,648.514656625,0,0.629062167000029
104,22,2,categorization,0,kitchen,SHINEd_sun_abftihopvusyfakt.tif,71,0.0666666666666667,0.0666666666666667,1.48333333333333,648.51960325,649.536052375,13,648.5814755,648.642455125,649.544237916,651.020948625,0,1.01644912500001
104,23,2,categorization,0,bathroom,SHINEd_sun_aljolscmmzydegqp.tif,33,0.0666666666666667,0.0666666666666667,1.1,651.03812275,652.516252833,13,651.104809166,651.171554541,652.548639875,653.642004916,1,1.478130083
104,24,2,categorization,0,bathroom,SHINEd_sun_avhrdrntsqrjzccq.tif,55,0.0666666666666667,0.0666666666666667,0.783333333333333,653.65432825,654.80357525,9,653.719200166,653.787036166,654.829630083,655.606305083,0,1.14924699999995
104,25,2,categorization,0,kitchen,SHINEd_sun_azmutvzbxypaceni.tif,110,0.0666666666666667,0.0666666666666667,0.866666666666667,655.612021416,656.303663208,9,655.673795333,655.734920041,656.319910416,657.179915333,1,0.691641792000041
104,26,2,categorization,0,kitchen,SHINEd_sun_aarfiyshqohlwkmo.tif,67,0.0666666666666667,0.0666666666666667,1.83333333333333,657.186435541,658.111427791,9,657.248211958,657.309293916,658.1278055,659.954512083,1,0.924992249999946
104,27,2,categorization,0,kitchen,SHINEd_sun_ahdycvpopffkzzsu.tif,90,0.0666666666666667,0.0666666666666667,0.7,659.972133666,661.495273708,13,660.038905166,660.105700541,661.508110083,662.201449166,0,1.52314004200002
104,28,2,categorization,0,kitchen,SHINEd_sun_agorklincwxrdtga.tif,87,0.0666666666666667,0.0666666666666667,1.33333333333333,662.206867208,662.919661541,9,662.268691916,662.329675708,662.931519375,664.258219083,1,0.712794333000033
104,29,2,categorization,0,bathroom,SHINEd_sun_ajlawzvmubibwbpy.tif,30,0.0666666666666667,0.0666666666666667,1.33333333333333,664.276161875,665.113572541,9,664.342510833,664.406735833,665.128332833,666.45505275,0,0.837410666000096
104,30,2,categorization,0,kitchen,SHINEd_sun_afuyedyxivkhecmu.tif,85,0.0666666666666667,0.0666666666666667,1.38333333333333,666.472915708,667.21124525,9,666.539655875,666.605860041,667.229333791,668.60603275,1,0.738329542000088
104,31,2,categorization,0,bathroom,SHINEd_sun_alotolagknyrgtsk.tif,35,0.0666666666666667,0.0666666666666667,1.25,668.624600666,669.323052666,9,668.691626041,668.757807125,669.347604166,670.59097,0,0.698451999999975
104,32,2,categorization,0,bathroom,SHINEd_sun_acduarbnmmoglmiv.tif,16,0.0666666666666667,0.0666666666666667,1.55,670.60907075,671.274256791,9,670.675726166,670.74223,671.298053708,672.841436166,0,0.66518604099997
104,33,2,categorization,0,bathroom,SHINEd_sun_azqyogdvyhahyram.tif,60,0.0666666666666667,0.0666666666666667,1.61666666666667,672.858360208,673.697218833,13,672.925164166,672.991315125,673.7140315,675.324078583,1,0.838858624999943
104,34,2,categorization,0,kitchen,SHINEd_sun_akchetnepxlcxhsu.tif,98,0.0666666666666667,0.0666666666666667,1.33333333333333,675.336848166,676.088038833,13,675.403979666,675.4697065,676.109694166,677.43639675,0,0.75119066700006
104,35,2,categorization,0,bathroom,SHINEd_sun_aavhrsfjbserjtht.tif,13,0.0666666666666667,0.0666666666666667,0.833333333333333,677.454645333,678.580464833,13,677.521453125,677.587454333,678.612618625,679.439291958,1,1.12581949999992
104,36,2,categorization,0,kitchen,SHINEd_sun_abpwyqmlzafvklqo.tif,72,0.0666666666666667,0.0666666666666667,1.45,679.444819083,680.527977,13,679.506501375,679.567642375,680.536164333,681.979537291,0,1.08315791699999
104,37,2,categorization,0,bathroom,SHINEd_sun_agrwbmhcpmfuwmsg.tif,24,0.0666666666666667,0.0666666666666667,0.933333333333333,681.996813875,683.90296175,9,682.063408125,682.129271583,683.915196708,684.841869333,0,1.90614787499999
104,38,2,categorization,0,kitchen,SHINEd_sun_ahljzhgcdpomplvg.tif,91,0.0666666666666667,0.0666666666666667,1.65,684.847497458,685.63968325,9,684.909150333,684.9702455,685.655859041,687.2992435,1,0.792185791999941
104,39,2,categorization,0,bathroom,SHINEd_sun_awnqiikzaispgmwo.tif,56,0.0666666666666667,0.0666666666666667,1.23333333333333,687.314265,689.079725916,13,687.380990333,687.447096125,689.099678625,690.326390458,1,1.76546091600005
104,40,2,categorization,0,kitchen,SHINEd_sun_aqeaevwwwjoqhzvl.tif,101,0.0666666666666667,0.0666666666666667,0.766666666666667,690.342136375,691.457889375,13,690.409364333,690.475051708,691.481122833,692.241133916,0,1.11575300000004
104,41,2,categorization,0,kitchen,SHINEd_sun_auticobqsbwgoppi.tif,104,0.0666666666666667,0.0666666666666667,1.78333333333333,692.246788833,693.511144833,9,692.308451625,692.369683,693.521959375,695.298672291,1,1.26435600000002
104,42,2,categorization,0,kitchen,SHINEd_sun_acgtpgfybqjmzeyw.tif,75,0.0666666666666667,0.0666666666666667,1.11666666666667,695.315298958,696.028539708,9,695.38314625,695.448504125,696.054831625,697.164867291,1,0.713240750000068
104,43,2,categorization,0,bathroom,SHINEd_sun_ahijqszoswveeyji.tif,28,0.0666666666666667,0.0666666666666667,1.85,697.178944,698.148998458,13,697.243762375,697.312063916,698.168233125,700.011597666,1,0.97005445800005
104,44,2,categorization,0,bathroom,SHINEd_sun_asfwthctfqerjvxr.tif,49,0.0666666666666667,0.0666666666666667,0.733333333333333,700.029579666,701.527441416,9,700.096583583,700.162442625,701.531662291,702.258333291,0,1.49786174999997
104,45,2,categorization,0,bathroom,SHINEd_sun_ambriybtogmepttm.tif,36,0.0666666666666667,0.0666666666666667,0.783333333333333,702.263726625,703.047185333,9,702.325443083,702.386463708,703.054844083,703.831515291,0,0.783458708000012
104,46,2,categorization,0,kitchen,SHINEd_sun_acxkpeoqbwcxfvip.tif,77,0.0666666666666667,0.0666666666666667,1.5,703.836895041,705.047500708,9,703.898567375,703.959694791,705.062300791,706.555666208,1,1.21060566699998
104,47,2,categorization,0,kitchen,SHINEd_sun_awcpdzzznmweyyhv.tif,106,0.0666666666666667,0.0666666666666667,0.733333333333333,706.573682666,707.570419125,13,706.640526375,706.70743425,707.597521666,708.324192583,0,0.996736458999976
104,48,2,categorization,0,kitchen,SHINEd_sun_aegoxogugdkwpmpj.tif,80,0.0666666666666667,0.0666666666666667,1.1,708.329079541,708.983062625,13,708.390744583,708.451880291,708.9872015,710.080582458,0,0.653983083999947
104,49,2,categorization,0,kitchen,SHINEd_sun_amjjdeyrggfqgmom.tif,100,0.0666666666666667,0.0666666666666667,1.6,710.091240416,710.921634875,13,710.156116291,710.224575333,710.947457083,712.540845708,0,0.83039445899999
104,50,2,categorization,0,bathroom,SHINEd_sun_acgyywnybuveqsro.tif,18,0.0666666666666667,0.0666666666666667,1.06666666666667,712.555812083,713.355477083,13,712.622045666,712.68859925,713.378315958,714.438371125,1,0.799665000000005
104,1,3,categorization,0,bathroom,SHINEd_sun_akiytfaagpdsphgz.tif,31,0.0666666666666667,0.0666666666666667,0.85,732.428313791,733.3039055,13,732.490824458,732.551189708,733.319832791,734.163171625,1,0.875591708999991
104,2,3,categorization,0,bathroom,SHINEd_sun_aqrpegblszgcoujh.tif,48,0.0666666666666667,0.0666666666666667,1.65,734.169474625,735.095186583,13,734.231176291,734.292296708,735.111148666,736.754518791,1,0.925711957999965
104,3,3,categorization,0,bathroom,SHINEd_sun_axldvoqbuvuggfmq.tif,57,0.0666666666666667,0.0666666666666667,0.783333333333333,736.772706833,737.684430708,13,736.838154541,736.905006583,737.711513875,738.488185666,1,0.911723875000007
104,4,3,categorization,0,kitchen,SHINEd_sun_aymvwlarqodbwuoc.tif,108,0.0666666666666667,0.0666666666666667,0.933333333333333,738.493520958,739.383679083,9,738.555148,738.616365166,739.402226208,740.328897541,1,0.890158124999971
104,5,3,categorization,0,bathroom,SHINEd_sun_aleqenyvunhactkl.tif,32,0.0666666666666667,0.0666666666666667,0.866666666666667,740.333673666,741.079157666,9,740.395470333,740.456557083,741.092382916,741.952388708,0,0.745484000000033
104,6,3,categorization,0,kitchen,SHINEd_sun_acwjdupvyjsugpay.tif,76,0.0666666666666667,0.0666666666666667,1.11666666666667,741.957936458,742.63172325,9,742.0194905,742.080755416,742.64925075,743.759283083,1,0.673786792000101
104,7,3,categorization,0,kitchen,SHINEd_sun_aaxxjlsuzvqlgylf.tif,68,0.0666666666666667,0.0666666666666667,0.966666666666667,743.770871041,744.475036333,9,743.835488791,743.903606583,744.492975375,745.4530185,1,0.704165292000084
104,8,3,categorization,0,kitchen,SHINEd_sun_ahdycvpopffkzzsu.tif,90,0.0666666666666667,0.0666666666666667,1.78333333333333,745.4713755,746.150702666,9,745.53573975,745.604544458,746.157102916,747.933819708,1,0.679327166000007
104,9,3,categorization,0,bathroom,SHINEd_sun_apmqjbnwghzuhhzh.tif,46,0.0666666666666667,0.0666666666666667,1.55,747.951032583,749.188739958,13,748.017267791,748.083987458,749.208350083,750.751718708,1,1.23770737500001
104,10,3,categorization,0,bathroom,SHINEd_sun_apjevzvycyhuqghb.tif,43,0.0666666666666667,0.0666666666666667,1.41666666666667,750.76856075,751.684701625,9,750.835402416,750.901465375,751.70801075,753.118042875,0,0.916140874999996
104,11,3,categorization,0,kitchen,SHINEd_sun_abdxkyyxwfskuaqb.tif,70,0.0666666666666667,0.0666666666666667,0.8,753.13817025,753.914434541,9,753.204698208,753.271448625,753.944836208,754.738206291,1,0.776264290999961
104,12,3,categorization,0,bathroom,SHINEd_sun_apeeialkgkuxddgh.tif,42,0.0666666666666667,0.0666666666666667,1.28333333333333,754.754133875,755.695022458,13,754.820050541,754.878300041,755.714035333,756.990745958,1,0.94088858300006
104,13,3,categorization,0,kitchen,SHINEd_sun_aamedkxepzlwuxes.tif,65,0.0666666666666667,0.0666666666666667,1.66666666666667,757.002978083,757.7839875,9,757.069668458,757.135787208,757.809825708,759.469865458,1,0.78100941699995
104,14,3,categorization,0,kitchen,SHINEd_sun_aapllqyqlykszopd.tif,66,0.0666666666666667,0.0666666666666667,1.81666666666667,759.487561333,760.276735791,9,759.554176083,759.620802208,760.292155541,762.102201583,1,0.789174457999934
104,15,3,categorization,0,bathroom,SHINEd_sun_ahijqszoswveeyji.tif,28,0.0666666666666667,0.0666666666666667,1.35,762.120563208,762.851015708,9,762.187423791,762.253615458,762.876687541,764.220054041,0,0.730452499999956
104,16,3,categorization,0,kitchen,SHINEd_sun_aadbddgrdsjugojn.tif,64,0.0666666666666667,0.0666666666666667,0.916666666666667,764.2373025,765.139198458,9,764.301263083,764.367429916,765.156699375,766.066704291,1,0.901895957999955
104,17,3,categorization,0,bathroom,SHINEd_sun_aoybiabnpadelefl.tif,41,0.0666666666666667,0.0666666666666667,0.916666666666667,766.0724215,767.110678375,9,766.134191958,766.195230958,767.130999208,768.041005375,0,1.038256875
104,18,3,categorization,0,kitchen,SHINEd_sun_ajcbwwvdlsvjyzje.tif,96,0.0666666666666667,0.0666666666666667,1.31666666666667,768.046539791,768.743160375,13,768.108248541,768.16921025,768.754778625,770.064811166,0,0.696620584000016
104,19,3,categorization,0,kitchen,SHINEd_sun_acxkpeoqbwcxfvip.tif,77,0.0666666666666667,0.0666666666666667,1.45,770.082019166,771.003933625,9,770.148523166,770.214886208,771.019502208,772.462890166,1,0.921914458999936
104,20,3,categorization,0,bathroom,SHINEd_sun_awnqiikzaispgmwo.tif,56,0.0666666666666667,0.0666666666666667,0.95,772.4794795,773.35163575,13,772.546115875,772.612767791,773.368697,774.312039458,1,0.872156249999989
104,21,3,categorization,0,bathroom,SHINEd_sun_aspsyogrekjtfozg.tif,50,0.0666666666666667,0.0666666666666667,1.38333333333333,774.319375916,775.119206916,13,774.381285291,774.44224075,775.127818708,776.504522166,1,0.79983100000004
104,22,3,categorization,0,kitchen,SHINEd_sun_adgqasybjyktddhj.tif,78,0.0666666666666667,0.0666666666666667,1.16666666666667,776.5165415,777.551439166,13,776.58116925,776.649821583,777.572827416,778.732877166,0,1.03489766600001
104,23,3,categorization,0,bathroom,SHINEd_sun_avhrdrntsqrjzccq.tif,55,0.0666666666666667,0.0666666666666667,1.61666666666667,778.743228291,779.682939791,13,778.810832583,778.876151041,779.698703291,781.308743666,1,0.93971149999993
104,24,3,categorization,0,bathroom,SHINEd_sun_acduarbnmmoglmiv.tif,16,0.0666666666666667,0.0666666666666667,1.38333333333333,781.325570208,782.127382583,9,781.392611583,781.458299458,782.147730125,783.524433291,0,0.80181237499994
104,25,3,categorization,0,bathroom,SHINEd_sun_agguqiubmwhqqunb.tif,22,0.0666666666666667,0.0666666666666667,1.78333333333333,783.541501708,784.6959045,13,783.607994958,783.674515458,784.71401375,786.49071225,1,1.15440279199993
104,26,3,categorization,0,bathroom,SHINEd_sun_apkxzenqapsujocq.tif,45,0.0666666666666667,0.0666666666666667,0.783333333333333,786.50728125,787.309290791,13,786.573876375,786.640236416,787.329900625,788.106573791,1,0.802009540999961
104,27,3,categorization,0,bathroom,SHINEd_sun_aljolscmmzydegqp.tif,33,0.0666666666666667,0.0666666666666667,1.65,788.112183625,790.303535625,9,788.173957375,788.235010708,790.320618041,791.963997375,0,2.19135200000005
104,28,3,categorization,0,bathroom,SHINEd_sun_ahcvzmoyaycdoftf.tif,27,0.0666666666666667,0.0666666666666667,1.86666666666667,791.980801541,792.822357916,13,792.048707291,792.113501625,792.853353125,794.713395916,1,0.841556374999982
104,29,3,categorization,0,bathroom,SHINEd_sun_ahaulkltgpkeeemi.tif,26,0.0666666666666667,0.0666666666666667,1.23333333333333,794.730400208,795.480780958,13,794.797035583,794.863421125,795.50324975,796.729964416,1,0.750380749999977
104,30,3,categorization,0,bathroom,SHINEd_sun_aghyqhbptboemmoq.tif,23,0.0666666666666667,0.0666666666666667,0.7,796.743905541,797.491821333,13,796.810524416,796.877147708,797.516814208,798.2101825,1,0.747915791999958
104,31,3,categorization,0,bathroom,SHINEd_sun_auzqhkafidnkrwmo.tif,54,0.0666666666666667,0.0666666666666667,0.716666666666667,798.227197625,799.159513583,13,798.291516958,798.35751725,799.176811625,799.886817416,1,0.932315958000004
104,32,3,categorization,0,kitchen,SHINEd_sun_acfmftudsenhrfhy.tif,74,0.0666666666666667,0.0666666666666667,1.05,799.892516125,801.27148625,9,799.954186958,800.015511208,801.284630583,802.328017583,1,1.37897012499991
104,33,3,categorization,0,bathroom,SHINEd_sun_apkruvsevgegsdwp.tif,44,0.0666666666666667,0.0666666666666667,1.1,802.337796833,803.112624166,9,802.403185666,802.469557416,803.142471958,804.235848708,0,0.774827333000076
104,34,3,categorization,0,kitchen,SHINEd_sun_aehawpgmrlhlvcow.tif,81,0.0666666666666667,0.0666666666666667,1.13333333333333,804.254862875,805.102729791,9,804.317831541,804.377943833,805.1133005,806.239999958,1,0.847866916000044
104,35,3,categorization,0,kitchen,SHINEd_sun_avszsnwsbuqfgzbn.tif,105,0.0666666666666667,0.0666666666666667,1.38333333333333,806.249363333,806.899367625,9,806.313234583,806.382231916,806.921901625,808.298604416,1,0.650004291999949
104,36,3,categorization,0,kitchen,SHINEd_sun_aqeaevwwwjoqhzvl.tif,101,0.0666666666666667,0.0666666666666667,1.5,808.308547666,808.881686,9,808.373215458,808.441349041,808.896973458,810.390377,1,0.573138333999964
104,37,3,categorization,0,kitchen,SHINEd_sun_auticobqsbwgoppi.tif,104,0.0666666666666667,0.0666666666666667,1.61666666666667,810.406490666,811.077123541,9,810.472771416,810.539290916,811.095454291,812.705503291,1,0.670632875000024
104,38,3,categorization,0,kitchen,SHINEd_sun_abdenxonkemggwsq.tif,69,0.0666666666666667,0.0666666666666667,0.983333333333333,812.723255375,813.381191833,9,812.790252541,812.856558291,813.395921583,814.372614083,1,0.657936457999995
104,39,3,categorization,0,kitchen,SHINEd_sun_aixorpehvfykdynp.tif,95,0.0666666666666667,0.0666666666666667,1.3,814.3821345,815.055191458,9,814.44432225,814.505039458,815.073606666,816.366983833,1,0.673056957999961
104,40,3,categorization,0,bathroom,SHINEd_sun_aavhrsfjbserjtht.tif,13,0.0666666666666667,0.0666666666666667,1.03333333333333,816.377675875,817.012068625,9,816.44443675,816.51082075,817.033256416,818.059959625,0,0.634392749999961
104,41,3,categorization,0,kitchen,SHINEd_sun_awcpdzzznmweyyhv.tif,106,0.0666666666666667,0.0666666666666667,1.45,818.073150125,818.823289916,9,818.139689416,818.197900333,818.833345125,820.276727958,1,0.750139791000038
104,42,3,categorization,0,kitchen,SHINEd_sun_aggjlwcdjsjcaemh.tif,86,0.0666666666666667,0.0666666666666667,1.23333333333333,820.291477166,821.723487666,9,820.356637291,820.424376791,821.750109208,822.976809458,1,1.43201049999993
104,43,3,categorization,0,kitchen,SHINEd_sun_ahspylgoovwmwvgk.tif,93,0.0666666666666667,0.0666666666666667,1.26666666666667,822.9909395,823.734640333,9,823.057454458,823.124090041,823.763850708,825.023902625,1,0.743700833000048
104,44,3,categorization,0,kitchen,SHINEd_sun_ahljzhgcdpomplvg.tif,91,0.0666666666666667,0.0666666666666667,1.03333333333333,825.042286416,825.926645791,9,825.109027,825.175421666,825.948313625,826.974994458,1,0.884359375000031
104,45,3,categorization,0,kitchen,SHINEd_sun_aexklacwqwezaorf.tif,84,0.0666666666666667,0.0666666666666667,1.31666666666667,826.980938083,827.710868833,9,827.04277775,827.104006083,827.722853708,829.032893791,1,0.729930749999994
104,46,3,categorization,0,kitchen,SHINEd_sun_acgtpgfybqjmzeyw.tif,75,0.0666666666666667,0.0666666666666667,1.7,829.049863666,830.036861083,9,829.116220416,829.182711041,830.055569958,831.748945375,1,0.986997416999998
104,47,3,categorization,0,bathroom,SHINEd_sun_alotolagknyrgtsk.tif,35,0.0666666666666667,0.0666666666666667,1.35,831.766245625,832.74719675,9,831.833601791,831.899174375,832.772363333,834.115745958,0,0.980951124999933
104,48,3,categorization,0,bathroom,SHINEd_sun_azqyogdvyhahyram.tif,60,0.0666666666666667,0.0666666666666667,0.8,834.132551375,834.763921416,13,834.2002515,834.265682875,834.7890315,835.5824165,1,0.631370040999968
104,49,3,categorization,0,kitchen,SHINEd_sun_abpwyqmlzafvklqo.tif,72,0.0666666666666667,0.0666666666666667,0.766666666666667,835.598360291,836.311352791,13,835.665077583,835.731141625,836.316502333,837.076509083,0,0.712992500000041
104,50,3,categorization,0,bathroom,SHINEd_sun_anryaplzeujmzfkd.tif,39,0.0666666666666667,0.0666666666666667,1.38333333333333,837.082075625,838.326372375,13,837.143887125,837.205032458,838.340165666,839.716879041,1,1.24429674999999
104,1,4,categorization,0,bathroom,SHINEd_sun_abapwbhyhkfixyex.tif,14,0.0666666666666667,0.0666666666666667,1,855.157832375,857.078975083,13,855.220401541,855.280622166,857.0831295,858.076468708,1,1.92114270800005
104,2,4,categorization,0,kitchen,SHINEd_sun_afuyedyxivkhecmu.tif,85,0.0666666666666667,0.0666666666666667,0.966666666666667,858.082023416,858.894674208,9,858.143671041,858.2049655,858.907507208,859.867512083,1,0.812650791999999
104,3,4,categorization,0,bathroom,SHINEd_sun_axyrejkiiaqiurjk.tif,59,0.0666666666666667,0.0666666666666667,1.75,859.8730205,860.622555416,9,859.934645041,859.995825083,860.631135125,862.3745225,0,0.749534915999902
104,4,4,categorization,0,bathroom,SHINEd_sun_ausgutylgojavyoq.tif,53,0.0666666666666667,0.0666666666666667,1.68333333333333,862.390087166,863.258589416,13,862.4564905,862.522909916,863.279041375,864.955743041,1,0.868502250000006
104,5,4,categorization,0,kitchen,SHINEd_sun_agorklincwxrdtga.tif,87,0.0666666666666667,0.0666666666666667,1.58333333333333,864.973035,865.768289583,9,865.039522041,865.105901291,865.795296375,867.372013708,1,0.795254582999974
104,6,4,categorization,0,bathroom,SHINEd_sun_aggnnqpdorgxpvce.tif,21,0.0666666666666667,0.0666666666666667,1,867.388429791,868.19663575,9,867.454977125,867.521368875,868.209812625,869.203151708,0,0.80820595900002
104,7,4,categorization,0,bathroom,SHINEd_labelme_sfxiulhjbhlyiyt.tif,11,0.0666666666666667,0.0666666666666667,1.33333333333333,869.208777958,870.04704825,13,869.270385875,869.331547708,870.067083,871.393786041,1,0.838270291999947
104,8,4,categorization,0,kitchen,SHINEd_sun_akcjzhbbjlbogpdi.tif,99,0.0666666666666667,0.0666666666666667,1.26666666666667,871.41135575,873.011395,9,871.477803041,871.5446275,873.036803083,874.2968295,1,1.60003925000001
104,9,4,categorization,0,kitchen,SHINEd_sun_aeqdocilnnpuvuhx.tif,83,0.0666666666666667,0.0666666666666667,0.883333333333333,874.306578291,875.010935041,9,874.373691791,874.439686375,875.02910875,875.905828,1,0.704356749999988
104,10,4,categorization,0,kitchen,SHINEd_sun_aenotlpyftoioydp.tif,82,0.0666666666666667,0.0666666666666667,1.26666666666667,875.921803166,876.654882666,9,875.988077875,876.05488325,876.673579416,877.933618375,1,0.733079500000031
104,11,4,categorization,0,kitchen,SHINEd_sun_aarfiyshqohlwkmo.tif,67,0.0666666666666667,0.0666666666666667,2,877.950432458,878.579349583,9,878.016621625,878.083481416,878.606677333,880.600052041,1,0.62891712499993
104,12,4,categorization,0,kitchen,SHINEd_labelme_rykdqxenmhulbdn.tif,63,0.0666666666666667,0.0666666666666667,0.733333333333333,880.617543416,881.50074675,9,880.683982875,880.747453875,881.519117916,882.245791125,1,0.883203333999973
104,13,4,categorization,0,bathroom,SHINEd_sun_atstyziqcmkahyxk.tif,51,0.0666666666666667,0.0666666666666667,0.883333333333333,882.252218166,883.054394833,9,882.314033375,882.375057791,883.060127541,883.936799916,0,0.802176666999912
104,14,4,categorization,0,bathroom,SHINEd_sun_agrwbmhcpmfuwmsg.tif,24,0.0666666666666667,0.0666666666666667,0.983333333333333,883.942434958,884.9979935,13,884.004049,884.065757666,885.017798083,885.994468833,1,1.05555854199997
104,15,4,categorization,0,bathroom,SHINEd_sun_agyqfjcfkdcydepw.tif,25,0.0666666666666667,0.0666666666666667,1.56666666666667,886.002501208,887.270783458,13,886.064248166,886.125233916,887.277983083,888.838015083,1,1.26828224999997
104,16,4,categorization,0,bathroom,SHINEd_sun_aofnryafpsjimzsb.tif,40,0.0666666666666667,0.0666666666666667,1.08333333333333,888.854464541,889.604045833,13,888.921050166,888.987716791,889.627110041,890.703829583,1,0.749581292000016
104,17,4,categorization,0,bathroom,SHINEd_sun_alkosphxlxwjwgjd.tif,34,0.0666666666666667,0.0666666666666667,0.75,890.715578583,891.48056675,13,890.780230416,890.847960916,891.504573333,892.247950625,1,0.764988166999956
104,18,4,categorization,0,bathroom,SHINEd_sun_acegryoqftbzowsg.tif,17,0.0666666666666667,0.0666666666666667,0.966666666666667,892.260458166,893.142453833,13,892.327232625,892.393224083,893.162109541,894.122116,1,0.881995666999956
104,19,4,categorization,0,bathroom,SHINEd_sun_amzlamotzwfkwjco.tif,37,0.0666666666666667,0.0666666666666667,1.63333333333333,894.127799125,895.085973541,13,894.189333083,894.250702416,895.102967208,896.729680833,1,0.95817441600002
104,20,4,categorization,0,bathroom,SHINEd_sun_afcoljnjfoxjtgja.tif,20,0.0666666666666667,0.0666666666666667,1.46666666666667,896.742427083,897.696875916,13,896.808578666,896.872850583,897.712221541,899.172256083,1,0.954448832999901
104,21,4,categorization,0,kitchen,SHINEd_sun_auaiucuqpdausiva.tif,102,0.0666666666666667,0.0666666666666667,0.933333333333333,899.189661666,900.019611375,13,899.256227958,899.322862875,900.046490208,900.9731635,0,0.829949708999948
104,22,4,categorization,0,kitchen,SHINEd_sun_akchetnepxlcxhsu.tif,98,0.0666666666666667,0.0666666666666667,1.45,900.978987875,901.910387,13,901.040728958,901.101797708,901.920293791,903.363669916,0,0.931399124999984
104,23,4,categorization,0,kitchen,SHINEd_sun_admlmbcdswaszruo.tif,79,0.0666666666666667,0.0666666666666667,0.966666666666667,903.380468291,904.072261208,9,903.447012541,903.513680041,904.08586875,905.045875,1,0.69179291699993
104,24,4,categorization,0,kitchen,SHINEd_sun_agubuxuukhzyzpdp.tif,88,0.0666666666666667,0.0666666666666667,0.816666666666667,905.052001166,905.695000833,9,905.113862083,905.1748005,905.710276125,906.52027975,1,0.642999667000026
104,25,4,categorization,0,kitchen,SHINEd_sun_agzzivivdpnawacl.tif,89,0.0666666666666667,0.0666666666666667,1.96666666666667,906.525632166,908.182440041,13,906.587393,906.648581541,908.201128333,910.161170708,0,1.65680787499991
104,26,4,categorization,0,bathroom,SHINEd_sun_aapitsgbtktqubfy.tif,12,0.0666666666666667,0.0666666666666667,0.916666666666667,910.178210166,911.414520125,9,910.246179541,910.308198333,911.427612458,912.337618458,0,1.23630995899998
104,27,4,categorization,0,bathroom,SHINEd_sun_asfwthctfqerjvxr.tif,49,0.0666666666666667,0.0666666666666667,1.28333333333333,912.342008083,913.0946755,9,912.403798333,912.464782583,913.100198916,914.376904,0,0.752667416999998
104,28,4,categorization,0,kitchen,SHINEd_sun_aunzlwrbjumxhwdj.tif,103,0.0666666666666667,0.0666666666666667,1.8,914.389767583,915.681962125,13,914.456200625,914.522772958,915.714279083,917.507660375,0,1.29219454200006
104,29,4,categorization,0,kitchen,SHINEd_labelme_kxvouciolcpqplr.tif,62,0.0666666666666667,0.0666666666666667,1.33333333333333,917.52430075,918.990033458,9,917.590850166,917.657734958,919.010297416,920.336979,1,1.46573270800002
104,30,4,categorization,0,bathroom,SHINEd_sun_aunuadmjocsddsrl.tif,52,0.0666666666666667,0.0666666666666667,1.06666666666667,920.345735708,921.772456958,9,920.412413291,920.479530666,921.804789083,922.864834125,0,1.42672125000001
104,31,4,categorization,0,kitchen,SHINEd_sun_azmutvzbxypaceni.tif,110,0.0666666666666667,0.0666666666666667,1.03333333333333,922.878297833,924.400432458,13,922.943269041,923.009722541,924.418180666,925.444879208,0,1.52213462499992
104,32,4,categorization,0,bathroom,SHINEd_sun_axxbkopsgyouuebh.tif,58,0.0666666666666667,0.0666666666666667,0.733333333333333,925.457970458,926.190826208,13,925.523328375,925.589334583,926.212411333,926.939117333,1,0.732855749999999
104,33,4,categorization,0,bathroom,SHINEd_sun_anhioqovhscjqqwb.tif,38,0.0666666666666667,0.0666666666666667,0.766666666666667,926.953886083,927.598894291,13,927.020426833,927.086868666,927.60608075,928.366086416,1,0.645008207999922
104,34,4,categorization,0,kitchen,SHINEd_labelme_brsyyvweiuaazfr.tif,61,0.0666666666666667,0.0666666666666667,1.1,928.370761375,929.454526041,9,928.432530041,928.493614875,929.462385875,930.555761875,1,1.08376466599998
104,35,4,categorization,0,kitchen,SHINEd_sun_aypmqwcualkenuoe.tif,109,0.0666666666666667,0.0666666666666667,1.81666666666667,930.565979708,931.507192875,9,930.630368541,930.698776416,931.521119958,933.331174875,1,0.941213167000001
104,36,4,categorization,0,kitchen,SHINEd_sun_ahywdevtimnqcsln.tif,94,0.0666666666666667,0.0666666666666667,0.883333333333333,933.348342208,934.674193916,9,933.414786583,933.481080708,934.68926875,935.565941625,1,1.32585170800007
104,37,4,categorization,0,kitchen,SHINEd_sun_amjjdeyrggfqgmom.tif,100,0.0666666666666667,0.0666666666666667,1.7,935.571456166,936.814389958,13,935.633283791,935.694335208,936.829533291,938.522921833,0,1.24293379200003
104,38,4,categorization,0,kitchen,SHINEd_sun_ajkqhtgcbgpcwrwn.tif,97,0.0666666666666667,0.0666666666666667,1.58333333333333,938.540548333,939.573729583,9,938.60727425,938.673507166,939.595296625,941.172006916,1,1.0331812500001
104,39,4,categorization,0,kitchen,SHINEd_sun_abftihopvusyfakt.tif,71,0.0666666666666667,0.0666666666666667,0.833333333333333,941.185461541,942.829997958,13,941.25309425,941.319277791,942.838968708,943.665642541,0,1.64453641700004
104,40,4,categorization,0,bathroom,SHINEd_sun_apynckhmoftszqoq.tif,47,0.0666666666666667,0.0666666666666667,0.95,943.671221625,944.646557833,13,943.732964083,943.794095291,944.662725041,945.6060625,1,0.975336207999931
104,41,4,categorization,0,bathroom,SHINEd_sun_aclfzgynxzxlbepz.tif,19,0.0666666666666667,0.0666666666666667,1.06666666666667,945.6116345,946.357743958,13,945.673442208,945.734425166,946.369554333,947.429583875,1,0.746109457999978
104,42,4,categorization,0,kitchen,SHINEd_sun_axyyrmzcupyhlivc.tif,107,0.0666666666666667,0.0666666666666667,1.68333333333333,947.440028583,948.46824775,9,947.505139916,947.571514916,948.494747083,950.171470708,1,1.02821916700009
104,43,4,categorization,0,bathroom,SHINEd_sun_ambriybtogmepttm.tif,36,0.0666666666666667,0.0666666666666667,1.31666666666667,950.190198625,950.89500625,9,950.257320083,950.31977725,950.909511208,952.219558,0,0.704807625000058
104,44,4,categorization,0,kitchen,SHINEd_sun_ahpczsiumwwocjkv.tif,92,0.0666666666666667,0.0666666666666667,1.61666666666667,952.238038125,952.996180916,9,952.303498916,952.367380625,953.025153541,954.635207416,1,0.758142790999955
104,45,4,categorization,0,bathroom,SHINEd_sun_ajlawzvmubibwbpy.tif,30,0.0666666666666667,0.0666666666666667,1.15,954.654043166,955.312722666,9,954.721265916,954.787236916,955.326173291,956.469554583,0,0.658679500000062
104,46,4,categorization,0,bathroom,SHINEd_sun_acgyywnybuveqsro.tif,18,0.0666666666666667,0.0666666666666667,1.25,956.480437583,957.216730625,9,956.546026916,956.6145645,957.238123166,958.481488083,0,0.736293041999943
104,47,4,categorization,0,kitchen,SHINEd_sun_abrcnpqqhmjwekyf.tif,73,0.0666666666666667,0.0666666666666667,1.1,958.49954525,959.288004875,9,958.566205291,958.633318916,959.306575291,960.399958791,1,0.788459624999973
104,48,4,categorization,0,bathroom,SHINEd_sun_abjtwfukuwddzted.tif,15,0.0666666666666667,0.0666666666666667,0.9,960.419982,961.646164875,9,960.487517791,960.544686041,961.663580583,962.556918083,0,1.22618287499995
104,49,4,categorization,0,bathroom,SHINEd_sun_ahqjwnzgolcaoidx.tif,29,0.0666666666666667,0.0666666666666667,1.3,962.561433791,963.950877333,13,962.623266125,962.684489833,963.970062291,965.263434583,1,1.38944354199998
104,50,4,categorization,0,kitchen,SHINEd_sun_aegoxogugdkwpmpj.tif,80,0.0666666666666667,0.0666666666666667,1.25,965.279781875,966.399185958,13,965.347272375,965.412925166,966.419277375,967.662658458,0,1.11940408299995
104,1,5,categorization,0,bathroom,SHINEd_sun_acegryoqftbzowsg.tif,17,0.0666666666666667,0.0666666666666667,1.7,975.953446666,977.262874125,9,976.015715833,976.076236458,977.278805041,978.972176708,0,1.30942745900006
104,2,5,categorization,0,bathroom,SHINEd_sun_ahcvzmoyaycdoftf.tif,27,0.0666666666666667,0.0666666666666667,1.81666666666667,978.990471833,980.197909625,13,979.057163958,979.123589625,980.212546958,982.022584208,1,1.20743779199995
104,3,5,categorization,0,bathroom,SHINEd_sun_abjtwfukuwddzted.tif,15,0.0666666666666667,0.0666666666666667,1.23333333333333,982.039503916,982.905840041,13,982.106211458,982.172353541,982.928941875,984.155636875,1,0.866336125000089
104,4,5,categorization,0,kitchen,SHINEd_sun_ahpczsiumwwocjkv.tif,92,0.0666666666666667,0.0666666666666667,1.4,984.170197708,984.893446333,9,984.236126416,984.2983415,984.9217715,986.315153125,1,0.723248624999997
104,5,5,categorization,0,bathroom,SHINEd_sun_aljolscmmzydegqp.tif,33,0.0666666666666667,0.0666666666666667,1.03333333333333,986.326421375,987.319214416,9,986.393394333,986.459255791,987.348932291,988.375646625,0,0.992793041000027
104,6,5,categorization,0,kitchen,SHINEd_sun_azmutvzbxypaceni.tif,110,0.0666666666666667,0.0666666666666667,1.38333333333333,988.384679125,989.100466166,9,988.448702125,988.51661375,989.122991291,990.499706,1,0.715787040999999
104,7,5,categorization,0,kitchen,SHINEd_sun_ahljzhgcdpomplvg.tif,91,0.0666666666666667,0.0666666666666667,2,990.520238916,991.137477083,9,990.586842291,990.654124583,991.160647458,993.154031416,1,0.617238166999982
104,8,5,categorization,0,bathroom,SHINEd_sun_afcoljnjfoxjtgja.tif,20,0.0666666666666667,0.0666666666666667,1.85,993.17131475,993.949938791,9,993.237978041,993.304524791,993.978256541,995.821629791,0,0.778624041000057
104,9,5,categorization,0,kitchen,SHINEd_sun_acgtpgfybqjmzeyw.tif,75,0.0666666666666667,0.0666666666666667,0.816666666666667,995.838666125,996.588231916,9,995.905404041,995.9714755,996.611005833,997.42101025,1,0.749565791000009
104,10,5,categorization,0,kitchen,SHINEd_sun_ahspylgoovwmwvgk.tif,93,0.0666666666666667,0.0666666666666667,1.85,997.426710791,998.094088791,9,997.488376583,997.549612833,998.101584875,999.944950666,1,0.667377999999985
104,11,5,categorization,0,kitchen,SHINEd_sun_akcjzhbbjlbogpdi.tif,99,0.0666666666666667,0.0666666666666667,0.733333333333333,999.961404625,1000.642418,9,1000.027946291,1000.094831041,1000.667897125,1001.394569375,1,0.68101337500002
104,12,5,categorization,0,bathroom,SHINEd_sun_axyrejkiiaqiurjk.tif,59,0.0666666666666667,0.0666666666666667,0.716666666666667,1001.401219958,1002.029875541,9,1001.462911,1001.524012208,1002.042918583,1002.752923625,0,0.628655583000068
104,13,5,categorization,0,kitchen,SHINEd_sun_ahywdevtimnqcsln.tif,94,0.0666666666666667,0.0666666666666667,0.833333333333333,1002.757854333,1003.397719916,9,1002.819544583,1002.880753875,1003.415943583,1004.242616,1,0.639865583000073
104,14,5,categorization,0,bathroom,SHINEd_sun_asfwthctfqerjvxr.tif,49,0.0666666666666667,0.0666666666666667,0.95,1004.247320708,1005.03797175,9,1004.309127041,1004.370172625,1005.055788708,1005.999125458,0,0.790651042000036
104,15,5,categorization,0,bathroom,SHINEd_sun_aapitsgbtktqubfy.tif,12,0.0666666666666667,0.0666666666666667,1.96666666666667,1006.003852083,1007.126144416,13,1006.06555475,1006.126620125,1007.14584375,1009.105899416,1,1.12229233300002
104,16,5,categorization,0,kitchen,SHINEd_sun_aexklacwqwezaorf.tif,84,0.0666666666666667,0.0666666666666667,1.86666666666667,1009.123125916,1010.333657916,13,1009.189417291,1009.256060041,1010.341205541,1012.201256541,0,1.21053199999994
104,17,5,categorization,0,kitchen,SHINEd_sun_aarfiyshqohlwkmo.tif,67,0.0666666666666667,0.0666666666666667,1.51666666666667,1012.217244791,1013.090731458,13,1012.283472,1012.345970958,1013.119004625,1014.629045625,0,0.873486667000066
104,18,5,categorization,0,bathroom,SHINEd_sun_apynckhmoftszqoq.tif,47,0.0666666666666667,0.0666666666666667,1.3,1014.646525708,1015.865033708,13,1014.713138166,1014.779482708,1015.885866625,1017.179237666,1,1.21850800000004
104,19,5,categorization,0,kitchen,SHINEd_sun_adgqasybjyktddhj.tif,78,0.0666666666666667,0.0666666666666667,1.91666666666667,1017.195847666,1018.162240708,9,1017.262552083,1017.328602041,1018.1851915,1020.095224416,1,0.96639304200005
104,20,5,categorization,0,kitchen,SHINEd_sun_abpwyqmlzafvklqo.tif,72,0.0666666666666667,0.0666666666666667,1.23333333333333,1020.108355041,1021.134604708,9,1020.176448666,1020.241290875,1021.164424375,1022.391116083,1,1.026249667
104,21,5,categorization,0,bathroom,SHINEd_sun_aofnryafpsjimzsb.tif,40,0.0666666666666667,0.0666666666666667,0.866666666666667,1022.402228833,1023.736392,9,1022.468573916,1022.535504666,1023.760622,1024.620627916,0,1.33416316700004
104,22,5,categorization,0,bathroom,SHINEd_sun_aavhrsfjbserjtht.tif,13,0.0666666666666667,0.0666666666666667,0.8,1024.625654791,1025.565416375,9,1024.687291208,1024.748471833,1025.583720416,1026.377059125,0,0.939761584000053
104,23,5,categorization,0,bathroom,SHINEd_sun_acduarbnmmoglmiv.tif,16,0.0666666666666667,0.0666666666666667,1.51666666666667,1026.381753708,1027.381422375,9,1026.443538708,1026.504566583,1027.389842416,1028.899887416,0,0.999668667000151
104,24,5,categorization,0,bathroom,SHINEd_sun_axldvoqbuvuggfmq.tif,57,0.0666666666666667,0.0666666666666667,1.18333333333333,1028.919055458,1029.855387291,9,1028.9855085,1029.052084041,1029.874625041,1031.05132975,0,0.93633183299994
104,25,5,categorization,0,bathroom,SHINEd_sun_ambriybtogmepttm.tif,36,0.0666666666666667,0.0666666666666667,1.6,1031.061164875,1032.405300083,9,1031.127721458,1031.194702708,1032.43771375,1034.031084375,0,1.3441352079999
104,26,5,categorization,0,kitchen,SHINEd_sun_aadbddgrdsjugojn.tif,64,0.0666666666666667,0.0666666666666667,1.56666666666667,1034.048777458,1035.255276,13,1034.115278708,1034.181743625,1035.271139375,1036.831191333,0,1.20649854200019
104,27,5,categorization,0,kitchen,SHINEd_sun_amjjdeyrggfqgmom.tif,100,0.0666666666666667,0.0666666666666667,1.36666666666667,1036.846256041,1037.737025708,13,1036.913164708,1036.975625625,1037.765846666,1039.125883958,0,0.890769666999859
104,28,5,categorization,0,bathroom,SHINEd_sun_azqyogdvyhahyram.tif,60,0.0666666666666667,0.0666666666666667,1.53333333333333,1039.141679958,1039.843432166,13,1039.208907375,1039.274971375,1039.865179208,1041.391899333,1,0.701752208000016
104,29,5,categorization,0,bathroom,SHINEd_sun_agguqiubmwhqqunb.tif,22,0.0666666666666667,0.0666666666666667,1.4,1041.409664,1042.233784375,13,1041.476548625,1041.543226708,1042.248970208,1043.642347041,1,0.824120374999893
104,30,5,categorization,0,kitchen,SHINEd_sun_abftihopvusyfakt.tif,71,0.0666666666666667,0.0666666666666667,1.06666666666667,1043.660434333,1044.96813525,9,1043.728482666,1043.793812083,1044.985116958,1046.045172,1,1.30770091699992
104,31,5,categorization,0,kitchen,SHINEd_sun_admlmbcdswaszruo.tif,79,0.0666666666666667,0.0666666666666667,1.63333333333333,1046.056263125,1047.072526375,9,1046.12154325,1046.1867175,1047.093308416,1048.720027625,1,1.01626325000007
104,32,5,categorization,0,bathroom,SHINEd_sun_aggnnqpdorgxpvce.tif,21,0.0666666666666667,0.0666666666666667,1.8,1048.73808575,1050.214810708,13,1048.804946875,1048.871686458,1050.224543583,1052.017906416,1,1.47672495799998
104,33,5,categorization,0,kitchen,SHINEd_sun_acfmftudsenhrfhy.tif,74,0.0666666666666667,0.0666666666666667,1.53333333333333,1052.036793708,1053.1462335,13,1052.103468166,1052.169882083,1053.176317166,1054.703028875,0,1.1094397920001
104,34,5,categorization,0,bathroom,SHINEd_sun_aunuadmjocsddsrl.tif,52,0.0666666666666667,0.0666666666666667,0.766666666666667,1054.720438333,1055.851093625,13,1054.787354041,1054.853541791,1055.876835583,1056.6368395,1,1.13065529200003
104,35,5,categorization,0,kitchen,SHINEd_sun_aunzlwrbjumxhwdj.tif,103,0.0666666666666667,0.0666666666666667,1.86666666666667,1056.641880708,1057.565637125,13,1056.703661958,1056.764705875,1057.583709208,1059.443738958,0,0.92375641700005
104,36,5,categorization,0,bathroom,SHINEd_sun_ahqjwnzgolcaoidx.tif,29,0.0666666666666667,0.0666666666666667,1.13333333333333,1059.461028625,1060.36853375,13,1059.527880083,1059.594399166,1060.383322541,1061.510033791,1,0.907505125000171
104,37,5,categorization,0,kitchen,SHINEd_sun_aymvwlarqodbwuoc.tif,108,0.0666666666666667,0.0666666666666667,1.73333333333333,1061.520081083,1062.360393958,13,1061.585086708,1061.652876625,1062.3746625,1064.101375,0,0.840312875000109
104,38,5,categorization,0,kitchen,SHINEd_sun_afuyedyxivkhecmu.tif,85,0.0666666666666667,0.0666666666666667,0.766666666666667,1064.110355541,1064.800788,9,1064.17472525,1064.242903375,1064.815191125,1065.575235125,1,0.690432459000021
104,39,5,categorization,0,bathroom,SHINEd_sun_aghyqhbptboemmoq.tif,23,0.0666666666666667,0.0666666666666667,1.85,1065.584338125,1066.597524458,13,1065.646098083,1065.707172708,1066.608962625,1068.452337583,1,1.01318633300002
104,40,5,categorization,0,kitchen,SHINEd_sun_acxkpeoqbwcxfvip.tif,77,0.0666666666666667,0.0666666666666667,0.966666666666667,1068.470311875,1069.158539708,9,1068.536688625,1068.603409458,1069.175823791,1070.135828458,1,0.688227832999928
104,41,5,categorization,0,bathroom,SHINEd_sun_akiytfaagpdsphgz.tif,31,0.0666666666666667,0.0666666666666667,1.06666666666667,1070.141595041,1070.797658541,9,1070.203225791,1070.26446575,1070.816592125,1071.8766465,0,0.656063499999846
104,42,5,categorization,0,bathroom,SHINEd_sun_anryaplzeujmzfkd.tif,39,0.0666666666666667,0.0666666666666667,1.38333333333333,1071.8883715,1072.767923,9,1071.952800916,1072.020195833,1072.793154958,1074.169868625,0,0.879551500000161
104,43,5,categorization,0,bathroom,SHINEd_sun_alkosphxlxwjwgjd.tif,34,0.0666666666666667,0.0666666666666667,0.766666666666667,1074.186159916,1074.994035583,13,1074.252497041,1074.3131765,1075.01871075,1075.778765375,1,0.807875666999962
104,44,5,categorization,0,bathroom,SHINEd_sun_aqrpegblszgcoujh.tif,48,0.0666666666666667,0.0666666666666667,0.866666666666667,1075.794823958,1076.750317541,13,1075.861375791,1075.9274835,1076.7627525,1077.622758041,1,0.955493582999907
104,45,5,categorization,0,bathroom,SHINEd_sun_atstyziqcmkahyxk.tif,51,0.0666666666666667,0.0666666666666667,1.25,1077.627512458,1078.365332208,13,1077.689406208,1077.750214041,1078.368452583,1079.611819041,1,0.737819749999971
104,46,5,categorization,0,kitchen,SHINEd_sun_aegoxogugdkwpmpj.tif,80,0.0666666666666667,0.0666666666666667,1.03333333333333,1079.628126458,1080.19030975,13,1079.694550208,1079.761577916,1080.217514583,1081.244211708,0,0.5621832920001
104,47,5,categorization,0,bathroom,SHINEd_sun_ajlawzvmubibwbpy.tif,30,0.0666666666666667,0.0666666666666667,0.783333333333333,1081.257529125,1081.853604041,13,1081.324291666,1081.39050525,1081.859721625,1082.636392916,1,0.596074915999907
104,48,5,categorization,0,bathroom,SHINEd_sun_agrwbmhcpmfuwmsg.tif,24,0.0666666666666667,0.0666666666666667,0.7,1082.641211708,1083.27723275,13,1082.702811875,1082.764017791,1083.282486958,1083.975825041,1,0.636021042000039
104,49,5,categorization,0,kitchen,SHINEd_sun_aehawpgmrlhlvcow.tif,81,0.0666666666666667,0.0666666666666667,1.75,1083.980683416,1084.989464791,9,1084.042387958,1084.103605583,1085.006076875,1086.749446791,1,1.00878137500013
104,50,5,categorization,0,bathroom,SHINEd_sun_aclfzgynxzxlbepz.tif,19,0.0666666666666667,0.0666666666666667,1.36666666666667,1086.765574875,1087.681402166,13,1086.833184833,1086.898460625,1087.704702916,1089.064737916,1,0.915827290999914
104,1,6,categorization,0,kitchen,SHINEd_sun_aypmqwcualkenuoe.tif,109,0.0666666666666667,0.0666666666666667,0.966666666666667,1113.554039416,1114.65327075,13,1113.616464875,1113.676860166,1114.662157166,1115.622162416,0,1.09923133400002
104,2,6,categorization,0,kitchen,SHINEd_sun_axyyrmzcupyhlivc.tif,107,0.0666666666666667,0.0666666666666667,1.73333333333333,1115.627740541,1116.613741708,13,1115.68942825,1115.750650916,1116.619097125,1118.345782875,0,0.986001166999813
104,3,6,categorization,0,kitchen,SHINEd_sun_aamedkxepzlwuxes.tif,65,0.0666666666666667,0.0666666666666667,1.91666666666667,1118.356464291,1119.649964666,13,1118.424379416,1118.48822975,1119.680703916,1121.59073925,0,1.29350037499989
104,4,6,categorization,0,bathroom,SHINEd_sun_anhioqovhscjqqwb.tif,38,0.0666666666666667,0.0666666666666667,0.766666666666667,1121.60712875,1122.677375041,9,1121.673731125,1121.738835,1122.694622416,1123.454629291,0,1.0702462910001
104,5,6,categorization,0,kitchen,SHINEd_sun_avszsnwsbuqfgzbn.tif,105,0.0666666666666667,0.0666666666666667,0.916666666666667,1123.460128333,1124.477848458,9,1123.521749583,1123.582797458,1124.48458225,1125.394587416,1,1.01772012499987
104,6,6,categorization,0,bathroom,SHINEd_sun_alotolagknyrgtsk.tif,35,0.0666666666666667,0.0666666666666667,1.18333333333333,1125.400630833,1126.261680416,13,1125.462336083,1125.523354583,1126.275793208,1127.452476666,1,0.861049583000067
104,7,6,categorization,0,kitchen,SHINEd_sun_ajkqhtgcbgpcwrwn.tif,97,0.0666666666666667,0.0666666666666667,1.8,1127.462441583,1128.361444166,9,1127.528866166,1127.594739541,1128.384583125,1130.177958083,1,0.899002582999856
104,8,6,categorization,0,kitchen,SHINEd_sun_auticobqsbwgoppi.tif,104,0.0666666666666667,0.0666666666666667,0.883333333333333,1130.194272958,1130.835561416,9,1130.260972458,1130.321625958,1130.861377666,1131.738048125,1,0.641288457999963
104,9,6,categorization,0,kitchen,SHINEd_labelme_kxvouciolcpqplr.tif,62,0.0666666666666667,0.0666666666666667,1.83333333333333,1131.743845125,1132.501146291,9,1131.805558291,1131.866686125,1132.518284291,1134.344968416,1,0.757301165999934
104,10,6,categorization,0,bathroom,SHINEd_sun_avhrdrntsqrjzccq.tif,55,0.0666666666666667,0.0666666666666667,1.76666666666667,1134.3544885,1135.049153625,13,1134.420852541,1134.487318666,1135.077205291,1136.837253041,1,0.694665125000029
104,11,6,categorization,0,bathroom,SHINEd_sun_awnqiikzaispgmwo.tif,56,0.0666666666666667,0.0666666666666667,0.983333333333333,1136.854015833,1138.925700208,13,1136.920439708,1136.98702975,1138.939379791,1139.9160525,1,2.07168437500013
104,12,6,categorization,0,bathroom,SHINEd_sun_aspsyogrekjtfozg.tif,50,0.0666666666666667,0.0666666666666667,0.883333333333333,1139.92116075,1140.877240125,13,1139.982693166,1140.043867291,1140.896253916,1141.77292675,1,0.956079375000172
104,13,6,categorization,0,bathroom,SHINEd_sun_apmqjbnwghzuhhzh.tif,46,0.0666666666666667,0.0666666666666667,0.85,1141.77846325,1142.453430666,13,1141.840356458,1141.901227708,1142.469879166,1143.313217416,1,0.674967416000072
104,14,6,categorization,0,kitchen,SHINEd_sun_abrcnpqqhmjwekyf.tif,73,0.0666666666666667,0.0666666666666667,0.733333333333333,1143.318784166,1144.085597833,13,1143.380528333,1143.44150425,1144.093909458,1144.820580875,0,0.766813667000179
104,15,6,categorization,0,kitchen,SHINEd_labelme_brsyyvweiuaazfr.tif,61,0.0666666666666667,0.0666666666666667,1.88333333333333,1144.826232625,1145.661155333,9,1144.887878125,1144.949228833,1145.668133,1147.54485,1,0.834922707999795
104,16,6,categorization,0,bathroom,SHINEd_sun_ausgutylgojavyoq.tif,53,0.0666666666666667,0.0666666666666667,0.816666666666667,1147.56274075,1148.535998125,13,1147.62922425,1147.695644166,1148.551394083,1149.3614005,1,0.973257375000003
104,17,6,categorization,0,bathroom,SHINEd_sun_aoybiabnpadelefl.tif,41,0.0666666666666667,0.0666666666666667,1.9,1149.36709475,1150.141140875,13,1149.428879916,1149.489880208,1150.158935083,1152.052313875,1,0.774046125000041
104,18,6,categorization,0,bathroom,SHINEd_sun_ahaulkltgpkeeemi.tif,26,0.0666666666666667,0.0666666666666667,0.983333333333333,1152.070072583,1152.98982875,13,1152.136691791,1152.202971208,1153.009447458,1153.986119041,1,0.91975616700006
104,19,6,categorization,0,kitchen,SHINEd_sun_agorklincwxrdtga.tif,87,0.0666666666666667,0.0666666666666667,0.75,1153.992057125,1154.805572583,9,1154.053792833,1154.114990541,1154.817500958,1155.560838,1,0.813515457999983
104,20,6,categorization,0,bathroom,SHINEd_sun_aleqenyvunhactkl.tif,32,0.0666666666666667,0.0666666666666667,1.6,1155.567150916,1156.365352541,9,1155.62886275,1155.689999375,1156.375125416,1157.968491583,0,0.798201625000047
104,21,6,categorization,0,bathroom,SHINEd_sun_apkruvsevgegsdwp.tif,44,0.0666666666666667,0.0666666666666667,1.58333333333333,1157.985642375,1158.627513083,9,1158.052012791,1158.118575208,1158.640606208,1160.217321833,0,0.641870707999942
104,22,6,categorization,0,bathroom,SHINEd_sun_amzlamotzwfkwjco.tif,37,0.0666666666666667,0.0666666666666667,1.11666666666667,1160.235132208,1160.855319875,9,1160.299314416,1160.36837975,1160.874044291,1161.984097666,0,0.620187666999982
104,23,6,categorization,0,kitchen,SHINEd_sun_ajcbwwvdlsvjyzje.tif,96,0.0666666666666667,0.0666666666666667,1.53333333333333,1161.993740625,1162.633864166,13,1162.058278416,1162.126629375,1162.649142791,1164.17584225,0,0.640123540999866
104,24,6,categorization,0,kitchen,SHINEd_sun_awcpdzzznmweyyhv.tif,106,0.0666666666666667,0.0666666666666667,1.48333333333333,1164.193727166,1164.877798416,13,1164.260017958,1164.322966625,1164.895537625,1166.372232666,0,0.684071249999988
104,25,6,categorization,0,kitchen,SHINEd_sun_ahdycvpopffkzzsu.tif,90,0.0666666666666667,0.0666666666666667,1.1,1166.38451,1166.979471041,13,1166.451029208,1166.517407291,1167.006985083,1168.100365625,0,0.594961040999806
104,26,6,categorization,0,bathroom,SHINEd_labelme_sfxiulhjbhlyiyt.tif,11,0.0666666666666667,0.0666666666666667,0.933333333333333,1168.115887208,1168.708965875,13,1168.182147458,1168.240162291,1168.725247875,1169.651919791,1,0.5930786670001
104,27,6,categorization,0,kitchen,SHINEd_sun_aenotlpyftoioydp.tif,82,0.0666666666666667,0.0666666666666667,0.816666666666667,1169.657683,1170.76590675,9,1169.71932225,1169.780496291,1170.782615333,1171.592622,1,1.10822375000021
104,28,6,categorization,0,bathroom,SHINEd_sun_apkxzenqapsujocq.tif,45,0.0666666666666667,0.0666666666666667,1.78333333333333,1171.597906208,1172.237091583,13,1171.659659083,1171.720670791,1172.255744541,1174.032453041,1,0.639185374999897
104,29,6,categorization,0,kitchen,SHINEd_sun_abdenxonkemggwsq.tif,69,0.0666666666666667,0.0666666666666667,0.766666666666667,1174.046174,1174.717840791,13,1174.112824875,1174.179029208,1174.735191166,1175.495197,0,0.671666791000007
104,30,6,categorization,0,kitchen,SHINEd_sun_akchetnepxlcxhsu.tif,98,0.0666666666666667,0.0666666666666667,1.45,1175.500780625,1176.437615208,13,1175.5625175,1175.62358475,1176.442047291,1177.885422583,0,0.936834582999836
104,31,6,categorization,0,kitchen,SHINEd_sun_aeqdocilnnpuvuhx.tif,83,0.0666666666666667,0.0666666666666667,0.75,1177.902160625,1178.682204458,9,1177.968581291,1178.035100041,1178.708247125,1179.451627333,1,0.780043832999809
104,32,6,categorization,0,bathroom,SHINEd_sun_apeeialkgkuxddgh.tif,42,0.0666666666666667,0.0666666666666667,1.36666666666667,1179.468655375,1180.645037583,13,1179.533969125,1179.592657291,1180.661617125,1182.021668958,1,1.17638220799995
104,33,6,categorization,0,kitchen,SHINEd_labelme_rykdqxenmhulbdn.tif,63,0.0666666666666667,0.0666666666666667,0.75,1182.038902166,1182.907407666,9,1182.10544575,1182.172156333,1182.927588666,1183.670964041,1,0.868505499999856
104,34,6,categorization,0,kitchen,SHINEd_sun_aggjlwcdjsjcaemh.tif,86,0.0666666666666667,0.0666666666666667,0.783333333333333,1183.684675875,1184.285410125,9,1183.747158416,1183.807512708,1184.292553041,1185.069223708,1,0.60073424999996
104,35,6,categorization,0,kitchen,SHINEd_sun_acwjdupvyjsugpay.tif,76,0.0666666666666667,0.0666666666666667,1.11666666666667,1185.073974583,1185.725255833,9,1185.135651666,1185.196744333,1185.732094875,1186.842150375,1,0.651281249999784
104,36,6,categorization,0,kitchen,SHINEd_sun_auaiucuqpdausiva.tif,102,0.0666666666666667,0.0666666666666667,0.766666666666667,1186.851731583,1187.470186625,9,1186.916191291,1186.984559083,1187.490771,1188.250824041,1,0.618455042000051
104,37,6,categorization,0,bathroom,SHINEd_sun_abapwbhyhkfixyex.tif,14,0.0666666666666667,0.0666666666666667,0.716666666666667,1188.266198458,1188.814884333,9,1188.331342541,1188.399469833,1188.839179833,1189.54918375,0,0.548685875000047
104,38,6,categorization,0,kitchen,SHINEd_sun_aqeaevwwwjoqhzvl.tif,101,0.0666666666666667,0.0666666666666667,1.33333333333333,1189.554673333,1190.045843333,9,1189.616348333,1189.677539458,1190.0632395,1191.38994325,1,0.491170000000011
104,39,6,categorization,0,kitchen,SHINEd_sun_aaxxjlsuzvqlgylf.tif,68,0.0666666666666667,0.0666666666666667,1.75,1191.406616541,1191.859649791,9,1191.473230125,1191.539400958,1191.878682208,1193.622048958,1,0.45303325000009
104,40,6,categorization,0,kitchen,SHINEd_sun_agubuxuukhzyzpdp.tif,88,0.0666666666666667,0.0666666666666667,1.13333333333333,1193.638328458,1194.10378525,9,1193.704836791,1193.771618166,1194.127973333,1195.254672916,1,0.465456792000168
104,41,6,categorization,0,kitchen,SHINEd_sun_agzzivivdpnawacl.tif,89,0.0666666666666667,0.0666666666666667,1.63333333333333,1195.270420375,1195.744729875,9,1195.337076416,1195.403412333,1195.758785083,1197.385490541,1,0.474309500000118
104,42,6,categorization,0,kitchen,SHINEd_sun_aixorpehvfykdynp.tif,95,0.0666666666666667,0.0666666666666667,1.43333333333333,1197.403522125,1198.102282958,9,1197.470322041,1197.536587083,1198.1263505,1199.553060666,1,0.698760832999824
104,43,6,categorization,0,bathroom,SHINEd_sun_axxbkopsgyouuebh.tif,58,0.0666666666666667,0.0666666666666667,1.83333333333333,1199.567492083,1200.3110755,9,1199.633776333,1199.700261666,1200.32065425,1202.147373958,0,0.743583417000082
104,44,6,categorization,0,bathroom,SHINEd_sun_acgyywnybuveqsro.tif,18,0.0666666666666667,0.0666666666666667,1.93333333333333,1202.165516125,1202.901538,13,1202.231732208,1202.293930666,1202.916276041,1204.842995166,1,0.736021875000006
104,45,6,categorization,0,bathroom,SHINEd_sun_auzqhkafidnkrwmo.tif,54,0.0666666666666667,0.0666666666666667,1.26666666666667,1204.860978375,1205.856322875,13,1204.927558041,1204.99390325,1205.883699083,1207.143746666,1,0.995344499999874
104,46,6,categorization,0,kitchen,SHINEd_sun_abdxkyyxwfskuaqb.tif,70,0.0666666666666667,0.0666666666666667,1.86666666666667,1207.159919333,1208.198631708,13,1207.22668975,1207.2929495,1208.215487833,1210.075524291,0,1.03871237499993
104,47,6,categorization,0,kitchen,SHINEd_sun_aapllqyqlykszopd.tif,66,0.0666666666666667,0.0666666666666667,1.41666666666667,1210.092259291,1211.365561333,13,1210.159270041,1210.225233375,1211.377755666,1212.787807458,0,1.27330204200007
104,48,6,categorization,0,bathroom,SHINEd_sun_ahijqszoswveeyji.tif,28,0.0666666666666667,0.0666666666666667,1.11666666666667,1212.805572,1214.396652083,13,1212.871945416,1212.938510333,1214.409452041,1215.519491791,1,1.59108008299995
104,49,6,categorization,0,bathroom,SHINEd_sun_apjevzvycyhuqghb.tif,43,0.0666666666666667,0.0666666666666667,1.8,1215.529384,1216.477813458,9,1215.594402875,1215.66218,1216.501863958,1218.295222541,0,0.948429457999964
104,50,6,categorization,0,bathroom,SHINEd_sun_agyqfjcfkdcydepw.tif,25,0.0666666666666667,0.0666666666666667,1.25,1218.30665725,1219.916969958,9,1218.3736805,1218.43935925,1219.925358125,1221.168748,0,1.61031270800004
104,1,7,categorization,0,kitchen,SHINEd_sun_aixorpehvfykdynp.tif,95,0.0666666666666667,0.0666666666666667,0.883333333333333,1228.937478625,1230.252938416,13,1228.999169,1229.060625166,1230.263294916,1231.139966458,0,1.31545979099997
104,2,7,categorization,0,bathroom,SHINEd_sun_anryaplzeujmzfkd.tif,39,0.0666666666666667,0.0666666666666667,1.03333333333333,1231.145556416,1231.861541208,9,1231.207355125,1231.268426041,1231.870268833,1232.8969825,0,0.715984791999972
104,3,7,categorization,0,kitchen,SHINEd_sun_azmutvzbxypaceni.tif,110,0.0666666666666667,0.0666666666666667,1.06666666666667,1232.909779291,1233.86963425,9,1232.975435333,1233.041234333,1233.897724833,1234.957782166,1,0.95985495900004
104,4,7,categorization,0,kitchen,SHINEd_sun_ahdycvpopffkzzsu.tif,90,0.0666666666666667,0.0666666666666667,0.833333333333333,1234.96900075,1235.636663083,9,1235.030917583,1235.092180083,1235.644179458,1236.470850875,1,0.667662332999953
104,5,7,categorization,0,bathroom,SHINEd_sun_ajlawzvmubibwbpy.tif,30,0.0666666666666667,0.0666666666666667,0.716666666666667,1236.475765791,1237.068936958,9,1236.537439666,1236.598577041,1237.084021375,1237.794024708,0,0.593171167000037
104,6,7,categorization,0,kitchen,SHINEd_sun_aymvwlarqodbwuoc.tif,108,0.0666666666666667,0.0666666666666667,0.733333333333333,1237.800392041,1238.573008083,13,1237.862137958,1237.92320425,1238.591706541,1239.318379875,0,0.772616042000209
104,7,7,categorization,0,bathroom,SHINEd_sun_awnqiikzaispgmwo.tif,56,0.0666666666666667,0.0666666666666667,1.38333333333333,1239.323905583,1240.885649333,13,1239.38559325,1239.446759458,1240.89942825,1242.276130958,1,1.56174375000001
104,8,7,categorization,0,bathroom,SHINEd_sun_akiytfaagpdsphgz.tif,31,0.0666666666666667,0.0666666666666667,0.9,1242.290486916,1243.174593958,13,1242.3566405,1242.423461791,1243.196705625,1244.090045708,1,0.884107042000096
104,9,7,categorization,0,kitchen,SHINEd_sun_abftihopvusyfakt.tif,71,0.0666666666666667,0.0666666666666667,0.816666666666667,1244.095796208,1245.637125,9,1244.157511958,1244.21856225,1245.654303083,1246.464306791,1,1.54132879200006
104,10,7,categorization,0,bathroom,SHINEd_sun_alotolagknyrgtsk.tif,35,0.0666666666666667,0.0666666666666667,0.85,1246.469399041,1247.596665166,9,1246.531237416,1246.592218625,1247.610866583,1248.454204875,0,1.12726612500001
104,11,7,categorization,0,kitchen,SHINEd_sun_aarfiyshqohlwkmo.tif,67,0.0666666666666667,0.0666666666666667,1.6,1248.459086,1249.43738425,13,1248.520712125,1248.581834666,1249.450892166,1251.044278625,0,0.978298249999852
104,12,7,categorization,0,bathroom,SHINEd_sun_agguqiubmwhqqunb.tif,22,0.0666666666666667,0.0666666666666667,1.75,1251.060275875,1251.999641708,9,1251.126908125,1251.193842333,1252.016165541,1253.759539041,0,0.939365833000011
104,13,7,categorization,0,bathroom,SHINEd_sun_azqyogdvyhahyram.tif,60,0.0666666666666667,0.0666666666666667,1.1,1253.776914833,1254.880091083,9,1253.843456125,1253.909973291,1254.899431916,1255.99281825,0,1.10317624999993
104,14,7,categorization,0,bathroom,SHINEd_sun_ahijqszoswveeyji.tif,28,0.0666666666666667,0.0666666666666667,1.46666666666667,1256.001793833,1256.811221208,9,1256.066910375,1256.13489125,1256.841439166,1258.301479375,0,0.809427375000041
104,15,7,categorization,0,bathroom,SHINEd_sun_aghyqhbptboemmoq.tif,23,0.0666666666666667,0.0666666666666667,1.25,1258.31167875,1259.446321875,13,1258.378145291,1258.444591,1259.467633,1260.711011166,1,1.13464312499991
104,16,7,categorization,0,bathroom,SHINEd_sun_abjtwfukuwddzted.tif,15,0.0666666666666667,0.0666666666666667,1.13333333333333,1260.724944416,1262.505874708,9,1260.791663,1260.857595708,1262.53282475,1263.659540958,0,1.78093029199999
104,17,7,categorization,0,kitchen,SHINEd_sun_aexklacwqwezaorf.tif,84,0.0666666666666667,0.0666666666666667,1.33333333333333,1263.668894625,1264.731146875,13,1263.733820333,1263.801940333,1264.758441125,1266.085163958,0,1.06225225000003
104,18,7,categorization,0,kitchen,SHINEd_sun_abdxkyyxwfskuaqb.tif,70,0.0666666666666667,0.0666666666666667,1.86666666666667,1266.101876041,1266.846802375,9,1266.168725875,1266.234729125,1266.874640708,1268.734697208,1,0.744926333999956
104,19,7,categorization,0,kitchen,SHINEd_sun_afuyedyxivkhecmu.tif,85,0.0666666666666667,0.0666666666666667,1.58333333333333,1268.751884333,1269.472574166,9,1268.818628333,1268.884696125,1269.490646333,1271.067351666,1,0.720689833000051
104,20,7,categorization,0,kitchen,SHINEd_sun_aapllqyqlykszopd.tif,66,0.0666666666666667,0.0666666666666667,1.05,1271.084997583,1272.17355675,9,1271.151458583,1271.218312,1272.191308166,1273.234686125,1,1.08855916700008
104,21,7,categorization,0,kitchen,SHINEd_sun_ahspylgoovwmwvgk.tif,93,0.0666666666666667,0.0666666666666667,0.9,1273.244962208,1273.850793625,9,1273.310386708,1273.37661775,1273.865547416,1274.758913708,1,0.60583141699999
104,22,7,categorization,0,kitchen,SHINEd_sun_axyyrmzcupyhlivc.tif,107,0.0666666666666667,0.0666666666666667,0.7,1274.775238083,1275.517019791,9,1274.841833916,1274.907915458,1275.527070541,1276.2204085,1,0.741781707999962
104,23,7,categorization,0,bathroom,SHINEd_sun_apmqjbnwghzuhhzh.tif,46,0.0666666666666667,0.0666666666666667,0.933333333333333,1276.225192875,1276.972459166,13,1276.287079875,1276.347967041,1276.983479083,1277.910151625,1,0.74726629099996
104,24,7,categorization,0,kitchen,SHINEd_sun_acxkpeoqbwcxfvip.tif,77,0.0666666666666667,0.0666666666666667,1.95,1277.916450583,1278.557170416,13,1277.978372875,1278.039272875,1278.57450075,1280.517886375,0,0.640719833000048
104,25,7,categorization,0,kitchen,SHINEd_sun_acwjdupvyjsugpay.tif,76,0.0666666666666667,0.0666666666666667,1.06666666666667,1280.535286291,1281.259039708,9,1280.601717666,1280.66791925,1281.273074083,1282.333126166,1,0.723753417000125
104,26,7,categorization,0,bathroom,SHINEd_sun_agrwbmhcpmfuwmsg.tif,24,0.0666666666666667,0.0666666666666667,1.2,1282.342285,1282.911171875,9,1282.407399291,1282.473964125,1282.930417,1284.123803,0,0.568886875000089
104,27,7,categorization,0,kitchen,SHINEd_sun_aeqdocilnnpuvuhx.tif,83,0.0666666666666667,0.0666666666666667,0.75,1284.141119791,1285.917184458,9,1284.207808333,1284.273913916,1285.926317458,1286.669656708,1,1.77606466700013
104,28,7,categorization,0,bathroom,SHINEd_sun_ahcvzmoyaycdoftf.tif,27,0.0666666666666667,0.0666666666666667,0.816666666666667,1286.675288958,1287.437290791,13,1286.736969041,1286.798268875,1287.450307,1288.26031025,1,0.762001832999886
104,29,7,categorization,0,kitchen,SHINEd_sun_agubuxuukhzyzpdp.tif,88,0.0666666666666667,0.0666666666666667,1.96666666666667,1288.266393375,1289.133072541,13,1288.328091416,1288.3892235,1289.141211041,1291.10124675,0,0.86667916600004
104,30,7,categorization,0,bathroom,SHINEd_sun_acduarbnmmoglmiv.tif,16,0.0666666666666667,0.0666666666666667,1.2,1291.118559083,1292.381179041,13,1291.185131625,1291.2515845,1292.387095875,1293.5804815,1,1.26261995799996
104,31,7,categorization,0,bathroom,SHINEd_sun_ahqjwnzgolcaoidx.tif,29,0.0666666666666667,0.0666666666666667,0.883333333333333,1293.592218458,1294.295612208,13,1293.65983475,1293.725530875,1294.31329325,1295.190013541,1,0.703393750000032
104,32,7,categorization,0,kitchen,SHINEd_sun_aqeaevwwwjoqhzvl.tif,101,0.0666666666666667,0.0666666666666667,1.33333333333333,1295.205199958,1296.252518333,13,1295.271322458,1295.338041041,1296.2571685,1297.583883125,0,1.0473183749998
104,33,7,categorization,0,bathroom,SHINEd_sun_aqrpegblszgcoujh.tif,48,0.0666666666666667,0.0666666666666667,1.45,1297.601037875,1298.558172375,13,1297.66731175,1297.733955,1298.572873916,1300.016240541,1,0.957134499999938
104,34,7,categorization,0,bathroom,SHINEd_labelme_sfxiulhjbhlyiyt.tif,11,0.0666666666666667,0.0666666666666667,1.15,1300.03453425,1300.830166625,13,1300.100978458,1300.16746175,1300.857137333,1302.000526208,1,0.795632374999968
104,35,7,categorization,0,bathroom,SHINEd_sun_axxbkopsgyouuebh.tif,58,0.0666666666666667,0.0666666666666667,0.966666666666667,1302.009834,1302.626381208,13,1302.076344291,1302.142776458,1302.64932025,1303.609352583,1,0.616547208000156
104,36,7,categorization,0,kitchen,SHINEd_sun_aegoxogugdkwpmpj.tif,80,0.0666666666666667,0.0666666666666667,1.45,1303.625312291,1304.708853125,13,1303.691695291,1303.758279708,1304.727074916,1306.170458041,0,1.0835408339999
104,37,7,categorization,0,bathroom,SHINEd_sun_aggnnqpdorgxpvce.tif,21,0.0666666666666667,0.0666666666666667,0.8,1306.186571958,1308.004411166,9,1306.253175916,1306.313338583,1308.015866666,1308.809204625,0,1.8178392079999
104,38,7,categorization,0,kitchen,SHINEd_sun_awcpdzzznmweyyhv.tif,106,0.0666666666666667,0.0666666666666667,1.45,1308.81601125,1309.388634291,9,1308.877799291,1308.938830125,1309.407456458,1310.850834291,1,0.572623041000043
104,39,7,categorization,0,bathroom,SHINEd_sun_avhrdrntsqrjzccq.tif,55,0.0666666666666667,0.0666666666666667,1.1,1310.867855166,1311.572994375,9,1310.934340458,1311.000869208,1311.590100291,1312.683465208,0,0.705139208999981
104,40,7,categorization,0,kitchen,SHINEd_sun_abpwyqmlzafvklqo.tif,72,0.0666666666666667,0.0666666666666667,1.16666666666667,1312.693443333,1313.345912875,9,1312.758156875,1312.826168,1313.366093166,1314.526127416,1,0.652469542000063
104,41,7,categorization,0,bathroom,SHINEd_sun_apynckhmoftszqoq.tif,47,0.0666666666666667,0.0666666666666667,1.31666666666667,1314.543438291,1315.285173833,9,1314.609956458,1314.675301,1315.294566666,1316.604617041,0,0.741735542000015
104,42,7,categorization,0,kitchen,SHINEd_sun_ajcbwwvdlsvjyzje.tif,96,0.0666666666666667,0.0666666666666667,1.68333333333333,1316.619816583,1317.688418958,13,1316.68612575,1316.752827791,1317.70931875,1319.386033875,0,1.06860237499995
104,43,7,categorization,0,bathroom,SHINEd_sun_agyqfjcfkdcydepw.tif,25,0.0666666666666667,0.0666666666666667,0.966666666666667,1319.399941625,1320.4151735,13,1319.466422708,1319.532709625,1320.439357958,1321.399364291,1,1.01523187499993
104,44,7,categorization,0,bathroom,SHINEd_sun_apeeialkgkuxddgh.tif,42,0.0666666666666667,0.0666666666666667,1.4,1321.405003916,1322.308478375,13,1321.466771833,1321.527797791,1322.312874541,1323.706259666,1,0.903474459000108
104,45,7,categorization,0,bathroom,SHINEd_sun_atstyziqcmkahyxk.tif,51,0.0666666666666667,0.0666666666666667,0.783333333333333,1323.722940375,1324.454505041,13,1323.789549583,1323.855757208,1324.477366833,1325.2540765,1,0.73156466599994
104,46,7,categorization,0,kitchen,SHINEd_sun_aaxxjlsuzvqlgylf.tif,68,0.0666666666666667,0.0666666666666667,1.08333333333333,1325.270016333,1326.500439083,9,1325.336676833,1325.395220916,1326.514276875,1327.590982833,1,1.23042274999989
104,47,7,categorization,0,kitchen,SHINEd_sun_ahljzhgcdpomplvg.tif,91,0.0666666666666667,0.0666666666666667,1.43333333333333,1327.601010291,1328.773593625,9,1327.666062041,1327.734020875,1328.791151208,1330.21785525,1,1.17258333400014
104,48,7,categorization,0,kitchen,SHINEd_sun_amjjdeyrggfqgmom.tif,100,0.0666666666666667,0.0666666666666667,1.75,1330.235006208,1332.084814916,9,1330.299884083,1330.365619958,1332.101501916,1333.844878458,1,1.84980870799996
104,49,7,categorization,0,bathroom,SHINEd_sun_ausgutylgojavyoq.tif,53,0.0666666666666667,0.0666666666666667,1.21666666666667,1333.86203625,1334.565348791,13,1333.928817125,1333.994924208,1334.584034,1335.794062333,1,0.703312540999832
104,50,7,categorization,0,kitchen,SHINEd_sun_ajkqhtgcbgpcwrwn.tif,97,0.0666666666666667,0.0666666666666667,1.31666666666667,1335.810011083,1336.736981125,13,1335.876602958,1335.943044708,1336.766118541,1338.076173916,0,0.926970041999994
104,1,8,categorization,0,bathroom,SHINEd_sun_axyrejkiiaqiurjk.tif,59,0.0666666666666667,0.0666666666666667,1.18333333333333,1346.083529583,1347.612693166,13,1346.146062708,1346.206371875,1347.625518625,1348.802227916,1,1.52916358300013
104,2,8,categorization,0,kitchen,SHINEd_sun_aypmqwcualkenuoe.tif,109,0.0666666666666667,0.0666666666666667,0.983333333333333,1348.811286,1349.71636325,9,1348.878001708,1348.94418875,1349.733464458,1350.710173708,1,0.905077249999977
104,3,8,categorization,0,kitchen,SHINEd_labelme_kxvouciolcpqplr.tif,62,0.0666666666666667,0.0666666666666667,1.65,1350.720809333,1351.500856625,9,1350.782733416,1350.844050791,1351.512846333,1353.156216083,1,0.780047292000063
104,4,8,categorization,0,kitchen,SHINEd_sun_ahpczsiumwwocjkv.tif,92,0.0666666666666667,0.0666666666666667,1.23333333333333,1353.174318125,1353.887149458,9,1353.240775125,1353.307307666,1353.913731583,1355.140453583,1,0.712831333000167
104,5,8,categorization,0,bathroom,SHINEd_sun_aapitsgbtktqubfy.tif,12,0.0666666666666667,0.0666666666666667,0.916666666666667,1355.156359458,1356.1505055,9,1355.223044291,1355.289029708,1356.178707875,1357.088713416,0,0.994146042000011
104,6,8,categorization,0,kitchen,SHINEd_sun_auaiucuqpdausiva.tif,102,0.0666666666666667,0.0666666666666667,1.56666666666667,1357.094411208,1357.980908166,9,1357.156178083,1357.217224375,1357.986284375,1359.546335041,1,0.886496957999952
104,7,8,categorization,0,bathroom,SHINEd_sun_ahaulkltgpkeeemi.tif,26,0.0666666666666667,0.0666666666666667,1.63333333333333,1359.564005166,1360.255030458,13,1359.630277375,1359.696950708,1360.269035125,1361.895733666,1,0.691025291999949
104,8,8,categorization,0,kitchen,SHINEd_sun_admlmbcdswaszruo.tif,79,0.0666666666666667,0.0666666666666667,1.1,1361.913918541,1362.549115166,13,1361.979833958,1362.046857333,1362.569865541,1363.663249791,0,0.635196625000162
104,9,8,categorization,0,bathroom,SHINEd_sun_aofnryafpsjimzsb.tif,40,0.0666666666666667,0.0666666666666667,1.38333333333333,1363.6744,1365.097086708,13,1363.739173375,1363.805948041,1365.113281916,1366.489991625,1,1.4226867079999
104,10,8,categorization,0,bathroom,SHINEd_sun_aspsyogrekjtfozg.tif,50,0.0666666666666667,0.0666666666666667,0.766666666666667,1366.507204041,1367.252665166,13,1366.574063791,1366.639972708,1367.279829166,1368.039874833,1,0.74546112500002
104,11,8,categorization,0,kitchen,SHINEd_sun_auticobqsbwgoppi.tif,104,0.0666666666666667,0.0666666666666667,1.45,1368.0559215,1368.644473041,9,1368.122540583,1368.188967125,1368.657563375,1370.100931666,1,0.588551541000015
104,12,8,categorization,0,kitchen,SHINEd_sun_akcjzhbbjlbogpdi.tif,99,0.0666666666666667,0.0666666666666667,0.983333333333333,1370.11775625,1370.768665916,9,1370.184219,1370.250532833,1370.790493916,1371.767168,1,0.650909665999961
104,13,8,categorization,0,bathroom,SHINEd_sun_auzqhkafidnkrwmo.tif,54,0.0666666666666667,0.0666666666666667,0.716666666666667,1371.772945666,1372.692597291,13,1371.834671375,1371.895743541,1372.697785583,1373.407791625,1,0.919651625000142
104,14,8,categorization,0,kitchen,SHINEd_labelme_brsyyvweiuaazfr.tif,61,0.0666666666666667,0.0666666666666667,1.41666666666667,1373.413245666,1374.340529833,9,1373.474995083,1373.536456875,1374.354955125,1375.7649975,1,0.927284166999925
104,15,8,categorization,0,kitchen,SHINEd_sun_aadbddgrdsjugojn.tif,64,0.0666666666666667,0.0666666666666667,1.21666666666667,1375.781819166,1376.48678775,9,1375.848309291,1375.91505025,1376.50413325,1377.714174791,1,0.704968583999971
104,16,8,categorization,0,kitchen,SHINEd_sun_aggjlwcdjsjcaemh.tif,86,0.0666666666666667,0.0666666666666667,1.61666666666667,1377.727127875,1378.650596916,9,1377.793472833,1377.859803541,1378.665421875,1380.275463333,1,0.923469041000089
104,17,8,categorization,0,bathroom,SHINEd_sun_aavhrsfjbserjtht.tif,13,0.0666666666666667,0.0666666666666667,0.783333333333333,1380.2911965,1381.270986458,9,1380.3562675,1380.424148125,1381.297191791,1382.073863208,0,0.979789957999856
104,18,8,categorization,0,kitchen,SHINEd_sun_avszsnwsbuqfgzbn.tif,105,0.0666666666666667,0.0666666666666667,1.98333333333333,1382.079685375,1382.852439791,9,1382.141497416,1382.2024855,1382.871305708,1384.848027041,1,0.772754415999998
104,19,8,categorization,0,bathroom,SHINEd_sun_amzlamotzwfkwjco.tif,37,0.0666666666666667,0.0666666666666667,0.983333333333333,1384.868858708,1386.244832625,9,1384.935450083,1385.001761708,1386.25474025,1387.23141225,0,1.37597391700001
104,20,8,categorization,0,bathroom,SHINEd_sun_aunuadmjocsddsrl.tif,52,0.0666666666666667,0.0666666666666667,0.8,1387.237037166,1388.244983375,9,1387.298570416,1387.359881,1388.26226925,1389.05560775,0,1.00794620900001
104,21,8,categorization,0,bathroom,SHINEd_sun_afcoljnjfoxjtgja.tif,20,0.0666666666666667,0.0666666666666667,0.733333333333333,1389.061145833,1390.052688416,9,1389.12286175,1389.183833,1390.069352666,1390.79602375,0,0.991542582999955
104,22,8,categorization,0,kitchen,SHINEd_sun_abdenxonkemggwsq.tif,69,0.0666666666666667,0.0666666666666667,0.966666666666667,1390.800765833,1392.212965791,9,1390.86254075,1390.923596416,1392.226024958,1393.186031041,1,1.41219995799997
104,23,8,categorization,0,kitchen,SHINEd_sun_abrcnpqqhmjwekyf.tif,73,0.0666666666666667,0.0666666666666667,0.866666666666667,1393.191591833,1394.31704675,9,1393.253284375,1393.314340208,1394.332734958,1395.1927395,1,1.12545491699984
104,24,8,categorization,0,bathroom,SHINEd_sun_apkruvsevgegsdwp.tif,44,0.0666666666666667,0.0666666666666667,1.23333333333333,1395.198999333,1396.156006583,13,1395.260701958,1395.321825083,1396.1743435,1397.401063916,1,0.957007249999833
104,25,8,categorization,0,bathroom,SHINEd_sun_asfwthctfqerjvxr.tif,49,0.0666666666666667,0.0666666666666667,1.9,1397.418030291,1398.498394041,13,1397.484550916,1397.550809666,1398.523425041,1400.416791583,1,1.08036375000006
104,26,8,categorization,0,kitchen,SHINEd_sun_agorklincwxrdtga.tif,87,0.0666666666666667,0.0666666666666667,0.866666666666667,1400.434365291,1402.364194,9,1400.501117375,1400.567215791,1402.369563541,1403.229568125,1,1.92982870900005
104,27,8,categorization,0,bathroom,SHINEd_sun_acegryoqftbzowsg.tif,17,0.0666666666666667,0.0666666666666667,0.966666666666667,1403.234417208,1404.124202083,9,1403.296310875,1403.35717375,1404.142782291,1405.102786958,0,0.889784875000032
104,28,8,categorization,0,bathroom,SHINEd_sun_ambriybtogmepttm.tif,36,0.0666666666666667,0.0666666666666667,0.916666666666667,1405.108315958,1406.108589375,9,1405.170072166,1405.231066625,1406.116843291,1407.026847208,0,1.00027341700002
104,29,8,categorization,0,kitchen,SHINEd_sun_acgtpgfybqjmzeyw.tif,75,0.0666666666666667,0.0666666666666667,0.916666666666667,1407.032025166,1408.652142291,9,1407.093904708,1407.154793791,1408.65733225,1409.567335708,1,1.62011712499998
104,30,8,categorization,0,bathroom,SHINEd_sun_apkxzenqapsujocq.tif,45,0.0666666666666667,0.0666666666666667,1.4,1409.572219375,1410.436215333,13,1409.633932583,1409.694978791,1410.446802166,1411.84017925,1,0.863995958000032
104,31,8,categorization,0,bathroom,SHINEd_sun_aclfzgynxzxlbepz.tif,19,0.0666666666666667,0.0666666666666667,1.75,1411.855223541,1412.737282541,13,1411.922726041,1411.988160041,1412.761213541,1414.5045945,1,0.882059000000027
104,32,8,categorization,0,bathroom,SHINEd_sun_apjevzvycyhuqghb.tif,43,0.0666666666666667,0.0666666666666667,1.25,1414.522072333,1415.3750465,13,1414.588247375,1414.655222416,1415.394599166,1416.637976625,1,0.852974166999957
104,33,8,categorization,0,kitchen,SHINEd_sun_agzzivivdpnawacl.tif,89,0.0666666666666667,0.0666666666666667,1.05,1416.654992708,1417.857787541,13,1416.72131375,1416.788043541,1417.877872541,1418.921256333,0,1.2027948330001
104,34,8,categorization,0,bathroom,SHINEd_sun_abapwbhyhkfixyex.tif,14,0.0666666666666667,0.0666666666666667,1.06666666666667,1418.934164541,1420.463669208,13,1418.999626333,1419.06557725,1420.491003416,1421.5510385,1,1.52950466700008
104,35,8,categorization,0,bathroom,SHINEd_sun_aoybiabnpadelefl.tif,41,0.0666666666666667,0.0666666666666667,1.21666666666667,1421.56177475,1422.6069375,13,1421.626897208,1421.694035791,1422.633927791,1423.843966,1,1.04516274999992
104,36,8,categorization,0,kitchen,SHINEd_sun_ahywdevtimnqcsln.tif,94,0.0666666666666667,0.0666666666666667,0.95,1423.861394,1425.38957575,9,1423.929217666,1423.994115541,1425.420490041,1426.363827208,1,1.52818174999993
104,37,8,categorization,0,kitchen,SHINEd_sun_acfmftudsenhrfhy.tif,74,0.0666666666666667,0.0666666666666667,0.9,1426.368693666,1427.220450291,9,1426.430496375,1426.491535708,1427.227078291,1428.120415833,1,0.851756625000007
104,38,8,categorization,0,bathroom,SHINEd_sun_acgyywnybuveqsro.tif,18,0.0666666666666667,0.0666666666666667,1.78333333333333,1428.12513825,1429.380664666,13,1428.186835458,1428.247871833,1429.400428375,1431.177132,1,1.25552641600007
104,39,8,categorization,0,bathroom,SHINEd_sun_alkosphxlxwjwgjd.tif,34,0.0666666666666667,0.0666666666666667,1.16666666666667,1431.194143541,1432.579895458,13,1431.260855416,1431.327087875,1432.596413625,1433.756447375,1,1.38575191700011
104,40,8,categorization,0,bathroom,SHINEd_sun_aljolscmmzydegqp.tif,33,0.0666666666666667,0.0666666666666667,0.783333333333333,1433.767175791,1434.919398291,13,1433.833482,1433.900056416,1434.939274125,1435.715948625,1,1.15222250000011
104,41,8,categorization,0,kitchen,SHINEd_sun_aehawpgmrlhlvcow.tif,81,0.0666666666666667,0.0666666666666667,1.23333333333333,1435.721467958,1436.860887458,9,1435.783176333,1435.844679916,1436.880278125,1438.106993958,1,1.13941950000003
104,42,8,categorization,0,bathroom,SHINEd_sun_axldvoqbuvuggfmq.tif,57,0.0666666666666667,0.0666666666666667,0.9,1438.123537958,1439.6047465,9,1438.191249208,1438.256858708,1439.632951583,1440.526288583,0,1.48120854199988
104,43,8,categorization,0,bathroom,SHINEd_sun_anhioqovhscjqqwb.tif,38,0.0666666666666667,0.0666666666666667,0.7,1440.53223975,1441.420494166,13,1440.593984041,1440.655007333,1441.440537875,1442.13387475,1,0.888254416000109
104,44,8,categorization,0,kitchen,SHINEd_sun_aamedkxepzlwuxes.tif,65,0.0666666666666667,0.0666666666666667,1.23333333333333,1442.139361916,1442.923834,13,1442.200994375,1442.262272958,1442.931020208,1444.157731041,0,0.784472083999844
104,45,8,categorization,0,kitchen,SHINEd_sun_akchetnepxlcxhsu.tif,98,0.0666666666666667,0.0666666666666667,1,1444.171552083,1444.845197375,13,1444.238344375,1444.299585375,1444.872677041,1445.866051708,0,0.673645291999946
104,46,8,categorization,0,kitchen,SHINEd_labelme_rykdqxenmhulbdn.tif,63,0.0666666666666667,0.0666666666666667,1.38333333333333,1445.885346958,1446.732174833,9,1445.951791083,1446.012026375,1446.747368583,1448.124076041,1,0.846827875000145
104,47,8,categorization,0,kitchen,SHINEd_sun_aunzlwrbjumxhwdj.tif,103,0.0666666666666667,0.0666666666666667,1.3,1448.141272333,1449.022392875,9,1448.209189041,1448.274197625,1449.047991625,1450.3413425,1,0.881120541999962
104,48,8,categorization,0,kitchen,SHINEd_sun_aenotlpyftoioydp.tif,82,0.0666666666666667,0.0666666666666667,0.833333333333333,1450.35097275,1451.394319375,13,1450.417620875,1450.484171291,1451.423971875,1452.250644291,0,1.04334662499991
104,49,8,categorization,0,kitchen,SHINEd_sun_adgqasybjyktddhj.tif,78,0.0666666666666667,0.0666666666666667,0.95,1452.256326166,1452.932712541,9,1452.318093416,1452.379073666,1452.947751708,1453.891089583,1,0.676386374999993
104,50,8,categorization,0,bathroom,SHINEd_sun_aleqenyvunhactkl.tif,32,0.0666666666666667,0.0666666666666667,1.43333333333333,1453.895748708,1454.619808583,13,1453.957368,1454.018504583,1454.636980041,1456.063689291,1,0.724059874999966
104,1,9,categorization,0,kitchen,SHINEd_sun_aapllqyqlykszopd.tif,66,0.0666666666666667,0.0666666666666667,1.08333333333333,1461.89390575,1463.052301375,9,1461.956441458,1462.016768958,1463.068995375,1464.145690291,1,1.15839562500014
104,2,9,categorization,0,bathroom,SHINEd_sun_alkosphxlxwjwgjd.tif,34,0.0666666666666667,0.0666666666666667,0.8,1464.155646541,1465.295296125,13,1464.221125875,1464.287722875,1465.3105,1466.103867416,1,1.13964958400015
104,3,9,categorization,0,kitchen,SHINEd_sun_abdenxonkemggwsq.tif,69,0.0666666666666667,0.0666666666666667,0.833333333333333,1466.11828375,1467.091840083,9,1466.181545125,1466.241371,1467.110124208,1467.936798041,1,0.973556333000033
104,4,9,categorization,0,kitchen,SHINEd_sun_aggjlwcdjsjcaemh.tif,86,0.0666666666666667,0.0666666666666667,1.45,1467.942426541,1468.764617166,9,1468.004199791,1468.065271625,1468.78385375,1470.227231583,1,0.822190625000076
104,5,9,categorization,0,kitchen,SHINEd_sun_acfmftudsenhrfhy.tif,74,0.0666666666666667,0.0666666666666667,1.3,1470.244024208,1470.986466708,9,1470.307872375,1470.376688791,1471.015866833,1472.309224875,1,0.742442500000152
104,6,9,categorization,0,bathroom,SHINEd_sun_axyrejkiiaqiurjk.tif,59,0.0666666666666667,0.0666666666666667,1.21666666666667,1472.318534958,1473.2340435,9,1472.383426416,1472.451200125,1473.257489,1474.467533833,0,0.915508541999998
104,7,9,categorization,0,kitchen,SHINEd_sun_aymvwlarqodbwuoc.tif,108,0.0666666666666667,0.0666666666666667,0.733333333333333,1474.477863625,1475.987918041,13,1474.5444415,1474.610731375,1476.018414333,1476.745085875,0,1.510054416
104,8,9,categorization,0,bathroom,SHINEd_sun_atstyziqcmkahyxk.tif,51,0.0666666666666667,0.0666666666666667,1.03333333333333,1476.75047625,1477.388007833,13,1476.8121765,1476.873285541,1477.392300708,1478.419011,1,0.637531583000055
104,9,9,categorization,0,kitchen,SHINEd_labelme_kxvouciolcpqplr.tif,62,0.0666666666666667,0.0666666666666667,1.1,1478.428796958,1479.721402041,9,1478.493035583,1478.56042125,1479.75117525,1480.844555333,1,1.2926050829999
