sub_num,trial,block,task,is_practice,category,image,texture,duration,mask_dur,jitter,stim_time,time_of_resp,trial_response,mask_time,fix_time,jit_onset,trial_end,trial_accuracy,RT
104,1,13,categorization,0,kitchen,SHINEd_sun_abftihopvusyfakt.tif,71,0.0666666666666667,0.0666666666666667,0.933333333333333,2002.592734166,2003.946074125,9,2002.655460375,2002.715681458,2003.951673291,2004.878346041,1,1.3533399590001
104,2,13,categorization,0,bathroom,SHINEd_sun_aqrpegblszgcoujh.tif,48,0.0666666666666667,0.0666666666666667,1.36666666666667,2004.883755708,2006.041874375,9,2004.945532375,2005.006365708,2006.058139666,2007.418170041,0,1.15811866699983
104,3,13,categorization,0,bathroom,SHINEd_sun_apjevzvycyhuqghb.tif,43,0.0666666666666667,0.0666666666666667,1.88333333333333,2007.429993166,2008.238378708,9,2007.494789,2007.55578875,2008.263063166,2010.139777166,0,0.808385541999996
104,4,13,categorization,0,bathroom,SHINEd_sun_abapwbhyhkfixyex.tif,14,0.0666666666666667,0.0666666666666667,1.35,2010.159148166,2011.093407666,13,2010.225879416,2010.290451708,2011.112531958,2012.455908541,1,0.934259500000053
104,5,13,categorization,0,kitchen,SHINEd_sun_aarfiyshqohlwkmo.tif,67,0.0666666666666667,0.0666666666666667,1.3,2012.475563125,2014.817268666,13,2012.542049291,2012.60862275,2014.828016,2016.121400333,0,2.34170554100001
104,6,13,categorization,0,kitchen,SHINEd_sun_akchetnepxlcxhsu.tif,98,0.0666666666666667,0.0666666666666667,1.93333333333333,2016.138486083,2016.865884083,13,2016.206569625,2016.27152,2016.895051083,2018.821751958,0,0.727397999999994
104,7,13,categorization,0,kitchen,SHINEd_sun_acxkpeoqbwcxfvip.tif,77,0.0666666666666667,0.0666666666666667,0.95,2018.836094708,2019.737749041,13,2018.90282025,2018.969074666,2019.758315208,2020.701653208,0,0.901654332999897
104,8,13,categorization,0,bathroom,SHINEd_sun_atstyziqcmkahyxk.tif,51,0.0666666666666667,0.0666666666666667,1.56666666666667,2020.706787,2021.329324416,13,2020.768619125,2020.829591166,2021.348528166,2022.908564583,1,0.622537415999886
104,9,13,categorization,0,kitchen,SHINEd_sun_admlmbcdswaszruo.tif,79,0.0666666666666667,0.0666666666666667,1.3,2022.926780333,2023.643501083,13,2022.993182458,2023.059632791,2023.666178125,2024.959547541,0,0.71672075000015
104,10,13,categorization,0,kitchen,SHINEd_sun_ajcbwwvdlsvjyzje.tif,96,0.0666666666666667,0.0666666666666667,1.3,2024.977770583,2025.836394166,13,2025.044233291,2025.11080475,2025.849445541,2027.142829625,0,0.858623583000053
104,11,13,categorization,0,bathroom,SHINEd_sun_aleqenyvunhactkl.tif,32,0.0666666666666667,0.0666666666666667,1.03333333333333,2027.160255166,2027.940174875,13,2027.227718791,2027.293407541,2027.966530041,2028.993206458,1,0.779919708999842
104,12,13,categorization,0,bathroom,SHINEd_sun_apeeialkgkuxddgh.tif,42,0.0666666666666667,0.0666666666666667,1.93333333333333,2028.999022291,2029.737941583,13,2029.060744458,2029.121891916,2029.75768675,2031.684389708,1,0.738919291999991
104,13,13,categorization,0,kitchen,SHINEd_sun_awcpdzzznmweyyhv.tif,106,0.0666666666666667,0.0666666666666667,0.966666666666667,2031.702429833,2032.4458365,13,2031.769716166,2031.835437125,2032.476062,2033.436068041,0,0.743406667000045
104,14,13,categorization,0,bathroom,SHINEd_sun_aavhrsfjbserjtht.tif,13,0.0666666666666667,0.0666666666666667,0.916666666666667,2033.441959208,2034.313634583,13,2033.503694833,2033.56476425,2034.333406833,2035.243411541,1,0.871675374999995
104,15,13,categorization,0,bathroom,SHINEd_sun_asfwthctfqerjvxr.tif,49,0.0666666666666667,0.0666666666666667,1.3,2035.248108958,2036.050290291,13,2035.309867375,2035.370900041,2036.056681583,2037.35006725,1,0.802181332999908
104,16,13,categorization,0,kitchen,SHINEd_sun_acgtpgfybqjmzeyw.tif,75,0.0666666666666667,0.0666666666666667,0.75,2037.365839916,2038.014766291,9,2037.432053083,2037.499116041,2038.038592708,2038.781965208,1,0.648926374999974
104,17,13,categorization,0,bathroom,SHINEd_sun_apkruvsevgegsdwp.tif,44,0.0666666666666667,0.0666666666666667,1.03333333333333,2038.797953166,2039.314101333,9,2038.864151583,2038.930558083,2039.333132416,2040.359829916,0,0.516148166999983
104,18,13,categorization,0,kitchen,SHINEd_sun_aunzlwrbjumxhwdj.tif,103,0.0666666666666667,0.0666666666666667,1.28333333333333,2040.368724375,2041.13343575,9,2040.433824625,2040.50024075,2041.15676075,2042.433472125,1,0.764711374999933
104,19,13,categorization,0,bathroom,SHINEd_sun_ambriybtogmepttm.tif,36,0.0666666666666667,0.0666666666666667,1.25,2042.442247375,2043.601235291,13,2042.504755958,2042.565043583,2043.617381416,2044.860761666,1,1.15898791599989
104,20,13,categorization,0,bathroom,SHINEd_sun_aofnryafpsjimzsb.tif,40,0.0666666666666667,0.0666666666666667,1.75,2044.877705083,2045.651710791,9,2044.944052708,2045.010986708,2045.666558958,2047.40994175,0,0.774005708000004
104,21,13,categorization,0,kitchen,SHINEd_sun_auticobqsbwgoppi.tif,104,0.0666666666666667,0.0666666666666667,1.76666666666667,2047.427999958,2048.356357083,9,2047.49465375,2047.56079875,2048.381590333,2050.141624375,1,0.928357125000048
104,22,13,categorization,0,kitchen,SHINEd_sun_afuyedyxivkhecmu.tif,85,0.0666666666666667,0.0666666666666667,0.733333333333333,2050.158957125,2050.793972833,9,2050.225244833,2050.290557916,2050.813559125,2051.540233875,1,0.635015708000083
104,23,13,categorization,0,bathroom,SHINEd_sun_agguqiubmwhqqunb.tif,22,0.0666666666666667,0.0666666666666667,1.43333333333333,2051.5459575,2052.161339,9,2051.607629166,2051.668683791,2052.170720875,2053.597436291,0,0.61538150000024
104,24,13,categorization,0,kitchen,SHINEd_sun_amjjdeyrggfqgmom.tif,100,0.0666666666666667,0.0666666666666667,1.81666666666667,2053.615333125,2054.26195,9,2053.681603541,2053.748747,2054.288294125,2056.098332791,1,0.646616875000291
104,25,13,categorization,0,kitchen,SHINEd_sun_adgqasybjyktddhj.tif,78,0.0666666666666667,0.0666666666666667,0.95,2056.114737041,2056.677768333,9,2056.18136625,2056.247572666,2056.704517458,2057.647855166,1,0.563031292000232
104,26,13,categorization,0,bathroom,SHINEd_sun_aoybiabnpadelefl.tif,41,0.0666666666666667,0.0666666666666667,0.783333333333333,2057.653135166,2058.297928208,9,2057.714728291,2057.775906333,2058.311319291,2059.087990458,0,0.644793041999947
104,27,13,categorization,0,bathroom,SHINEd_sun_afcoljnjfoxjtgja.tif,20,0.0666666666666667,0.0666666666666667,1.66666666666667,2059.092757416,2059.674147083,9,2059.154515083,2059.215634791,2059.684192041,2061.344239916,0,0.581389667000167
104,28,13,categorization,0,kitchen,SHINEd_sun_aaxxjlsuzvqlgylf.tif,68,0.0666666666666667,0.0666666666666667,1.18333333333333,2061.361519291,2062.021993916,9,2061.428074916,2061.494918041,2062.051311875,2063.228022583,1,0.660474625000006
104,29,13,categorization,0,kitchen,SHINEd_sun_abpwyqmlzafvklqo.tif,72,0.0666666666666667,0.0666666666666667,1.58333333333333,2063.238502916,2063.771314708,9,2063.305058916,2063.371539541,2063.795077083,2065.371798666,1,0.532811791999848
104,30,13,categorization,0,bathroom,SHINEd_sun_ausgutylgojavyoq.tif,53,0.0666666666666667,0.0666666666666667,1.1,2065.384902541,2066.233908083,13,2065.451428666,2065.51826775,2066.258412958,2067.351792833,1,0.849005542000214
104,31,13,categorization,0,kitchen,SHINEd_labelme_brsyyvweiuaazfr.tif,61,0.0666666666666667,0.0666666666666667,1.78333333333333,2067.363667583,2068.483488833,13,2067.428257708,2067.496565958,2068.502535416,2070.279239833,0,1.11982125000031
104,32,13,categorization,0,bathroom,SHINEd_sun_ahqjwnzgolcaoidx.tif,29,0.0666666666666667,0.0666666666666667,1.78333333333333,2070.29178925,2071.266969375,13,2070.356418791,2070.425544416,2071.281021416,2073.057739041,1,0.975180124999952
104,33,13,categorization,0,kitchen,SHINEd_sun_auaiucuqpdausiva.tif,102,0.0666666666666667,0.0666666666666667,1.08333333333333,2073.075712916,2074.017462833,13,2073.14201525,2073.208334833,2074.048044625,2075.124763291,0,0.941749916999925
104,34,13,categorization,0,bathroom,SHINEd_sun_agyqfjcfkdcydepw.tif,25,0.0666666666666667,0.0666666666666667,1.66666666666667,2075.137520708,2076.030503625,13,2075.202493875,2075.270403291,2076.060010208,2077.720041833,1,0.892982917000154
104,35,13,categorization,0,kitchen,SHINEd_sun_aeqdocilnnpuvuhx.tif,83,0.0666666666666667,0.0666666666666667,1.58333333333333,2077.73381425,2078.890016541,9,2077.800365791,2077.866747875,2078.905949375,2080.482651916,1,1.15620229100023
104,36,13,categorization,0,bathroom,SHINEd_sun_aapitsgbtktqubfy.tif,12,0.0666666666666667,0.0666666666666667,1.26666666666667,2080.499547125,2081.2991725,13,2080.566074916,2080.631942916,2081.321576166,2082.581610791,1,0.799625375000232
104,37,13,categorization,0,kitchen,SHINEd_sun_aegoxogugdkwpmpj.tif,80,0.0666666666666667,0.0666666666666667,0.966666666666667,2082.599198375,2083.2995465,13,2082.66583975,2082.732399666,2083.322239875,2084.282296625,0,0.700348124999891
104,38,13,categorization,0,kitchen,SHINEd_sun_aehawpgmrlhlvcow.tif,81,0.0666666666666667,0.0666666666666667,0.9,2084.293890208,2085.209888166,13,2084.357503041,2084.417628583,2085.220106208,2086.113443083,0,0.915997957999934
104,39,13,categorization,0,bathroom,SHINEd_sun_aggnnqpdorgxpvce.tif,21,0.0666666666666667,0.0666666666666667,1.46666666666667,2086.118207166,2087.305360708,13,2086.179887041,2086.24096925,2087.310257625,2088.770292541,1,1.18715354200003
104,40,13,categorization,0,kitchen,SHINEd_sun_ahspylgoovwmwvgk.tif,93,0.0666666666666667,0.0666666666666667,1.5,2088.78690025,2089.531703916,9,2088.853528208,2088.920182041,2089.55989025,2091.053268291,1,0.744803665999825
104,41,13,categorization,0,kitchen,SHINEd_sun_aggjlwcdjsjcaemh.tif,86,0.0666666666666667,0.0666666666666667,0.716666666666667,2091.069853,2091.747359875,9,2091.136422958,2091.203174083,2091.776248375,2092.486288375,1,0.677506874999835
104,42,13,categorization,0,kitchen,SHINEd_sun_aymvwlarqodbwuoc.tif,108,0.0666666666666667,0.0666666666666667,1.5,2092.502097208,2093.105767833,9,2092.568675666,2092.635107,2093.120835708,2094.61420575,1,0.603670624999722
104,43,13,categorization,0,kitchen,SHINEd_sun_aenotlpyftoioydp.tif,82,0.0666666666666667,0.0666666666666667,0.866666666666667,2094.631968708,2095.409337875,9,2094.699124,2094.765734541,2095.439636375,2096.299644458,1,0.777369166999961
104,44,13,categorization,0,kitchen,SHINEd_sun_aapllqyqlykszopd.tif,66,0.0666666666666667,0.0666666666666667,0.933333333333333,2096.305205791,2097.049589291,9,2096.3668925,2096.427955416,2097.063723875,2097.990393875,1,0.744383499999913
104,45,13,categorization,0,bathroom,SHINEd_sun_auzqhkafidnkrwmo.tif,54,0.0666666666666667,0.0666666666666667,1.55,2097.995609541,2099.177945916,13,2098.057440458,2098.118451958,2099.187633041,2100.731016208,1,1.18233637500043
104,46,13,categorization,0,kitchen,SHINEd_sun_ahywdevtimnqcsln.tif,94,0.0666666666666667,0.0666666666666667,1.3,2100.748313458,2101.874076125,13,2100.814916125,2100.881234166,2101.9039485,2103.197335458,0,1.12576266699989
104,47,13,categorization,0,kitchen,SHINEd_sun_abdxkyyxwfskuaqb.tif,70,0.0666666666666667,0.0666666666666667,1.78333333333333,2103.214217416,2104.042432041,9,2103.280661291,2103.34756375,2104.0705485,2105.847257208,1,0.828214625000328
104,48,13,categorization,0,bathroom,SHINEd_sun_ajlawzvmubibwbpy.tif,30,0.0666666666666667,0.0666666666666667,1.8,2105.864306833,2107.066310041,13,2105.930891375,2105.997448875,2107.087141333,2108.88051975,1,1.20200320800041
104,49,13,categorization,0,bathroom,SHINEd_sun_aunuadmjocsddsrl.tif,52,0.0666666666666667,0.0666666666666667,0.816666666666667,2108.899309458,2109.967359916,13,2108.965817416,2109.032277875,2109.98849825,2110.798503958,1,1.06805045800002
104,50,13,categorization,0,bathroom,SHINEd_sun_apmqjbnwghzuhhzh.tif,46,0.0666666666666667,0.0666666666666667,0.966666666666667,2110.803948791,2111.712868708,13,2110.86577225,2110.926777666,2111.728893375,2112.688896833,1,0.908919916999821
