sub_num,trial,block,task,is_practice,category,image,texture,duration,mask_dur,jitter,stim_time,time_of_resp,trial_response,mask_time,fix_time,jit_onset,trial_end,trial_accuracy,RT
104,1,1,categorization,0,kitchen,SHINEd_sun_adgqasybjyktddhj.tif,78,0.0666666666666667,0.0666666666666667,1.23333333333333,478.982771,480.008930791,9,479.045282958,479.105834875,480.02500475,481.251718,1,1.026159791
104,2,1,categorization,0,kitchen,SHINEd_sun_ajkqhtgcbgpcwrwn.tif,97,0.0666666666666667,0.0666666666666667,0.783333333333333,481.268788041,482.529900458,13,481.336035041,481.401897291,482.561955875,483.338627583,0,1.26111241699999
104,3,1,categorization,0,bathroom,SHINEd_sun_agguqiubmwhqqunb.tif,22,0.0666666666666667,0.0666666666666667,0.75,483.344217333,484.680550166,13,483.40588925,483.467010875,484.68579,485.429129041,1,1.33633283299997
104,4,1,categorization,0,bathroom,SHINEd_sun_apjevzvycyhuqghb.tif,43,0.0666666666666667,0.0666666666666667,1.23333333333333,485.434473416,487.312350208,13,485.4961155,485.557334583,487.32634825,488.553059875,1,1.877876792
104,5,1,categorization,0,bathroom,SHINEd_sun_apmqjbnwghzuhhzh.tif,46,0.0666666666666667,0.0666666666666667,1.13333333333333,488.569692875,489.809977458,13,488.637592041,488.702768791,489.824628,490.951349833,1,1.240284583
104,6,1,categorization,0,kitchen,SHINEd_sun_aenotlpyftoioydp.tif,82,0.0666666666666667,0.0666666666666667,0.95,490.962369583,491.7779205,9,491.02716925,491.095157833,491.801739333,492.745106083,1,0.815550916999996
104,7,1,categorization,0,kitchen,SHINEd_labelme_kxvouciolcpqplr.tif,62,0.0666666666666667,0.0666666666666667,0.733333333333333,492.758308875,493.712023166,9,492.824917916,492.891385375,493.727387541,494.45406,1,0.953714290999983
104,8,1,categorization,0,bathroom,SHINEd_sun_auzqhkafidnkrwmo.tif,54,0.0666666666666667,0.0666666666666667,1.31666666666667,494.458870333,495.232040375,9,494.520610583,494.581693125,495.250721291,496.560758708,0,0.773170042000004
104,9,1,categorization,0,kitchen,SHINEd_sun_aapllqyqlykszopd.tif,66,0.0666666666666667,0.0666666666666667,0.8,496.577507375,497.682141666,9,496.64412625,496.71100575,497.700103,498.493441625,1,1.10463429100002
104,10,1,categorization,0,bathroom,SHINEd_sun_apeeialkgkuxddgh.tif,42,0.0666666666666667,0.0666666666666667,0.716666666666667,498.4988455,499.54441425,13,498.560614833,498.621738875,499.55721625,500.267222875,1,1.04556874999997
104,11,1,categorization,0,kitchen,SHINEd_sun_ahspylgoovwmwvgk.tif,93,0.0666666666666667,0.0666666666666667,0.916666666666667,500.272713083,501.192835333,9,500.334616458,500.395459208,501.1978205,502.107825208,1,0.92012225000002
104,12,1,categorization,0,bathroom,SHINEd_sun_apkruvsevgegsdwp.tif,44,0.0666666666666667,0.0666666666666667,0.95,502.1132245,503.016236375,9,502.175177041,502.235833416,503.021141541,503.964478875,0,0.903011875000004
104,13,1,categorization,0,kitchen,SHINEd_labelme_rykdqxenmhulbdn.tif,63,0.0666666666666667,0.0666666666666667,0.833333333333333,503.970537,505.312676666,13,504.032290958,504.093282083,505.329122,506.155794291,0,1.34213966600004
104,14,1,categorization,0,bathroom,SHINEd_sun_akiytfaagpdsphgz.tif,31,0.0666666666666667,0.0666666666666667,0.75,506.161141583,507.480918208,9,506.222828541,506.283911125,507.486238666,508.229576791,0,1.31977662499997
104,15,1,categorization,0,kitchen,SHINEd_sun_aaxxjlsuzvqlgylf.tif,68,0.0666666666666667,0.0666666666666667,1.53333333333333,508.2341285,509.079988291,9,508.295983708,508.356896833,509.092152625,510.618868833,1,0.845859791000009
104,16,1,categorization,0,kitchen,SHINEd_sun_auaiucuqpdausiva.tif,102,0.0666666666666667,0.0666666666666667,1.05,510.639594916,511.74776975,9,510.705906708,510.772568791,511.761373,512.804744041,1,1.10817483399995
104,17,1,categorization,0,bathroom,SHINEd_labelme_sfxiulhjbhlyiyt.tif,11,0.0666666666666667,0.0666666666666667,0.9,512.815548541,513.561410541,13,512.880138875,512.947570875,513.5874085,514.480795,1,0.745861999999988
104,18,1,categorization,0,kitchen,SHINEd_sun_axyyrmzcupyhlivc.tif,107,0.0666666666666667,0.0666666666666667,1.18333333333333,514.496013333,515.600389416,13,514.562739708,514.628985,515.614763625,516.791470583,0,1.10437608300003
104,19,1,categorization,0,bathroom,SHINEd_sun_ahqjwnzgolcaoidx.tif,29,0.0666666666666667,0.0666666666666667,0.9,516.801614291,517.51648175,13,516.868074875,516.934543,517.540646416,518.434027083,1,0.714867459000061
104,20,1,categorization,0,bathroom,SHINEd_sun_abjtwfukuwddzted.tif,15,0.0666666666666667,0.0666666666666667,1.66666666666667,518.450147125,520.208482458,13,518.516400166,518.582992458,520.218625958,521.878670416,1,1.7583353330001
104,21,1,categorization,0,kitchen,SHINEd_sun_aeqdocilnnpuvuhx.tif,83,0.0666666666666667,0.0666666666666667,1.13333333333333,521.896216541,523.069436916,9,521.962907083,522.02943225,523.08529925,524.212017833,1,1.17322037500003
104,22,1,categorization,0,bathroom,SHINEd_sun_apkxzenqapsujocq.tif,45,0.0666666666666667,0.0666666666666667,1.3,524.222838625,525.043853833,13,524.287682125,524.351506416,525.056936416,526.350301791,1,0.821015207999949
104,23,1,categorization,0,kitchen,SHINEd_sun_aixorpehvfykdynp.tif,95,0.0666666666666667,0.0666666666666667,1.93333333333333,526.361141666,527.780740416,9,526.427935958,526.494132833,527.802462541,529.729169083,1,1.41959874999998
104,24,1,categorization,0,bathroom,SHINEd_sun_anryaplzeujmzfkd.tif,39,0.0666666666666667,0.0666666666666667,1,529.746267583,531.968106166,9,529.81276975,529.87920675,531.981804291,532.97514425,0,2.22183858300002
104,25,1,categorization,0,kitchen,SHINEd_sun_aunzlwrbjumxhwdj.tif,103,0.0666666666666667,0.0666666666666667,0.883333333333333,532.9806705,534.207826916,9,533.042414791,533.103469708,534.2226285,535.099299166,1,1.22715641600007
104,26,1,categorization,0,bathroom,SHINEd_sun_aofnryafpsjimzsb.tif,40,0.0666666666666667,0.0666666666666667,1.95,535.103811791,536.560685708,13,535.165668875,535.226675791,536.578897875,538.522282791,1,1.45687391700005
104,27,1,categorization,0,bathroom,SHINEd_sun_aapitsgbtktqubfy.tif,12,0.0666666666666667,0.0666666666666667,1.25,538.539516916,539.784048,13,538.606260791,538.672636583,539.791877541,541.035246583,1,1.24453108399996
104,28,1,categorization,0,bathroom,SHINEd_sun_axxbkopsgyouuebh.tif,58,0.0666666666666667,0.0666666666666667,1.95,541.05303325,541.738982,13,541.120141166,541.186534416,541.759553625,543.702928375,1,0.685948749999966
104,29,1,categorization,0,kitchen,SHINEd_sun_ahywdevtimnqcsln.tif,94,0.0666666666666667,0.0666666666666667,1.91666666666667,543.7219385,544.425492958,13,543.788625375,543.854940208,544.44489375,546.354934333,0,0.703554457999985
104,30,1,categorization,0,bathroom,SHINEd_sun_ahaulkltgpkeeemi.tif,26,0.0666666666666667,0.0666666666666667,1.41666666666667,546.365709833,548.184618416,13,546.432625041,546.498525458,548.20127575,549.6113165,1,1.81890858300005
104,31,1,categorization,0,bathroom,SHINEd_sun_anhioqovhscjqqwb.tif,38,0.0666666666666667,0.0666666666666667,0.716666666666667,549.628648541,551.488471625,13,549.695745333,549.761725708,551.497784291,552.207790375,1,1.85982308400003
104,32,1,categorization,0,kitchen,SHINEd_sun_akcjzhbbjlbogpdi.tif,99,0.0666666666666667,0.0666666666666667,1.28333333333333,552.213189166,553.184074125,9,552.274948375,552.33597,553.188285416,554.4649865,1,0.970884959000045
104,33,1,categorization,0,kitchen,SHINEd_sun_agubuxuukhzyzpdp.tif,88,0.0666666666666667,0.0666666666666667,0.9,554.483273916,555.136731708,9,554.55081275,554.616185333,555.154980791,556.048366708,1,0.653457791999926
104,34,1,categorization,0,kitchen,SHINEd_sun_ahpczsiumwwocjkv.tif,92,0.0666666666666667,0.0666666666666667,0.8,556.062656791,556.727970791,9,556.1292425,556.195305125,556.747737416,557.541076875,1,0.665313999999967
104,35,1,categorization,0,bathroom,SHINEd_sun_aspsyogrekjtfozg.tif,50,0.0666666666666667,0.0666666666666667,1.01666666666667,557.546787583,558.360091875,13,557.608535875,557.66966275,558.371270666,559.38131375,1,0.813304291999998
104,36,1,categorization,0,kitchen,SHINEd_sun_aypmqwcualkenuoe.tif,109,0.0666666666666667,0.0666666666666667,0.85,559.393466833,560.861463916,9,559.459176333,559.524975541,560.881190041,561.724529958,1,1.467997083
104,37,1,categorization,0,bathroom,SHINEd_sun_axyrejkiiaqiurjk.tif,59,0.0666666666666667,0.0666666666666667,1.51666666666667,561.730290041,562.967693083,13,561.79204675,561.853073916,562.972032375,564.482080916,1,1.23740304199998
104,38,1,categorization,0,bathroom,SHINEd_sun_abapwbhyhkfixyex.tif,14,0.0666666666666667,0.0666666666666667,1.83333333333333,564.497087791,565.591501291,9,564.563404,564.630104541,565.619214541,567.445913125,0,1.09441349999997
104,39,1,categorization,0,kitchen,SHINEd_sun_ajcbwwvdlsvjyzje.tif,96,0.0666666666666667,0.0666666666666667,0.716666666666667,567.463502125,569.07194,9,567.531251333,567.596433375,569.082222125,569.792227833,1,1.60843787500005
104,40,1,categorization,0,bathroom,SHINEd_sun_axldvoqbuvuggfmq.tif,57,0.0666666666666667,0.0666666666666667,0.9,569.797394708,570.655643166,9,569.859098916,569.9201845,570.672406291,571.565744916,0,0.858248458000048
104,41,1,categorization,0,kitchen,SHINEd_sun_avszsnwsbuqfgzbn.tif,105,0.0666666666666667,0.0666666666666667,0.916666666666667,571.571291791,572.656026416,9,571.6330355,571.694171541,572.662802166,573.572807458,1,1.08473462500001
104,42,1,categorization,0,bathroom,SHINEd_sun_ausgutylgojavyoq.tif,53,0.0666666666666667,0.0666666666666667,0.816666666666667,573.578314333,574.615948333,13,573.640071416,573.701277291,574.620041208,575.430045833,1,1.03763400000003
104,43,1,categorization,0,kitchen,SHINEd_sun_admlmbcdswaszruo.tif,79,0.0666666666666667,0.0666666666666667,1.88333333333333,575.436600083,577.239618,13,575.498317333,575.559438791,577.245333833,579.122052208,0,1.80301791699992
104,44,1,categorization,0,bathroom,SHINEd_sun_aghyqhbptboemmoq.tif,23,0.0666666666666667,0.0666666666666667,0.9,579.139939083,580.512365875,13,579.206367625,579.273012416,580.525681291,581.41902,1,1.37242679200006
104,45,1,categorization,0,kitchen,SHINEd_sun_aamedkxepzlwuxes.tif,65,0.0666666666666667,0.0666666666666667,1,581.424583583,582.439993125,9,581.486309,581.547463583,582.449222,583.442561875,1,1.01540954200004
104,46,1,categorization,0,kitchen,SHINEd_sun_aadbddgrdsjugojn.tif,64,0.0666666666666667,0.0666666666666667,0.733333333333333,583.448247916,584.647801041,9,583.509947666,583.571086,584.656490958,585.383162416,1,1.19955312499997
104,47,1,categorization,0,kitchen,SHINEd_sun_abdxkyyxwfskuaqb.tif,70,0.0666666666666667,0.0666666666666667,0.883333333333333,585.388684916,585.991708791,9,585.450426125,585.511461125,585.9968535,586.873524416,1,0.603023874999963
104,48,1,categorization,0,kitchen,SHINEd_sun_acfmftudsenhrfhy.tif,74,0.0666666666666667,0.0666666666666667,1.73333333333333,586.878266666,587.64804225,9,586.940013875,587.001193875,587.653575,589.380290583,1,0.769775584000058
104,49,1,categorization,0,bathroom,SHINEd_sun_acegryoqftbzowsg.tif,17,0.0666666666666667,0.0666666666666667,1.91666666666667,589.39721875,590.113940375,9,589.463588625,589.530481583,590.137335958,592.047383166,0,0.716721624999991
104,50,1,categorization,0,kitchen,SHINEd_sun_aggjlwcdjsjcaemh.tif,86,0.0666666666666667,0.0666666666666667,1.35,592.065994708,592.892145083,13,592.132637791,592.198811125,592.922310583,594.265689208,0,0.826150374999997
