sub_num,trial,block,task,is_practice,category,image,texture,duration,mask_dur,jitter,stim_time,time_of_resp,trial_response,mask_time,fix_time,jit_onset,trial_end,trial_accuracy,RT
110,1,0,categorization,1,bathroom,SHINEd_bathroom_practice3.tif,113,0.0666666666666667,0.0666666666666667,1.21666666666667,592.868813375,595.858073208,9,592.934592125,592.995635166,595.883230416,597.09342075,0,2.98925983300001
110,2,0,categorization,1,kitchen,SHINEd_kitchen_practice1.tif,116,0.0666666666666667,0.0666666666666667,1.36666666666667,597.152385708,605.736645833,9,597.224569791,597.286400208,605.756078333,607.116275708,1,8.58426012500001
110,3,0,categorization,1,kitchen,SHINEd_kitchen_practice3.tif,118,0.0666666666666667,0.0666666666666667,1.85,607.168916875,609.170128041,13,607.242569458,607.3036025,609.189754041,611.033249083,0,2.00121116599996
110,4,0,categorization,1,bathroom,SHINEd_bathroom_practice5.tif,115,0.0666666666666667,0.0666666666666667,1.55,611.059340666,632.5543295,13,611.128880458,611.192491833,632.578335791,634.121862833,1,21.494988834
110,5,0,categorization,1,bathroom,SHINEd_bathroom_practice2.tif,112,0.0666666666666667,0.0666666666666667,1.48333333333333,634.151001791,635.627932291,13,634.22361325,634.285124333,635.658844125,637.136318333,1,1.47693049999998
110,6,0,categorization,1,kitchen,SHINEd_kitchen_practice5.tif,120,0.0666666666666667,0.0666666666666667,1.15,637.163181916,638.793636125,13,637.231633291,637.296727666,638.819300458,639.962803875,0,1.63045420900005
110,7,0,categorization,1,kitchen,SHINEd_kitchen_practice2.tif,117,0.0666666666666667,0.0666666666666667,0.733333333333333,639.973116208,641.53056025,9,640.039814625,640.106831916,641.54824275,642.274914083,1,1.55744404200004
110,8,0,categorization,1,bathroom,SHINEd_bathroom_practice4.tif,114,0.0666666666666667,0.0666666666666667,1.6,642.279722041,643.449958708,13,642.341573625,642.402484583,643.454278333,645.047649708,1,1.17023666700004
110,9,0,categorization,1,bathroom,SHINEd_bathroom_practice1.tif,111,0.0666666666666667,0.0666666666666667,0.716666666666667,645.066993833,647.617991166,13,645.13373475,645.199938458,647.635435375,648.345441083,1,2.55099733300005
110,10,0,categorization,1,kitchen,SHINEd_kitchen_practice4.tif,119,0.0666666666666667,0.0666666666666667,1.21666666666667,648.350457041,649.730491291,13,648.412212125,648.4732445,649.742224625,650.952270375,0,1.38003424999999
110,1,0,categorization,1,bathroom,SHINEd_bathroom_practice3.tif,113,0.0666666666666667,0.0666666666666667,1.21666666666667,666.887999833,668.330537291,13,666.950335166,667.010908916,668.346322666,669.556359666,1,1.44253745800006
110,2,0,categorization,1,kitchen,SHINEd_kitchen_practice1.tif,116,0.0666666666666667,0.0666666666666667,1.36666666666667,669.576654791,670.835005416,9,669.644233,669.71069625,670.852681625,672.21271325,1,1.25835062499993
110,3,0,categorization,1,kitchen,SHINEd_kitchen_practice3.tif,118,0.0666666666666667,0.0666666666666667,1.85,672.232226125,673.558111791,13,672.300385875,672.366010416,673.575045625,675.418417583,0,1.32588566599998
110,4,0,categorization,1,bathroom,SHINEd_bathroom_practice5.tif,115,0.0666666666666667,0.0666666666666667,1.55,675.440631291,676.632983666,9,675.508364375,675.574507958,676.648669458,678.19205325,0,1.19235237499993
110,5,0,categorization,1,bathroom,SHINEd_bathroom_practice2.tif,112,0.0666666666666667,0.0666666666666667,1.48333333333333,678.213195208,679.009318125,13,678.281235416,678.347191083,679.038357541,680.515073125,1,0.796122917000048
110,6,0,categorization,1,kitchen,SHINEd_kitchen_practice5.tif,120,0.0666666666666667,0.0666666666666667,1.15,680.537090666,683.097750291,13,680.605069708,680.671099958,683.106672916,684.250043125,0,2.56065962499997
110,7,0,categorization,1,kitchen,SHINEd_kitchen_practice2.tif,117,0.0666666666666667,0.0666666666666667,0.733333333333333,684.259762041,685.432382458,13,684.327035458,684.392704625,685.450939875,686.177615375,0,1.17262041699996
110,8,0,categorization,1,bathroom,SHINEd_bathroom_practice4.tif,114,0.0666666666666667,0.0666666666666667,1.6,686.183089625,688.4901615,13,686.2447145,686.305822916,688.508134958,690.101526875,1,2.30707187500002
110,9,0,categorization,1,bathroom,SHINEd_bathroom_practice1.tif,111,0.0666666666666667,0.0666666666666667,0.716666666666667,690.125145833,691.625836708,13,690.19270075,690.258521291,691.644954958,692.354959958,1,1.50069087499992
110,10,0,categorization,1,kitchen,SHINEd_kitchen_practice4.tif,119,0.0666666666666667,0.0666666666666667,1.21666666666667,692.359470541,693.177911125,13,692.4212295,692.482080666,693.183976375,694.394022375,0,0.818440584000086
110,1,1,categorization,0,kitchen,SHINEd_sun_aaxxjlsuzvqlgylf.tif,68,0.0666666666666667,0.0666666666666667,1.23333333333333,707.47253675,710.089442958,13,707.534968541,707.595187125,710.097859833,711.324561083,0,2.61690620799993
110,2,1,categorization,0,bathroom,SHINEd_sun_ajlawzvmubibwbpy.tif,30,0.0666666666666667,0.0666666666666667,0.783333333333333,711.34164375,712.997842666,9,711.408336791,711.474397,713.016007666,713.792680416,0,1.65619891599999
110,3,1,categorization,0,bathroom,SHINEd_sun_alkosphxlxwjwgjd.tif,34,0.0666666666666667,0.0666666666666667,0.75,713.798138,715.234177125,13,713.859886583,713.920819041,715.2397,715.983038208,1,1.43603912499998
110,4,1,categorization,0,kitchen,SHINEd_sun_agorklincwxrdtga.tif,87,0.0666666666666667,0.0666666666666667,1.23333333333333,715.987242,717.545543333,13,716.049006958,716.110030833,717.562389625,718.789086333,0,1.55830133299992
110,5,1,categorization,0,bathroom,SHINEd_sun_aggnnqpdorgxpvce.tif,21,0.0666666666666667,0.0666666666666667,1.13333333333333,718.798759,720.953955916,13,718.865509541,718.932376208,720.967927291,722.094644708,1,2.15519691600002
110,6,1,categorization,0,kitchen,SHINEd_sun_abdxkyyxwfskuaqb.tif,70,0.0666666666666667,0.0666666666666667,0.95,722.105597916,723.294166958,9,722.170459166,722.238489958,723.312343833,724.255681375,1,1.18856904200004
110,7,1,categorization,0,bathroom,SHINEd_sun_axxbkopsgyouuebh.tif,58,0.0666666666666667,0.0666666666666667,0.733333333333333,724.261104875,726.177925041,9,724.322749375,724.383773958,726.186038208,726.912708708,0,1.91682016599998
110,8,1,categorization,0,bathroom,SHINEd_sun_aclfzgynxzxlbepz.tif,19,0.0666666666666667,0.0666666666666667,1.31666666666667,726.917347458,728.322354041,9,726.979139333,727.04018925,728.3423045,729.652362083,0,1.40500658300004
110,9,1,categorization,0,kitchen,SHINEd_labelme_kxvouciolcpqplr.tif,62,0.0666666666666667,0.0666666666666667,0.8,729.6748675,730.747159208,13,729.7415725,729.807695,730.762053416,731.555392333,0,1.07229170799997
110,10,1,categorization,0,kitchen,SHINEd_sun_ahpczsiumwwocjkv.tif,92,0.0666666666666667,0.0666666666666667,0.716666666666667,731.560859333,732.929511875,13,731.622599416,731.683542041,732.935760416,733.645764041,0,1.36865254199995
110,11,1,categorization,0,bathroom,SHINEd_sun_ausgutylgojavyoq.tif,53,0.0666666666666667,0.0666666666666667,0.916666666666667,733.650577541,735.545632333,9,733.71221725,733.773198916,735.559008791,736.4690135,0,1.895054792
110,12,1,categorization,0,kitchen,SHINEd_sun_aamedkxepzlwuxes.tif,65,0.0666666666666667,0.0666666666666667,0.95,736.473885875,737.481635875,9,736.53570175,736.596597583,737.498398708,738.441736583,1,1.0077500000001
110,13,1,categorization,0,kitchen,SHINEd_sun_agzzivivdpnawacl.tif,89,0.0666666666666667,0.0666666666666667,0.833333333333333,738.446921958,739.425522583,9,738.508626083,738.569595916,739.438454041,740.265124416,1,0.978600625000013
110,14,1,categorization,0,kitchen,SHINEd_sun_amjjdeyrggfqgmom.tif,100,0.0666666666666667,0.0666666666666667,0.75,740.271176416,741.697650791,13,740.332833458,740.393810416,741.7125945,742.455932791,0,1.426474375
110,15,1,categorization,0,kitchen,SHINEd_sun_aegoxogugdkwpmpj.tif,80,0.0666666666666667,0.0666666666666667,1.53333333333333,742.460815666,743.497757333,13,742.522469708,742.583430875,743.50205475,745.028776916,0,1.03694166699995
110,16,1,categorization,0,kitchen,SHINEd_sun_akchetnepxlcxhsu.tif,98,0.0666666666666667,0.0666666666666667,1.05,745.046359541,745.962400916,13,745.113205708,745.179151083,745.984899375,747.028279583,0,0.916041374999963
110,17,1,categorization,0,bathroom,SHINEd_sun_abapwbhyhkfixyex.tif,14,0.0666666666666667,0.0666666666666667,0.9,747.039613125,748.290725625,9,747.104106291,747.170706875,748.312670208,749.206008041,0,1.25111250000009
110,18,1,categorization,0,kitchen,SHINEd_sun_aixorpehvfykdynp.tif,95,0.0666666666666667,0.0666666666666667,1.18333333333333,749.211337666,750.705834875,9,749.273093291,749.334056166,750.719743666,751.896457916,1,1.49449720900009
110,19,1,categorization,0,bathroom,SHINEd_sun_apynckhmoftszqoq.tif,47,0.0666666666666667,0.0666666666666667,0.9,751.907802416,752.962190583,13,751.974851916,752.040483666,752.979996791,753.873338083,1,1.05438816700007
110,20,1,categorization,0,kitchen,SHINEd_sun_azmutvzbxypaceni.tif,110,0.0666666666666667,0.0666666666666667,1.66666666666667,753.879005458,754.793790125,13,753.940891666,754.001766041,754.803529791,756.463581125,0,0.914784666999935
110,21,1,categorization,0,kitchen,SHINEd_sun_akcjzhbbjlbogpdi.tif,99,0.0666666666666667,0.0666666666666667,1.13333333333333,756.482158333,757.261273291,13,756.548796916,756.614861625,757.288223375,758.414931166,0,0.779114957999923
110,22,1,categorization,0,kitchen,SHINEd_sun_aymvwlarqodbwuoc.tif,108,0.0666666666666667,0.0666666666666667,1.3,758.426808041,759.6696085,13,758.491650208,758.55935175,759.68109325,760.974485666,0,1.24280045900002
110,23,1,categorization,0,kitchen,SHINEd_sun_adgqasybjyktddhj.tif,78,0.0666666666666667,0.0666666666666667,1.93333333333333,760.991783458,761.930090791,9,761.057276,761.124651458,761.947803666,763.874512125,1,0.938307333000012
110,24,1,categorization,0,bathroom,SHINEd_sun_awnqiikzaispgmwo.tif,56,0.0666666666666667,0.0666666666666667,1,763.892467125,765.465715458,9,763.959472791,764.0250545,765.47741,766.470748791,0,1.57324833299992
110,25,1,categorization,0,bathroom,SHINEd_sun_ahcvzmoyaycdoftf.tif,27,0.0666666666666667,0.0666666666666667,0.883333333333333,766.476258583,767.465987458,9,766.537959125,766.598969333,767.484003916,768.360675208,0,0.989728874999969
110,26,1,categorization,0,bathroom,SHINEd_sun_agguqiubmwhqqunb.tif,22,0.0666666666666667,0.0666666666666667,1.95,768.365615208,769.585713416,9,768.427419708,768.488164541,769.590533208,771.53390575,0,1.22009820799997
110,27,1,categorization,0,bathroom,SHINEd_sun_aleqenyvunhactkl.tif,32,0.0666666666666667,0.0666666666666667,1.25,771.551380583,772.237314041,9,771.617740625,771.683987958,772.257050833,773.500428,0,0.685933458000022
110,28,1,categorization,0,kitchen,SHINEd_sun_abdenxonkemggwsq.tif,69,0.0666666666666667,0.0666666666666667,1.95,773.517803041,774.619349541,13,773.584501875,773.650675625,774.641147708,776.584514208,0,1.10154650000004
110,29,1,categorization,0,kitchen,SHINEd_sun_aggjlwcdjsjcaemh.tif,86,0.0666666666666667,0.0666666666666667,1.91666666666667,776.601054541,777.366520166,9,776.667573666,776.734035583,777.390953375,779.301009541,1,0.765465624999933
110,30,1,categorization,0,bathroom,SHINEd_sun_anhioqovhscjqqwb.tif,38,0.0666666666666667,0.0666666666666667,1.41666666666667,779.313985333,780.256779875,13,779.381020708,779.44714325,780.268647125,781.678683625,1,0.942794542000001
110,31,1,categorization,0,bathroom,SHINEd_sun_acegryoqftbzowsg.tif,17,0.0666666666666667,0.0666666666666667,0.716666666666667,781.696934833,782.619768583,13,781.763671166,781.829571125,782.635582166,783.345617125,1,0.922833749999995
110,32,1,categorization,0,bathroom,SHINEd_sun_atstyziqcmkahyxk.tif,51,0.0666666666666667,0.0666666666666667,1.28333333333333,783.359333583,785.041235333,13,783.422069,783.482097875,785.050925708,786.327635,1,1.68190175000007
110,33,1,categorization,0,bathroom,SHINEd_sun_aspsyogrekjtfozg.tif,50,0.0666666666666667,0.0666666666666667,0.9,786.346230375,787.787650166,13,786.413095125,786.479144333,787.802759291,788.696098,1,1.44141979100004
110,34,1,categorization,0,kitchen,SHINEd_sun_abftihopvusyfakt.tif,71,0.0666666666666667,0.0666666666666667,0.8,788.700908208,789.409457583,13,788.762633125,788.823604583,789.4253135,790.218652666,0,0.708549374999961
110,35,1,categorization,0,kitchen,SHINEd_sun_acgtpgfybqjmzeyw.tif,75,0.0666666666666667,0.0666666666666667,1.01666666666667,790.224108041,791.113861041,9,790.285694833,790.346781166,791.131968708,792.142007791,1,0.889752999999928
110,36,1,categorization,0,bathroom,SHINEd_sun_afcoljnjfoxjtgja.tif,20,0.0666666666666667,0.0666666666666667,0.85,792.151238666,793.188561791,9,792.216507666,792.282904125,793.204455291,794.047825333,0,1.03732312499994
110,37,1,categorization,0,kitchen,SHINEd_sun_aeqdocilnnpuvuhx.tif,83,0.0666666666666667,0.0666666666666667,1.51666666666667,794.063530666,794.90548925,9,794.130021916,794.19631925,794.914856583,796.424913166,1,0.84195858399994
110,38,1,categorization,0,bathroom,SHINEd_sun_agyqfjcfkdcydepw.tif,25,0.0666666666666667,0.0666666666666667,1.83333333333333,796.440284625,797.829342791,13,796.507113375,796.573452125,797.847788708,799.674489958,1,1.38905816600004
110,39,1,categorization,0,bathroom,SHINEd_sun_ahqjwnzgolcaoidx.tif,29,0.0666666666666667,0.0666666666666667,0.716666666666667,799.691322291,800.441971458,13,799.758507083,799.824489333,800.464575791,801.174581125,1,0.750649167000006
110,40,1,categorization,0,kitchen,SHINEd_sun_axyyrmzcupyhlivc.tif,107,0.0666666666666667,0.0666666666666667,0.9,801.179396,802.705674458,9,801.241140916,801.302040291,802.720986333,803.614325458,1,1.52627845799998
110,41,1,categorization,0,kitchen,SHINEd_sun_ajkqhtgcbgpcwrwn.tif,97,0.0666666666666667,0.0666666666666667,0.916666666666667,803.620205791,804.833999291,9,803.682099875,803.7429585,804.844911291,805.754916916,1,1.21379350000007
110,42,1,categorization,0,bathroom,SHINEd_sun_aapitsgbtktqubfy.tif,12,0.0666666666666667,0.0666666666666667,0.816666666666667,805.760501958,806.537553125,13,805.822287708,805.883111416,806.551934708,807.361939458,1,0.777051167000081
110,43,1,categorization,0,kitchen,SHINEd_sun_aadbddgrdsjugojn.tif,64,0.0666666666666667,0.0666666666666667,1.88333333333333,807.366803375,808.44940975,13,807.428553875,807.489377916,808.457988291,810.334690958,0,1.08260637499995
110,44,1,categorization,0,kitchen,SHINEd_sun_aapllqyqlykszopd.tif,66,0.0666666666666667,0.0666666666666667,0.9,810.352112916,811.609562,13,810.418758541,810.485279333,811.621501583,812.514838458,0,1.25744908399997
110,45,1,categorization,0,kitchen,SHINEd_sun_awcpdzzznmweyyhv.tif,106,0.0666666666666667,0.0666666666666667,1,812.520155791,813.433340166,13,812.581829041,812.642875541,813.44466375,814.4380015,0,0.913184375000014
110,46,1,categorization,0,bathroom,SHINEd_sun_apkxzenqapsujocq.tif,45,0.0666666666666667,0.0666666666666667,0.733333333333333,814.442761666,815.273428875,13,814.504407041,814.565434333,815.283969083,816.010640583,1,0.830667209000012
110,47,1,categorization,0,kitchen,SHINEd_sun_ahljzhgcdpomplvg.tif,91,0.0666666666666667,0.0666666666666667,0.883333333333333,816.015365125,816.889502166,9,816.076997333,816.13799525,816.906786166,817.78345825,1,0.87413704100004
110,48,1,categorization,0,kitchen,SHINEd_sun_aarfiyshqohlwkmo.tif,67,0.0666666666666667,0.0666666666666667,1.73333333333333,817.78822925,818.729243125,9,817.849848458,817.910893416,818.746015875,820.472723875,1,0.941013875000067
110,49,1,categorization,0,bathroom,SHINEd_sun_ahijqszoswveeyji.tif,28,0.0666666666666667,0.0666666666666667,1.91666666666667,820.489671541,822.289552375,9,820.556234916,820.622259333,822.308158625,824.218216791,0,1.79988083399996
110,50,1,categorization,0,kitchen,SHINEd_sun_auticobqsbwgoppi.tif,104,0.0666666666666667,0.0666666666666667,1.35,824.23868525,825.388697458,9,824.305858041,824.372318791,825.412538625,826.755918833,1,1.15001220800002
110,1,2,categorization,0,kitchen,SHINEd_sun_aqeaevwwwjoqhzvl.tif,101,0.0666666666666667,0.0666666666666667,0.95,860.50852175,861.66561375,13,860.570866708,860.631469208,861.683288375,862.626626,0,1.15709200000003
110,2,2,categorization,0,bathroom,SHINEd_sun_alotolagknyrgtsk.tif,35,0.0666666666666667,0.0666666666666667,0.75,862.631190416,863.552924583,13,862.692980791,862.753728125,863.57241925,864.315757833,1,0.921734167000068
110,3,2,categorization,0,kitchen,SHINEd_sun_abpwyqmlzafvklqo.tif,72,0.0666666666666667,0.0666666666666667,1.68333333333333,864.320624791,865.344783083,13,864.382255458,864.443318833,865.361814791,867.038515333,0,1.02415829200004
110,4,2,categorization,0,bathroom,SHINEd_sun_ambriybtogmepttm.tif,36,0.0666666666666667,0.0666666666666667,0.816666666666667,867.056375375,868.06097925,13,867.122914625,867.189025041,868.0779175,868.887921666,1,1.00460387499993
110,5,2,categorization,0,bathroom,SHINEd_labelme_sfxiulhjbhlyiyt.tif,11,0.0666666666666667,0.0666666666666667,0.916666666666667,868.89283575,869.817355541,9,868.954636833,869.015526875,869.83431375,870.744318125,0,0.924519790999966
110,6,2,categorization,0,kitchen,SHINEd_sun_acfmftudsenhrfhy.tif,74,0.0666666666666667,0.0666666666666667,1.21666666666667,870.749156333,871.681043166,9,870.810913291,870.871760333,871.690598458,872.900634833,1,0.931886833000021
110,7,2,categorization,0,bathroom,SHINEd_sun_auzqhkafidnkrwmo.tif,54,0.0666666666666667,0.0666666666666667,0.9,872.91155675,873.997461375,9,872.978257541,873.044258333,874.017279791,874.910618833,0,1.0859046249999
110,8,2,categorization,0,kitchen,SHINEd_labelme_brsyyvweiuaazfr.tif,61,0.0666666666666667,0.0666666666666667,1.65,874.91571975,875.665073333,13,874.977436125,875.038427666,875.673746666,877.317137916,0,0.749353583000016
110,9,2,categorization,0,kitchen,SHINEd_sun_aypmqwcualkenuoe.tif,109,0.0666666666666667,0.0666666666666667,1.15,877.336368083,877.792334708,13,877.402941125,877.469127958,877.808581583,878.951969083,0,0.455966624999974
110,10,2,categorization,0,bathroom,SHINEd_sun_aavhrsfjbserjtht.tif,13,0.0666666666666667,0.0666666666666667,1.13333333333333,878.966166541,879.606518833,9,879.032680291,879.09906375,879.621474708,880.748191,0,0.640352291999989
110,11,2,categorization,0,kitchen,SHINEd_sun_agubuxuukhzyzpdp.tif,88,0.0666666666666667,0.0666666666666667,1.76666666666667,880.757016916,881.472620333,9,880.821702791,880.890005291,881.492361666,883.252396083,1,0.715603417000011
110,12,2,categorization,0,bathroom,SHINEd_sun_acduarbnmmoglmiv.tif,16,0.0666666666666667,0.0666666666666667,1.8,883.272046125,884.616772083,13,883.338445708,883.404785125,884.624388708,886.417774458,1,1.34472595800003
110,13,2,categorization,0,kitchen,SHINEd_sun_avszsnwsbuqfgzbn.tif,105,0.0666666666666667,0.0666666666666667,0.9,886.435072041,887.13841,13,886.501569541,886.56918275,887.15855825,888.051898583,0,0.70333795900001
110,14,2,categorization,0,bathroom,SHINEd_sun_axyrejkiiaqiurjk.tif,59,0.0666666666666667,0.0666666666666667,0.716666666666667,888.057587708,888.497508541,13,888.119207416,888.180327666,888.515620833,889.225625375,1,0.439920832999974
110,15,2,categorization,0,bathroom,SHINEd_sun_apkruvsevgegsdwp.tif,44,0.0666666666666667,0.0666666666666667,1.36666666666667,889.230149458,889.696996791,9,889.291846291,889.352826833,889.704580458,891.064621833,0,0.466847332999919
110,16,2,categorization,0,bathroom,SHINEd_sun_aofnryafpsjimzsb.tif,40,0.0666666666666667,0.0666666666666667,0.916666666666667,891.082724583,891.521828291,13,891.149387875,891.215254208,891.537578333,892.447627666,1,0.439103708000061
110,17,2,categorization,0,kitchen,SHINEd_sun_aunzlwrbjumxhwdj.tif,103,0.0666666666666667,0.0666666666666667,0.716666666666667,892.460609,892.92944875,13,892.527303625,892.592862958,892.945378458,893.655384041,0,0.468839750000029
110,18,2,categorization,0,bathroom,SHINEd_sun_aqrpegblszgcoujh.tif,48,0.0666666666666667,0.0666666666666667,0.766666666666667,893.659810375,893.99325875,13,893.721462041,893.782446291,894.001041833,894.761045958,1,0.333448374999989
110,19,2,categorization,0,kitchen,SHINEd_sun_aenotlpyftoioydp.tif,82,0.0666666666666667,0.0666666666666667,1.06666666666667,894.7657,895.153551458,9,894.827451541,894.888429833,895.156849916,896.216899166,1,0.387851458
110,20,2,categorization,0,bathroom,SHINEd_sun_apmqjbnwghzuhhzh.tif,46,0.0666666666666667,0.0666666666666667,0.8,896.228285375,896.603018333,9,896.292861583,896.359480708,896.632528208,897.425905,0,0.374732957999981
110,21,2,categorization,0,bathroom,SHINEd_sun_asfwthctfqerjvxr.tif,49,0.0666666666666667,0.0666666666666667,0.866666666666667,897.440063583,898.328925666,9,897.505149083,897.572899958,898.341839083,899.201844583,0,0.888862083000049
110,22,2,categorization,0,bathroom,SHINEd_sun_abjtwfukuwddzted.tif,15,0.0666666666666667,0.0666666666666667,1.48333333333333,899.206651208,899.61728775,13,899.2683195,899.329369625,899.631193625,901.107917166,1,0.410636541999907
110,23,2,categorization,0,kitchen,SHINEd_sun_abrcnpqqhmjwekyf.tif,73,0.0666666666666667,0.0666666666666667,1.1,901.122876291,901.648638208,13,901.189478666,901.25600525,901.679157125,902.772531958,0,0.525761916999954
110,24,2,categorization,0,kitchen,SHINEd_sun_aehawpgmrlhlvcow.tif,81,0.0666666666666667,0.0666666666666667,0.783333333333333,902.78134725,903.181328625,13,902.846265791,902.914334875,903.204247291,903.98095325,0,0.399981375000038
110,25,2,categorization,0,kitchen,SHINEd_sun_aexklacwqwezaorf.tif,84,0.0666666666666667,0.0666666666666667,0.866666666666667,903.995398958,905.456513958,13,904.061793708,904.12745125,905.463225708,906.323229541,0,1.46111499999995
110,26,2,categorization,0,bathroom,SHINEd_sun_aunuadmjocsddsrl.tif,52,0.0666666666666667,0.0666666666666667,1.83333333333333,906.327950458,907.360589416,9,906.389661625,906.450619208,907.369076,909.195779666,0,1.03263895800001
110,27,2,categorization,0,kitchen,SHINEd_sun_admlmbcdswaszruo.tif,79,0.0666666666666667,0.0666666666666667,0.7,909.214210041,909.586116583,9,909.280982625,909.346889875,909.602003375,910.295367791,1,0.371906542000033
110,28,2,categorization,0,kitchen,SHINEd_sun_ahspylgoovwmwvgk.tif,93,0.0666666666666667,0.0666666666666667,1.33333333333333,910.309066583,913.169480791,13,910.37552775,910.433338541,913.185658833,914.512378041,0,2.86041420799995
110,29,2,categorization,0,bathroom,SHINEd_sun_aljolscmmzydegqp.tif,33,0.0666666666666667,0.0666666666666667,1.33333333333333,914.529773875,916.226617958,13,914.598243291,914.662118541,916.255008333,917.581707833,1,1.69684408299997
110,30,2,categorization,0,bathroom,SHINEd_sun_amzlamotzwfkwjco.tif,37,0.0666666666666667,0.0666666666666667,1.38333333333333,917.599515083,918.198569375,9,917.6663205,917.73228475,918.221859125,919.598582625,0,0.599054292000005
110,31,2,categorization,0,kitchen,SHINEd_sun_ahywdevtimnqcsln.tif,94,0.0666666666666667,0.0666666666666667,1.25,919.613256083,920.376600416,13,919.679810916,919.746163041,920.403066458,921.646445333,0,0.763344332999964
110,32,2,categorization,0,kitchen,SHINEd_sun_ahdycvpopffkzzsu.tif,90,0.0666666666666667,0.0666666666666667,1.55,921.663140666,923.06827025,13,921.728501083,921.796701083,923.087330625,924.630702791,0,1.40512958399995
110,33,2,categorization,0,bathroom,SHINEd_sun_apeeialkgkuxddgh.tif,42,0.0666666666666667,0.0666666666666667,1.61666666666667,924.649141666,925.045549,9,924.716306458,924.77774475,925.067658125,926.677711791,0,0.39640733400006
110,34,2,categorization,0,kitchen,SHINEd_sun_auaiucuqpdausiva.tif,102,0.0666666666666667,0.0666666666666667,1.33333333333333,926.693044416,927.3073295,13,926.758378041,926.825021125,927.330515583,928.657218583,0,0.614285084000016
110,35,2,categorization,0,kitchen,SHINEd_sun_acwjdupvyjsugpay.tif,76,0.0666666666666667,0.0666666666666667,0.833333333333333,928.673363,929.218318458,13,928.739012375,928.801351416,929.240000458,930.066712041,0,0.544955458000004
110,36,2,categorization,0,bathroom,SHINEd_sun_apjevzvycyhuqghb.tif,43,0.0666666666666667,0.0666666666666667,1.45,930.083331791,931.096682,13,930.149792541,930.215713458,931.101070125,932.544457333,1,1.01335020900001
110,37,2,categorization,0,bathroom,SHINEd_sun_aoybiabnpadelefl.tif,41,0.0666666666666667,0.0666666666666667,0.933333333333333,932.561459083,933.141517583,13,932.627986541,932.6943285,933.167458416,934.094156083,1,0.58005849999995
110,38,2,categorization,0,kitchen,SHINEd_sun_acxkpeoqbwcxfvip.tif,77,0.0666666666666667,0.0666666666666667,1.65,934.110434666,934.929206541,9,934.177274625,934.2348295,934.936642916,936.580008958,1,0.818771875000039
110,39,2,categorization,0,kitchen,SHINEd_sun_ajcbwwvdlsvjyzje.tif,96,0.0666666666666667,0.0666666666666667,1.23333333333333,936.597530166,936.985034083,13,936.664249625,936.728704125,937.00143175,938.228157333,0,0.387503917000004
110,40,2,categorization,0,bathroom,SHINEd_sun_ahaulkltgpkeeemi.tif,26,0.0666666666666667,0.0666666666666667,0.766666666666667,938.245085916,938.649335,13,938.311873875,938.377784541,938.666908333,939.4269505,1,0.404249083999957
110,41,2,categorization,0,bathroom,SHINEd_sun_agrwbmhcpmfuwmsg.tif,24,0.0666666666666667,0.0666666666666667,1.78333333333333,939.441428666,940.137121541,9,939.508177208,939.574192708,940.143573,941.920292458,0,0.695692875000077
110,42,2,categorization,0,bathroom,SHINEd_sun_avhrdrntsqrjzccq.tif,55,0.0666666666666667,0.0666666666666667,1.11666666666667,941.938235583,942.389627583,9,942.004796875,942.071395541,942.411309541,943.521366375,0,0.451391999999942
110,43,2,categorization,0,bathroom,SHINEd_sun_anryaplzeujmzfkd.tif,39,0.0666666666666667,0.0666666666666667,1.85,943.531680541,944.137634625,13,943.596421291,943.664587166,944.15385875,945.997228416,1,0.605954084000018
110,44,2,categorization,0,bathroom,SHINEd_sun_azqyogdvyhahyram.tif,60,0.0666666666666667,0.0666666666666667,0.733333333333333,946.016205166,946.349237708,13,946.082561875,946.14856875,946.371833,947.098554916,1,0.333032542000069
110,45,2,categorization,0,bathroom,SHINEd_sun_akiytfaagpdsphgz.tif,31,0.0666666666666667,0.0666666666666667,0.783333333333333,947.11024575,947.594452458,13,947.176497083,947.24286025,947.615831375,948.392502458,1,0.484206707999988
110,46,2,categorization,0,bathroom,SHINEd_sun_acgyywnybuveqsro.tif,18,0.0666666666666667,0.0666666666666667,1.5,948.397350208,948.848355416,13,948.459153916,948.520000166,948.855226375,950.348602791,1,0.45100520799997
110,47,2,categorization,0,kitchen,SHINEd_labelme_rykdqxenmhulbdn.tif,63,0.0666666666666667,0.0666666666666667,0.733333333333333,950.367178708,950.884309833,9,950.433609541,950.499915666,950.906439041,951.633150458,1,0.517131124999992
110,48,2,categorization,0,bathroom,SHINEd_sun_axldvoqbuvuggfmq.tif,57,0.0666666666666667,0.0666666666666667,1.1,951.649524458,952.640813833,9,951.715770125,951.782020416,952.650632541,953.744007416,0,0.991289375000065
110,49,2,categorization,0,kitchen,SHINEd_sun_afuyedyxivkhecmu.tif,85,0.0666666666666667,0.0666666666666667,1.6,953.753886458,954.146187375,13,953.81866025,953.886627916,954.175519791,955.768894166,0,0.392300916999943
110,50,2,categorization,0,bathroom,SHINEd_sun_aghyqhbptboemmoq.tif,23,0.0666666666666667,0.0666666666666667,1.06666666666667,955.787799833,956.155691291,9,955.854461041,955.920417666,956.177211,957.237266666,0,0.367891458000031
110,1,3,categorization,0,kitchen,SHINEd_sun_aunzlwrbjumxhwdj.tif,103,0.0666666666666667,0.0666666666666667,0.85,1007.094199958,1008.200733458,13,1007.156763875,1007.21722875,1008.219145125,1009.062483291,0,1.10653349999995
110,2,3,categorization,0,bathroom,SHINEd_sun_apynckhmoftszqoq.tif,47,0.0666666666666667,0.0666666666666667,1.65,1009.069539833,1010.240837208,13,1009.131464625,1009.192181125,1010.244449333,1011.887855,1,1.17129737499999
110,3,3,categorization,0,bathroom,SHINEd_sun_aavhrsfjbserjtht.tif,13,0.0666666666666667,0.0666666666666667,0.783333333333333,1011.904179125,1012.808137166,13,1011.969877291,1012.03483625,1012.823874375,1013.600545625,1,0.90395804100001
110,4,3,categorization,0,bathroom,SHINEd_sun_aclfzgynxzxlbepz.tif,19,0.0666666666666667,0.0666666666666667,0.933333333333333,1013.605720125,1014.1919855,9,1013.66748,1013.728401541,1014.196943208,1015.123613541,0,0.586265375000039
110,5,3,categorization,0,kitchen,SHINEd_sun_aadbddgrdsjugojn.tif,64,0.0666666666666667,0.0666666666666667,0.866666666666667,1015.128336958,1015.888889708,13,1015.190006833,1015.251056833,1015.902957166,1016.762961208,0,0.760552749999988
110,6,3,categorization,0,bathroom,SHINEd_sun_apkxzenqapsujocq.tif,45,0.0666666666666667,0.0666666666666667,1.11666666666667,1016.769322208,1017.656187333,13,1016.831030625,1016.89201325,1017.660355875,1018.770396166,1,0.886865125000099
110,7,3,categorization,0,bathroom,SHINEd_sun_agguqiubmwhqqunb.tif,22,0.0666666666666667,0.0666666666666667,0.966666666666667,1018.78236325,1019.613260541,9,1018.847134458,1018.914345958,1019.637680416,1020.597729041,0,0.830897291000042
110,8,3,categorization,0,kitchen,SHINEd_sun_acfmftudsenhrfhy.tif,74,0.0666666666666667,0.0666666666666667,1.78333333333333,1020.614657083,1021.432269583,9,1020.67834875,1020.737702208,1021.439466541,1023.216170833,1,0.817612499999996
110,9,3,categorization,0,kitchen,SHINEd_sun_afuyedyxivkhecmu.tif,85,0.0666666666666667,0.0666666666666667,1.55,1023.233071125,1023.601328958,13,1023.299479458,1023.365704,1023.621921625,1025.165294041,0,0.368257832999916
110,10,3,categorization,0,bathroom,SHINEd_sun_axxbkopsgyouuebh.tif,58,0.0666666666666667,0.0666666666666667,1.41666666666667,1025.182792833,1025.525548083,13,1025.249186875,1025.315243416,1025.554753333,1026.964803583,1,0.342755250000209
110,11,3,categorization,0,kitchen,SHINEd_sun_abrcnpqqhmjwekyf.tif,73,0.0666666666666667,0.0666666666666667,0.8,1026.982395166,1027.474977375,9,1027.048939416,1027.114856791,1027.50481375,1028.298197458,1,0.49258220899992
110,12,3,categorization,0,kitchen,SHINEd_sun_aegoxogugdkwpmpj.tif,80,0.0666666666666667,0.0666666666666667,1.28333333333333,1028.314203458,1028.936435541,13,1028.380841041,1028.44687475,1028.948749708,1030.225449416,0,0.622232082999972
110,13,3,categorization,0,kitchen,SHINEd_sun_abdxkyyxwfskuaqb.tif,70,0.0666666666666667,0.0666666666666667,1.66666666666667,1030.242118458,1030.66732575,13,1030.308688833,1030.374758708,1030.680338875,1032.34037625,0,0.425207291999868
110,14,3,categorization,0,bathroom,SHINEd_sun_ausgutylgojavyoq.tif,53,0.0666666666666667,0.0666666666666667,1.81666666666667,1032.356883541,1032.717270416,9,1032.423548125,1032.489666791,1032.744677958,1034.554727791,0,0.360386875000131
110,15,3,categorization,0,bathroom,SHINEd_sun_agyqfjcfkdcydepw.tif,25,0.0666666666666667,0.0666666666666667,1.35,1034.5716955,1034.918264125,9,1034.63843,1034.704506916,1034.944141208,1036.287526583,0,0.346568624999918
110,16,3,categorization,0,bathroom,SHINEd_sun_avhrdrntsqrjzccq.tif,55,0.0666666666666667,0.0666666666666667,0.916666666666667,1036.304173291,1036.709018083,13,1036.370754541,1036.437008333,1036.726256083,1037.636300458,1,0.404844791999949
110,17,3,categorization,0,kitchen,SHINEd_sun_auticobqsbwgoppi.tif,104,0.0666666666666667,0.0666666666666667,0.916666666666667,1037.655896666,1038.161208541,13,1037.722608166,1037.788427791,1038.17749575,1039.087500208,0,0.505311874999961
110,18,3,categorization,0,bathroom,SHINEd_sun_aggnnqpdorgxpvce.tif,21,0.0666666666666667,0.0666666666666667,1.31666666666667,1039.09240025,1039.416857333,13,1039.154106875,1039.2150465,1039.433449666,1040.743486,1,0.32445708299997
110,19,3,categorization,0,kitchen,SHINEd_sun_acgtpgfybqjmzeyw.tif,75,0.0666666666666667,0.0666666666666667,1.45,1040.754846333,1041.108901583,9,1040.82119025,1040.887817,1041.127794916,1042.571167041,1,0.354055250000101
110,20,3,categorization,0,bathroom,SHINEd_sun_aleqenyvunhactkl.tif,32,0.0666666666666667,0.0666666666666667,0.95,1042.586172875,1042.971623666,9,1042.653009,1042.718837625,1042.991944333,1043.935328041,0,0.385450790999812
110,21,3,categorization,0,kitchen,SHINEd_sun_azmutvzbxypaceni.tif,110,0.0666666666666667,0.0666666666666667,1.38333333333333,1043.949069458,1044.554547333,13,1044.015930833,1044.0814835,1044.5711535,1045.947874166,0,0.605477875000133
110,22,3,categorization,0,bathroom,SHINEd_sun_aqrpegblszgcoujh.tif,48,0.0666666666666667,0.0666666666666667,1.16666666666667,1045.963267041,1047.847834541,9,1046.030004041,1046.096021041,1047.865022125,1049.025072916,0,1.8845675
110,23,3,categorization,0,bathroom,SHINEd_sun_apkruvsevgegsdwp.tif,44,0.0666666666666667,0.0666666666666667,1.61666666666667,1049.037046375,1049.828315833,13,1049.104246833,1049.169776041,1049.842767666,1051.452822708,1,0.791269457999988
110,24,3,categorization,0,kitchen,SHINEd_sun_ahpczsiumwwocjkv.tif,92,0.0666666666666667,0.0666666666666667,1.38333333333333,1051.471858291,1052.170745791,13,1051.539083333,1051.605061125,1052.19374725,1053.570455791,0,0.698887499999955
110,25,3,categorization,0,kitchen,SHINEd_sun_ajkqhtgcbgpcwrwn.tif,97,0.0666666666666667,0.0666666666666667,1.78333333333333,1053.588239,1054.066222666,9,1053.655567291,1053.721478625,1054.076199333,1055.852908833,1,0.477983666
110,26,3,categorization,0,bathroom,SHINEd_sun_aoybiabnpadelefl.tif,41,0.0666666666666667,0.0666666666666667,0.783333333333333,1055.871408541,1056.096752708,13,1055.938820916,1056.004936833,1056.111414125,1056.88813225,1,0.225344167000003
110,27,3,categorization,0,bathroom,SHINEd_sun_azqyogdvyhahyram.tif,60,0.0666666666666667,0.0666666666666667,1.65,1056.903801,1057.391536,13,1056.971011583,1057.036966541,1057.408814458,1059.052189583,1,0.487735000000157
110,28,3,categorization,0,kitchen,SHINEd_sun_amjjdeyrggfqgmom.tif,100,0.0666666666666667,0.0666666666666667,1.86666666666667,1059.070915041,1059.377768833,9,1059.138866083,1059.203891833,1059.393632333,1061.253677125,1,0.306853791999856
110,29,3,categorization,0,bathroom,SHINEd_sun_atstyziqcmkahyxk.tif,51,0.0666666666666667,0.0666666666666667,1.23333333333333,1061.271744041,1061.623898125,13,1061.339063791,1061.404831666,1061.645099708,1062.871816916,1,0.352154084000176
110,30,3,categorization,0,kitchen,SHINEd_sun_awcpdzzznmweyyhv.tif,106,0.0666666666666667,0.0666666666666667,0.7,1062.886454416,1063.293517333,9,1062.953703708,1063.019413083,1063.309223833,1064.002614291,1,0.407062916999848
110,31,3,categorization,0,bathroom,SHINEd_sun_ahcvzmoyaycdoftf.tif,27,0.0666666666666667,0.0666666666666667,0.716666666666667,1064.019489625,1065.656437125,13,1064.086154583,1064.15273475,1065.671981333,1066.381984708,1,1.63694749999991
110,32,3,categorization,0,bathroom,SHINEd_sun_abjtwfukuwddzted.tif,15,0.0666666666666667,0.0666666666666667,1.05,1066.386552666,1066.888020916,9,1066.448362583,1066.509240583,1066.894408,1067.937785125,0,0.501468250000016
110,33,3,categorization,0,kitchen,SHINEd_labelme_kxvouciolcpqplr.tif,62,0.0666666666666667,0.0666666666666667,1.1,1067.950042458,1068.513413541,9,1068.014462041,1068.079178416,1068.535497708,1069.628880166,1,0.563371082999993
110,34,3,categorization,0,kitchen,SHINEd_sun_aaxxjlsuzvqlgylf.tif,68,0.0666666666666667,0.0666666666666667,1.13333333333333,1069.6443845,1070.064620416,9,1069.7106445,1069.777002958,1070.07949425,1071.206217625,1,0.420235916000138
110,35,3,categorization,0,bathroom,SHINEd_sun_agrwbmhcpmfuwmsg.tif,24,0.0666666666666667,0.0666666666666667,1.38333333333333,1071.219917458,1071.539544,13,1071.28482675,1071.352638416,1071.558814041,1072.935537625,1,0.319626541999924
110,36,3,categorization,0,bathroom,SHINEd_sun_aunuadmjocsddsrl.tif,52,0.0666666666666667,0.0666666666666667,1.5,1072.95389475,1073.312236208,13,1073.02051975,1073.086647458,1073.322197666,1074.815586416,1,0.358341458000041
110,37,3,categorization,0,bathroom,SHINEd_sun_alkosphxlxwjwgjd.tif,34,0.0666666666666667,0.0666666666666667,1.61666666666667,1074.826699,1074.947081916,9,1074.893335083,1074.960130541,1074.983028416,1076.593080125,0,0.120382915999926
110,38,3,categorization,0,kitchen,SHINEd_sun_abpwyqmlzafvklqo.tif,72,0.0666666666666667,0.0666666666666667,0.983333333333333,1076.610771375,1077.160727625,13,1076.677587291,1076.740141875,1077.178692583,1078.155410333,0,0.549956249999923
110,39,3,categorization,0,bathroom,SHINEd_sun_ahijqszoswveeyji.tif,28,0.0666666666666667,0.0666666666666667,1.3,1078.171359833,1078.656567083,13,1078.237939375,1078.303946583,1078.673175875,1079.966552958,1,0.48520725000003
110,40,3,categorization,0,bathroom,SHINEd_sun_aofnryafpsjimzsb.tif,40,0.0666666666666667,0.0666666666666667,1.03333333333333,1079.982997375,1080.512110666,9,1080.04929425,1080.1155285,1080.539067666,1081.565780708,0,0.529113290999931
110,41,3,categorization,0,bathroom,SHINEd_sun_akiytfaagpdsphgz.tif,31,0.0666666666666667,0.0666666666666667,1.45,1081.581981833,1082.112047166,9,1081.648173416,1081.714610958,1082.117053583,1083.560445041,0,0.530065332999811
110,42,3,categorization,0,bathroom,SHINEd_sun_aljolscmmzydegqp.tif,33,0.0666666666666667,0.0666666666666667,1.23333333333333,1083.57342175,1083.914446541,9,1083.640241125,1083.706632458,1083.928983625,1085.155691416,0,0.341024790999882
110,43,3,categorization,0,kitchen,SHINEd_sun_axyyrmzcupyhlivc.tif,107,0.0666666666666667,0.0666666666666667,1.26666666666667,1085.171726541,1085.512664041,13,1085.238557666,1085.295705916,1085.5310045,1086.791021416,0,0.340937500000109
110,44,3,categorization,0,kitchen,SHINEd_sun_aggjlwcdjsjcaemh.tif,86,0.0666666666666667,0.0666666666666667,1.03333333333333,1086.800778916,1087.097280583,13,1086.867568958,1086.933544791,1087.123330625,1088.150053875,0,0.29650166700003
110,45,3,categorization,0,bathroom,SHINEd_sun_alotolagknyrgtsk.tif,35,0.0666666666666667,0.0666666666666667,1.31666666666667,1088.165675458,1088.564530125,13,1088.23196825,1088.298238416,1088.586557041,1089.896595333,1,0.398854667000023
110,46,3,categorization,0,bathroom,SHINEd_labelme_sfxiulhjbhlyiyt.tif,11,0.0666666666666667,0.0666666666666667,1.7,1089.912079416,1092.391960833,13,1089.97916325,1090.0449775,1092.397447541,1094.090814708,1,2.47988141699989
110,47,3,categorization,0,kitchen,SHINEd_sun_agubuxuukhzyzpdp.tif,88,0.0666666666666667,0.0666666666666667,1.35,1094.109089083,1094.286027791,9,1094.176174083,1094.241950875,1094.315418291,1095.658784166,1,0.176938707999852
110,48,3,categorization,0,bathroom,SHINEd_sun_axyrejkiiaqiurjk.tif,59,0.0666666666666667,0.0666666666666667,0.8,1095.677265041,1096.20456875,9,1095.7439275,1095.810235416,1096.233578541,1097.026966791,0,0.527303708999852
110,49,3,categorization,0,bathroom,SHINEd_sun_aghyqhbptboemmoq.tif,23,0.0666666666666667,0.0666666666666667,0.766666666666667,1097.043198875,1097.855767958,13,1097.109952333,1097.176072708,1097.861533916,1098.621538416,1,0.812569082999971
110,50,3,categorization,0,kitchen,SHINEd_sun_agzzivivdpnawacl.tif,89,0.0666666666666667,0.0666666666666667,1.38333333333333,1098.626359791,1099.535844958,13,1098.688037541,1098.749069708,1099.550849125,1100.927573541,0,0.909485167000184
110,1,4,categorization,0,kitchen,SHINEd_sun_aeqdocilnnpuvuhx.tif,83,0.0666666666666667,0.0666666666666667,1,1111.465661708,1112.232157083,13,1111.527469375,1111.5885745,1112.240655,1113.233992041,0,0.766495374999977
110,2,4,categorization,0,kitchen,SHINEd_sun_aixorpehvfykdynp.tif,95,0.0666666666666667,0.0666666666666667,0.966666666666667,1113.238771583,1113.856137708,9,1113.300415541,1113.361435583,1113.863186291,1114.823190625,1,0.61736612499999
110,3,4,categorization,0,bathroom,SHINEd_sun_acgyywnybuveqsro.tif,18,0.0666666666666667,0.0666666666666667,1.75,1114.828054666,1115.271706208,13,1114.889731916,1114.950797291,1115.285772041,1117.029144416,1,0.443651541999998
110,4,4,categorization,0,kitchen,SHINEd_sun_aypmqwcualkenuoe.tif,109,0.0666666666666667,0.0666666666666667,1.68333333333333,1117.045872958,1117.215964791,9,1117.112401625,1117.178749916,1117.234689,1118.911395458,1,0.170091833000015
110,5,4,categorization,0,kitchen,SHINEd_sun_akcjzhbbjlbogpdi.tif,99,0.0666666666666667,0.0666666666666667,1.58333333333333,1118.925965958,1119.226574666,9,1118.992393791,1119.058599458,1119.248660875,1120.825360333,1,0.300608708000027
110,6,4,categorization,0,bathroom,SHINEd_sun_asfwthctfqerjvxr.tif,49,0.0666666666666667,0.0666666666666667,1,1120.841134291,1121.165952791,13,1120.908032708,1120.974019125,1121.17951675,1122.172898916,1,0.32481850000022
110,7,4,categorization,0,kitchen,SHINEd_sun_aehawpgmrlhlvcow.tif,81,0.0666666666666667,0.0666666666666667,1.33333333333333,1122.188300541,1122.674659208,13,1122.254964083,1122.319384833,1122.689324083,1124.016048958,0,0.486358667000104
110,8,4,categorization,0,kitchen,SHINEd_sun_aarfiyshqohlwkmo.tif,67,0.0666666666666667,0.0666666666666667,1.26666666666667,1124.03397925,1124.360370458,9,1124.100531708,1124.16677825,1124.390067291,1125.65011,1,0.326391208000132
110,9,4,categorization,0,kitchen,SHINEd_sun_admlmbcdswaszruo.tif,79,0.0666666666666667,0.0666666666666667,0.883333333333333,1125.666562333,1125.975621583,9,1125.729108125,1125.789363583,1125.991262291,1126.867933291,1,0.309059250000018
110,10,4,categorization,0,kitchen,SHINEd_sun_aymvwlarqodbwuoc.tif,108,0.0666666666666667,0.0666666666666667,1.26666666666667,1126.872769375,1127.336008291,13,1126.934394916,1126.995384708,1127.347326333,1128.607359583,0,0.463238916000137
110,11,4,categorization,0,kitchen,SHINEd_sun_avszsnwsbuqfgzbn.tif,105,0.0666666666666667,0.0666666666666667,2,1128.62447175,1129.87527625,13,1128.690735541,1128.75392675,1129.896073791,1131.889459708,0,1.25080449999996
110,12,4,categorization,0,kitchen,SHINEd_sun_auaiucuqpdausiva.tif,102,0.0666666666666667,0.0666666666666667,0.733333333333333,1131.907050833,1132.2714105,9,1131.973577791,1132.04009325,1132.296435416,1133.023109541,1,0.364359666999917
110,13,4,categorization,0,kitchen,SHINEd_sun_agorklincwxrdtga.tif,87,0.0666666666666667,0.0666666666666667,0.883333333333333,1133.028752208,1133.543708375,13,1133.090531208,1133.151446458,1133.55340775,1134.430078916,0,0.514956167000037
110,14,4,categorization,0,kitchen,SHINEd_sun_ahspylgoovwmwvgk.tif,93,0.0666666666666667,0.0666666666666667,0.983333333333333,1134.435297208,1134.855755708,9,1134.497126416,1134.557974,1134.859728875,1135.836400583,1,0.420458499999995
110,15,4,categorization,0,bathroom,SHINEd_sun_amzlamotzwfkwjco.tif,37,0.0666666666666667,0.0666666666666667,1.56666666666667,1135.841181875,1136.216082625,9,1135.902778,1135.963817166,1136.232311708,1137.792350333,0,0.374900749999824
110,16,4,categorization,0,bathroom,SHINEd_sun_awnqiikzaispgmwo.tif,56,0.0666666666666667,0.0666666666666667,1.08333333333333,1137.805018958,1138.14003575,13,1137.87148225,1137.937898791,1138.161068708,1139.23777525,1,0.335016792000033
110,17,4,categorization,0,kitchen,SHINEd_sun_abftihopvusyfakt.tif,71,0.0666666666666667,0.0666666666666667,0.75,1139.25382875,1139.904424,9,1139.316736208,1139.376561375,1139.911666166,1140.65500425,1,0.650595250000151
110,18,4,categorization,0,bathroom,SHINEd_sun_apjevzvycyhuqghb.tif,43,0.0666666666666667,0.0666666666666667,0.966666666666667,1140.659793333,1141.216107208,13,1140.7213245,1140.782580791,1141.234540708,1142.194544958,1,0.556313875000114
110,19,4,categorization,0,bathroom,SHINEd_sun_acegryoqftbzowsg.tif,17,0.0666666666666667,0.0666666666666667,1.63333333333333,1142.199279166,1142.736313666,13,1142.260999,1142.321871083,1142.740185666,1144.366887,1,0.537034499999891
110,20,4,categorization,0,kitchen,SHINEd_sun_ahdycvpopffkzzsu.tif,90,0.0666666666666667,0.0666666666666667,1.46666666666667,1144.38788075,1145.959992166,13,1144.455144083,1144.519229583,1145.971908166,1147.431963625,0,1.57211141599987
110,21,4,categorization,0,bathroom,SHINEd_sun_anhioqovhscjqqwb.tif,38,0.0666666666666667,0.0666666666666667,0.933333333333333,1147.449265416,1147.569701125,13,1147.513936083,1147.5827455,1147.605491791,1148.532202208,1,0.120435709000049
110,22,4,categorization,0,kitchen,SHINEd_sun_aapllqyqlykszopd.tif,66,0.0666666666666667,0.0666666666666667,1.45,1148.546104333,1150.288270583,9,1148.612477083,1148.678448083,1150.297583458,1151.740959333,1,1.74216625000008
110,23,4,categorization,0,bathroom,SHINEd_sun_afcoljnjfoxjtgja.tif,20,0.0666666666666667,0.0666666666666667,0.966666666666667,1151.758000625,1152.058583583,9,1151.824697833,1151.891360416,1152.080935041,1153.040968833,0,0.30058295799995
110,24,4,categorization,0,kitchen,SHINEd_sun_acxkpeoqbwcxfvip.tif,77,0.0666666666666667,0.0666666666666667,0.816666666666667,1153.055669125,1154.151363583,9,1153.122457583,1153.188397958,1154.157688333,1154.967693791,1,1.09569445800003
110,25,4,categorization,0,bathroom,SHINEd_sun_axldvoqbuvuggfmq.tif,57,0.0666666666666667,0.0666666666666667,1.96666666666667,1154.972449416,1156.799894416,13,1155.034226333,1155.095119125,1156.813804333,1158.773820708,1,1.8274449999999
110,26,4,categorization,0,bathroom,SHINEd_sun_ahaulkltgpkeeemi.tif,26,0.0666666666666667,0.0666666666666667,0.916666666666667,1158.786498458,1159.715341041,13,1158.853476625,1158.919371875,1159.74266675,1160.65267125,1,0.928842583000005
110,27,4,categorization,0,bathroom,SHINEd_sun_abapwbhyhkfixyex.tif,14,0.0666666666666667,0.0666666666666667,1.28333333333333,1160.657515666,1161.127988791,13,1160.719204583,1160.78016275,1161.131879166,1162.408590125,1,0.470473124999899
110,28,4,categorization,0,kitchen,SHINEd_sun_adgqasybjyktddhj.tif,78,0.0666666666666667,0.0666666666666667,1.8,1162.426370791,1163.196370291,13,1162.492548125,1162.558134,1163.213079083,1165.006453083,0,0.76999950000004
110,29,4,categorization,0,kitchen,SHINEd_sun_acwjdupvyjsugpay.tif,76,0.0666666666666667,0.0666666666666667,1.33333333333333,1165.02346325,1165.143860375,9,1165.089854833,1165.15671075,1165.1796965,1166.506405625,1,0.120397124999954
110,30,4,categorization,0,kitchen,SHINEd_sun_ahywdevtimnqcsln.tif,94,0.0666666666666667,0.0666666666666667,1.06666666666667,1166.520484041,1167.281958291,13,1166.586281333,1166.651133916,1167.306855083,1168.366895166,0,0.761474249999992
110,31,4,categorization,0,kitchen,SHINEd_sun_akchetnepxlcxhsu.tif,98,0.0666666666666667,0.0666666666666667,1.03333333333333,1168.378479375,1168.903976875,13,1168.445071875,1168.510419125,1168.912392125,1169.939096083,0,0.525497499999801
110,32,4,categorization,0,kitchen,SHINEd_sun_aqeaevwwwjoqhzvl.tif,101,0.0666666666666667,0.0666666666666667,0.733333333333333,1169.949834916,1170.48246525,13,1170.014043,1170.080980083,1170.504018291,1171.230723166,0,0.532630333999805
110,33,4,categorization,0,kitchen,SHINEd_labelme_rykdqxenmhulbdn.tif,63,0.0666666666666667,0.0666666666666667,0.766666666666667,1171.245784125,1173.335392041,9,1171.312126166,1171.378495041,1173.347511583,1174.1075155,1,2.08960791599998
110,34,4,categorization,0,kitchen,SHINEd_sun_aexklacwqwezaorf.tif,84,0.0666666666666667,0.0666666666666667,1.1,1174.112085083,1174.583857,9,1174.173885416,1174.234790291,1174.603142791,1175.696507375,1,0.471771917000069
110,35,4,categorization,0,bathroom,SHINEd_sun_aspsyogrekjtfozg.tif,50,0.0666666666666667,0.0666666666666667,1.81666666666667,1175.706561083,1176.259555625,9,1175.771400291,1175.839057125,1176.27858025,1178.0886125,0,0.552994542000079
110,36,4,categorization,0,bathroom,SHINEd_sun_apmqjbnwghzuhhzh.tif,46,0.0666666666666667,0.0666666666666667,0.883333333333333,1178.107708083,1178.242811625,9,1178.17433675,1178.240713291,1178.263518333,1179.140235291,0,0.135103542000024
110,37,4,categorization,0,kitchen,SHINEd_sun_ajcbwwvdlsvjyzje.tif,96,0.0666666666666667,0.0666666666666667,1.7,1179.151660625,1181.136069708,13,1179.218245791,1179.28417675,1181.153054,1182.846436083,0,1.98440908299995
110,38,4,categorization,0,bathroom,SHINEd_sun_ajlawzvmubibwbpy.tif,30,0.0666666666666667,0.0666666666666667,1.58333333333333,1182.864366041,1184.249827083,9,1182.93103525,1182.996949291,1184.268197166,1185.844907666,0,1.38546104199986
110,39,4,categorization,0,kitchen,SHINEd_sun_aenotlpyftoioydp.tif,82,0.0666666666666667,0.0666666666666667,0.833333333333333,1185.861587458,1188.7916285,13,1185.928144791,1185.994618708,1188.796566958,1189.62323875,0,2.93004104199986
110,40,4,categorization,0,bathroom,SHINEd_sun_ahqjwnzgolcaoidx.tif,29,0.0666666666666667,0.0666666666666667,0.95,1189.628196458,1189.74824475,13,1189.690077125,1189.75097775,1189.769249833,1190.712585833,1,0.120048291999865
110,41,4,categorization,0,bathroom,SHINEd_sun_acduarbnmmoglmiv.tif,16,0.0666666666666667,0.0666666666666667,1.06666666666667,1190.717928166,1192.320155125,13,1190.779606208,1190.840619625,1192.326221541,1193.386252291,1,1.60222695899984
110,42,4,categorization,0,bathroom,SHINEd_sun_aapitsgbtktqubfy.tif,12,0.0666666666666667,0.0666666666666667,1.68333333333333,1193.39543375,1194.333417125,13,1193.4596995,1193.524125541,1194.346443833,1196.02315575,1,0.937983375000158
110,43,4,categorization,0,kitchen,SHINEd_sun_aamedkxepzlwuxes.tif,65,0.0666666666666667,0.0666666666666667,1.31666666666667,1196.03939225,1196.463047041,9,1196.105609291,1196.171960416,1196.477551375,1197.787624708,1,0.42365479099999
110,44,4,categorization,0,bathroom,SHINEd_sun_anryaplzeujmzfkd.tif,39,0.0666666666666667,0.0666666666666667,1.61666666666667,1197.8054135,1198.666375958,9,1197.872100041,1197.938051916,1198.694831166,1200.304885375,0,0.860962457999904
110,45,4,categorization,0,bathroom,SHINEd_sun_apeeialkgkuxddgh.tif,42,0.0666666666666667,0.0666666666666667,1.15,1200.321722041,1200.73309975,9,1200.388422416,1200.454377291,1200.741469625,1201.884814916,0,0.411377709000135
110,46,4,categorization,0,kitchen,SHINEd_labelme_brsyyvweiuaazfr.tif,61,0.0666666666666667,0.0666666666666667,1.25,1201.8909075,1202.471380166,13,1201.953167125,1202.013966416,1202.482387916,1203.725769791,0,0.580472666000105
110,47,4,categorization,0,bathroom,SHINEd_sun_auzqhkafidnkrwmo.tif,54,0.0666666666666667,0.0666666666666667,1.1,1203.743394,1204.233597791,9,1203.809905833,1203.876186375,1204.248505625,1205.34189575,0,0.490203790999885
110,48,4,categorization,0,kitchen,SHINEd_sun_abdenxonkemggwsq.tif,69,0.0666666666666667,0.0666666666666667,0.9,1205.354693916,1206.480045,13,1205.421358375,1205.487522916,1206.489788708,1207.383125125,0,1.12535108399993
110,49,4,categorization,0,bathroom,SHINEd_sun_ambriybtogmepttm.tif,36,0.0666666666666667,0.0666666666666667,1.3,1207.387627625,1208.439035208,13,1207.449380625,1207.510396666,1208.445644541,1209.739010916,1,1.0514075829999
110,50,4,categorization,0,kitchen,SHINEd_sun_ahljzhgcdpomplvg.tif,91,0.0666666666666667,0.0666666666666667,1.25,1209.7556485,1210.711966833,9,1209.822202041,1209.888524666,1210.728032583,1211.971413041,1,0.956318332999899
110,1,5,categorization,0,bathroom,SHINEd_sun_atstyziqcmkahyxk.tif,51,0.0666666666666667,0.0666666666666667,1.7,1252.262446833,1253.567841125,13,1252.32494125,1252.385190791,1253.587725791,1255.281095583,1,1.30539429200007
110,2,5,categorization,0,bathroom,SHINEd_sun_apkruvsevgegsdwp.tif,44,0.0666666666666667,0.0666666666666667,1.81666666666667,1255.299203708,1255.817852541,9,1255.365664333,1255.4306565,1255.836927625,1257.646963333,0,0.518648833000043
110,3,5,categorization,0,kitchen,SHINEd_sun_ahljzhgcdpomplvg.tif,91,0.0666666666666667,0.0666666666666667,1.23333333333333,1257.664293541,1258.037200208,13,1257.728504291,1257.795888958,1258.051546708,1259.2782565,0,0.372906667000052
110,4,5,categorization,0,kitchen,SHINEd_sun_aenotlpyftoioydp.tif,82,0.0666666666666667,0.0666666666666667,1.4,1259.295073458,1259.657889791,9,1259.361474708,1259.427090791,1259.682950083,1261.076333458,1,0.362816332999955
110,5,5,categorization,0,bathroom,SHINEd_sun_apjevzvycyhuqghb.tif,43,0.0666666666666667,0.0666666666666667,1.03333333333333,1261.086269958,1261.686940166,13,1261.148834666,1261.208848791,1261.694053125,1262.720771875,1,0.600670208000111
110,6,5,categorization,0,bathroom,SHINEd_sun_alotolagknyrgtsk.tif,35,0.0666666666666667,0.0666666666666667,1.38333333333333,1262.730082833,1263.077211541,13,1262.795257875,1262.861199166,1263.100752541,1264.477469,1,0.3471287079999
110,7,5,categorization,0,kitchen,SHINEd_sun_ahywdevtimnqcsln.tif,94,0.0666666666666667,0.0666666666666667,2,1264.49643725,1264.632033,9,1264.562919291,1264.628753666,1264.651108833,1266.644496083,1,0.135595749999993
110,8,5,categorization,0,kitchen,SHINEd_sun_aypmqwcualkenuoe.tif,109,0.0666666666666667,0.0666666666666667,1.85,1266.662086166,1266.988470208,13,1266.728761708,1266.791373958,1267.014550666,1268.857920625,0,0.326384041999972
110,9,5,categorization,0,bathroom,SHINEd_sun_aggnnqpdorgxpvce.tif,21,0.0666666666666667,0.0666666666666667,0.816666666666667,1268.876266208,1269.236117791,9,1268.942873333,1269.008825875,1269.265323791,1270.075369,0,0.359851582999909
110,10,5,categorization,0,kitchen,SHINEd_sun_aqeaevwwwjoqhzvl.tif,101,0.0666666666666667,0.0666666666666667,1.85,1270.0873905,1271.919486666,9,1270.151680458,1270.210857833,1271.930513541,1273.773886083,1,1.83209616599993
110,11,5,categorization,0,kitchen,SHINEd_sun_awcpdzzznmweyyhv.tif,106,0.0666666666666667,0.0666666666666667,0.733333333333333,1273.79179825,1274.958930708,13,1273.858819875,1273.924921791,1274.981549291,1275.708220541,0,1.16713245799997
110,12,5,categorization,0,bathroom,SHINEd_sun_apkxzenqapsujocq.tif,45,0.0666666666666667,0.0666666666666667,0.716666666666667,1275.712733041,1278.44714675,9,1275.774632333,1275.835362041,1278.454774458,1279.164778166,0,2.73441370899991
110,13,5,categorization,0,bathroom,SHINEd_sun_anhioqovhscjqqwb.tif,38,0.0666666666666667,0.0666666666666667,0.833333333333333,1279.16977375,1280.631234625,9,1279.231568166,1279.292453583,1280.6445155,1281.471187916,0,1.46146087499983
110,14,5,categorization,0,bathroom,SHINEd_sun_aapitsgbtktqubfy.tif,12,0.0666666666666667,0.0666666666666667,0.95,1281.475886416,1282.463410583,13,1281.5375515,1281.598582541,1282.467209916,1283.410546958,1,0.987524166999947
110,15,5,categorization,0,bathroom,SHINEd_sun_aleqenyvunhactkl.tif,32,0.0666666666666667,0.0666666666666667,1.96666666666667,1283.415314208,1283.8953365,13,1283.477022916,1283.537965708,1283.90676675,1285.866803833,1,0.480022292000058
110,16,5,categorization,0,bathroom,SHINEd_sun_amzlamotzwfkwjco.tif,37,0.0666666666666667,0.0666666666666667,1.86666666666667,1285.886450083,1286.880793958,9,1285.953166291,1286.019054791,1286.908857416,1288.768902125,0,0.994343874999913
110,17,5,categorization,0,kitchen,SHINEd_sun_abpwyqmlzafvklqo.tif,72,0.0666666666666667,0.0666666666666667,1.51666666666667,1288.778949458,1289.632332916,9,1288.845363541,1288.912744333,1289.652172833,1291.162222541,1,0.853383458000053
110,18,5,categorization,0,kitchen,SHINEd_sun_abrcnpqqhmjwekyf.tif,73,0.0666666666666667,0.0666666666666667,1.3,1291.180113083,1291.71565075,9,1291.246385708,1291.312880708,1291.735208041,1293.028578208,1,0.535537666999971
110,19,5,categorization,0,kitchen,SHINEd_sun_agubuxuukhzyzpdp.tif,88,0.0666666666666667,0.0666666666666667,1.91666666666667,1293.0484185,1295.686675125,9,1293.114710875,1293.18099475,1295.700163958,1297.610198208,1,2.63825662499994
110,20,5,categorization,0,bathroom,SHINEd_sun_abapwbhyhkfixyex.tif,14,0.0666666666666667,0.0666666666666667,1.23333333333333,1297.627707416,1299.703301416,9,1297.695959791,1297.75912525,1299.711462208,1300.938175125,0,2.07559399999991
110,21,5,categorization,0,bathroom,SHINEd_sun_aavhrsfjbserjtht.tif,13,0.0666666666666667,0.0666666666666667,0.866666666666667,1300.951928083,1301.852977916,13,1301.019184875,1301.084820875,1301.874905458,1302.734956791,1,0.901049833000116
110,22,5,categorization,0,bathroom,SHINEd_sun_axldvoqbuvuggfmq.tif,57,0.0666666666666667,0.0666666666666667,0.8,1302.744885666,1303.61500225,13,1302.807383583,1302.867644083,1303.619445708,1304.412782916,1,0.870116584000016
110,23,5,categorization,0,kitchen,SHINEd_sun_ahpczsiumwwocjkv.tif,92,0.0666666666666667,0.0666666666666667,1.51666666666667,1304.417730625,1305.855038791,13,1304.479499333,1304.54040825,1305.859450458,1307.369478041,0,1.43730816599987
110,24,5,categorization,0,bathroom,SHINEd_sun_alkosphxlxwjwgjd.tif,34,0.0666666666666667,0.0666666666666667,1.18333333333333,1307.38812575,1308.145665916,9,1307.45474925,1307.520736333,1308.159466625,1309.336191083,0,0.757540166000126
110,25,5,categorization,0,kitchen,SHINEd_sun_acgtpgfybqjmzeyw.tif,75,0.0666666666666667,0.0666666666666667,1.6,1309.345849041,1309.780817208,13,1309.412290458,1309.478474625,1309.801161958,1311.394532,0,0.434968166999852
110,26,5,categorization,0,kitchen,SHINEd_labelme_rykdqxenmhulbdn.tif,63,0.0666666666666667,0.0666666666666667,1.56666666666667,1311.411129541,1311.898734541,13,1311.477605666,1311.543778,1311.916370375,1313.476403708,0,0.48760500000003
110,27,5,categorization,0,bathroom,SHINEd_sun_awnqiikzaispgmwo.tif,56,0.0666666666666667,0.0666666666666667,1.36666666666667,1313.494214125,1314.498247583,13,1313.560866583,1313.627016041,1314.516545916,1315.876589791,1,1.00403345799987
110,28,5,categorization,0,kitchen,SHINEd_sun_akcjzhbbjlbogpdi.tif,99,0.0666666666666667,0.0666666666666667,1.53333333333333,1315.893644583,1317.194197791,9,1315.960772541,1316.026585375,1317.219568375,1318.746283,1,1.30055320800011
110,29,5,categorization,0,bathroom,SHINEd_sun_agrwbmhcpmfuwmsg.tif,24,0.0666666666666667,0.0666666666666667,1.4,1318.756683916,1319.65128375,9,1318.823806125,1318.88961675,1319.679376916,1321.072752708,0,0.894599834000019
110,30,5,categorization,0,kitchen,SHINEd_sun_acwjdupvyjsugpay.tif,76,0.0666666666666667,0.0666666666666667,1.06666666666667,1321.090742958,1322.146627416,9,1321.157401041,1321.223598,1322.16247525,1323.222511333,1,1.05588445800004
110,31,5,categorization,0,kitchen,SHINEd_sun_aadbddgrdsjugojn.tif,64,0.0666666666666667,0.0666666666666667,1.63333333333333,1323.230396833,1324.400009125,9,1323.294572458,1323.360341166,1324.418028875,1326.044742958,1,1.16961229200001
110,32,5,categorization,0,kitchen,SHINEd_sun_acxkpeoqbwcxfvip.tif,77,0.0666666666666667,0.0666666666666667,1.8,1326.061319333,1326.441644041,13,1326.127948,1326.194444583,1326.467692166,1328.261082916,0,0.380324707999989
110,33,5,categorization,0,kitchen,SHINEd_sun_ajcbwwvdlsvjyzje.tif,96,0.0666666666666667,0.0666666666666667,1.53333333333333,1328.277872916,1328.624939208,9,1328.344510416,1328.410660916,1328.65078325,1330.177508875,1,0.347066291999909
110,34,5,categorization,0,bathroom,SHINEd_sun_axyrejkiiaqiurjk.tif,59,0.0666666666666667,0.0666666666666667,0.766666666666667,1330.194274375,1331.108060083,9,1330.26077475,1330.326912833,1331.133584083,1331.893590125,0,0.913785707999978
110,35,5,categorization,0,bathroom,SHINEd_sun_azqyogdvyhahyram.tif,60,0.0666666666666667,0.0666666666666667,1.86666666666667,1331.90133375,1333.535029625,9,1331.963127416,1332.024153166,1333.542952083,1335.402993541,0,1.63369587500006
110,36,5,categorization,0,bathroom,SHINEd_sun_acegryoqftbzowsg.tif,17,0.0666666666666667,0.0666666666666667,1.13333333333333,1335.422177375,1336.254431958,13,1335.489031833,1335.555008916,1336.278911166,1337.405622166,1,0.832254582999894
110,37,5,categorization,0,bathroom,SHINEd_sun_ahaulkltgpkeeemi.tif,26,0.0666666666666667,0.0666666666666667,1.73333333333333,1337.415414583,1338.355728708,9,1337.480125791,1337.548050541,1338.370714625,1340.097423083,0,0.940314124999986
110,38,5,categorization,0,bathroom,SHINEd_sun_afcoljnjfoxjtgja.tif,20,0.0666666666666667,0.0666666666666667,0.766666666666667,1340.115596333,1340.850007583,13,1340.1824455,1340.248418125,1340.872080916,1341.6320865,1,0.734411249999994
110,39,5,categorization,0,bathroom,SHINEd_sun_axxbkopsgyouuebh.tif,58,0.0666666666666667,0.0666666666666667,1.85,1341.637629208,1342.151483791,13,1341.699329125,1341.760419083,1342.16228175,1344.005667375,1,0.513854583000011
110,40,5,categorization,0,bathroom,SHINEd_sun_aljolscmmzydegqp.tif,33,0.0666666666666667,0.0666666666666667,0.966666666666667,1344.024939041,1344.810543958,13,1344.091774791,1344.1582095,1344.830088833,1345.790094291,1,0.785604917000001
110,41,5,categorization,0,kitchen,SHINEd_sun_avszsnwsbuqfgzbn.tif,105,0.0666666666666667,0.0666666666666667,1.06666666666667,1345.795009666,1347.32721075,13,1345.856712083,1345.917772333,1347.337011541,1348.397059625,0,1.53220108400001
110,42,5,categorization,0,bathroom,SHINEd_sun_akiytfaagpdsphgz.tif,31,0.0666666666666667,0.0666666666666667,1.38333333333333,1348.40882775,1353.319978833,9,1348.473056375,1348.53976525,1353.342670625,1354.719395833,0,4.91115108300005
110,43,5,categorization,0,bathroom,SHINEd_sun_apeeialkgkuxddgh.tif,42,0.0666666666666667,0.0666666666666667,0.766666666666667,1354.734685791,1357.5506005,9,1354.799547041,1354.867387041,1357.569920333,1358.329924458,0,2.81591470900003
110,44,5,categorization,0,kitchen,SHINEd_sun_ahdycvpopffkzzsu.tif,90,0.0666666666666667,0.0666666666666667,0.866666666666667,1358.334994041,1361.11929475,13,1358.396700333,1358.457646125,1361.126589666,1361.986594208,0,2.78430070900004
110,45,5,categorization,0,kitchen,SHINEd_sun_aegoxogugdkwpmpj.tif,80,0.0666666666666667,0.0666666666666667,1.25,1361.991277416,1363.430418625,9,1362.053044208,1362.113937541,1363.449578458,1364.692960125,1,1.4391412089999
110,46,5,categorization,0,kitchen,SHINEd_sun_aexklacwqwezaorf.tif,84,0.0666666666666667,0.0666666666666667,1.03333333333333,1364.704829291,1365.463406541,9,1364.770094625,1364.836445375,1365.493168958,1366.519870208,1,0.758577250000144
110,47,5,categorization,0,kitchen,SHINEd_sun_abdxkyyxwfskuaqb.tif,70,0.0666666666666667,0.0666666666666667,0.783333333333333,1366.536069708,1367.062380208,13,1366.598795416,1366.658812583,1367.077172083,1367.853845666,0,0.526310499999909
110,48,5,categorization,0,bathroom,SHINEd_sun_aofnryafpsjimzsb.tif,40,0.0666666666666667,0.0666666666666667,0.7,1367.859320416,1368.71854725,13,1367.921049291,1367.982012208,1368.734089583,1369.42742875,1,0.859226834000083
110,49,5,categorization,0,kitchen,SHINEd_sun_auaiucuqpdausiva.tif,102,0.0666666666666667,0.0666666666666667,1.75,1369.434200791,1370.007112541,9,1369.496007666,1369.556915041,1370.025353,1371.768726083,1,0.572911750000003
110,50,5,categorization,0,bathroom,SHINEd_sun_avhrdrntsqrjzccq.tif,55,0.0666666666666667,0.0666666666666667,1.36666666666667,1371.78552775,1372.193366083,13,1371.852162041,1371.918511625,1372.206958708,1373.567008458,1,0.407838332999972
110,1,6,categorization,0,kitchen,SHINEd_sun_aunzlwrbjumxhwdj.tif,103,0.0666666666666667,0.0666666666666667,0.966666666666667,1389.674763375,1390.53434975,9,1389.737429791,1389.797723541,1390.54985675,1391.509861541,1,0.859586374999935
110,2,6,categorization,0,bathroom,SHINEd_sun_ahijqszoswveeyji.tif,28,0.0666666666666667,0.0666666666666667,1.73333333333333,1391.514773666,1391.806626875,13,1391.576607791,1391.637431916,1391.822576583,1393.549296291,1,0.291853208999783
110,3,6,categorization,0,bathroom,SHINEd_sun_agyqfjcfkdcydepw.tif,25,0.0666666666666667,0.0666666666666667,1.91666666666667,1393.569818875,1393.92771825,13,1393.63583225,1393.701962375,1393.941052666,1395.851084083,1,0.357899374999988
110,4,6,categorization,0,bathroom,SHINEd_sun_aclfzgynxzxlbepz.tif,19,0.0666666666666667,0.0666666666666667,0.766666666666667,1395.868529458,1396.23256975,9,1395.934519916,1396.000383541,1396.256861291,1397.016905208,0,0.364040292000027
110,5,6,categorization,0,kitchen,SHINEd_sun_azmutvzbxypaceni.tif,110,0.0666666666666667,0.0666666666666667,0.916666666666667,1397.03129175,1397.454494083,13,1397.094159708,1397.154080416,1397.472442375,1398.382448375,0,0.423202333000063
110,6,6,categorization,0,kitchen,SHINEd_sun_auticobqsbwgoppi.tif,104,0.0666666666666667,0.0666666666666667,1.18333333333333,1398.387979083,1398.7265695,13,1398.449734458,1398.510558541,1398.745593916,1399.922293833,0,0.338590417000205
110,7,6,categorization,0,kitchen,SHINEd_labelme_kxvouciolcpqplr.tif,62,0.0666666666666667,0.0666666666666667,1.8,1399.933793625,1400.155809875,9,1400.000407333,1400.066265791,1400.172113833,1401.965494416,1,0.222016250000024
110,8,6,categorization,0,bathroom,SHINEd_sun_aghyqhbptboemmoq.tif,23,0.0666666666666667,0.0666666666666667,0.883333333333333,1401.985623083,1402.324160208,9,1402.052087166,1402.118215291,1402.340683208,1403.217390041,0,0.338537124999903
110,9,6,categorization,0,bathroom,SHINEd_sun_abjtwfukuwddzted.tif,15,0.0666666666666667,0.0666666666666667,1.83333333333333,1403.229611958,1403.524160583,13,1403.296093333,1403.362586625,1403.5522385,1405.378946875,1,0.294548624999834
110,10,6,categorization,0,kitchen,SHINEd_sun_axyyrmzcupyhlivc.tif,107,0.0666666666666667,0.0666666666666667,1.76666666666667,1405.396661166,1406.790606916,13,1405.463405458,1405.529156166,1406.797854125,1408.557905,0,1.39394574999983
110,11,6,categorization,0,bathroom,SHINEd_sun_ajlawzvmubibwbpy.tif,30,0.0666666666666667,0.0666666666666667,0.983333333333333,1408.575663666,1408.922231583,13,1408.643864291,1408.70857575,1408.947264791,1409.923942083,1,0.346567916999902
110,12,6,categorization,0,kitchen,SHINEd_sun_ahspylgoovwmwvgk.tif,93,0.0666666666666667,0.0666666666666667,0.883333333333333,1409.929592,1410.191075125,9,1409.991327333,1410.052288041,1410.20446625,1411.08113675,1,0.261483125000041
110,13,6,categorization,0,kitchen,SHINEd_sun_acfmftudsenhrfhy.tif,74,0.0666666666666667,0.0666666666666667,0.85,1411.085818125,1411.446120375,13,1411.147540875,1411.208497583,1411.4603535,1412.303691791,0,0.360302249999904
110,14,6,categorization,0,kitchen,SHINEd_sun_aaxxjlsuzvqlgylf.tif,68,0.0666666666666667,0.0666666666666667,0.733333333333333,1412.3078295,1412.566545791,9,1412.369549625,1412.430459,1412.582550083,1413.309219916,1,0.258716290999928
110,15,6,categorization,0,kitchen,SHINEd_sun_admlmbcdswaszruo.tif,79,0.0666666666666667,0.0666666666666667,1.88333333333333,1413.313515416,1413.670239916,13,1413.375144291,1413.436204208,1413.68803575,1415.564748458,0,0.356724499999928
110,16,6,categorization,0,kitchen,SHINEd_sun_aarfiyshqohlwkmo.tif,67,0.0666666666666667,0.0666666666666667,0.816666666666667,1415.582822,1415.999423875,13,1415.649652833,1415.7155815,1416.02225175,1416.8322575,0,0.416601874999969
110,17,6,categorization,0,kitchen,SHINEd_sun_abdenxonkemggwsq.tif,69,0.0666666666666667,0.0666666666666667,1.9,1416.837004166,1417.12712575,9,1416.898638791,1416.959700458,1417.144788291,1419.038155791,1,0.290121583999962
110,18,6,categorization,0,bathroom,SHINEd_sun_ahcvzmoyaycdoftf.tif,27,0.0666666666666667,0.0666666666666667,0.983333333333333,1419.055270083,1420.630616458,13,1419.12151925,1419.188235125,1420.640974583,1421.617645833,1,1.57534637499998
110,19,6,categorization,0,bathroom,SHINEd_sun_ahqjwnzgolcaoidx.tif,29,0.0666666666666667,0.0666666666666667,0.75,1421.623193625,1423.55039925,13,1421.684929041,1423.554221416,1423.572512708,1424.315849916,1,1.92720562499994
110,20,6,categorization,0,bathroom,SHINEd_sun_aunuadmjocsddsrl.tif,52,0.0666666666666667,0.0666666666666667,1.6,1424.320524416,1425.030144375,13,1424.38221375,1424.443167958,1425.045136208,1426.638522458,1,0.709619959000065
110,21,6,categorization,0,bathroom,SHINEd_sun_apmqjbnwghzuhhzh.tif,46,0.0666666666666667,0.0666666666666667,1.58333333333333,1426.655248333,1427.075859083,9,1426.722188458,1426.7841265,1427.090022166,1428.666734583,0,0.420610750000151
110,22,6,categorization,0,kitchen,SHINEd_sun_amjjdeyrggfqgmom.tif,100,0.0666666666666667,0.0666666666666667,1.11666666666667,1428.685156333,1429.048502666,9,1428.750425208,1428.816029166,1429.072907583,1430.182946041,1,0.363346333000209
110,23,6,categorization,0,kitchen,SHINEd_sun_agzzivivdpnawacl.tif,89,0.0666666666666667,0.0666666666666667,1.53333333333333,1430.202885791,1430.798685583,9,1430.269770125,1430.32783775,1430.812981333,1432.339692125,1,0.59579979199998
110,24,6,categorization,0,kitchen,SHINEd_labelme_brsyyvweiuaazfr.tif,61,0.0666666666666667,0.0666666666666667,1.48333333333333,1432.356770375,1433.3244915,13,1432.423458708,1432.489129833,1433.346005958,1434.822725333,0,0.967721125000025
110,25,6,categorization,0,bathroom,SHINEd_sun_aoybiabnpadelefl.tif,41,0.0666666666666667,0.0666666666666667,1.1,1434.841009375,1435.583433875,13,1434.907448333,1434.973459666,1435.613221958,1436.706593541,1,0.74242449999997
110,26,6,categorization,0,bathroom,SHINEd_sun_agguqiubmwhqqunb.tif,22,0.0666666666666667,0.0666666666666667,0.933333333333333,1436.717266583,1437.420017,9,1436.78215075,1436.848611208,1437.43809025,1438.364815708,0,0.702750416999834
110,27,6,categorization,0,kitchen,SHINEd_sun_aapllqyqlykszopd.tif,66,0.0666666666666667,0.0666666666666667,0.816666666666667,1438.381725833,1439.486074708,13,1438.44798925,1438.514710458,1439.500524833,1440.31052925,0,1.10434887499991
110,28,6,categorization,0,bathroom,SHINEd_sun_asfwthctfqerjvxr.tif,49,0.0666666666666667,0.0666666666666667,1.78333333333333,1440.316896125,1441.7665465,9,1440.378705458,1440.439483291,1441.775313958,1443.552030458,0,1.44965037499992
110,29,6,categorization,0,bathroom,SHINEd_sun_aqrpegblszgcoujh.tif,48,0.0666666666666667,0.0666666666666667,0.766666666666667,1443.570796416,1447.319444125,9,1443.637511625,1443.703636666,1447.339565958,1448.09957175,0,3.74864770900012
110,30,6,categorization,0,bathroom,SHINEd_sun_ambriybtogmepttm.tif,36,0.0666666666666667,0.0666666666666667,1.45,1448.104081833,1449.662363666,13,1448.165795333,1448.226724625,1449.679073375,1451.122456083,1,1.55828183299991
110,31,6,categorization,0,kitchen,SHINEd_sun_akchetnepxlcxhsu.tif,98,0.0666666666666667,0.0666666666666667,0.75,1451.140920791,1451.261360458,13,1451.207472208,1451.274831041,1451.297486083,1452.040868958,0,0.1204396669998
110,32,6,categorization,0,kitchen,SHINEd_sun_aehawpgmrlhlvcow.tif,81,0.0666666666666667,0.0666666666666667,1.36666666666667,1452.054882416,1453.438350791,13,1452.120917958,1452.187053791,1453.456210833,1454.816242625,0,1.38346837499989
110,33,6,categorization,0,bathroom,SHINEd_sun_auzqhkafidnkrwmo.tif,54,0.0666666666666667,0.0666666666666667,0.75,1454.826896375,1456.202556125,9,1454.894865333,1454.959717666,1456.235694833,1456.97903225,0,1.37565975000007
110,34,6,categorization,0,kitchen,SHINEd_sun_afuyedyxivkhecmu.tif,85,0.0666666666666667,0.0666666666666667,0.783333333333333,1456.983837541,1457.270343833,9,1457.045634541,1457.106527333,1457.274966333,1458.051635625,1,0.286506292000013
110,35,6,categorization,0,kitchen,SHINEd_sun_aamedkxepzlwuxes.tif,65,0.0666666666666667,0.0666666666666667,1.11666666666667,1458.055944708,1458.22284875,9,1458.117721625,1458.178582625,1458.230467375,1459.340521916,1,0.166904041999942
110,36,6,categorization,0,bathroom,SHINEd_sun_anryaplzeujmzfkd.tif,39,0.0666666666666667,0.0666666666666667,0.766666666666667,1459.35160075,1459.769257375,13,1459.416093791,1459.484151916,1459.790434375,1460.550472083,1,0.417656625000063
110,37,6,categorization,0,kitchen,SHINEd_sun_agorklincwxrdtga.tif,87,0.0666666666666667,0.0666666666666667,0.716666666666667,1460.565351083,1461.145659333,9,1460.631770791,1460.698156708,1461.1713105,1461.881314166,1,0.580308249999916
110,38,6,categorization,0,kitchen,SHINEd_sun_adgqasybjyktddhj.tif,78,0.0666666666666667,0.0666666666666667,1.33333333333333,1461.886434,1462.702835708,13,1461.948179125,1462.009114208,1462.710911916,1464.037637791,0,0.816401708000058
110,39,6,categorization,0,kitchen,SHINEd_sun_aeqdocilnnpuvuhx.tif,83,0.0666666666666667,0.0666666666666667,1.75,1464.056108416,1464.176565875,9,1464.122883083,1464.189757583,1464.212303375,1465.955687958,1,0.120457459000136
110,40,6,categorization,0,bathroom,SHINEd_sun_acgyywnybuveqsro.tif,18,0.0666666666666667,0.0666666666666667,1.13333333333333,1465.972870791,1466.154415583,9,1466.038826833,1466.105659958,1466.178705916,1467.305419666,0,0.181544791999841
110,41,6,categorization,0,kitchen,SHINEd_sun_aymvwlarqodbwuoc.tif,108,0.0666666666666667,0.0666666666666667,1.63333333333333,1467.321198791,1468.814400708,13,1467.38780925,1467.453792666,1468.82243175,1470.449142375,0,1.49320191700008
110,42,6,categorization,0,kitchen,SHINEd_sun_ajkqhtgcbgpcwrwn.tif,97,0.0666666666666667,0.0666666666666667,1.43333333333333,1470.470391416,1470.939460875,13,1470.5373,1470.603406083,1470.959589875,1472.386314166,0,0.469069458999911
110,43,6,categorization,0,kitchen,SHINEd_sun_aixorpehvfykdynp.tif,95,0.0666666666666667,0.0666666666666667,1.83333333333333,1472.403811,1472.92835175,13,1472.470308125,1472.53646875,1472.942161458,1474.768867708,0,0.524540750000142
110,44,6,categorization,0,bathroom,SHINEd_sun_ausgutylgojavyoq.tif,53,0.0666666666666667,0.0666666666666667,1.93333333333333,1474.782064458,1475.240512375,13,1474.849124958,1474.914648541,1475.253412625,1477.180119666,1,0.458447917000058
110,45,6,categorization,0,bathroom,SHINEd_sun_apynckhmoftszqoq.tif,47,0.0666666666666667,0.0666666666666667,1.26666666666667,1477.198446708,1477.602039208,13,1477.264882875,1477.33161275,1477.621037791,1478.88109475,1,0.403592500000059
110,46,6,categorization,0,bathroom,SHINEd_sun_aspsyogrekjtfozg.tif,50,0.0666666666666667,0.0666666666666667,1.86666666666667,1478.898773291,1479.019171125,9,1478.965688625,1479.032421708,1479.05534175,1480.915376583,0,0.120397833999959
110,47,6,categorization,0,kitchen,SHINEd_sun_aggjlwcdjsjcaemh.tif,86,0.0666666666666667,0.0666666666666667,1.41666666666667,1480.934737,1481.369383541,9,1481.001445458,1481.067748166,1481.390935333,1482.800953583,1,0.434646540999893
110,48,6,categorization,0,bathroom,SHINEd_sun_acduarbnmmoglmiv.tif,16,0.0666666666666667,0.0666666666666667,1.11666666666667,1482.812049958,1484.582751291,13,1482.878826416,1482.936371583,1484.588963666,1485.699015166,1,1.77070133300003
110,49,6,categorization,0,kitchen,SHINEd_sun_abftihopvusyfakt.tif,71,0.0666666666666667,0.0666666666666667,1.8,1485.710387041,1486.3235425,13,1485.775362375,1485.843389666,1486.349599875,1488.142978333,0,0.613155458999927
110,50,6,categorization,0,bathroom,SHINEd_labelme_sfxiulhjbhlyiyt.tif,11,0.0666666666666667,0.0666666666666667,1.25,1488.161256125,1488.999146125,13,1488.229714208,1488.293783041,1489.016134666,1490.259499583,1,0.837890000000016
110,1,7,categorization,0,kitchen,SHINEd_sun_amjjdeyrggfqgmom.tif,100,0.0666666666666667,0.0666666666666667,0.883333333333333,1526.833861583,1527.40569175,13,1526.895999583,1526.956606083,1527.425134791,1528.301807125,0,0.571830166999916
110,2,7,categorization,0,kitchen,SHINEd_sun_ahljzhgcdpomplvg.tif,91,0.0666666666666667,0.0666666666666667,1.03333333333333,1528.306588875,1528.798651375,9,1528.368240125,1528.42924075,1528.81432125,1529.841039166,1,0.492062499999975
110,3,7,categorization,0,bathroom,SHINEd_sun_akiytfaagpdsphgz.tif,31,0.0666666666666667,0.0666666666666667,1.06666666666667,1529.854189333,1530.210421375,13,1529.919164166,1529.985538458,1530.224830958,1531.284876291,1,0.356232041999874
110,4,7,categorization,0,bathroom,SHINEd_sun_atstyziqcmkahyxk.tif,51,0.0666666666666667,0.0666666666666667,0.833333333333333,1531.301363333,1531.951202416,13,1531.36751875,1531.434054125,1531.970014,1532.796684666,1,0.649839082999961
110,5,7,categorization,0,bathroom,SHINEd_sun_apynckhmoftszqoq.tif,47,0.0666666666666667,0.0666666666666667,0.716666666666667,1532.801325583,1534.030371291,9,1532.863057166,1532.923977,1534.042406875,1534.752411625,0,1.22904570799983
110,6,7,categorization,0,kitchen,SHINEd_sun_aegoxogugdkwpmpj.tif,80,0.0666666666666667,0.0666666666666667,0.733333333333333,1534.757063708,1536.149751041,9,1534.818891875,1534.879677166,1536.16524475,1536.891915791,1,1.39268733299991
110,7,7,categorization,0,bathroom,SHINEd_sun_apkruvsevgegsdwp.tif,44,0.0666666666666667,0.0666666666666667,1.38333333333333,1536.896721166,1538.910166416,13,1536.958397791,1537.019417583,1538.921571875,1540.298284375,1,2.01344525000013
110,8,7,categorization,0,bathroom,SHINEd_sun_afcoljnjfoxjtgja.tif,20,0.0666666666666667,0.0666666666666667,0.9,1540.316131083,1541.847547291,13,1540.384060083,1540.448407125,1541.874191833,1542.767529333,1,1.53141620799988
110,9,7,categorization,0,bathroom,SHINEd_sun_anhioqovhscjqqwb.tif,38,0.0666666666666667,0.0666666666666667,0.816666666666667,1542.772371416,1543.390030166,13,1542.834101625,1542.895073125,1543.396801625,1544.206807041,1,0.617658750000146
110,10,7,categorization,0,kitchen,SHINEd_sun_aarfiyshqohlwkmo.tif,67,0.0666666666666667,0.0666666666666667,0.85,1544.212069416,1544.758457708,9,1544.273845625,1544.334769666,1544.769914208,1545.613252916,1,0.546388291999847
110,11,7,categorization,0,bathroom,SHINEd_sun_alkosphxlxwjwgjd.tif,34,0.0666666666666667,0.0666666666666667,1.6,1545.618173958,1546.510402416,9,1545.679785791,1545.740832041,1546.526244708,1548.11961925,0,0.892228458000091
110,12,7,categorization,0,kitchen,SHINEd_sun_acgtpgfybqjmzeyw.tif,75,0.0666666666666667,0.0666666666666667,1.75,1548.133165208,1548.616276083,13,1548.197275625,1548.264068083,1548.637391708,1550.380780333,0,0.483110874999966
110,13,7,categorization,0,kitchen,SHINEd_sun_abdxkyyxwfskuaqb.tif,70,0.0666666666666667,0.0666666666666667,1.1,1550.398411,1550.561002,9,1550.465459666,1550.531400791,1550.588635125,1551.682007166,1,0.16259100000002
110,14,7,categorization,0,bathroom,SHINEd_sun_acegryoqftbzowsg.tif,17,0.0666666666666667,0.0666666666666667,1.46666666666667,1551.701249958,1552.061760125,13,1551.7633165,1551.823914833,1552.075858,1553.535900041,1,0.360510167000029
110,15,7,categorization,0,kitchen,SHINEd_sun_ahspylgoovwmwvgk.tif,93,0.0666666666666667,0.0666666666666667,1.25,1553.552942291,1553.867556125,9,1553.6195415,1553.685578708,1553.892029083,1555.135397,1,0.314613834000056
110,16,7,categorization,0,bathroom,SHINEd_sun_alotolagknyrgtsk.tif,35,0.0666666666666667,0.0666666666666667,1.13333333333333,1555.145966708,1555.479183458,13,1555.210674083,1555.278361458,1555.501387833,1556.628086125,1,0.33321675000002
110,17,7,categorization,0,kitchen,SHINEd_labelme_rykdqxenmhulbdn.tif,63,0.0666666666666667,0.0666666666666667,1.33333333333333,1556.644760291,1557.016532083,13,1556.711188583,1556.776251083,1557.031736125,1558.358446166,0,0.37177179199989
110,18,7,categorization,0,kitchen,SHINEd_sun_abdenxonkemggwsq.tif,69,0.0666666666666667,0.0666666666666667,1.86666666666667,1558.37583425,1558.726437291,9,1558.442410833,1558.5086455,1558.747037125,1560.607080458,1,0.350603040999886
110,19,7,categorization,0,bathroom,SHINEd_sun_ausgutylgojavyoq.tif,53,0.0666666666666667,0.0666666666666667,1.58333333333333,1560.624513625,1560.999140791,9,1560.691115375,1560.755597333,1561.028876416,1562.605588708,0,0.374627165999982
110,20,7,categorization,0,bathroom,SHINEd_sun_aapitsgbtktqubfy.tif,12,0.0666666666666667,0.0666666666666667,1.05,1562.623225708,1563.023658875,13,1562.690006166,1562.754420166,1563.044352208,1564.087736875,1,0.400433166999846
110,21,7,categorization,0,kitchen,SHINEd_sun_akchetnepxlcxhsu.tif,98,0.0666666666666667,0.0666666666666667,0.9,1564.103614083,1564.566389583,13,1564.170341375,1564.236715708,1564.572140791,1565.465477541,0,0.462775500000134
110,22,7,categorization,0,bathroom,SHINEd_sun_aqrpegblszgcoujh.tif,48,0.0666666666666667,0.0666666666666667,0.7,1565.470317208,1565.885948208,13,1565.532109875,1565.593000208,1565.894704541,1566.588041166,1,0.415630999999848
110,23,7,categorization,0,bathroom,SHINEd_sun_ajlawzvmubibwbpy.tif,30,0.0666666666666667,0.0666666666666667,0.933333333333333,1566.592129916,1567.085816041,9,1566.653894041,1566.714799,1567.100165708,1568.02683725,0,0.493686125000067
110,24,7,categorization,0,kitchen,SHINEd_sun_aapllqyqlykszopd.tif,66,0.0666666666666667,0.0666666666666667,1.95,1568.032690916,1568.453886875,9,1568.094371541,1568.155411083,1568.457199458,1570.400584,1,0.421195958999988
110,25,7,categorization,0,kitchen,SHINEd_sun_aenotlpyftoioydp.tif,82,0.0666666666666667,0.0666666666666667,1.06666666666667,1570.417936208,1570.837380583,13,1570.484471125,1570.550595833,1570.85673625,1571.916792208,0,0.419444375000012
110,26,7,categorization,0,kitchen,SHINEd_sun_auaiucuqpdausiva.tif,102,0.0666666666666667,0.0666666666666667,1.2,1571.926965791,1572.337216541,13,1571.991105958,1572.056535875,1572.362974166,1573.556349291,0,0.410250750000159
110,27,7,categorization,0,kitchen,SHINEd_sun_aggjlwcdjsjcaemh.tif,86,0.0666666666666667,0.0666666666666667,0.75,1573.573893208,1573.941763708,9,1573.640708916,1573.706645625,1573.962540958,1574.705877958,1,0.367870499999981
110,28,7,categorization,0,bathroom,SHINEd_sun_ahcvzmoyaycdoftf.tif,27,0.0666666666666667,0.0666666666666667,0.816666666666667,1574.710606166,1575.166343416,9,1574.772203208,1574.833258541,1575.185449291,1575.995455,0,0.455737250000084
110,29,7,categorization,0,kitchen,SHINEd_labelme_kxvouciolcpqplr.tif,62,0.0666666666666667,0.0666666666666667,1.96666666666667,1576.000357041,1576.430289791,9,1576.0619745,1576.123002375,1576.441466166,1578.401506041,1,0.429932750000035
110,30,7,categorization,0,bathroom,SHINEd_sun_apeeialkgkuxddgh.tif,42,0.0666666666666667,0.0666666666666667,1.2,1578.419765583,1578.840888333,13,1578.486309375,1578.552821875,1578.859105458,1580.052472083,1,0.421122749999995
110,31,7,categorization,0,kitchen,SHINEd_sun_abftihopvusyfakt.tif,71,0.0666666666666667,0.0666666666666667,0.883333333333333,1580.064543875,1580.472946291,9,1580.131112458,1580.196333083,1580.502227291,1581.378950916,1,0.408402415999944
110,32,7,categorization,0,bathroom,SHINEd_sun_abjtwfukuwddzted.tif,15,0.0666666666666667,0.0666666666666667,1.33333333333333,1581.393998583,1581.831059916,13,1581.460603416,1581.526647041,1581.849092375,1583.175881125,1,0.437061332999974
110,33,7,categorization,0,kitchen,SHINEd_sun_aehawpgmrlhlvcow.tif,81,0.0666666666666667,0.0666666666666667,1.45,1583.185596041,1583.882653375,9,1583.250269916,1583.318369958,1583.908438375,1585.351816583,1,0.697057333999965
110,34,7,categorization,0,bathroom,SHINEd_sun_aghyqhbptboemmoq.tif,23,0.0666666666666667,0.0666666666666667,1.15,1585.367014666,1586.218243083,13,1585.433744125,1585.499602875,1586.239545208,1587.382917875,1,0.851228417000129
110,35,7,categorization,0,kitchen,SHINEd_sun_ahdycvpopffkzzsu.tif,90,0.0666666666666667,0.0666666666666667,0.966666666666667,1587.393258125,1587.830935125,13,1587.459902458,1587.525880458,1587.848487958,1588.808504166,0,0.437676999999894
110,36,7,categorization,0,kitchen,SHINEd_sun_aaxxjlsuzvqlgylf.tif,68,0.0666666666666667,0.0666666666666667,1.45,1588.816697375,1589.302909,13,1588.883125375,1588.949429166,1589.322220666,1590.765587083,0,0.486211624999896
110,37,7,categorization,0,bathroom,SHINEd_sun_agyqfjcfkdcydepw.tif,25,0.0666666666666667,0.0666666666666667,0.8,1590.776760625,1591.24555075,9,1590.843575583,1590.909482041,1591.265580875,1592.05896925,0,0.468790124999941
110,38,7,categorization,0,bathroom,SHINEd_sun_aclfzgynxzxlbepz.tif,19,0.0666666666666667,0.0666666666666667,1.45,1592.075324458,1592.461960666,9,1592.141926458,1592.206970625,1592.47590025,1593.919293958,0,0.386636208000027
110,39,7,categorization,0,bathroom,SHINEd_sun_aleqenyvunhactkl.tif,32,0.0666666666666667,0.0666666666666667,1.1,1593.936475333,1594.171136875,9,1594.0030225,1594.069753458,1594.192936083,1595.28630375,0,0.234661541999913
110,40,7,categorization,0,bathroom,SHINEd_sun_aggnnqpdorgxpvce.tif,21,0.0666666666666667,0.0666666666666667,1.16666666666667,1595.30367725,1595.709677166,13,1595.370886333,1595.437010375,1595.72229075,1596.88234625,1,0.405999915999928
110,41,7,categorization,0,kitchen,SHINEd_sun_akcjzhbbjlbogpdi.tif,99,0.0666666666666667,0.0666666666666667,1.31666666666667,1596.8909355,1597.942652375,13,1596.9557735,1597.023835666,1597.964999291,1599.275036416,0,1.05171687500001
110,42,7,categorization,0,bathroom,SHINEd_sun_aoybiabnpadelefl.tif,41,0.0666666666666667,0.0666666666666667,1.68333333333333,1599.293279666,1599.605542833,13,1599.3601635,1599.426048833,1599.6323905,1601.30910075,1,0.312263167000083
110,43,7,categorization,0,kitchen,SHINEd_sun_ajkqhtgcbgpcwrwn.tif,97,0.0666666666666667,0.0666666666666667,0.966666666666667,1601.327467,1601.549288583,9,1601.393904416,1601.460338333,1601.566261,1602.526294833,1,0.221821582999837
110,44,7,categorization,0,kitchen,SHINEd_sun_auticobqsbwgoppi.tif,104,0.0666666666666667,0.0666666666666667,1.4,1602.540611291,1602.921915541,9,1602.607211125,1602.673311333,1602.946733583,1604.34010125,1,0.381304250000085
110,45,7,categorization,0,bathroom,SHINEd_sun_ahijqszoswveeyji.tif,28,0.0666666666666667,0.0666666666666667,0.783333333333333,1604.358219666,1604.478698458,9,1604.425016958,1604.492546416,1604.515451458,1605.29215375,0,0.120478792000085
110,46,7,categorization,0,bathroom,SHINEd_sun_ambriybtogmepttm.tif,36,0.0666666666666667,0.0666666666666667,1.08333333333333,1605.306050083,1605.658578208,9,1605.37256875,1605.439334166,1605.679195333,1606.755911041,0,0.352528125000163
110,47,7,categorization,0,kitchen,SHINEd_sun_aadbddgrdsjugojn.tif,64,0.0666666666666667,0.0666666666666667,1.43333333333333,1606.766012875,1607.161064875,9,1606.830384416,1606.897122583,1607.187112416,1608.613813708,1,0.395052000000078
110,48,7,categorization,0,bathroom,SHINEd_sun_ahaulkltgpkeeemi.tif,26,0.0666666666666667,0.0666666666666667,1.75,1608.630916291,1608.909795,13,1608.6972895,1608.754846083,1608.923258083,1610.666630583,1,0.278878709000082
110,49,7,categorization,0,kitchen,SHINEd_sun_azmutvzbxypaceni.tif,110,0.0666666666666667,0.0666666666666667,1.21666666666667,1610.684451583,1611.061332583,13,1610.749584208,1610.812808791,1611.085363,1612.295404208,0,0.376880999999912
110,50,7,categorization,0,bathroom,SHINEd_labelme_sfxiulhjbhlyiyt.tif,11,0.0666666666666667,0.0666666666666667,1.31666666666667,1612.307493916,1612.639901375,9,1612.374022916,1612.440390375,1612.662905041,1613.972939583,0,0.332407458999796
110,1,8,categorization,0,kitchen,SHINEd_sun_acxkpeoqbwcxfvip.tif,77,0.0666666666666667,0.0666666666666667,1.18333333333333,1631.7937535,1632.325502666,13,1631.856112208,1631.916469875,1632.3348485,1633.511558208,0,0.531749165999827
110,2,8,categorization,0,bathroom,SHINEd_sun_axldvoqbuvuggfmq.tif,57,0.0666666666666667,0.0666666666666667,0.983333333333333,1633.521592208,1633.807906791,9,1633.588368166,1633.65362725,1633.826395208,1634.803115416,0,0.286314583000149
110,3,8,categorization,0,bathroom,SHINEd_sun_acduarbnmmoglmiv.tif,16,0.0666666666666667,0.0666666666666667,1.65,1634.814212708,1635.112381166,9,1634.880833458,1634.945883,1635.1353925,1636.778745041,0,0.298168457999964
110,4,8,categorization,0,bathroom,SHINEd_sun_acgyywnybuveqsro.tif,18,0.0666666666666667,0.0666666666666667,1.23333333333333,1636.789853958,1637.098106041,13,1636.856725583,1636.921383083,1637.127761083,1638.354481541,1,0.308252082999843
110,5,8,categorization,0,bathroom,SHINEd_sun_apmqjbnwghzuhhzh.tif,46,0.0666666666666667,0.0666666666666667,0.916666666666667,1638.373393833,1638.674182541,9,1638.44060475,1638.5061395,1638.695809,1639.60584025,0,0.300788708000027
110,6,8,categorization,0,bathroom,SHINEd_sun_aunuadmjocsddsrl.tif,52,0.0666666666666667,0.0666666666666667,1.56666666666667,1639.621948083,1640.397498291,13,1639.688970125,1639.754490375,1640.406346166,1641.966388458,1,0.775550207999913
110,7,8,categorization,0,bathroom,SHINEd_sun_abapwbhyhkfixyex.tif,14,0.0666666666666667,0.0666666666666667,1.63333333333333,1641.984411625,1642.416692083,13,1642.051056541,1642.117415666,1642.440691791,1644.067404583,1,0.43228045800015
110,8,8,categorization,0,kitchen,SHINEd_labelme_brsyyvweiuaazfr.tif,61,0.0666666666666667,0.0666666666666667,1.1,1644.082847916,1645.459399833,9,1644.149382916,1644.215406375,1645.490786666,1646.584150875,1,1.37655191699992
110,9,8,categorization,0,kitchen,SHINEd_sun_acwjdupvyjsugpay.tif,76,0.0666666666666667,0.0666666666666667,1.38333333333333,1646.596932291,1648.877588916,13,1646.661667166,1646.729856291,1648.881972875,1650.258680083,0,2.28065662499989
110,10,8,categorization,0,bathroom,SHINEd_sun_avhrdrntsqrjzccq.tif,55,0.0666666666666667,0.0666666666666667,0.766666666666667,1650.275783458,1651.457344125,13,1650.344101875,1650.408442125,1651.481416458,1652.241420666,1,1.18156066699999
110,11,8,categorization,0,kitchen,SHINEd_sun_avszsnwsbuqfgzbn.tif,105,0.0666666666666667,0.0666666666666667,1.45,1652.246129208,1653.229523208,13,1652.308013791,1652.368786416,1653.237244041,1654.680632,0,0.983394000000089
110,12,8,categorization,0,kitchen,SHINEd_sun_agorklincwxrdtga.tif,87,0.0666666666666667,0.0666666666666667,0.983333333333333,1654.698101958,1655.681939833,13,1654.762223583,1654.829246583,1655.702423458,1656.679096333,0,0.983837874999836
110,13,8,categorization,0,kitchen,SHINEd_sun_aypmqwcualkenuoe.tif,109,0.0666666666666667,0.0666666666666667,0.716666666666667,1656.684821541,1657.341251791,13,1656.746559583,1656.807504208,1657.359332708,1658.069338,0,0.656430250000085
110,14,8,categorization,0,bathroom,SHINEd_sun_auzqhkafidnkrwmo.tif,54,0.0666666666666667,0.0666666666666667,1.41666666666667,1658.073982666,1659.445116125,9,1658.135634666,1658.196662791,1659.448893041,1660.858928041,0,1.37113345900002
110,15,8,categorization,0,bathroom,SHINEd_sun_apjevzvycyhuqghb.tif,43,0.0666666666666667,0.0666666666666667,1.21666666666667,1660.875559875,1661.517147541,13,1660.941985791,1661.008575458,1661.530763166,1662.740785666,1,0.641587666000078
110,16,8,categorization,0,kitchen,SHINEd_sun_axyyrmzcupyhlivc.tif,107,0.0666666666666667,0.0666666666666667,1.61666666666667,1662.750315833,1663.193253375,13,1662.8146685,1662.882915708,1663.222568333,1664.832603583,0,0.442937541999981
110,17,8,categorization,0,kitchen,SHINEd_sun_agzzivivdpnawacl.tif,89,0.0666666666666667,0.0666666666666667,0.783333333333333,1664.850503958,1666.422916708,9,1664.916861583,1664.983378333,1666.441382125,1667.218053833,1,1.57241275000001
110,18,8,categorization,0,bathroom,SHINEd_sun_agguqiubmwhqqunb.tif,22,0.0666666666666667,0.0666666666666667,1.98333333333333,1667.222970083,1667.74996525,13,1667.2846925,1667.345757125,1667.764047458,1669.740751583,1,0.526995166999995
110,19,8,categorization,0,bathroom,SHINEd_sun_aavhrsfjbserjtht.tif,13,0.0666666666666667,0.0666666666666667,0.983333333333333,1669.759139041,1670.443017375,13,1669.825822916,1669.891756416,1670.464896041,1671.441566791,1,0.683878333999928
110,20,8,categorization,0,bathroom,SHINEd_sun_apkxzenqapsujocq.tif,45,0.0666666666666667,0.0666666666666667,0.8,1671.446333,1671.997969333,9,1671.5080475,1671.56906575,1672.004080166,1672.7974185,0,0.551636332999806
110,21,8,categorization,0,bathroom,SHINEd_sun_anryaplzeujmzfkd.tif,39,0.0666666666666667,0.0666666666666667,0.733333333333333,1672.802035333,1673.421792958,13,1672.863800041,1672.9246805,1673.426528333,1674.153200625,1,0.61975762499992
110,22,8,categorization,0,bathroom,SHINEd_sun_asfwthctfqerjvxr.tif,49,0.0666666666666667,0.0666666666666667,0.966666666666667,1674.157951958,1675.348997291,9,1674.219549791,1674.280576875,1675.36611125,1676.326116333,0,1.19104533299992
110,23,8,categorization,0,kitchen,SHINEd_sun_aeqdocilnnpuvuhx.tif,83,0.0666666666666667,0.0666666666666667,0.866666666666667,1676.332404541,1678.085980875,9,1676.394056458,1676.454933083,1678.090738041,1678.950743583,1,1.75357633399994
110,24,8,categorization,0,bathroom,SHINEd_sun_agrwbmhcpmfuwmsg.tif,24,0.0666666666666667,0.0666666666666667,1.23333333333333,1678.955523458,1682.069137375,13,1679.017343916,1679.078221833,1682.080669541,1683.307374416,1,3.11361391700007
110,25,8,categorization,0,kitchen,SHINEd_sun_afuyedyxivkhecmu.tif,85,0.0666666666666667,0.0666666666666667,1.9,1683.323482791,1683.9203025,9,1683.391530458,1683.456373791,1683.946018916,1685.839391625,1,0.596819708999874
110,26,8,categorization,0,kitchen,SHINEd_sun_aixorpehvfykdynp.tif,95,0.0666666666666667,0.0666666666666667,0.866666666666667,1685.8576685,1686.953061833,9,1685.924495958,1685.990154125,1686.980016875,1687.840022958,1,1.09539333299995
110,27,8,categorization,0,kitchen,SHINEd_sun_adgqasybjyktddhj.tif,78,0.0666666666666667,0.0666666666666667,0.966666666666667,1687.844699625,1688.309181791,13,1687.9064145,1687.967391833,1688.319083541,1689.279087416,0,0.464482165999925
110,28,8,categorization,0,kitchen,SHINEd_sun_aqeaevwwwjoqhzvl.tif,101,0.0666666666666667,0.0666666666666667,0.916666666666667,1689.283888875,1689.732859666,13,1689.345615666,1689.406614916,1689.741792708,1690.651796791,0,0.448970790999965
110,29,8,categorization,0,bathroom,SHINEd_sun_amzlamotzwfkwjco.tif,37,0.0666666666666667,0.0666666666666667,0.916666666666667,1690.657123083,1691.781083125,9,1690.718713,1690.779939291,1691.798879458,1692.708883083,0,1.12396004199991
110,30,8,categorization,0,bathroom,SHINEd_sun_axxbkopsgyouuebh.tif,58,0.0666666666666667,0.0666666666666667,1.4,1692.713401166,1701.397293541,13,1692.775208458,1692.835997833,1701.413816458,1702.807204458,1,8.68389237499991
110,31,8,categorization,0,bathroom,SHINEd_sun_axyrejkiiaqiurjk.tif,59,0.0666666666666667,0.0666666666666667,1.75,1702.817928708,1704.256565375,13,1702.884726,1702.950829541,1704.275665041,1706.01904975,1,1.43863666700008
110,32,8,categorization,0,kitchen,SHINEd_sun_awcpdzzznmweyyhv.tif,106,0.0666666666666667,0.0666666666666667,1.25,1706.038122833,1708.7812465,13,1706.105339083,1706.171276333,1708.790199208,1710.033567625,0,2.74312366699996
110,33,8,categorization,0,kitchen,SHINEd_sun_aamedkxepzlwuxes.tif,65,0.0666666666666667,0.0666666666666667,1.05,1710.052051375,1714.69721575,13,1710.118776041,1710.184735458,1714.720802625,1715.764190208,0,4.64516437499992
110,34,8,categorization,0,bathroom,SHINEd_sun_aofnryafpsjimzsb.tif,40,0.0666666666666667,0.0666666666666667,1.06666666666667,1715.773677166,1716.2227455,13,1715.837838791,1715.905252,1716.24507425,1717.30510675,1,0.449068334000003
110,35,8,categorization,0,kitchen,SHINEd_sun_ajcbwwvdlsvjyzje.tif,96,0.0666666666666667,0.0666666666666667,1.21666666666667,1717.320995416,1717.820826666,9,1717.387950541,1717.453801041,1717.84340875,1719.053456541,1,0.499831249999943
110,36,8,categorization,0,kitchen,SHINEd_sun_admlmbcdswaszruo.tif,79,0.0666666666666667,0.0666666666666667,0.95,1719.071892833,1719.819041083,13,1719.138778958,1719.205042291,1719.844996833,1720.788355916,0,0.747148250000009
110,37,8,categorization,0,bathroom,SHINEd_sun_aspsyogrekjtfozg.tif,50,0.0666666666666667,0.0666666666666667,0.9,1720.798657625,1721.661475333,13,1720.865297,1720.922721333,1721.674446791,1722.567783541,1,0.862817707999966
110,38,8,categorization,0,kitchen,SHINEd_sun_aexklacwqwezaorf.tif,84,0.0666666666666667,0.0666666666666667,1.78333333333333,1722.572542,1723.029092125,13,1722.634188083,1722.6952045,1723.046919666,1724.82362625,0,0.456550124999922
110,39,8,categorization,0,bathroom,SHINEd_sun_awnqiikzaispgmwo.tif,56,0.0666666666666667,0.0666666666666667,1.16666666666667,1724.841325541,1725.20696825,9,1724.907859916,1724.974004708,1725.230745833,1726.390802125,0,0.365642708999985
110,40,8,categorization,0,kitchen,SHINEd_sun_abrcnpqqhmjwekyf.tif,73,0.0666666666666667,0.0666666666666667,0.783333333333333,1726.400562958,1727.343843541,13,1726.467083958,1726.533185083,1727.372900916,1728.149607916,0,0.94328058300016
110,41,8,categorization,0,bathroom,SHINEd_sun_aljolscmmzydegqp.tif,33,0.0666666666666667,0.0666666666666667,1.23333333333333,1728.166974541,1728.772782708,13,1728.233524958,1728.297715791,1728.782684375,1730.009387166,1,0.605808167000077
110,42,8,categorization,0,kitchen,SHINEd_sun_abpwyqmlzafvklqo.tif,72,0.0666666666666667,0.0666666666666667,0.9,1730.025632541,1731.327879291,13,1730.09228025,1730.158377625,1731.349644541,1732.24298175,0,1.30224674999999
110,43,8,categorization,0,kitchen,SHINEd_sun_aunzlwrbjumxhwdj.tif,103,0.0666666666666667,0.0666666666666667,0.7,1732.248707875,1733.30171375,13,1732.3104245,1732.371356375,1733.306391541,1733.999729958,0,1.05300587500005
110,44,8,categorization,0,bathroom,SHINEd_sun_azqyogdvyhahyram.tif,60,0.0666666666666667,0.0666666666666667,1.23333333333333,1734.004452708,1734.39686225,9,1734.066095125,1734.12720275,1734.412669916,1735.6393915,0,0.392409541999996
110,45,8,categorization,0,kitchen,SHINEd_sun_agubuxuukhzyzpdp.tif,88,0.0666666666666667,0.0666666666666667,1,1735.656242125,1736.128518375,13,1735.723190208,1735.788961625,1736.144552333,1737.137936625,0,0.47227625000005
110,46,8,categorization,0,kitchen,SHINEd_sun_ahpczsiumwwocjkv.tif,92,0.0666666666666667,0.0666666666666667,1.38333333333333,1737.154189666,1737.813365583,13,1737.220860541,1737.286824375,1737.822600583,1739.199320083,0,0.659175916999857
110,47,8,categorization,0,kitchen,SHINEd_sun_ahywdevtimnqcsln.tif,94,0.0666666666666667,0.0666666666666667,1.3,1739.217003,1740.201903291,9,1739.281949791,1739.349775833,1740.223211916,1741.51664375,1,0.984900291000031
110,48,8,categorization,0,kitchen,SHINEd_sun_aymvwlarqodbwuoc.tif,108,0.0666666666666667,0.0666666666666667,0.833333333333333,1741.534375375,1741.985914125,13,1741.600774041,1741.667221916,1742.006484916,1742.8331975,0,0.451538749999827
110,49,8,categorization,0,kitchen,SHINEd_sun_acfmftudsenhrfhy.tif,74,0.0666666666666667,0.0666666666666667,0.95,1742.85009875,1743.225301083,13,1742.916760166,1742.982901291,1743.23824975,1744.181588916,0,0.375202333000061
110,50,8,categorization,0,bathroom,SHINEd_sun_ahqjwnzgolcaoidx.tif,29,0.0666666666666667,0.0666666666666667,1.43333333333333,1744.186497875,1744.533060875,13,1744.248195625,1744.309188208,1744.54426125,1745.970976125,1,0.34656300000006
110,1,9,categorization,0,kitchen,SHINEd_sun_akcjzhbbjlbogpdi.tif,99,0.0666666666666667,0.0666666666666667,1.08333333333333,1782.769615708,1783.8844575,13,1782.831393875,1782.892365208,1783.89446675,1784.971169958,0,1.11484179200011
110,2,9,categorization,0,bathroom,SHINEd_sun_apkxzenqapsujocq.tif,45,0.0666666666666667,0.0666666666666667,0.8,1784.980393583,1786.173194833,9,1785.045898375,1785.110923333,1786.201097458,1786.994466208,0,1.19280125
110,3,9,categorization,0,bathroom,SHINEd_sun_acduarbnmmoglmiv.tif,16,0.0666666666666667,0.0666666666666667,0.833333333333333,1787.009384333,1788.372816541,9,1787.071952708,1787.132088291,1788.384474291,1789.211146083,0,1.36343220799995
110,4,9,categorization,0,bathroom,SHINEd_sun_aspsyogrekjtfozg.tif,50,0.0666666666666667,0.0666666666666667,1.45,1789.216480625,1790.500427958,9,1789.278127083,1789.339242125,1790.508230375,1791.951616541,0,1.28394733300001
110,5,9,categorization,0,kitchen,SHINEd_sun_agorklincwxrdtga.tif,87,0.0666666666666667,0.0666666666666667,1.3,1791.968738,1792.558317291,13,1792.0352,1792.101373791,1792.573813541,1793.867187416,0,0.589579291000064
110,6,9,categorization,0,kitchen,SHINEd_sun_ajcbwwvdlsvjyzje.tif,96,0.0666666666666667,0.0666666666666667,1.21666666666667,1793.884220958,1794.300425958,13,1793.950796083,1794.01669875,1794.323182833,1795.533229333,0,0.416204999999991
110,7,9,categorization,0,bathroom,SHINEd_sun_ahqjwnzgolcaoidx.tif,29,0.0666666666666667,0.0666666666666667,0.733333333333333,1795.550110375,1796.317233208,13,1795.617024791,1795.682922708,1796.335178958,1797.0618515,1,0.76712283300003
110,8,9,categorization,0,kitchen,SHINEd_sun_aamedkxepzlwuxes.tif,65,0.0666666666666667,0.0666666666666667,1.03333333333333,1797.066788541,1797.676530125,13,1797.128541958,1797.189472666,1797.69118425,1798.717904583,0,0.609741583999948
110,9,9,categorization,0,kitchen,SHINEd_sun_amjjdeyrggfqgmom.tif,100,0.0666666666666667,0.0666666666666667,1.1,1798.727432666,1799.142985,9,1798.791732833,1798.858164208,1799.164023333,1800.257405083,1,0.41555233400004
110,10,9,categorization,0,kitchen,SHINEd_sun_aapllqyqlykszopd.tif,66,0.0666666666666667,0.0666666666666667,1.25,1800.274035375,1801.172812375,13,1800.340618125,1800.406772625,1801.192359,1802.435744,0,0.898776999999882
110,11,9,categorization,0,kitchen,SHINEd_sun_akchetnepxlcxhsu.tif,98,0.0666666666666667,0.0666666666666667,1.4,1802.452048208,1802.929227166,13,1802.517159375,1802.584421625,1802.957527958,1804.350918625,0,0.477178957999968
110,12,9,categorization,0,bathroom,SHINEd_sun_agyqfjcfkdcydepw.tif,25,0.0666666666666667,0.0666666666666667,1.43333333333333,1804.362541,1804.483049416,13,1804.427284,1804.496653333,1804.519569041,1805.946276833,1,0.120508416000121
110,13,9,categorization,0,kitchen,SHINEd_sun_acxkpeoqbwcxfvip.tif,77,0.0666666666666667,0.0666666666666667,1.26666666666667,1805.964988208,1806.410214666,9,1806.03286575,1806.097753125,1806.435753375,1807.695794666,1,0.445226457999979
110,14,9,categorization,0,bathroom,SHINEd_sun_aqrpegblszgcoujh.tif,48,0.0666666666666667,0.0666666666666667,0.916666666666667,1807.713829291,1808.088544583,13,1807.78074725,1807.846530833,1808.101975875,1809.012027083,1,0.374715292000019
110,15,9,categorization,0,bathroom,SHINEd_sun_aggnnqpdorgxpvce.tif,21,0.0666666666666667,0.0666666666666667,1.05,1809.028328708,1809.381751375,9,1809.094562333,1809.160757958,1809.400225333,1810.443607,0,0.353422667000132
