sub_num,trial,block,task,is_practice,category,image,texture,duration,mask_dur,jitter,stim_time,time_of_resp,trial_response,mask_time,fix_time,jit_onset,trial_end,trial_accuracy,RT
110,1,6,categorization,0,bathroom,SHINEd_sun_akiytfaagpdsphgz.tif,31,0.0666666666666667,0.0666666666666667,0.966666666666667,6377.347528333,6377.919381208,13,6377.409267542,6377.470497625,6377.939081375,6378.899087125,1,0.571852875000332
110,2,6,categorization,0,kitchen,SHINEd_sun_aeqdocilnnpuvuhx.tif,83,0.0666666666666667,0.0666666666666667,1.73333333333333,6378.903866458,6379.751466167,9,6378.9655505,6379.026551042,6379.761968667,6381.488685833,1,0.847599708999951
110,3,6,categorization,0,bathroom,SHINEd_sun_axyrejkiiaqiurjk.tif,59,0.0666666666666667,0.0666666666666667,1.91666666666667,6381.506698375,6382.476763,13,6381.573071583,6381.639663667,6382.495994542,6384.406045917,1,0.970064624999395
110,4,6,categorization,0,bathroom,SHINEd_sun_ausgutylgojavyoq.tif,53,0.0666666666666667,0.0666666666666667,0.766666666666667,6384.423245292,6385.034330375,13,6384.489708833,6384.555905417,6385.062444542,6385.822447667,1,0.611085083000035
110,5,6,categorization,0,kitchen,SHINEd_sun_ajkqhtgcbgpcwrwn.tif,97,0.0666666666666667,0.0666666666666667,0.916666666666667,6385.827274583,6386.527070333,9,6385.888920125,6385.950028167,6386.53549075,6387.445496708,1,0.699795749999794
110,6,6,categorization,0,kitchen,SHINEd_sun_abpwyqmlzafvklqo.tif,72,0.0666666666666667,0.0666666666666667,1.18333333333333,6387.450392667,6388.207531167,9,6387.511955625,6387.573541958,6388.225297583,6389.402009125,1,0.757138499999201
110,7,6,categorization,0,bathroom,SHINEd_sun_ahcvzmoyaycdoftf.tif,27,0.0666666666666667,0.0666666666666667,1.8,6389.411435583,6390.174376667,9,6389.478837917,6389.543858417,6390.200429625,6391.99381925,0,0.762941083999976
110,8,6,categorization,0,kitchen,SHINEd_sun_abrcnpqqhmjwekyf.tif,73,0.0666666666666667,0.0666666666666667,0.883333333333333,6392.009692208,6392.706504458,9,6392.075911875,6392.142405417,6392.732103458,6393.608776208,1,0.696812250000221
110,9,6,categorization,0,kitchen,SHINEd_sun_aapllqyqlykszopd.tif,66,0.0666666666666667,0.0666666666666667,1.83333333333333,6393.613769083,6394.110946792,9,6393.675642708,6393.736628917,6394.121668,6395.948372583,1,0.497177708999516
110,10,6,categorization,0,kitchen,SHINEd_sun_admlmbcdswaszruo.tif,79,0.0666666666666667,0.0666666666666667,1.76666666666667,6395.965851958,6396.420477833,9,6396.0324905,6396.098479542,6396.437584833,6398.197644042,1,0.454625875000602
110,11,6,categorization,0,bathroom,SHINEd_sun_atstyziqcmkahyxk.tif,51,0.0666666666666667,0.0666666666666667,0.983333333333333,6398.213493458,6398.620810708,9,6398.279805042,6398.346028333,6398.634319417,6399.610991875,0,0.407317250000233
110,12,6,categorization,0,bathroom,SHINEd_sun_ajlawzvmubibwbpy.tif,30,0.0666666666666667,0.0666666666666667,0.883333333333333,6399.61687675,6400.319553,13,6399.678637875,6399.739814833,6400.325064417,6401.201736083,1,0.702676249999968
110,13,6,categorization,0,bathroom,SHINEd_sun_awnqiikzaispgmwo.tif,56,0.0666666666666667,0.0666666666666667,0.85,6401.206937792,6401.775432833,13,6401.268559792,6401.329762958,6401.781763833,6402.625101,1,0.56849504100046
110,14,6,categorization,0,bathroom,SHINEd_sun_axxbkopsgyouuebh.tif,58,0.0666666666666667,0.0666666666666667,0.733333333333333,6402.629915708,6403.047071875,13,6402.691708125,6402.752599125,6403.05449925,6403.781171417,1,0.41715616700003
110,15,6,categorization,0,kitchen,SHINEd_sun_agzzivivdpnawacl.tif,89,0.0666666666666667,0.0666666666666667,1.88333333333333,6403.786048625,6404.239327958,13,6403.847812167,6403.908735708,6404.243746,6406.1204455,0,0.453279332999955
110,16,6,categorization,0,bathroom,SHINEd_sun_apjevzvycyhuqghb.tif,43,0.0666666666666667,0.0666666666666667,0.816666666666667,6406.137008375,6406.85288025,9,6406.203496708,6406.269470333,6406.876191417,6407.686196833,0,0.71587187500063
110,17,6,categorization,0,bathroom,SHINEd_sun_aofnryafpsjimzsb.tif,40,0.0666666666666667,0.0666666666666667,1.9,6407.691323458,6408.214920333,9,6407.753009333,6407.814090292,6408.232577875,6410.125966875,0,0.523596875000294
110,18,6,categorization,0,kitchen,SHINEd_sun_agorklincwxrdtga.tif,87,0.0666666666666667,0.0666666666666667,0.983333333333333,6410.142254917,6410.710479625,9,6410.208735625,6410.274953833,6410.730758,6411.707429417,1,0.568224707999434
110,19,6,categorization,0,bathroom,SHINEd_sun_anhioqovhscjqqwb.tif,38,0.0666666666666667,0.0666666666666667,0.75,6411.712340667,6412.19861125,9,6411.774005917,6411.835058917,6412.20348775,6412.946825708,0,0.486270583000078
110,20,6,categorization,0,bathroom,SHINEd_sun_agyqfjcfkdcydepw.tif,25,0.0666666666666667,0.0666666666666667,1.6,6412.951819083,6413.606970958,9,6413.013552083,6413.07497575,6413.610292,6415.203684333,0,0.655151874999319
110,21,6,categorization,0,bathroom,SHINEd_sun_asfwthctfqerjvxr.tif,49,0.0666666666666667,0.0666666666666667,1.58333333333333,6415.221391958,6416.044245875,13,6415.2876205,6415.354150833,6416.077489125,6417.65420175,1,0.82285391700043
110,22,6,categorization,0,kitchen,SHINEd_sun_acfmftudsenhrfhy.tif,74,0.0666666666666667,0.0666666666666667,1.11666666666667,6417.669892875,6418.111206375,9,6417.736424083,6417.802449958,6418.124527792,6419.234578583,1,0.441313499999524
110,23,6,categorization,0,bathroom,SHINEd_sun_afcoljnjfoxjtgja.tif,20,0.0666666666666667,0.0666666666666667,1.53333333333333,6419.243833958,6419.766653,9,6419.311855,6419.376522333,6419.782172583,6421.308889167,0,0.522819041999355
110,24,6,categorization,0,kitchen,SHINEd_sun_aunzlwrbjumxhwdj.tif,103,0.0666666666666667,0.0666666666666667,1.48333333333333,6421.321344917,6422.0526135,9,6421.387437083,6421.453848375,6422.076964333,6423.553679167,1,0.731268583000201
110,25,6,categorization,0,kitchen,SHINEd_sun_aadbddgrdsjugojn.tif,64,0.0666666666666667,0.0666666666666667,1.1,6423.570521417,6424.409324958,9,6423.637023667,6423.703155875,6424.425353583,6425.518725625,1,0.838803540999834
110,26,6,categorization,0,kitchen,SHINEd_sun_adgqasybjyktddhj.tif,78,0.0666666666666667,0.0666666666666667,0.933333333333333,6425.527827125,6426.258291583,9,6425.5942865,6425.66123825,6426.284375167,6427.211090167,1,0.730464457999915
110,27,6,categorization,0,kitchen,SHINEd_sun_aenotlpyftoioydp.tif,82,0.0666666666666667,0.0666666666666667,0.816666666666667,6427.226703083,6429.222828583,9,6427.293829167,6427.359357875,6429.228207458,6430.038213542,1,1.99612549999983
110,28,6,categorization,0,kitchen,SHINEd_sun_aymvwlarqodbwuoc.tif,108,0.0666666666666667,0.0666666666666667,1.78333333333333,6430.0429855,6431.270903833,13,6430.104651833,6430.165730958,6431.284879833,6433.061594125,0,1.22791833300016
110,29,6,categorization,0,kitchen,SHINEd_sun_awcpdzzznmweyyhv.tif,106,0.0666666666666667,0.0666666666666667,0.766666666666667,6433.078783333,6433.673674583,9,6433.146882917,6433.21185,6433.701326292,6434.461333333,1,0.594891250000728
110,30,6,categorization,0,kitchen,SHINEd_sun_ahpczsiumwwocjkv.tif,92,0.0666666666666667,0.0666666666666667,1.45,6434.466883583,6435.038324875,9,6434.528586375,6434.5897295,6435.041258208,6436.484645708,1,0.5714412920006
110,31,6,categorization,0,kitchen,SHINEd_sun_aarfiyshqohlwkmo.tif,67,0.0666666666666667,0.0666666666666667,0.75,6436.502990917,6438.487073,13,6436.569134292,6436.6356935,6438.505138875,6439.248478042,0,1.98408208300043
110,32,6,categorization,0,bathroom,SHINEd_sun_apeeialkgkuxddgh.tif,42,0.0666666666666667,0.0666666666666667,1.36666666666667,6439.253256125,6439.846994125,13,6439.315172458,6439.376017667,6439.861513792,6441.221548167,1,0.593737999999576
110,33,6,categorization,0,bathroom,SHINEd_sun_aspsyogrekjtfozg.tif,50,0.0666666666666667,0.0666666666666667,0.75,6441.237526,6441.770349542,13,6441.303713375,6441.369988958,6441.792273083,6442.53565475,1,0.532823542000187
110,34,6,categorization,0,bathroom,SHINEd_sun_agguqiubmwhqqunb.tif,22,0.0666666666666667,0.0666666666666667,0.783333333333333,6442.551073,6443.166932292,13,6442.617247458,6442.683857625,6443.1865105,6443.963181875,1,0.615859292000096
110,35,6,categorization,0,kitchen,SHINEd_sun_avszsnwsbuqfgzbn.tif,105,0.0666666666666667,0.0666666666666667,1.11666666666667,6443.967933292,6444.566520417,9,6444.029466375,6444.090582,6444.576085958,6445.686141417,1,0.59858712499954
110,36,6,categorization,0,kitchen,SHINEd_sun_amjjdeyrggfqgmom.tif,100,0.0666666666666667,0.0666666666666667,0.766666666666667,6445.694711042,6446.3772,9,6445.75987475,6445.827203875,6446.400202833,6447.160247333,1,0.682488958000249
110,37,6,categorization,0,bathroom,SHINEd_sun_acgyywnybuveqsro.tif,18,0.0666666666666667,0.0666666666666667,0.716666666666667,6447.175492125,6447.79067625,9,6447.2418355,6447.307929667,6447.810005708,6448.5200115,0,0.615184124999359
110,38,6,categorization,0,bathroom,SHINEd_sun_alotolagknyrgtsk.tif,35,0.0666666666666667,0.0666666666666667,1.33333333333333,6448.524887125,6449.399247625,9,6448.586546125,6448.64802475,6449.4168955,6450.7435955,0,0.874360499999966
110,39,6,categorization,0,bathroom,SHINEd_sun_abapwbhyhkfixyex.tif,14,0.0666666666666667,0.0666666666666667,1.75,6450.758840583,6451.644645708,13,6450.825255542,6450.891562208,6451.6643385,6453.407726958,1,0.885805124999933
110,40,6,categorization,0,kitchen,SHINEd_labelme_kxvouciolcpqplr.tif,62,0.0666666666666667,0.0666666666666667,1.13333333333333,6453.425744792,6454.018648083,13,6453.492013167,6453.558456292,6454.02941875,6455.156142917,0,0.592903290999857
110,41,6,categorization,0,bathroom,SHINEd_sun_auzqhkafidnkrwmo.tif,54,0.0666666666666667,0.0666666666666667,1.63333333333333,6455.166796833,6455.809205167,9,6455.231782375,6455.299413167,6455.839151583,6457.465856417,0,0.642408333999811
110,42,6,categorization,0,bathroom,SHINEd_sun_alkosphxlxwjwgjd.tif,34,0.0666666666666667,0.0666666666666667,1.43333333333333,6457.485974792,6458.506636292,9,6457.552427667,6457.618575625,6458.5245425,6459.951243292,0,1.02066149999973
110,43,6,categorization,0,kitchen,SHINEd_sun_akchetnepxlcxhsu.tif,98,0.0666666666666667,0.0666666666666667,1.83333333333333,6459.969773708,6461.112511,9,6460.0362535,6460.101800167,6461.141834042,6462.968520375,1,1.14273729200067
110,44,6,categorization,0,bathroom,SHINEd_sun_aavhrsfjbserjtht.tif,13,0.0666666666666667,0.0666666666666667,1.93333333333333,6462.97993525,6463.522679833,13,6463.046353417,6463.110990583,6463.55049425,6465.477196333,1,0.542744583000058
110,45,6,categorization,0,kitchen,SHINEd_sun_aehawpgmrlhlvcow.tif,81,0.0666666666666667,0.0666666666666667,1.26666666666667,6465.494729958,6465.969848042,13,6465.561482375,6465.627266792,6465.982642375,6467.24269825,0,0.475118084000314
110,46,6,categorization,0,bathroom,SHINEd_sun_avhrdrntsqrjzccq.tif,55,0.0666666666666667,0.0666666666666667,1.86666666666667,6467.259820917,6467.675870083,9,6467.326526625,6467.392552417,6467.698981417,6469.559032417,0,0.416049165999539
110,47,6,categorization,0,kitchen,SHINEd_sun_ajcbwwvdlsvjyzje.tif,96,0.0666666666666667,0.0666666666666667,1.41666666666667,6469.57587125,6470.42508775,13,6469.642483708,6469.708195,6470.447996833,6471.858042417,0,0.849216499999784
110,48,6,categorization,0,kitchen,SHINEd_sun_abdenxonkemggwsq.tif,69,0.0666666666666667,0.0666666666666667,1.11666666666667,6471.875703542,6472.535656708,9,6471.942187583,6472.008609083,6472.564526708,6473.674570375,1,0.659953165999468
110,49,6,categorization,0,kitchen,SHINEd_sun_aqeaevwwwjoqhzvl.tif,101,0.0666666666666667,0.0666666666666667,1.8,6473.692583458,6474.32942775,9,6473.759172083,6473.824985542,6474.347570083,6476.140941292,1,0.636844292000205
110,50,6,categorization,0,kitchen,SHINEd_sun_aggjlwcdjsjcaemh.tif,86,0.0666666666666667,0.0666666666666667,1.25,6476.15412675,6477.299064375,9,6476.22108375,6476.286495792,6477.326372208,6478.569739958,1,1.14493762500024
