sub_num,trial,block,task,is_practice,category,image,texture,duration,mask_dur,jitter,stim_time,time_of_resp,trial_response,mask_time,fix_time,jit_onset,trial_end,trial_accuracy,RT
110,1,2,categorization,0,kitchen,SHINEd_sun_aaxxjlsuzvqlgylf.tif,68,0.0666666666666667,0.0666666666666667,0.95,5893.133548542,5893.992879167,9,5893.195306667,5893.256377625,5894.008468625,5894.951806625,1,0.859330624999529
110,2,2,categorization,0,bathroom,SHINEd_sun_anryaplzeujmzfkd.tif,39,0.0666666666666667,0.0666666666666667,0.75,5894.956644125,5895.769409,13,5895.018398875,5895.079434,5895.781293958,5896.524630625,1,0.812764875000539
110,3,2,categorization,0,kitchen,SHINEd_sun_abdenxonkemggwsq.tif,69,0.0666666666666667,0.0666666666666667,1.68333333333333,5896.529351583,5897.304653333,9,5896.591092875,5896.652108083,5897.320944208,5898.997630042,1,0.775301749999926
110,4,2,categorization,0,bathroom,SHINEd_sun_ahaulkltgpkeeemi.tif,26,0.0666666666666667,0.0666666666666667,0.816666666666667,5899.008412875,5899.765827417,13,5899.076329375,5899.141325875,5899.780181375,5900.590186917,1,0.757414541999424
110,5,2,categorization,0,kitchen,SHINEd_sun_aggjlwcdjsjcaemh.tif,86,0.0666666666666667,0.0666666666666667,0.916666666666667,5900.595137167,5901.369063917,13,5900.656800083,5900.717807333,5901.38628575,5902.296291625,0,0.773926750000101
110,6,2,categorization,0,bathroom,SHINEd_sun_aclfzgynxzxlbepz.tif,19,0.0666666666666667,0.0666666666666667,1.21666666666667,5902.302324042,5902.98525975,13,5902.36394025,5902.425026292,5902.993528375,5904.203574667,1,0.682935708000514
110,7,2,categorization,0,bathroom,SHINEd_sun_apeeialkgkuxddgh.tif,42,0.0666666666666667,0.0666666666666667,0.9,5904.221490708,5904.978100042,13,5904.288075875,5904.354763583,5904.993076292,5905.886452917,1,0.756609334000132
110,8,2,categorization,0,kitchen,SHINEd_sun_aenotlpyftoioydp.tif,82,0.0666666666666667,0.0666666666666667,1.65,5905.903497417,5906.488489833,9,5905.970056292,5906.036418667,5906.505606625,5908.1489805,1,0.584992416000205
110,9,2,categorization,0,bathroom,SHINEd_sun_ahijqszoswveeyji.tif,28,0.0666666666666667,0.0666666666666667,1.15,5908.166552125,5908.744972167,13,5908.233303792,5908.299666583,5908.772906833,5909.9162875,1,0.578420042000289
110,10,2,categorization,0,kitchen,SHINEd_sun_aqeaevwwwjoqhzvl.tif,101,0.0666666666666667,0.0666666666666667,1.13333333333333,5909.925033417,5910.906910083,13,5909.991942125,5910.05827075,5910.930959458,5912.057676333,0,0.981876666000062
110,11,2,categorization,0,bathroom,SHINEd_sun_aqrpegblszgcoujh.tif,48,0.0666666666666667,0.0666666666666667,1.76666666666667,5912.066591458,5913.012162958,13,5912.131505,5912.199239875,5913.039277083,5914.799319833,1,0.94557149999946
110,12,2,categorization,0,bathroom,SHINEd_sun_aljolscmmzydegqp.tif,33,0.0666666666666667,0.0666666666666667,1.8,5914.82441375,5915.474909958,9,5914.891303667,5914.952848625,5915.491809917,5917.285181,0,0.650496208000732
110,13,2,categorization,0,bathroom,SHINEd_sun_abapwbhyhkfixyex.tif,14,0.0666666666666667,0.0666666666666667,0.9,5917.298986958,5918.133572333,9,5917.365982583,5917.431387958,5918.154626625,5919.047965542,0,0.834585375000643
110,14,2,categorization,0,kitchen,SHINEd_sun_acxkpeoqbwcxfvip.tif,77,0.0666666666666667,0.0666666666666667,0.716666666666667,5919.053139958,5919.840934042,9,5919.114747667,5919.175905333,5919.844888958,5920.554892542,1,0.78779408399987
110,15,2,categorization,0,bathroom,SHINEd_sun_acgyywnybuveqsro.tif,18,0.0666666666666667,0.0666666666666667,1.36666666666667,5920.559693167,5921.065459042,13,5920.621562667,5920.682356333,5921.084077167,5922.444117167,1,0.505765875000179
110,16,2,categorization,0,bathroom,SHINEd_sun_apkruvsevgegsdwp.tif,44,0.0666666666666667,0.0666666666666667,0.916666666666667,5922.462325042,5923.113602958,13,5922.529102917,5922.595093958,5923.134195417,5924.044232542,1,0.651277916000254
110,17,2,categorization,0,bathroom,SHINEd_sun_aapitsgbtktqubfy.tif,12,0.0666666666666667,0.0666666666666667,0.716666666666667,5924.060730958,5924.713359667,9,5924.127311458,5924.19216375,5924.727886583,5925.437890833,0,0.652628709000055
110,18,2,categorization,0,kitchen,SHINEd_sun_abpwyqmlzafvklqo.tif,72,0.0666666666666667,0.0666666666666667,0.766666666666667,5925.442961625,5926.200770042,9,5925.504545708,5925.565647333,5926.21746775,5926.977473583,1,0.757808416999978
110,19,2,categorization,0,bathroom,SHINEd_sun_abjtwfukuwddzted.tif,15,0.0666666666666667,0.0666666666666667,1.06666666666667,5926.982281125,5927.761337042,9,5927.044059875,5927.104940833,5927.773823708,5928.83387025,0,0.779055917000733
110,20,2,categorization,0,bathroom,SHINEd_sun_acduarbnmmoglmiv.tif,16,0.0666666666666667,0.0666666666666667,0.8,5928.843807208,5929.968767292,13,5928.908499333,5928.975047042,5930.000662583,5930.7940505,1,1.12496008400012
110,21,2,categorization,0,kitchen,SHINEd_sun_afuyedyxivkhecmu.tif,85,0.0666666666666667,0.0666666666666667,0.866666666666667,5930.810749958,5931.521248625,9,5930.874856042,5930.933544958,5931.535625292,5932.395630167,1,0.710498667000138
110,22,2,categorization,0,kitchen,SHINEd_sun_agubuxuukhzyzpdp.tif,88,0.0666666666666667,0.0666666666666667,1.48333333333333,5932.402148708,5933.176402125,9,5932.463944625,5932.524769,5933.193292792,5934.669995125,1,0.774253417000182
110,23,2,categorization,0,bathroom,SHINEd_sun_apmqjbnwghzuhhzh.tif,46,0.0666666666666667,0.0666666666666667,1.1,5934.688938208,5935.370732708,13,5934.7552805,5934.822124042,5935.395485125,5936.488856042,1,0.681794500000251
110,24,2,categorization,0,bathroom,SHINEd_sun_aunuadmjocsddsrl.tif,52,0.0666666666666667,0.0666666666666667,0.783333333333333,5936.497752583,5937.294664167,13,5936.562416125,5936.630340458,5937.320462792,5938.097172083,1,0.796911583999645
110,25,2,categorization,0,kitchen,SHINEd_sun_ahywdevtimnqcsln.tif,94,0.0666666666666667,0.0666666666666667,0.866666666666667,5938.114073708,5938.657240167,9,5938.180661,5938.246882375,5938.6655625,5939.5255665,1,0.543166458999622
110,26,2,categorization,0,bathroom,SHINEd_sun_axldvoqbuvuggfmq.tif,57,0.0666666666666667,0.0666666666666667,1.83333333333333,5939.530527167,5940.312283125,9,5939.592129125,5939.653282,5940.321733125,5942.148457667,0,0.781755957999849
110,27,2,categorization,0,bathroom,SHINEd_sun_aoybiabnpadelefl.tif,41,0.0666666666666667,0.0666666666666667,0.7,5942.164208583,5943.341294833,9,5942.231424542,5942.296647333,5943.350567833,5944.043904917,0,1.17708624999977
110,28,2,categorization,0,kitchen,SHINEd_sun_ahspylgoovwmwvgk.tif,93,0.0666666666666667,0.0666666666666667,1.33333333333333,5944.048905208,5945.073115458,9,5944.110707833,5944.1716485,5945.0900385,5946.416756583,1,1.02421024999967
110,29,2,categorization,0,bathroom,SHINEd_sun_aleqenyvunhactkl.tif,32,0.0666666666666667,0.0666666666666667,1.33333333333333,5946.434901292,5946.96904,13,5946.501164375,5946.567894875,5946.989789958,5948.316503792,1,0.534138707999773
110,30,2,categorization,0,kitchen,SHINEd_sun_abftihopvusyfakt.tif,71,0.0666666666666667,0.0666666666666667,1.38333333333333,5948.338017125,5949.10425725,9,5948.405091958,5948.470758292,5949.126290042,5950.50300675,1,0.766240124999968
110,31,2,categorization,0,kitchen,SHINEd_sun_axyyrmzcupyhlivc.tif,107,0.0666666666666667,0.0666666666666667,1.25,5950.520479958,5951.681761833,9,5950.587171833,5950.653316708,5951.710376958,5952.953739708,1,1.16128187499999
110,32,2,categorization,0,bathroom,SHINEd_sun_ausgutylgojavyoq.tif,53,0.0666666666666667,0.0666666666666667,1.55,5952.964101833,5953.570097125,13,5953.032009083,5953.09743475,5953.587912958,5955.131305292,1,0.605995291999534
110,33,2,categorization,0,bathroom,SHINEd_sun_axyrejkiiaqiurjk.tif,59,0.0666666666666667,0.0666666666666667,1.61666666666667,5955.151312167,5956.020465125,9,5955.219409083,5955.285795708,5956.043619875,5957.653662333,0,0.869152958000086
110,34,2,categorization,0,kitchen,SHINEd_sun_awcpdzzznmweyyhv.tif,106,0.0666666666666667,0.0666666666666667,1.33333333333333,5957.673466458,5958.590017583,9,5957.74100125,5957.807536625,5958.613782833,5959.940496833,1,0.916551125000296
110,35,2,categorization,0,kitchen,SHINEd_sun_acfmftudsenhrfhy.tif,74,0.0666666666666667,0.0666666666666667,0.833333333333333,5959.958144042,5960.954866375,9,5960.025175667,5960.093618458,5960.965396708,5961.792069125,1,0.996722333000434
110,36,2,categorization,0,kitchen,SHINEd_sun_aeqdocilnnpuvuhx.tif,83,0.0666666666666667,0.0666666666666667,1.45,5961.797382542,5962.752403625,9,5961.859187333,5961.920328833,5962.772253708,5964.215638333,1,0.955021082999338
110,37,2,categorization,0,bathroom,SHINEd_sun_anhioqovhscjqqwb.tif,38,0.0666666666666667,0.0666666666666667,0.933333333333333,5964.233554458,5964.712908667,13,5964.3012195,5964.366743667,5964.738909208,5965.665633333,1,0.479354209000121
110,38,2,categorization,0,kitchen,SHINEd_sun_aamedkxepzlwuxes.tif,65,0.0666666666666667,0.0666666666666667,1.65,5965.682333458,5966.144262208,13,5965.748918792,5965.814896625,5966.1507015,5967.794069958,0,0.46192874999997
110,39,2,categorization,0,kitchen,SHINEd_sun_amjjdeyrggfqgmom.tif,100,0.0666666666666667,0.0666666666666667,1.23333333333333,5967.811707708,5968.62014,9,5967.880473292,5967.944036,5968.650580875,5969.877280958,1,0.808432292000361
110,40,2,categorization,0,kitchen,SHINEd_sun_admlmbcdswaszruo.tif,79,0.0666666666666667,0.0666666666666667,0.766666666666667,5969.896104625,5971.037889125,9,5969.962864917,5970.028846083,5971.051534292,5971.811545542,1,1.14178450000054
110,41,2,categorization,0,kitchen,SHINEd_labelme_rykdqxenmhulbdn.tif,63,0.0666666666666667,0.0666666666666667,1.78333333333333,5971.819290958,5973.216705375,9,5971.88111975,5971.942065125,5973.227648,5975.004369042,1,1.39741441699971
110,42,2,categorization,0,kitchen,SHINEd_sun_aarfiyshqohlwkmo.tif,67,0.0666666666666667,0.0666666666666667,1.11666666666667,5975.020952375,5976.122517208,9,5975.087851458,5975.153711375,5976.14341475,5977.253467292,1,1.10156483300034
110,43,2,categorization,0,bathroom,SHINEd_sun_auzqhkafidnkrwmo.tif,54,0.0666666666666667,0.0666666666666667,1.85,5977.262758542,5978.082909667,13,5977.328102042,5977.395021792,5978.0997595,5979.9431495,1,0.820151125000848
110,44,2,categorization,0,kitchen,SHINEd_labelme_kxvouciolcpqplr.tif,62,0.0666666666666667,0.0666666666666667,0.733333333333333,5979.956326333,5980.781667167,13,5980.026645292,5980.087997458,5980.811559875,5981.53823175,0,0.825340833999689
110,45,2,categorization,0,kitchen,SHINEd_sun_abdxkyyxwfskuaqb.tif,70,0.0666666666666667,0.0666666666666667,0.783333333333333,5981.543256667,5982.408862542,9,5981.60496525,5981.666088167,5982.418026083,5983.194697833,1,0.865605875000256
110,46,2,categorization,0,kitchen,SHINEd_sun_agzzivivdpnawacl.tif,89,0.0666666666666667,0.0666666666666667,1.5,5983.199371708,5984.304188125,13,5983.261133083,5983.3220395,5984.324567917,5985.817940875,0,1.10481641699971
110,47,2,categorization,0,bathroom,SHINEd_sun_azqyogdvyhahyram.tif,60,0.0666666666666667,0.0666666666666667,0.733333333333333,5985.838641833,5986.83001775,9,5985.905057417,5985.971322375,5986.84359225,5987.570264042,0,0.991375916999459
110,48,2,categorization,0,bathroom,SHINEd_sun_acegryoqftbzowsg.tif,17,0.0666666666666667,0.0666666666666667,1.1,5987.575334375,5988.288418958,13,5987.637130542,5987.697963917,5988.300266667,5989.393632417,1,0.713084582999727
110,49,2,categorization,0,kitchen,SHINEd_sun_aadbddgrdsjugojn.tif,64,0.0666666666666667,0.0666666666666667,1.6,5989.402779333,5990.422135167,13,5989.467742708,5989.535430458,5990.4416215,5992.034986708,0,1.01935583400063
110,50,2,categorization,0,kitchen,SHINEd_sun_ahpczsiumwwocjkv.tif,92,0.0666666666666667,0.0666666666666667,1.06666666666667,5992.047509875,5992.858781958,13,5992.114153583,5992.181186292,5992.887446667,5993.947496375,0,0.811272082999494
