sub_num,trial,block,task,is_practice,category,image,texture,duration,blank,mask_dur,jitter,stim_time,time_of_resp,trial_response,blank_time,mask_time,fix_time,jit_onset,trial_end,trial_accuracy,RT
110,1,0,categorization,1,kitchen,SHINEd_kitchen_practice5.tif,120,0.05,0.05,0.0833333333333333,1.05,952843.4942163,952844.6332873,70,952843.5487126,952843.600553,952843.6820127,952844.674219,952845.7225929,0,1.13907100004144
110,2,0,categorization,1,kitchen,SHINEd_kitchen_practice2.tif,117,0.05,0.05,0.0833333333333333,1.51666666666667,952845.7327397,952847.0891892,70,952845.7888617,952845.8378553,952845.9196956,952847.1001201,952848.6151846,0,1.35644949995913
110,3,0,categorization,1,bathroom,SHINEd_bathroom_practice4.tif,114,0.05,0.05,0.0833333333333333,0.833333333333333,952848.6250577,952849.2573158,70,952848.6810288,952848.7297648,952848.8126135,952849.2670403,952850.0987631,1,0.632258099969476
110,4,0,categorization,1,kitchen,SHINEd_kitchen_practice3.tif,118,0.05,0.05,0.0833333333333333,1.38333333333333,952850.1061215,952850.8252952,74,952850.1599426,952850.210205,952850.2934246,952850.8343245,952852.2160479,1,0.719173699966632
110,5,0,categorization,1,bathroom,SHINEd_bathroom_practice1.tif,111,0.05,0.05,0.0833333333333333,1.21666666666667,952852.2234098,952853.1785097,70,952852.2770924,952852.3281219,952852.4107869,952853.1905958,952854.405708,1,0.955099900020286
110,6,0,categorization,1,kitchen,SHINEd_kitchen_practice1.tif,116,0.05,0.05,0.0833333333333333,1.41666666666667,952854.4118531,952855.1301844,74,952854.4660104,952854.5161094,952854.5993605,952855.1369334,952856.5519387,1,0.718331299955025
110,7,0,categorization,1,bathroom,SHINEd_bathroom_practice2.tif,112,0.05,0.05,0.0833333333333333,1.01666666666667,952856.5582267,952857.7692751,70,952856.6124796,952856.6623764,952856.7451754,952857.7772311,952858.7922361,1,1.21104839991312
110,8,0,categorization,1,bathroom,SHINEd_bathroom_practice5.tif,115,0.05,0.05,0.0833333333333333,0.766666666666667,952858.7988242,952859.513282,74,952858.8531476,952858.9027848,952858.9857322,952859.5216783,952860.2866828,0,0.714457799913362
110,9,0,categorization,1,kitchen,SHINEd_kitchen_practice4.tif,119,0.05,0.05,0.0833333333333333,0.95,952860.2926694,952861.12126,74,952860.3467151,952860.3968063,952860.4800046,952861.1296965,952862.0780337,1,0.828590600052848
110,10,0,categorization,1,bathroom,SHINEd_bathroom_practice3.tif,113,0.05,0.05,0.0833333333333333,0.8,952862.0825025,952863.1131686,70,952862.1348075,952862.1853336,952862.2691961,952863.1182287,952863.9165664,1,1.03066609997768
110,1,1,categorization,0,kitchen,SHINEd_sun_awcpdzzznmweyyhv.tif,105,0.05,0.05,0.0833333333333333,1.71666666666667,952869.1144147,952870.4659001,74,952869.1667888,952869.2170306,952869.300319,952870.4712129,952872.1862185,1,1.351485399995
110,2,1,categorization,0,kitchen,SHINEd_labelme_brsyyvweiuaazfr.tif,61,0.05,0.05,0.0833333333333333,1.51666666666667,952872.1915445,952873.1212968,74,952872.2438917,952872.2944054,952872.3774608,952873.1273534,952874.642358,1,0.929752300027758
110,3,1,categorization,0,kitchen,SHINEd_sun_agubuxuukhzyzpdp.tif,90,0.05,0.05,0.0833333333333333,1.7,952874.647138,952875.4017227,74,952874.6994889,952874.7499548,952874.8326923,952875.4064341,952877.1047707,1,0.754584699985571
110,4,1,categorization,0,bathroom,SHINEd_sun_agyqfjcfkdcydepw.tif,24,0.05,0.05,0.0833333333333333,1.18333333333333,952877.1103782,952877.7300453,70,952877.163341,952877.2141516,952877.2964408,952877.735315,952878.9169866,1,0.619667100021616
110,5,1,categorization,0,bathroom,SHINEd_sun_awnqiikzaispgmwo.tif,56,0.05,0.05,0.0833333333333333,1.03333333333333,952878.9216321,952879.730014,70,952878.9742227,952879.0245542,952879.1070476,952879.735274,952880.7669441,1,0.808381899958476
110,6,1,categorization,0,kitchen,SHINEd_sun_aypmqwcualkenuoe.tif,108,0.05,0.05,0.0833333333333333,0.716666666666667,952880.7717125,952881.7932399,74,952880.8240853,952880.8749196,952880.9573683,952881.7984564,952882.5134616,1,1.02152740000747
110,7,1,categorization,0,bathroom,SHINEd_sun_ahijqszoswveeyji.tif,27,0.05,0.05,0.0833333333333333,0.716666666666667,952882.5184512,952883.225122,70,952882.5724242,952882.621187,952882.705359,952883.2307098,952883.9457151,1,0.706670799991116
110,8,1,categorization,0,bathroom,SHINEd_sun_ammzpemadwrjdfzl.tif,36,0.05,0.05,0.0833333333333333,0.733333333333333,952883.9505103,952884.8892177,74,952884.0029503,952884.0531379,952884.1362302,952884.895318,952885.6269892,0,0.938707399996929
110,9,1,categorization,0,bathroom,SHINEd_sun_apynckhmoftszqoq.tif,47,0.05,0.05,0.0833333333333333,1.38333333333333,952885.6318767,952886.2732515,70,952885.6859518,952885.7358032,952885.8177164,952886.2792269,952887.660898,1,0.641374800004996
110,10,1,categorization,0,kitchen,SHINEd_sun_aenotlpyftoioydp.tif,84,0.05,0.05,0.0833333333333333,1.05,952887.665606,952888.4417502,74,952887.7179541,952887.7682799,952887.8514884,952888.4465009,952889.4948384,1,0.776144200004637
110,11,1,categorization,0,kitchen,SHINEd_sun_afuyedyxivkhecmu.tif,87,0.05,0.05,0.0833333333333333,0.75,952889.5001059,952890.34525,70,952889.5525488,952889.6029553,952889.6855472,952890.3522226,952891.1005615,0,0.845144100021571
110,12,1,categorization,0,kitchen,SHINEd_sun_acwjdupvyjsugpay.tif,76,0.05,0.05,0.0833333333333333,1.01666666666667,952891.1066168,952891.7299501,74,952891.1598067,952891.2104418,952891.2925142,952891.7346603,952892.74967,1,0.623333299998194
110,13,1,categorization,0,bathroom,SHINEd_sun_ajlawzvmubibwbpy.tif,29,0.05,0.05,0.0833333333333333,0.983333333333333,952892.7544501,952893.5532736,70,952892.8071657,952892.8572918,952892.9402024,952893.5589675,952894.5406388,1,0.798823499935679
110,14,1,categorization,0,kitchen,SHINEd_sun_aegoxogugdkwpmpj.tif,81,0.05,0.05,0.0833333333333333,0.9,952894.5465963,952895.2571967,74,952894.5993731,952894.6489645,952894.7318609,952895.2629176,952896.1612556,1,0.710600399994291
110,15,1,categorization,0,bathroom,SHINEd_sun_afcoljnjfoxjtgja.tif,20,0.05,0.05,0.0833333333333333,1.48333333333333,952896.1667412,952896.8974865,70,952896.2193972,952896.2695593,952896.3525111,952896.9023171,952898.3839874,1,0.730745299952105
110,16,1,categorization,0,bathroom,SHINEd_sun_amzlamotzwfkwjco.tif,37,0.05,0.05,0.0833333333333333,0.733333333333333,952898.3899045,952899.0980726,70,952898.4439415,952898.4927416,952898.5761079,952899.1029979,952899.8346765,1,0.708168099983595
110,17,1,categorization,0,bathroom,SHINEd_labelme_sfxiulhjbhlyiyt.tif,11,0.05,0.05,0.0833333333333333,1.66666666666667,952899.8395814,952900.4892928,70,952899.8919435,952899.9418809,952900.0253197,952900.4944829,952902.159487,1,0.649711399921216
110,18,1,categorization,0,bathroom,SHINEd_sun_agrwbmhcpmfuwmsg.tif,23,0.05,0.05,0.0833333333333333,0.866666666666667,952902.1642276,952902.9140379,70,952902.216965,952902.2667403,952902.350308,952902.9187989,952903.7838123,1,0.74981030006893
110,19,1,categorization,0,kitchen,SHINEd_sun_auticobqsbwgoppi.tif,103,0.05,0.05,0.0833333333333333,1.91666666666667,952903.7888574,952904.4332849,74,952903.8422825,952903.8915986,952903.9745327,952904.4389462,952906.3539516,1,0.644427500083111
110,20,1,categorization,0,kitchen,SHINEd_sun_adcrxklhlbwrbkgm.tif,78,0.05,0.05,0.0833333333333333,1.4,952906.3587059,952907.1219419,74,952906.4109496,952906.4616286,952906.5442892,952907.127027,952908.5253641,1,0.763235999969766
110,21,1,categorization,0,bathroom,SHINEd_sun_apkxzenqapsujocq.tif,45,0.05,0.05,0.0833333333333333,0.85,952908.5299289,952909.121341,70,952908.5822908,952908.6326016,952908.7153243,952909.127239,952909.9755835,1,0.59141210000962
110,22,1,categorization,0,kitchen,SHINEd_sun_avszsnwsbuqfgzbn.tif,104,0.05,0.05,0.0833333333333333,1.03333333333333,952909.9804826,952910.6332305,74,952910.0328629,952910.0836197,952910.1660762,952910.6389968,952911.6706681,1,0.652747899992391
110,23,1,categorization,0,bathroom,SHINEd_sun_axxbkopsgyouuebh.tif,58,0.05,0.05,0.0833333333333333,0.983333333333333,952911.6757385,952912.250136,70,952911.7298577,952911.7786594,952911.8614105,952912.2552037,952913.236874,1,0.574397500022314
110,24,1,categorization,0,bathroom,SHINEd_sun_asfwthctfqerjvxr.tif,49,0.05,0.05,0.0833333333333333,1.88333333333333,952913.2413898,952913.9620377,70,952913.2942694,952913.3455833,952913.4282586,952913.9672475,952915.8489185,1,0.720647900016047
110,25,1,categorization,0,bathroom,SHINEd_sun_avhrdrntsqrjzccq.tif,55,0.05,0.05,0.0833333333333333,0.9,952915.853836,952916.6172855,70,952915.906258,952915.9566346,952916.0396188,952916.6224043,952917.520742,1,0.763449500082061
110,26,1,categorization,0,kitchen,SHINEd_sun_azmutvzbxypaceni.tif,110,0.05,0.05,0.0833333333333333,0.783333333333333,952917.5255331,952918.1700534,74,952917.5779746,952917.6283258,952917.7112146,952918.1746497,952918.9563211,1,0.644520299974829
110,27,1,categorization,0,kitchen,SHINEd_sun_admlmbcdswaszruo.tif,80,0.05,0.05,0.0833333333333333,1.76666666666667,952918.9610362,952919.6172368,74,952919.0132482,952919.0637718,952919.1467438,952919.6233828,952921.3883879,1,0.65620059997309
110,28,1,categorization,0,kitchen,SHINEd_sun_agzzivivdpnawacl.tif,91,0.05,0.05,0.0833333333333333,1.68333333333333,952921.39355,952922.5619721,74,952921.4470719,952921.4966434,952921.5807474,952922.5670652,952924.2487371,1,1.16842210001778
110,29,1,categorization,0,kitchen,SHINEd_sun_amjjdeyrggfqgmom.tif,99,0.05,0.05,0.0833333333333333,1.2,952924.2537071,952924.9698786,74,952924.3067247,952924.3567844,952924.4390343,952924.9750256,952926.1733637,1,0.716171499923803
110,30,1,categorization,0,bathroom,SHINEd_sun_aspsyogrekjtfozg.tif,50,0.05,0.05,0.0833333333333333,1.01666666666667,952926.1781599,952926.7852771,70,952926.2302511,952926.2824489,952926.3643846,952926.7907305,952927.8057355,1,0.607117200037464
110,31,1,categorization,0,bathroom,SHINEd_sun_aofnryafpsjimzsb.tif,40,0.05,0.05,0.0833333333333333,1.56666666666667,952927.8103862,952928.5858586,70,952927.8628127,952927.9132155,952927.9962792,952928.5909351,952930.1559384,1,0.775472400011495
110,32,1,categorization,0,kitchen,SHINEd_sun_aunzlwrbjumxhwdj.tif,102,0.05,0.05,0.0833333333333333,1.3,952930.160314,952930.7938487,74,952930.2129927,952930.2634785,952930.3469819,952930.798695,952932.0970325,1,0.633534700027667
110,33,1,categorization,0,kitchen,SHINEd_sun_aapllqyqlykszopd.tif,66,0.05,0.05,0.0833333333333333,1.66666666666667,952932.1018938,952932.8972565,74,952932.1544332,952932.2046108,952932.28778,952932.9025994,952934.5676034,1,0.795362700009719
110,34,1,categorization,0,bathroom,SHINEd_sun_aghyqhbptboemmoq.tif,22,0.05,0.05,0.0833333333333333,1.05,952934.5732949,952935.161802,70,952934.6256625,952934.6760079,952934.7588847,952935.1663829,952936.2147218,1,0.588507100008428
110,35,1,categorization,0,bathroom,SHINEd_sun_aleqenyvunhactkl.tif,31,0.05,0.05,0.0833333333333333,1.41666666666667,952936.2200816,952936.9298509,70,952936.2724761,952936.3229256,952936.4057493,952936.934805,952938.3498084,1,0.709769299952313
110,36,1,categorization,0,bathroom,SHINEd_sun_ambriybtogmepttm.tif,35,0.05,0.05,0.0833333333333333,1.3,952938.3544344,952939.169273,70,952938.4081365,952938.4571033,952938.5400862,952939.1753244,952940.4736615,1,0.81483859999571
110,37,1,categorization,0,kitchen,SHINEd_sun_ayqymgxqhxxiykiw.tif,109,0.05,0.05,0.0833333333333333,1.08333333333333,952940.4783333,952941.0810379,74,952940.5307916,952940.5814241,952940.6639845,952941.086257,952942.1679273,1,0.602704599965364
110,38,1,categorization,0,kitchen,SHINEd_sun_ajcbwwvdlsvjyzje.tif,96,0.05,0.05,0.0833333333333333,1.75,952942.1724817,952942.9931619,74,952942.2259225,952942.2758967,952942.3588516,952942.998996,952944.7473331,1,0.820680200005881
110,39,1,categorization,0,bathroom,SHINEd_sun_aapitsgbtktqubfy.tif,13,0.05,0.05,0.0833333333333333,1.51666666666667,952944.7522338,952945.3458479,70,952944.8059299,952944.8553196,952944.9391789,952945.3507188,952946.8657224,1,0.593614100012928
110,40,1,categorization,0,kitchen,SHINEd_sun_ajkqhtgcbgpcwrwn.tif,97,0.05,0.05,0.0833333333333333,1.96666666666667,952946.8714175,952947.713841,74,952946.9236842,952946.9754927,952947.0571681,952947.7190134,952949.6840179,1,0.842423500027508
110,41,1,categorization,0,bathroom,SHINEd_sun_apjevzvycyhuqghb.tif,43,0.05,0.05,0.0833333333333333,1.01666666666667,952949.6885652,952950.2411622,70,952949.7409227,952949.7914395,952949.8752668,952950.2470011,952951.2620156,1,0.552597000030801
110,42,1,categorization,0,bathroom,SHINEd_sun_agguqiubmwhqqunb.tif,21,0.05,0.05,0.0833333333333333,0.833333333333333,952951.2686208,952951.897231,70,952951.3226199,952951.3712544,952951.4538528,952951.9027597,952952.7344313,1,0.628610200015828
110,43,1,categorization,0,bathroom,SHINEd_sun_atstyziqcmkahyxk.tif,51,0.05,0.05,0.0833333333333333,0.816666666666667,952952.7393955,952953.4171984,70,952952.7928859,952952.8424649,952952.9250845,952953.4230432,952954.2380479,1,0.67780289996881
110,44,1,categorization,0,kitchen,SHINEd_sun_abrcnpqqhmjwekyf.tif,73,0.05,0.05,0.0833333333333333,1.76666666666667,952954.242958,952954.9772458,70,952954.2962843,952954.3456851,952954.4291867,952954.9832231,952956.7482269,0,0.734287799918093
110,45,1,categorization,0,kitchen,SHINEd_sun_acgtpgfybqjmzeyw.tif,75,0.05,0.05,0.0833333333333333,1.21666666666667,952956.7537623,952957.7057973,74,952956.8063706,952956.8581717,952956.9394812,952957.7107263,952958.9257322,1,0.95203499996569
110,46,1,categorization,0,bathroom,SHINEd_sun_akiytfaagpdsphgz.tif,30,0.05,0.05,0.0833333333333333,1.93333333333333,952958.9304665,952959.5699089,70,952958.9828006,952959.0332531,952959.1161889,952959.57496,952961.5066316,1,0.63944239995908
110,47,1,categorization,0,bathroom,SHINEd_sun_ahaulkltgpkeeemi.tif,25,0.05,0.05,0.0833333333333333,1.08333333333333,952961.5119162,952962.1772693,70,952961.5642049,952961.6145165,952961.6977206,952962.1826036,952963.2642742,1,0.665353099931963
110,48,1,categorization,0,bathroom,SHINEd_sun_alotolagknyrgtsk.tif,34,0.05,0.05,0.0833333333333333,1.16666666666667,952963.26851,952964.1531525,70,952963.3211272,952963.3727141,952963.4541726,952964.1586394,952965.3236441,1,0.8846425000811
110,49,1,categorization,0,kitchen,SHINEd_sun_ahywdevtimnqcsln.tif,95,0.05,0.05,0.0833333333333333,0.916666666666667,952965.3282041,952965.8811539,74,952965.3806049,952965.4308192,952965.5139856,952965.8861402,952966.8011454,1,0.552949799923226
110,50,1,categorization,0,kitchen,SHINEd_sun_akcjzhbbjlbogpdi.tif,98,0.05,0.05,0.0833333333333333,0.766666666666667,952966.8060032,952967.7212526,74,952966.857965,952966.9090194,952966.9924891,952967.726747,952968.4917512,1,0.915249399957247
110,1,2,categorization,0,kitchen,SHINEd_sun_aaxxjlsuzvqlgylf.tif,68,0.05,0.05,0.0833333333333333,0.866666666666667,952983.5894597,952984.2571415,74,952983.6416957,952983.6931557,952983.7752099,952984.2625411,952985.1275456,1,0.667681799968705
110,2,2,categorization,0,bathroom,SHINEd_sun_anryaplzeujmzfkd.tif,39,0.05,0.05,0.0833333333333333,1.85,952985.132413,952985.8497184,70,952985.1844729,952985.2353033,952985.3181189,952985.8545793,952987.7029207,1,0.717305400059558
110,3,2,categorization,0,kitchen,SHINEd_sun_abdenxonkemggwsq.tif,69,0.05,0.05,0.0833333333333333,1.88333333333333,952987.7074307,952988.4023331,74,952987.7615103,952987.8105075,952987.8929567,952988.4072435,952990.288913,1,0.69490240002051
110,4,2,categorization,0,bathroom,SHINEd_sun_ahcvzmoyaycdoftf.tif,26,0.05,0.05,0.0833333333333333,1.93333333333333,952990.295114,952991.0011679,70,952990.3474145,952990.3979915,952990.4807597,952991.0069121,952992.9385829,1,0.706053900066763
110,5,2,categorization,0,kitchen,SHINEd_sun_aexklacwqwezaorf.tif,86,0.05,0.05,0.0833333333333333,1.38333333333333,952992.944231,952993.6818625,74,952992.9966076,952993.0473087,952993.1300269,952993.6868331,952995.0685027,1,0.737631500000134
110,6,2,categorization,0,bathroom,SHINEd_sun_aclfzgynxzxlbepz.tif,19,0.05,0.05,0.0833333333333333,1.71666666666667,952995.073031,952995.673231,70,952995.1255032,952995.176988,952995.2585293,952995.678905,952997.3939083,1,0.600199999986216
110,7,2,categorization,0,bathroom,SHINEd_sun_apeeialkgkuxddgh.tif,42,0.05,0.05,0.0833333333333333,1.48333333333333,952997.3984364,952997.9778898,70,952997.4508561,952997.5024979,952997.584264,952997.9826288,952999.4643,1,0.57945339998696
110,8,2,categorization,0,kitchen,SHINEd_sun_aehawpgmrlhlvcow.tif,82,0.05,0.05,0.0833333333333333,0.783333333333333,952999.4693573,953000.2651874,74,952999.522937,952999.5721178,952999.6547262,953000.2709425,953001.0526255,1,0.795830100076273
110,9,2,categorization,0,bathroom,SHINEd_sun_ahqjwnzgolcaoidx.tif,28,0.05,0.05,0.0833333333333333,0.866666666666667,953001.0577893,953001.673791,70,953001.1101604,953001.1604316,953001.2434239,953001.6787497,953002.5437535,1,0.616001700051129
110,10,2,categorization,0,kitchen,SHINEd_sun_auaiucuqpdausiva.tif,101,0.05,0.05,0.0833333333333333,1.13333333333333,953002.5486117,953003.2091836,70,953002.6012298,953002.6512977,953002.734585,953003.215057,953004.3467292,0,0.660571900079958
110,11,2,categorization,0,bathroom,SHINEd_sun_aqrpegblszgcoujh.tif,48,0.05,0.05,0.0833333333333333,0.9,953004.3519006,953004.9859588,70,953004.4040482,953004.454765,953004.5382125,953004.9909996,953005.8893364,1,0.634058199939318
110,12,2,categorization,0,bathroom,SHINEd_sun_alkosphxlxwjwgjd.tif,33,0.05,0.05,0.0833333333333333,1.21666666666667,953005.8938473,953006.5131784,70,953005.9465387,953005.9971205,953006.0797094,953006.5183959,953007.7333994,1,0.619331100024283
110,13,2,categorization,0,bathroom,SHINEd_sun_aavhrsfjbserjtht.tif,14,0.05,0.05,0.0833333333333333,1.78333333333333,953007.7385865,953009.2259608,70,953007.7923391,953007.8418054,953007.9258275,953009.2311515,953011.0128219,1,1.48737429990433
110,14,2,categorization,0,kitchen,SHINEd_sun_acxkpeoqbwcxfvip.tif,77,0.05,0.05,0.0833333333333333,1.21666666666667,953011.017608,953011.5619137,74,953011.0700022,953011.1219728,953011.2034083,953011.566915,953012.7819183,1,0.544305699993856
110,15,2,categorization,0,bathroom,SHINEd_sun_acgyywnybuveqsro.tif,18,0.05,0.05,0.0833333333333333,1.06666666666667,953012.7867073,953013.5371925,70,953012.8389976,953012.8895875,953012.9725273,953013.5428522,953014.6078563,1,0.750485199969262
110,16,2,categorization,0,bathroom,SHINEd_sun_apkruvsevgegsdwp.tif,44,0.05,0.05,0.0833333333333333,1.73333333333333,953014.6124153,953015.3052363,70,953014.6648278,953014.7153924,953014.7981361,953015.3111001,953017.0427699,1,0.692821000004187
110,17,2,categorization,0,bathroom,SHINEd_sun_aamrfepkhweyewue.tif,12,0.05,0.05,0.0833333333333333,0.833333333333333,953017.0475745,953018.3131583,70,953017.101709,953017.1510187,953017.2336039,953018.3186802,953019.1503519,1,1.26558380003553
110,18,2,categorization,0,kitchen,SHINEd_sun_abpwyqmlzafvklqo.tif,72,0.05,0.05,0.0833333333333333,1.05,953019.1551779,953019.9852097,74,953019.2073307,953019.2580594,953019.3409008,953019.9904882,953021.0388265,1,0.830031799967401
110,19,2,categorization,0,bathroom,SHINEd_sun_abapwbhyhkfixyex.tif,15,0.05,0.05,0.0833333333333333,1.33333333333333,953021.043344,953021.7851187,70,953021.0958072,953021.1464676,953021.2294442,953021.7903672,953023.1220395,1,0.741774699999951
110,20,2,categorization,0,bathroom,SHINEd_sun_abjtwfukuwddzted.tif,16,0.05,0.05,0.0833333333333333,1.83333333333333,953023.1268127,953023.729202,70,953023.1790904,953023.2298325,953023.3125851,953023.7347157,953025.5663859,1,0.602389300009236
110,21,2,categorization,0,kitchen,SHINEd_sun_aeqdocilnnpuvuhx.tif,85,0.05,0.05,0.0833333333333333,0.966666666666667,953025.5706763,953026.2012263,74,953025.6230435,953025.6734532,953025.7578122,953026.2062884,953027.1712925,1,0.630550000001676
110,22,2,categorization,0,kitchen,SHINEd_sun_aggjlwcdjsjcaemh.tif,88,0.05,0.05,0.0833333333333333,1.35,953027.1758552,953027.83317,70,953027.2282897,953027.2789454,953027.3617423,953027.8383576,953029.1867078,0,0.65731479995884
110,23,2,categorization,0,bathroom,SHINEd_sun_apmqjbnwghzuhhzh.tif,46,0.05,0.05,0.0833333333333333,1.58333333333333,953029.1919786,953029.8979554,70,953029.2442158,953029.2948219,953029.3776574,953029.9026598,953031.4843534,1,0.705976800061762
110,24,2,categorization,0,bathroom,SHINEd_sun_aunuadmjocsddsrl.tif,52,0.05,0.05,0.0833333333333333,0.883333333333333,953031.4892065,953032.2331813,70,953031.5419233,953031.59193,953031.674575,953032.2392902,953033.1209613,1,0.743974799988791
110,25,2,categorization,0,kitchen,SHINEd_sun_ahpczsiumwwocjkv.tif,94,0.05,0.05,0.0833333333333333,2,953033.12548,953033.7458352,74,953033.1782777,953033.2292712,953033.3110386,953033.7507601,953035.7490972,1,0.620355199906044
110,26,2,categorization,0,bathroom,SHINEd_sun_axldvoqbuvuggfmq.tif,57,0.05,0.05,0.0833333333333333,0.783333333333333,953035.7535222,953036.3611696,70,953035.8058988,953035.8561095,953035.9393752,953036.3666872,953037.1483671,1,0.607647400000133
110,27,2,categorization,0,bathroom,SHINEd_sun_aoybiabnpadelefl.tif,41,0.05,0.05,0.0833333333333333,1.03333333333333,953037.1530103,953038.177219,70,953037.2053914,953037.2557932,953037.3390066,953038.1829818,953039.2146536,1,1.02420869993512
110,28,2,categorization,0,kitchen,SHINEd_sun_ahljzhgcdpomplvg.tif,93,0.05,0.05,0.0833333333333333,1.6,953039.2194369,953039.8812111,74,953039.2722334,953039.3218374,953039.405144,953039.886827,953041.4851639,1,0.661774200038053
110,29,2,categorization,0,bathroom,SHINEd_sun_aljolscmmzydegqp.tif,32,0.05,0.05,0.0833333333333333,0.7,953041.4899274,953042.2332029,70,953041.5439954,953041.592652,953041.6756411,953042.2391179,953042.937455,1,0.743275500019081
110,30,2,categorization,0,kitchen,SHINEd_sun_abftihopvusyfakt.tif,71,0.05,0.05,0.0833333333333333,1.61666666666667,953042.9430898,953043.6736206,74,953042.9969778,953043.0457927,953043.1301119,953043.6792336,953045.2942382,1,0.730530800065026
110,31,2,categorization,0,kitchen,SHINEd_sun_aymvwlarqodbwuoc.tif,107,0.05,0.05,0.0833333333333333,1.3,953045.2988198,953045.8891972,70,953045.3511683,953045.4016907,953045.4846094,953045.8950328,953047.193371,0,0.59037739993073
110,32,2,categorization,0,bathroom,SHINEd_sun_ausgutylgojavyoq.tif,53,0.05,0.05,0.0833333333333333,1.63333333333333,953047.1980077,953047.7691961,70,953047.2503698,953047.3009558,953047.3836786,953047.7753282,953049.4069992,1,0.571188399917446
110,33,2,categorization,0,bathroom,SHINEd_sun_axyrejkiiaqiurjk.tif,59,0.05,0.05,0.0833333333333333,1.23333333333333,953049.4120279,953050.250151,70,953049.4645483,953049.5145555,953049.5978507,953050.254974,953051.4866447,1,0.838123099994846
110,34,2,categorization,0,kitchen,SHINEd_sun_axyyrmzcupyhlivc.tif,106,0.05,0.05,0.0833333333333333,1.16666666666667,953051.4916341,953052.3771818,74,953051.5437965,953051.5947267,953051.6773031,953052.3828032,953053.5478067,1,0.88554769998882
110,35,2,categorization,0,kitchen,SHINEd_sun_acfmftudsenhrfhy.tif,74,0.05,0.05,0.0833333333333333,1.56666666666667,953053.5539461,953054.2588032,74,953053.6059951,953053.6564942,953053.740857,953054.2636036,953055.8286077,1,0.704857100034133
110,36,2,categorization,0,kitchen,SHINEd_sun_aeikbkmhphqzxdkv.tif,83,0.05,0.05,0.0833333333333333,1.18333333333333,953055.8335509,953056.4421606,70,953055.8859398,953055.9375238,953056.0203587,953056.4474282,953057.6290991,0,0.608609699993394
110,37,2,categorization,0,bathroom,SHINEd_sun_anhioqovhscjqqwb.tif,38,0.05,0.05,0.0833333333333333,0.866666666666667,953057.6349746,953058.1777994,70,953057.6873162,953057.7374911,953057.8207317,953058.1826729,953059.0476775,1,0.542824799893424
110,38,2,categorization,0,kitchen,SHINEd_sun_aamedkxepzlwuxes.tif,65,0.05,0.05,0.0833333333333333,1.06666666666667,953059.0523548,953059.6656316,70,953059.1060815,953059.155202,953059.2391995,953059.6704851,953060.7354967,0,0.613276799907908
110,39,2,categorization,0,kitchen,SHINEd_sun_aqeaevwwwjoqhzvl.tif,100,0.05,0.05,0.0833333333333333,1.26666666666667,953060.7404882,953061.7850719,74,953060.7928237,953060.8437976,953060.9264387,953061.7905585,953063.0555616,1,1.04458370001521
110,40,2,categorization,0,kitchen,SHINEd_sun_adgqasybjyktddhj.tif,79,0.05,0.05,0.0833333333333333,1.05,953063.0603952,953064.169898,70,953063.114017,953063.1632113,953063.2473004,953064.175025,953065.2233629,0,1.10950279992539
110,41,2,categorization,0,kitchen,SHINEd_labelme_rykdqxenmhulbdn.tif,63,0.05,0.05,0.0833333333333333,1.03333333333333,953065.227811,953065.9859247,74,953065.2802584,953065.3304523,953065.4137177,953065.9914476,953067.0231183,1,0.758113700081594
110,42,2,categorization,0,kitchen,SHINEd_sun_aarfiyshqohlwkmo.tif,67,0.05,0.05,0.0833333333333333,0.8,953067.0280986,953067.7772176,74,953067.0805413,953067.1327343,953067.2138586,953067.782766,953068.5811046,1,0.74911900004372
110,43,2,categorization,0,bathroom,SHINEd_sun_auzqhkafidnkrwmo.tif,54,0.05,0.05,0.0833333333333333,0.866666666666667,953068.5870652,953069.44916,70,953068.6396616,953068.690156,953068.7728279,953069.4549546,953070.3199577,1,0.862094799987972
110,44,2,categorization,0,kitchen,SHINEd_labelme_kxvouciolcpqplr.tif,62,0.05,0.05,0.0833333333333333,0.8,953070.3246177,953071.1530583,74,953070.3768394,953070.42712,953070.510386,953071.1581375,953071.9564744,1,0.828440600074828
110,45,2,categorization,0,kitchen,SHINEd_sun_abdxkyyxwfskuaqb.tif,70,0.05,0.05,0.0833333333333333,1.61666666666667,953071.9613123,953072.945695,74,953072.0149718,953072.0645343,953072.1469245,953072.9504686,953074.5654732,1,0.984382700058632
110,46,2,categorization,0,kitchen,SHINEd_sun_agorklincwxrdtga.tif,89,0.05,0.05,0.0833333333333333,1.68333333333333,953074.5719163,953075.305137,70,953074.6258299,953074.676078,953074.7577236,953075.310726,953076.9923969,0,0.733220700058155
110,47,2,categorization,0,bathroom,SHINEd_sun_azqyogdvyhahyram.tif,60,0.05,0.05,0.0833333333333333,0.866666666666667,953076.9975023,953077.6091254,70,953077.0504212,953077.100246,953077.1841936,953077.6151805,953078.4801856,1,0.61162310000509
110,48,2,categorization,0,bathroom,SHINEd_sun_acduarbnmmoglmiv.tif,17,0.05,0.05,0.0833333333333333,1.56666666666667,953078.484806,953079.1691779,70,953078.5370328,953078.587629,953078.6715377,953079.1750272,953080.7400323,1,0.684371899929829
110,49,2,categorization,0,kitchen,SHINEd_sun_aadbddgrdsjugojn.tif,64,0.05,0.05,0.0833333333333333,1.18333333333333,953080.7445916,953081.4411249,74,953080.798308,953080.8489663,953080.9303971,953081.4469687,953082.6286388,1,0.696533299982548
110,50,2,categorization,0,kitchen,SHINEd_sun_ahdycvpopffkzzsu.tif,92,0.05,0.05,0.0833333333333333,1.55,953082.6330303,953083.4331836,70,953082.6866434,953082.7369435,953082.8188957,953083.4385112,953084.9868496,0,0.800153299933299
110,1,3,categorization,0,bathroom,SHINEd_sun_agguqiubmwhqqunb.tif,21,0.05,0.05,0.0833333333333333,0.716666666666667,953089.5264526,953090.3051831,70,953089.5799852,953089.6288629,953089.7119381,953090.3108701,953091.0258758,1,0.778730500023812
110,2,3,categorization,0,kitchen,SHINEd_sun_ahywdevtimnqcsln.tif,95,0.05,0.05,0.0833333333333333,1.05,953091.0309317,953091.6730567,74,953091.0832259,953091.1334542,953091.2166969,953091.6786252,953092.726963,1,0.642125000013039
110,3,3,categorization,0,bathroom,SHINEd_sun_ammzpemadwrjdfzl.tif,36,0.05,0.05,0.0833333333333333,0.866666666666667,953092.7327309,953093.6178924,74,953092.7851634,953092.8351623,953092.9185501,953093.6238773,953094.488881,0,0.885161499958485
110,4,3,categorization,0,kitchen,SHINEd_sun_acgtpgfybqjmzeyw.tif,75,0.05,0.05,0.0833333333333333,0.833333333333333,953094.4937128,953095.9455999,74,953094.5472442,953094.5963764,953094.6794508,953095.9502567,953096.7819273,1,1.45188710000366
110,5,3,categorization,0,bathroom,SHINEd_sun_auzqhkafidnkrwmo.tif,54,0.05,0.05,0.0833333333333333,1.71666666666667,953096.7868003,953097.3938571,70,953096.8393666,953096.8896164,953096.9723688,953097.3986466,953099.1136496,1,0.60705680004321
110,6,3,categorization,0,bathroom,SHINEd_sun_aqrpegblszgcoujh.tif,48,0.05,0.05,0.0833333333333333,1.46666666666667,953099.118132,953099.9532872,70,953099.1717387,953099.2206935,953099.303788,953099.9587568,953101.4237616,1,0.835155199980363
110,7,3,categorization,0,bathroom,SHINEd_sun_apeeialkgkuxddgh.tif,42,0.05,0.05,0.0833333333333333,0.916666666666667,953101.4297049,953102.0411628,70,953101.4836457,953101.5325847,953101.6162471,953102.0466755,953102.9616795,1,0.611457900027744
110,8,3,categorization,0,kitchen,SHINEd_sun_ajcbwwvdlsvjyzje.tif,96,0.05,0.05,0.0833333333333333,1.4,953102.9667938,953103.7137824,74,953103.0208509,953103.0710843,953103.1536056,953103.7186722,953105.1170094,1,0.746988600003533
110,9,3,categorization,0,kitchen,SHINEd_sun_aunzlwrbjumxhwdj.tif,102,0.05,0.05,0.0833333333333333,0.85,953105.1218217,953105.8969859,74,953105.1741012,953105.224498,953105.3090909,953105.9019092,953106.7502469,1,0.775164199993014
110,10,3,categorization,0,kitchen,SHINEd_sun_auticobqsbwgoppi.tif,103,0.05,0.05,0.0833333333333333,0.716666666666667,953106.755013,953107.5141095,74,953106.8074371,953106.8577394,953106.9408651,953107.5191948,953108.2341992,1,0.759096499998122
110,11,3,categorization,0,kitchen,SHINEd_sun_aeqdocilnnpuvuhx.tif,85,0.05,0.05,0.0833333333333333,0.916666666666667,953108.2390024,953109.0100029,70,953108.2913642,953108.3415574,953108.4243939,953109.01543,953109.9304333,0,0.771000500069931
110,12,3,categorization,0,bathroom,SHINEd_sun_avhrdrntsqrjzccq.tif,55,0.05,0.05,0.0833333333333333,1.28333333333333,953109.9351636,953110.6011064,70,953109.9875196,953110.0380037,953110.1208025,953110.606829,953111.8884999,1,0.665942799998447
110,13,3,categorization,0,kitchen,SHINEd_sun_aaxxjlsuzvqlgylf.tif,68,0.05,0.05,0.0833333333333333,0.716666666666667,953111.8934128,953112.6012029,74,953111.9458562,953111.9957485,953112.0787803,953112.6074465,953113.3224495,1,0.7077901000157
110,14,3,categorization,0,bathroom,SHINEd_sun_ausgutylgojavyoq.tif,53,0.05,0.05,0.0833333333333333,1.01666666666667,953113.3269611,953113.9851587,70,953113.3793747,953113.4299908,953113.5128678,953113.9909796,953115.0059845,1,0.658197600045241
110,15,3,categorization,0,bathroom,SHINEd_sun_akiytfaagpdsphgz.tif,30,0.05,0.05,0.0833333333333333,1.05,953115.0106073,953115.7379463,70,953115.0632326,953115.1133041,953115.1980614,953115.7431151,953116.7914522,1,0.727338999975473
110,16,3,categorization,0,bathroom,SHINEd_sun_alkosphxlxwjwgjd.tif,33,0.05,0.05,0.0833333333333333,1.41666666666667,953116.7959181,953117.489821,70,953116.848411,953116.8991755,953116.9817819,953117.4946401,953118.9096453,1,0.69390289997682
110,17,3,categorization,0,kitchen,SHINEd_sun_aeikbkmhphqzxdkv.tif,83,0.05,0.05,0.0833333333333333,1.93333333333333,953118.9145315,953119.7290653,74,953118.9669866,953119.0173784,953119.1001517,953119.7348121,953121.6664817,1,0.814533800003119
110,18,3,categorization,0,kitchen,SHINEd_sun_admlmbcdswaszruo.tif,80,0.05,0.05,0.0833333333333333,0.7,953121.6714386,953122.3771899,74,953121.7233747,953121.7742821,953121.8569281,953122.38294,953123.0812772,1,0.705751299974509
110,19,3,categorization,0,bathroom,SHINEd_sun_awnqiikzaispgmwo.tif,56,0.05,0.05,0.0833333333333333,1.61666666666667,953123.0858429,953123.8255544,70,953123.1382315,953123.1885094,953123.2713131,953123.8301344,953125.4451398,1,0.739711500005797
110,20,3,categorization,0,bathroom,SHINEd_sun_ajlawzvmubibwbpy.tif,29,0.05,0.05,0.0833333333333333,0.883333333333333,953125.4500233,953126.2497794,70,953125.5023675,953125.552828,953125.6354512,953126.2545864,953127.1362575,1,0.799756099935621
110,21,3,categorization,0,bathroom,SHINEd_sun_aofnryafpsjimzsb.tif,40,0.05,0.05,0.0833333333333333,0.983333333333333,953127.1408444,953127.8738243,70,953127.1931769,953127.2451716,953127.3274192,953127.8788476,953128.8605171,1,0.732979899970815
110,22,3,categorization,0,bathroom,SHINEd_sun_aspsyogrekjtfozg.tif,50,0.05,0.05,0.0833333333333333,0.783333333333333,953128.8651521,953129.4970906,70,953128.917565,953128.9679788,953129.0509018,953129.502328,953130.2839979,1,0.631938499980606
110,23,3,categorization,0,bathroom,SHINEd_sun_ambriybtogmepttm.tif,35,0.05,0.05,0.0833333333333333,1.06666666666667,953130.2886379,953130.90515,70,953130.3408976,953130.3914422,953130.4742285,953130.9109386,953131.9759433,1,0.616512099979445
110,24,3,categorization,0,kitchen,SHINEd_sun_adgqasybjyktddhj.tif,79,0.05,0.05,0.0833333333333333,1.81666666666667,953131.9804388,953132.6730962,74,953132.0327488,953132.0832046,953132.167265,953132.6788896,953134.4938943,1,0.692657400039025
110,25,3,categorization,0,kitchen,SHINEd_sun_avszsnwsbuqfgzbn.tif,104,0.05,0.05,0.0833333333333333,1,953134.4988655,953135.1539476,74,953134.5523458,953134.6019539,953134.6845876,953135.1586875,953136.1570249,1,0.655082100071013
110,26,3,categorization,0,kitchen,SHINEd_sun_aadbddgrdsjugojn.tif,64,0.05,0.05,0.0833333333333333,1.31666666666667,953136.1626984,953136.8498426,70,953136.2150972,953136.2652596,953136.3481312,953136.8548811,953138.1698853,0,0.687144199968316
110,27,3,categorization,0,bathroom,SHINEd_sun_apjevzvycyhuqghb.tif,43,0.05,0.05,0.0833333333333333,1.3,953138.1747073,953139.2011085,74,953138.2269898,953138.2777205,953138.3603319,953139.2063932,953140.5047301,0,1.0264011999825
110,28,3,categorization,0,kitchen,SHINEd_sun_axyyrmzcupyhlivc.tif,106,0.05,0.05,0.0833333333333333,0.766666666666667,953140.5103518,953141.2250706,74,953140.5638738,953140.6137885,953140.6964514,953141.2303789,953141.9953832,1,0.714718800038099
110,29,3,categorization,0,bathroom,SHINEd_sun_alotolagknyrgtsk.tif,34,0.05,0.05,0.0833333333333333,0.783333333333333,953142.0001269,953142.7930795,70,953142.052783,953142.1028903,953142.1856854,953142.7988878,953143.5805584,1,0.792952599935234
110,30,3,categorization,0,kitchen,SHINEd_labelme_kxvouciolcpqplr.tif,62,0.05,0.05,0.0833333333333333,1.06666666666667,953143.5853652,953144.3930402,74,953143.6379534,953143.6885548,953143.7711295,953144.3981276,953145.4631312,1,0.807675000047311
110,31,3,categorization,0,kitchen,SHINEd_sun_auaiucuqpdausiva.tif,101,0.05,0.05,0.0833333333333333,1.95,953145.4679438,953146.1450807,74,953145.5204649,953145.5703493,953145.6534705,953146.150905,953148.0992431,1,0.677136900019832
110,32,3,categorization,0,kitchen,SHINEd_sun_abrcnpqqhmjwekyf.tif,73,0.05,0.05,0.0833333333333333,1.08333333333333,953148.1040166,953149.0257884,74,953148.1565098,953148.2067313,953148.2912557,953149.0304449,953150.1121158,1,0.921771800029092
110,33,3,categorization,0,kitchen,SHINEd_sun_ahdycvpopffkzzsu.tif,92,0.05,0.05,0.0833333333333333,0.966666666666667,953150.1179634,953150.825041,74,953150.1719277,953150.2208014,953150.3035572,953150.8312205,953151.7962249,1,0.707077600061893
110,34,3,categorization,0,kitchen,SHINEd_sun_aggjlwcdjsjcaemh.tif,88,0.05,0.05,0.0833333333333333,0.85,953151.8006854,953152.409779,74,953151.8533008,953151.9034793,953151.9867869,953152.4147994,953153.2631373,1,0.609093599952757
110,35,3,categorization,0,kitchen,SHINEd_sun_aqeaevwwwjoqhzvl.tif,100,0.05,0.05,0.0833333333333333,0.75,953153.2694587,953153.9451267,74,953153.3229978,953153.3721382,953153.4552072,953153.9504223,953154.6987603,1,0.675668000010774
110,36,3,categorization,0,kitchen,SHINEd_sun_agubuxuukhzyzpdp.tif,90,0.05,0.05,0.0833333333333333,0.783333333333333,953154.7035332,953155.3371549,74,953154.7567156,953154.8073956,953154.8889691,953155.342544,953156.124215,1,0.633621699991636
110,37,3,categorization,0,kitchen,SHINEd_sun_amjjdeyrggfqgmom.tif,99,0.05,0.05,0.0833333333333333,1,953156.1302673,953156.7531161,74,953156.1837176,953156.2329555,953156.3161162,953156.7587161,953157.7570551,1,0.622848800034262
110,38,3,categorization,0,bathroom,SHINEd_sun_anhioqovhscjqqwb.tif,38,0.05,0.05,0.0833333333333333,1.95,953157.7623467,953158.3857777,70,953157.8150466,953157.8652238,953157.9476939,953158.3909371,953160.3392737,1,0.623431000043638
110,39,3,categorization,0,bathroom,SHINEd_sun_asfwthctfqerjvxr.tif,49,0.05,0.05,0.0833333333333333,1.83333333333333,953160.3439423,953160.9611609,70,953160.3967099,953160.4466784,953160.5292924,953160.9664806,953162.798163,1,0.61721860000398
110,40,3,categorization,0,bathroom,SHINEd_sun_aoybiabnpadelefl.tif,41,0.05,0.05,0.0833333333333333,0.983333333333333,953162.8027839,953163.5536659,70,953162.8553995,953162.9065784,953162.9894772,953163.5582715,953164.5399413,1,0.750881999963894
110,41,3,categorization,0,bathroom,SHINEd_sun_abapwbhyhkfixyex.tif,15,0.05,0.05,0.0833333333333333,1.91666666666667,953164.54584,953165.5450223,74,953164.5995856,953164.6492947,953164.7315832,953165.551115,953167.4661329,0,0.999182299943641
110,42,3,categorization,0,bathroom,SHINEd_sun_ahaulkltgpkeeemi.tif,25,0.05,0.05,0.0833333333333333,1.15,953167.4710905,953168.0491356,70,953167.5240738,953167.5740511,953167.6567657,953168.0550301,953169.2033687,1,0.578045099973679
110,43,3,categorization,0,kitchen,SHINEd_sun_ahpczsiumwwocjkv.tif,94,0.05,0.05,0.0833333333333333,1.3,953169.2078333,953170.0650564,74,953169.260162,953169.3107768,953169.3934521,953170.0706965,953171.3690334,1,0.857223100028932
110,44,3,categorization,0,kitchen,SHINEd_sun_afuyedyxivkhecmu.tif,87,0.05,0.05,0.0833333333333333,1.66666666666667,953171.3747337,953172.065138,70,953171.427308,953171.4774821,953171.5602846,953172.07126,953173.7362646,0,0.690404299995862
110,45,3,categorization,0,bathroom,SHINEd_sun_abjtwfukuwddzted.tif,16,0.05,0.05,0.0833333333333333,1.66666666666667,953173.740929,953174.6411033,70,953173.7932565,953173.8435325,953173.9275205,953174.6470899,953176.3120943,1,0.900174300069921
110,46,3,categorization,0,kitchen,SHINEd_sun_abftihopvusyfakt.tif,71,0.05,0.05,0.0833333333333333,1.31666666666667,953176.3176987,953177.1210441,74,953176.3700934,953176.4216361,953176.5031845,953177.1268644,953178.4418681,1,0.803345400025137
110,47,3,categorization,0,bathroom,SHINEd_sun_apkxzenqapsujocq.tif,45,0.05,0.05,0.0833333333333333,1.05,953178.4465128,953179.0573636,70,953178.4989502,953178.5495497,953178.632302,953179.0628382,953180.1111745,1,0.610850800061598
110,48,3,categorization,0,kitchen,SHINEd_sun_aypmqwcualkenuoe.tif,108,0.05,0.05,0.0833333333333333,1.15,953180.1160668,953180.9690879,74,953180.1701955,953180.2193315,953180.3017934,953180.9747456,953182.1230892,1,0.853021100047044
110,49,3,categorization,0,kitchen,SHINEd_sun_ayqymgxqhxxiykiw.tif,109,0.05,0.05,0.0833333333333333,0.716666666666667,953182.1276541,953182.8256354,74,953182.1799617,953182.2304639,953182.3134638,953182.830727,953183.5457322,1,0.697981300065294
110,50,3,categorization,0,kitchen,SHINEd_sun_ahljzhgcdpomplvg.tif,93,0.05,0.05,0.0833333333333333,1.98333333333333,953183.5505621,953184.4095888,74,953183.6031088,953183.6533961,953183.7364879,953184.4142056,953186.3958753,1,0.859026700025424
110,1,4,categorization,0,kitchen,SHINEd_labelme_rykdqxenmhulbdn.tif,63,0.05,0.05,0.0833333333333333,1.16666666666667,953191.0466541,953191.6495969,74,953191.0991509,953191.1494135,953191.2322344,953191.6545801,953192.8196276,1,0.602942800032906
110,2,4,categorization,0,kitchen,SHINEd_sun_aamedkxepzlwuxes.tif,65,0.05,0.05,0.0833333333333333,0.866666666666667,953192.8247779,953193.4096075,74,953192.8773913,953192.9276411,953193.0104375,953193.4141668,953194.2791712,1,0.584829599945806
110,3,4,categorization,0,kitchen,SHINEd_sun_acxkpeoqbwcxfvip.tif,77,0.05,0.05,0.0833333333333333,1.4,953194.2837043,953194.849777,74,953194.3360971,953194.3866762,953194.4694517,953194.8547385,953196.253085,1,0.56607270007953
110,4,4,categorization,0,kitchen,SHINEd_sun_aexklacwqwezaorf.tif,86,0.05,0.05,0.0833333333333333,1.03333333333333,953196.257963,953196.8257432,74,953196.3101002,953196.360804,953196.4438133,953196.8310187,953197.8626893,1,0.567780200042762
110,5,4,categorization,0,bathroom,SHINEd_sun_axxbkopsgyouuebh.tif,58,0.05,0.05,0.0833333333333333,1.06666666666667,953197.8686362,953198.417068,70,953197.9206024,953197.9712306,953198.0546372,953198.4221004,953199.4871683,1,0.54843179997988
110,6,4,categorization,0,bathroom,SHINEd_sun_aavhrsfjbserjtht.tif,14,0.05,0.05,0.0833333333333333,1.66666666666667,953199.4918972,953200.1210853,70,953199.5445417,953199.5952283,953199.6776466,953200.1267691,953201.7917726,1,0.629188099992462
110,7,4,categorization,0,kitchen,SHINEd_sun_agzzivivdpnawacl.tif,91,0.05,0.05,0.0833333333333333,0.816666666666667,953201.7975107,953202.665616,70,953201.8498875,953201.9003072,953201.9831949,953202.6702115,953203.485217,0,0.868105300003663
110,8,4,categorization,0,bathroom,SHINEd_sun_amzlamotzwfkwjco.tif,37,0.05,0.05,0.0833333333333333,0.8,953203.4902048,953204.321602,74,953203.542421,953203.5930331,953203.6757787,953204.3267705,953205.1251084,0,0.831397200003266
110,9,4,categorization,0,kitchen,SHINEd_sun_aegoxogugdkwpmpj.tif,81,0.05,0.05,0.0833333333333333,1.73333333333333,953205.1303351,953205.9458403,74,953205.1830607,953205.2331603,953205.3158614,953205.9509608,953207.6826311,1,0.815505199949257
110,10,4,categorization,0,bathroom,SHINEd_sun_aunuadmjocsddsrl.tif,52,0.05,0.05,0.0833333333333333,1.23333333333333,953207.6870318,953208.6010194,70,953207.739674,953207.7896915,953207.8726973,953208.6068104,953209.8384807,1,0.913987600011751
110,11,4,categorization,0,bathroom,SHINEd_sun_agrwbmhcpmfuwmsg.tif,23,0.05,0.05,0.0833333333333333,1.86666666666667,953209.8433015,953210.5699079,70,953209.8959787,953209.9461702,953210.0288352,953210.5751573,953212.4401622,1,0.72660639998503
110,12,4,categorization,0,bathroom,SHINEd_sun_afcoljnjfoxjtgja.tif,20,0.05,0.05,0.0833333333333333,1.23333333333333,953212.4447868,953213.7690468,70,953212.4986454,953212.5476651,953212.6301232,953213.7742371,953215.0059081,1,1.32426000002306
110,13,4,categorization,0,kitchen,SHINEd_sun_abpwyqmlzafvklqo.tif,72,0.05,0.05,0.0833333333333333,1.96666666666667,953215.0104146,953215.8491068,74,953215.0629079,953215.1148407,953215.1961942,953215.8545251,953217.819529,1,0.838692200020887
110,14,4,categorization,0,bathroom,SHINEd_sun_aljolscmmzydegqp.tif,32,0.05,0.05,0.0833333333333333,1.55,953217.8261902,953218.5370716,70,953217.8785747,953217.9299404,953218.0116735,953218.5425918,953220.0909297,1,0.710881399922073
110,15,4,categorization,0,bathroom,SHINEd_sun_apynckhmoftszqoq.tif,47,0.05,0.05,0.0833333333333333,0.933333333333333,953220.0956554,953221.1371065,70,953220.1481147,953220.1984753,953220.2810591,953221.1432772,953222.0749493,1,1.04145110002719
110,16,4,categorization,0,bathroom,SHINEd_sun_acgyywnybuveqsro.tif,18,0.05,0.05,0.0833333333333333,0.866666666666667,953222.0798258,953222.9218985,70,953222.1323127,953222.1826855,953222.2649677,953222.9268685,953223.7918743,1,0.84207269991748
110,17,4,categorization,0,kitchen,SHINEd_sun_adcrxklhlbwrbkgm.tif,78,0.05,0.05,0.0833333333333333,0.8,953223.7967275,953224.4890545,74,953223.8490966,953223.899936,953223.9823802,953224.4947976,953225.2931341,1,0.692326999967918
110,18,4,categorization,0,bathroom,SHINEd_labelme_sfxiulhjbhlyiyt.tif,11,0.05,0.05,0.0833333333333333,0.916666666666667,953225.2979646,953226.2570722,74,953225.3518935,953225.4008251,953225.4839238,953226.2630789,953227.1780826,0,0.959107599919662
110,19,4,categorization,0,bathroom,SHINEd_sun_acduarbnmmoglmiv.tif,17,0.05,0.05,0.0833333333333333,1.05,953227.1842221,953228.0171058,70,953227.2373302,953227.2874695,953227.3715662,953228.0227355,953229.0710729,1,0.832883700029925
110,20,4,categorization,0,bathroom,SHINEd_sun_aghyqhbptboemmoq.tif,22,0.05,0.05,0.0833333333333333,1.43333333333333,953229.0756285,953229.9536804,74,953229.1283848,953229.178582,953229.2607186,953229.9581111,953231.3897831,0,0.878051900072023
110,21,4,categorization,0,kitchen,SHINEd_sun_acfmftudsenhrfhy.tif,74,0.05,0.05,0.0833333333333333,1.1,953231.3946952,953232.0415466,74,953231.4486289,953231.4975139,953231.5803766,953232.046211,953233.1445488,1,0.646851400029846
110,22,4,categorization,0,bathroom,SHINEd_sun_apkruvsevgegsdwp.tif,44,0.05,0.05,0.0833333333333333,1.85,953233.1493909,953233.9530278,70,953233.2019732,953233.2519816,953233.3351385,953233.9592455,953235.8075828,1,0.803636899916455
110,23,4,categorization,0,kitchen,SHINEd_sun_aenotlpyftoioydp.tif,84,0.05,0.05,0.0833333333333333,1.73333333333333,953235.8134528,953236.5217259,74,953235.8674828,953235.9160974,953235.9990163,953236.527221,953238.2588923,1,0.70827309996821
110,24,4,categorization,0,kitchen,SHINEd_sun_abdxkyyxwfskuaqb.tif,70,0.05,0.05,0.0833333333333333,1.16666666666667,953238.2635042,953239.1296514,74,953238.3159574,953238.3674479,953238.4500119,953239.1341548,953240.2991645,1,0.866147199994884
110,25,4,categorization,0,kitchen,SHINEd_sun_acwjdupvyjsugpay.tif,76,0.05,0.05,0.0833333333333333,1.86666666666667,953240.3042769,953241.289817,70,953240.3567116,953240.4071438,953240.4900239,953241.295223,953243.1602269,0,0.985540100024082
110,26,4,categorization,0,bathroom,SHINEd_sun_ahcvzmoyaycdoftf.tif,26,0.05,0.05,0.0833333333333333,1.88333333333333,953243.1648631,953243.7140848,70,953243.2173605,953243.2677225,953243.3504143,953243.7186935,953245.6003642,1,0.549221699940972
110,27,4,categorization,0,kitchen,SHINEd_sun_aapllqyqlykszopd.tif,66,0.05,0.05,0.0833333333333333,1.81666666666667,953245.6051873,953246.2890195,74,953245.6574776,953245.7079769,953245.7910062,953246.2947181,953248.1097239,1,0.683832200011238
110,28,4,categorization,0,bathroom,SHINEd_sun_axyrejkiiaqiurjk.tif,59,0.05,0.05,0.0833333333333333,0.866666666666667,953248.1148247,953249.0811797,70,953248.1672589,953248.2177155,953248.300637,953249.0871487,953249.952165,1,0.966354999924079
110,29,4,categorization,0,bathroom,SHINEd_sun_anryaplzeujmzfkd.tif,39,0.05,0.05,0.0833333333333333,0.833333333333333,953249.9569368,953250.8335884,74,953250.009206,953250.0598108,953250.1425274,953250.8384874,953251.6701568,0,0.876651600003242
110,30,4,categorization,0,kitchen,SHINEd_sun_awcpdzzznmweyyhv.tif,105,0.05,0.05,0.0833333333333333,1.31666666666667,953251.674731,953252.3059591,74,953251.7270216,953251.7774744,953251.8602881,953252.3107625,953253.625767,1,0.63122810004279
110,31,4,categorization,0,bathroom,SHINEd_sun_agyqfjcfkdcydepw.tif,24,0.05,0.05,0.0833333333333333,1.93333333333333,953253.6309957,953254.4650988,70,953253.6832946,953253.7334538,953253.8169324,953254.4703133,953256.4019854,1,0.834103100001812
110,32,4,categorization,0,kitchen,SHINEd_sun_azmutvzbxypaceni.tif,110,0.05,0.05,0.0833333333333333,1.05,953256.406959,953257.177056,74,953256.4594495,953256.5100233,953256.5926368,953257.1830195,953258.2313567,1,0.770096999942325
110,33,4,categorization,0,bathroom,SHINEd_sun_axldvoqbuvuggfmq.tif,57,0.05,0.05,0.0833333333333333,0.9,953258.2362647,953259.0178455,70,953258.2886295,953258.3391672,953258.4233237,953259.0228233,953259.9211611,1,0.781580800074153
110,34,4,categorization,0,kitchen,SHINEd_sun_aarfiyshqohlwkmo.tif,67,0.05,0.05,0.0833333333333333,0.816666666666667,953259.925686,953260.8170713,70,953259.9796346,953260.0294725,953260.1113192,953260.8229232,953261.6379276,0,0.891385299968533
110,35,4,categorization,0,bathroom,SHINEd_sun_azqyogdvyhahyram.tif,60,0.05,0.05,0.0833333333333333,0.966666666666667,953261.6423429,953262.4970773,70,953261.6943978,953261.7451623,953261.8280448,953262.503049,953263.4680528,1,0.854734399938025
110,36,4,categorization,0,bathroom,SHINEd_sun_ahijqszoswveeyji.tif,27,0.05,0.05,0.0833333333333333,1.28333333333333,953263.4729189,953264.2970603,70,953263.5252382,953263.5755983,953263.6588176,953264.3030907,953265.5847608,1,0.824141400051303
110,37,4,categorization,0,bathroom,SHINEd_sun_aapitsgbtktqubfy.tif,13,0.05,0.05,0.0833333333333333,0.95,953265.5892543,953266.2177149,70,953265.6413715,953265.6916926,953265.7753086,953266.2222955,953267.1706323,1,0.628460600040853
110,38,4,categorization,0,bathroom,SHINEd_sun_ahqjwnzgolcaoidx.tif,28,0.05,0.05,0.0833333333333333,1.61666666666667,953267.175423,953267.9050713,70,953267.2276069,953267.2783523,953267.3608922,953267.910384,953269.5253871,1,0.729648299980909
110,39,4,categorization,0,kitchen,SHINEd_sun_akcjzhbbjlbogpdi.tif,98,0.05,0.05,0.0833333333333333,0.766666666666667,953269.5297354,953270.2490717,74,953269.5824996,953269.6325147,953269.7155274,953270.2544648,953271.0194698,1,0.719336300040595
110,40,4,categorization,0,kitchen,SHINEd_sun_agorklincwxrdtga.tif,89,0.05,0.05,0.0833333333333333,1.55,953271.023988,953271.849869,74,953271.076651,953271.1264831,953271.2095499,953271.8550726,953273.4034095,1,0.825881000026129
110,41,4,categorization,0,kitchen,SHINEd_sun_aymvwlarqodbwuoc.tif,107,0.05,0.05,0.0833333333333333,1.9,953273.4080554,953274.0898245,70,953273.4602381,953273.5113883,953273.5940651,953274.0948584,953275.9931957,0,0.681769100017846
110,42,4,categorization,0,bathroom,SHINEd_sun_aclfzgynxzxlbepz.tif,19,0.05,0.05,0.0833333333333333,1.21666666666667,953275.9980656,953276.6810492,70,953276.0502978,953276.1006707,953276.1837875,953276.6865519,953277.9015573,1,0.682983599952422
110,43,4,categorization,0,bathroom,SHINEd_sun_aamrfepkhweyewue.tif,12,0.05,0.05,0.0833333333333333,1.33333333333333,953277.9061014,953278.6490774,70,953277.9583886,953278.0103967,953278.0925653,953278.655004,953279.986675,1,0.742975999950431
110,44,4,categorization,0,bathroom,SHINEd_sun_atstyziqcmkahyxk.tif,51,0.05,0.05,0.0833333333333333,1.2,953279.9918192,953280.7377635,70,953280.0445295,953280.0959903,953280.1779149,953280.7431343,953281.9414711,1,0.74594429996796
110,45,4,categorization,0,bathroom,SHINEd_sun_aleqenyvunhactkl.tif,31,0.05,0.05,0.0833333333333333,1.2,953281.9459957,953282.8490984,70,953281.9983747,953282.0504045,953282.1328883,953282.8546463,953284.0529839,1,0.903102700016461
110,46,4,categorization,0,kitchen,SHINEd_labelme_brsyyvweiuaazfr.tif,61,0.05,0.05,0.0833333333333333,0.75,953284.0576649,953284.7779005,74,953284.1099692,953284.1602562,953284.2442565,953284.7823695,953285.5307071,1,0.720235600019805
110,47,4,categorization,0,kitchen,SHINEd_sun_ajkqhtgcbgpcwrwn.tif,97,0.05,0.05,0.0833333333333333,1.6,953285.53684,953286.2410633,74,953285.5900954,953285.6392582,953285.7224921,953286.2469463,953287.8452846,1,0.70422330009751
110,48,4,categorization,0,kitchen,SHINEd_sun_aehawpgmrlhlvcow.tif,82,0.05,0.05,0.0833333333333333,1.88333333333333,953287.8500139,953288.4970506,74,953287.9027357,953287.9536107,953288.0371706,953288.5020684,953290.3837396,1,0.647036700043827
110,49,4,categorization,0,bathroom,SHINEd_sun_apmqjbnwghzuhhzh.tif,46,0.05,0.05,0.0833333333333333,1.2,953290.3880764,953291.0569264,70,953290.4404414,953290.4907544,953290.5737856,953291.0624904,953292.2608291,1,0.668850000016391
110,50,4,categorization,0,kitchen,SHINEd_sun_abdenxonkemggwsq.tif,69,0.05,0.05,0.0833333333333333,1.43333333333333,953292.2655336,953292.9769923,74,953292.3179172,953292.3685045,953292.4511651,953292.9828441,953294.4145153,1,0.711458700010553
110,1,5,categorization,0,bathroom,SHINEd_sun_amzlamotzwfkwjco.tif,37,0.05,0.05,0.0833333333333333,1.38333333333333,953299.3556028,953300.5138844,74,953299.4080836,953299.4590671,953299.5411754,953300.5186591,953301.9003308,0,1.15828159998637
110,2,5,categorization,0,kitchen,SHINEd_sun_azmutvzbxypaceni.tif,110,0.05,0.05,0.0833333333333333,1.56666666666667,953301.9050337,953302.7689815,74,953301.9591437,953302.0079255,953302.0907816,953302.774395,953304.3393987,1,0.863947799894959
110,3,5,categorization,0,kitchen,SHINEd_sun_ayqymgxqhxxiykiw.tif,109,0.05,0.05,0.0833333333333333,1.53333333333333,953304.3444093,953305.0170716,74,953304.3982123,953304.4475073,953304.5304439,953305.0230206,953306.5546907,1,0.672662299941294
110,4,5,categorization,0,kitchen,SHINEd_sun_aunzlwrbjumxhwdj.tif,102,0.05,0.05,0.0833333333333333,1.21666666666667,953306.559583,953307.2970576,74,953306.6118889,953306.6619791,953306.7452584,953307.3031954,953308.5182001,1,0.737474599969573
110,5,5,categorization,0,kitchen,SHINEd_labelme_rykdqxenmhulbdn.tif,63,0.05,0.05,0.0833333333333333,0.916666666666667,953308.5230059,953309.2329774,74,953308.5765224,953308.6266746,953308.7102234,953309.238515,953310.1535194,1,0.709971499978565
110,6,5,categorization,0,kitchen,SHINEd_sun_aeqdocilnnpuvuhx.tif,85,0.05,0.05,0.0833333333333333,0.75,953310.1597834,953311.0737268,74,953310.2126011,953310.2625033,953310.3454744,953311.0793294,953311.8276663,1,0.913943400024436
110,7,5,categorization,0,kitchen,SHINEd_sun_agubuxuukhzyzpdp.tif,90,0.05,0.05,0.0833333333333333,1.3,953311.8330836,953312.7530809,74,953311.8867393,953311.9359277,953312.0187557,953312.7586796,953314.0570182,1,0.919997299904935
110,8,5,categorization,0,kitchen,SHINEd_sun_aenotlpyftoioydp.tif,84,0.05,0.05,0.0833333333333333,0.983333333333333,953314.0618664,953314.8177545,74,953314.1140347,953314.1645117,953314.248222,953314.8226963,953315.804368,1,0.755888100015
110,9,5,categorization,0,kitchen,SHINEd_labelme_brsyyvweiuaazfr.tif,61,0.05,0.05,0.0833333333333333,1.53333333333333,953315.8088833,953317.0650538,74,953315.86131,953315.9116314,953315.9945437,953317.0705664,953318.6022428,1,1.25617049995344
110,10,5,categorization,0,bathroom,SHINEd_sun_agguqiubmwhqqunb.tif,21,0.05,0.05,0.0833333333333333,1.21666666666667,953318.6086971,953319.6330227,74,953318.6610296,953318.7127192,953318.7943776,953319.6387776,953320.853781,0,1.02432560001034
110,11,5,categorization,0,kitchen,SHINEd_sun_aamedkxepzlwuxes.tif,65,0.05,0.05,0.0833333333333333,1.71666666666667,953320.858838,953321.6737786,74,953320.9112035,953320.9626328,953321.0455458,953321.6783408,953323.3933831,1,0.814940599957481
110,12,5,categorization,0,bathroom,SHINEd_sun_abjtwfukuwddzted.tif,16,0.05,0.05,0.0833333333333333,1.45,953323.3986262,953324.5777667,74,953323.4512605,953323.5026667,953323.5842989,953324.5826237,953326.0309615,0,1.17914049990941
110,13,5,categorization,0,bathroom,SHINEd_sun_apynckhmoftszqoq.tif,47,0.05,0.05,0.0833333333333333,1.06666666666667,953326.0358312,953326.6089781,70,953326.0882179,953326.1386235,953326.2215498,953326.6146041,953327.6796079,1,0.573146900045685
110,14,5,categorization,0,kitchen,SHINEd_sun_aymvwlarqodbwuoc.tif,107,0.05,0.05,0.0833333333333333,1.38333333333333,953327.6840209,953328.3614203,74,953327.7381309,953327.7882224,953327.8699606,953328.3660131,953329.7476837,1,0.677399399923161
110,15,5,categorization,0,bathroom,SHINEd_sun_agrwbmhcpmfuwmsg.tif,23,0.05,0.05,0.0833333333333333,0.85,953329.7527128,953330.3693554,70,953329.8066096,953329.8556613,953329.9384927,953330.3746866,953331.2230235,1,0.616642599925399
110,16,5,categorization,0,kitchen,SHINEd_sun_admlmbcdswaszruo.tif,80,0.05,0.05,0.0833333333333333,1.75,953331.2277448,953331.9370478,74,953331.2801964,953331.3320598,953331.4135836,953331.9426411,953333.6909794,1,0.70930300001055
110,17,5,categorization,0,kitchen,SHINEd_sun_acxkpeoqbwcxfvip.tif,77,0.05,0.05,0.0833333333333333,0.7,953333.6958402,953334.4256804,74,953333.749691,953333.7989754,953333.8813969,953334.4303489,953335.1286869,1,0.729840200045146
110,18,5,categorization,0,bathroom,SHINEd_sun_alkosphxlxwjwgjd.tif,33,0.05,0.05,0.0833333333333333,1.18333333333333,953335.1336218,953335.7930506,70,953335.1861877,953335.2367077,953335.3192356,953335.7990352,953336.9807057,1,0.659428799990565
110,19,5,categorization,0,bathroom,SHINEd_sun_apkxzenqapsujocq.tif,45,0.05,0.05,0.0833333333333333,0.766666666666667,953336.9868731,953337.537665,70,953337.0397295,953337.0894908,953337.1727517,953337.5427044,953338.3077074,1,0.550791899906471
110,20,5,categorization,0,bathroom,SHINEd_sun_axldvoqbuvuggfmq.tif,57,0.05,0.05,0.0833333333333333,1.5,953338.3127021,953339.0090177,70,953338.3650743,953338.415127,953338.4983819,953339.0149546,953340.5132921,1,0.696315599954687
110,21,5,categorization,0,kitchen,SHINEd_sun_ahpczsiumwwocjkv.tif,94,0.05,0.05,0.0833333333333333,0.783333333333333,953340.5175825,953341.2570692,74,953340.5710002,953340.6200289,953340.7047459,953341.2626405,953342.0443105,1,0.739486700040288
110,22,5,categorization,0,bathroom,SHINEd_sun_apmqjbnwghzuhhzh.tif,46,0.05,0.05,0.0833333333333333,1.35,953342.0490176,953342.625475,70,953342.1011088,953342.1518876,953342.2346994,953342.6305552,953343.978892,1,0.576457399991341
110,23,5,categorization,0,kitchen,SHINEd_sun_acgtpgfybqjmzeyw.tif,75,0.05,0.05,0.0833333333333333,0.966666666666667,953343.9833863,953344.857052,74,953344.0358682,953344.087308,953344.1701338,953344.862842,953345.827847,1,0.873665699968114
110,24,5,categorization,0,bathroom,SHINEd_sun_aljolscmmzydegqp.tif,32,0.05,0.05,0.0833333333333333,0.85,953345.8340817,953346.4096883,70,953345.8865078,953345.9369653,953346.0202415,953346.4146754,953347.2630126,1,0.575606600032188
110,25,5,categorization,0,kitchen,SHINEd_sun_abftihopvusyfakt.tif,71,0.05,0.05,0.0833333333333333,1.1,953347.2678409,953348.0738904,74,953347.3202939,953347.3708024,953347.4535726,953348.0792619,953349.1776005,1,0.806049500009976
110,26,5,categorization,0,kitchen,SHINEd_sun_ahywdevtimnqcsln.tif,95,0.05,0.05,0.0833333333333333,1.11666666666667,953349.1826435,953349.9935283,74,953349.2346468,953349.286327,953349.3681733,953349.998553,953351.1135576,1,0.810884799924679
110,27,5,categorization,0,bathroom,SHINEd_sun_ajlawzvmubibwbpy.tif,29,0.05,0.05,0.0833333333333333,0.866666666666667,953351.1193673,953351.7210098,70,953351.172073,953351.2221421,953351.3062765,953351.7270277,953352.592032,1,0.601642500027083
110,28,5,categorization,0,bathroom,SHINEd_sun_ahcvzmoyaycdoftf.tif,26,0.05,0.05,0.0833333333333333,1.73333333333333,953352.5968596,953353.217749,70,953352.6503034,953352.6994299,953352.7826566,953353.2230244,953354.9546942,1,0.62088939989917
110,29,5,categorization,0,bathroom,SHINEd_sun_agyqfjcfkdcydepw.tif,24,0.05,0.05,0.0833333333333333,1.46666666666667,953354.9603189,953355.6496503,70,953355.0129935,953355.0629349,953355.1471913,953355.6542668,953357.1192704,1,0.68933140009176
110,30,5,categorization,0,bathroom,SHINEd_sun_aqrpegblszgcoujh.tif,48,0.05,0.05,0.0833333333333333,1.15,953357.1245766,953357.6890115,70,953357.1771446,953357.2273534,953357.3108898,953357.6949927,953358.8433303,1,0.564434899948537
110,31,5,categorization,0,kitchen,SHINEd_sun_amjjdeyrggfqgmom.tif,99,0.05,0.05,0.0833333333333333,1.2,953358.8480027,953359.60168,74,953358.9001703,953358.9512557,953359.0340538,953359.6070663,953360.8054048,1,0.753677299944684
110,32,5,categorization,0,kitchen,SHINEd_sun_abdxkyyxwfskuaqb.tif,70,0.05,0.05,0.0833333333333333,0.716666666666667,953360.809833,953361.8178153,70,953360.862561,953360.9127881,953360.9959805,953361.8224753,953362.5374804,0,1.00798230001237
110,33,5,categorization,0,bathroom,SHINEd_sun_aamrfepkhweyewue.tif,12,0.05,0.05,0.0833333333333333,0.8,953362.5426161,953363.6730196,70,953362.5954713,953362.6453827,953362.7283238,953363.6788643,953364.4772018,1,1.13040349993389
110,34,5,categorization,0,kitchen,SHINEd_sun_aggjlwcdjsjcaemh.tif,88,0.05,0.05,0.0833333333333333,1.45,953364.4823759,953365.2730412,74,953364.5345436,953364.5852037,953364.6684573,953365.2790229,953366.7273601,1,0.790665299980901
110,35,5,categorization,0,kitchen,SHINEd_sun_aaxxjlsuzvqlgylf.tif,68,0.05,0.05,0.0833333333333333,1.16666666666667,953366.7323173,953367.6170243,74,953366.7847389,953366.8351019,953366.9181746,953367.6221864,953368.7871913,1,0.884706999990158
110,36,5,categorization,0,bathroom,SHINEd_sun_anryaplzeujmzfkd.tif,39,0.05,0.05,0.0833333333333333,1.66666666666667,953368.793365,953369.5375847,70,953368.8460145,953368.8963141,953368.9791875,953369.5426486,953371.2076525,1,0.744219699990936
110,37,5,categorization,0,bathroom,SHINEd_sun_acduarbnmmoglmiv.tif,17,0.05,0.05,0.0833333333333333,0.833333333333333,953371.2123564,953371.8661908,70,953371.2645644,953371.3150829,953371.3994146,953371.8710214,953372.7026916,1,0.653834400000051
110,38,5,categorization,0,bathroom,SHINEd_sun_aoybiabnpadelefl.tif,41,0.05,0.05,0.0833333333333333,1.33333333333333,953372.7072567,953373.3851089,70,953372.7595919,953372.8099544,953372.893089,953373.3908119,953374.7224822,1,0.677852199994959
110,39,5,categorization,0,kitchen,SHINEd_sun_ahljzhgcdpomplvg.tif,93,0.05,0.05,0.0833333333333333,1.31666666666667,953374.7276484,953375.3369718,70,953374.781075,953374.8300329,953374.9131461,953375.3428683,953376.6578737,0,0.609323399956338
110,40,5,categorization,0,bathroom,SHINEd_sun_ahqjwnzgolcaoidx.tif,28,0.05,0.05,0.0833333333333333,1.65,953376.6627344,953377.4175696,70,953376.715345,953376.765399,953376.8479395,953377.4221744,953379.0705123,1,0.754835200030357
110,41,5,categorization,0,kitchen,SHINEd_sun_acwjdupvyjsugpay.tif,76,0.05,0.05,0.0833333333333333,1.28333333333333,953379.0748596,953379.8329967,74,953379.1290765,953379.1782764,953379.26029,953379.8391204,953381.12079,1,0.758137099910527
110,42,5,categorization,0,kitchen,SHINEd_sun_agzzivivdpnawacl.tif,91,0.05,0.05,0.0833333333333333,1.38333333333333,953381.1254049,953381.9778101,74,953381.1777402,953381.2291527,953381.3109836,953381.9831873,953383.364857,1,0.852405199897476
110,43,5,categorization,0,bathroom,SHINEd_sun_apkruvsevgegsdwp.tif,44,0.05,0.05,0.0833333333333333,0.7,953383.3693755,953384.2489429,70,953383.4215817,953383.4717249,953383.5548342,953384.2545489,953384.9528877,1,0.879567399970256
110,44,5,categorization,0,bathroom,SHINEd_sun_abapwbhyhkfixyex.tif,15,0.05,0.05,0.0833333333333333,1.18333333333333,953384.9584761,953385.9289324,74,953385.011439,953385.0611612,953385.1440607,953385.9343482,953387.1160183,0,0.970456299954094
110,45,5,categorization,0,bathroom,SHINEd_sun_ammzpemadwrjdfzl.tif,36,0.05,0.05,0.0833333333333333,1,953387.1205378,953387.865017,70,953387.1729552,953387.2231577,953387.3060403,953387.8702911,953388.8686303,1,0.744479199987836
110,46,5,categorization,0,bathroom,SHINEd_labelme_sfxiulhjbhlyiyt.tif,11,0.05,0.05,0.0833333333333333,1.85,953388.8735616,953389.5934182,70,953388.9259952,953388.9765288,953389.0592042,953389.5979378,953391.4462768,1,0.719856600044295
110,47,5,categorization,0,bathroom,SHINEd_sun_aunuadmjocsddsrl.tif,52,0.05,0.05,0.0833333333333333,1.91666666666667,953391.4507199,953392.2419438,70,953391.5031177,953391.5533892,953391.6357511,953392.246857,953394.1618618,1,0.791223900043406
110,48,5,categorization,0,kitchen,SHINEd_sun_avszsnwsbuqfgzbn.tif,104,0.05,0.05,0.0833333333333333,1.28333333333333,953394.1664254,953394.8810225,74,953394.2188641,953394.2691421,953394.3523809,953394.886608,953396.1682795,1,0.714597100042738
110,49,5,categorization,0,bathroom,SHINEd_sun_azqyogdvyhahyram.tif,60,0.05,0.05,0.0833333333333333,0.75,953396.1730352,953396.9770046,70,953396.2273788,953396.2762489,953396.35909,953396.9825232,953397.73086,1,0.803969400003552
110,50,5,categorization,0,bathroom,SHINEd_sun_aclfzgynxzxlbepz.tif,19,0.05,0.05,0.0833333333333333,1.43333333333333,953397.7350413,953398.4409625,70,953397.7874495,953397.8378119,953397.9206601,953398.4472643,953399.8789464,1,0.705921200104058
110,1,6,categorization,0,bathroom,SHINEd_sun_aleqenyvunhactkl.tif,31,0.05,0.05,0.0833333333333333,0.983333333333333,953405.7107057,953406.4489697,70,953405.762998,953405.8134764,953405.896444,953406.4540868,953407.4357566,1,0.738264000043273
110,2,6,categorization,0,kitchen,SHINEd_sun_aeikbkmhphqzxdkv.tif,83,0.05,0.05,0.0833333333333333,1.05,953407.439928,953408.441253,74,953407.4923384,953407.5426466,953407.6257207,953408.4463371,953409.4946732,1,1.00132500007749
110,3,6,categorization,0,bathroom,SHINEd_sun_axyrejkiiaqiurjk.tif,59,0.05,0.05,0.0833333333333333,0.983333333333333,953409.4992578,953410.3613443,70,953409.5515267,953409.6020314,953409.6861786,953410.3664993,953411.3481705,1,0.862086499924771
110,4,6,categorization,0,bathroom,SHINEd_sun_ausgutylgojavyoq.tif,53,0.05,0.05,0.0833333333333333,1.1,953411.3532112,953412.1048435,70,953411.4054462,953411.4558957,953411.5390163,953412.1106617,953413.2089986,1,0.751632299972698
110,5,6,categorization,0,kitchen,SHINEd_sun_ajkqhtgcbgpcwrwn.tif,97,0.05,0.05,0.0833333333333333,1.38333333333333,953413.2149661,953414.1537475,74,953413.2686373,953413.3177846,953413.400905,953414.1587068,953415.5403782,1,0.93878140009474
110,6,6,categorization,0,kitchen,SHINEd_sun_abpwyqmlzafvklqo.tif,72,0.05,0.05,0.0833333333333333,1.53333333333333,953415.5448735,953416.1936821,74,953415.5970665,953415.6475287,953415.7307629,953416.1986773,953417.730348,1,0.648808600031771
110,7,6,categorization,0,bathroom,SHINEd_sun_ahijqszoswveeyji.tif,27,0.05,0.05,0.0833333333333333,1.46666666666667,953417.7348408,953418.5857477,70,953417.7875873,953417.8377568,953417.9208844,953418.5907955,953420.0558005,1,0.850906899897382
110,8,6,categorization,0,kitchen,SHINEd_sun_abrcnpqqhmjwekyf.tif,73,0.05,0.05,0.0833333333333333,1.21666666666667,953420.0611804,953421.0969441,74,953420.1150444,953420.1637822,953420.2478783,953421.1028086,953422.3178115,1,1.03576370002702
110,9,6,categorization,0,kitchen,SHINEd_sun_aapllqyqlykszopd.tif,66,0.05,0.05,0.0833333333333333,1.58333333333333,953422.3225471,953423.0656132,74,953422.3749735,953422.4253443,953422.5082277,953423.0706028,953424.6522767,1,0.743066099938005
110,10,6,categorization,0,kitchen,SHINEd_sun_adgqasybjyktddhj.tif,79,0.05,0.05,0.0833333333333333,1.85,953424.6573767,953425.393564,74,953424.7103133,953424.7604657,953424.8443435,953425.3983414,953427.2466791,1,0.736187300062738
110,11,6,categorization,0,bathroom,SHINEd_sun_atstyziqcmkahyxk.tif,51,0.05,0.05,0.0833333333333333,0.883333333333333,953427.2517053,953427.8499272,70,953427.3052974,953427.3555197,953427.4370403,953427.854633,953428.7363046,1,0.598221900057979
110,12,6,categorization,0,bathroom,SHINEd_sun_akiytfaagpdsphgz.tif,30,0.05,0.05,0.0833333333333333,0.966666666666667,953428.7422912,953429.4489281,70,953428.7946846,953428.8453772,953428.9282895,953429.4544937,953430.4194987,1,0.706636900082231
110,13,6,categorization,0,bathroom,SHINEd_sun_awnqiikzaispgmwo.tif,56,0.05,0.05,0.0833333333333333,1.51666666666667,953430.4247913,953431.1370127,70,953430.4770038,953430.5283865,953430.6106698,953431.1430447,953432.6580503,1,0.712221399997361
110,14,6,categorization,0,bathroom,SHINEd_sun_axxbkopsgyouuebh.tif,58,0.05,0.05,0.0833333333333333,1.6,953432.6625148,953433.2901236,70,953432.7158049,953432.7666403,953432.8493243,953433.2949263,953434.8932628,1,0.627608800074086
110,15,6,categorization,0,kitchen,SHINEd_sun_agorklincwxrdtga.tif,89,0.05,0.05,0.0833333333333333,0.716666666666667,953434.8982554,953435.5935096,74,953434.9509663,953435.0014913,953435.0840782,953435.5985617,953436.3135645,1,0.695254200021736
110,16,6,categorization,0,bathroom,SHINEd_sun_apjevzvycyhuqghb.tif,43,0.05,0.05,0.0833333333333333,0.85,953436.3181462,953437.1689236,74,953436.3705956,953436.4209694,953436.5039242,953437.1745251,953438.0228634,0,0.850777399959043
110,17,6,categorization,0,bathroom,SHINEd_sun_aofnryafpsjimzsb.tif,40,0.05,0.05,0.0833333333333333,1.13333333333333,953438.0278727,953438.7210143,70,953438.0802445,953438.1308215,953438.2136244,953438.7267609,953439.8584308,1,0.693141600000672
110,18,6,categorization,0,kitchen,SHINEd_sun_afuyedyxivkhecmu.tif,87,0.05,0.05,0.0833333333333333,1.03333333333333,953439.8639381,953441.057612,74,953439.9159626,953439.966631,953440.0499671,953441.0629075,953442.0945774,1,1.19367389997933
110,19,6,categorization,0,bathroom,SHINEd_sun_anhioqovhscjqqwb.tif,38,0.05,0.05,0.0833333333333333,1.05,953442.100294,953442.7610037,70,953442.1528047,953442.2042425,953442.2869287,953442.7666321,953443.8149691,1,0.660709699965082
110,20,6,categorization,0,bathroom,SHINEd_sun_ahaulkltgpkeeemi.tif,25,0.05,0.05,0.0833333333333333,1.93333333333333,953443.8196028,953444.601684,70,953443.872033,953443.9226307,953444.0052891,953444.6069125,953446.5385835,1,0.78208120004274
110,21,6,categorization,0,bathroom,SHINEd_sun_asfwthctfqerjvxr.tif,49,0.05,0.05,0.0833333333333333,1.41666666666667,953446.5435423,953447.4329888,70,953446.5959913,953446.6462766,953446.7292149,953447.4391627,953448.8541674,1,0.889446499990299
110,22,6,categorization,0,kitchen,SHINEd_sun_acfmftudsenhrfhy.tif,74,0.05,0.05,0.0833333333333333,0.75,953448.858829,953449.6330287,74,953448.9111261,953448.9627999,953449.0445239,953449.6385768,953450.3869139,1,0.774199699983001
110,23,6,categorization,0,bathroom,SHINEd_sun_afcoljnjfoxjtgja.tif,20,0.05,0.05,0.0833333333333333,1.15,953450.3911611,953451.3296929,70,953450.4440176,953450.4938882,953450.5768902,953451.3348658,953452.4832042,1,0.938531799940392
110,24,6,categorization,0,kitchen,SHINEd_sun_auticobqsbwgoppi.tif,103,0.05,0.05,0.0833333333333333,0.7,953452.4881759,953453.2409764,74,953452.5403989,953452.5911761,953452.6738141,953453.2468183,953453.9451554,1,0.752800500020385
110,25,6,categorization,0,kitchen,SHINEd_sun_aadbddgrdsjugojn.tif,64,0.05,0.05,0.0833333333333333,1.95,953453.9497809,953454.817711,74,953454.0021388,953454.0526903,953454.1354022,953454.823264,953456.7716007,1,0.867930099950172
110,26,6,categorization,0,kitchen,SHINEd_sun_adcrxklhlbwrbkgm.tif,78,0.05,0.05,0.0833333333333333,1.43333333333333,953456.7771195,953457.4975036,74,953456.8302318,953456.8814935,953456.9627984,953457.5024687,953458.9341398,1,0.720384099986404
110,27,6,categorization,0,kitchen,SHINEd_sun_aehawpgmrlhlvcow.tif,82,0.05,0.05,0.0833333333333333,1.13333333333333,953458.9392096,953459.8729693,74,953458.991915,953459.0419827,953459.125505,953459.8787003,953461.0103722,1,0.933759700041264
110,28,6,categorization,0,kitchen,SHINEd_sun_aypmqwcualkenuoe.tif,108,0.05,0.05,0.0833333333333333,1.16666666666667,953461.0149362,953461.8969341,74,953461.0672392,953461.1174053,953461.2000883,953461.903065,953463.068069,1,0.881997899967246
110,29,6,categorization,0,kitchen,SHINEd_sun_axyyrmzcupyhlivc.tif,106,0.05,0.05,0.0833333333333333,1.26666666666667,953463.0728545,953463.913804,74,953463.1253676,953463.1756419,953463.2584423,953463.9188392,953465.1838439,1,0.840949499979615
110,30,6,categorization,0,kitchen,SHINEd_sun_ahdycvpopffkzzsu.tif,92,0.05,0.05,0.0833333333333333,1.61666666666667,953465.188491,953465.9449752,74,953465.2418847,953465.2919529,953465.3744822,953465.9507825,953467.565786,1,0.756484200013801
110,31,6,categorization,0,kitchen,SHINEd_sun_aarfiyshqohlwkmo.tif,67,0.05,0.05,0.0833333333333333,1.66666666666667,953467.5705019,953468.2659395,74,953467.6228395,953467.6732601,953467.7560869,953468.2708351,953469.9358386,1,0.695437599904835
110,32,6,categorization,0,bathroom,SHINEd_sun_apeeialkgkuxddgh.tif,42,0.05,0.05,0.0833333333333333,0.816666666666667,953469.9405355,953470.5529342,70,953469.9941123,953470.043302,953470.1260577,953470.5590548,953471.3740583,1,0.612398700090125
110,33,6,categorization,0,bathroom,SHINEd_sun_aspsyogrekjtfozg.tif,50,0.05,0.05,0.0833333333333333,0.8,953471.3786716,953471.9858835,70,953471.4327317,953471.4816311,953471.5646234,953471.9908061,953472.7891434,1,0.60721189994365
110,34,6,categorization,0,bathroom,SHINEd_sun_aghyqhbptboemmoq.tif,22,0.05,0.05,0.0833333333333333,0.816666666666667,953472.7939548,953473.4422091,70,953472.8463603,953472.897713,953472.9796438,953473.4472742,953474.2622776,1,0.648254300002009
110,35,6,categorization,0,kitchen,SHINEd_sun_awcpdzzznmweyyhv.tif,105,0.05,0.05,0.0833333333333333,1.43333333333333,953474.2669161,953475.3129875,74,953474.319327,953474.3696639,953474.4536987,953475.3185043,953476.7501755,1,1.04607139993459
110,36,6,categorization,0,kitchen,SHINEd_sun_aqeaevwwwjoqhzvl.tif,100,0.05,0.05,0.0833333333333333,1.7,953476.75506,953477.5854014,74,953476.8074048,953476.8578384,953476.9413819,953477.5902169,953479.2885542,1,0.830341399996541
110,37,6,categorization,0,bathroom,SHINEd_sun_acgyywnybuveqsro.tif,18,0.05,0.05,0.0833333333333333,0.716666666666667,953479.293741,953480.0251777,70,953479.3465329,953479.3978443,953479.4796818,953480.030806,953480.7458103,1,0.731436699978076
110,38,6,categorization,0,bathroom,SHINEd_sun_ambriybtogmepttm.tif,35,0.05,0.05,0.0833333333333333,1.08333333333333,953480.7506377,953481.4496039,70,953480.8025641,953480.8536716,953480.9367291,953481.4547274,953482.5364098,1,0.698966199997813
110,39,6,categorization,0,bathroom,SHINEd_sun_aavhrsfjbserjtht.tif,14,0.05,0.05,0.0833333333333333,1.53333333333333,953482.5424966,953483.2169824,70,953482.5953705,953482.6453982,953482.7283067,953483.2219921,953484.7536633,1,0.674485800089315
110,40,6,categorization,0,kitchen,SHINEd_labelme_kxvouciolcpqplr.tif,62,0.05,0.05,0.0833333333333333,1.33333333333333,953484.7585083,953485.682047,74,953484.8107915,953484.861453,953484.9444889,953485.6866782,953487.0183491,1,0.923538700095378
110,41,6,categorization,0,bathroom,SHINEd_sun_auzqhkafidnkrwmo.tif,54,0.05,0.05,0.0833333333333333,0.766666666666667,953487.0238948,953487.6169609,70,953487.076303,953487.1278521,953487.2093585,953487.6227133,953488.3877171,1,0.593066100031137
110,42,6,categorization,0,bathroom,SHINEd_sun_alotolagknyrgtsk.tif,34,0.05,0.05,0.0833333333333333,1.18333333333333,953488.3923105,953489.4729576,74,953488.4449018,953488.4950259,953488.5783323,953489.4787428,953490.6604125,0,1.08064709999599
110,43,6,categorization,0,kitchen,SHINEd_sun_akcjzhbbjlbogpdi.tif,98,0.05,0.05,0.0833333333333333,1.13333333333333,953490.6652522,953491.361518,74,953490.717847,953490.7685154,953490.8510292,953491.3665745,953492.4982465,1,0.696265800041147
110,44,6,categorization,0,bathroom,SHINEd_sun_aapitsgbtktqubfy.tif,13,0.05,0.05,0.0833333333333333,1.48333333333333,953492.5029013,953493.0968944,70,953492.5565038,953492.6054358,953492.6890941,953493.1024662,953494.5841372,1,0.593993099988438
110,45,6,categorization,0,kitchen,SHINEd_sun_aegoxogugdkwpmpj.tif,81,0.05,0.05,0.0833333333333333,1.26666666666667,953494.5893293,953495.3768893,74,953494.6428133,953494.6919453,953494.7752747,953495.3829696,953496.647973,1,0.787559999967925
110,46,6,categorization,0,bathroom,SHINEd_sun_avhrdrntsqrjzccq.tif,55,0.05,0.05,0.0833333333333333,1.51666666666667,953496.6527322,953497.2808659,70,953496.7051254,953496.7557848,953496.8384418,953497.2863634,953498.801367,1,0.628133699996397
110,47,6,categorization,0,kitchen,SHINEd_sun_ajcbwwvdlsvjyzje.tif,96,0.05,0.05,0.0833333333333333,1.36666666666667,953498.8056412,953499.521678,74,953498.8578963,953498.9090068,953498.9923371,953499.5262612,953500.8912668,1,0.716036799945869
110,48,6,categorization,0,kitchen,SHINEd_sun_abdenxonkemggwsq.tif,69,0.05,0.05,0.0833333333333333,0.766666666666667,953500.8966777,953501.5620866,74,953500.9492493,953501.0006871,953501.0834868,953501.5671288,953502.3321323,1,0.665408900007606
110,49,6,categorization,0,kitchen,SHINEd_sun_auaiucuqpdausiva.tif,101,0.05,0.05,0.0833333333333333,1.63333333333333,953502.3365478,953503.1689343,74,953502.389287,953502.4394126,953502.5223213,953503.1750675,953504.8067379,1,0.832386499969289
110,50,6,categorization,0,kitchen,SHINEd_sun_aexklacwqwezaorf.tif,86,0.05,0.05,0.0833333333333333,1.33333333333333,953504.8116994,953505.9049759,74,953504.8657689,953504.9144218,953504.9968305,953505.9104835,953507.2421543,1,1.09327650000341
110,1,7,categorization,0,bathroom,SHINEd_sun_aavhrsfjbserjtht.tif,14,0.05,0.05,0.0833333333333333,1.46666666666667,953552.4935737,953553.2572046,70,953552.5460471,953552.5968281,953552.6802285,953553.2627869,953554.7278,1,0.763630900066346
110,2,7,categorization,0,kitchen,SHINEd_sun_abdenxonkemggwsq.tif,69,0.05,0.05,0.0833333333333333,0.716666666666667,953554.7330539,953555.3375764,74,953554.7855599,953554.8358834,953554.9187092,953555.3423441,953556.0573486,1,0.604522500070743
110,3,7,categorization,0,bathroom,SHINEd_sun_ambriybtogmepttm.tif,35,0.05,0.05,0.0833333333333333,1.95,953556.0620107,953556.7209296,70,953556.1143192,953556.164856,953556.2477552,953556.7267313,953558.6750684,1,0.65891889994964
110,4,7,categorization,0,bathroom,SHINEd_sun_anhioqovhscjqqwb.tif,38,0.05,0.05,0.0833333333333333,1.18333333333333,953558.6797699,953559.3136501,70,953558.7322028,953558.7825067,953558.8653559,953559.319008,953560.5006786,1,0.633880199980922
110,5,7,categorization,0,kitchen,SHINEd_sun_akcjzhbbjlbogpdi.tif,98,0.05,0.05,0.0833333333333333,0.866666666666667,953560.5052356,953561.3689603,74,953560.5587262,953560.6081754,953560.6922129,953561.3750042,953562.2400077,1,0.863724699942395
110,6,7,categorization,0,kitchen,SHINEd_sun_afuyedyxivkhecmu.tif,87,0.05,0.05,0.0833333333333333,1.05,953562.2448503,953563.0255201,70,953562.2973049,953562.3476425,953562.4306914,953563.0304486,953564.0787872,0,0.780669800005853
110,7,7,categorization,0,kitchen,SHINEd_sun_abftihopvusyfakt.tif,71,0.05,0.05,0.0833333333333333,0.716666666666667,953564.0836941,953565.328906,74,953564.1361254,953564.1863716,953564.2691795,953565.3342204,953566.049224,1,1.24521189997904
110,8,7,categorization,0,kitchen,SHINEd_sun_aaxxjlsuzvqlgylf.tif,68,0.05,0.05,0.0833333333333333,1.16666666666667,953566.0538248,953566.7848721,74,953566.1065409,953566.1563854,953566.2395175,953566.7899102,953567.954914,1,0.731047300039791
110,9,7,categorization,0,kitchen,SHINEd_sun_ahljzhgcdpomplvg.tif,93,0.05,0.05,0.0833333333333333,1.36666666666667,953567.95948,953568.6575706,74,953568.0115724,953568.0625469,953568.1452432,953568.6623798,953570.0273853,1,0.698090600082651
110,10,7,categorization,0,bathroom,SHINEd_sun_ahqjwnzgolcaoidx.tif,28,0.05,0.05,0.0833333333333333,1.2,953570.0316626,953570.5609277,70,953570.0839344,953570.1348458,953570.2175647,953570.5665669,953571.7649053,1,0.529265100019984
110,11,7,categorization,0,bathroom,SHINEd_sun_afcoljnjfoxjtgja.tif,20,0.05,0.05,0.0833333333333333,1.5,953571.7695409,953572.4814756,70,953571.8219602,953571.8739171,953571.9556427,953572.4863673,953573.9847053,1,0.711934700026177
110,12,7,categorization,0,kitchen,SHINEd_sun_ajkqhtgcbgpcwrwn.tif,97,0.05,0.05,0.0833333333333333,1.66666666666667,953573.9892051,953574.6815604,74,953574.0415095,953574.0928891,953574.1764459,953574.6861306,953576.3511349,1,0.692355299950577
110,13,7,categorization,0,kitchen,SHINEd_sun_acgtpgfybqjmzeyw.tif,75,0.05,0.05,0.0833333333333333,1.06666666666667,953576.3570199,953577.0416651,74,953576.4095614,953576.4612039,953576.5438021,953577.046528,953578.1115332,1,0.68464520003181
110,14,7,categorization,0,bathroom,SHINEd_sun_ahaulkltgpkeeemi.tif,25,0.05,0.05,0.0833333333333333,0.716666666666667,953578.116148,953578.7218092,70,953578.168702,953578.2186918,953578.3018073,953578.726665,953579.441669,1,0.605661200010218
110,15,7,categorization,0,kitchen,SHINEd_labelme_rykdqxenmhulbdn.tif,63,0.05,0.05,0.0833333333333333,0.9,953579.4462752,953580.152898,74,953579.4986411,953579.5490145,953579.6319683,953580.1584046,953581.0567424,1,0.706622799974866
110,16,7,categorization,0,kitchen,SHINEd_sun_aqeaevwwwjoqhzvl.tif,100,0.05,0.05,0.0833333333333333,1.2,953581.0624335,953581.7289308,74,953581.1147444,953581.1654325,953581.2479337,953581.7345106,953582.9328476,1,0.666497300029732
110,17,7,categorization,0,kitchen,SHINEd_sun_admlmbcdswaszruo.tif,80,0.05,0.05,0.0833333333333333,1.41666666666667,953582.937616,953583.6336121,74,953582.989908,953583.0404167,953583.1235257,953583.6384649,953585.0534682,1,0.695996100082994
110,18,7,categorization,0,kitchen,SHINEd_sun_adcrxklhlbwrbkgm.tif,78,0.05,0.05,0.0833333333333333,1.01666666666667,953585.0580301,953585.8969082,74,953585.110482,953585.1606857,953585.2440206,953585.9025198,953586.917525,1,0.838878100039437
110,19,7,categorization,0,bathroom,SHINEd_sun_aclfzgynxzxlbepz.tif,19,0.05,0.05,0.0833333333333333,1.35,953586.9224854,953587.6169052,70,953586.9760602,953587.0252581,953587.1101361,953587.6227158,953588.9710603,1,0.69441979995463
110,20,7,categorization,0,kitchen,SHINEd_sun_azmutvzbxypaceni.tif,110,0.05,0.05,0.0833333333333333,0.9,953588.9761793,953589.6649346,74,953589.0284951,953589.0790007,953589.1616909,953589.6705506,953590.5688895,1,0.688755300012417
110,21,7,categorization,0,bathroom,SHINEd_sun_alkosphxlxwjwgjd.tif,33,0.05,0.05,0.0833333333333333,1.4,953590.5737493,953591.2894516,70,953590.6257251,953590.678123,953590.7593048,953591.2940929,953592.6924311,1,0.715702300076373
110,22,7,categorization,0,bathroom,SHINEd_sun_ahijqszoswveeyji.tif,27,0.05,0.05,0.0833333333333333,1.35,953592.6972732,953593.5615691,70,953592.7493057,953592.80068,953592.8828511,953593.5670012,953594.9153384,1,0.864295899984427
110,23,7,categorization,0,bathroom,SHINEd_sun_acduarbnmmoglmiv.tif,17,0.05,0.05,0.0833333333333333,1.03333333333333,953594.9199661,953595.5368568,74,953594.9723419,953595.0231905,953595.1058194,953595.5425124,953596.5741844,0,0.616890699951909
110,24,7,categorization,0,bathroom,SHINEd_sun_amzlamotzwfkwjco.tif,37,0.05,0.05,0.0833333333333333,0.85,953596.5805008,953597.3695406,70,953596.634338,953596.6833703,953596.7656397,953597.3740686,953598.222406,1,0.789039799943566
110,25,7,categorization,0,bathroom,SHINEd_sun_axxbkopsgyouuebh.tif,58,0.05,0.05,0.0833333333333333,1.66666666666667,953598.2268349,953598.881777,70,953598.2791925,953598.329717,953598.412703,953598.8870385,953600.5520436,1,0.654942100052722
110,26,7,categorization,0,bathroom,SHINEd_sun_abapwbhyhkfixyex.tif,15,0.05,0.05,0.0833333333333333,0.833333333333333,953600.556886,953601.3049235,74,953600.6104918,953600.6607399,953600.742589,953601.3109901,953602.1426615,0,0.748037500074133
110,27,7,categorization,0,bathroom,SHINEd_sun_aleqenyvunhactkl.tif,31,0.05,0.05,0.0833333333333333,1.06666666666667,953602.1477896,953602.8648901,70,953602.2003818,953602.2521133,953602.3334586,953602.8700901,953603.9350942,1,0.717100500012748
110,28,7,categorization,0,kitchen,SHINEd_sun_aarfiyshqohlwkmo.tif,67,0.05,0.05,0.0833333333333333,0.883333333333333,953603.9400309,953604.7129139,74,953603.9924845,953604.044085,953604.12581,953604.7178856,953605.5995565,1,0.77288300008513
110,29,7,categorization,0,kitchen,SHINEd_sun_abrcnpqqhmjwekyf.tif,73,0.05,0.05,0.0833333333333333,1.03333333333333,953605.6043296,953606.8329218,70,953605.6570305,953605.7071356,953605.7896994,953606.8393892,953607.8710598,0,1.2285921999719
110,30,7,categorization,0,bathroom,SHINEd_sun_axyrejkiiaqiurjk.tif,59,0.05,0.05,0.0833333333333333,1.91666666666667,953607.8758705,953608.7448999,70,953607.9282299,953607.9787739,953608.0619618,953608.7504785,953610.6654833,1,0.869029400055297
110,31,7,categorization,0,kitchen,SHINEd_sun_aggjlwcdjsjcaemh.tif,88,0.05,0.05,0.0833333333333333,1.1,953610.6705704,953611.3929318,74,953610.7244916,953610.7734987,953610.8563059,953611.3983796,953612.4967179,1,0.722361400024965
110,32,7,categorization,0,kitchen,SHINEd_sun_avszsnwsbuqfgzbn.tif,104,0.05,0.05,0.0833333333333333,1.1,953612.5014906,953613.1855467,74,953612.5539729,953612.6043271,953612.6871968,953613.190172,953614.2885099,1,0.684056099969894
110,33,7,categorization,0,bathroom,SHINEd_sun_agguqiubmwhqqunb.tif,21,0.05,0.05,0.0833333333333333,0.866666666666667,953614.2932569,953615.0015039,70,953614.3458581,953614.3963916,953614.4793145,953615.0059894,953615.8709935,1,0.708247000002302
110,34,7,categorization,0,kitchen,SHINEd_sun_ahdycvpopffkzzsu.tif,92,0.05,0.05,0.0833333333333333,1.11666666666667,953615.875545,953616.7208786,74,953615.9284493,953615.9787089,953616.0612316,953616.7262767,953617.8412808,1,0.845333600067534
110,35,7,categorization,0,bathroom,SHINEd_sun_akiytfaagpdsphgz.tif,30,0.05,0.05,0.0833333333333333,0.983333333333333,953617.8471842,953618.6489087,74,953617.8994956,953617.949911,953618.0329153,953618.6546522,953619.6363227,0,0.801724500022829
110,36,7,categorization,0,bathroom,SHINEd_sun_aofnryafpsjimzsb.tif,40,0.05,0.05,0.0833333333333333,1.48333333333333,953619.6419519,953620.4097008,70,953619.6946139,953619.7447673,953619.8275465,953620.4154479,953621.8971181,1,0.767748899990693
110,37,7,categorization,0,kitchen,SHINEd_sun_acxkpeoqbwcxfvip.tif,77,0.05,0.05,0.0833333333333333,0.95,953621.9018878,953622.5617499,74,953621.9542236,953622.0047081,953622.089217,953622.5668387,953623.5151769,1,0.659862100030296
110,38,7,categorization,0,bathroom,SHINEd_sun_auzqhkafidnkrwmo.tif,54,0.05,0.05,0.0833333333333333,1.06666666666667,953623.519388,953624.2418359,70,953623.5735555,953623.6222195,953623.7066345,953624.2468664,953625.31187,1,0.722447899985127
110,39,7,categorization,0,kitchen,SHINEd_sun_abpwyqmlzafvklqo.tif,72,0.05,0.05,0.0833333333333333,1.73333333333333,953625.3166193,953626.0888756,74,953625.3703796,953625.4189777,953625.5027812,953626.0937591,953627.8254303,1,0.77225629996974
110,40,7,categorization,0,kitchen,SHINEd_sun_auticobqsbwgoppi.tif,103,0.05,0.05,0.0833333333333333,1.36666666666667,953627.8301292,953628.6736366,74,953627.8823969,953627.9330185,953628.0159389,953628.6785502,953630.043554,1,0.843507400015369
110,41,7,categorization,0,kitchen,SHINEd_sun_aeqdocilnnpuvuhx.tif,85,0.05,0.05,0.0833333333333333,0.75,953630.0486798,953630.7288851,74,953630.1026589,953630.1518593,953630.2356648,953630.7342205,953631.4825579,1,0.680205299984664
110,42,7,categorization,0,kitchen,SHINEd_sun_aapllqyqlykszopd.tif,66,0.05,0.05,0.0833333333333333,1.58333333333333,953631.4883301,953632.3453421,74,953631.5412458,953631.5923074,953631.6755174,953632.3500826,953633.9317529,1,0.857012000051327
110,43,7,categorization,0,bathroom,SHINEd_sun_apmqjbnwghzuhhzh.tif,46,0.05,0.05,0.0833333333333333,1.63333333333333,953633.9364087,953634.5848694,70,953633.9890886,953634.0396824,953634.1222329,953634.5909036,953636.2225739,1,0.648460700060241
110,44,7,categorization,0,bathroom,SHINEd_sun_abjtwfukuwddzted.tif,16,0.05,0.05,0.0833333333333333,0.966666666666667,953636.2273722,953636.8328245,70,953636.2801192,953636.3304,953636.4131293,953636.8383966,953637.8034005,1,0.605452300049365
110,45,7,categorization,0,kitchen,SHINEd_sun_agzzivivdpnawacl.tif,91,0.05,0.05,0.0833333333333333,1.86666666666667,953637.8081668,953638.713868,74,953637.8603245,953637.9109707,953637.9936845,953638.7186203,953640.5836245,1,0.905701200012118
110,46,7,categorization,0,bathroom,SHINEd_sun_ammzpemadwrjdfzl.tif,36,0.05,0.05,0.0833333333333333,1.21666666666667,953640.5884323,953641.4648726,70,953640.6408163,953640.6909903,953640.7752181,953641.4706693,953642.6856743,1,0.876440300024115
110,47,7,categorization,0,bathroom,SHINEd_sun_avhrdrntsqrjzccq.tif,55,0.05,0.05,0.0833333333333333,1.7,953642.6905417,953643.4255693,70,953642.7428747,953642.7948132,953642.8765244,953643.4304869,953645.1288256,1,0.73502759996336
110,48,7,categorization,0,bathroom,SHINEd_sun_alotolagknyrgtsk.tif,34,0.05,0.05,0.0833333333333333,1.58333333333333,953645.1340677,953646.4335844,70,953645.1863205,953645.2371307,953645.3215157,953646.4385681,953648.0202387,1,1.29951669997536
110,49,7,categorization,0,bathroom,SHINEd_sun_aljolscmmzydegqp.tif,32,0.05,0.05,0.0833333333333333,0.883333333333333,953648.0248271,953648.8728902,74,953648.077594,953648.1276089,953648.210769,953648.8784438,953649.7601252,0,0.848063100012951
110,50,7,categorization,0,bathroom,SHINEd_sun_awnqiikzaispgmwo.tif,56,0.05,0.05,0.0833333333333333,0.716666666666667,953649.76674,953650.5055981,70,953649.8195031,953649.8695577,953649.9524923,953650.5105299,953651.2256685,1,0.738858100026846
110,1,8,categorization,0,bathroom,SHINEd_sun_asfwthctfqerjvxr.tif,49,0.05,0.05,0.0833333333333333,0.966666666666667,953748.0903668,953750.2813202,70,953748.142173,953748.1930044,953748.276001,953750.2864758,953751.2514804,1,2.19095339998603
110,2,8,categorization,0,kitchen,SHINEd_sun_abdxkyyxwfskuaqb.tif,70,0.05,0.05,0.0833333333333333,0.716666666666667,953751.2561332,953754.784732,70,953751.3085657,953751.3589592,953751.4420713,953754.7899256,953755.5049296,0,3.52859879995231
110,3,8,categorization,0,kitchen,SHINEd_sun_agorklincwxrdtga.tif,89,0.05,0.05,0.0833333333333333,1.23333333333333,953755.5096746,953756.8167829,74,953755.5619256,953755.6123933,953755.6954467,953756.8222611,953758.0539321,1,1.30710830003954
110,4,8,categorization,0,kitchen,SHINEd_labelme_brsyyvweiuaazfr.tif,61,0.05,0.05,0.0833333333333333,0.733333333333333,953758.058654,953759.1208002,70,953758.1119663,953758.1613521,953758.2443633,953759.1271149,953759.8587855,0,1.06214619998354
110,5,8,categorization,0,bathroom,SHINEd_sun_aapitsgbtktqubfy.tif,13,0.05,0.05,0.0833333333333333,1.31666666666667,953759.8632859,953761.5448557,74,953759.9157779,953759.9662263,953760.0490892,953761.5509513,953762.8659558,0,1.68156980001368
110,6,8,categorization,0,bathroom,SHINEd_sun_aunuadmjocsddsrl.tif,52,0.05,0.05,0.0833333333333333,1.11666666666667,953762.8707037,953763.8327795,70,953762.9234889,953762.9751881,953763.0563825,953763.8386815,953764.9536847,1,0.962075800052844
110,7,8,categorization,0,bathroom,SHINEd_sun_axldvoqbuvuggfmq.tif,57,0.05,0.05,0.0833333333333333,0.866666666666667,953764.9585852,953765.9368702,70,953765.0105057,953765.0609177,953765.144543,953765.9426201,953766.8076243,1,0.978284999961033
110,8,8,categorization,0,bathroom,SHINEd_sun_ahcvzmoyaycdoftf.tif,26,0.05,0.05,0.0833333333333333,1.66666666666667,953766.8121158,953767.5448176,70,953766.8656967,953766.9150157,953766.9991224,953767.5497914,953769.214805,1,0.732701800065115
110,9,8,categorization,0,kitchen,SHINEd_sun_aamedkxepzlwuxes.tif,65,0.05,0.05,0.0833333333333333,1.31666666666667,953769.2197109,953770.4095653,70,953769.2732016,953769.3223373,953769.4064486,953770.4144929,953771.7294979,0,1.1898543999996
110,10,8,categorization,0,bathroom,SHINEd_sun_anryaplzeujmzfkd.tif,39,0.05,0.05,0.0833333333333333,0.766666666666667,953771.7345062,953772.6897524,70,953771.7873058,953771.837269,953771.920183,953772.6944524,953773.4594567,1,0.955246200086549
110,11,8,categorization,0,kitchen,SHINEd_sun_aegoxogugdkwpmpj.tif,81,0.05,0.05,0.0833333333333333,1.66666666666667,953773.4644185,953774.5208247,70,953773.5166366,953773.5672241,953773.6499737,953774.5269813,953776.1919856,0,1.05640620004851
110,12,8,categorization,0,bathroom,SHINEd_sun_agyqfjcfkdcydepw.tif,24,0.05,0.05,0.0833333333333333,0.9,953776.1972685,953777.9208192,70,953776.2496886,953776.3009069,953776.3829812,953777.9258631,953778.8242003,1,1.72355070000049
110,13,8,categorization,0,kitchen,SHINEd_sun_agubuxuukhzyzpdp.tif,90,0.05,0.05,0.0833333333333333,0.75,953778.8289357,953779.7775212,74,953778.8826223,953778.9316061,953779.0159205,953779.7820832,953780.5304311,1,0.948585500009358
110,14,8,categorization,0,bathroom,SHINEd_sun_apeeialkgkuxddgh.tif,42,0.05,0.05,0.0833333333333333,1.1,953780.5356355,953783.4737074,70,953780.5879927,953780.6380318,953780.7217235,953783.4788021,953784.57714,1,2.93807190004736
110,15,8,categorization,0,kitchen,SHINEd_sun_aunzlwrbjumxhwdj.tif,102,0.05,0.05,0.0833333333333333,1.65,953784.5814058,953785.9367701,74,953784.6337138,953784.6841926,953784.7672524,953785.9439187,953787.5922564,1,1.35536430007778
110,16,8,categorization,0,bathroom,SHINEd_sun_ajlawzvmubibwbpy.tif,29,0.05,0.05,0.0833333333333333,1.21666666666667,953787.5967722,953788.7208292,70,953787.6498665,953787.7008855,953787.7832312,953788.7260917,953789.9410968,1,1.12405700003728
110,17,8,categorization,0,bathroom,SHINEd_sun_atstyziqcmkahyxk.tif,51,0.05,0.05,0.0833333333333333,1.31666666666667,953789.9456664,953790.7208264,70,953789.9978964,953790.0482677,953790.1317117,953790.7265121,953792.0415172,1,0.775159999961033
110,18,8,categorization,0,bathroom,SHINEd_sun_apkruvsevgegsdwp.tif,44,0.05,0.05,0.0833333333333333,1.73333333333333,953792.0459367,953793.88881,70,953792.0982518,953792.1486258,953792.231355,953793.8947141,953795.6263865,1,1.84287330007646
110,19,8,categorization,0,kitchen,SHINEd_sun_aymvwlarqodbwuoc.tif,107,0.05,0.05,0.0833333333333333,0.766666666666667,953795.6311233,953796.9454604,74,953795.6835832,953795.7352857,953795.8169323,953796.9505543,953797.7155581,1,1.31433710001875
110,20,8,categorization,0,bathroom,SHINEd_sun_ausgutylgojavyoq.tif,53,0.05,0.05,0.0833333333333333,1.98333333333333,953797.720231,953798.7848494,70,953797.772637,953797.8244095,953797.9061278,953798.7909525,953800.7726229,1,1.06461840006523
110,21,8,categorization,0,bathroom,SHINEd_sun_apkxzenqapsujocq.tif,45,0.05,0.05,0.0833333333333333,1.76666666666667,953800.7786113,953801.600745,70,953800.8311174,953800.8811645,953800.964322,953801.6065168,953803.3715216,1,0.822133699897677
110,22,8,categorization,0,kitchen,SHINEd_sun_aenotlpyftoioydp.tif,84,0.05,0.05,0.0833333333333333,1.71666666666667,953803.3763631,953804.104825,70,953803.428868,953803.4790476,953803.5617379,953804.1108652,953805.82587,0,0.728461900027469
110,23,8,categorization,0,bathroom,SHINEd_sun_aamrfepkhweyewue.tif,12,0.05,0.05,0.0833333333333333,0.916666666666667,953805.8305564,953807.1855396,70,953805.8829829,953805.9335807,953806.0164521,953807.1910713,953808.1060744,1,1.35498319996987
110,24,8,categorization,0,kitchen,SHINEd_sun_ayqymgxqhxxiykiw.tif,109,0.05,0.05,0.0833333333333333,1.95,953808.1106074,953809.0415488,70,953808.1630694,953808.2133863,953808.2962018,953809.0466677,953810.9950044,0,0.930941400001757
110,25,8,categorization,0,bathroom,SHINEd_sun_aghyqhbptboemmoq.tif,22,0.05,0.05,0.0833333333333333,1.95,953810.9995909,953812.00169,70,953811.0524846,953811.1029847,953811.1851609,953812.0067497,953813.9550873,1,1.00209909991827
110,26,8,categorization,0,kitchen,SHINEd_labelme_kxvouciolcpqplr.tif,62,0.05,0.05,0.0833333333333333,0.733333333333333,953813.960834,953814.8649318,74,953814.0137117,953814.0651044,953814.1466164,953814.8698196,953815.6014904,1,0.904097800026648
110,27,8,categorization,0,bathroom,SHINEd_sun_aqrpegblszgcoujh.tif,48,0.05,0.05,0.0833333333333333,0.75,953815.6064599,953816.6975192,70,953815.6591029,953815.7092595,953815.7917515,953816.7023936,953817.450731,1,1.09105930000078
110,28,8,categorization,0,kitchen,SHINEd_sun_axyyrmzcupyhlivc.tif,106,0.05,0.05,0.0833333333333333,1.85,953817.4556494,953818.2327825,70,953817.5079392,953817.5582073,953817.6416654,953818.238817,953820.0871548,0,0.777133099967614
110,29,8,categorization,0,kitchen,SHINEd_sun_aeikbkmhphqzxdkv.tif,83,0.05,0.05,0.0833333333333333,1.15,953820.09184,953821.2488061,74,953820.1445854,953820.194739,953820.2771199,953821.2549025,953822.40324,1,1.15696609998122
110,30,8,categorization,0,kitchen,SHINEd_sun_auaiucuqpdausiva.tif,101,0.05,0.05,0.0833333333333333,1.08333333333333,953822.4084509,953823.1773359,74,953822.4607768,953822.5112206,953822.5945264,953823.1823813,953824.2640511,1,0.768885000026785
110,31,8,categorization,0,bathroom,SHINEd_sun_acgyywnybuveqsro.tif,18,0.05,0.05,0.0833333333333333,0.85,953824.26873,953825.0014889,70,953824.3212117,953824.3724909,953824.454476,953825.0064685,953825.8548063,1,0.732758900034241
110,32,8,categorization,0,kitchen,SHINEd_sun_adgqasybjyktddhj.tif,79,0.05,0.05,0.0833333333333333,0.783333333333333,953825.8594951,953827.2896992,70,953825.911811,953825.9620992,953826.046511,953827.2946882,953828.0763587,0,1.43020409997553
110,33,8,categorization,0,kitchen,SHINEd_sun_ahywdevtimnqcsln.tif,95,0.05,0.05,0.0833333333333333,1.05,953828.0813012,953829.0807976,74,953828.1338834,953828.1840692,953828.2672673,953829.0863345,953830.134672,1,0.999496400007047
110,34,8,categorization,0,bathroom,SHINEd_labelme_sfxiulhjbhlyiyt.tif,11,0.05,0.05,0.0833333333333333,1,953830.1396534,953833.0894737,70,953830.1920592,953830.2421456,953830.3254825,953833.0954073,953834.0937449,1,2.94982029998209
110,35,8,categorization,0,bathroom,SHINEd_sun_azqyogdvyhahyram.tif,60,0.05,0.05,0.0833333333333333,0.9,953834.0997945,953834.9287882,70,953834.1528182,953834.2026696,953834.2854059,953834.9346866,953835.8330234,1,0.828993699979037
110,36,8,categorization,0,bathroom,SHINEd_sun_aoybiabnpadelefl.tif,41,0.05,0.05,0.0833333333333333,1.21666666666667,953835.8373918,953836.7688025,74,953835.8899442,953835.9408213,953836.0246664,953836.774646,953837.9896496,0,0.931410699966364
110,37,8,categorization,0,bathroom,SHINEd_sun_agrwbmhcpmfuwmsg.tif,23,0.05,0.05,0.0833333333333333,1.18333333333333,953837.9943814,953838.712758,70,953838.046891,953838.0980534,953838.1800886,953838.7185563,953839.900228,1,0.718376599950716
110,38,8,categorization,0,bathroom,SHINEd_sun_apjevzvycyhuqghb.tif,43,0.05,0.05,0.0833333333333333,0.933333333333333,953839.9047864,953841.5128103,70,953839.9570379,953840.0086644,953840.0905244,953841.5182609,953842.449932,1,1.60802389995661
110,39,8,categorization,0,kitchen,SHINEd_sun_acwjdupvyjsugpay.tif,76,0.05,0.05,0.0833333333333333,0.766666666666667,953842.4558337,953843.6807176,74,953842.5082031,953842.5584579,953842.6412786,953843.686468,953844.4514717,1,1.224883900024
110,40,8,categorization,0,kitchen,SHINEd_sun_aehawpgmrlhlvcow.tif,82,0.05,0.05,0.0833333333333333,1,953844.4563665,953845.3767182,74,953844.5103137,953844.5599989,953844.6421194,953845.3829379,953846.381275,1,0.920351700042374
110,41,8,categorization,0,kitchen,SHINEd_sun_awcpdzzznmweyyhv.tif,105,0.05,0.05,0.0833333333333333,1.38333333333333,953846.3873043,953847.5055186,74,953846.4404431,953846.4900601,953846.5737048,953847.5107722,953848.892455,1,1.11821430001874
110,42,8,categorization,0,kitchen,SHINEd_sun_aypmqwcualkenuoe.tif,108,0.05,0.05,0.0833333333333333,0.933333333333333,953848.8970208,953849.976806,74,953848.9492579,953849.0010713,953849.0828577,953849.9831082,953850.9147797,1,1.07978519995231
110,43,8,categorization,0,kitchen,SHINEd_sun_amjjdeyrggfqgmom.tif,99,0.05,0.05,0.0833333333333333,1.61666666666667,953850.9193918,953852.8568105,74,953850.9717898,953851.0216657,953851.1052427,953852.8622504,953854.4772562,1,1.93741870007943
110,44,8,categorization,0,kitchen,SHINEd_sun_aexklacwqwezaorf.tif,86,0.05,0.05,0.0833333333333333,0.833333333333333,953854.4819608,953856.1134848,74,953854.5343772,953854.5847384,953854.6677783,953856.1183365,953856.9500066,1,1.63152399996761
110,45,8,categorization,0,kitchen,SHINEd_sun_ahpczsiumwwocjkv.tif,94,0.05,0.05,0.0833333333333333,1.68333333333333,953856.9544679,953857.6733923,74,953857.0071248,953857.0574034,953857.1400376,953857.6784702,953859.36014,1,0.718924400047399
110,46,8,categorization,0,kitchen,SHINEd_sun_acfmftudsenhrfhy.tif,74,0.05,0.05,0.0833333333333333,0.833333333333333,953859.3650149,953860.0888143,74,953859.4184632,953859.4680385,953859.5501147,953860.094376,953860.926047,1,0.723799400031567
110,47,8,categorization,0,kitchen,SHINEd_sun_aadbddgrdsjugojn.tif,64,0.05,0.05,0.0833333333333333,1.73333333333333,953860.9305083,953861.7208051,74,953860.9841489,953861.0346265,953861.1160901,953861.7262313,953863.4579014,1,0.790296800085343
110,48,8,categorization,0,kitchen,SHINEd_sun_ajcbwwvdlsvjyzje.tif,96,0.05,0.05,0.0833333333333333,0.783333333333333,953863.4628358,953864.7053144,70,953863.516315,953863.5667103,953863.6495829,953864.7102349,953865.4919063,0,1.24247860000469
110,49,8,categorization,0,bathroom,SHINEd_sun_apynckhmoftszqoq.tif,47,0.05,0.05,0.0833333333333333,1.05,953865.4965195,953866.4737969,70,953865.5500702,953865.5991516,953865.6820057,953866.478993,953867.5273298,1,0.977277399972081
110,50,8,categorization,0,bathroom,SHINEd_sun_aspsyogrekjtfozg.tif,50,0.05,0.05,0.0833333333333333,1.61666666666667,953867.5320888,953868.7767868,74,953867.5850932,953867.6352358,953867.7191402,953868.781838,953870.3968415,0,1.24469800002407
110,1,9,categorization,0,bathroom,SHINEd_sun_atstyziqcmkahyxk.tif,51,0.05,0.05,0.0833333333333333,0.816666666666667,953879.1468387,953880.6487546,70,953879.1990894,953879.2508995,953879.3328298,953880.6538095,953881.4688146,1,1.50191589992028
110,2,9,categorization,0,bathroom,SHINEd_sun_akiytfaagpdsphgz.tif,30,0.05,0.05,0.0833333333333333,1.35,953881.4733156,953883.0647666,70,953881.5255679,953881.5767601,953881.6590808,953883.070897,953884.4192354,1,1.59145100007299
110,3,9,categorization,0,kitchen,SHINEd_sun_aqeaevwwwjoqhzvl.tif,100,0.05,0.05,0.0833333333333333,1.33333333333333,953884.4239767,953885.5856311,74,953884.476061,953884.5272815,953884.6112411,953885.5907029,953886.9223748,1,1.16165439994074
110,4,9,categorization,0,bathroom,SHINEd_sun_aljolscmmzydegqp.tif,32,0.05,0.05,0.0833333333333333,0.916666666666667,953886.9269487,953896.0574413,70,953886.9794294,953887.0297533,953887.1127747,953896.0624297,953896.9774346,1,9.13049260003027
110,5,9,categorization,0,bathroom,SHINEd_sun_apjevzvycyhuqghb.tif,43,0.05,0.05,0.0833333333333333,1.2,953896.9836261,953901.1126919,70,953897.0360513,953897.0865202,953897.1693884,953901.1184523,953902.3167904,1,4.12906579999253
110,6,9,categorization,0,bathroom,SHINEd_sun_aofnryafpsjimzsb.tif,40,0.05,0.05,0.0833333333333333,0.9,953902.3218451,953903.3613391,70,953902.3744145,953902.4246529,953902.5078634,953903.3659392,953904.2642779,1,1.03949400002602
110,7,9,categorization,0,kitchen,SHINEd_sun_afuyedyxivkhecmu.tif,87,0.05,0.05,0.0833333333333333,0.966666666666667,953904.2688291,953905.5454721,74,953904.3211771,953904.3715886,953904.4544561,953905.5509503,953906.5159564,1,1.27664300007746
110,8,9,categorization,0,kitchen,SHINEd_sun_amjjdeyrggfqgmom.tif,99,0.05,0.05,0.0833333333333333,0.8,953906.5208606,953908.8807258,74,953906.5731463,953906.623298,953906.7065023,953908.886849,953909.685187,1,2.35986519989092
