sub_num,trial,block,task,is_practice,category,image,texture,duration,mask_dur,jitter,stim_time,time_of_resp,trial_response,mask_time,fix_time,jit_onset,trial_end,trial_accuracy,RT
110,1,7,categorization,0,bathroom,SHINEd_sun_abapwbhyhkfixyex.tif,14,0.0666666666666667,0.0666666666666667,0.883333333333333,6485.154713125,6485.982094208,13,6485.217347833,6485.277749958,6485.99673925,6486.873412167,1,0.827381082999636
110,2,7,categorization,0,kitchen,SHINEd_sun_abdenxonkemggwsq.tif,69,0.0666666666666667,0.0666666666666667,1.03333333333333,6486.878273667,6487.90306075,13,6486.940008667,6487.001017208,6487.919556083,6488.946267375,0,1.02478708299986
110,3,7,categorization,0,bathroom,SHINEd_sun_alotolagknyrgtsk.tif,35,0.0666666666666667,0.0666666666666667,1.06666666666667,6488.955371792,6489.539056667,9,6489.019326792,6489.086254667,6489.559100792,6490.619156042,0,0.583684875000472
110,4,7,categorization,0,bathroom,SHINEd_sun_anhioqovhscjqqwb.tif,38,0.0666666666666667,0.0666666666666667,0.833333333333333,6490.6358085,6491.686869667,13,6490.702216292,6490.768421875,6491.70425675,6492.530929,1,1.05106116699972
110,5,7,categorization,0,kitchen,SHINEd_sun_akchetnepxlcxhsu.tif,98,0.0666666666666667,0.0666666666666667,0.716666666666667,6492.535801917,6493.110681667,13,6492.597536792,6492.658445708,6493.127076542,6493.83707975,0,0.574879750000036
110,6,7,categorization,0,kitchen,SHINEd_sun_agorklincwxrdtga.tif,87,0.0666666666666667,0.0666666666666667,0.733333333333333,6493.841871708,6494.406780833,9,6493.903620958,6493.9645775,6494.416540333,6495.143211417,1,0.564909124999758
110,7,7,categorization,0,kitchen,SHINEd_sun_abftihopvusyfakt.tif,71,0.0666666666666667,0.0666666666666667,1.38333333333333,6495.148858792,6495.838814667,9,6495.210592333,6495.27154625,6495.857196042,6497.233909333,1,0.689955875000123
110,8,7,categorization,0,kitchen,SHINEd_sun_aaxxjlsuzvqlgylf.tif,68,0.0666666666666667,0.0666666666666667,0.9,6497.252109917,6497.864766542,9,6497.318597125,6497.384586917,6497.890999292,6498.784376917,1,0.612656625000454
110,9,7,categorization,0,kitchen,SHINEd_sun_ahspylgoovwmwvgk.tif,93,0.0666666666666667,0.0666666666666667,0.816666666666667,6498.800630458,6499.414872667,9,6498.866981542,6498.925344375,6499.427080708,6500.23708625,1,0.614242208999713
110,10,7,categorization,0,bathroom,SHINEd_sun_ahijqszoswveeyji.tif,28,0.0666666666666667,0.0666666666666667,0.85,6500.24200225,6501.526239833,13,6500.303644125,6500.364678542,6501.534004,6502.377340583,1,1.28423758299959
110,11,7,categorization,0,bathroom,SHINEd_sun_afcoljnjfoxjtgja.tif,20,0.0666666666666667,0.0666666666666667,1.6,6502.382562333,6502.96687075,9,6502.4442885,6502.505336292,6502.974024667,6504.567391875,0,0.584308417000102
110,12,7,categorization,0,kitchen,SHINEd_sun_ajkqhtgcbgpcwrwn.tif,97,0.0666666666666667,0.0666666666666667,1.75,6504.581770083,6505.4142875,9,6504.645622167,6504.714512208,6505.437723875,6507.18110675,1,0.832517416999508
110,13,7,categorization,0,kitchen,SHINEd_sun_acgtpgfybqjmzeyw.tif,75,0.0666666666666667,0.0666666666666667,1.1,6507.199082792,6508.067268042,9,6507.26592175,6507.331796333,6508.088503458,6509.181890708,1,0.868185250000352
110,14,7,categorization,0,bathroom,SHINEd_sun_agyqfjcfkdcydepw.tif,25,0.0666666666666667,0.0666666666666667,1.46666666666667,6509.1900955,6510.194548833,9,6509.255331125,6509.322758875,6510.212111667,6511.672158792,0,1.00445333300013
110,15,7,categorization,0,kitchen,SHINEd_labelme_rykdqxenmhulbdn.tif,63,0.0666666666666667,0.0666666666666667,1.25,6511.689048,6512.217313083,13,6511.757288708,6511.821947583,6512.244903583,6513.488274625,0,0.528265082999496
110,16,7,categorization,0,kitchen,SHINEd_sun_amjjdeyrggfqgmom.tif,100,0.0666666666666667,0.0666666666666667,1.13333333333333,6513.506665083,6514.328246042,9,6513.573759042,6513.639600458,6514.34599275,6515.472689542,1,0.82158095899922
110,17,7,categorization,0,kitchen,SHINEd_sun_aegoxogugdkwpmpj.tif,80,0.0666666666666667,0.0666666666666667,1.33333333333333,6515.483589917,6516.066550417,9,6515.550467667,6515.616589042,6516.090064042,6517.41677375,1,0.582960499999899
110,18,7,categorization,0,kitchen,SHINEd_sun_adgqasybjyktddhj.tif,78,0.0666666666666667,0.0666666666666667,1.86666666666667,6517.435746625,6518.214139583,9,6517.50276725,6517.560437125,6518.22910875,6520.08914675,1,0.77839295800004
110,19,7,categorization,0,bathroom,SHINEd_sun_aclfzgynxzxlbepz.tif,19,0.0666666666666667,0.0666666666666667,1.58333333333333,6520.106416375,6520.795449625,13,6520.173522583,6520.2397215,6520.812436625,6522.389155792,1,0.689033250000648
110,20,7,categorization,0,kitchen,SHINEd_sun_azmutvzbxypaceni.tif,110,0.0666666666666667,0.0666666666666667,1.05,6522.406409042,6523.659477292,9,6522.474920208,6522.539437792,6523.682041667,6524.725419083,1,1.25306825000007
110,21,7,categorization,0,bathroom,SHINEd_sun_aljolscmmzydegqp.tif,33,0.0666666666666667,0.0666666666666667,0.9,6524.733938292,6525.787157167,13,6524.798435,6524.864795208,6525.804564458,6526.697945667,1,1.05321887500031
110,22,7,categorization,0,bathroom,SHINEd_sun_ahcvzmoyaycdoftf.tif,27,0.0666666666666667,0.0666666666666667,0.7,6526.710149958,6527.262168333,13,6526.772242167,6526.833077042,6527.268339042,6527.9616765,1,0.552018374999534
110,23,7,categorization,0,bathroom,SHINEd_sun_acegryoqftbzowsg.tif,17,0.0666666666666667,0.0666666666666667,0.933333333333333,6527.966577125,6528.574638625,13,6528.02815,6528.089347625,6528.59143525,6529.518107125,1,0.608061500000076
110,24,7,categorization,0,bathroom,SHINEd_sun_amzlamotzwfkwjco.tif,37,0.0666666666666667,0.0666666666666667,1.95,6529.522879042,6530.2864855,9,6529.584680917,6529.645564167,6530.298029083,6532.241402333,0,0.76360645800014
110,25,7,categorization,0,bathroom,SHINEd_sun_axxbkopsgyouuebh.tif,58,0.0666666666666667,0.0666666666666667,1.06666666666667,6532.258589208,6532.976236625,13,6532.326022125,6532.390981875,6532.996992542,6534.057032042,1,0.71764741700008
110,26,7,categorization,0,bathroom,SHINEd_sun_abjtwfukuwddzted.tif,15,0.0666666666666667,0.0666666666666667,1.2,6534.0672575,6534.774209042,9,6534.131659083,6534.198671292,6534.787580583,6535.9809485,0,0.706951541999842
110,27,7,categorization,0,bathroom,SHINEd_sun_akiytfaagpdsphgz.tif,31,0.0666666666666667,0.0666666666666667,0.75,6535.993994958,6537.086663792,13,6536.05644875,6536.116990667,6537.102073208,6537.845411625,1,1.0926688339996
110,28,7,categorization,0,kitchen,SHINEd_sun_aarfiyshqohlwkmo.tif,67,0.0666666666666667,0.0666666666666667,0.816666666666667,6537.850240125,6538.6140475,9,6537.911913125,6537.972896458,6538.624971333,6539.4349765,1,0.763807375000397
110,29,7,categorization,0,kitchen,SHINEd_sun_abrcnpqqhmjwekyf.tif,73,0.0666666666666667,0.0666666666666667,1.96666666666667,6539.439962042,6540.2943015,9,6539.501709333,6539.562696708,6540.298448625,6542.25849375,1,0.85433945800014
110,30,7,categorization,0,bathroom,SHINEd_sun_axyrejkiiaqiurjk.tif,59,0.0666666666666667,0.0666666666666667,1.2,6542.27506275,6542.887444708,9,6542.34317075,6542.407799792,6542.913460375,6544.106837292,0,0.612381957999787
110,31,7,categorization,0,kitchen,SHINEd_sun_agubuxuukhzyzpdp.tif,88,0.0666666666666667,0.0666666666666667,0.883333333333333,6544.117285667,6545.384394625,9,6544.183951417,6544.249196625,6545.40636275,6546.283034917,1,1.26710895799988
110,32,7,categorization,0,kitchen,SHINEd_sun_auticobqsbwgoppi.tif,104,0.0666666666666667,0.0666666666666667,1.33333333333333,6546.288099708,6546.902408333,9,6546.349901542,6546.410817,6546.912641625,6548.239342042,1,0.614308624999467
110,33,7,categorization,0,bathroom,SHINEd_sun_aggnnqpdorgxpvce.tif,21,0.0666666666666667,0.0666666666666667,1.45,6548.255882917,6548.999637292,13,6548.322438417,6548.388403583,6549.028228333,6550.471596667,1,0.743754375000208
110,34,7,categorization,0,kitchen,SHINEd_sun_ahpczsiumwwocjkv.tif,92,0.0666666666666667,0.0666666666666667,1.15,6550.488387625,6551.341990917,13,6550.554850667,6550.621171292,6551.361230625,6552.504601542,0,0.853603292000116
110,35,7,categorization,0,bathroom,SHINEd_sun_ajlawzvmubibwbpy.tif,30,0.0666666666666667,0.0666666666666667,0.966666666666667,6552.513345208,6553.716014542,9,6552.579604833,6552.646748875,6553.736175375,6554.696178833,0,1.20266933400035
110,36,7,categorization,0,bathroom,SHINEd_sun_aofnryafpsjimzsb.tif,40,0.0666666666666667,0.0666666666666667,1.45,6554.701348792,6555.430774833,13,6554.762984208,6554.824067583,6555.442773125,6556.886160375,1,0.729426040999897
110,37,7,categorization,0,kitchen,SHINEd_sun_acxkpeoqbwcxfvip.tif,77,0.0666666666666667,0.0666666666666667,0.8,6556.90412475,6557.585678542,9,6556.969471042,6557.037245667,6557.610602792,6558.403984458,1,0.681553792000159
110,38,7,categorization,0,bathroom,SHINEd_sun_auzqhkafidnkrwmo.tif,54,0.0666666666666667,0.0666666666666667,1.45,6558.420077958,6558.982357667,13,6558.487048875,6558.551204417,6558.986450458,6560.429822292,1,0.562279708999995
110,39,7,categorization,0,kitchen,SHINEd_sun_abpwyqmlzafvklqo.tif,72,0.0666666666666667,0.0666666666666667,1.1,6560.446157375,6560.990302667,9,6560.513886042,6560.578748375,6561.018498042,6562.11188625,1,0.544145291999484
110,40,7,categorization,0,kitchen,SHINEd_sun_aunzlwrbjumxhwdj.tif,103,0.0666666666666667,0.0666666666666667,1.16666666666667,6562.121157958,6562.938690833,13,6562.18607475,6562.252616875,6562.957255875,6564.117300583,0,0.817532874999415
110,41,7,categorization,0,kitchen,SHINEd_sun_afuyedyxivkhecmu.tif,85,0.0666666666666667,0.0666666666666667,1.31666666666667,6564.135144208,6564.662058833,9,6564.201554958,6564.259419375,6564.67797225,6565.988008292,1,0.526914624999336
110,42,7,categorization,0,kitchen,SHINEd_sun_aapllqyqlykszopd.tif,66,0.0666666666666667,0.0666666666666667,1.68333333333333,6566.00529325,6566.58008725,9,6566.071814958,6566.137789708,6566.593150042,6568.269857667,1,0.574794000000111
110,43,7,categorization,0,bathroom,SHINEd_sun_apmqjbnwghzuhhzh.tif,46,0.0666666666666667,0.0666666666666667,0.966666666666667,6568.287526125,6568.850186042,13,6568.354220083,6568.420098333,6568.876186458,6569.836238125,1,0.562659917000019
110,44,7,categorization,0,bathroom,SHINEd_sun_acduarbnmmoglmiv.tif,16,0.0666666666666667,0.0666666666666667,1.4,6569.852225333,6570.390330375,13,6569.914837625,6569.975021417,6570.393656125,6571.787040042,1,0.538105042000097
110,45,7,categorization,0,kitchen,SHINEd_sun_ahljzhgcdpomplvg.tif,91,0.0666666666666667,0.0666666666666667,0.783333333333333,6571.804487292,6572.714562375,9,6571.870635875,6571.937420875,6572.744015125,6573.520724542,1,0.910075083000265
110,46,7,categorization,0,bathroom,SHINEd_sun_ambriybtogmepttm.tif,36,0.0666666666666667,0.0666666666666667,1.08333333333333,6573.532584625,6574.221754208,13,6573.595044417,6573.655270542,6574.24096425,6575.317668042,1,0.689169582999966
110,47,7,categorization,0,bathroom,SHINEd_sun_avhrdrntsqrjzccq.tif,55,0.0666666666666667,0.0666666666666667,1.43333333333333,6575.32649525,6576.2268435,13,6575.391531375,6575.459043833,6576.248853833,6577.675566833,1,0.900348249999297
110,48,7,categorization,0,bathroom,SHINEd_sun_alkosphxlxwjwgjd.tif,34,0.0666666666666667,0.0666666666666667,1.75,6577.692510417,6578.400346583,13,6577.760320708,6577.825007667,6578.413742375,6580.157121917,1,0.707836165999652
110,49,7,categorization,0,bathroom,SHINEd_sun_aleqenyvunhactkl.tif,32,0.0666666666666667,0.0666666666666667,1.21666666666667,6580.174045833,6580.696539708,9,6580.241630292,6580.306623333,6580.712336167,6581.922373042,0,0.522493875000691
110,50,7,categorization,0,bathroom,SHINEd_sun_awnqiikzaispgmwo.tif,56,0.0666666666666667,0.0666666666666667,1.31666666666667,6581.939277042,6582.493763583,9,6582.0058795,6582.071568458,6582.510760083,6583.820798875,0,0.554486541000188
