sub_num,trial,block,task,is_practice,category,image,texture,duration,mask_dur,jitter,stim_time,time_of_resp,trial_response,mask_time,fix_time,jit_onset,trial_end,trial_accuracy,RT
110,1,14,categorization,0,kitchen,SHINEd_sun_admlmbcdswaszruo.tif,79,0.0666666666666667,0.0666666666666667,1.38333333333333,7282.58021625,7284.162962042,13,7282.642405667,7282.702932667,7284.172073542,7285.548773083,0,1.58274579199951
110,2,14,categorization,0,kitchen,SHINEd_sun_aeqdocilnnpuvuhx.tif,83,0.0666666666666667,0.0666666666666667,1.48333333333333,7285.566443667,7286.329427542,9,7285.63275775,7285.699322958,7286.354919,7287.831636208,1,0.762983874999918
110,3,14,categorization,0,kitchen,SHINEd_sun_aarfiyshqohlwkmo.tif,67,0.0666666666666667,0.0666666666666667,0.966666666666667,7287.847485083,7288.559780083,9,7287.91395825,7287.980036208,7288.586077083,7289.546082333,1,0.712295000000267
110,4,14,categorization,0,bathroom,SHINEd_sun_ahcvzmoyaycdoftf.tif,27,0.0666666666666667,0.0666666666666667,0.916666666666667,7289.551232375,7290.099328542,13,7289.612978083,7289.673947667,7290.109206625,7291.019212042,1,0.54809616700004
110,5,14,categorization,0,bathroom,SHINEd_sun_abjtwfukuwddzted.tif,15,0.0666666666666667,0.0666666666666667,1.6,7291.023951083,7291.579083208,13,7291.085530125,7291.146600833,7291.598817542,7293.192198583,1,0.555132125000455
110,6,14,categorization,0,bathroom,SHINEd_sun_aofnryafpsjimzsb.tif,40,0.0666666666666667,0.0666666666666667,0.7,7293.204898125,7293.895625625,9,7293.271132333,7293.337528125,7293.909364542,7294.602735208,0,0.690727500000321
110,7,14,categorization,0,kitchen,SHINEd_sun_aadbddgrdsjugojn.tif,64,0.0666666666666667,0.0666666666666667,1.7,7294.61745775,7295.268041292,9,7294.680385375,7294.740400833,7295.275662917,7296.9690235,1,0.650583542000277
110,8,14,categorization,0,kitchen,SHINEd_sun_agorklincwxrdtga.tif,87,0.0666666666666667,0.0666666666666667,1.05,7296.980396958,7297.851330333,9,7297.046682875,7297.112858542,7297.868275,7298.911660292,1,0.870933375000277
110,9,14,categorization,0,bathroom,SHINEd_sun_aggnnqpdorgxpvce.tif,21,0.0666666666666667,0.0666666666666667,1.15,7298.919525917,7299.757690875,9,7298.984013417,7299.050987042,7299.773385667,7300.916776958,0,0.838164957999652
110,10,14,categorization,0,bathroom,SHINEd_sun_aapitsgbtktqubfy.tif,12,0.0666666666666667,0.0666666666666667,1.85,7300.929835292,7301.539074542,13,7300.992985208,7301.052737667,7301.55459925,7303.397980208,1,0.609239250000428
110,11,14,categorization,0,kitchen,SHINEd_sun_awcpdzzznmweyyhv.tif,106,0.0666666666666667,0.0666666666666667,1.2,7303.416380333,7303.998793125,13,7303.482946125,7303.548853042,7304.0218455,7305.215234875,0,0.582412791999559
110,12,14,categorization,0,kitchen,SHINEd_sun_aaxxjlsuzvqlgylf.tif,68,0.0666666666666667,0.0666666666666667,1.11666666666667,7305.232438667,7306.217422542,9,7305.299093333,7305.365246667,7306.238576625,7307.348635542,1,0.98498387500058
110,13,14,categorization,0,bathroom,SHINEd_sun_apynckhmoftszqoq.tif,47,0.0666666666666667,0.0666666666666667,1.41666666666667,7307.357392125,7307.840207417,13,7307.421382167,7307.490899208,7307.863720458,7309.273757292,1,0.482815291999941
110,14,14,categorization,0,bathroom,SHINEd_sun_apjevzvycyhuqghb.tif,43,0.0666666666666667,0.0666666666666667,1.05,7309.281402875,7309.94780475,9,7309.343198208,7309.404150125,7309.955998167,7310.999376333,0,0.666401874999792
110,15,14,categorization,0,bathroom,SHINEd_sun_awnqiikzaispgmwo.tif,56,0.0666666666666667,0.0666666666666667,1.26666666666667,7311.00911925,7311.519427417,13,7311.073873333,7311.140511417,7311.546693667,7312.8067505,1,0.510308166999494
110,16,14,categorization,0,bathroom,SHINEd_sun_agguqiubmwhqqunb.tif,22,0.0666666666666667,0.0666666666666667,1.46666666666667,7312.823315667,7313.403952917,13,7312.890836417,7312.951489625,7313.420737,7314.880791292,1,0.580637250000109
110,17,14,categorization,0,kitchen,SHINEd_sun_axyyrmzcupyhlivc.tif,107,0.0666666666666667,0.0666666666666667,0.8,7314.899283083,7315.493315542,9,7314.963971542,7315.031709792,7315.520998958,7316.314387042,1,0.594032459000118
110,18,14,categorization,0,bathroom,SHINEd_sun_akiytfaagpdsphgz.tif,31,0.0666666666666667,0.0666666666666667,1.4,7316.330413167,7316.915400833,13,7316.396816667,7316.457975583,7316.926487917,7318.319870083,1,0.584987665999506
110,19,14,categorization,0,kitchen,SHINEd_sun_abpwyqmlzafvklqo.tif,72,0.0666666666666667,0.0666666666666667,0.966666666666667,7318.332929208,7318.946721875,9,7318.400968458,7318.465329542,7318.970270042,7319.930327792,1,0.613792666999871
110,20,14,categorization,0,bathroom,SHINEd_sun_aoybiabnpadelefl.tif,41,0.0666666666666667,0.0666666666666667,0.916666666666667,7319.94695625,7321.0274935,9,7320.009505167,7320.069675,7321.038130458,7321.948135958,0,1.08053724999991
110,21,14,categorization,0,kitchen,SHINEd_sun_aymvwlarqodbwuoc.tif,108,0.0666666666666667,0.0666666666666667,1.11666666666667,7321.95293475,7322.707063792,9,7322.0146575,7322.075566375,7322.710635875,7323.820668417,1,0.754129041999477
110,22,14,categorization,0,kitchen,SHINEd_sun_agubuxuukhzyzpdp.tif,88,0.0666666666666667,0.0666666666666667,0.85,7323.829413542,7324.549259,9,7323.893959833,7323.961899167,7324.567858833,7325.4112345,1,0.719845458000236
110,23,14,categorization,0,kitchen,SHINEd_sun_ajcbwwvdlsvjyzje.tif,96,0.0666666666666667,0.0666666666666667,1.81666666666667,7325.427411875,7325.979009167,13,7325.493583292,7325.559922,7325.995795292,7327.80583225,0,0.551597292000224
110,24,14,categorization,0,kitchen,SHINEd_sun_aixorpehvfykdynp.tif,95,0.0666666666666667,0.0666666666666667,1.81666666666667,7327.821051583,7328.438201,9,7327.888672458,7327.953438792,7328.458172042,7330.268214625,1,0.617149417000292
110,25,14,categorization,0,bathroom,SHINEd_sun_axldvoqbuvuggfmq.tif,57,0.0666666666666667,0.0666666666666667,1.33333333333333,7330.284890042,7330.903975042,9,7330.351339083,7330.417661958,7330.92237525,7332.249086375,0,0.619084999999359
110,26,14,categorization,0,bathroom,SHINEd_sun_alkosphxlxwjwgjd.tif,34,0.0666666666666667,0.0666666666666667,1,7332.265504333,7332.834765042,9,7332.332160292,7332.398421375,7332.854593917,7333.847968833,0,0.569260709000446
110,27,14,categorization,0,kitchen,SHINEd_sun_akcjzhbbjlbogpdi.tif,99,0.0666666666666667,0.0666666666666667,1.13333333333333,7333.862531417,7334.411734708,9,7333.929040125,7333.986831333,7334.422180708,7335.548879333,1,0.549203290999685
110,28,14,categorization,0,bathroom,SHINEd_sun_agyqfjcfkdcydepw.tif,25,0.0666666666666667,0.0666666666666667,1.16666666666667,7335.558485667,7336.031737083,9,7335.624610167,7335.691138083,7336.046666292,7337.206701333,0,0.473251415999584
110,29,14,categorization,0,kitchen,SHINEd_sun_ahpczsiumwwocjkv.tif,92,0.0666666666666667,0.0666666666666667,0.75,7337.223651083,7338.515225625,9,7337.290269167,7337.3563055,7338.525629042,7339.268968417,1,1.29157454200049
110,30,14,categorization,0,bathroom,SHINEd_sun_aclfzgynxzxlbepz.tif,19,0.0666666666666667,0.0666666666666667,0.85,7339.273900083,7339.803804125,13,7339.3358005,7339.396677417,7339.815613958,7340.658952167,1,0.529904042000453
110,31,14,categorization,0,bathroom,SHINEd_sun_apeeialkgkuxddgh.tif,42,0.0666666666666667,0.0666666666666667,1.28333333333333,7340.663974375,7341.099342208,13,7340.725780042,7340.786859125,7341.105162167,7342.381882708,1,0.435367832999873
110,32,14,categorization,0,kitchen,SHINEd_sun_aypmqwcualkenuoe.tif,109,0.0666666666666667,0.0666666666666667,0.9,7342.399577875,7343.347956708,13,7342.465823875,7342.532426083,7343.372169167,7344.265507917,0,0.948378832999879
110,33,14,categorization,0,bathroom,SHINEd_sun_anhioqovhscjqqwb.tif,38,0.0666666666666667,0.0666666666666667,0.766666666666667,7344.270416833,7344.778750125,13,7344.332191167,7344.39319675,7344.795376833,7345.555382333,1,0.508333292000316
110,34,14,categorization,0,bathroom,SHINEd_sun_aspsyogrekjtfozg.tif,50,0.0666666666666667,0.0666666666666667,1.5,7345.559881375,7346.019650917,13,7345.621659583,7345.682549208,7346.03438775,7347.527774583,1,0.459769541999776
110,35,14,categorization,0,kitchen,SHINEd_sun_acxkpeoqbwcxfvip.tif,77,0.0666666666666667,0.0666666666666667,0.8,7347.544017875,7348.140122167,9,7347.61175825,7347.676889292,7348.166306042,7348.959661583,1,0.596104292000746
110,36,14,categorization,0,bathroom,SHINEd_sun_aavhrsfjbserjtht.tif,13,0.0666666666666667,0.0666666666666667,0.75,7348.968538542,7349.683212625,9,7349.034770333,7349.1011035,7349.68665125,7350.42998925,0,0.714674083000318
110,37,14,categorization,0,kitchen,SHINEd_sun_aqeaevwwwjoqhzvl.tif,101,0.0666666666666667,0.0666666666666667,1.83333333333333,7350.434869583,7351.275478833,9,7350.496559792,7350.55758425,7351.292913292,7353.119623125,1,0.840609249999943
110,38,14,categorization,0,bathroom,SHINEd_sun_acduarbnmmoglmiv.tif,16,0.0666666666666667,0.0666666666666667,0.933333333333333,7353.136890042,7353.871218458,9,7353.203373208,7353.269463167,7353.892756125,7354.81942725,0,0.734328415999698
110,39,14,categorization,0,kitchen,SHINEd_sun_ahdycvpopffkzzsu.tif,90,0.0666666666666667,0.0666666666666667,1.61666666666667,7354.824330458,7355.530879083,13,7354.886014833,7354.947207708,7355.549052958,7357.159089417,0,0.706548625000323
110,40,14,categorization,0,kitchen,SHINEd_sun_avszsnwsbuqfgzbn.tif,105,0.0666666666666667,0.0666666666666667,0.883333333333333,7357.175809333,7357.912240542,9,7357.242513625,7357.308608042,7357.930980708,7358.807652083,1,0.73643120900033
110,41,14,categorization,0,bathroom,SHINEd_sun_anryaplzeujmzfkd.tif,39,0.0666666666666667,0.0666666666666667,1.35,7358.812611625,7359.426776667,13,7358.874298958,7358.935397708,7359.437383458,7360.780751833,1,0.614165042000423
110,42,14,categorization,0,kitchen,SHINEd_labelme_rykdqxenmhulbdn.tif,63,0.0666666666666667,0.0666666666666667,1.35,7360.79826325,7361.736492083,9,7360.864354792,7360.929482458,7361.751763792,7363.095137208,1,0.938228832999812
110,43,14,categorization,0,kitchen,SHINEd_sun_amjjdeyrggfqgmom.tif,100,0.0666666666666667,0.0666666666666667,1.66666666666667,7363.116003833,7363.879545167,9,7363.182092208,7363.248677792,7363.90496425,7365.56500375,1,0.763541334000365
110,44,14,categorization,0,bathroom,SHINEd_sun_apkxzenqapsujocq.tif,45,0.0666666666666667,0.0666666666666667,0.766666666666667,7365.582926833,7366.166169875,13,7365.648984208,7365.71566875,7366.18885625,7366.948897167,1,0.583243042000504
110,45,14,categorization,0,kitchen,SHINEd_sun_ahspylgoovwmwvgk.tif,93,0.0666666666666667,0.0666666666666667,1.18333333333333,7366.960098167,7367.762613625,13,7367.022987208,7367.083087375,7367.76845075,7368.945156875,0,0.802515458000016
110,46,14,categorization,0,kitchen,SHINEd_sun_aehawpgmrlhlvcow.tif,81,0.0666666666666667,0.0666666666666667,1.43333333333333,7368.953969958,7369.589035708,9,7369.019653042,7369.086616833,7369.609225042,7371.035935083,1,0.63506574999974
110,47,14,categorization,0,bathroom,SHINEd_sun_apkruvsevgegsdwp.tif,44,0.0666666666666667,0.0666666666666667,0.933333333333333,7371.051813458,7371.620605083,13,7371.119585958,7371.184216125,7371.640302375,7372.567012667,1,0.568791624999903
110,48,14,categorization,0,bathroom,SHINEd_sun_abapwbhyhkfixyex.tif,14,0.0666666666666667,0.0666666666666667,1.23333333333333,7372.581755167,7373.242846792,13,7372.648310792,7372.714201083,7373.249722333,7374.476442958,1,0.661091625000154
110,49,14,categorization,0,kitchen,SHINEd_sun_akchetnepxlcxhsu.tif,98,0.0666666666666667,0.0666666666666667,0.783333333333333,7374.492933792,7374.981815208,13,7374.559369125,7374.626647583,7374.999493458,7375.776198458,0,0.488881415999458
110,50,14,categorization,0,kitchen,SHINEd_labelme_brsyyvweiuaazfr.tif,61,0.0666666666666667,0.0666666666666667,1.05,7375.788800458,7376.5073325,9,7375.855295,7375.9213965,7376.5238275,7377.567206583,1,0.718532042000334
