sub_num,trial,block,task,is_practice,category,image,texture,duration,mask_dur,jitter,stim_time,time_of_resp,trial_response,mask_time,fix_time,jit_onset,trial_end,trial_accuracy,RT
110,1,0,categorization,1,kitchen,SHINEd_kitchen_practice5.tif,120,0.0666666666666667,0.0666666666666667,1.21666666666667,5701.161699542,5702.154358375,9,5701.227682208,5701.288650208,5702.175297667,5703.385522208,1,0.99265883299995
110,2,0,categorization,1,kitchen,SHINEd_kitchen_practice2.tif,117,0.0666666666666667,0.0666666666666667,1.36666666666667,5703.441406292,5704.274695917,13,5703.514557625,5703.5748375,5704.318374667,5705.678622958,0,0.833289625000361
110,3,0,categorization,1,bathroom,SHINEd_bathroom_practice4.tif,114,0.0666666666666667,0.0666666666666667,1.85,5705.730371292,5706.37397975,13,5705.804677792,5705.865376,5706.40854725,5708.2521165,1,0.643608458000017
110,4,0,categorization,1,kitchen,SHINEd_kitchen_practice3.tif,118,0.0666666666666667,0.0666666666666667,1.55,5708.277337292,5709.356830958,13,5708.347372625,5708.411059083,5709.387224167,5710.930736458,0,1.07949366599951
110,5,0,categorization,1,bathroom,SHINEd_bathroom_practice1.tif,111,0.0666666666666667,0.0666666666666667,1.48333333333333,5710.950181667,5711.665019542,13,5711.025331125,5711.084460125,5711.697342667,5713.175122125,1,0.71483787499983
110,6,0,categorization,1,kitchen,SHINEd_kitchen_practice1.tif,116,0.0666666666666667,0.0666666666666667,1.15,5713.205495625,5713.782863833,9,5713.27446725,5713.339690625,5713.815328667,5714.958840667,1,0.577368207999825
110,7,0,categorization,1,bathroom,SHINEd_bathroom_practice2.tif,112,0.0666666666666667,0.0666666666666667,0.733333333333333,5714.971055083,5715.635227,9,5715.038281708,5715.10525875,5715.662380333,5716.389222083,0,0.664171917000203
110,8,0,categorization,1,bathroom,SHINEd_bathroom_practice5.tif,115,0.0666666666666667,0.0666666666666667,1.6,5716.40683775,5717.417815917,9,5716.474229583,5716.53952775,5717.425698458,5719.019087125,0,1.01097816699985
110,9,0,categorization,1,kitchen,SHINEd_kitchen_practice4.tif,119,0.0666666666666667,0.0666666666666667,0.716666666666667,5719.040080458,5720.244106958,9,5719.106877,5719.173127625,5720.262716625,5720.972722375,1,1.2040264999996
110,10,0,categorization,1,bathroom,SHINEd_bathroom_practice3.tif,113,0.0666666666666667,0.0666666666666667,1.21666666666667,5720.977876417,5721.665481458,13,5721.039607042,5721.100765708,5721.669281,5722.879318875,1,0.687605041000097
110,1,0,categorization,1,kitchen,SHINEd_kitchen_practice5.tif,120,0.0666666666666667,0.0666666666666667,1.21666666666667,5736.370333042,5737.537684833,13,5736.432165708,5736.493302417,5737.545250458,5738.755307167,0,1.16735179099942
110,2,0,categorization,1,kitchen,SHINEd_kitchen_practice2.tif,117,0.0666666666666667,0.0666666666666667,1.36666666666667,5738.7746535,5739.4101465,9,5738.841329,5738.905650042,5739.427824083,5740.787870333,1,0.635493000000679
110,3,0,categorization,1,bathroom,SHINEd_bathroom_practice4.tif,114,0.0666666666666667,0.0666666666666667,1.85,5740.806361375,5741.444736625,13,5740.873124,5740.934512208,5741.474208333,5743.317582583,1,0.638375249999626
110,4,0,categorization,1,kitchen,SHINEd_kitchen_practice3.tif,118,0.0666666666666667,0.0666666666666667,1.55,5743.334340042,5743.933932292,9,5743.402338708,5743.467137333,5743.956858458,5745.500241417,1,0.59959224999966
110,5,0,categorization,1,bathroom,SHINEd_bathroom_practice1.tif,111,0.0666666666666667,0.0666666666666667,1.48333333333333,5745.517165875,5746.084126917,13,5745.58362725,5745.650181625,5746.106577958,5747.583281,1,0.566961042000003
110,6,0,categorization,1,kitchen,SHINEd_kitchen_practice1.tif,116,0.0666666666666667,0.0666666666666667,1.15,5747.601043,5748.195296375,9,5747.667308167,5747.73421075,5748.223722,5749.367093625,1,0.594253375000335
110,7,0,categorization,1,bathroom,SHINEd_bathroom_practice2.tif,112,0.0666666666666667,0.0666666666666667,0.733333333333333,5749.384593833,5750.150171917,9,5749.450901917,5749.517562,5750.174225917,5750.900946542,0,0.765578084000481
110,8,0,categorization,1,bathroom,SHINEd_bathroom_practice5.tif,115,0.0666666666666667,0.0666666666666667,1.6,5750.911875833,5751.785303792,9,5750.977018208,5751.044271708,5751.796702167,5753.390090917,0,0.873427959000765
110,9,0,categorization,1,kitchen,SHINEd_kitchen_practice4.tif,119,0.0666666666666667,0.0666666666666667,0.716666666666667,5753.40799625,5754.627414625,9,5753.475298708,5753.54114475,5754.647691125,5755.357698083,1,1.2194183749998
110,10,0,categorization,1,bathroom,SHINEd_bathroom_practice3.tif,113,0.0666666666666667,0.0666666666666667,1.21666666666667,5755.362859,5755.872957625,13,5755.424634125,5755.4856365,5755.887505,5757.097558625,1,0.510098624999955
110,1,1,categorization,0,kitchen,SHINEd_sun_avszsnwsbuqfgzbn.tif,105,0.0666666666666667,0.0666666666666667,1.23333333333333,5784.165342083,5785.009106667,9,5784.227408875,5784.288106583,5785.023330292,5786.250029875,1,0.843764584000382
110,2,1,categorization,0,kitchen,SHINEd_labelme_brsyyvweiuaazfr.tif,61,0.0666666666666667,0.0666666666666667,0.783333333333333,5786.267315667,5786.8943115,9,5786.334413292,5786.399700125,5786.903466667,5787.680174125,1,0.626995833000365
110,3,1,categorization,0,kitchen,SHINEd_sun_ahdycvpopffkzzsu.tif,90,0.0666666666666667,0.0666666666666667,0.75,5787.69569425,5788.625460917,13,5787.762268417,5787.828052125,5788.630455833,5789.373792917,0,0.929766666999967
110,4,1,categorization,0,bathroom,SHINEd_sun_agrwbmhcpmfuwmsg.tif,24,0.0666666666666667,0.0666666666666667,1.23333333333333,5789.378722,5790.113255875,9,5789.44038775,5789.501473625,5790.120006792,5791.346727208,0,0.734533874999215
110,5,1,categorization,0,bathroom,SHINEd_sun_awnqiikzaispgmwo.tif,56,0.0666666666666667,0.0666666666666667,1.13333333333333,5791.362284333,5791.979612708,13,5791.42874125,5791.495103292,5792.001561958,5793.128280708,1,0.617328374999488
110,6,1,categorization,0,kitchen,SHINEd_sun_aymvwlarqodbwuoc.tif,108,0.0666666666666667,0.0666666666666667,0.95,5793.138703625,5793.857086417,9,5793.205364542,5793.263085458,5793.865019,5794.808356167,1,0.718382791999829
110,7,1,categorization,0,bathroom,SHINEd_sun_ahcvzmoyaycdoftf.tif,27,0.0666666666666667,0.0666666666666667,0.733333333333333,5794.813163708,5795.537161417,13,5794.874766875,5794.935862458,5795.555005917,5796.281677333,1,0.723997709000287
110,8,1,categorization,0,bathroom,SHINEd_sun_ambriybtogmepttm.tif,36,0.0666666666666667,0.0666666666666667,1.31666666666667,5796.286256708,5796.976977625,9,5796.347832875,5796.408908042,5796.993953042,5798.304001625,0,0.690720916999453
110,9,1,categorization,0,bathroom,SHINEd_sun_apynckhmoftszqoq.tif,47,0.0666666666666667,0.0666666666666667,0.8,5798.32208075,5799.116249375,13,5798.388667625,5798.454273667,5799.144042042,5799.9374295,1,0.794168624999656
110,10,1,categorization,0,kitchen,SHINEd_sun_aexklacwqwezaorf.tif,84,0.0666666666666667,0.0666666666666667,0.716666666666667,5799.954598792,5800.609839292,9,5800.019167208,5800.078653833,5800.61417525,5801.324179792,1,0.655240500000218
110,11,1,categorization,0,kitchen,SHINEd_sun_agorklincwxrdtga.tif,87,0.0666666666666667,0.0666666666666667,0.916666666666667,5801.328974833,5802.041008417,9,5801.390618708,5801.451643708,5802.053462708,5802.963468417,1,0.712033583999983
110,12,1,categorization,0,kitchen,SHINEd_sun_acwjdupvyjsugpay.tif,76,0.0666666666666667,0.0666666666666667,0.95,5802.969028917,5803.657070208,9,5803.030705792,5803.091685708,5803.660255417,5804.603593625,1,0.688041290999536
110,13,1,categorization,0,bathroom,SHINEd_sun_ahqjwnzgolcaoidx.tif,29,0.0666666666666667,0.0666666666666667,0.833333333333333,5804.608294375,5805.329124125,13,5804.669978417,5804.730991708,5805.332887583,5806.159557542,1,0.720829750000121
110,14,1,categorization,0,kitchen,SHINEd_sun_aehawpgmrlhlvcow.tif,81,0.0666666666666667,0.0666666666666667,0.75,5806.164255167,5806.85771425,9,5806.225925958,5806.286890083,5806.872401958,5807.615739042,1,0.693459082999652
110,15,1,categorization,0,bathroom,SHINEd_sun_afcoljnjfoxjtgja.tif,20,0.0666666666666667,0.0666666666666667,1.53333333333333,5807.620531333,5808.328902667,9,5807.682185375,5807.743225792,5808.345155167,5809.871869958,0,0.708371333999821
110,16,1,categorization,0,bathroom,SHINEd_sun_amzlamotzwfkwjco.tif,37,0.0666666666666667,0.0666666666666667,1.05,5809.889116,5810.750618792,9,5809.955736792,5810.022167583,5810.778575042,5811.821958958,0,0.861502791999555
110,17,1,categorization,0,bathroom,SHINEd_labelme_sfxiulhjbhlyiyt.tif,11,0.0666666666666667,0.0666666666666667,0.9,5811.830238875,5812.502140167,13,5811.89453975,5811.961843792,5812.518064458,5813.411437042,1,0.671901292000257
110,18,1,categorization,0,bathroom,SHINEd_sun_aghyqhbptboemmoq.tif,23,0.0666666666666667,0.0666666666666667,1.18333333333333,5813.4280775,5813.953177958,13,5813.494443792,5813.5607435,5813.962908458,5815.139618583,1,0.525100458000452
110,19,1,categorization,0,kitchen,SHINEd_sun_aunzlwrbjumxhwdj.tif,103,0.0666666666666667,0.0666666666666667,0.9,5815.148969292,5815.931966667,9,5815.216536708,5815.281300583,5815.954516292,5816.8478885,1,0.782997374999468
110,20,1,categorization,0,kitchen,SHINEd_sun_adgqasybjyktddhj.tif,78,0.0666666666666667,0.0666666666666667,1.66666666666667,5816.861020542,5817.769356458,9,5816.926307792,5816.994231583,5817.780215,5819.44025,1,0.908335916000397
110,21,1,categorization,0,bathroom,SHINEd_sun_apkxzenqapsujocq.tif,45,0.0666666666666667,0.0666666666666667,1.13333333333333,5819.458394667,5820.066578875,13,5819.524971375,5819.591279542,5820.080276375,5821.206987958,1,0.608184208000239
110,22,1,categorization,0,kitchen,SHINEd_sun_auticobqsbwgoppi.tif,104,0.0666666666666667,0.0666666666666667,1.3,5821.215796458,5822.454233708,13,5821.28034125,5821.349599792,5822.47378525,5823.767173417,0,1.23843725000006
110,23,1,categorization,0,bathroom,SHINEd_sun_axxbkopsgyouuebh.tif,58,0.0666666666666667,0.0666666666666667,1.93333333333333,5823.7840265,5824.372639042,13,5823.852359458,5823.916702542,5824.389352625,5826.316061292,1,0.588612541999282
110,24,1,categorization,0,bathroom,SHINEd_sun_asfwthctfqerjvxr.tif,49,0.0666666666666667,0.0666666666666667,1,5826.333297542,5827.078892667,9,5826.399627042,5826.465879333,5827.105555542,5828.098894792,0,0.745595125000364
110,25,1,categorization,0,bathroom,SHINEd_sun_avhrdrntsqrjzccq.tif,55,0.0666666666666667,0.0666666666666667,0.883333333333333,5828.103926375,5828.721859083,9,5828.165710708,5828.226644417,5828.7286755,5829.605347333,0,0.617932707999898
110,26,1,categorization,0,kitchen,SHINEd_sun_azmutvzbxypaceni.tif,110,0.0666666666666667,0.0666666666666667,1.95,5829.610197792,5830.281836167,9,5829.67189925,5829.732954708,5830.302073292,5832.245463917,1,0.67163837499993
110,27,1,categorization,0,kitchen,SHINEd_sun_aegoxogugdkwpmpj.tif,80,0.0666666666666667,0.0666666666666667,1.25,5832.263389708,5832.89185525,9,5832.330065542,5832.396426833,5832.918077958,5834.161467083,1,0.628465541999503
110,28,1,categorization,0,kitchen,SHINEd_sun_ahljzhgcdpomplvg.tif,91,0.0666666666666667,0.0666666666666667,1.95,5834.178622708,5834.677484792,13,5834.245781042,5834.311597083,5834.701681208,5836.645069583,0,0.498862083999484
110,29,1,categorization,0,kitchen,SHINEd_sun_akcjzhbbjlbogpdi.tif,99,0.0666666666666667,0.0666666666666667,1.91666666666667,5836.662195667,5837.387755833,9,5836.72887075,5836.794929625,5837.418635375,5839.328691125,1,0.725560165999923
110,30,1,categorization,0,bathroom,SHINEd_sun_aspsyogrekjtfozg.tif,50,0.0666666666666667,0.0666666666666667,1.41666666666667,5839.343571583,5840.349217875,13,5839.410353375,5839.476547,5840.366154875,5841.776201917,1,1.00564629200016
110,31,1,categorization,0,bathroom,SHINEd_sun_aofnryafpsjimzsb.tif,40,0.0666666666666667,0.0666666666666667,0.716666666666667,5841.794576542,5842.755417458,13,5841.861681292,5841.927389042,5842.764948875,5843.47495925,1,0.960840916000052
110,32,1,categorization,0,kitchen,SHINEd_sun_auaiucuqpdausiva.tif,102,0.0666666666666667,0.0666666666666667,1.28333333333333,5843.481022833,5844.216635625,9,5843.542781125,5843.604223875,5844.222703042,5845.499408167,1,0.735612792000211
110,33,1,categorization,0,kitchen,SHINEd_sun_aapllqyqlykszopd.tif,66,0.0666666666666667,0.0666666666666667,0.9,5845.517397,5846.241046667,9,5845.583488708,5845.649996083,5846.255695917,5847.14908525,1,0.723649667000245
110,34,1,categorization,0,bathroom,SHINEd_sun_agguqiubmwhqqunb.tif,22,0.0666666666666667,0.0666666666666667,0.8,5847.165245042,5847.881428292,13,5847.231582333,5847.297897208,5847.900388833,5848.69372575,1,0.71618325000054
110,35,1,categorization,0,bathroom,SHINEd_sun_akiytfaagpdsphgz.tif,31,0.0666666666666667,0.0666666666666667,1.01666666666667,5848.698496667,5849.361193375,13,5848.76030125,5848.821215083,5849.373155917,5850.383187375,1,0.662696708000112
110,36,1,categorization,0,bathroom,SHINEd_sun_alotolagknyrgtsk.tif,35,0.0666666666666667,0.0666666666666667,0.85,5850.391758,5851.083236042,9,5850.455914208,5850.522387875,5851.112100833,5851.955475708,0,0.691478042000199
110,37,1,categorization,0,kitchen,SHINEd_sun_aypmqwcualkenuoe.tif,109,0.0666666666666667,0.0666666666666667,1.51666666666667,5851.971235042,5852.648791542,9,5852.0377065,5852.103996083,5852.656632333,5854.16669275,1,0.67755649999981
110,38,1,categorization,0,kitchen,SHINEd_sun_ajcbwwvdlsvjyzje.tif,96,0.0666666666666667,0.0666666666666667,1.83333333333333,5854.184577375,5855.014287333,9,5854.251628375,5854.317133667,5855.040299917,5856.867014833,1,0.829709957999512
110,39,1,categorization,0,bathroom,SHINEd_sun_aavhrsfjbserjtht.tif,13,0.0666666666666667,0.0666666666666667,0.716666666666667,5856.884136208,5857.547849,9,5856.94856275,5857.016705625,5857.573317583,5858.283322208,0,0.663712791999387
110,40,1,categorization,0,kitchen,SHINEd_sun_ajkqhtgcbgpcwrwn.tif,97,0.0666666666666667,0.0666666666666667,0.9,5858.288186625,5858.753326417,13,5858.349917292,5858.41087925,5858.762618667,5859.655956208,0,0.465139791999718
110,41,1,categorization,0,bathroom,SHINEd_sun_apjevzvycyhuqghb.tif,43,0.0666666666666667,0.0666666666666667,0.916666666666667,5859.66087425,5860.377327917,9,5859.72255225,5859.783622625,5860.38545,5861.295455333,0,0.716453666999769
110,42,1,categorization,0,bathroom,SHINEd_sun_aggnnqpdorgxpvce.tif,21,0.0666666666666667,0.0666666666666667,0.816666666666667,5861.300257583,5862.153348792,9,5861.362041375,5861.423039708,5862.158171542,5862.968175792,0,0.853091209000013
110,43,1,categorization,0,bathroom,SHINEd_sun_atstyziqcmkahyxk.tif,51,0.0666666666666667,0.0666666666666667,1.88333333333333,5862.97296825,5863.616710458,13,5863.034650125,5863.095622,5863.630963625,5865.507676708,1,0.643742207999821
110,44,1,categorization,0,kitchen,SHINEd_sun_abrcnpqqhmjwekyf.tif,73,0.0666666666666667,0.0666666666666667,0.9,5865.526263917,5866.166940458,13,5865.592680792,5865.658934208,5866.180244708,5867.073581708,0,0.640676541000175
110,45,1,categorization,0,kitchen,SHINEd_sun_acgtpgfybqjmzeyw.tif,75,0.0666666666666667,0.0666666666666667,1,5867.078408667,5867.720819625,9,5867.140048583,5867.201152333,5867.7365485,5868.729886125,1,0.642410958000255
110,46,1,categorization,0,bathroom,SHINEd_sun_ajlawzvmubibwbpy.tif,30,0.0666666666666667,0.0666666666666667,0.733333333333333,5868.735799792,5869.856678667,9,5868.797609917,5868.858515917,5869.860696833,5870.587367292,0,1.12087887500002
110,47,1,categorization,0,bathroom,SHINEd_sun_agyqfjcfkdcydepw.tif,25,0.0666666666666667,0.0666666666666667,0.883333333333333,5870.592154458,5871.64873325,13,5870.653894458,5870.714831375,5871.667026583,5872.54369875,1,1.05657879200044
110,48,1,categorization,0,bathroom,SHINEd_sun_alkosphxlxwjwgjd.tif,34,0.0666666666666667,0.0666666666666667,1.73333333333333,5872.548553917,5873.86477875,9,5872.610293333,5872.671263792,5873.873172667,5875.599879833,0,1.31622483299998
110,49,1,categorization,0,kitchen,SHINEd_sun_aixorpehvfykdynp.tif,95,0.0666666666666667,0.0666666666666667,1.91666666666667,5875.616795458,5876.710034917,9,5875.683029833,5875.749251625,5876.738829458,5878.648867625,1,1.09323945899996
110,50,1,categorization,0,kitchen,SHINEd_sun_akchetnepxlcxhsu.tif,98,0.0666666666666667,0.0666666666666667,1.35,5878.66534175,5879.374888125,13,5878.732065417,5878.797905417,5879.404457208,5880.747843083,0,0.709546375000173
110,1,2,categorization,0,kitchen,SHINEd_sun_aaxxjlsuzvqlgylf.tif,68,0.0666666666666667,0.0666666666666667,0.95,5893.133548542,5893.992879167,9,5893.195306667,5893.256377625,5894.008468625,5894.951806625,1,0.859330624999529
110,2,2,categorization,0,bathroom,SHINEd_sun_anryaplzeujmzfkd.tif,39,0.0666666666666667,0.0666666666666667,0.75,5894.956644125,5895.769409,13,5895.018398875,5895.079434,5895.781293958,5896.524630625,1,0.812764875000539
110,3,2,categorization,0,kitchen,SHINEd_sun_abdenxonkemggwsq.tif,69,0.0666666666666667,0.0666666666666667,1.68333333333333,5896.529351583,5897.304653333,9,5896.591092875,5896.652108083,5897.320944208,5898.997630042,1,0.775301749999926
110,4,2,categorization,0,bathroom,SHINEd_sun_ahaulkltgpkeeemi.tif,26,0.0666666666666667,0.0666666666666667,0.816666666666667,5899.008412875,5899.765827417,13,5899.076329375,5899.141325875,5899.780181375,5900.590186917,1,0.757414541999424
110,5,2,categorization,0,kitchen,SHINEd_sun_aggjlwcdjsjcaemh.tif,86,0.0666666666666667,0.0666666666666667,0.916666666666667,5900.595137167,5901.369063917,13,5900.656800083,5900.717807333,5901.38628575,5902.296291625,0,0.773926750000101
110,6,2,categorization,0,bathroom,SHINEd_sun_aclfzgynxzxlbepz.tif,19,0.0666666666666667,0.0666666666666667,1.21666666666667,5902.302324042,5902.98525975,13,5902.36394025,5902.425026292,5902.993528375,5904.203574667,1,0.682935708000514
110,7,2,categorization,0,bathroom,SHINEd_sun_apeeialkgkuxddgh.tif,42,0.0666666666666667,0.0666666666666667,0.9,5904.221490708,5904.978100042,13,5904.288075875,5904.354763583,5904.993076292,5905.886452917,1,0.756609334000132
110,8,2,categorization,0,kitchen,SHINEd_sun_aenotlpyftoioydp.tif,82,0.0666666666666667,0.0666666666666667,1.65,5905.903497417,5906.488489833,9,5905.970056292,5906.036418667,5906.505606625,5908.1489805,1,0.584992416000205
110,9,2,categorization,0,bathroom,SHINEd_sun_ahijqszoswveeyji.tif,28,0.0666666666666667,0.0666666666666667,1.15,5908.166552125,5908.744972167,13,5908.233303792,5908.299666583,5908.772906833,5909.9162875,1,0.578420042000289
110,10,2,categorization,0,kitchen,SHINEd_sun_aqeaevwwwjoqhzvl.tif,101,0.0666666666666667,0.0666666666666667,1.13333333333333,5909.925033417,5910.906910083,13,5909.991942125,5910.05827075,5910.930959458,5912.057676333,0,0.981876666000062
110,11,2,categorization,0,bathroom,SHINEd_sun_aqrpegblszgcoujh.tif,48,0.0666666666666667,0.0666666666666667,1.76666666666667,5912.066591458,5913.012162958,13,5912.131505,5912.199239875,5913.039277083,5914.799319833,1,0.94557149999946
110,12,2,categorization,0,bathroom,SHINEd_sun_aljolscmmzydegqp.tif,33,0.0666666666666667,0.0666666666666667,1.8,5914.82441375,5915.474909958,9,5914.891303667,5914.952848625,5915.491809917,5917.285181,0,0.650496208000732
110,13,2,categorization,0,bathroom,SHINEd_sun_abapwbhyhkfixyex.tif,14,0.0666666666666667,0.0666666666666667,0.9,5917.298986958,5918.133572333,9,5917.365982583,5917.431387958,5918.154626625,5919.047965542,0,0.834585375000643
110,14,2,categorization,0,kitchen,SHINEd_sun_acxkpeoqbwcxfvip.tif,77,0.0666666666666667,0.0666666666666667,0.716666666666667,5919.053139958,5919.840934042,9,5919.114747667,5919.175905333,5919.844888958,5920.554892542,1,0.78779408399987
110,15,2,categorization,0,bathroom,SHINEd_sun_acgyywnybuveqsro.tif,18,0.0666666666666667,0.0666666666666667,1.36666666666667,5920.559693167,5921.065459042,13,5920.621562667,5920.682356333,5921.084077167,5922.444117167,1,0.505765875000179
110,16,2,categorization,0,bathroom,SHINEd_sun_apkruvsevgegsdwp.tif,44,0.0666666666666667,0.0666666666666667,0.916666666666667,5922.462325042,5923.113602958,13,5922.529102917,5922.595093958,5923.134195417,5924.044232542,1,0.651277916000254
110,17,2,categorization,0,bathroom,SHINEd_sun_aapitsgbtktqubfy.tif,12,0.0666666666666667,0.0666666666666667,0.716666666666667,5924.060730958,5924.713359667,9,5924.127311458,5924.19216375,5924.727886583,5925.437890833,0,0.652628709000055
110,18,2,categorization,0,kitchen,SHINEd_sun_abpwyqmlzafvklqo.tif,72,0.0666666666666667,0.0666666666666667,0.766666666666667,5925.442961625,5926.200770042,9,5925.504545708,5925.565647333,5926.21746775,5926.977473583,1,0.757808416999978
110,19,2,categorization,0,bathroom,SHINEd_sun_abjtwfukuwddzted.tif,15,0.0666666666666667,0.0666666666666667,1.06666666666667,5926.982281125,5927.761337042,9,5927.044059875,5927.104940833,5927.773823708,5928.83387025,0,0.779055917000733
110,20,2,categorization,0,bathroom,SHINEd_sun_acduarbnmmoglmiv.tif,16,0.0666666666666667,0.0666666666666667,0.8,5928.843807208,5929.968767292,13,5928.908499333,5928.975047042,5930.000662583,5930.7940505,1,1.12496008400012
110,21,2,categorization,0,kitchen,SHINEd_sun_afuyedyxivkhecmu.tif,85,0.0666666666666667,0.0666666666666667,0.866666666666667,5930.810749958,5931.521248625,9,5930.874856042,5930.933544958,5931.535625292,5932.395630167,1,0.710498667000138
110,22,2,categorization,0,kitchen,SHINEd_sun_agubuxuukhzyzpdp.tif,88,0.0666666666666667,0.0666666666666667,1.48333333333333,5932.402148708,5933.176402125,9,5932.463944625,5932.524769,5933.193292792,5934.669995125,1,0.774253417000182
110,23,2,categorization,0,bathroom,SHINEd_sun_apmqjbnwghzuhhzh.tif,46,0.0666666666666667,0.0666666666666667,1.1,5934.688938208,5935.370732708,13,5934.7552805,5934.822124042,5935.395485125,5936.488856042,1,0.681794500000251
110,24,2,categorization,0,bathroom,SHINEd_sun_aunuadmjocsddsrl.tif,52,0.0666666666666667,0.0666666666666667,0.783333333333333,5936.497752583,5937.294664167,13,5936.562416125,5936.630340458,5937.320462792,5938.097172083,1,0.796911583999645
110,25,2,categorization,0,kitchen,SHINEd_sun_ahywdevtimnqcsln.tif,94,0.0666666666666667,0.0666666666666667,0.866666666666667,5938.114073708,5938.657240167,9,5938.180661,5938.246882375,5938.6655625,5939.5255665,1,0.543166458999622
110,26,2,categorization,0,bathroom,SHINEd_sun_axldvoqbuvuggfmq.tif,57,0.0666666666666667,0.0666666666666667,1.83333333333333,5939.530527167,5940.312283125,9,5939.592129125,5939.653282,5940.321733125,5942.148457667,0,0.781755957999849
110,27,2,categorization,0,bathroom,SHINEd_sun_aoybiabnpadelefl.tif,41,0.0666666666666667,0.0666666666666667,0.7,5942.164208583,5943.341294833,9,5942.231424542,5942.296647333,5943.350567833,5944.043904917,0,1.17708624999977
110,28,2,categorization,0,kitchen,SHINEd_sun_ahspylgoovwmwvgk.tif,93,0.0666666666666667,0.0666666666666667,1.33333333333333,5944.048905208,5945.073115458,9,5944.110707833,5944.1716485,5945.0900385,5946.416756583,1,1.02421024999967
110,29,2,categorization,0,bathroom,SHINEd_sun_aleqenyvunhactkl.tif,32,0.0666666666666667,0.0666666666666667,1.33333333333333,5946.434901292,5946.96904,13,5946.501164375,5946.567894875,5946.989789958,5948.316503792,1,0.534138707999773
110,30,2,categorization,0,kitchen,SHINEd_sun_abftihopvusyfakt.tif,71,0.0666666666666667,0.0666666666666667,1.38333333333333,5948.338017125,5949.10425725,9,5948.405091958,5948.470758292,5949.126290042,5950.50300675,1,0.766240124999968
110,31,2,categorization,0,kitchen,SHINEd_sun_axyyrmzcupyhlivc.tif,107,0.0666666666666667,0.0666666666666667,1.25,5950.520479958,5951.681761833,9,5950.587171833,5950.653316708,5951.710376958,5952.953739708,1,1.16128187499999
110,32,2,categorization,0,bathroom,SHINEd_sun_ausgutylgojavyoq.tif,53,0.0666666666666667,0.0666666666666667,1.55,5952.964101833,5953.570097125,13,5953.032009083,5953.09743475,5953.587912958,5955.131305292,1,0.605995291999534
110,33,2,categorization,0,bathroom,SHINEd_sun_axyrejkiiaqiurjk.tif,59,0.0666666666666667,0.0666666666666667,1.61666666666667,5955.151312167,5956.020465125,9,5955.219409083,5955.285795708,5956.043619875,5957.653662333,0,0.869152958000086
110,34,2,categorization,0,kitchen,SHINEd_sun_awcpdzzznmweyyhv.tif,106,0.0666666666666667,0.0666666666666667,1.33333333333333,5957.673466458,5958.590017583,9,5957.74100125,5957.807536625,5958.613782833,5959.940496833,1,0.916551125000296
110,35,2,categorization,0,kitchen,SHINEd_sun_acfmftudsenhrfhy.tif,74,0.0666666666666667,0.0666666666666667,0.833333333333333,5959.958144042,5960.954866375,9,5960.025175667,5960.093618458,5960.965396708,5961.792069125,1,0.996722333000434
110,36,2,categorization,0,kitchen,SHINEd_sun_aeqdocilnnpuvuhx.tif,83,0.0666666666666667,0.0666666666666667,1.45,5961.797382542,5962.752403625,9,5961.859187333,5961.920328833,5962.772253708,5964.215638333,1,0.955021082999338
110,37,2,categorization,0,bathroom,SHINEd_sun_anhioqovhscjqqwb.tif,38,0.0666666666666667,0.0666666666666667,0.933333333333333,5964.233554458,5964.712908667,13,5964.3012195,5964.366743667,5964.738909208,5965.665633333,1,0.479354209000121
110,38,2,categorization,0,kitchen,SHINEd_sun_aamedkxepzlwuxes.tif,65,0.0666666666666667,0.0666666666666667,1.65,5965.682333458,5966.144262208,13,5965.748918792,5965.814896625,5966.1507015,5967.794069958,0,0.46192874999997
110,39,2,categorization,0,kitchen,SHINEd_sun_amjjdeyrggfqgmom.tif,100,0.0666666666666667,0.0666666666666667,1.23333333333333,5967.811707708,5968.62014,9,5967.880473292,5967.944036,5968.650580875,5969.877280958,1,0.808432292000361
110,40,2,categorization,0,kitchen,SHINEd_sun_admlmbcdswaszruo.tif,79,0.0666666666666667,0.0666666666666667,0.766666666666667,5969.896104625,5971.037889125,9,5969.962864917,5970.028846083,5971.051534292,5971.811545542,1,1.14178450000054
110,41,2,categorization,0,kitchen,SHINEd_labelme_rykdqxenmhulbdn.tif,63,0.0666666666666667,0.0666666666666667,1.78333333333333,5971.819290958,5973.216705375,9,5971.88111975,5971.942065125,5973.227648,5975.004369042,1,1.39741441699971
110,42,2,categorization,0,kitchen,SHINEd_sun_aarfiyshqohlwkmo.tif,67,0.0666666666666667,0.0666666666666667,1.11666666666667,5975.020952375,5976.122517208,9,5975.087851458,5975.153711375,5976.14341475,5977.253467292,1,1.10156483300034
110,43,2,categorization,0,bathroom,SHINEd_sun_auzqhkafidnkrwmo.tif,54,0.0666666666666667,0.0666666666666667,1.85,5977.262758542,5978.082909667,13,5977.328102042,5977.395021792,5978.0997595,5979.9431495,1,0.820151125000848
110,44,2,categorization,0,kitchen,SHINEd_labelme_kxvouciolcpqplr.tif,62,0.0666666666666667,0.0666666666666667,0.733333333333333,5979.956326333,5980.781667167,13,5980.026645292,5980.087997458,5980.811559875,5981.53823175,0,0.825340833999689
110,45,2,categorization,0,kitchen,SHINEd_sun_abdxkyyxwfskuaqb.tif,70,0.0666666666666667,0.0666666666666667,0.783333333333333,5981.543256667,5982.408862542,9,5981.60496525,5981.666088167,5982.418026083,5983.194697833,1,0.865605875000256
110,46,2,categorization,0,kitchen,SHINEd_sun_agzzivivdpnawacl.tif,89,0.0666666666666667,0.0666666666666667,1.5,5983.199371708,5984.304188125,13,5983.261133083,5983.3220395,5984.324567917,5985.817940875,0,1.10481641699971
110,47,2,categorization,0,bathroom,SHINEd_sun_azqyogdvyhahyram.tif,60,0.0666666666666667,0.0666666666666667,0.733333333333333,5985.838641833,5986.83001775,9,5985.905057417,5985.971322375,5986.84359225,5987.570264042,0,0.991375916999459
110,48,2,categorization,0,bathroom,SHINEd_sun_acegryoqftbzowsg.tif,17,0.0666666666666667,0.0666666666666667,1.1,5987.575334375,5988.288418958,13,5987.637130542,5987.697963917,5988.300266667,5989.393632417,1,0.713084582999727
110,49,2,categorization,0,kitchen,SHINEd_sun_aadbddgrdsjugojn.tif,64,0.0666666666666667,0.0666666666666667,1.6,5989.402779333,5990.422135167,13,5989.467742708,5989.535430458,5990.4416215,5992.034986708,0,1.01935583400063
110,50,2,categorization,0,kitchen,SHINEd_sun_ahpczsiumwwocjkv.tif,92,0.0666666666666667,0.0666666666666667,1.06666666666667,5992.047509875,5992.858781958,13,5992.114153583,5992.181186292,5992.887446667,5993.947496375,0,0.811272082999494
110,1,3,categorization,0,bathroom,SHINEd_sun_aggnnqpdorgxpvce.tif,21,0.0666666666666667,0.0666666666666667,0.85,6002.035775875,6002.969124792,13,6002.0975675,6002.158812625,6002.97730525,6003.820643625,1,0.93334891700033
110,2,3,categorization,0,kitchen,SHINEd_sun_aixorpehvfykdynp.tif,95,0.0666666666666667,0.0666666666666667,1.65,6003.825443792,6004.376426167,9,6003.887205292,6003.948133542,6004.383345667,6006.026725625,1,0.550982374999876
110,3,3,categorization,0,bathroom,SHINEd_sun_ambriybtogmepttm.tif,36,0.0666666666666667,0.0666666666666667,0.783333333333333,6006.043709208,6006.812489208,9,6006.11163575,6006.176246583,6006.832802792,6007.609473292,0,0.768780000000334
110,4,3,categorization,0,kitchen,SHINEd_sun_acgtpgfybqjmzeyw.tif,75,0.0666666666666667,0.0666666666666667,0.933333333333333,6007.614504667,6008.408503958,9,6007.67629275,6007.737209583,6008.422481917,6009.34915225,1,0.793999291000546
110,5,3,categorization,0,bathroom,SHINEd_sun_auzqhkafidnkrwmo.tif,54,0.0666666666666667,0.0666666666666667,0.866666666666667,6009.354116292,6009.944789333,13,6009.415939875,6009.476835292,6009.962016083,6010.822021,1,0.590673040999718
110,6,3,categorization,0,bathroom,SHINEd_sun_aqrpegblszgcoujh.tif,48,0.0666666666666667,0.0666666666666667,1.11666666666667,6010.826874,6011.368698583,9,6010.888983167,6010.949734625,6011.384879833,6012.49492275,0,0.541824582999652
110,7,3,categorization,0,bathroom,SHINEd_sun_apeeialkgkuxddgh.tif,42,0.0666666666666667,0.0666666666666667,0.966666666666667,6012.504039292,6013.023786958,13,6012.569092375,6012.636904667,6013.043237583,6014.003289083,1,0.519747665999603
110,8,3,categorization,0,kitchen,SHINEd_sun_ajcbwwvdlsvjyzje.tif,96,0.0666666666666667,0.0666666666666667,1.78333333333333,6014.019818167,6014.464834333,13,6014.086564958,6014.1523515,6014.471593042,6016.248310125,0,0.445016165999732
110,9,3,categorization,0,kitchen,SHINEd_sun_auaiucuqpdausiva.tif,102,0.0666666666666667,0.0666666666666667,1.55,6016.265048958,6017.22786625,13,6016.331413708,6016.398824292,6017.255535583,6018.798926708,0,0.962817292000182
110,10,3,categorization,0,kitchen,SHINEd_sun_aunzlwrbjumxhwdj.tif,103,0.0666666666666667,0.0666666666666667,1.41666666666667,6018.816258958,6019.5891015,9,6018.882490417,6018.944715625,6019.618172875,6021.028207375,1,0.772842542000035
110,11,3,categorization,0,kitchen,SHINEd_sun_afuyedyxivkhecmu.tif,85,0.0666666666666667,0.0666666666666667,0.8,6021.046094375,6021.715624417,9,6021.112914917,6021.1787685,6021.734347417,6022.527732083,1,0.669530041999678
110,12,3,categorization,0,bathroom,SHINEd_sun_avhrdrntsqrjzccq.tif,55,0.0666666666666667,0.0666666666666667,1.28333333333333,6022.544476542,6023.264349042,9,6022.611363667,6022.677281792,6023.279347417,6024.556064708,0,0.719872499999838
110,13,3,categorization,0,kitchen,SHINEd_sun_aaxxjlsuzvqlgylf.tif,68,0.0666666666666667,0.0666666666666667,1.66666666666667,6024.572795333,6025.335752042,9,6024.63926275,6024.705697792,6025.362441792,6027.022475375,1,0.762956709000719
110,14,3,categorization,0,bathroom,SHINEd_sun_ausgutylgojavyoq.tif,53,0.0666666666666667,0.0666666666666667,1.81666666666667,6027.040215167,6027.653344458,13,6027.106853125,6027.172666292,6027.678938667,6029.488997083,1,0.613129291000405
110,15,3,categorization,0,bathroom,SHINEd_sun_ajlawzvmubibwbpy.tif,30,0.0666666666666667,0.0666666666666667,1.35,6029.504930958,6030.42386675,9,6029.571348875,6029.637529333,6030.443709292,6031.787101083,0,0.918935792000411
110,16,3,categorization,0,bathroom,SHINEd_sun_aljolscmmzydegqp.tif,33,0.0666666666666667,0.0666666666666667,0.916666666666667,6031.805834833,6032.381110542,13,6031.872410625,6031.938767958,6032.394054792,6033.3041035,1,0.57527570900038
110,17,3,categorization,0,kitchen,SHINEd_sun_aeqdocilnnpuvuhx.tif,83,0.0666666666666667,0.0666666666666667,0.916666666666667,6033.315936542,6033.944713458,9,6033.382050125,6033.448213458,6033.950623708,6034.860627958,1,0.628776915999879
110,18,3,categorization,0,kitchen,SHINEd_sun_aegoxogugdkwpmpj.tif,80,0.0666666666666667,0.0666666666666667,1.31666666666667,6034.865527042,6035.488865875,9,6034.927307292,6034.988226042,6035.507377208,6036.81741175,1,0.623338832999252
110,19,3,categorization,0,bathroom,SHINEd_sun_awnqiikzaispgmwo.tif,56,0.0666666666666667,0.0666666666666667,1.45,6036.834852542,6037.321840417,13,6036.90213525,6036.96257775,6037.3326055,6038.77599425,1,0.486987875000523
110,20,3,categorization,0,bathroom,SHINEd_sun_ahqjwnzgolcaoidx.tif,29,0.0666666666666667,0.0666666666666667,0.95,6038.792469125,6039.549484875,13,6038.860789583,6038.923573208,6039.58013175,6040.523514167,1,0.757015750000392
110,21,3,categorization,0,bathroom,SHINEd_sun_aofnryafpsjimzsb.tif,40,0.0666666666666667,0.0666666666666667,1.38333333333333,6040.539395917,6041.280162875,9,6040.606010625,6040.672397958,6041.291017083,6042.667741292,0,0.740766958000677
110,22,3,categorization,0,bathroom,SHINEd_sun_aspsyogrekjtfozg.tif,50,0.0666666666666667,0.0666666666666667,1.16666666666667,6042.688450375,6043.437227958,9,6042.754627917,6042.821341208,6043.461026792,6044.621216417,0,0.748777583000447
110,23,3,categorization,0,bathroom,SHINEd_sun_alotolagknyrgtsk.tif,35,0.0666666666666667,0.0666666666666667,1.61666666666667,6044.630240625,6045.120598375,9,6044.697841125,6044.762837125,6045.134965417,6046.745016792,0,0.49035774999993
110,24,3,categorization,0,kitchen,SHINEd_sun_admlmbcdswaszruo.tif,79,0.0666666666666667,0.0666666666666667,1.38333333333333,6046.761481542,6047.50582225,9,6046.828127792,6046.894184292,6047.533912583,6048.910616042,1,0.744340707999982
110,25,3,categorization,0,kitchen,SHINEd_sun_auticobqsbwgoppi.tif,104,0.0666666666666667,0.0666666666666667,1.78333333333333,6048.919943125,6049.508327542,9,6048.984444708,6049.052228292,6049.52477775,6051.301493708,1,0.58838441700027
110,26,3,categorization,0,kitchen,SHINEd_sun_aadbddgrdsjugojn.tif,64,0.0666666666666667,0.0666666666666667,0.783333333333333,6051.321944667,6052.177376667,9,6051.388372375,6051.454873125,6052.194032375,6052.970706167,1,0.855432000000292
110,27,3,categorization,0,bathroom,SHINEd_sun_apjevzvycyhuqghb.tif,43,0.0666666666666667,0.0666666666666667,1.65,6052.976694083,6053.616858292,9,6053.038453833,6053.099425792,6053.634580375,6055.277966875,0,0.640164208999522
110,28,3,categorization,0,kitchen,SHINEd_sun_awcpdzzznmweyyhv.tif,106,0.0666666666666667,0.0666666666666667,1.86666666666667,6055.295252583,6056.286464708,9,6055.362406667,6055.427681708,6056.299397208,6058.159453875,1,0.991212124999947
110,29,3,categorization,0,bathroom,SHINEd_sun_alkosphxlxwjwgjd.tif,34,0.0666666666666667,0.0666666666666667,1.23333333333333,6058.171538208,6059.258574042,13,6058.2386,6058.304063208,6059.276878792,6060.503584583,1,1.08703583399983
110,30,3,categorization,0,kitchen,SHINEd_labelme_kxvouciolcpqplr.tif,62,0.0666666666666667,0.0666666666666667,0.7,6060.520357583,6061.835379958,13,6060.587127042,6060.652733917,6061.861254083,6062.554591917,0,1.3150223749999
110,31,3,categorization,0,kitchen,SHINEd_sun_aqeaevwwwjoqhzvl.tif,101,0.0666666666666667,0.0666666666666667,0.716666666666667,6062.559505125,6063.18402425,9,6062.621262167,6062.682318833,6063.200814583,6063.910819708,1,0.624519125000006
110,32,3,categorization,0,kitchen,SHINEd_sun_abrcnpqqhmjwekyf.tif,73,0.0666666666666667,0.0666666666666667,1.05,6063.915623667,6064.776455208,9,6063.977560292,6064.038393042,6064.7906995,6065.83408375,1,0.860831541000152
110,33,3,categorization,0,kitchen,SHINEd_sun_ahpczsiumwwocjkv.tif,92,0.0666666666666667,0.0666666666666667,1.1,6065.842680042,6066.531150292,9,6065.907457375,6065.973688458,6066.544740167,6067.638114417,1,0.688470250000137
110,34,3,categorization,0,kitchen,SHINEd_sun_agubuxuukhzyzpdp.tif,88,0.0666666666666667,0.0666666666666667,1.13333333333333,6067.655748625,6069.007921833,13,6067.722448958,6067.788180333,6069.023704542,6070.150421667,0,1.35217320799984
110,35,3,categorization,0,kitchen,SHINEd_sun_amjjdeyrggfqgmom.tif,100,0.0666666666666667,0.0666666666666667,1.38333333333333,6070.159115875,6070.781981125,9,6070.223490042,6070.29270375,6070.798491042,6072.175198708,1,0.622865250000359
110,36,3,categorization,0,kitchen,SHINEd_sun_ahdycvpopffkzzsu.tif,90,0.0666666666666667,0.0666666666666667,1.5,6072.191214,6073.021463583,13,6072.257491917,6072.323946542,6073.047006167,6074.5403745,0,0.830249582999386
110,37,3,categorization,0,kitchen,SHINEd_sun_akcjzhbbjlbogpdi.tif,99,0.0666666666666667,0.0666666666666667,1.61666666666667,6074.556237875,6075.609730958,9,6074.622814375,6074.688853042,6075.627862583,6077.237917708,1,1.05349308299992
110,38,3,categorization,0,bathroom,SHINEd_sun_anhioqovhscjqqwb.tif,38,0.0666666666666667,0.0666666666666667,0.983333333333333,6077.254451375,6077.815753833,13,6077.3214055,6077.3871205,6077.843636708,6078.820307958,1,0.561302457999773
110,39,3,categorization,0,bathroom,SHINEd_sun_asfwthctfqerjvxr.tif,49,0.0666666666666667,0.0666666666666667,1.3,6078.825605958,6079.824840708,13,6078.887259125,6078.948457417,6079.834315042,6081.127687625,1,0.999234750000142
110,40,3,categorization,0,bathroom,SHINEd_sun_aoybiabnpadelefl.tif,41,0.0666666666666667,0.0666666666666667,1.03333333333333,6081.143963667,6081.962957,9,6081.211904208,6081.276678958,6081.982907917,6083.009611667,0,0.818993332999526
110,41,3,categorization,0,bathroom,SHINEd_sun_abjtwfukuwddzted.tif,15,0.0666666666666667,0.0666666666666667,1.45,6083.019011417,6083.752785208,13,6083.083127917,6083.149931875,6083.773046792,6085.216424458,1,0.733773791000203
110,42,3,categorization,0,bathroom,SHINEd_sun_agyqfjcfkdcydepw.tif,25,0.0666666666666667,0.0666666666666667,1.23333333333333,6085.233907708,6086.125310333,9,6085.300728458,6085.366814708,6086.138909667,6087.3656295,0,0.89140262500041
110,43,3,categorization,0,kitchen,SHINEd_sun_ahywdevtimnqcsln.tif,94,0.0666666666666667,0.0666666666666667,1.26666666666667,6087.382498875,6088.555220708,13,6087.450538542,6087.515128875,6088.570378917,6089.830410917,0,1.17272183299974
110,44,3,categorization,0,kitchen,SHINEd_sun_agorklincwxrdtga.tif,87,0.0666666666666667,0.0666666666666667,1.03333333333333,6089.847878333,6090.733863208,9,6089.915824375,6089.980955708,6090.754119958,6091.780823958,1,0.885984874999849
110,45,3,categorization,0,bathroom,SHINEd_sun_acduarbnmmoglmiv.tif,16,0.0666666666666667,0.0666666666666667,1.31666666666667,6091.7903125,6092.428102917,9,6091.854885583,6091.92170225,6092.44446225,6093.754509542,0,0.637790416999451
110,46,3,categorization,0,kitchen,SHINEd_sun_abftihopvusyfakt.tif,71,0.0666666666666667,0.0666666666666667,1.7,6093.772192625,6094.608187,9,6093.837987625,6093.895896125,6094.614172333,6096.307540667,1,0.835994375000155
110,47,3,categorization,0,bathroom,SHINEd_sun_apkxzenqapsujocq.tif,45,0.0666666666666667,0.0666666666666667,1.35,6096.324708083,6097.084794583,13,6096.391852625,6096.4590525,6097.096911708,6098.440289083,1,0.760086500000398
110,48,3,categorization,0,kitchen,SHINEd_sun_aymvwlarqodbwuoc.tif,108,0.0666666666666667,0.0666666666666667,0.8,6098.452458542,6099.258123792,9,6098.51903475,6098.5851915,6099.274578542,6100.067958792,1,0.805665249999947
110,49,3,categorization,0,kitchen,SHINEd_sun_aypmqwcualkenuoe.tif,109,0.0666666666666667,0.0666666666666667,0.766666666666667,6100.081579917,6100.968783042,9,6100.144356333,6100.204506667,6100.973030958,6101.733036667,1,0.88720312499936
110,50,3,categorization,0,kitchen,SHINEd_sun_ahspylgoovwmwvgk.tif,93,0.0666666666666667,0.0666666666666667,1.38333333333333,6101.737897958,6102.4487005,9,6101.799805625,6101.860557625,6102.46259625,6103.839308083,1,0.710802542000238
110,1,4,categorization,0,kitchen,SHINEd_labelme_rykdqxenmhulbdn.tif,63,0.0666666666666667,0.0666666666666667,1,6110.437316625,6111.287750708,13,6110.499156417,6110.560063292,6111.295257208,6112.288594167,0,0.850434083000437
110,2,4,categorization,0,kitchen,SHINEd_sun_aamedkxepzlwuxes.tif,65,0.0666666666666667,0.0666666666666667,0.966666666666667,6112.293373417,6112.904090833,9,6112.355008625,6112.416065917,6112.91784975,6113.877855583,1,0.610717415999716
110,3,4,categorization,0,kitchen,SHINEd_sun_acxkpeoqbwcxfvip.tif,77,0.0666666666666667,0.0666666666666667,1.75,6113.884722375,6114.648653958,9,6113.946591708,6114.007429958,6114.659285792,6116.402659083,1,0.763931583000158
110,4,4,categorization,0,kitchen,SHINEd_sun_aggjlwcdjsjcaemh.tif,86,0.0666666666666667,0.0666666666666667,1.68333333333333,6116.420451417,6117.674480625,13,6116.486982375,6116.552883875,6117.692197042,6119.368912833,0,1.25402920800025
110,5,4,categorization,0,bathroom,SHINEd_sun_axxbkopsgyouuebh.tif,58,0.0666666666666667,0.0666666666666667,1.58333333333333,6119.387698875,6120.011577125,13,6119.4543555,6119.520468875,6120.02611125,6121.602828167,1,0.623878250000416
110,6,4,categorization,0,bathroom,SHINEd_sun_abapwbhyhkfixyex.tif,14,0.0666666666666667,0.0666666666666667,1,6121.620716208,6122.349412417,9,6121.687206417,6121.753402917,6122.376545375,6123.369884292,0,0.728696209000191
110,7,4,categorization,0,kitchen,SHINEd_sun_ahljzhgcdpomplvg.tif,91,0.0666666666666667,0.0666666666666667,1.33333333333333,6123.374789792,6124.256343417,9,6123.436382875,6123.497646125,6124.266376833,6125.593098042,1,0.881553624999469
110,8,4,categorization,0,bathroom,SHINEd_sun_amzlamotzwfkwjco.tif,37,0.0666666666666667,0.0666666666666667,1.26666666666667,6125.60981125,6126.893810667,9,6125.67732975,6125.742465667,6126.915573167,6128.175606458,0,1.2839994169999
110,9,4,categorization,0,kitchen,SHINEd_sun_aehawpgmrlhlvcow.tif,81,0.0666666666666667,0.0666666666666667,0.883333333333333,6128.191658292,6129.280843875,9,6128.259123958,6128.324092083,6129.296405208,6130.173075542,1,1.08918558299956
110,10,4,categorization,0,bathroom,SHINEd_sun_aunuadmjocsddsrl.tif,52,0.0666666666666667,0.0666666666666667,1.26666666666667,6130.178098083,6131.247659625,13,6130.239812917,6130.300775,6131.252714458,6132.512763375,1,1.06956154199997
110,11,4,categorization,0,bathroom,SHINEd_sun_aghyqhbptboemmoq.tif,23,0.0666666666666667,0.0666666666666667,2,6132.530143125,6133.260444292,9,6132.59675725,6132.662999042,6133.285819708,6135.279194667,0,0.730301167000107
110,12,4,categorization,0,bathroom,SHINEd_sun_afcoljnjfoxjtgja.tif,20,0.0666666666666667,0.0666666666666667,0.733333333333333,6135.297167042,6135.972946083,13,6135.363653292,6135.429625083,6136.002539042,6136.729211042,1,0.675779041000169
110,13,4,categorization,0,kitchen,SHINEd_sun_abpwyqmlzafvklqo.tif,72,0.0666666666666667,0.0666666666666667,0.883333333333333,6136.734534042,6137.552009667,13,6136.796198417,6136.857353875,6137.559162042,6138.435832375,0,0.817475625000043
110,14,4,categorization,0,bathroom,SHINEd_sun_aleqenyvunhactkl.tif,32,0.0666666666666667,0.0666666666666667,0.983333333333333,6138.440714542,6139.312451708,9,6138.502339875,6138.563427167,6139.332092417,6140.308763958,0,0.871737165999548
110,15,4,categorization,0,bathroom,SHINEd_sun_apynckhmoftszqoq.tif,47,0.0666666666666667,0.0666666666666667,1.56666666666667,6140.31363075,6141.015828167,13,6140.3753555,6140.436693875,6141.021831542,6142.581890875,1,0.702197417000207
110,16,4,categorization,0,bathroom,SHINEd_sun_acgyywnybuveqsro.tif,18,0.0666666666666667,0.0666666666666667,1.08333333333333,6142.599062417,6143.064739958,13,6142.665148208,6142.731696667,6143.088345917,6144.16505875,1,0.465677541000332
110,17,4,categorization,0,kitchen,SHINEd_sun_adgqasybjyktddhj.tif,78,0.0666666666666667,0.0666666666666667,0.75,6144.174261375,6145.227759583,9,6144.239146625,6144.307042083,6145.246078667,6145.9894605,1,1.05349820799984
110,18,4,categorization,0,bathroom,SHINEd_labelme_sfxiulhjbhlyiyt.tif,11,0.0666666666666667,0.0666666666666667,0.966666666666667,6146.004165583,6146.735424917,13,6146.070730167,6146.136703583,6146.738913625,6147.698917625,1,0.731259334000242
110,19,4,categorization,0,bathroom,SHINEd_sun_acegryoqftbzowsg.tif,17,0.0666666666666667,0.0666666666666667,1.63333333333333,6147.703885292,6148.560448667,9,6147.765686292,6147.826545625,6148.578552833,6150.205264958,0,0.856563374999496
110,20,4,categorization,0,bathroom,SHINEd_sun_agguqiubmwhqqunb.tif,22,0.0666666666666667,0.0666666666666667,1.46666666666667,6150.221914708,6151.22501425,9,6150.288436333,6150.354946708,6151.244393792,6152.704449042,0,1.00309954199929
110,21,4,categorization,0,kitchen,SHINEd_sun_acfmftudsenhrfhy.tif,74,0.0666666666666667,0.0666666666666667,0.933333333333333,6152.719009792,6153.844903125,9,6152.785388333,6152.851486792,6153.874599625,6154.80127,1,1.12589333300002
110,22,4,categorization,0,bathroom,SHINEd_sun_apkruvsevgegsdwp.tif,44,0.0666666666666667,0.0666666666666667,1.45,6154.806097625,6155.424110292,13,6154.867751917,6154.928675292,6155.43089075,6156.874256542,1,0.618012666999675
110,23,4,categorization,0,kitchen,SHINEd_sun_aexklacwqwezaorf.tif,84,0.0666666666666667,0.0666666666666667,0.966666666666667,6156.891155083,6157.65249125,9,6156.955211417,6157.023775,6157.680232375,6158.640238167,1,0.761336167000081
110,24,4,categorization,0,kitchen,SHINEd_sun_abdxkyyxwfskuaqb.tif,70,0.0666666666666667,0.0666666666666667,0.816666666666667,6158.645162125,6159.512205875,9,6158.706897167,6158.767799042,6159.520034625,6160.330039208,1,0.867043750000448
110,25,4,categorization,0,kitchen,SHINEd_sun_acwjdupvyjsugpay.tif,76,0.0666666666666667,0.0666666666666667,1.96666666666667,6160.334967542,6161.528340083,9,6160.396649417,6160.457786667,6161.543523917,6163.503573625,1,1.19337254099992
110,26,4,categorization,0,bathroom,SHINEd_sun_ahaulkltgpkeeemi.tif,26,0.0666666666666667,0.0666666666666667,0.916666666666667,6163.521160208,6164.516567625,13,6163.587561375,6163.653638875,6164.543200458,6165.453204167,1,0.995407417000024
110,27,4,categorization,0,kitchen,SHINEd_sun_aapllqyqlykszopd.tif,66,0.0666666666666667,0.0666666666666667,1.28333333333333,6165.458186375,6166.511548042,9,6165.519875042,6165.580892083,6166.516546458,6167.793255542,1,1.05336166699999
110,28,4,categorization,0,bathroom,SHINEd_sun_axyrejkiiaqiurjk.tif,59,0.0666666666666667,0.0666666666666667,1.8,6167.810071708,6168.493057542,9,6167.876635375,6167.942503667,6168.515563292,6170.308949667,0,0.682985834000647
110,29,4,categorization,0,bathroom,SHINEd_sun_anryaplzeujmzfkd.tif,39,0.0666666666666667,0.0666666666666667,1.33333333333333,6170.326423875,6170.989639,13,6170.393061792,6170.459105292,6171.015377375,6172.342090083,1,0.663215125000534
110,30,4,categorization,0,kitchen,SHINEd_sun_avszsnwsbuqfgzbn.tif,105,0.0666666666666667,0.0666666666666667,1.06666666666667,6172.359750292,6172.810420625,13,6172.425395208,6172.490270875,6172.829658083,6173.889689792,0,0.450670332999834
110,31,4,categorization,0,bathroom,SHINEd_sun_agrwbmhcpmfuwmsg.tif,24,0.0666666666666667,0.0666666666666667,1.03333333333333,6173.907934167,6174.656540917,13,6173.974929333,6174.040659167,6174.675998083,6175.70271875,1,0.748606749999453
110,32,4,categorization,0,kitchen,SHINEd_sun_azmutvzbxypaceni.tif,110,0.0666666666666667,0.0666666666666667,0.733333333333333,6175.710891833,6176.568359708,9,6175.775080958,6175.842031125,6176.597562417,6177.324270583,1,0.857467875000111
110,33,4,categorization,0,bathroom,SHINEd_sun_axldvoqbuvuggfmq.tif,57,0.0666666666666667,0.0666666666666667,0.766666666666667,6177.335498458,6178.000148167,13,6177.402292208,6177.468578292,6178.00435875,6178.764364875,1,0.664649708999605
110,34,4,categorization,0,kitchen,SHINEd_sun_aarfiyshqohlwkmo.tif,67,0.0666666666666667,0.0666666666666667,1.1,6178.769293875,6179.639549792,13,6178.830983833,6178.891996958,6179.644546583,6180.737933458,0,0.870255917000577
110,35,4,categorization,0,bathroom,SHINEd_sun_azqyogdvyhahyram.tif,60,0.0666666666666667,0.0666666666666667,1.81666666666667,6180.746353292,6181.9526065,13,6180.810918667,6180.878715,6181.967381583,6183.77742625,1,1.20625320799991
110,36,4,categorization,0,bathroom,SHINEd_sun_ahcvzmoyaycdoftf.tif,27,0.0666666666666667,0.0666666666666667,0.883333333333333,6183.794542792,6184.544695667,13,6183.860993333,6183.926956333,6184.566458625,6185.443131083,1,0.750152874999912
110,37,4,categorization,0,bathroom,SHINEd_sun_aavhrsfjbserjtht.tif,13,0.0666666666666667,0.0666666666666667,1.7,6185.447926875,6186.039985708,13,6185.509751458,6185.570752417,6186.056064833,6187.74944925,1,0.59205883300001
110,38,4,categorization,0,bathroom,SHINEd_sun_ahijqszoswveeyji.tif,28,0.0666666666666667,0.0666666666666667,1.58333333333333,6187.771260875,6188.54565075,9,6187.83809025,6187.903722458,6188.559192083,6190.135905708,0,0.774389875000452
110,39,4,categorization,0,kitchen,SHINEd_sun_akchetnepxlcxhsu.tif,98,0.0666666666666667,0.0666666666666667,0.833333333333333,6190.152449,6191.556077417,9,6190.218970333,6190.285310167,6191.57650475,6192.40317725,1,1.40362841699971
110,40,4,categorization,0,kitchen,SHINEd_sun_agzzivivdpnawacl.tif,89,0.0666666666666667,0.0666666666666667,0.95,6192.408232792,6193.096215792,9,6192.470034708,6192.530945667,6193.099227625,6194.042564458,1,0.687983000000713
110,41,4,categorization,0,kitchen,SHINEd_sun_axyyrmzcupyhlivc.tif,107,0.0666666666666667,0.0666666666666667,1.06666666666667,6194.047343667,6194.8956985,9,6194.109073833,6194.169997042,6194.905107458,6195.965144333,1,0.848354833000485
110,42,4,categorization,0,bathroom,SHINEd_sun_aclfzgynxzxlbepz.tif,19,0.0666666666666667,0.0666666666666667,1.68333333333333,6195.973915875,6196.938968083,13,6196.038541875,6196.103621792,6196.958452417,6198.635162708,1,0.965052208000088
110,43,4,categorization,0,bathroom,SHINEd_sun_aapitsgbtktqubfy.tif,12,0.0666666666666667,0.0666666666666667,1.31666666666667,6198.653350333,6199.417683375,13,6198.71857525,6198.786001917,6199.442572958,6200.752611625,1,0.764333041999635
110,44,4,categorization,0,bathroom,SHINEd_sun_atstyziqcmkahyxk.tif,51,0.0666666666666667,0.0666666666666667,1.61666666666667,6200.771574042,6201.312596292,13,6200.837817583,6200.903893125,6201.325987875,6202.936038375,1,0.541022250000424
110,45,4,categorization,0,bathroom,SHINEd_sun_akiytfaagpdsphgz.tif,31,0.0666666666666667,0.0666666666666667,1.15,6202.945003792,6203.560772458,13,6203.010781417,6203.07743725,6203.583578458,6204.726957458,1,0.615768666000804
110,46,4,categorization,0,kitchen,SHINEd_labelme_brsyyvweiuaazfr.tif,61,0.0666666666666667,0.0666666666666667,1.25,6204.736014458,6205.44545375,13,6204.802667458,6204.868685792,6205.475347333,6206.718721417,0,0.709439291999843
110,47,4,categorization,0,kitchen,SHINEd_sun_ajkqhtgcbgpcwrwn.tif,97,0.0666666666666667,0.0666666666666667,1.1,6206.728352542,6207.481001583,9,6206.794821417,6206.861020208,6207.500444917,6208.593824042,1,0.752649041000041
110,48,4,categorization,0,kitchen,SHINEd_sun_aenotlpyftoioydp.tif,82,0.0666666666666667,0.0666666666666667,0.9,6208.609525875,6209.040308167,13,6208.675965625,6208.741974,6209.0439255,6209.937262917,0,0.430782292000004
110,49,4,categorization,0,bathroom,SHINEd_sun_apmqjbnwghzuhhzh.tif,46,0.0666666666666667,0.0666666666666667,1.3,6209.942063875,6210.655484083,13,6210.003752,6210.064785958,6210.666789708,6211.960167708,1,0.713420208000571
110,50,4,categorization,0,kitchen,SHINEd_sun_abdenxonkemggwsq.tif,69,0.0666666666666667,0.0666666666666667,1.25,6211.972673292,6212.894975292,13,6212.04035325,6212.105455458,6212.909770458,6214.15314875,0,0.922301999999945
110,1,5,categorization,0,bathroom,SHINEd_sun_amzlamotzwfkwjco.tif,37,0.0666666666666667,0.0666666666666667,1.7,6261.985167458,6262.847575083,9,6262.047077667,6262.107861125,6262.860000875,6264.553386625,0,0.862407624999832
110,2,5,categorization,0,kitchen,SHINEd_sun_azmutvzbxypaceni.tif,110,0.0666666666666667,0.0666666666666667,1.81666666666667,6264.571462375,6265.227910542,13,6264.6378565,6264.704135875,6265.243306167,6267.053364833,0,0.656448167000235
110,3,5,categorization,0,kitchen,SHINEd_sun_aypmqwcualkenuoe.tif,109,0.0666666666666667,0.0666666666666667,1.23333333333333,6267.071700875,6268.240363625,9,6267.138225458,6267.20459825,6268.260948417,6269.48767075,1,1.16866275000029
110,4,5,categorization,0,kitchen,SHINEd_sun_auaiucuqpdausiva.tif,102,0.0666666666666667,0.0666666666666667,1.4,6269.505380333,6270.321125708,9,6269.571700958,6269.637844208,6270.344251667,6271.73762775,1,0.815745375000006
110,5,5,categorization,0,kitchen,SHINEd_labelme_rykdqxenmhulbdn.tif,63,0.0666666666666667,0.0666666666666667,1.03333333333333,6271.753935792,6272.377040292,13,6271.820360042,6271.88671325,6272.391637583,6273.418357,0,0.623104499999499
110,6,5,categorization,0,kitchen,SHINEd_sun_afuyedyxivkhecmu.tif,85,0.0666666666666667,0.0666666666666667,1.38333333333333,6273.436343708,6274.248053125,9,6273.502059,6273.559721333,6274.261664792,6275.63837425,1,0.811709417000202
110,7,5,categorization,0,kitchen,SHINEd_sun_ahdycvpopffkzzsu.tif,90,0.0666666666666667,0.0666666666666667,2,6275.655371833,6276.3287535,13,6275.722199333,6275.78783525,6276.343447458,6278.336825375,0,0.673381667000285
110,8,5,categorization,0,kitchen,SHINEd_sun_aexklacwqwezaorf.tif,84,0.0666666666666667,0.0666666666666667,1.85,6278.35430025,6279.113690625,9,6278.42079025,6278.486990792,6279.143196458,6280.986580667,1,0.759390375000294
110,9,5,categorization,0,kitchen,SHINEd_labelme_brsyyvweiuaazfr.tif,61,0.0666666666666667,0.0666666666666667,0.816666666666667,6281.004666625,6281.720089042,9,6281.07104075,6281.137400792,6281.74394375,6282.553947792,1,0.7154224169999
110,10,5,categorization,0,bathroom,SHINEd_sun_aggnnqpdorgxpvce.tif,21,0.0666666666666667,0.0666666666666667,1.85,6282.558903875,6283.880010583,13,6282.620529667,6282.6816975,6283.8844585,6285.727828833,1,1.32110670799921
110,11,5,categorization,0,kitchen,SHINEd_sun_aamedkxepzlwuxes.tif,65,0.0666666666666667,0.0666666666666667,0.733333333333333,6285.739350708,6286.619869958,9,6285.807078667,6285.871629292,6286.644665125,6287.371336042,1,0.880519250000361
110,12,5,categorization,0,bathroom,SHINEd_sun_acduarbnmmoglmiv.tif,16,0.0666666666666667,0.0666666666666667,0.716666666666667,6287.37635625,6288.223106167,9,6287.438041958,6287.499465042,6288.234799708,6288.944803375,0,0.846749917000125
110,13,5,categorization,0,bathroom,SHINEd_sun_apynckhmoftszqoq.tif,47,0.0666666666666667,0.0666666666666667,0.833333333333333,6288.950426333,6289.895114708,9,6289.012141458,6289.073319875,6289.908935125,6290.735605333,0,0.944688374999714
110,14,5,categorization,0,kitchen,SHINEd_sun_axyyrmzcupyhlivc.tif,107,0.0666666666666667,0.0666666666666667,0.95,6290.7405485,6291.455409,9,6290.802289708,6290.8631645,6291.465327,6292.408665,1,0.714860500000214
110,15,5,categorization,0,bathroom,SHINEd_sun_aghyqhbptboemmoq.tif,23,0.0666666666666667,0.0666666666666667,1.96666666666667,6292.413517625,6293.159781708,13,6292.475128583,6292.536224708,6293.1715205,6295.131563792,1,0.746264082999915
110,16,5,categorization,0,kitchen,SHINEd_sun_aegoxogugdkwpmpj.tif,80,0.0666666666666667,0.0666666666666667,1.86666666666667,6295.148412125,6295.825393083,9,6295.214526,6295.28124375,6295.854222792,6297.714275792,1,0.676980958000058
110,17,5,categorization,0,kitchen,SHINEd_sun_acxkpeoqbwcxfvip.tif,77,0.0666666666666667,0.0666666666666667,1.51666666666667,6297.731592792,6298.506434625,9,6297.797620708,6297.862688917,6298.53557425,6300.045631083,1,0.77484183300021
110,18,5,categorization,0,bathroom,SHINEd_sun_aljolscmmzydegqp.tif,33,0.0666666666666667,0.0666666666666667,1.3,6300.062965333,6301.124407958,13,6300.129529667,6300.195419333,6301.151918125,6302.445305708,1,1.06144262500038
110,19,5,categorization,0,bathroom,SHINEd_sun_apkxzenqapsujocq.tif,45,0.0666666666666667,0.0666666666666667,1.91666666666667,6302.461972875,6303.090593833,13,6302.52864075,6302.594171083,6303.117096208,6305.027149292,1,0.628620957999374
110,20,5,categorization,0,bathroom,SHINEd_sun_axldvoqbuvuggfmq.tif,57,0.0666666666666667,0.0666666666666667,1.23333333333333,6305.04411325,6306.799172292,13,6305.110684542,6305.176847792,6306.812606,6308.039304875,1,1.75505904199963
110,21,5,categorization,0,kitchen,SHINEd_sun_ahywdevtimnqcsln.tif,94,0.0666666666666667,0.0666666666666667,0.866666666666667,6308.054670333,6308.664368375,9,6308.121217833,6308.187127,6308.693708375,6309.5537595,1,0.609698041999764
110,22,5,categorization,0,bathroom,SHINEd_sun_apmqjbnwghzuhhzh.tif,46,0.0666666666666667,0.0666666666666667,0.8,6309.568964458,6310.286751875,13,6309.635523708,6309.701263958,6310.303808,6311.097146875,1,0.717787417000181
110,23,5,categorization,0,kitchen,SHINEd_sun_acgtpgfybqjmzeyw.tif,75,0.0666666666666667,0.0666666666666667,1.51666666666667,6311.102191542,6311.8790645,13,6311.163865292,6311.225332208,6311.89422925,6313.404274958,0,0.77687295800024
110,24,5,categorization,0,bathroom,SHINEd_sun_aleqenyvunhactkl.tif,32,0.0666666666666667,0.0666666666666667,1.18333333333333,6313.420943833,6314.053346333,13,6313.487509292,6313.553262625,6314.076189292,6315.252903792,1,0.632402500000353
110,25,5,categorization,0,kitchen,SHINEd_sun_abftihopvusyfakt.tif,71,0.0666666666666667,0.0666666666666667,1.6,6315.262956167,6316.026898917,13,6315.329963958,6315.39649425,6316.052861958,6317.646230542,0,0.763942749999842
110,26,5,categorization,0,kitchen,SHINEd_sun_aixorpehvfykdynp.tif,95,0.0666666666666667,0.0666666666666667,1.56666666666667,6317.662911,6318.994433167,9,6317.730346042,6317.795215833,6319.020338375,6320.580378042,1,1.331522167
110,27,5,categorization,0,bathroom,SHINEd_sun_ahqjwnzgolcaoidx.tif,29,0.0666666666666667,0.0666666666666667,1.36666666666667,6320.597774583,6321.062886208,13,6320.66534325,6320.7306935,6321.086980917,6322.447013583,1,0.465111625000645
110,28,5,categorization,0,bathroom,SHINEd_sun_ahaulkltgpkeeemi.tif,26,0.0666666666666667,0.0666666666666667,1.53333333333333,6322.464488708,6323.593386,9,6322.530832542,6322.596709875,6323.620095583,6325.146804833,0,1.12889729199924
110,29,5,categorization,0,bathroom,SHINEd_sun_agrwbmhcpmfuwmsg.tif,24,0.0666666666666667,0.0666666666666667,1.4,6325.164097417,6325.852103292,13,6325.230397125,6325.296480792,6325.868824292,6327.262210542,1,0.688005874999362
110,30,5,categorization,0,bathroom,SHINEd_sun_aqrpegblszgcoujh.tif,48,0.0666666666666667,0.0666666666666667,1.06666666666667,6327.278983875,6328.428242,13,6327.345513417,6327.411741583,6328.451647083,6329.511703458,1,1.14925812499951
110,31,5,categorization,0,kitchen,SHINEd_sun_akcjzhbbjlbogpdi.tif,99,0.0666666666666667,0.0666666666666667,1.63333333333333,6329.519948917,6330.193096292,9,6329.584932125,6329.647734042,6330.220923958,6331.84762275,1,0.673147374999644
110,32,5,categorization,0,kitchen,SHINEd_sun_abdxkyyxwfskuaqb.tif,70,0.0666666666666667,0.0666666666666667,1.8,6331.864558417,6332.51999675,9,6331.930742292,6331.997468,6332.536119458,6334.32948475,1,0.655438333000347
110,33,5,categorization,0,bathroom,SHINEd_sun_aapitsgbtktqubfy.tif,12,0.0666666666666667,0.0666666666666667,1.53333333333333,6334.346773292,6335.179478292,9,6334.413214333,6334.480012708,6335.20322975,6336.72995575,0,0.832704999999805
110,34,5,categorization,0,kitchen,SHINEd_sun_agubuxuukhzyzpdp.tif,88,0.0666666666666667,0.0666666666666667,0.766666666666667,6336.7474615,6337.303395708,9,6336.813871708,6336.880051,6337.319565833,6338.079620708,1,0.555934207999599
110,35,5,categorization,0,kitchen,SHINEd_sun_aaxxjlsuzvqlgylf.tif,68,0.0666666666666667,0.0666666666666667,1.86666666666667,6338.09611875,6338.790704292,9,6338.162844667,6338.228750708,6338.798045792,6340.658099125,1,0.694585541999913
110,36,5,categorization,0,bathroom,SHINEd_sun_anryaplzeujmzfkd.tif,39,0.0666666666666667,0.0666666666666667,1.13333333333333,6340.675494833,6341.595271083,9,6340.742166083,6340.808280792,6341.614408375,6342.741132583,0,0.919776249999813
110,37,5,categorization,0,bathroom,SHINEd_sun_acegryoqftbzowsg.tif,17,0.0666666666666667,0.0666666666666667,1.73333333333333,6342.75096575,6343.930239958,13,6342.815808,6342.883560333,6343.955546208,6345.682271833,1,1.1792742079997
110,38,5,categorization,0,bathroom,SHINEd_sun_aoybiabnpadelefl.tif,41,0.0666666666666667,0.0666666666666667,0.766666666666667,6345.698860125,6346.5214225,9,6345.765619292,6345.832449,6346.538631167,6347.298635833,0,0.822562375000416
110,39,5,categorization,0,kitchen,SHINEd_sun_ahspylgoovwmwvgk.tif,93,0.0666666666666667,0.0666666666666667,1.85,6347.303618833,6348.439311958,9,6347.365416875,6347.426337625,6348.445253292,6350.288637667,1,1.13569312500022
110,40,5,categorization,0,bathroom,SHINEd_sun_ahijqszoswveeyji.tif,28,0.0666666666666667,0.0666666666666667,0.966666666666667,6350.305654417,6351.393638708,9,6350.372140708,6350.438236208,6351.41090425,6352.370908458,0,1.08798429099988
110,41,5,categorization,0,kitchen,SHINEd_sun_acwjdupvyjsugpay.tif,76,0.0666666666666667,0.0666666666666667,1.06666666666667,6352.375776125,6353.519126833,9,6352.437518333,6352.498414917,6353.5340155,6354.594046792,1,1.14335070800007
110,42,5,categorization,0,kitchen,SHINEd_sun_ahljzhgcdpomplvg.tif,91,0.0666666666666667,0.0666666666666667,1.38333333333333,6354.603793542,6355.350371833,9,6354.668591333,6354.735303958,6355.3744605,6356.751165292,1,0.746578291000333
110,43,5,categorization,0,bathroom,SHINEd_sun_apkruvsevgegsdwp.tif,44,0.0666666666666667,0.0666666666666667,0.766666666666667,6356.769456667,6357.372047833,13,6356.83565025,6356.900860833,6357.390033917,6358.150086792,1,0.602591165999911
110,44,5,categorization,0,bathroom,SHINEd_sun_abjtwfukuwddzted.tif,15,0.0666666666666667,0.0666666666666667,0.866666666666667,6358.165268417,6358.991225208,13,6358.230959458,6358.298068125,6358.99998725,6359.859991125,1,0.825956790999953
110,45,5,categorization,0,bathroom,SHINEd_sun_ambriybtogmepttm.tif,36,0.0666666666666667,0.0666666666666667,1.25,6359.866753833,6360.678878333,9,6359.928450125,6359.989465875,6360.69196975,6361.935358417,0,0.812124500000209
110,46,5,categorization,0,bathroom,SHINEd_labelme_sfxiulhjbhlyiyt.tif,11,0.0666666666666667,0.0666666666666667,1.03333333333333,6361.952641292,6362.995311458,9,6362.018949833,6362.085419875,6363.025277958,6364.052000792,0,1.04267016599988
110,47,5,categorization,0,bathroom,SHINEd_sun_aunuadmjocsddsrl.tif,52,0.0666666666666667,0.0666666666666667,0.783333333333333,6364.060984583,6364.968323542,9,6364.125067417,6364.192060333,6364.979990208,6365.756705333,0,0.907338958999389
110,48,5,categorization,0,kitchen,SHINEd_sun_auticobqsbwgoppi.tif,104,0.0666666666666667,0.0666666666666667,0.7,6365.772805417,6366.383519167,9,6365.839188333,6365.905386458,6366.391273208,6367.084610333,1,0.610713749999377
110,49,5,categorization,0,bathroom,SHINEd_sun_azqyogdvyhahyram.tif,60,0.0666666666666667,0.0666666666666667,1.75,6367.08938725,6367.758968583,13,6367.15112725,6367.212073833,6367.763853375,6369.50722575,1,0.669581332999769
110,50,5,categorization,0,bathroom,SHINEd_sun_aclfzgynxzxlbepz.tif,19,0.0666666666666667,0.0666666666666667,1.36666666666667,6369.523337375,6370.251709833,13,6369.5897505,6369.655954792,6370.2788505,6371.638891333,1,0.728372458000194
110,1,6,categorization,0,bathroom,SHINEd_sun_akiytfaagpdsphgz.tif,31,0.0666666666666667,0.0666666666666667,0.966666666666667,6377.347528333,6377.919381208,13,6377.409267542,6377.470497625,6377.939081375,6378.899087125,1,0.571852875000332
110,2,6,categorization,0,kitchen,SHINEd_sun_aeqdocilnnpuvuhx.tif,83,0.0666666666666667,0.0666666666666667,1.73333333333333,6378.903866458,6379.751466167,9,6378.9655505,6379.026551042,6379.761968667,6381.488685833,1,0.847599708999951
110,3,6,categorization,0,bathroom,SHINEd_sun_axyrejkiiaqiurjk.tif,59,0.0666666666666667,0.0666666666666667,1.91666666666667,6381.506698375,6382.476763,13,6381.573071583,6381.639663667,6382.495994542,6384.406045917,1,0.970064624999395
110,4,6,categorization,0,bathroom,SHINEd_sun_ausgutylgojavyoq.tif,53,0.0666666666666667,0.0666666666666667,0.766666666666667,6384.423245292,6385.034330375,13,6384.489708833,6384.555905417,6385.062444542,6385.822447667,1,0.611085083000035
110,5,6,categorization,0,kitchen,SHINEd_sun_ajkqhtgcbgpcwrwn.tif,97,0.0666666666666667,0.0666666666666667,0.916666666666667,6385.827274583,6386.527070333,9,6385.888920125,6385.950028167,6386.53549075,6387.445496708,1,0.699795749999794
110,6,6,categorization,0,kitchen,SHINEd_sun_abpwyqmlzafvklqo.tif,72,0.0666666666666667,0.0666666666666667,1.18333333333333,6387.450392667,6388.207531167,9,6387.511955625,6387.573541958,6388.225297583,6389.402009125,1,0.757138499999201
110,7,6,categorization,0,bathroom,SHINEd_sun_ahcvzmoyaycdoftf.tif,27,0.0666666666666667,0.0666666666666667,1.8,6389.411435583,6390.174376667,9,6389.478837917,6389.543858417,6390.200429625,6391.99381925,0,0.762941083999976
110,8,6,categorization,0,kitchen,SHINEd_sun_abrcnpqqhmjwekyf.tif,73,0.0666666666666667,0.0666666666666667,0.883333333333333,6392.009692208,6392.706504458,9,6392.075911875,6392.142405417,6392.732103458,6393.608776208,1,0.696812250000221
110,9,6,categorization,0,kitchen,SHINEd_sun_aapllqyqlykszopd.tif,66,0.0666666666666667,0.0666666666666667,1.83333333333333,6393.613769083,6394.110946792,9,6393.675642708,6393.736628917,6394.121668,6395.948372583,1,0.497177708999516
110,10,6,categorization,0,kitchen,SHINEd_sun_admlmbcdswaszruo.tif,79,0.0666666666666667,0.0666666666666667,1.76666666666667,6395.965851958,6396.420477833,9,6396.0324905,6396.098479542,6396.437584833,6398.197644042,1,0.454625875000602
110,11,6,categorization,0,bathroom,SHINEd_sun_atstyziqcmkahyxk.tif,51,0.0666666666666667,0.0666666666666667,0.983333333333333,6398.213493458,6398.620810708,9,6398.279805042,6398.346028333,6398.634319417,6399.610991875,0,0.407317250000233
110,12,6,categorization,0,bathroom,SHINEd_sun_ajlawzvmubibwbpy.tif,30,0.0666666666666667,0.0666666666666667,0.883333333333333,6399.61687675,6400.319553,13,6399.678637875,6399.739814833,6400.325064417,6401.201736083,1,0.702676249999968
110,13,6,categorization,0,bathroom,SHINEd_sun_awnqiikzaispgmwo.tif,56,0.0666666666666667,0.0666666666666667,0.85,6401.206937792,6401.775432833,13,6401.268559792,6401.329762958,6401.781763833,6402.625101,1,0.56849504100046
110,14,6,categorization,0,bathroom,SHINEd_sun_axxbkopsgyouuebh.tif,58,0.0666666666666667,0.0666666666666667,0.733333333333333,6402.629915708,6403.047071875,13,6402.691708125,6402.752599125,6403.05449925,6403.781171417,1,0.41715616700003
110,15,6,categorization,0,kitchen,SHINEd_sun_agzzivivdpnawacl.tif,89,0.0666666666666667,0.0666666666666667,1.88333333333333,6403.786048625,6404.239327958,13,6403.847812167,6403.908735708,6404.243746,6406.1204455,0,0.453279332999955
110,16,6,categorization,0,bathroom,SHINEd_sun_apjevzvycyhuqghb.tif,43,0.0666666666666667,0.0666666666666667,0.816666666666667,6406.137008375,6406.85288025,9,6406.203496708,6406.269470333,6406.876191417,6407.686196833,0,0.71587187500063
110,17,6,categorization,0,bathroom,SHINEd_sun_aofnryafpsjimzsb.tif,40,0.0666666666666667,0.0666666666666667,1.9,6407.691323458,6408.214920333,9,6407.753009333,6407.814090292,6408.232577875,6410.125966875,0,0.523596875000294
110,18,6,categorization,0,kitchen,SHINEd_sun_agorklincwxrdtga.tif,87,0.0666666666666667,0.0666666666666667,0.983333333333333,6410.142254917,6410.710479625,9,6410.208735625,6410.274953833,6410.730758,6411.707429417,1,0.568224707999434
110,19,6,categorization,0,bathroom,SHINEd_sun_anhioqovhscjqqwb.tif,38,0.0666666666666667,0.0666666666666667,0.75,6411.712340667,6412.19861125,9,6411.774005917,6411.835058917,6412.20348775,6412.946825708,0,0.486270583000078
110,20,6,categorization,0,bathroom,SHINEd_sun_agyqfjcfkdcydepw.tif,25,0.0666666666666667,0.0666666666666667,1.6,6412.951819083,6413.606970958,9,6413.013552083,6413.07497575,6413.610292,6415.203684333,0,0.655151874999319
110,21,6,categorization,0,bathroom,SHINEd_sun_asfwthctfqerjvxr.tif,49,0.0666666666666667,0.0666666666666667,1.58333333333333,6415.221391958,6416.044245875,13,6415.2876205,6415.354150833,6416.077489125,6417.65420175,1,0.82285391700043
110,22,6,categorization,0,kitchen,SHINEd_sun_acfmftudsenhrfhy.tif,74,0.0666666666666667,0.0666666666666667,1.11666666666667,6417.669892875,6418.111206375,9,6417.736424083,6417.802449958,6418.124527792,6419.234578583,1,0.441313499999524
110,23,6,categorization,0,bathroom,SHINEd_sun_afcoljnjfoxjtgja.tif,20,0.0666666666666667,0.0666666666666667,1.53333333333333,6419.243833958,6419.766653,9,6419.311855,6419.376522333,6419.782172583,6421.308889167,0,0.522819041999355
110,24,6,categorization,0,kitchen,SHINEd_sun_aunzlwrbjumxhwdj.tif,103,0.0666666666666667,0.0666666666666667,1.48333333333333,6421.321344917,6422.0526135,9,6421.387437083,6421.453848375,6422.076964333,6423.553679167,1,0.731268583000201
110,25,6,categorization,0,kitchen,SHINEd_sun_aadbddgrdsjugojn.tif,64,0.0666666666666667,0.0666666666666667,1.1,6423.570521417,6424.409324958,9,6423.637023667,6423.703155875,6424.425353583,6425.518725625,1,0.838803540999834
110,26,6,categorization,0,kitchen,SHINEd_sun_adgqasybjyktddhj.tif,78,0.0666666666666667,0.0666666666666667,0.933333333333333,6425.527827125,6426.258291583,9,6425.5942865,6425.66123825,6426.284375167,6427.211090167,1,0.730464457999915
110,27,6,categorization,0,kitchen,SHINEd_sun_aenotlpyftoioydp.tif,82,0.0666666666666667,0.0666666666666667,0.816666666666667,6427.226703083,6429.222828583,9,6427.293829167,6427.359357875,6429.228207458,6430.038213542,1,1.99612549999983
110,28,6,categorization,0,kitchen,SHINEd_sun_aymvwlarqodbwuoc.tif,108,0.0666666666666667,0.0666666666666667,1.78333333333333,6430.0429855,6431.270903833,13,6430.104651833,6430.165730958,6431.284879833,6433.061594125,0,1.22791833300016
110,29,6,categorization,0,kitchen,SHINEd_sun_awcpdzzznmweyyhv.tif,106,0.0666666666666667,0.0666666666666667,0.766666666666667,6433.078783333,6433.673674583,9,6433.146882917,6433.21185,6433.701326292,6434.461333333,1,0.594891250000728
110,30,6,categorization,0,kitchen,SHINEd_sun_ahpczsiumwwocjkv.tif,92,0.0666666666666667,0.0666666666666667,1.45,6434.466883583,6435.038324875,9,6434.528586375,6434.5897295,6435.041258208,6436.484645708,1,0.5714412920006
110,31,6,categorization,0,kitchen,SHINEd_sun_aarfiyshqohlwkmo.tif,67,0.0666666666666667,0.0666666666666667,0.75,6436.502990917,6438.487073,13,6436.569134292,6436.6356935,6438.505138875,6439.248478042,0,1.98408208300043
110,32,6,categorization,0,bathroom,SHINEd_sun_apeeialkgkuxddgh.tif,42,0.0666666666666667,0.0666666666666667,1.36666666666667,6439.253256125,6439.846994125,13,6439.315172458,6439.376017667,6439.861513792,6441.221548167,1,0.593737999999576
110,33,6,categorization,0,bathroom,SHINEd_sun_aspsyogrekjtfozg.tif,50,0.0666666666666667,0.0666666666666667,0.75,6441.237526,6441.770349542,13,6441.303713375,6441.369988958,6441.792273083,6442.53565475,1,0.532823542000187
110,34,6,categorization,0,bathroom,SHINEd_sun_agguqiubmwhqqunb.tif,22,0.0666666666666667,0.0666666666666667,0.783333333333333,6442.551073,6443.166932292,13,6442.617247458,6442.683857625,6443.1865105,6443.963181875,1,0.615859292000096
110,35,6,categorization,0,kitchen,SHINEd_sun_avszsnwsbuqfgzbn.tif,105,0.0666666666666667,0.0666666666666667,1.11666666666667,6443.967933292,6444.566520417,9,6444.029466375,6444.090582,6444.576085958,6445.686141417,1,0.59858712499954
110,36,6,categorization,0,kitchen,SHINEd_sun_amjjdeyrggfqgmom.tif,100,0.0666666666666667,0.0666666666666667,0.766666666666667,6445.694711042,6446.3772,9,6445.75987475,6445.827203875,6446.400202833,6447.160247333,1,0.682488958000249
110,37,6,categorization,0,bathroom,SHINEd_sun_acgyywnybuveqsro.tif,18,0.0666666666666667,0.0666666666666667,0.716666666666667,6447.175492125,6447.79067625,9,6447.2418355,6447.307929667,6447.810005708,6448.5200115,0,0.615184124999359
110,38,6,categorization,0,bathroom,SHINEd_sun_alotolagknyrgtsk.tif,35,0.0666666666666667,0.0666666666666667,1.33333333333333,6448.524887125,6449.399247625,9,6448.586546125,6448.64802475,6449.4168955,6450.7435955,0,0.874360499999966
110,39,6,categorization,0,bathroom,SHINEd_sun_abapwbhyhkfixyex.tif,14,0.0666666666666667,0.0666666666666667,1.75,6450.758840583,6451.644645708,13,6450.825255542,6450.891562208,6451.6643385,6453.407726958,1,0.885805124999933
110,40,6,categorization,0,kitchen,SHINEd_labelme_kxvouciolcpqplr.tif,62,0.0666666666666667,0.0666666666666667,1.13333333333333,6453.425744792,6454.018648083,13,6453.492013167,6453.558456292,6454.02941875,6455.156142917,0,0.592903290999857
110,41,6,categorization,0,bathroom,SHINEd_sun_auzqhkafidnkrwmo.tif,54,0.0666666666666667,0.0666666666666667,1.63333333333333,6455.166796833,6455.809205167,9,6455.231782375,6455.299413167,6455.839151583,6457.465856417,0,0.642408333999811
110,42,6,categorization,0,bathroom,SHINEd_sun_alkosphxlxwjwgjd.tif,34,0.0666666666666667,0.0666666666666667,1.43333333333333,6457.485974792,6458.506636292,9,6457.552427667,6457.618575625,6458.5245425,6459.951243292,0,1.02066149999973
110,43,6,categorization,0,kitchen,SHINEd_sun_akchetnepxlcxhsu.tif,98,0.0666666666666667,0.0666666666666667,1.83333333333333,6459.969773708,6461.112511,9,6460.0362535,6460.101800167,6461.141834042,6462.968520375,1,1.14273729200067
110,44,6,categorization,0,bathroom,SHINEd_sun_aavhrsfjbserjtht.tif,13,0.0666666666666667,0.0666666666666667,1.93333333333333,6462.97993525,6463.522679833,13,6463.046353417,6463.110990583,6463.55049425,6465.477196333,1,0.542744583000058
110,45,6,categorization,0,kitchen,SHINEd_sun_aehawpgmrlhlvcow.tif,81,0.0666666666666667,0.0666666666666667,1.26666666666667,6465.494729958,6465.969848042,13,6465.561482375,6465.627266792,6465.982642375,6467.24269825,0,0.475118084000314
110,46,6,categorization,0,bathroom,SHINEd_sun_avhrdrntsqrjzccq.tif,55,0.0666666666666667,0.0666666666666667,1.86666666666667,6467.259820917,6467.675870083,9,6467.326526625,6467.392552417,6467.698981417,6469.559032417,0,0.416049165999539
110,47,6,categorization,0,kitchen,SHINEd_sun_ajcbwwvdlsvjyzje.tif,96,0.0666666666666667,0.0666666666666667,1.41666666666667,6469.57587125,6470.42508775,13,6469.642483708,6469.708195,6470.447996833,6471.858042417,0,0.849216499999784
110,48,6,categorization,0,kitchen,SHINEd_sun_abdenxonkemggwsq.tif,69,0.0666666666666667,0.0666666666666667,1.11666666666667,6471.875703542,6472.535656708,9,6471.942187583,6472.008609083,6472.564526708,6473.674570375,1,0.659953165999468
110,49,6,categorization,0,kitchen,SHINEd_sun_aqeaevwwwjoqhzvl.tif,101,0.0666666666666667,0.0666666666666667,1.8,6473.692583458,6474.32942775,9,6473.759172083,6473.824985542,6474.347570083,6476.140941292,1,0.636844292000205
110,50,6,categorization,0,kitchen,SHINEd_sun_aggjlwcdjsjcaemh.tif,86,0.0666666666666667,0.0666666666666667,1.25,6476.15412675,6477.299064375,9,6476.22108375,6476.286495792,6477.326372208,6478.569739958,1,1.14493762500024
110,1,7,categorization,0,bathroom,SHINEd_sun_abapwbhyhkfixyex.tif,14,0.0666666666666667,0.0666666666666667,0.883333333333333,6485.154713125,6485.982094208,13,6485.217347833,6485.277749958,6485.99673925,6486.873412167,1,0.827381082999636
110,2,7,categorization,0,kitchen,SHINEd_sun_abdenxonkemggwsq.tif,69,0.0666666666666667,0.0666666666666667,1.03333333333333,6486.878273667,6487.90306075,13,6486.940008667,6487.001017208,6487.919556083,6488.946267375,0,1.02478708299986
110,3,7,categorization,0,bathroom,SHINEd_sun_alotolagknyrgtsk.tif,35,0.0666666666666667,0.0666666666666667,1.06666666666667,6488.955371792,6489.539056667,9,6489.019326792,6489.086254667,6489.559100792,6490.619156042,0,0.583684875000472
110,4,7,categorization,0,bathroom,SHINEd_sun_anhioqovhscjqqwb.tif,38,0.0666666666666667,0.0666666666666667,0.833333333333333,6490.6358085,6491.686869667,13,6490.702216292,6490.768421875,6491.70425675,6492.530929,1,1.05106116699972
110,5,7,categorization,0,kitchen,SHINEd_sun_akchetnepxlcxhsu.tif,98,0.0666666666666667,0.0666666666666667,0.716666666666667,6492.535801917,6493.110681667,13,6492.597536792,6492.658445708,6493.127076542,6493.83707975,0,0.574879750000036
110,6,7,categorization,0,kitchen,SHINEd_sun_agorklincwxrdtga.tif,87,0.0666666666666667,0.0666666666666667,0.733333333333333,6493.841871708,6494.406780833,9,6493.903620958,6493.9645775,6494.416540333,6495.143211417,1,0.564909124999758
110,7,7,categorization,0,kitchen,SHINEd_sun_abftihopvusyfakt.tif,71,0.0666666666666667,0.0666666666666667,1.38333333333333,6495.148858792,6495.838814667,9,6495.210592333,6495.27154625,6495.857196042,6497.233909333,1,0.689955875000123
110,8,7,categorization,0,kitchen,SHINEd_sun_aaxxjlsuzvqlgylf.tif,68,0.0666666666666667,0.0666666666666667,0.9,6497.252109917,6497.864766542,9,6497.318597125,6497.384586917,6497.890999292,6498.784376917,1,0.612656625000454
110,9,7,categorization,0,kitchen,SHINEd_sun_ahspylgoovwmwvgk.tif,93,0.0666666666666667,0.0666666666666667,0.816666666666667,6498.800630458,6499.414872667,9,6498.866981542,6498.925344375,6499.427080708,6500.23708625,1,0.614242208999713
110,10,7,categorization,0,bathroom,SHINEd_sun_ahijqszoswveeyji.tif,28,0.0666666666666667,0.0666666666666667,0.85,6500.24200225,6501.526239833,13,6500.303644125,6500.364678542,6501.534004,6502.377340583,1,1.28423758299959
110,11,7,categorization,0,bathroom,SHINEd_sun_afcoljnjfoxjtgja.tif,20,0.0666666666666667,0.0666666666666667,1.6,6502.382562333,6502.96687075,9,6502.4442885,6502.505336292,6502.974024667,6504.567391875,0,0.584308417000102
110,12,7,categorization,0,kitchen,SHINEd_sun_ajkqhtgcbgpcwrwn.tif,97,0.0666666666666667,0.0666666666666667,1.75,6504.581770083,6505.4142875,9,6504.645622167,6504.714512208,6505.437723875,6507.18110675,1,0.832517416999508
110,13,7,categorization,0,kitchen,SHINEd_sun_acgtpgfybqjmzeyw.tif,75,0.0666666666666667,0.0666666666666667,1.1,6507.199082792,6508.067268042,9,6507.26592175,6507.331796333,6508.088503458,6509.181890708,1,0.868185250000352
110,14,7,categorization,0,bathroom,SHINEd_sun_agyqfjcfkdcydepw.tif,25,0.0666666666666667,0.0666666666666667,1.46666666666667,6509.1900955,6510.194548833,9,6509.255331125,6509.322758875,6510.212111667,6511.672158792,0,1.00445333300013
110,15,7,categorization,0,kitchen,SHINEd_labelme_rykdqxenmhulbdn.tif,63,0.0666666666666667,0.0666666666666667,1.25,6511.689048,6512.217313083,13,6511.757288708,6511.821947583,6512.244903583,6513.488274625,0,0.528265082999496
110,16,7,categorization,0,kitchen,SHINEd_sun_amjjdeyrggfqgmom.tif,100,0.0666666666666667,0.0666666666666667,1.13333333333333,6513.506665083,6514.328246042,9,6513.573759042,6513.639600458,6514.34599275,6515.472689542,1,0.82158095899922
110,17,7,categorization,0,kitchen,SHINEd_sun_aegoxogugdkwpmpj.tif,80,0.0666666666666667,0.0666666666666667,1.33333333333333,6515.483589917,6516.066550417,9,6515.550467667,6515.616589042,6516.090064042,6517.41677375,1,0.582960499999899
110,18,7,categorization,0,kitchen,SHINEd_sun_adgqasybjyktddhj.tif,78,0.0666666666666667,0.0666666666666667,1.86666666666667,6517.435746625,6518.214139583,9,6517.50276725,6517.560437125,6518.22910875,6520.08914675,1,0.77839295800004
110,19,7,categorization,0,bathroom,SHINEd_sun_aclfzgynxzxlbepz.tif,19,0.0666666666666667,0.0666666666666667,1.58333333333333,6520.106416375,6520.795449625,13,6520.173522583,6520.2397215,6520.812436625,6522.389155792,1,0.689033250000648
110,20,7,categorization,0,kitchen,SHINEd_sun_azmutvzbxypaceni.tif,110,0.0666666666666667,0.0666666666666667,1.05,6522.406409042,6523.659477292,9,6522.474920208,6522.539437792,6523.682041667,6524.725419083,1,1.25306825000007
110,21,7,categorization,0,bathroom,SHINEd_sun_aljolscmmzydegqp.tif,33,0.0666666666666667,0.0666666666666667,0.9,6524.733938292,6525.787157167,13,6524.798435,6524.864795208,6525.804564458,6526.697945667,1,1.05321887500031
110,22,7,categorization,0,bathroom,SHINEd_sun_ahcvzmoyaycdoftf.tif,27,0.0666666666666667,0.0666666666666667,0.7,6526.710149958,6527.262168333,13,6526.772242167,6526.833077042,6527.268339042,6527.9616765,1,0.552018374999534
110,23,7,categorization,0,bathroom,SHINEd_sun_acegryoqftbzowsg.tif,17,0.0666666666666667,0.0666666666666667,0.933333333333333,6527.966577125,6528.574638625,13,6528.02815,6528.089347625,6528.59143525,6529.518107125,1,0.608061500000076
110,24,7,categorization,0,bathroom,SHINEd_sun_amzlamotzwfkwjco.tif,37,0.0666666666666667,0.0666666666666667,1.95,6529.522879042,6530.2864855,9,6529.584680917,6529.645564167,6530.298029083,6532.241402333,0,0.76360645800014
110,25,7,categorization,0,bathroom,SHINEd_sun_axxbkopsgyouuebh.tif,58,0.0666666666666667,0.0666666666666667,1.06666666666667,6532.258589208,6532.976236625,13,6532.326022125,6532.390981875,6532.996992542,6534.057032042,1,0.71764741700008
110,26,7,categorization,0,bathroom,SHINEd_sun_abjtwfukuwddzted.tif,15,0.0666666666666667,0.0666666666666667,1.2,6534.0672575,6534.774209042,9,6534.131659083,6534.198671292,6534.787580583,6535.9809485,0,0.706951541999842
110,27,7,categorization,0,bathroom,SHINEd_sun_akiytfaagpdsphgz.tif,31,0.0666666666666667,0.0666666666666667,0.75,6535.993994958,6537.086663792,13,6536.05644875,6536.116990667,6537.102073208,6537.845411625,1,1.0926688339996
110,28,7,categorization,0,kitchen,SHINEd_sun_aarfiyshqohlwkmo.tif,67,0.0666666666666667,0.0666666666666667,0.816666666666667,6537.850240125,6538.6140475,9,6537.911913125,6537.972896458,6538.624971333,6539.4349765,1,0.763807375000397
110,29,7,categorization,0,kitchen,SHINEd_sun_abrcnpqqhmjwekyf.tif,73,0.0666666666666667,0.0666666666666667,1.96666666666667,6539.439962042,6540.2943015,9,6539.501709333,6539.562696708,6540.298448625,6542.25849375,1,0.85433945800014
110,30,7,categorization,0,bathroom,SHINEd_sun_axyrejkiiaqiurjk.tif,59,0.0666666666666667,0.0666666666666667,1.2,6542.27506275,6542.887444708,9,6542.34317075,6542.407799792,6542.913460375,6544.106837292,0,0.612381957999787
110,31,7,categorization,0,kitchen,SHINEd_sun_agubuxuukhzyzpdp.tif,88,0.0666666666666667,0.0666666666666667,0.883333333333333,6544.117285667,6545.384394625,9,6544.183951417,6544.249196625,6545.40636275,6546.283034917,1,1.26710895799988
110,32,7,categorization,0,kitchen,SHINEd_sun_auticobqsbwgoppi.tif,104,0.0666666666666667,0.0666666666666667,1.33333333333333,6546.288099708,6546.902408333,9,6546.349901542,6546.410817,6546.912641625,6548.239342042,1,0.614308624999467
110,33,7,categorization,0,bathroom,SHINEd_sun_aggnnqpdorgxpvce.tif,21,0.0666666666666667,0.0666666666666667,1.45,6548.255882917,6548.999637292,13,6548.322438417,6548.388403583,6549.028228333,6550.471596667,1,0.743754375000208
110,34,7,categorization,0,kitchen,SHINEd_sun_ahpczsiumwwocjkv.tif,92,0.0666666666666667,0.0666666666666667,1.15,6550.488387625,6551.341990917,13,6550.554850667,6550.621171292,6551.361230625,6552.504601542,0,0.853603292000116
110,35,7,categorization,0,bathroom,SHINEd_sun_ajlawzvmubibwbpy.tif,30,0.0666666666666667,0.0666666666666667,0.966666666666667,6552.513345208,6553.716014542,9,6552.579604833,6552.646748875,6553.736175375,6554.696178833,0,1.20266933400035
110,36,7,categorization,0,bathroom,SHINEd_sun_aofnryafpsjimzsb.tif,40,0.0666666666666667,0.0666666666666667,1.45,6554.701348792,6555.430774833,13,6554.762984208,6554.824067583,6555.442773125,6556.886160375,1,0.729426040999897
110,37,7,categorization,0,kitchen,SHINEd_sun_acxkpeoqbwcxfvip.tif,77,0.0666666666666667,0.0666666666666667,0.8,6556.90412475,6557.585678542,9,6556.969471042,6557.037245667,6557.610602792,6558.403984458,1,0.681553792000159
110,38,7,categorization,0,bathroom,SHINEd_sun_auzqhkafidnkrwmo.tif,54,0.0666666666666667,0.0666666666666667,1.45,6558.420077958,6558.982357667,13,6558.487048875,6558.551204417,6558.986450458,6560.429822292,1,0.562279708999995
110,39,7,categorization,0,kitchen,SHINEd_sun_abpwyqmlzafvklqo.tif,72,0.0666666666666667,0.0666666666666667,1.1,6560.446157375,6560.990302667,9,6560.513886042,6560.578748375,6561.018498042,6562.11188625,1,0.544145291999484
110,40,7,categorization,0,kitchen,SHINEd_sun_aunzlwrbjumxhwdj.tif,103,0.0666666666666667,0.0666666666666667,1.16666666666667,6562.121157958,6562.938690833,13,6562.18607475,6562.252616875,6562.957255875,6564.117300583,0,0.817532874999415
110,41,7,categorization,0,kitchen,SHINEd_sun_afuyedyxivkhecmu.tif,85,0.0666666666666667,0.0666666666666667,1.31666666666667,6564.135144208,6564.662058833,9,6564.201554958,6564.259419375,6564.67797225,6565.988008292,1,0.526914624999336
110,42,7,categorization,0,kitchen,SHINEd_sun_aapllqyqlykszopd.tif,66,0.0666666666666667,0.0666666666666667,1.68333333333333,6566.00529325,6566.58008725,9,6566.071814958,6566.137789708,6566.593150042,6568.269857667,1,0.574794000000111
110,43,7,categorization,0,bathroom,SHINEd_sun_apmqjbnwghzuhhzh.tif,46,0.0666666666666667,0.0666666666666667,0.966666666666667,6568.287526125,6568.850186042,13,6568.354220083,6568.420098333,6568.876186458,6569.836238125,1,0.562659917000019
110,44,7,categorization,0,bathroom,SHINEd_sun_acduarbnmmoglmiv.tif,16,0.0666666666666667,0.0666666666666667,1.4,6569.852225333,6570.390330375,13,6569.914837625,6569.975021417,6570.393656125,6571.787040042,1,0.538105042000097
110,45,7,categorization,0,kitchen,SHINEd_sun_ahljzhgcdpomplvg.tif,91,0.0666666666666667,0.0666666666666667,0.783333333333333,6571.804487292,6572.714562375,9,6571.870635875,6571.937420875,6572.744015125,6573.520724542,1,0.910075083000265
110,46,7,categorization,0,bathroom,SHINEd_sun_ambriybtogmepttm.tif,36,0.0666666666666667,0.0666666666666667,1.08333333333333,6573.532584625,6574.221754208,13,6573.595044417,6573.655270542,6574.24096425,6575.317668042,1,0.689169582999966
110,47,7,categorization,0,bathroom,SHINEd_sun_avhrdrntsqrjzccq.tif,55,0.0666666666666667,0.0666666666666667,1.43333333333333,6575.32649525,6576.2268435,13,6575.391531375,6575.459043833,6576.248853833,6577.675566833,1,0.900348249999297
110,48,7,categorization,0,bathroom,SHINEd_sun_alkosphxlxwjwgjd.tif,34,0.0666666666666667,0.0666666666666667,1.75,6577.692510417,6578.400346583,13,6577.760320708,6577.825007667,6578.413742375,6580.157121917,1,0.707836165999652
110,49,7,categorization,0,bathroom,SHINEd_sun_aleqenyvunhactkl.tif,32,0.0666666666666667,0.0666666666666667,1.21666666666667,6580.174045833,6580.696539708,9,6580.241630292,6580.306623333,6580.712336167,6581.922373042,0,0.522493875000691
110,50,7,categorization,0,bathroom,SHINEd_sun_awnqiikzaispgmwo.tif,56,0.0666666666666667,0.0666666666666667,1.31666666666667,6581.939277042,6582.493763583,9,6582.0058795,6582.071568458,6582.510760083,6583.820798875,0,0.554486541000188
110,1,8,categorization,0,bathroom,SHINEd_sun_asfwthctfqerjvxr.tif,49,0.0666666666666667,0.0666666666666667,1.18333333333333,6590.642694167,6591.334295083,13,6590.704896875,6590.76542825,6591.350683958,6592.52740375,1,0.691600916000425
110,2,8,categorization,0,kitchen,SHINEd_sun_abdxkyyxwfskuaqb.tif,70,0.0666666666666667,0.0666666666666667,0.983333333333333,6592.538395917,6593.814495875,9,6592.604943375,6592.670893583,6593.846903167,6594.823575667,1,1.27609995799958
110,3,8,categorization,0,kitchen,SHINEd_sun_agzzivivdpnawacl.tif,89,0.0666666666666667,0.0666666666666667,1.65,6594.828624333,6595.502758083,13,6594.890414,6594.951307958,6595.519687875,6597.163077125,0,0.674133749999783
110,4,8,categorization,0,kitchen,SHINEd_labelme_brsyyvweiuaazfr.tif,61,0.0666666666666667,0.0666666666666667,1.23333333333333,6597.1794015,6597.947016,13,6597.2458505,6597.311832875,6597.968039,6599.194754083,0,0.767614500000491
110,5,8,categorization,0,bathroom,SHINEd_sun_aavhrsfjbserjtht.tif,13,0.0666666666666667,0.0666666666666667,0.916666666666667,6599.208147958,6599.762593667,9,6599.276128375,6599.340797083,6599.780063042,6600.69010325,0,0.554445708999992
110,6,8,categorization,0,bathroom,SHINEd_sun_aunuadmjocsddsrl.tif,52,0.0666666666666667,0.0666666666666667,1.56666666666667,6600.706441875,6601.382651875,9,6600.773177708,6600.839107208,6601.391239833,6602.9512855,0,0.676210000000538
110,7,8,categorization,0,bathroom,SHINEd_sun_axldvoqbuvuggfmq.tif,57,0.0666666666666667,0.0666666666666667,1.63333333333333,6602.960201083,6603.9524765,13,6603.026571125,6603.092718875,6603.982343375,6605.609057708,1,0.992275416999291
110,8,8,categorization,0,bathroom,SHINEd_sun_ahaulkltgpkeeemi.tif,26,0.0666666666666667,0.0666666666666667,1.1,6605.624705125,6606.575929458,13,6605.691114958,6605.757352042,6606.597531542,6607.690910083,1,0.951224333000027
110,9,8,categorization,0,kitchen,SHINEd_sun_aamedkxepzlwuxes.tif,65,0.0666666666666667,0.0666666666666667,1.38333333333333,6607.700541792,6608.276463875,9,6607.7656365,6607.833558417,6608.306813208,6609.683514333,1,0.575922083000478
110,10,8,categorization,0,bathroom,SHINEd_sun_anryaplzeujmzfkd.tif,39,0.0666666666666667,0.0666666666666667,0.766666666666667,6609.701558625,6610.30170925,9,6609.7638915,6609.8243735,6610.30938925,6611.069395,0,0.600150625000424
110,11,8,categorization,0,kitchen,SHINEd_sun_aehawpgmrlhlvcow.tif,81,0.0666666666666667,0.0666666666666667,1.45,6611.074157292,6612.014208167,13,6611.135816583,6611.196894083,6612.032658292,6613.476043542,0,0.940050875000452
110,12,8,categorization,0,bathroom,SHINEd_sun_agrwbmhcpmfuwmsg.tif,24,0.0666666666666667,0.0666666666666667,0.983333333333333,6613.491658625,6614.454846958,9,6613.558554292,6613.624382292,6614.480965167,6615.457636792,0,0.963188333000289
110,13,8,categorization,0,kitchen,SHINEd_sun_ahdycvpopffkzzsu.tif,90,0.0666666666666667,0.0666666666666667,0.716666666666667,6615.462628333,6616.03782575,13,6615.524355583,6615.585370542,6616.053871125,6616.763876667,0,0.575197416999799
110,14,8,categorization,0,bathroom,SHINEd_sun_apeeialkgkuxddgh.tif,42,0.0666666666666667,0.0666666666666667,1.41666666666667,6616.768673792,6617.245682042,13,6616.830303875,6616.891332292,6617.259758667,6618.66981575,1,0.477008249999926
110,15,8,categorization,0,kitchen,SHINEd_sun_auaiucuqpdausiva.tif,102,0.0666666666666667,0.0666666666666667,1.21666666666667,6618.686782125,6619.525489875,9,6618.753084333,6618.819583625,6619.541991292,6620.752042042,1,0.83870775000014
110,16,8,categorization,0,bathroom,SHINEd_sun_ahqjwnzgolcaoidx.tif,29,0.0666666666666667,0.0666666666666667,1.61666666666667,6620.768632167,6621.390479083,13,6620.835434208,6620.901120125,6621.407368125,6623.017415958,1,0.621846916000322
110,17,8,categorization,0,bathroom,SHINEd_sun_atstyziqcmkahyxk.tif,51,0.0666666666666667,0.0666666666666667,0.783333333333333,6623.036079583,6623.757384792,13,6623.102438167,6623.168885292,6623.775045625,6624.551766083,1,0.721305209000093
110,18,8,categorization,0,bathroom,SHINEd_sun_apkruvsevgegsdwp.tif,44,0.0666666666666667,0.0666666666666667,1.98333333333333,6624.563057792,6625.125889958,13,6624.629154542,6624.688427542,6625.140136583,6627.116846625,1,0.56283216599968
110,19,8,categorization,0,kitchen,SHINEd_sun_axyyrmzcupyhlivc.tif,107,0.0666666666666667,0.0666666666666667,0.983333333333333,6627.135827083,6627.899139333,9,6627.2019815,6627.268261958,6627.92440875,6628.901079083,1,0.763312250000126
110,20,8,categorization,0,bathroom,SHINEd_sun_ausgutylgojavyoq.tif,53,0.0666666666666667,0.0666666666666667,0.8,6628.90606925,6629.534372167,13,6628.96765425,6629.028894708,6629.547599333,6630.340938458,1,0.628302916999928
110,21,8,categorization,0,bathroom,SHINEd_sun_apkxzenqapsujocq.tif,45,0.0666666666666667,0.0666666666666667,0.733333333333333,6630.345875958,6630.96552275,13,6630.407537917,6630.468547167,6630.970208167,6631.696878667,1,0.619646791999912
110,22,8,categorization,0,kitchen,SHINEd_sun_aexklacwqwezaorf.tif,84,0.0666666666666667,0.0666666666666667,0.966666666666667,6631.701602833,6632.221971,13,6631.763296833,6631.824256625,6632.226302417,6633.186306375,0,0.520368167000015
110,23,8,categorization,0,bathroom,SHINEd_sun_aapitsgbtktqubfy.tif,12,0.0666666666666667,0.0666666666666667,0.866666666666667,6633.191169917,6633.805782542,13,6633.252786042,6633.313851708,6633.815911875,6634.675916458,1,0.614612625000518
110,24,8,categorization,0,kitchen,SHINEd_sun_aypmqwcualkenuoe.tif,109,0.0666666666666667,0.0666666666666667,1.23333333333333,6634.682103625,6635.357904167,9,6634.743775792,6634.804752917,6635.3734855,6636.600198208,1,0.675800541999706
110,25,8,categorization,0,bathroom,SHINEd_sun_agguqiubmwhqqunb.tif,22,0.0666666666666667,0.0666666666666667,1.9,6636.618243583,6637.470309292,13,6636.684451792,6636.750936125,6637.490591125,6639.38396875,1,0.852065709000271
110,26,8,categorization,0,kitchen,SHINEd_labelme_kxvouciolcpqplr.tif,62,0.0666666666666667,0.0666666666666667,0.866666666666667,6639.403094458,6640.155871292,9,6639.469447792,6639.535561,6640.174801792,6641.034806208,1,0.752776833999633
110,27,8,categorization,0,bathroom,SHINEd_sun_aqrpegblszgcoujh.tif,48,0.0666666666666667,0.0666666666666667,0.966666666666667,6641.039703083,6641.998392167,9,6641.10139375,6641.162496625,6642.014932458,6642.974937125,0,0.958689084000071
110,28,8,categorization,0,kitchen,SHINEd_sun_awcpdzzznmweyyhv.tif,106,0.0666666666666667,0.0666666666666667,0.916666666666667,6642.979807833,6643.830193375,9,6643.041777708,6643.102630542,6643.837890083,6644.747895333,1,0.850385541999458
110,29,8,categorization,0,kitchen,SHINEd_sun_aeqdocilnnpuvuhx.tif,83,0.0666666666666667,0.0666666666666667,0.916666666666667,6644.753237542,6645.590004708,9,6644.814884625,6644.875943583,6645.594844042,6646.504849458,1,0.836767166000755
110,30,8,categorization,0,kitchen,SHINEd_sun_aqeaevwwwjoqhzvl.tif,101,0.0666666666666667,0.0666666666666667,1.4,6646.509682167,6647.174228458,9,6646.571286667,6646.632346708,6647.18425125,6648.577625042,1,0.664546290999169
110,31,8,categorization,0,bathroom,SHINEd_sun_acgyywnybuveqsro.tif,18,0.0666666666666667,0.0666666666666667,1.75,6648.593701875,6649.131633292,13,6648.661195292,6648.726574208,6649.149101208,6650.892493125,1,0.537931416999527
110,32,8,categorization,0,kitchen,SHINEd_sun_admlmbcdswaszruo.tif,79,0.0666666666666667,0.0666666666666667,1.25,6650.90539875,6651.943821125,9,6650.970233917,6651.038189833,6651.960482667,6653.203873792,1,1.03842237499975
110,33,8,categorization,0,kitchen,SHINEd_sun_aixorpehvfykdynp.tif,95,0.0666666666666667,0.0666666666666667,1.05,6653.220969417,6653.8145005,13,6653.287675083,6653.353314625,6653.84316025,6654.88652875,0,0.593531083000016
110,34,8,categorization,0,bathroom,SHINEd_labelme_sfxiulhjbhlyiyt.tif,11,0.0666666666666667,0.0666666666666667,1.06666666666667,6654.89960925,6655.477438125,13,6654.964141042,6655.024801875,6655.493344333,6656.553380458,1,0.577828874999796
110,35,8,categorization,0,bathroom,SHINEd_sun_azqyogdvyhahyram.tif,60,0.0666666666666667,0.0666666666666667,1.21666666666667,6656.562586792,6657.081726667,13,6656.626977667,6656.692615125,6657.098454167,6658.308490958,1,0.519139875000292
110,36,8,categorization,0,bathroom,SHINEd_sun_aoybiabnpadelefl.tif,41,0.0666666666666667,0.0666666666666667,0.95,6658.324463417,6659.318409125,13,6658.390819167,6658.457193292,6659.3258715,6660.269210833,1,0.993945707999956
110,37,8,categorization,0,bathroom,SHINEd_sun_aghyqhbptboemmoq.tif,23,0.0666666666666667,0.0666666666666667,0.9,6660.274189667,6660.94988975,13,6660.335961833,6660.39682225,6660.965112708,6661.858450083,1,0.675700082999356
110,38,8,categorization,0,bathroom,SHINEd_sun_apjevzvycyhuqghb.tif,43,0.0666666666666667,0.0666666666666667,1.78333333333333,6661.865534833,6662.494244625,9,6661.9273105,6661.988183125,6662.506978625,6664.283696083,0,0.628709791999427
110,39,8,categorization,0,kitchen,SHINEd_sun_acwjdupvyjsugpay.tif,76,0.0666666666666667,0.0666666666666667,1.16666666666667,6664.301088042,6665.072633292,9,6664.3677965,6664.433776625,6665.089654125,6666.249699833,1,0.771545250000599
110,40,8,categorization,0,kitchen,SHINEd_sun_aenotlpyftoioydp.tif,82,0.0666666666666667,0.0666666666666667,0.783333333333333,6666.25901725,6666.869745583,9,6666.325721042,6666.393298917,6666.899846125,6667.676545583,1,0.610728332999315
110,41,8,categorization,0,kitchen,SHINEd_sun_avszsnwsbuqfgzbn.tif,105,0.0666666666666667,0.0666666666666667,1.23333333333333,6667.692743208,6668.16933325,9,6667.759151083,6667.825218125,6668.198164875,6669.424871958,1,0.476590041999771
110,42,8,categorization,0,kitchen,SHINEd_sun_aymvwlarqodbwuoc.tif,108,0.0666666666666667,0.0666666666666667,0.9,6669.4418635,6670.034501417,9,6669.508182333,6669.574914542,6670.064850083,6670.958200333,1,0.592637916999593
110,43,8,categorization,0,kitchen,SHINEd_sun_akcjzhbbjlbogpdi.tif,99,0.0666666666666667,0.0666666666666667,0.7,6670.968560667,6671.693981625,9,6671.035172,6671.101171583,6671.703616583,6672.396954958,1,0.725420957999631
110,44,8,categorization,0,kitchen,SHINEd_sun_aggjlwcdjsjcaemh.tif,86,0.0666666666666667,0.0666666666666667,1.23333333333333,6672.401817958,6673.46954725,9,6672.463431208,6672.5244995,6673.476192292,6674.702890625,1,1.06772929199997
110,45,8,categorization,0,kitchen,SHINEd_sun_ahywdevtimnqcsln.tif,94,0.0666666666666667,0.0666666666666667,1,6674.716269167,6675.427805167,9,6674.782845708,6674.848879083,6675.455564542,6676.448945917,1,0.711535999999796
110,46,8,categorization,0,kitchen,SHINEd_sun_acfmftudsenhrfhy.tif,74,0.0666666666666667,0.0666666666666667,1.38333333333333,6676.458947708,6677.213878792,9,6676.522916917,6676.582072083,6677.217226167,6678.593941167,1,0.754931084000418
110,47,8,categorization,0,kitchen,SHINEd_sun_aadbddgrdsjugojn.tif,64,0.0666666666666667,0.0666666666666667,1.3,6678.611052667,6679.158618917,9,6678.67778125,6678.743705708,6679.183314708,6680.476703667,1,0.547566250000273
110,48,8,categorization,0,kitchen,SHINEd_sun_ajcbwwvdlsvjyzje.tif,96,0.0666666666666667,0.0666666666666667,0.833333333333333,6680.494147375,6681.507805792,13,6680.560700083,6680.6263335,6681.532910125,6682.359619625,0,1.01365841700044
110,49,8,categorization,0,bathroom,SHINEd_sun_apynckhmoftszqoq.tif,47,0.0666666666666667,0.0666666666666667,0.95,6682.374514125,6682.869818917,13,6682.438200667,6682.497847792,6682.883005875,6683.826343417,1,0.495304791999843
110,50,8,categorization,0,bathroom,SHINEd_sun_aspsyogrekjtfozg.tif,50,0.0666666666666667,0.0666666666666667,1.43333333333333,6683.832028083,6684.38224325,13,6683.89366725,6683.954752125,6684.390076417,6685.816802542,1,0.550215166999806
110,1,9,categorization,0,bathroom,SHINEd_sun_atstyziqcmkahyxk.tif,51,0.0666666666666667,0.0666666666666667,1.08333333333333,6717.493355458,6718.294061667,13,6717.55553475,6717.616073833,6718.301197375,6719.377910375,1,0.800706209000055
110,2,9,categorization,0,bathroom,SHINEd_sun_ajlawzvmubibwbpy.tif,30,0.0666666666666667,0.0666666666666667,0.8,6719.385953833,6719.993557458,9,6719.450326833,6719.517761542,6720.006554125,6720.799927958,0,0.607603625000593
110,3,9,categorization,0,kitchen,SHINEd_sun_amjjdeyrggfqgmom.tif,100,0.0666666666666667,0.0666666666666667,0.833333333333333,6720.813526,6721.613670833,9,6720.880226958,6720.942249542,6721.6277265,6722.454397875,1,0.800144832999649
110,4,9,categorization,0,bathroom,SHINEd_sun_aleqenyvunhactkl.tif,32,0.0666666666666667,0.0666666666666667,1.45,6722.459252708,6723.005476333,9,6722.520950625,6722.581962042,6723.017127625,6724.46050925,0,0.546223624999584
110,5,9,categorization,0,bathroom,SHINEd_sun_apjevzvycyhuqghb.tif,43,0.0666666666666667,0.0666666666666667,1.3,6724.472197833,6725.095593833,9,6724.538690417,6724.604917083,6725.110721625,6726.404104167,0,0.623395999999957
110,6,9,categorization,0,bathroom,SHINEd_sun_aofnryafpsjimzsb.tif,40,0.0666666666666667,0.0666666666666667,1.21666666666667,6726.421047625,6727.107136583,13,6726.487592125,6726.553672542,6727.126361708,6728.336410208,1,0.686088958000255
110,7,9,categorization,0,kitchen,SHINEd_sun_agorklincwxrdtga.tif,87,0.0666666666666667,0.0666666666666667,0.733333333333333,6728.353171917,6728.990557583,9,6728.419326792,6728.485754208,6729.007845667,6729.73455075,1,0.637385666000228
110,8,9,categorization,0,kitchen,SHINEd_sun_akcjzhbbjlbogpdi.tif,99,0.0666666666666667,0.0666666666666667,1.03333333333333,6729.750301333,6730.573145292,9,6729.816632333,6729.882661875,6730.584810208,6731.611511375,1,0.822843959000238
110,9,9,categorization,0,bathroom,SHINEd_sun_agyqfjcfkdcydepw.tif,25,0.0666666666666667,0.0666666666666667,1.1,6731.6200435,6732.247084292,9,6731.684538958,6731.751018917,6732.274297583,6733.36766575,0,0.627040792000116
110,10,9,categorization,0,bathroom,SHINEd_sun_ahaulkltgpkeeemi.tif,26,0.0666666666666667,0.0666666666666667,1.25,6733.385354792,6733.957420833,13,6733.451765875,6733.517831167,6733.970356125,6735.21372825,1,0.572066040999744
110,11,9,categorization,0,bathroom,SHINEd_sun_agguqiubmwhqqunb.tif,22,0.0666666666666667,0.0666666666666667,1.4,6735.230412917,6735.867103,13,6735.297210292,6735.363111875,6735.886059458,6737.279448667,1,0.636690082999849
110,12,9,categorization,0,bathroom,SHINEd_sun_alotolagknyrgtsk.tif,35,0.0666666666666667,0.0666666666666667,1.43333333333333,6737.295337792,6737.906345208,9,6737.362745292,6737.428363958,6737.934779458,6739.36150525,0,0.611007415999666
